,subjID,experimentName,versionName,sequenceName,url,selected_row,windowWidth,windowHeight,screenWidth,screenHeight,startDate,startTime,trial,stimulus,duration,actual_depth,depth_estimate,trial_RT,log_sceneDuration,unitSelection,seq_filepath,experimentTime,totalTime,age,gender
0,409500,DepthScenes,duration_manipulation_targetAtFixation,jsons/v1_VE1000_randls_2_rotated.json,http://54.235.29.9/FacialAge/BNav_EC2/DepthDuration/v2_depth_duration_MTurk/v2_DepthDuration_HTML.html#52,52,1350,608,1366,768,8-22-2022,5-24-42,1,depth_duration_stimuli/002209_2014-06-28_18-36-10_260595134347_rgbf000051-resize_1/002209_2014-06-28_18-36-10_260595134347_rgbf000051-resize_1-target.png,1000,2.057,2,6490,780,feet,jsons/v1_VE1000_randls_2_rotated.json,1794405,2181177,48,Man
1,409500,DepthScenes,duration_manipulation_targetAtFixation,jsons/v1_VE1000_randls_2_rotated.json,http://54.235.29.9/FacialAge/BNav_EC2/DepthDuration/v2_depth_duration_MTurk/v2_DepthDuration_HTML.html#52,52,1350,608,1366,768,8-22-2022,5-24-42,2,depth_duration_stimuli/002763_2014-06-22_19-13-10_094959634447_rgbf000075-resize_4/002763_2014-06-22_19-13-10_094959634447_rgbf000075-resize_4-target.png,1000,1.68375,3,6034,1110,feet,jsons/v1_VE1000_randls_2_rotated.json,1794405,2181177,48,Man
2,409500,DepthScenes,duration_manipulation_targetAtFixation,jsons/v1_VE1000_randls_2_rotated.json,http://54.235.29.9/FacialAge/BNav_EC2/DepthDuration/v2_depth_duration_MTurk/v2_DepthDuration_HTML.html#52,52,1350,608,1366,768,8-22-2022,5-24-42,3,depth_duration_stimuli/000780_2014-06-08_22-28-29_260595134347_rgbf000126-resize_1/000780_2014-06-08_22-28-29_260595134347_rgbf000126-resize_1-target.png,1000,3.3825,2,79141,981,feet,jsons/v1_VE1000_randls_2_rotated.json,1794405,2181177,48,Man
3,409500,DepthScenes,duration_manipulation_targetAtFixation,jsons/v1_VE1000_randls_2_rotated.json,http://54.235.29.9/FacialAge/BNav_EC2/DepthDuration/v2_depth_duration_MTurk/v2_DepthDuration_HTML.html#52,52,1350,608,1366,768,8-22-2022,5-24-42,4,depth_duration_stimuli/002445_2014-06-28_20-32-16_260595134347_rgbf000029-resize_4/002445_2014-06-28_20-32-16_260595134347_rgbf000029-resize_4-target.png,1000,2.5315,3,9084,1007,feet,jsons/v1_VE1000_randls_2_rotated.json,1794405,2181177,48,Man
4,409500,DepthScenes,duration_manipulation_targetAtFixation,jsons/v1_VE1000_randls_2_rotated.json,http://54.235.29.9/FacialAge/BNav_EC2/DepthDuration/v2_depth_duration_MTurk/v2_DepthDuration_HTML.html#52,52,1350,608,1366,768,8-22-2022,5-24-42,5,depth_duration_stimuli/002805_2014-06-22_19-54-03_094959634447_rgbf000079-resize_1/002805_2014-06-22_19-54-03_094959634447_rgbf000079-resize_1-target.png,1000,3.1439999999999997,5,148412,1002,feet,jsons/v1_VE1000_randls_2_rotated.json,1794405,2181177,48,Man
5,409500,DepthScenes,duration_manipulation_targetAtFixation,jsons/v1_VE1000_randls_2_rotated.json,http://54.235.29.9/FacialAge/BNav_EC2/DepthDuration/v2_depth_duration_MTurk/v2_DepthDuration_HTML.html#52,52,1350,608,1366,768,8-22-2022,5-24-42,6,depth_duration_stimuli/000906_2014-06-08_13-35-43_260595134347_rgbf000155-resize_1/000906_2014-06-08_13-35-43_260595134347_rgbf000155-resize_1-target.png,1000,2.8489999999999998,4,7512,996,feet,jsons/v1_VE1000_randls_2_rotated.json,1794405,2181177,48,Man
6,409500,DepthScenes,duration_manipulation_targetAtFixation,jsons/v1_VE1000_randls_2_rotated.json,http://54.235.29.9/FacialAge/BNav_EC2/DepthDuration/v2_depth_duration_MTurk/v2_DepthDuration_HTML.html#52,52,1350,608,1366,768,8-22-2022,5-24-42,7,depth_duration_stimuli/000556_2014-06-09_22-42-56_260595134347_rgbf000214-resize_1/000556_2014-06-09_22-42-56_260595134347_rgbf000214-resize_1-target.png,1000,4.8415,4,7314,1005,feet,jsons/v1_VE1000_randls_2_rotated.json,1794405,2181177,48,Man
7,409500,DepthScenes,duration_manipulation_targetAtFixation,jsons/v1_VE1000_randls_2_rotated.json,http://54.235.29.9/FacialAge/BNav_EC2/DepthDuration/v2_depth_duration_MTurk/v2_DepthDuration_HTML.html#52,52,1350,608,1366,768,8-22-2022,5-24-42,8,depth_duration_stimuli/001158_2014-06-17_15-32-16_260595134347_rgbf000138-resize_2/001158_2014-06-17_15-32-16_260595134347_rgbf000138-resize_2-target.png,1000,4.5315,5,9479,997,feet,jsons/v1_VE1000_randls_2_rotated.json,1794405,2181177,48,Man
8,409500,DepthScenes,duration_manipulation_targetAtFixation,jsons/v1_VE1000_randls_2_rotated.json,http://54.235.29.9/FacialAge/BNav_EC2/DepthDuration/v2_depth_duration_MTurk/v2_DepthDuration_HTML.html#52,52,1350,608,1366,768,8-22-2022,5-24-42,9,depth_duration_stimuli/002444_2014-06-28_20-32-08_260595134347_rgbf000027-resize_0/002444_2014-06-28_20-32-08_260595134347_rgbf000027-resize_0-target.png,1000,4.388999999999999,4,14735,1003,feet,jsons/v1_VE1000_randls_2_rotated.json,1794405,2181177,48,Man
9,409500,DepthScenes,duration_manipulation_targetAtFixation,jsons/v1_VE1000_randls_2_rotated.json,http://54.235.29.9/FacialAge/BNav_EC2/DepthDuration/v2_depth_duration_MTurk/v2_DepthDuration_HTML.html#52,52,1350,608,1366,768,8-22-2022,5-24-42,10,depth_duration_stimuli/000436_2014-06-09_22-25-11_260595134347_rgbf000137-resize_1/000436_2014-06-09_22-25-11_260595134347_rgbf000137-resize_1-target.png,1000,4.0705,3,22297,713,feet,jsons/v1_VE1000_randls_2_rotated.json,1794405,2181177,48,Man
10,409500,DepthScenes,duration_manipulation_targetAtFixation,jsons/v1_VE1000_randls_2_rotated.json,http://54.235.29.9/FacialAge/BNav_EC2/DepthDuration/v2_depth_duration_MTurk/v2_DepthDuration_HTML.html#52,52,1350,608,1366,768,8-22-2022,5-24-42,11,depth_duration_stimuli/002953_2014-06-08_17-32-18_094959634447_rgbf000059-resize_5/002953_2014-06-08_17-32-18_094959634447_rgbf000059-resize_5-target.png,1000,1.551,3,7661,996,feet,jsons/v1_VE1000_randls_2_rotated.json,1794405,2181177,48,Man
11,409500,DepthScenes,duration_manipulation_targetAtFixation,jsons/v1_VE1000_randls_2_rotated.json,http://54.235.29.9/FacialAge/BNav_EC2/DepthDuration/v2_depth_duration_MTurk/v2_DepthDuration_HTML.html#52,52,1350,608,1366,768,8-22-2022,5-24-42,12,depth_duration_stimuli/000878_2014-06-08_22-52-45_260595134347_rgbf000045-resize_2/000878_2014-06-08_22-52-45_260595134347_rgbf000045-resize_2-target.png,1000,2.092,2,8206,1003,feet,jsons/v1_VE1000_randls_2_rotated.json,1794405,2181177,48,Man
12,409500,DepthScenes,duration_manipulation_targetAtFixation,jsons/v1_VE1000_randls_2_rotated.json,http://54.235.29.9/FacialAge/BNav_EC2/DepthDuration/v2_depth_duration_MTurk/v2_DepthDuration_HTML.html#52,52,1350,608,1366,768,8-22-2022,5-24-42,13,depth_duration_stimuli/001516_2014-06-20_16-25-09_260595134347_rgbf000076-resize_2/001516_2014-06-20_16-25-09_260595134347_rgbf000076-resize_2-target.png,1000,1.7445,3,10553,1002,feet,jsons/v1_VE1000_randls_2_rotated.json,1794405,2181177,48,Man
13,409500,DepthScenes,duration_manipulation_targetAtFixation,jsons/v1_VE1000_randls_2_rotated.json,http://54.235.29.9/FacialAge/BNav_EC2/DepthDuration/v2_depth_duration_MTurk/v2_DepthDuration_HTML.html#52,52,1350,608,1366,768,8-22-2022,5-24-42,14,depth_duration_stimuli/002118_2014-06-25_20-32-08_260595134347_rgbf000078-resize_1/002118_2014-06-25_20-32-08_260595134347_rgbf000078-resize_1-target.png,1000,2.6460000000000004,3,67240,996,feet,jsons/v1_VE1000_randls_2_rotated.json,1794405,2181177,48,Man
14,409500,DepthScenes,duration_manipulation_targetAtFixation,jsons/v1_VE1000_randls_2_rotated.json,http://54.235.29.9/FacialAge/BNav_EC2/DepthDuration/v2_depth_duration_MTurk/v2_DepthDuration_HTML.html#52,52,1350,608,1366,768,8-22-2022,5-24-42,15,depth_duration_stimuli/003083_2014-06-15_15-21-03_094959634447_rgbf000063-resize_1/003083_2014-06-15_15-21-03_094959634447_rgbf000063-resize_1-target.png,1000,4.1405,4,11592,998,feet,jsons/v1_VE1000_randls_2_rotated.json,1794405,2181177,48,Man
15,409500,DepthScenes,duration_manipulation_targetAtFixation,jsons/v1_VE1000_randls_2_rotated.json,http://54.235.29.9/FacialAge/BNav_EC2/DepthDuration/v2_depth_duration_MTurk/v2_DepthDuration_HTML.html#52,52,1350,608,1366,768,8-22-2022,5-24-42,16,depth_duration_stimuli/000486_2014-06-09_20-47-20_260595134347_rgbf000143-resize_2/000486_2014-06-09_20-47-20_260595134347_rgbf000143-resize_2-target.png,1000,4.8325,2,7381,1002,feet,jsons/v1_VE1000_randls_2_rotated.json,1794405,2181177,48,Man
16,409500,DepthScenes,duration_manipulation_targetAtFixation,jsons/v1_VE1000_randls_2_rotated.json,http://54.235.29.9/FacialAge/BNav_EC2/DepthDuration/v2_depth_duration_MTurk/v2_DepthDuration_HTML.html#52,52,1350,608,1366,768,8-22-2022,5-24-42,17,depth_duration_stimuli/000691_2014-06-08_13-08-50_260595134347_rgbf000132-resize_3/000691_2014-06-08_13-08-50_260595134347_rgbf000132-resize_3-target.png,1000,4.1530000000000005,5,7316,1000,feet,jsons/v1_VE1000_randls_2_rotated.json,1794405,2181177,48,Man
17,409500,DepthScenes,duration_manipulation_targetAtFixation,jsons/v1_VE1000_randls_2_rotated.json,http://54.235.29.9/FacialAge/BNav_EC2/DepthDuration/v2_depth_duration_MTurk/v2_DepthDuration_HTML.html#52,52,1350,608,1366,768,8-22-2022,5-24-42,18,depth_duration_stimuli/002213_2014-06-28_18-37-58_260595134347_rgbf000055-resize_1/002213_2014-06-28_18-37-58_260595134347_rgbf000055-resize_1-target.png,1000,3.62,3,4316,1001,feet,jsons/v1_VE1000_randls_2_rotated.json,1794405,2181177,48,Man
18,409500,DepthScenes,duration_manipulation_targetAtFixation,jsons/v1_VE1000_randls_2_rotated.json,http://54.235.29.9/FacialAge/BNav_EC2/DepthDuration/v2_depth_duration_MTurk/v2_DepthDuration_HTML.html#52,52,1350,608,1366,768,8-22-2022,5-24-42,19,depth_duration_stimuli/001498_2014-06-19_17-45-14_260595134347_rgbf000129-resize_4/001498_2014-06-19_17-45-14_260595134347_rgbf000129-resize-original.jpg,1000,1.4075,0,12669,1006,feet,jsons/v1_VE1000_randls_2_rotated.json,1794405,2181177,48,Man
19,409500,DepthScenes,duration_manipulation_targetAtFixation,jsons/v1_VE1000_randls_2_rotated.json,http://54.235.29.9/FacialAge/BNav_EC2/DepthDuration/v2_depth_duration_MTurk/v2_DepthDuration_HTML.html#52,52,1350,608,1366,768,8-22-2022,5-24-42,20,depth_duration_stimuli/003129_2014-05-12_10-48-10_094959634447_rgbf000100-resize_0/003129_2014-05-12_10-48-10_094959634447_rgbf000100-resize_0-target.png,1000,4.9305,3,75152,995,feet,jsons/v1_VE1000_randls_2_rotated.json,1794405,2181177,48,Man
20,409500,DepthScenes,duration_manipulation_targetAtFixation,jsons/v1_VE1000_randls_2_rotated.json,http://54.235.29.9/FacialAge/BNav_EC2/DepthDuration/v2_depth_duration_MTurk/v2_DepthDuration_HTML.html#52,52,1350,608,1366,768,8-22-2022,5-24-42,21,depth_duration_stimuli/000414_2014-06-04_19-49-13_260595134347_rgbf000044-resize_0/000414_2014-06-04_19-49-13_260595134347_rgbf000044-resize_0-target.png,1000,4.329,4,6701,938,feet,jsons/v1_VE1000_randls_2_rotated.json,1794405,2181177,48,Man
21,409500,DepthScenes,duration_manipulation_targetAtFixation,jsons/v1_VE1000_randls_2_rotated.json,http://54.235.29.9/FacialAge/BNav_EC2/DepthDuration/v2_depth_duration_MTurk/v2_DepthDuration_HTML.html#52,52,1350,608,1366,768,8-22-2022,5-24-42,22,depth_duration_stimuli/002103_2014-06-25_20-00-40_260595134347_rgbf000049-resize_0/002103_2014-06-25_20-00-40_260595134347_rgbf000049-resize_0-target.png,1000,4.105,3,5723,998,feet,jsons/v1_VE1000_randls_2_rotated.json,1794405,2181177,48,Man
22,409500,DepthScenes,duration_manipulation_targetAtFixation,jsons/v1_VE1000_randls_2_rotated.json,http://54.235.29.9/FacialAge/BNav_EC2/DepthDuration/v2_depth_duration_MTurk/v2_DepthDuration_HTML.html#52,52,1350,608,1366,768,8-22-2022,5-24-42,23,depth_duration_stimuli/002039_2014-06-24_20-22-38_260595134347_rgbf000084-resize_1/002039_2014-06-24_20-22-38_260595134347_rgbf000084-resize_1-target.png,1000,4.408,2,50845,1003,feet,jsons/v1_VE1000_randls_2_rotated.json,1794405,2181177,48,Man
23,409500,DepthScenes,duration_manipulation_targetAtFixation,jsons/v1_VE1000_randls_2_rotated.json,http://54.235.29.9/FacialAge/BNav_EC2/DepthDuration/v2_depth_duration_MTurk/v2_DepthDuration_HTML.html#52,52,1350,608,1366,768,8-22-2022,5-24-42,24,depth_duration_stimuli/002414_2014-06-28_20-24-58_260595134347_rgbf000067-resize_4/002414_2014-06-28_20-24-58_260595134347_rgbf000067-resize_4-target.png,1000,4.363,3,4455,904,feet,jsons/v1_VE1000_randls_2_rotated.json,1794405,2181177,48,Man
24,409500,DepthScenes,duration_manipulation_targetAtFixation,jsons/v1_VE1000_randls_2_rotated.json,http://54.235.29.9/FacialAge/BNav_EC2/DepthDuration/v2_depth_duration_MTurk/v2_DepthDuration_HTML.html#52,52,1350,608,1366,768,8-22-2022,5-24-42,25,depth_duration_stimuli/000773_2014-06-08_22-24-54_260595134347_rgbf000093-resize_1/000773_2014-06-08_22-24-54_260595134347_rgbf000093-resize_1-target.png,1000,4.973,4,4243,980,feet,jsons/v1_VE1000_randls_2_rotated.json,1794405,2181177,48,Man
25,409500,DepthScenes,duration_manipulation_targetAtFixation,jsons/v1_VE1000_randls_2_rotated.json,http://54.235.29.9/FacialAge/BNav_EC2/DepthDuration/v2_depth_duration_MTurk/v2_DepthDuration_HTML.html#52,52,1350,608,1366,768,8-22-2022,5-24-42,26,depth_duration_stimuli/003010_2014-06-15_12-54-35_094959634447_rgbf000112-resize_0/003010_2014-06-15_12-54-35_094959634447_rgbf000112-resize_0-target.png,1000,3.1185,4,50585,879,feet,jsons/v1_VE1000_randls_2_rotated.json,1794405,2181177,48,Man
26,409500,DepthScenes,duration_manipulation_targetAtFixation,jsons/v1_VE1000_randls_2_rotated.json,http://54.235.29.9/FacialAge/BNav_EC2/DepthDuration/v2_depth_duration_MTurk/v2_DepthDuration_HTML.html#52,52,1350,608,1366,768,8-22-2022,5-24-42,27,depth_duration_stimuli/001810_2014-06-26_20-51-35_260595134347_rgbf000040-resize_3/001810_2014-06-26_20-51-35_260595134347_rgbf000040-resize_3-target.png,1000,2.2525,2,24727,1035,feet,jsons/v1_VE1000_randls_2_rotated.json,1794405,2181177,48,Man
27,409500,DepthScenes,duration_manipulation_targetAtFixation,jsons/v1_VE1000_randls_2_rotated.json,http://54.235.29.9/FacialAge/BNav_EC2/DepthDuration/v2_depth_duration_MTurk/v2_DepthDuration_HTML.html#52,52,1350,608,1366,768,8-22-2022,5-24-42,28,depth_duration_stimuli/001100_2014-06-15_17-46-26_260595134347_rgbf000225-resize_2/001100_2014-06-15_17-46-26_260595134347_rgbf000225-resize_2-target.png,1000,2.24,2,9044,998,feet,jsons/v1_VE1000_randls_2_rotated.json,1794405,2181177,48,Man
28,409500,DepthScenes,duration_manipulation_targetAtFixation,jsons/v1_VE1000_randls_2_rotated.json,http://54.235.29.9/FacialAge/BNav_EC2/DepthDuration/v2_depth_duration_MTurk/v2_DepthDuration_HTML.html#52,52,1350,608,1366,768,8-22-2022,5-24-42,29,depth_duration_stimuli/002784_2014-06-22_19-26-30_094959634447_rgbf000083-resize_3/002784_2014-06-22_19-26-30_094959634447_rgbf000083-resize_3-target.png,1000,1.8046666666667,1,22392,1001,feet,jsons/v1_VE1000_randls_2_rotated.json,1794405,2181177,48,Man
29,409500,DepthScenes,duration_manipulation_targetAtFixation,jsons/v1_VE1000_randls_2_rotated.json,http://54.235.29.9/FacialAge/BNav_EC2/DepthDuration/v2_depth_duration_MTurk/v2_DepthDuration_HTML.html#52,52,1350,608,1366,768,8-22-2022,5-24-42,30,depth_duration_stimuli/002072_2014-06-24_21-48-06_260595134347_rgbf000115-resize_0/002072_2014-06-24_21-48-06_260595134347_rgbf000115-resize-original.jpg,1000,4.702,0,7837,1002,feet,jsons/v1_VE1000_randls_2_rotated.json,1794405,2181177,48,Man
30,409500,DepthScenes,duration_manipulation_targetAtFixation,jsons/v1_VE1000_randls_2_rotated.json,http://54.235.29.9/FacialAge/BNav_EC2/DepthDuration/v2_depth_duration_MTurk/v2_DepthDuration_HTML.html#52,52,1350,608,1366,768,8-22-2022,5-24-42,31,depth_duration_stimuli/001392_2014-06-19_16-07-59_260595134347_rgbf000046-resize_1/001392_2014-06-19_16-07-59_260595134347_rgbf000046-resize_1-target.png,1000,4.135,3,25868,1086,feet,jsons/v1_VE1000_randls_2_rotated.json,1794405,2181177,48,Man
31,409500,DepthScenes,duration_manipulation_targetAtFixation,jsons/v1_VE1000_randls_2_rotated.json,http://54.235.29.9/FacialAge/BNav_EC2/DepthDuration/v2_depth_duration_MTurk/v2_DepthDuration_HTML.html#52,52,1350,608,1366,768,8-22-2022,5-24-42,32,depth_duration_stimuli/001570_2014-06-20_17-21-09_260595134347_rgbf000135-resize_4/001570_2014-06-20_17-21-09_260595134347_rgbf000135-resize_4-target.png,1000,4.467,4,6128,1003,feet,jsons/v1_VE1000_randls_2_rotated.json,1794405,2181177,48,Man
32,409500,DepthScenes,duration_manipulation_targetAtFixation,jsons/v1_VE1000_randls_2_rotated.json,http://54.235.29.9/FacialAge/BNav_EC2/DepthDuration/v2_depth_duration_MTurk/v2_DepthDuration_HTML.html#52,52,1350,608,1366,768,8-22-2022,5-24-42,33,depth_duration_stimuli/001052_2014-06-08_18-24-54_260595134347_rgbf000130-resize_1/001052_2014-06-08_18-24-54_260595134347_rgbf000130-resize_1-target.png,1000,4.1045,3,6644,1112,feet,jsons/v1_VE1000_randls_2_rotated.json,1794405,2181177,48,Man
33,409500,DepthScenes,duration_manipulation_targetAtFixation,jsons/v1_VE1000_randls_2_rotated.json,http://54.235.29.9/FacialAge/BNav_EC2/DepthDuration/v2_depth_duration_MTurk/v2_DepthDuration_HTML.html#52,52,1350,608,1366,768,8-22-2022,5-24-42,34,depth_duration_stimuli/002988_2014-06-15_12-24-20_094959634447_rgbf000150-resize_1/002988_2014-06-15_12-24-20_094959634447_rgbf000150-resize_1-target.png,1000,4.7669999999999995,4,32397,1047,feet,jsons/v1_VE1000_randls_2_rotated.json,1794405,2181177,48,Man
34,409500,DepthScenes,duration_manipulation_targetAtFixation,jsons/v1_VE1000_randls_2_rotated.json,http://54.235.29.9/FacialAge/BNav_EC2/DepthDuration/v2_depth_duration_MTurk/v2_DepthDuration_HTML.html#52,52,1350,608,1366,768,8-22-2022,5-24-42,35,depth_duration_stimuli/000665_2014-06-09_20-42-35_260595134347_rgbf000110-resize_1/000665_2014-06-09_20-42-35_260595134347_rgbf000110-resize_1-target.png,1000,3.057,3,5684,888,feet,jsons/v1_VE1000_randls_2_rotated.json,1794405,2181177,48,Man
35,409500,DepthScenes,duration_manipulation_targetAtFixation,jsons/v1_VE1000_randls_2_rotated.json,http://54.235.29.9/FacialAge/BNav_EC2/DepthDuration/v2_depth_duration_MTurk/v2_DepthDuration_HTML.html#52,52,1350,608,1366,768,8-22-2022,5-24-42,36,depth_duration_stimuli/001150_2014-06-17_15-27-34_260595134347_rgbf000108-resize_2/001150_2014-06-17_15-27-34_260595134347_rgbf000108-resize_2-target.png,1000,4.0325,4,23403,1009,feet,jsons/v1_VE1000_randls_2_rotated.json,1794405,2181177,48,Man
36,409500,DepthScenes,duration_manipulation_targetAtFixation,jsons/v1_VE1000_randls_2_rotated.json,http://54.235.29.9/FacialAge/BNav_EC2/DepthDuration/v2_depth_duration_MTurk/v2_DepthDuration_HTML.html#52,52,1350,608,1366,768,8-22-2022,5-24-42,37,depth_duration_stimuli/000137_2014-05-20_17-04-49_260595134347_rgbf000120-resize_1/000137_2014-05-20_17-04-49_260595134347_rgbf000120-resize_1-target.png,1000,3.786,6,9589,999,feet,jsons/v1_VE1000_randls_2_rotated.json,1794405,2181177,48,Man
37,409500,DepthScenes,duration_manipulation_targetAtFixation,jsons/v1_VE1000_randls_2_rotated.json,http://54.235.29.9/FacialAge/BNav_EC2/DepthDuration/v2_depth_duration_MTurk/v2_DepthDuration_HTML.html#52,52,1350,608,1366,768,8-22-2022,5-24-42,38,depth_duration_stimuli/000736_2014-06-08_18-24-15_260595134347_rgbf000206-resize_3/000736_2014-06-08_18-24-15_260595134347_rgbf000206-resize_3-target.png,1000,3.515,2,5488,949,feet,jsons/v1_VE1000_randls_2_rotated.json,1794405,2181177,48,Man
38,409500,DepthScenes,duration_manipulation_targetAtFixation,jsons/v1_VE1000_randls_2_rotated.json,http://54.235.29.9/FacialAge/BNav_EC2/DepthDuration/v2_depth_duration_MTurk/v2_DepthDuration_HTML.html#52,52,1350,608,1366,768,8-22-2022,5-24-42,39,depth_duration_stimuli/001235_2014-06-17_16-37-36_260595134347_rgbf000084-resize_4/001235_2014-06-17_16-37-36_260595134347_rgbf000084-resize_4-target.png,1000,3.6605,3,25926,996,feet,jsons/v1_VE1000_randls_2_rotated.json,1794405,2181177,48,Man
39,409500,DepthScenes,duration_manipulation_targetAtFixation,jsons/v1_VE1000_randls_2_rotated.json,http://54.235.29.9/FacialAge/BNav_EC2/DepthDuration/v2_depth_duration_MTurk/v2_DepthDuration_HTML.html#52,52,1350,608,1366,768,8-22-2022,5-24-42,40,depth_duration_stimuli/000788_2014-06-08_22-34-36_260595134347_rgbf000131-resize_1/000788_2014-06-08_22-34-36_260595134347_rgbf000131-resize_1-target.png,1000,3.359,2,5807,1000,feet,jsons/v1_VE1000_randls_2_rotated.json,1794405,2181177,48,Man
40,409500,DepthScenes,duration_manipulation_targetAtFixation,jsons/v1_VE1000_randls_2_rotated.json,http://54.235.29.9/FacialAge/BNav_EC2/DepthDuration/v2_depth_duration_MTurk/v2_DepthDuration_HTML.html#52,52,1350,608,1366,768,8-22-2022,5-24-42,41,depth_duration_stimuli/002995_2014-06-15_12-31-26_094959634447_rgbf000150-resize_1/002995_2014-06-15_12-31-26_094959634447_rgbf000150-resize_1-target.png,1000,3.8360000000000003,3,4585,985,feet,jsons/v1_VE1000_randls_2_rotated.json,1794405,2181177,48,Man
41,409500,DepthScenes,duration_manipulation_targetAtFixation,jsons/v1_VE1000_randls_2_rotated.json,http://54.235.29.9/FacialAge/BNav_EC2/DepthDuration/v2_depth_duration_MTurk/v2_DepthDuration_HTML.html#52,52,1350,608,1366,768,8-22-2022,5-24-42,42,depth_duration_stimuli/002748_2014-06-22_19-07-22_094959634447_rgbf000078-resize_1/002748_2014-06-22_19-07-22_094959634447_rgbf000078-resize_1-target.png,1000,4.6705,4,30446,879,feet,jsons/v1_VE1000_randls_2_rotated.json,1794405,2181177,48,Man
42,409500,DepthScenes,duration_manipulation_targetAtFixation,jsons/v1_VE1000_randls_2_rotated.json,http://54.235.29.9/FacialAge/BNav_EC2/DepthDuration/v2_depth_duration_MTurk/v2_DepthDuration_HTML.html#52,52,1350,608,1366,768,8-22-2022,5-24-42,43,depth_duration_stimuli/000854_2014-06-09_19-43-13_260595134347_rgbf000066-resize_0/000854_2014-06-09_19-43-13_260595134347_rgbf000066-resize_0-target.png,1000,3.068,5,7309,1128,feet,jsons/v1_VE1000_randls_2_rotated.json,1794405,2181177,48,Man
43,409500,DepthScenes,duration_manipulation_targetAtFixation,jsons/v1_VE1000_randls_2_rotated.json,http://54.235.29.9/FacialAge/BNav_EC2/DepthDuration/v2_depth_duration_MTurk/v2_DepthDuration_HTML.html#52,52,1366,664,1366,768,8-22-2022,5-24-42,44,depth_duration_stimuli/000758_2014-06-08_22-05-08_260595134347_rgbf000085-resize_0/000758_2014-06-08_22-05-08_260595134347_rgbf000085-resize_0-target.png,1000,3.3810000000000002,3,69515,1000,feet,jsons/v1_VE1000_randls_2_rotated.json,1794405,2181177,48,Man
44,409500,DepthScenes,duration_manipulation_targetAtFixation,jsons/v1_VE1000_randls_2_rotated.json,http://54.235.29.9/FacialAge/BNav_EC2/DepthDuration/v2_depth_duration_MTurk/v2_DepthDuration_HTML.html#52,52,1350,608,1366,768,8-22-2022,5-24-42,45,depth_duration_stimuli/001584_2014-06-20_11-07-43_260595134347_rgbf000002-resize_1/001584_2014-06-20_11-07-43_260595134347_rgbf000002-resize_1-target.png,1000,3.53,3,94644,999,feet,jsons/v1_VE1000_randls_2_rotated.json,1794405,2181177,48,Man
45,409500,DepthScenes,duration_manipulation_targetAtFixation,jsons/v1_VE1000_randls_2_rotated.json,http://54.235.29.9/FacialAge/BNav_EC2/DepthDuration/v2_depth_duration_MTurk/v2_DepthDuration_HTML.html#52,52,1350,608,1366,768,8-22-2022,5-24-42,46,depth_duration_stimuli/003621_2014-05-23_18-06-08_094959634447_rgbf000101-resize_1/003621_2014-05-23_18-06-08_094959634447_rgbf000101-resize_1-target.png,1000,3.9835,3,9811,912,feet,jsons/v1_VE1000_randls_2_rotated.json,1794405,2181177,48,Man
46,409500,DepthScenes,duration_manipulation_targetAtFixation,jsons/v1_VE1000_randls_2_rotated.json,http://54.235.29.9/FacialAge/BNav_EC2/DepthDuration/v2_depth_duration_MTurk/v2_DepthDuration_HTML.html#52,52,1350,608,1366,768,8-22-2022,5-24-42,47,depth_duration_stimuli/000409_2014-06-04_19-23-33_260595134347_rgbf000067-resize_0/000409_2014-06-04_19-23-33_260595134347_rgbf000067-resize_0-target.png,1000,3.7335,2,7016,995,feet,jsons/v1_VE1000_randls_2_rotated.json,1794405,2181177,48,Man
47,409500,DepthScenes,duration_manipulation_targetAtFixation,jsons/v1_VE1000_randls_2_rotated.json,http://54.235.29.9/FacialAge/BNav_EC2/DepthDuration/v2_depth_duration_MTurk/v2_DepthDuration_HTML.html#52,52,1350,608,1366,768,8-22-2022,5-24-42,48,depth_duration_stimuli/002663_2014-06-13_15-50-26_094959634447_rgbf000075-resize_1/002663_2014-06-13_15-50-26_094959634447_rgbf000075-resize_1-target.png,1000,4.7495,5,8415,986,feet,jsons/v1_VE1000_randls_2_rotated.json,1794405,2181177,48,Man
48,409500,DepthScenes,duration_manipulation_targetAtFixation,jsons/v1_VE1000_randls_2_rotated.json,http://54.235.29.9/FacialAge/BNav_EC2/DepthDuration/v2_depth_duration_MTurk/v2_DepthDuration_HTML.html#52,52,1350,608,1366,768,8-22-2022,5-24-42,49,depth_duration_stimuli/001170_2014-06-17_15-43-44_260595134347_rgbf000096-resize_6/001170_2014-06-17_15-43-44_260595134347_rgbf000096-resize-original.jpg,1000,1.1909999999999998,0,6234,1000,feet,jsons/v1_VE1000_randls_2_rotated.json,1794405,2181177,48,Man
49,409500,DepthScenes,duration_manipulation_targetAtFixation,jsons/v1_VE1000_randls_2_rotated.json,http://54.235.29.9/FacialAge/BNav_EC2/DepthDuration/v2_depth_duration_MTurk/v2_DepthDuration_HTML.html#52,52,1350,608,1366,768,8-22-2022,5-24-42,50,depth_duration_stimuli/003079_2014-06-15_15-18-20_094959634447_rgbf000152-resize_8/003079_2014-06-15_15-18-20_094959634447_rgbf000152-resize_8-target.png,1000,2.8775,5,6614,975,feet,jsons/v1_VE1000_randls_2_rotated.json,1794405,2181177,48,Man
50,409500,DepthScenes,duration_manipulation_targetAtFixation,jsons/v1_VE1000_randls_2_rotated.json,http://54.235.29.9/FacialAge/BNav_EC2/DepthDuration/v2_depth_duration_MTurk/v2_DepthDuration_HTML.html#52,52,1350,608,1366,768,8-22-2022,5-24-42,51,depth_duration_stimuli/000506_2014-06-08_23-21-00_260595134347_rgbf000070-resize_7/000506_2014-06-08_23-21-00_260595134347_rgbf000070-resize_7-target.png,1000,4.0585,4,5348,1091,feet,jsons/v1_VE1000_randls_2_rotated.json,1794405,2181177,48,Man
51,409500,DepthScenes,duration_manipulation_targetAtFixation,jsons/v1_VE1000_randls_2_rotated.json,http://54.235.29.9/FacialAge/BNav_EC2/DepthDuration/v2_depth_duration_MTurk/v2_DepthDuration_HTML.html#52,52,1350,608,1366,768,8-22-2022,5-24-42,52,depth_duration_stimuli/001617_2014-06-20_11-35-32_260595134347_rgbf000066-resize_1/001617_2014-06-20_11-35-32_260595134347_rgbf000066-resize_1-target.png,1000,3.7910000000000004,4,5400,1199,feet,jsons/v1_VE1000_randls_2_rotated.json,1794405,2181177,48,Man
52,409500,DepthScenes,duration_manipulation_targetAtFixation,jsons/v1_VE1000_randls_2_rotated.json,http://54.235.29.9/FacialAge/BNav_EC2/DepthDuration/v2_depth_duration_MTurk/v2_DepthDuration_HTML.html#52,52,1350,608,1366,768,8-22-2022,5-24-42,53,depth_duration_stimuli/001806_2014-06-26_20-50-20_260595134347_rgbf000091-resize_1/001806_2014-06-26_20-50-20_260595134347_rgbf000091-resize_1-target.png,1000,2.7305,3,5009,990,feet,jsons/v1_VE1000_randls_2_rotated.json,1794405,2181177,48,Man
53,409500,DepthScenes,duration_manipulation_targetAtFixation,jsons/v1_VE1000_randls_2_rotated.json,http://54.235.29.9/FacialAge/BNav_EC2/DepthDuration/v2_depth_duration_MTurk/v2_DepthDuration_HTML.html#52,52,1350,608,1366,768,8-22-2022,5-24-42,54,depth_duration_stimuli/000709_2014-06-08_13-51-55_260595134347_rgbf000068-resize_3/000709_2014-06-08_13-51-55_260595134347_rgbf000068-resize_3-target.png,1000,1.8030000000000002,4,5072,1002,feet,jsons/v1_VE1000_randls_2_rotated.json,1794405,2181177,48,Man
54,409500,DepthScenes,duration_manipulation_targetAtFixation,jsons/v1_VE1000_randls_2_rotated.json,http://54.235.29.9/FacialAge/BNav_EC2/DepthDuration/v2_depth_duration_MTurk/v2_DepthDuration_HTML.html#52,52,1350,608,1366,768,8-22-2022,5-24-42,55,depth_duration_stimuli/002057_2014-06-24_21-00-13_260595134347_rgbf000120-resize_1/002057_2014-06-24_21-00-13_260595134347_rgbf000120-resize_1-target.png,1000,2.967,5,4803,942,feet,jsons/v1_VE1000_randls_2_rotated.json,1794405,2181177,48,Man
55,409500,DepthScenes,duration_manipulation_targetAtFixation,jsons/v1_VE1000_randls_2_rotated.json,http://54.235.29.9/FacialAge/BNav_EC2/DepthDuration/v2_depth_duration_MTurk/v2_DepthDuration_HTML.html#52,52,1350,608,1366,768,8-22-2022,5-24-42,56,depth_duration_stimuli/001032_2014-06-08_13-23-17_260595134347_rgbf000021-resize_3/001032_2014-06-08_13-23-17_260595134347_rgbf000021-resize_3-target.png,1000,3.2725,4,6767,981,feet,jsons/v1_VE1000_randls_2_rotated.json,1794405,2181177,48,Man
56,409500,DepthScenes,duration_manipulation_targetAtFixation,jsons/v1_VE1000_randls_2_rotated.json,http://54.235.29.9/FacialAge/BNav_EC2/DepthDuration/v2_depth_duration_MTurk/v2_DepthDuration_HTML.html#52,52,1350,608,1366,768,8-22-2022,5-24-42,57,depth_duration_stimuli/001059_2014-06-08_21-53-27_260595134347_rgbf000061-resize_4/001059_2014-06-08_21-53-27_260595134347_rgbf000061-resize_4-target.png,1000,2.4185,3,4143,996,feet,jsons/v1_VE1000_randls_2_rotated.json,1794405,2181177,48,Man
57,409500,DepthScenes,duration_manipulation_targetAtFixation,jsons/v1_VE1000_randls_2_rotated.json,http://54.235.29.9/FacialAge/BNav_EC2/DepthDuration/v2_depth_duration_MTurk/v2_DepthDuration_HTML.html#52,52,1350,608,1366,768,8-22-2022,5-24-42,58,depth_duration_stimuli/001094_2014-06-15_17-36-00_260595134347_rgbf000205-resize_0/001094_2014-06-15_17-36-00_260595134347_rgbf000205-resize_0-target.png,1000,4.2175,5,5108,996,feet,jsons/v1_VE1000_randls_2_rotated.json,1794405,2181177,48,Man
58,409500,DepthScenes,duration_manipulation_targetAtFixation,jsons/v1_VE1000_randls_2_rotated.json,http://54.235.29.9/FacialAge/BNav_EC2/DepthDuration/v2_depth_duration_MTurk/v2_DepthDuration_HTML.html#52,52,1350,608,1366,768,8-22-2022,5-24-42,59,depth_duration_stimuli/000692_2014-06-08_13-09-42_260595134347_rgbf000199-resize_2/000692_2014-06-08_13-09-42_260595134347_rgbf000199-resize_2-target.png,1000,3.661,5,4455,991,feet,jsons/v1_VE1000_randls_2_rotated.json,1794405,2181177,48,Man
59,409500,DepthScenes,duration_manipulation_targetAtFixation,jsons/v1_VE1000_randls_2_rotated.json,http://54.235.29.9/FacialAge/BNav_EC2/DepthDuration/v2_depth_duration_MTurk/v2_DepthDuration_HTML.html#52,52,1350,608,1366,768,8-22-2022,5-24-42,60,depth_duration_stimuli/002344_2014-06-28_20-06-29_260595134347_rgbf000030-resize_1/002344_2014-06-28_20-06-29_260595134347_rgbf000030-resize_1-target.png,1000,1.5795,2,4854,1009,feet,jsons/v1_VE1000_randls_2_rotated.json,1794405,2181177,48,Man
60,409500,DepthScenes,duration_manipulation_targetAtFixation,jsons/v1_VE1000_randls_2_rotated.json,http://54.235.29.9/FacialAge/BNav_EC2/DepthDuration/v2_depth_duration_MTurk/v2_DepthDuration_HTML.html#52,52,1350,608,1366,768,8-22-2022,5-24-42,61,depth_duration_stimuli/002725_2014-06-22_11-47-51_094959634447_rgbf000070-resize_1/002725_2014-06-22_11-47-51_094959634447_rgbf000070-resize_1-target.png,1000,2.195,4,4300,868,feet,jsons/v1_VE1000_randls_2_rotated.json,1794405,2181177,48,Man
61,409500,DepthScenes,duration_manipulation_targetAtFixation,jsons/v1_VE1000_randls_2_rotated.json,http://54.235.29.9/FacialAge/BNav_EC2/DepthDuration/v2_depth_duration_MTurk/v2_DepthDuration_HTML.html#52,52,1350,608,1366,768,8-22-2022,5-24-42,62,depth_duration_stimuli/000635_2014-06-08_16-38-42_260595134347_rgbf000106-resize_1/000635_2014-06-08_16-38-42_260595134347_rgbf000106-resize_1-target.png,1000,2.074,2,4900,994,feet,jsons/v1_VE1000_randls_2_rotated.json,1794405,2181177,48,Man
62,409500,DepthScenes,duration_manipulation_targetAtFixation,jsons/v1_VE1000_randls_2_rotated.json,http://54.235.29.9/FacialAge/BNav_EC2/DepthDuration/v2_depth_duration_MTurk/v2_DepthDuration_HTML.html#52,52,1350,608,1366,768,8-22-2022,5-24-42,63,depth_duration_stimuli/002279_2014-06-28_18-55-32_260595134347_rgbf000040-resize_5/002279_2014-06-28_18-55-32_260595134347_rgbf000040-resize_5-target.png,1000,1.5043333333333,2,4815,888,feet,jsons/v1_VE1000_randls_2_rotated.json,1794405,2181177,48,Man
63,409500,DepthScenes,duration_manipulation_targetAtFixation,jsons/v1_VE1000_randls_2_rotated.json,http://54.235.29.9/FacialAge/BNav_EC2/DepthDuration/v2_depth_duration_MTurk/v2_DepthDuration_HTML.html#52,52,1350,608,1366,768,8-22-2022,5-24-42,64,depth_duration_stimuli/001828_2014-06-26_21-40-03_260595134347_rgbf000024-resize_0/001828_2014-06-26_21-40-03_260595134347_rgbf000024-resize_0-target.png,1000,4.8260000000000005,4,7345,983,feet,jsons/v1_VE1000_randls_2_rotated.json,1794405,2181177,48,Man
64,409500,DepthScenes,duration_manipulation_targetAtFixation,jsons/v1_VE1000_randls_2_rotated.json,http://54.235.29.9/FacialAge/BNav_EC2/DepthDuration/v2_depth_duration_MTurk/v2_DepthDuration_HTML.html#52,52,1350,608,1366,768,8-22-2022,5-24-42,65,depth_duration_stimuli/000009_2014-05-26_14-32-05_260595134347_rgbf000034-resize_3/000009_2014-05-26_14-32-05_260595134347_rgbf000034-resize_3-target.png,1000,3.8715,5,4472,992,feet,jsons/v1_VE1000_randls_2_rotated.json,1794405,2181177,48,Man
65,409500,DepthScenes,duration_manipulation_targetAtFixation,jsons/v1_VE1000_randls_2_rotated.json,http://54.235.29.9/FacialAge/BNav_EC2/DepthDuration/v2_depth_duration_MTurk/v2_DepthDuration_HTML.html#52,52,1350,608,1366,768,8-22-2022,5-24-42,66,depth_duration_stimuli/001540_2014-06-20_17-01-05_260595134347_rgbf000086-resize_2/001540_2014-06-20_17-01-05_260595134347_rgbf000086-resize-original.jpg,1000,1.459,0,5058,1004,feet,jsons/v1_VE1000_randls_2_rotated.json,1794405,2181177,48,Man
66,409500,DepthScenes,duration_manipulation_targetAtFixation,jsons/v1_VE1000_randls_2_rotated.json,http://54.235.29.9/FacialAge/BNav_EC2/DepthDuration/v2_depth_duration_MTurk/v2_DepthDuration_HTML.html#52,52,1350,608,1366,768,8-22-2022,5-24-42,67,depth_duration_stimuli/003228_2014-05-14_13-42-35_094959634447_rgbf000101-resize_1/003228_2014-05-14_13-42-35_094959634447_rgbf000101-resize_1-target.png,1000,1.9680000000000002,2,6312,1005,feet,jsons/v1_VE1000_randls_2_rotated.json,1794405,2181177,48,Man
67,409500,DepthScenes,duration_manipulation_targetAtFixation,jsons/v1_VE1000_randls_2_rotated.json,http://54.235.29.9/FacialAge/BNav_EC2/DepthDuration/v2_depth_duration_MTurk/v2_DepthDuration_HTML.html#52,52,1350,608,1366,768,8-22-2022,5-24-42,68,depth_duration_stimuli/002600_2014-06-24_14-27-04_094959634447_rgbf000074-resize_2/002600_2014-06-24_14-27-04_094959634447_rgbf000074-resize_2-target.png,1000,2.7575,3,4908,1031,feet,jsons/v1_VE1000_randls_2_rotated.json,1794405,2181177,48,Man
68,409500,DepthScenes,duration_manipulation_targetAtFixation,jsons/v1_VE1000_randls_2_rotated.json,http://54.235.29.9/FacialAge/BNav_EC2/DepthDuration/v2_depth_duration_MTurk/v2_DepthDuration_HTML.html#52,52,1350,608,1366,768,8-22-2022,5-24-42,69,depth_duration_stimuli/003490_2014-05-21_15-50-11_094959634447_rgbf000101-resize_3/003490_2014-05-21_15-50-11_094959634447_rgbf000101-resize_3-target.png,1000,3.6445,4,5584,995,feet,jsons/v1_VE1000_randls_2_rotated.json,1794405,2181177,48,Man
69,409500,DepthScenes,duration_manipulation_targetAtFixation,jsons/v1_VE1000_randls_2_rotated.json,http://54.235.29.9/FacialAge/BNav_EC2/DepthDuration/v2_depth_duration_MTurk/v2_DepthDuration_HTML.html#52,52,1350,608,1366,768,8-22-2022,5-24-42,70,depth_duration_stimuli/001175_2014-06-17_15-45-55_260595134347_rgbf000129-resize_4/001175_2014-06-17_15-45-55_260595134347_rgbf000129-resize_4-target.png,1000,4.255,3,4596,1000,feet,jsons/v1_VE1000_randls_2_rotated.json,1794405,2181177,48,Man
70,409500,DepthScenes,duration_manipulation_targetAtFixation,jsons/v1_VE1000_randls_2_rotated.json,http://54.235.29.9/FacialAge/BNav_EC2/DepthDuration/v2_depth_duration_MTurk/v2_DepthDuration_HTML.html#52,52,1350,608,1366,768,8-22-2022,5-24-42,71,depth_duration_stimuli/000749_2014-06-08_21-55-06_260595134347_rgbf000070-resize_2/000749_2014-06-08_21-55-06_260595134347_rgbf000070-resize_2-target.png,1000,2.331,4,6218,1005,feet,jsons/v1_VE1000_randls_2_rotated.json,1794405,2181177,48,Man
71,409500,DepthScenes,duration_manipulation_targetAtFixation,jsons/v1_VE1000_randls_2_rotated.json,http://54.235.29.9/FacialAge/BNav_EC2/DepthDuration/v2_depth_duration_MTurk/v2_DepthDuration_HTML.html#52,52,1350,608,1366,768,8-22-2022,5-24-42,72,depth_duration_stimuli/002788_2014-06-22_19-36-03_094959634447_rgbf000088-resize_2/002788_2014-06-22_19-36-03_094959634447_rgbf000088-resize_2-target.png,1000,1.6465,3,5814,1010,feet,jsons/v1_VE1000_randls_2_rotated.json,1794405,2181177,48,Man
72,409500,DepthScenes,duration_manipulation_targetAtFixation,jsons/v1_VE1000_randls_2_rotated.json,http://54.235.29.9/FacialAge/BNav_EC2/DepthDuration/v2_depth_duration_MTurk/v2_DepthDuration_HTML.html#52,52,1350,608,1366,768,8-22-2022,5-24-42,73,depth_duration_stimuli/002199_2014-06-28_18-33-56_260595134347_rgbf000074-resize_0/002199_2014-06-28_18-33-56_260595134347_rgbf000074-resize_0-target.png,1000,1.996,2,6865,985,feet,jsons/v1_VE1000_randls_2_rotated.json,1794405,2181177,48,Man
73,409500,DepthScenes,duration_manipulation_targetAtFixation,jsons/v1_VE1000_randls_2_rotated.json,http://54.235.29.9/FacialAge/BNav_EC2/DepthDuration/v2_depth_duration_MTurk/v2_DepthDuration_HTML.html#52,52,1350,608,1366,768,8-22-2022,5-24-42,74,depth_duration_stimuli/001056_2014-06-08_18-46-44_260595134347_rgbf000068-resize_0/001056_2014-06-08_18-46-44_260595134347_rgbf000068-resize_0-target.png,1000,2.6625,4,4375,1010,feet,jsons/v1_VE1000_randls_2_rotated.json,1794405,2181177,48,Man
74,409500,DepthScenes,duration_manipulation_targetAtFixation,jsons/v1_VE1000_randls_2_rotated.json,http://54.235.29.9/FacialAge/BNav_EC2/DepthDuration/v2_depth_duration_MTurk/v2_DepthDuration_HTML.html#52,52,1350,608,1366,768,8-22-2022,5-24-42,75,depth_duration_stimuli/001571_2014-06-20_17-21-32_260595134347_rgbf000089-resize_1/001571_2014-06-20_17-21-32_260595134347_rgbf000089-resize_1-target.png,1000,1.86,3,5194,1058,feet,jsons/v1_VE1000_randls_2_rotated.json,1794405,2181177,48,Man
75,409500,DepthScenes,duration_manipulation_targetAtFixation,jsons/v1_VE1000_randls_2_rotated.json,http://54.235.29.9/FacialAge/BNav_EC2/DepthDuration/v2_depth_duration_MTurk/v2_DepthDuration_HTML.html#52,52,1350,608,1366,768,8-22-2022,5-24-42,76,depth_duration_stimuli/002272_2014-06-28_18-53-56_260595134347_rgbf000067-resize_2/002272_2014-06-28_18-53-56_260595134347_rgbf000067-resize_2-target.png,1000,1.138,2,4615,1000,feet,jsons/v1_VE1000_randls_2_rotated.json,1794405,2181177,48,Man
76,409500,DepthScenes,duration_manipulation_targetAtFixation,jsons/v1_VE1000_randls_2_rotated.json,http://54.235.29.9/FacialAge/BNav_EC2/DepthDuration/v2_depth_duration_MTurk/v2_DepthDuration_HTML.html#52,52,1350,608,1366,768,8-22-2022,5-24-42,77,depth_duration_stimuli/003587_2014-05-23_16-48-02_094959634447_rgbf002384-resize_2/003587_2014-05-23_16-48-02_094959634447_rgbf002384-resize_2-target.png,1000,1.357,1,7831,978,feet,jsons/v1_VE1000_randls_2_rotated.json,1794405,2181177,48,Man
77,409500,DepthScenes,duration_manipulation_targetAtFixation,jsons/v1_VE1000_randls_2_rotated.json,http://54.235.29.9/FacialAge/BNav_EC2/DepthDuration/v2_depth_duration_MTurk/v2_DepthDuration_HTML.html#52,52,1350,608,1366,768,8-22-2022,5-24-42,78,depth_duration_stimuli/001167_2014-06-17_15-38-07_260595134347_rgbf000108-resize_0/001167_2014-06-17_15-38-07_260595134347_rgbf000108-resize_0-target.png,1000,1.8505,2,4587,997,feet,jsons/v1_VE1000_randls_2_rotated.json,1794405,2181177,48,Man
78,409500,DepthScenes,duration_manipulation_targetAtFixation,jsons/v1_VE1000_randls_2_rotated.json,http://54.235.29.9/FacialAge/BNav_EC2/DepthDuration/v2_depth_duration_MTurk/v2_DepthDuration_HTML.html#52,52,1350,608,1366,768,8-22-2022,5-24-42,79,depth_duration_stimuli/001650_2014-06-20_12-09-00_260595134347_rgbf000087-resize_3/001650_2014-06-20_12-09-00_260595134347_rgbf000087-resize_3-target.png,1000,1.9505,2,6069,1001,feet,jsons/v1_VE1000_randls_2_rotated.json,1794405,2181177,48,Man
79,409500,DepthScenes,duration_manipulation_targetAtFixation,jsons/v1_VE1000_randls_2_rotated.json,http://54.235.29.9/FacialAge/BNav_EC2/DepthDuration/v2_depth_duration_MTurk/v2_DepthDuration_HTML.html#52,52,1350,608,1366,768,8-22-2022,5-24-42,80,depth_duration_stimuli/000682_2014-06-08_23-14-58_260595134347_rgbf000041-resize_5/000682_2014-06-08_23-14-58_260595134347_rgbf000041-resize_5-target.png,1000,2.7239999999999998,4,5135,983,feet,jsons/v1_VE1000_randls_2_rotated.json,1794405,2181177,48,Man
80,409500,DepthScenes,duration_manipulation_targetAtFixation,jsons/v1_VE1000_randls_2_rotated.json,http://54.235.29.9/FacialAge/BNav_EC2/DepthDuration/v2_depth_duration_MTurk/v2_DepthDuration_HTML.html#52,52,1350,608,1366,768,8-22-2022,5-24-42,81,depth_duration_stimuli/002323_2014-06-28_20-01-54_260595134347_rgbf000051-resize_4/002323_2014-06-28_20-01-54_260595134347_rgbf000051-resize_4-target.png,1000,3.7310000000000003,3,8056,1008,feet,jsons/v1_VE1000_randls_2_rotated.json,1794405,2181177,48,Man
81,409500,DepthScenes,duration_manipulation_targetAtFixation,jsons/v1_VE1000_randls_2_rotated.json,http://54.235.29.9/FacialAge/BNav_EC2/DepthDuration/v2_depth_duration_MTurk/v2_DepthDuration_HTML.html#52,52,1350,608,1366,768,8-22-2022,5-24-42,82,depth_duration_stimuli/000917_2014-06-09_22-45-29_260595134347_rgbf000149-resize_3/000917_2014-06-09_22-45-29_260595134347_rgbf000149-resize_3-target.png,1000,4.1865,2,10030,1002,feet,jsons/v1_VE1000_randls_2_rotated.json,1794405,2181177,48,Man
82,409500,DepthScenes,duration_manipulation_targetAtFixation,jsons/v1_VE1000_randls_2_rotated.json,http://54.235.29.9/FacialAge/BNav_EC2/DepthDuration/v2_depth_duration_MTurk/v2_DepthDuration_HTML.html#52,52,1350,608,1366,768,8-22-2022,5-24-42,83,depth_duration_stimuli/001447_2014-06-19_17-00-32_260595134347_rgbf000082-resize_5/001447_2014-06-19_17-00-32_260595134347_rgbf000082-resize_5-target.png,1000,4.13775,4,10010,995,feet,jsons/v1_VE1000_randls_2_rotated.json,1794405,2181177,48,Man
83,409500,DepthScenes,duration_manipulation_targetAtFixation,jsons/v1_VE1000_randls_2_rotated.json,http://54.235.29.9/FacialAge/BNav_EC2/DepthDuration/v2_depth_duration_MTurk/v2_DepthDuration_HTML.html#52,52,1350,608,1366,768,8-22-2022,5-24-42,84,depth_duration_stimuli/000447_2014-06-08_16-15-46_260595134347_rgbf000130-resize_1/000447_2014-06-08_16-15-46_260595134347_rgbf000130-resize_1-target.png,1000,4.479,2,4197,996,feet,jsons/v1_VE1000_randls_2_rotated.json,1794405,2181177,48,Man
84,409500,DepthScenes,duration_manipulation_targetAtFixation,jsons/v1_VE1000_randls_2_rotated.json,http://54.235.29.9/FacialAge/BNav_EC2/DepthDuration/v2_depth_duration_MTurk/v2_DepthDuration_HTML.html#52,52,1350,608,1366,768,8-22-2022,5-24-42,85,depth_duration_stimuli/002425_2014-06-28_20-27-29_260595134347_rgbf000031-resize_8/002425_2014-06-28_20-27-29_260595134347_rgbf000031-resize_8-target.png,1000,3.8960000000000004,3,12464,995,feet,jsons/v1_VE1000_randls_2_rotated.json,1794405,2181177,48,Man
85,409500,DepthScenes,duration_manipulation_targetAtFixation,jsons/v1_VE1000_randls_2_rotated.json,http://54.235.29.9/FacialAge/BNav_EC2/DepthDuration/v2_depth_duration_MTurk/v2_DepthDuration_HTML.html#52,52,1350,608,1366,768,8-22-2022,5-24-42,86,depth_duration_stimuli/000642_2014-06-08_16-59-25_260595134347_rgbf000098-resize_2/000642_2014-06-08_16-59-25_260595134347_rgbf000098-resize_2-target.png,1000,2.8815,5,7753,1014,feet,jsons/v1_VE1000_randls_2_rotated.json,1794405,2181177,48,Man
86,409500,DepthScenes,duration_manipulation_targetAtFixation,jsons/v1_VE1000_randls_2_rotated.json,http://54.235.29.9/FacialAge/BNav_EC2/DepthDuration/v2_depth_duration_MTurk/v2_DepthDuration_HTML.html#52,52,1350,608,1366,768,8-22-2022,5-24-42,87,depth_duration_stimuli/000103_2014-05-14_22-01-17_260595134347_rgbf000152-resize_5/000103_2014-05-14_22-01-17_260595134347_rgbf000152-resize_5-target.png,1000,1.993,3,4662,1176,feet,jsons/v1_VE1000_randls_2_rotated.json,1794405,2181177,48,Man
87,409500,DepthScenes,duration_manipulation_targetAtFixation,jsons/v1_VE1000_randls_2_rotated.json,http://54.235.29.9/FacialAge/BNav_EC2/DepthDuration/v2_depth_duration_MTurk/v2_DepthDuration_HTML.html#52,52,1350,608,1366,768,8-22-2022,5-24-42,88,depth_duration_stimuli/001555_2014-06-20_17-12-10_260595134347_rgbf000065-resize_4/001555_2014-06-20_17-12-10_260595134347_rgbf000065-resize_4-target.png,1000,1.633,4,6116,995,feet,jsons/v1_VE1000_randls_2_rotated.json,1794405,2181177,48,Man
88,409500,DepthScenes,duration_manipulation_targetAtFixation,jsons/v1_VE1000_randls_2_rotated.json,http://54.235.29.9/FacialAge/BNav_EC2/DepthDuration/v2_depth_duration_MTurk/v2_DepthDuration_HTML.html#52,52,1350,608,1366,768,8-22-2022,5-24-42,89,depth_duration_stimuli/003048_2014-06-15_13-49-43_094959634447_rgbf000150-resize_1/003048_2014-06-15_13-49-43_094959634447_rgbf000150-resize_1-target.png,1000,4.0035,2,4356,1100,feet,jsons/v1_VE1000_randls_2_rotated.json,1794405,2181177,48,Man
89,409500,DepthScenes,duration_manipulation_targetAtFixation,jsons/v1_VE1000_randls_2_rotated.json,http://54.235.29.9/FacialAge/BNav_EC2/DepthDuration/v2_depth_duration_MTurk/v2_DepthDuration_HTML.html#52,52,1350,608,1366,768,8-22-2022,5-24-42,90,depth_duration_stimuli/002043_2014-06-24_20-29-38_260595134347_rgbf000039-resize_4/002043_2014-06-24_20-29-38_260595134347_rgbf000039-resize_4-target.png,1000,2.8435,4,4140,1031,feet,jsons/v1_VE1000_randls_2_rotated.json,1794405,2181177,48,Man
90,409500,DepthScenes,duration_manipulation_targetAtFixation,jsons/v1_VE1000_randls_2_rotated.json,http://54.235.29.9/FacialAge/BNav_EC2/DepthDuration/v2_depth_duration_MTurk/v2_DepthDuration_HTML.html#52,52,1350,608,1366,768,8-22-2022,5-24-42,91,depth_duration_stimuli/002758_2014-06-22_19-11-20_094959634447_rgbf000128-resize_1/002758_2014-06-22_19-11-20_094959634447_rgbf000128-resize_1-target.png,1000,2.555,3,4471,1027,feet,jsons/v1_VE1000_randls_2_rotated.json,1794405,2181177,48,Man
91,409500,DepthScenes,duration_manipulation_targetAtFixation,jsons/v1_VE1000_randls_2_rotated.json,http://54.235.29.9/FacialAge/BNav_EC2/DepthDuration/v2_depth_duration_MTurk/v2_DepthDuration_HTML.html#52,52,1350,608,1366,768,8-22-2022,5-24-42,92,depth_duration_stimuli/002630_2014-06-24_14-47-50_094959634447_rgbf000055-resize_1/002630_2014-06-24_14-47-50_094959634447_rgbf000055-resize_1-target.png,1000,3.0095,4,3854,1019,feet,jsons/v1_VE1000_randls_2_rotated.json,1794405,2181177,48,Man
92,409500,DepthScenes,duration_manipulation_targetAtFixation,jsons/v1_VE1000_randls_2_rotated.json,http://54.235.29.9/FacialAge/BNav_EC2/DepthDuration/v2_depth_duration_MTurk/v2_DepthDuration_HTML.html#52,52,1350,608,1366,768,8-22-2022,5-24-42,93,depth_duration_stimuli/003495_2014-05-21_16-01-51_094959634447_rgbf000100-resize_3/003495_2014-05-21_16-01-51_094959634447_rgbf000100-resize_3-target.png,1000,1.6255,2,4251,654,feet,jsons/v1_VE1000_randls_2_rotated.json,1794405,2181177,48,Man
93,409500,DepthScenes,duration_manipulation_targetAtFixation,jsons/v1_VE1000_randls_2_rotated.json,http://54.235.29.9/FacialAge/BNav_EC2/DepthDuration/v2_depth_duration_MTurk/v2_DepthDuration_HTML.html#52,52,1350,608,1366,768,8-22-2022,5-24-42,94,depth_duration_stimuli/001244_2014-06-17_16-47-45_260595134347_rgbf000030-resize_4/001244_2014-06-17_16-47-45_260595134347_rgbf000030-resize_4-target.png,1000,2.0425,4,4651,1022,feet,jsons/v1_VE1000_randls_2_rotated.json,1794405,2181177,48,Man
94,409500,DepthScenes,duration_manipulation_targetAtFixation,jsons/v1_VE1000_randls_2_rotated.json,http://54.235.29.9/FacialAge/BNav_EC2/DepthDuration/v2_depth_duration_MTurk/v2_DepthDuration_HTML.html#52,52,1350,608,1366,768,8-22-2022,5-24-42,95,depth_duration_stimuli/002639_2014-06-24_14-51-37_094959634447_rgbf000074-resize_4/002639_2014-06-24_14-51-37_094959634447_rgbf000074-resize_4-target.png,1000,4.0375,5,4311,901,feet,jsons/v1_VE1000_randls_2_rotated.json,1794405,2181177,48,Man
95,409500,DepthScenes,duration_manipulation_targetAtFixation,jsons/v1_VE1000_randls_2_rotated.json,http://54.235.29.9/FacialAge/BNav_EC2/DepthDuration/v2_depth_duration_MTurk/v2_DepthDuration_HTML.html#52,52,1350,608,1366,768,8-22-2022,5-24-42,96,depth_duration_stimuli/003292_2014-05-14_21-53-49_094959634447_rgbf000100-resize_2/003292_2014-05-14_21-53-49_094959634447_rgbf000100-resize_2-target.png,1000,3.4815,5,4565,997,feet,jsons/v1_VE1000_randls_2_rotated.json,1794405,2181177,48,Man
96,409500,DepthScenes,duration_manipulation_targetAtFixation,jsons/v1_VE1000_randls_2_rotated.json,http://54.235.29.9/FacialAge/BNav_EC2/DepthDuration/v2_depth_duration_MTurk/v2_DepthDuration_HTML.html#52,52,1350,608,1366,768,8-22-2022,5-24-42,97,depth_duration_stimuli/000457_2014-06-08_16-52-43_260595134347_rgbf000199-resize_1/000457_2014-06-08_16-52-43_260595134347_rgbf000199-resize_1-target.png,1000,3.6489999999999996,6,6717,1001,feet,jsons/v1_VE1000_randls_2_rotated.json,1794405,2181177,48,Man
97,409500,DepthScenes,duration_manipulation_targetAtFixation,jsons/v1_VE1000_randls_2_rotated.json,http://54.235.29.9/FacialAge/BNav_EC2/DepthDuration/v2_depth_duration_MTurk/v2_DepthDuration_HTML.html#52,52,1350,608,1366,768,8-22-2022,5-24-42,98,depth_duration_stimuli/000929_2014-06-09_16-33-19_260595134347_rgbf000139-resize_0/000929_2014-06-09_16-33-19_260595134347_rgbf000139-resize_0-target.png,1000,2.8680000000000003,2,7949,997,feet,jsons/v1_VE1000_randls_2_rotated.json,1794405,2181177,48,Man
98,409500,DepthScenes,duration_manipulation_targetAtFixation,jsons/v1_VE1000_randls_2_rotated.json,http://54.235.29.9/FacialAge/BNav_EC2/DepthDuration/v2_depth_duration_MTurk/v2_DepthDuration_HTML.html#52,52,1350,608,1366,768,8-22-2022,5-24-42,99,depth_duration_stimuli/001222_2014-06-17_16-24-06_260595134347_rgbf000073-resize_0/001222_2014-06-17_16-24-06_260595134347_rgbf000073-resize-original.jpg,1000,1.4385,2,31414,1001,feet,jsons/v1_VE1000_randls_2_rotated.json,1794405,2181177,48,Man
99,409500,DepthScenes,duration_manipulation_targetAtFixation,jsons/v1_VE1000_randls_2_rotated.json,http://54.235.29.9/FacialAge/BNav_EC2/DepthDuration/v2_depth_duration_MTurk/v2_DepthDuration_HTML.html#52,52,1350,608,1366,768,8-22-2022,5-24-42,100,depth_duration_stimuli/003338_2014-05-20_11-01-23_094959634447_rgbf000051-resize_6/003338_2014-05-20_11-01-23_094959634447_rgbf000051-resize_6-target.png,1000,1.693,3,7827,998,feet,jsons/v1_VE1000_randls_2_rotated.json,1794405,2181177,48,Man
100,409500,DepthScenes,duration_manipulation_targetAtFixation,jsons/v1_VE1000_randls_2_rotated.json,http://54.235.29.9/FacialAge/BNav_EC2/DepthDuration/v2_depth_duration_MTurk/v2_DepthDuration_HTML.html#52,52,1350,608,1366,768,8-22-2022,5-24-42,101,depth_duration_stimuli/002509_2014-06-24_13-19-22_094959634447_rgbf000077-resize_0/002509_2014-06-24_13-19-22_094959634447_rgbf000077-resize_0-target.png,1000,1.3065,3,7411,997,feet,jsons/v1_VE1000_randls_2_rotated.json,1794405,2181177,48,Man
101,409500,DepthScenes,duration_manipulation_targetAtFixation,jsons/v1_VE1000_randls_2_rotated.json,http://54.235.29.9/FacialAge/BNav_EC2/DepthDuration/v2_depth_duration_MTurk/v2_DepthDuration_HTML.html#52,52,1350,608,1366,768,8-22-2022,5-24-42,102,depth_duration_stimuli/002750_2014-06-22_19-08-03_094959634447_rgbf000094-resize_4/002750_2014-06-22_19-08-03_094959634447_rgbf000094-resize_4-target.png,1000,2.354,4,5577,1003,feet,jsons/v1_VE1000_randls_2_rotated.json,1794405,2181177,48,Man
102,409500,DepthScenes,duration_manipulation_targetAtFixation,jsons/v1_VE1000_randls_2_rotated.json,http://54.235.29.9/FacialAge/BNav_EC2/DepthDuration/v2_depth_duration_MTurk/v2_DepthDuration_HTML.html#52,52,1350,608,1366,768,8-22-2022,5-24-42,103,depth_duration_stimuli/002549_2014-06-24_13-41-39_094959634447_rgbf000022-resize_3/002549_2014-06-24_13-41-39_094959634447_rgbf000022-resize_3-target.png,1000,1.476,3,4394,1013,feet,jsons/v1_VE1000_randls_2_rotated.json,1794405,2181177,48,Man
103,409500,DepthScenes,duration_manipulation_targetAtFixation,jsons/v1_VE1000_randls_2_rotated.json,http://54.235.29.9/FacialAge/BNav_EC2/DepthDuration/v2_depth_duration_MTurk/v2_DepthDuration_HTML.html#52,52,1350,608,1366,768,8-22-2022,5-24-42,104,depth_duration_stimuli/000483_2014-06-09_20-41-45_260595134347_rgbf000116-resize_4/000483_2014-06-09_20-41-45_260595134347_rgbf000116-resize_4-target.png,1000,1.337,4,10319,1000,feet,jsons/v1_VE1000_randls_2_rotated.json,1794405,2181177,48,Man
104,409500,DepthScenes,duration_manipulation_targetAtFixation,jsons/v1_VE1000_randls_2_rotated.json,http://54.235.29.9/FacialAge/BNav_EC2/DepthDuration/v2_depth_duration_MTurk/v2_DepthDuration_HTML.html#52,52,1350,608,1366,768,8-22-2022,5-24-42,105,depth_duration_stimuli/000469_2014-06-09_19-42-10_260595134347_rgbf000081-resize_1/000469_2014-06-09_19-42-10_260595134347_rgbf000081-resize_1-target.png,1000,1.652,4,6158,993,feet,jsons/v1_VE1000_randls_2_rotated.json,1794405,2181177,48,Man
105,409500,DepthScenes,duration_manipulation_targetAtFixation,jsons/v1_VE1000_randls_2_rotated.json,http://54.235.29.9/FacialAge/BNav_EC2/DepthDuration/v2_depth_duration_MTurk/v2_DepthDuration_HTML.html#52,52,1350,608,1366,768,8-22-2022,5-24-42,106,depth_duration_stimuli/002949_2014-06-26_15-57-42_094959634447_rgbf000079-resize_1/002949_2014-06-26_15-57-42_094959634447_rgbf000079-resize_1-target.png,1000,1.8915,3,4867,1001,feet,jsons/v1_VE1000_randls_2_rotated.json,1794405,2181177,48,Man
106,409500,DepthScenes,duration_manipulation_targetAtFixation,jsons/v1_VE1000_randls_2_rotated.json,http://54.235.29.9/FacialAge/BNav_EC2/DepthDuration/v2_depth_duration_MTurk/v2_DepthDuration_HTML.html#52,52,1350,608,1366,768,8-22-2022,5-24-42,107,depth_duration_stimuli/000522_2014-06-08_13-35-06_260595134347_rgbf000244-resize_1/000522_2014-06-08_13-35-06_260595134347_rgbf000244-resize_1-target.png,1000,2.3715,2,3888,1001,feet,jsons/v1_VE1000_randls_2_rotated.json,1794405,2181177,48,Man
107,409500,DepthScenes,duration_manipulation_targetAtFixation,jsons/v1_VE1000_randls_2_rotated.json,http://54.235.29.9/FacialAge/BNav_EC2/DepthDuration/v2_depth_duration_MTurk/v2_DepthDuration_HTML.html#52,52,1350,608,1366,768,8-22-2022,5-24-42,108,depth_duration_stimuli/003081_2014-06-15_15-19-16_094959634447_rgbf000150-resize_1/003081_2014-06-15_15-19-16_094959634447_rgbf000150-resize_1-target.png,1000,3.9125,4,4857,1000,feet,jsons/v1_VE1000_randls_2_rotated.json,1794405,2181177,48,Man
108,409500,DepthScenes,duration_manipulation_targetAtFixation,jsons/v1_VE1000_randls_2_rotated.json,http://54.235.29.9/FacialAge/BNav_EC2/DepthDuration/v2_depth_duration_MTurk/v2_DepthDuration_HTML.html#52,52,1350,608,1366,768,8-22-2022,5-24-42,109,depth_duration_stimuli/001417_2014-06-19_16-25-36_260595134347_rgbf000115-resize_5/001417_2014-06-19_16-25-36_260595134347_rgbf000115-resize_5-target.png,1000,4.6255,2,8336,998,feet,jsons/v1_VE1000_randls_2_rotated.json,1794405,2181177,48,Man
109,409500,DepthScenes,duration_manipulation_targetAtFixation,jsons/v1_VE1000_randls_2_rotated.json,http://54.235.29.9/FacialAge/BNav_EC2/DepthDuration/v2_depth_duration_MTurk/v2_DepthDuration_HTML.html#52,52,1350,608,1366,768,8-22-2022,5-24-42,110,depth_duration_stimuli/001132_2014-06-17_14-48-54_260595134347_rgbf000100-resize_2/001132_2014-06-17_14-48-54_260595134347_rgbf000100-resize_2-target.png,1000,3.753,4,4875,995,feet,jsons/v1_VE1000_randls_2_rotated.json,1794405,2181177,48,Man
110,409500,DepthScenes,duration_manipulation_targetAtFixation,jsons/v1_VE1000_randls_2_rotated.json,http://54.235.29.9/FacialAge/BNav_EC2/DepthDuration/v2_depth_duration_MTurk/v2_DepthDuration_HTML.html#52,52,1350,608,1366,768,8-22-2022,5-24-42,111,depth_duration_stimuli/001133_2014-06-17_14-49-16_260595134347_rgbf000100-resize_0/001133_2014-06-17_14-49-16_260595134347_rgbf000100-resize_0-target.png,1000,4.2115,5,4862,1040,feet,jsons/v1_VE1000_randls_2_rotated.json,1794405,2181177,48,Man
111,409500,DepthScenes,duration_manipulation_targetAtFixation,jsons/v1_VE1000_randls_2_rotated.json,http://54.235.29.9/FacialAge/BNav_EC2/DepthDuration/v2_depth_duration_MTurk/v2_DepthDuration_HTML.html#52,52,1350,608,1366,768,8-22-2022,5-24-42,112,depth_duration_stimuli/000742_2014-06-08_18-48-09_260595134347_rgbf000164-resize_4/000742_2014-06-08_18-48-09_260595134347_rgbf000164-resize_4-target.png,1000,4.632,3,4473,934,feet,jsons/v1_VE1000_randls_2_rotated.json,1794405,2181177,48,Man
112,409500,DepthScenes,duration_manipulation_targetAtFixation,jsons/v1_VE1000_randls_2_rotated.json,http://54.235.29.9/FacialAge/BNav_EC2/DepthDuration/v2_depth_duration_MTurk/v2_DepthDuration_HTML.html#52,52,1350,608,1366,768,8-22-2022,5-24-42,113,depth_duration_stimuli/001066_2014-06-08_22-03-20_260595134347_rgbf000066-resize_4/001066_2014-06-08_22-03-20_260595134347_rgbf000066-resize_4-target.png,1000,4.2330000000000005,3,3942,990,feet,jsons/v1_VE1000_randls_2_rotated.json,1794405,2181177,48,Man
113,409500,DepthScenes,duration_manipulation_targetAtFixation,jsons/v1_VE1000_randls_2_rotated.json,http://54.235.29.9/FacialAge/BNav_EC2/DepthDuration/v2_depth_duration_MTurk/v2_DepthDuration_HTML.html#52,52,1350,608,1366,768,8-22-2022,5-24-42,114,depth_duration_stimuli/002136_2014-06-25_21-18-03_260595134347_rgbf000109-resize_3/002136_2014-06-25_21-18-03_260595134347_rgbf000109-resize_3-target.png,1000,1.9569999999999999,2,4880,1000,feet,jsons/v1_VE1000_randls_2_rotated.json,1794405,2181177,48,Man
114,409500,DepthScenes,duration_manipulation_targetAtFixation,jsons/v1_VE1000_randls_2_rotated.json,http://54.235.29.9/FacialAge/BNav_EC2/DepthDuration/v2_depth_duration_MTurk/v2_DepthDuration_HTML.html#52,52,1350,608,1366,768,8-22-2022,5-24-42,115,depth_duration_stimuli/002964_2014-06-08_17-46-11_094959634447_rgbf000091-resize_4/002964_2014-06-08_17-46-11_094959634447_rgbf000091-resize_4-target.png,1000,1.6909999999999998,3,4239,1007,feet,jsons/v1_VE1000_randls_2_rotated.json,1794405,2181177,48,Man
115,409500,DepthScenes,duration_manipulation_targetAtFixation,jsons/v1_VE1000_randls_2_rotated.json,http://54.235.29.9/FacialAge/BNav_EC2/DepthDuration/v2_depth_duration_MTurk/v2_DepthDuration_HTML.html#52,52,1350,608,1366,768,8-22-2022,5-24-42,116,depth_duration_stimuli/001136_2014-06-17_15-19-41_260595134347_rgbf000076-resize_3/001136_2014-06-17_15-19-41_260595134347_rgbf000076-resize_3-target.png,1000,1.8655,5,4195,1003,feet,jsons/v1_VE1000_randls_2_rotated.json,1794405,2181177,48,Man
116,409500,DepthScenes,duration_manipulation_targetAtFixation,jsons/v1_VE1000_randls_2_rotated.json,http://54.235.29.9/FacialAge/BNav_EC2/DepthDuration/v2_depth_duration_MTurk/v2_DepthDuration_HTML.html#52,52,1350,608,1366,768,8-22-2022,5-24-42,117,depth_duration_stimuli/001164_2014-06-17_15-35-46_260595134347_rgbf000085-resize_3/001164_2014-06-17_15-35-46_260595134347_rgbf000085-resize_3-target.png,1000,2.354,6,3863,1007,feet,jsons/v1_VE1000_randls_2_rotated.json,1794405,2181177,48,Man
117,409500,DepthScenes,duration_manipulation_targetAtFixation,jsons/v1_VE1000_randls_2_rotated.json,http://54.235.29.9/FacialAge/BNav_EC2/DepthDuration/v2_depth_duration_MTurk/v2_DepthDuration_HTML.html#52,52,1350,608,1366,768,8-22-2022,5-24-42,118,depth_duration_stimuli/002568_2014-06-24_13-59-21_094959634447_rgbf000062-resize_4/002568_2014-06-24_13-59-21_094959634447_rgbf000062-resize_4-target.png,1000,3.015,7,5229,993,feet,jsons/v1_VE1000_randls_2_rotated.json,1794405,2181177,48,Man
118,409500,DepthScenes,duration_manipulation_targetAtFixation,jsons/v1_VE1000_randls_2_rotated.json,http://54.235.29.9/FacialAge/BNav_EC2/DepthDuration/v2_depth_duration_MTurk/v2_DepthDuration_HTML.html#52,52,1350,608,1366,768,8-22-2022,5-24-42,119,depth_duration_stimuli/003492_2014-05-21_15-50-55_094959634447_rgbf000828-resize_1/003492_2014-05-21_15-50-55_094959634447_rgbf000828-resize_1-target.png,1000,4.06875,7,4118,990,feet,jsons/v1_VE1000_randls_2_rotated.json,1794405,2181177,48,Man
119,409500,DepthScenes,duration_manipulation_targetAtFixation,jsons/v1_VE1000_randls_2_rotated.json,http://54.235.29.9/FacialAge/BNav_EC2/DepthDuration/v2_depth_duration_MTurk/v2_DepthDuration_HTML.html#52,52,1350,608,1366,768,8-22-2022,5-24-42,120,depth_duration_stimuli/000787_2014-06-08_22-33-53_260595134347_rgbf000175-resize_1/000787_2014-06-08_22-33-53_260595134347_rgbf000175-resize-original.jpg,1000,4.784,0,4540,1022,feet,jsons/v1_VE1000_randls_2_rotated.json,1794405,2181177,48,Man
120,409500,DepthScenes,duration_manipulation_targetAtFixation,jsons/v1_VE1000_randls_2_rotated.json,http://54.235.29.9/FacialAge/BNav_EC2/DepthDuration/v2_depth_duration_MTurk/v2_DepthDuration_HTML.html#52,52,1350,608,1366,768,8-22-2022,5-24-42,121,depth_duration_stimuli/002467_2014-06-28_20-38-07_260595134347_rgbf000026-resize_2/002467_2014-06-28_20-38-07_260595134347_rgbf000026-resize_2-target.png,1000,4.742,3,4010,1094,feet,jsons/v1_VE1000_randls_2_rotated.json,1794405,2181177,48,Man
121,409500,DepthScenes,duration_manipulation_targetAtFixation,jsons/v1_VE1000_randls_2_rotated.json,http://54.235.29.9/FacialAge/BNav_EC2/DepthDuration/v2_depth_duration_MTurk/v2_DepthDuration_HTML.html#52,52,1350,608,1366,768,8-22-2022,5-24-42,122,depth_duration_stimuli/002570_2014-06-24_13-59-54_094959634447_rgbf000059-resize_0/002570_2014-06-24_13-59-54_094959634447_rgbf000059-resize_0-target.png,1000,4.037,4,4000,1004,feet,jsons/v1_VE1000_randls_2_rotated.json,1794405,2181177,48,Man
122,409500,DepthScenes,duration_manipulation_targetAtFixation,jsons/v1_VE1000_randls_2_rotated.json,http://54.235.29.9/FacialAge/BNav_EC2/DepthDuration/v2_depth_duration_MTurk/v2_DepthDuration_HTML.html#52,52,1350,608,1366,768,8-22-2022,5-24-42,123,depth_duration_stimuli/000866_2014-06-09_20-45-42_260595134347_rgbf000139-resize_1/000866_2014-06-09_20-45-42_260595134347_rgbf000139-resize_1-target.png,1000,3.2155,5,4188,991,feet,jsons/v1_VE1000_randls_2_rotated.json,1794405,2181177,48,Man
123,409500,DepthScenes,duration_manipulation_targetAtFixation,jsons/v1_VE1000_randls_2_rotated.json,http://54.235.29.9/FacialAge/BNav_EC2/DepthDuration/v2_depth_duration_MTurk/v2_DepthDuration_HTML.html#52,52,1350,608,1366,768,8-22-2022,5-24-42,124,depth_duration_stimuli/002989_2014-06-15_12-25-03_094959634447_rgbf000150-resize_3/002989_2014-06-15_12-25-03_094959634447_rgbf000150-resize_3-target.png,1000,4.1975,4,3696,951,feet,jsons/v1_VE1000_randls_2_rotated.json,1794405,2181177,48,Man
124,409500,DepthScenes,duration_manipulation_targetAtFixation,jsons/v1_VE1000_randls_2_rotated.json,http://54.235.29.9/FacialAge/BNav_EC2/DepthDuration/v2_depth_duration_MTurk/v2_DepthDuration_HTML.html#52,52,1350,608,1366,768,8-22-2022,5-24-42,125,depth_duration_stimuli/002678_2014-06-13_16-15-32_094959634447_rgbf000151-resize_6/002678_2014-06-13_16-15-32_094959634447_rgbf000151-resize_6-target.png,1000,2.1830000000000003,4,4516,1002,feet,jsons/v1_VE1000_randls_2_rotated.json,1794405,2181177,48,Man
125,409500,DepthScenes,duration_manipulation_targetAtFixation,jsons/v1_VE1000_randls_2_rotated.json,http://54.235.29.9/FacialAge/BNav_EC2/DepthDuration/v2_depth_duration_MTurk/v2_DepthDuration_HTML.html#52,52,1350,608,1366,768,8-22-2022,5-24-42,126,depth_duration_stimuli/000368_2014-06-09_15-53-01_260595134347_rgbf000155-resize_2/000368_2014-06-09_15-53-01_260595134347_rgbf000155-resize_2-target.png,1000,2.4859999999999998,2,3781,998,feet,jsons/v1_VE1000_randls_2_rotated.json,1794405,2181177,48,Man
126,409500,DepthScenes,duration_manipulation_targetAtFixation,jsons/v1_VE1000_randls_2_rotated.json,http://54.235.29.9/FacialAge/BNav_EC2/DepthDuration/v2_depth_duration_MTurk/v2_DepthDuration_HTML.html#52,52,1350,608,1366,768,8-22-2022,5-24-42,127,depth_duration_stimuli/000502_2014-06-08_23-02-32_260595134347_rgbf000063-resize_4/000502_2014-06-08_23-02-32_260595134347_rgbf000063-resize_4-target.png,1000,2.431,4,4132,1009,feet,jsons/v1_VE1000_randls_2_rotated.json,1794405,2181177,48,Man
127,409500,DepthScenes,duration_manipulation_targetAtFixation,jsons/v1_VE1000_randls_2_rotated.json,http://54.235.29.9/FacialAge/BNav_EC2/DepthDuration/v2_depth_duration_MTurk/v2_DepthDuration_HTML.html#52,52,1350,608,1366,768,8-22-2022,5-24-42,128,depth_duration_stimuli/001199_2014-06-17_16-03-48_260595134347_rgbf000077-resize_0/001199_2014-06-17_16-03-48_260595134347_rgbf000077-resize_0-target.png,1000,3.4375,4,4050,992,feet,jsons/v1_VE1000_randls_2_rotated.json,1794405,2181177,48,Man
128,409500,DepthScenes,duration_manipulation_targetAtFixation,jsons/v1_VE1000_randls_2_rotated.json,http://54.235.29.9/FacialAge/BNav_EC2/DepthDuration/v2_depth_duration_MTurk/v2_DepthDuration_HTML.html#52,52,1350,608,1366,768,8-22-2022,5-24-42,129,depth_duration_stimuli/000943_2014-06-09_19-31-07_260595134347_rgbf000128-resize_1/000943_2014-06-09_19-31-07_260595134347_rgbf000128-resize_1-target.png,1000,1.9765,3,4043,1010,feet,jsons/v1_VE1000_randls_2_rotated.json,1794405,2181177,48,Man
129,409500,DepthScenes,duration_manipulation_targetAtFixation,jsons/v1_VE1000_randls_2_rotated.json,http://54.235.29.9/FacialAge/BNav_EC2/DepthDuration/v2_depth_duration_MTurk/v2_DepthDuration_HTML.html#52,52,1350,608,1366,768,8-22-2022,5-24-42,130,depth_duration_stimuli/003070_2014-06-15_14-58-27_094959634447_rgbf000150-resize_3/003070_2014-06-15_14-58-27_094959634447_rgbf000150-resize_3-target.png,1000,2.9415,4,4140,997,feet,jsons/v1_VE1000_randls_2_rotated.json,1794405,2181177,48,Man
130,409500,DepthScenes,duration_manipulation_targetAtFixation,jsons/v1_VE1000_randls_2_rotated.json,http://54.235.29.9/FacialAge/BNav_EC2/DepthDuration/v2_depth_duration_MTurk/v2_DepthDuration_HTML.html#52,52,1350,608,1366,768,8-22-2022,5-24-42,131,depth_duration_stimuli/000191_2014-05-12_17-07-38_260595134347_rgbf000199-resize_0/000191_2014-05-12_17-07-38_260595134347_rgbf000199-resize_0-target.png,1000,3.7995,5,3944,889,feet,jsons/v1_VE1000_randls_2_rotated.json,1794405,2181177,48,Man
131,409500,DepthScenes,duration_manipulation_targetAtFixation,jsons/v1_VE1000_randls_2_rotated.json,http://54.235.29.9/FacialAge/BNav_EC2/DepthDuration/v2_depth_duration_MTurk/v2_DepthDuration_HTML.html#52,52,1350,608,1366,768,8-22-2022,5-24-42,132,depth_duration_stimuli/000493_2014-06-09_21-01-18_260595134347_rgbf000196-resize_3/000493_2014-06-09_21-01-18_260595134347_rgbf000196-resize_3-target.png,1000,3.44,5,3311,620,feet,jsons/v1_VE1000_randls_2_rotated.json,1794405,2181177,48,Man
132,409500,DepthScenes,duration_manipulation_targetAtFixation,jsons/v1_VE1000_randls_2_rotated.json,http://54.235.29.9/FacialAge/BNav_EC2/DepthDuration/v2_depth_duration_MTurk/v2_DepthDuration_HTML.html#52,52,1350,608,1366,768,8-22-2022,5-24-42,133,depth_duration_stimuli/001214_2014-06-17_16-13-55_260595134347_rgbf000111-resize_0/001214_2014-06-17_16-13-55_260595134347_rgbf000111-resize_0-target.png,1000,2.6505,3,4251,1003,feet,jsons/v1_VE1000_randls_2_rotated.json,1794405,2181177,48,Man
133,409500,DepthScenes,duration_manipulation_targetAtFixation,jsons/v1_VE1000_randls_2_rotated.json,http://54.235.29.9/FacialAge/BNav_EC2/DepthDuration/v2_depth_duration_MTurk/v2_DepthDuration_HTML.html#52,52,1350,608,1366,768,8-22-2022,5-24-42,134,depth_duration_stimuli/000810_2014-06-08_17-20-01_260595134347_rgbf000105-resize_0/000810_2014-06-08_17-20-01_260595134347_rgbf000105-resize_0-target.png,1000,1.4865,4,4270,1000,feet,jsons/v1_VE1000_randls_2_rotated.json,1794405,2181177,48,Man
134,409500,DepthScenes,duration_manipulation_targetAtFixation,jsons/v1_VE1000_randls_2_rotated.json,http://54.235.29.9/FacialAge/BNav_EC2/DepthDuration/v2_depth_duration_MTurk/v2_DepthDuration_HTML.html#52,52,1350,608,1366,768,8-22-2022,5-24-42,135,depth_duration_stimuli/000375_2014-06-08_11-17-29_260595134347_rgbf000133-resize_2/000375_2014-06-08_11-17-29_260595134347_rgbf000133-resize-original.jpg,1000,4.718,4,4077,989,feet,jsons/v1_VE1000_randls_2_rotated.json,1794405,2181177,48,Man
135,409500,DepthScenes,duration_manipulation_targetAtFixation,jsons/v1_VE1000_randls_2_rotated.json,http://54.235.29.9/FacialAge/BNav_EC2/DepthDuration/v2_depth_duration_MTurk/v2_DepthDuration_HTML.html#52,52,1350,608,1366,768,8-22-2022,5-24-42,136,depth_duration_stimuli/001815_2014-06-26_20-52-55_260595134347_rgbf000020-resize_0/001815_2014-06-26_20-52-55_260595134347_rgbf000020-resize_0-target.png,1000,3.3865,5,5580,1257,feet,jsons/v1_VE1000_randls_2_rotated.json,1794405,2181177,48,Man
136,409500,DepthScenes,duration_manipulation_targetAtFixation,jsons/v1_VE1000_randls_2_rotated.json,http://54.235.29.9/FacialAge/BNav_EC2/DepthDuration/v2_depth_duration_MTurk/v2_DepthDuration_HTML.html#52,52,1350,608,1366,768,8-22-2022,5-24-42,137,depth_duration_stimuli/001808_2014-06-26_20-50-58_260595134347_rgbf000029-resize_1/001808_2014-06-26_20-50-58_260595134347_rgbf000029-resize_1-target.png,1000,4.249,4,3966,1340,feet,jsons/v1_VE1000_randls_2_rotated.json,1794405,2181177,48,Man
137,409500,DepthScenes,duration_manipulation_targetAtFixation,jsons/v1_VE1000_randls_2_rotated.json,http://54.235.29.9/FacialAge/BNav_EC2/DepthDuration/v2_depth_duration_MTurk/v2_DepthDuration_HTML.html#52,52,1350,608,1366,768,8-22-2022,5-24-42,138,depth_duration_stimuli/002545_2014-06-24_13-38-53_094959634447_rgbf000080-resize_4/002545_2014-06-24_13-38-53_094959634447_rgbf000080-resize_4-target.png,1000,1.9205,3,4220,989,feet,jsons/v1_VE1000_randls_2_rotated.json,1794405,2181177,48,Man
138,409500,DepthScenes,duration_manipulation_targetAtFixation,jsons/v1_VE1000_randls_2_rotated.json,http://54.235.29.9/FacialAge/BNav_EC2/DepthDuration/v2_depth_duration_MTurk/v2_DepthDuration_HTML.html#52,52,1350,608,1366,768,8-22-2022,5-24-42,139,depth_duration_stimuli/001092_2014-06-15_17-34-58_260595134347_rgbf000171-resize_3/001092_2014-06-15_17-34-58_260595134347_rgbf000171-resize_3-target.png,1000,2.6935,3,3837,976,feet,jsons/v1_VE1000_randls_2_rotated.json,1794405,2181177,48,Man
139,409500,DepthScenes,duration_manipulation_targetAtFixation,jsons/v1_VE1000_randls_2_rotated.json,http://54.235.29.9/FacialAge/BNav_EC2/DepthDuration/v2_depth_duration_MTurk/v2_DepthDuration_HTML.html#52,52,1350,608,1366,768,8-22-2022,5-24-42,140,depth_duration_stimuli/003423_2014-05-21_10-23-26_094959634447_rgbf002665-resize_2/003423_2014-05-21_10-23-26_094959634447_rgbf002665-resize_2-target.png,1000,3.2575,4,4162,1015,feet,jsons/v1_VE1000_randls_2_rotated.json,1794405,2181177,48,Man
140,409500,DepthScenes,duration_manipulation_targetAtFixation,jsons/v1_VE1000_randls_2_rotated.json,http://54.235.29.9/FacialAge/BNav_EC2/DepthDuration/v2_depth_duration_MTurk/v2_DepthDuration_HTML.html#52,52,1350,608,1366,768,8-22-2022,5-24-42,141,depth_duration_stimuli/002905_2014-06-03_18-04-43_094959634447_rgbf000151-resize_2/002905_2014-06-03_18-04-43_094959634447_rgbf000151-resize_2-target.png,1000,2.0295,4,3705,1073,feet,jsons/v1_VE1000_randls_2_rotated.json,1794405,2181177,48,Man
141,409500,DepthScenes,duration_manipulation_targetAtFixation,jsons/v1_VE1000_randls_2_rotated.json,http://54.235.29.9/FacialAge/BNav_EC2/DepthDuration/v2_depth_duration_MTurk/v2_DepthDuration_HTML.html#52,52,1350,608,1366,768,8-22-2022,5-24-42,142,depth_duration_stimuli/000677_2014-06-08_23-10-32_260595134347_rgbf000158-resize_6/000677_2014-06-08_23-10-32_260595134347_rgbf000158-resize_6-target.png,1000,3.556,4,3720,1009,feet,jsons/v1_VE1000_randls_2_rotated.json,1794405,2181177,48,Man
142,409500,DepthScenes,duration_manipulation_targetAtFixation,jsons/v1_VE1000_randls_2_rotated.json,http://54.235.29.9/FacialAge/BNav_EC2/DepthDuration/v2_depth_duration_MTurk/v2_DepthDuration_HTML.html#52,52,1350,608,1366,768,8-22-2022,5-24-42,143,depth_duration_stimuli/001029_2014-06-08_13-17-57_260595134347_rgbf000065-resize_1/001029_2014-06-08_13-17-57_260595134347_rgbf000065-resize_1-target.png,1000,3.0835,5,3349,441,feet,jsons/v1_VE1000_randls_2_rotated.json,1794405,2181177,48,Man
143,409500,DepthScenes,duration_manipulation_targetAtFixation,jsons/v1_VE1000_randls_2_rotated.json,http://54.235.29.9/FacialAge/BNav_EC2/DepthDuration/v2_depth_duration_MTurk/v2_DepthDuration_HTML.html#52,52,1350,608,1366,768,8-22-2022,5-24-42,144,depth_duration_stimuli/001450_2014-06-19_17-02-03_260595134347_rgbf000203-resize_4/001450_2014-06-19_17-02-03_260595134347_rgbf000203-resize_4-target.png,1000,4.0106666666667,3,4079,996,feet,jsons/v1_VE1000_randls_2_rotated.json,1794405,2181177,48,Man
144,409500,DepthScenes,duration_manipulation_targetAtFixation,jsons/v1_VE1000_randls_2_rotated.json,http://54.235.29.9/FacialAge/BNav_EC2/DepthDuration/v2_depth_duration_MTurk/v2_DepthDuration_HTML.html#52,52,1350,608,1366,768,8-22-2022,5-24-42,145,depth_duration_stimuli/001449_2014-06-19_17-01-27_260595134347_rgbf000116-resize_2/001449_2014-06-19_17-01-27_260595134347_rgbf000116-resize_2-target.png,1000,3.452,2,3756,1034,feet,jsons/v1_VE1000_randls_2_rotated.json,1794405,2181177,48,Man
145,409500,DepthScenes,duration_manipulation_targetAtFixation,jsons/v1_VE1000_randls_2_rotated.json,http://54.235.29.9/FacialAge/BNav_EC2/DepthDuration/v2_depth_duration_MTurk/v2_DepthDuration_HTML.html#52,52,1350,608,1366,768,8-22-2022,5-24-42,146,depth_duration_stimuli/002875_2014-06-01_15-19-00_094959634447_rgbf000151-resize_1/002875_2014-06-01_15-19-00_094959634447_rgbf000151-resize_1-target.png,1000,1.9675,4,3621,998,feet,jsons/v1_VE1000_randls_2_rotated.json,1794405,2181177,48,Man
146,409500,DepthScenes,duration_manipulation_targetAtFixation,jsons/v1_VE1000_randls_2_rotated.json,http://54.235.29.9/FacialAge/BNav_EC2/DepthDuration/v2_depth_duration_MTurk/v2_DepthDuration_HTML.html#52,52,1350,608,1366,768,8-22-2022,5-24-42,147,depth_duration_stimuli/001011_2014-06-08_23-18-54_260595134347_rgbf000044-resize_4/001011_2014-06-08_23-18-54_260595134347_rgbf000044-resize_4-target.png,1000,2.4730000000000003,4,3975,1003,feet,jsons/v1_VE1000_randls_2_rotated.json,1794405,2181177,48,Man
147,409500,DepthScenes,duration_manipulation_targetAtFixation,jsons/v1_VE1000_randls_2_rotated.json,http://54.235.29.9/FacialAge/BNav_EC2/DepthDuration/v2_depth_duration_MTurk/v2_DepthDuration_HTML.html#52,52,1350,608,1366,768,8-22-2022,5-24-42,148,depth_duration_stimuli/000927_2014-06-09_16-32-30_260595134347_rgbf000123-resize_3/000927_2014-06-09_16-32-30_260595134347_rgbf000123-resize_3-target.png,1000,2.6785,3,4116,992,feet,jsons/v1_VE1000_randls_2_rotated.json,1794405,2181177,48,Man
148,409500,DepthScenes,duration_manipulation_targetAtFixation,jsons/v1_VE1000_randls_2_rotated.json,http://54.235.29.9/FacialAge/BNav_EC2/DepthDuration/v2_depth_duration_MTurk/v2_DepthDuration_HTML.html#52,52,1350,608,1366,768,8-22-2022,5-24-42,149,depth_duration_stimuli/001110_2014-06-15_17-25-28_260595134347_rgbf000150-resize_1/001110_2014-06-15_17-25-28_260595134347_rgbf000150-resize_1-target.png,1000,1.7115,3,4019,987,feet,jsons/v1_VE1000_randls_2_rotated.json,1794405,2181177,48,Man
149,409500,DepthScenes,duration_manipulation_targetAtFixation,jsons/v1_VE1000_randls_2_rotated.json,http://54.235.29.9/FacialAge/BNav_EC2/DepthDuration/v2_depth_duration_MTurk/v2_DepthDuration_HTML.html#52,52,1350,608,1366,768,8-22-2022,5-24-42,150,depth_duration_stimuli/000549_2014-06-08_22-10-24_260595134347_rgbf000247-resize_3/000549_2014-06-08_22-10-24_260595134347_rgbf000247-resize_3-target.png,1000,1.841,2,6088,1279,feet,jsons/v1_VE1000_randls_2_rotated.json,1794405,2181177,48,Man
150,409500,DepthScenes,duration_manipulation_targetAtFixation,jsons/v1_VE1000_randls_2_rotated.json,http://54.235.29.9/FacialAge/BNav_EC2/DepthDuration/v2_depth_duration_MTurk/v2_DepthDuration_HTML.html#52,52,1350,608,1366,768,8-22-2022,5-24-42,151,depth_duration_stimuli/001055_2014-06-08_18-45-35_260595134347_rgbf000111-resize_4/001055_2014-06-08_18-45-35_260595134347_rgbf000111-resize_4-target.png,1000,2.4290000000000003,5,4424,1008,feet,jsons/v1_VE1000_randls_2_rotated.json,1794405,2181177,48,Man
151,409500,DepthScenes,duration_manipulation_targetAtFixation,jsons/v1_VE1000_randls_2_rotated.json,http://54.235.29.9/FacialAge/BNav_EC2/DepthDuration/v2_depth_duration_MTurk/v2_DepthDuration_HTML.html#52,52,1350,608,1366,768,8-22-2022,5-24-42,152,depth_duration_stimuli/000569_2014-06-09_22-51-47_260595134347_rgbf000141-resize_3/000569_2014-06-09_22-51-47_260595134347_rgbf000141-resize-original.jpg,1000,4.512,7,7541,1014,feet,jsons/v1_VE1000_randls_2_rotated.json,1794405,2181177,48,Man
152,409500,DepthScenes,duration_manipulation_targetAtFixation,jsons/v1_VE1000_randls_2_rotated.json,http://54.235.29.9/FacialAge/BNav_EC2/DepthDuration/v2_depth_duration_MTurk/v2_DepthDuration_HTML.html#52,52,1350,608,1366,768,8-22-2022,5-24-42,153,depth_duration_stimuli/000734_2014-06-08_17-39-11_260595134347_rgbf000128-resize_2/000734_2014-06-08_17-39-11_260595134347_rgbf000128-resize_2-target.png,1000,4.098,5,4606,1000,feet,jsons/v1_VE1000_randls_2_rotated.json,1794405,2181177,48,Man
153,409500,DepthScenes,duration_manipulation_targetAtFixation,jsons/v1_VE1000_randls_2_rotated.json,http://54.235.29.9/FacialAge/BNav_EC2/DepthDuration/v2_depth_duration_MTurk/v2_DepthDuration_HTML.html#52,52,1350,608,1366,768,8-22-2022,5-24-42,154,depth_duration_stimuli/000739_2014-06-08_18-45-58_260595134347_rgbf000068-resize_1/000739_2014-06-08_18-45-58_260595134347_rgbf000068-resize_1-target.png,1000,3.534,3,4541,952,feet,jsons/v1_VE1000_randls_2_rotated.json,1794405,2181177,48,Man
154,409500,DepthScenes,duration_manipulation_targetAtFixation,jsons/v1_VE1000_randls_2_rotated.json,http://54.235.29.9/FacialAge/BNav_EC2/DepthDuration/v2_depth_duration_MTurk/v2_DepthDuration_HTML.html#52,52,1350,608,1366,768,8-22-2022,5-24-42,155,depth_duration_stimuli/002637_2014-06-24_14-51-13_094959634447_rgbf000066-resize_4/002637_2014-06-24_14-51-13_094959634447_rgbf000066-resize_4-target.png,1000,1.9955,4,5575,985,feet,jsons/v1_VE1000_randls_2_rotated.json,1794405,2181177,48,Man
155,409500,DepthScenes,duration_manipulation_targetAtFixation,jsons/v1_VE1000_randls_2_rotated.json,http://54.235.29.9/FacialAge/BNav_EC2/DepthDuration/v2_depth_duration_MTurk/v2_DepthDuration_HTML.html#52,52,1350,608,1366,768,8-22-2022,5-24-42,156,depth_duration_stimuli/003534_2014-05-22_15-06-10_094959634447_rgbf000102-resize_4/003534_2014-05-22_15-06-10_094959634447_rgbf000102-resize_4-target.png,1000,1.426,5,4466,994,feet,jsons/v1_VE1000_randls_2_rotated.json,1794405,2181177,48,Man
156,409500,DepthScenes,duration_manipulation_targetAtFixation,jsons/v1_VE1000_randls_2_rotated.json,http://54.235.29.9/FacialAge/BNav_EC2/DepthDuration/v2_depth_duration_MTurk/v2_DepthDuration_HTML.html#52,52,1350,608,1366,768,8-22-2022,5-24-42,157,depth_duration_stimuli/002660_2014-06-13_15-44-18_094959634447_rgbf001878-resize_2/002660_2014-06-13_15-44-18_094959634447_rgbf001878-resize_2-target.png,1000,3.576,4,4638,1008,feet,jsons/v1_VE1000_randls_2_rotated.json,1794405,2181177,48,Man
157,409500,DepthScenes,duration_manipulation_targetAtFixation,jsons/v1_VE1000_randls_2_rotated.json,http://54.235.29.9/FacialAge/BNav_EC2/DepthDuration/v2_depth_duration_MTurk/v2_DepthDuration_HTML.html#52,52,1350,608,1366,768,8-22-2022,5-24-42,158,depth_duration_stimuli/002153_2014-06-25_21-27-18_260595134347_rgbf000038-resize_5/002153_2014-06-25_21-27-18_260595134347_rgbf000038-resize_5-target.png,1000,2.505,5,4497,1000,feet,jsons/v1_VE1000_randls_2_rotated.json,1794405,2181177,48,Man
158,409500,DepthScenes,duration_manipulation_targetAtFixation,jsons/v1_VE1000_randls_2_rotated.json,http://54.235.29.9/FacialAge/BNav_EC2/DepthDuration/v2_depth_duration_MTurk/v2_DepthDuration_HTML.html#52,52,1350,608,1366,768,8-22-2022,5-24-42,159,depth_duration_stimuli/002340_2014-06-28_20-05-46_260595134347_rgbf000113-resize_0/002340_2014-06-28_20-05-46_260595134347_rgbf000113-resize_0-target.png,1000,2.4735,5,4869,1391,feet,jsons/v1_VE1000_randls_2_rotated.json,1794405,2181177,48,Man
159,409500,DepthScenes,duration_manipulation_targetAtFixation,jsons/v1_VE1000_randls_2_rotated.json,http://54.235.29.9/FacialAge/BNav_EC2/DepthDuration/v2_depth_duration_MTurk/v2_DepthDuration_HTML.html#52,52,1350,608,1366,768,8-22-2022,5-24-42,160,depth_duration_stimuli/001016_2014-06-09_16-16-10_260595134347_rgbf000112-resize_5/001016_2014-06-09_16-16-10_260595134347_rgbf000112-resize_5-target.png,1000,1.6565,4,3840,1016,feet,jsons/v1_VE1000_randls_2_rotated.json,1794405,2181177,48,Man
160,409500,DepthScenes,duration_manipulation_targetAtFixation,jsons/v1_VE1000_randls_2_rotated.json,http://54.235.29.9/FacialAge/BNav_EC2/DepthDuration/v2_depth_duration_MTurk/v2_DepthDuration_HTML.html#52,52,1350,608,1366,768,8-22-2022,5-24-42,161,depth_duration_stimuli/000109_2014-05-14_23-41-52_260595134347_rgbf000035-resize_9/000109_2014-05-14_23-41-52_260595134347_rgbf000035-resize_9-target.png,1000,1.3545,3,4536,1002,feet,jsons/v1_VE1000_randls_2_rotated.json,1794405,2181177,48,Man
161,409500,DepthScenes,duration_manipulation_targetAtFixation,jsons/v1_VE1000_randls_2_rotated.json,http://54.235.29.9/FacialAge/BNav_EC2/DepthDuration/v2_depth_duration_MTurk/v2_DepthDuration_HTML.html#52,52,1350,608,1366,768,8-22-2022,5-24-42,162,depth_duration_stimuli/000470_2014-06-09_19-42-40_260595134347_rgbf000094-resize_1/000470_2014-06-09_19-42-40_260595134347_rgbf000094-resize_1-target.png,1000,1.831,4,3861,986,feet,jsons/v1_VE1000_randls_2_rotated.json,1794405,2181177,48,Man
162,409500,DepthScenes,duration_manipulation_targetAtFixation,jsons/v1_VE1000_randls_2_rotated.json,http://54.235.29.9/FacialAge/BNav_EC2/DepthDuration/v2_depth_duration_MTurk/v2_DepthDuration_HTML.html#52,52,1350,608,1366,768,8-22-2022,5-24-42,163,depth_duration_stimuli/002657_2014-06-13_15-29-54_094959634447_rgbf000150-resize_1/002657_2014-06-13_15-29-54_094959634447_rgbf000150-resize_1-target.png,1000,4.919,4,3892,986,feet,jsons/v1_VE1000_randls_2_rotated.json,1794405,2181177,48,Man
163,409500,DepthScenes,duration_manipulation_targetAtFixation,jsons/v1_VE1000_randls_2_rotated.json,http://54.235.29.9/FacialAge/BNav_EC2/DepthDuration/v2_depth_duration_MTurk/v2_DepthDuration_HTML.html#52,52,1350,608,1366,768,8-22-2022,5-24-42,164,depth_duration_stimuli/002375_2014-06-28_20-13-44_260595134347_rgbf000032-resize_1/002375_2014-06-28_20-13-44_260595134347_rgbf000032-resize_1-target.png,1000,4.0175,4,6315,1002,feet,jsons/v1_VE1000_randls_2_rotated.json,1794405,2181177,48,Man
