,subjID,experimentName,versionName,sequenceName,url,selected_row,windowWidth,windowHeight,screenWidth,screenHeight,startDate,startTime,trial,stimulus,duration,actual_depth,depth_estimate,trial_RT,log_sceneDuration,unitSelection,seq_filepath,experimentTime,totalTime,age,gender
0,410379,DepthScenes,duration_manipulation_targetAtFixation,jsons/v1_VE1000_randls_15_rotated.json,http://54.235.29.9/FacialAge/BNav_EC2/DepthDuration/v2_depth_duration_MTurk/v2_DepthDuration_HTML.html#67,67,1280,1024,1280,1024,8-22-2022,4-59-34,1,depth_duration_stimuli/000409_2014-06-04_19-23-33_260595134347_rgbf000067-resize_0/000409_2014-06-04_19-23-33_260595134347_rgbf000067-resize_0-target.png,1000,3.7335,1,5867,1001,meters,jsons/v1_VE1000_randls_15_rotated.json,1507336,1816137,33,Woman
1,410379,DepthScenes,duration_manipulation_targetAtFixation,jsons/v1_VE1000_randls_15_rotated.json,http://54.235.29.9/FacialAge/BNav_EC2/DepthDuration/v2_depth_duration_MTurk/v2_DepthDuration_HTML.html#67,67,1280,1024,1280,1024,8-22-2022,4-59-34,2,depth_duration_stimuli/002663_2014-06-13_15-50-26_094959634447_rgbf000075-resize_1/002663_2014-06-13_15-50-26_094959634447_rgbf000075-resize_1-target.png,1000,4.7495,2,5206,1001,meters,jsons/v1_VE1000_randls_15_rotated.json,1507336,1816137,33,Woman
2,410379,DepthScenes,duration_manipulation_targetAtFixation,jsons/v1_VE1000_randls_15_rotated.json,http://54.235.29.9/FacialAge/BNav_EC2/DepthDuration/v2_depth_duration_MTurk/v2_DepthDuration_HTML.html#67,67,1280,1024,1280,1024,8-22-2022,4-59-34,3,depth_duration_stimuli/000709_2014-06-08_13-51-55_260595134347_rgbf000068-resize_3/000709_2014-06-08_13-51-55_260595134347_rgbf000068-resize_3-target.png,1000,1.8030000000000002,3,6441,1000,meters,jsons/v1_VE1000_randls_15_rotated.json,1507336,1816137,33,Woman
3,410379,DepthScenes,duration_manipulation_targetAtFixation,jsons/v1_VE1000_randls_15_rotated.json,http://54.235.29.9/FacialAge/BNav_EC2/DepthDuration/v2_depth_duration_MTurk/v2_DepthDuration_HTML.html#67,67,1280,1024,1280,1024,8-22-2022,4-59-34,4,depth_duration_stimuli/002057_2014-06-24_21-00-13_260595134347_rgbf000120-resize_1/002057_2014-06-24_21-00-13_260595134347_rgbf000120-resize_1-target.png,1000,2.967,1,4612,1001,meters,jsons/v1_VE1000_randls_15_rotated.json,1507336,1816137,33,Woman
4,410379,DepthScenes,duration_manipulation_targetAtFixation,jsons/v1_VE1000_randls_15_rotated.json,http://54.235.29.9/FacialAge/BNav_EC2/DepthDuration/v2_depth_duration_MTurk/v2_DepthDuration_HTML.html#67,67,1280,1024,1280,1024,8-22-2022,4-59-34,5,depth_duration_stimuli/003490_2014-05-21_15-50-11_094959634447_rgbf000101-resize_3/003490_2014-05-21_15-50-11_094959634447_rgbf000101-resize_3-target.png,1000,3.6445,1,4981,1000,meters,jsons/v1_VE1000_randls_15_rotated.json,1507336,1816137,33,Woman
5,410379,DepthScenes,duration_manipulation_targetAtFixation,jsons/v1_VE1000_randls_15_rotated.json,http://54.235.29.9/FacialAge/BNav_EC2/DepthDuration/v2_depth_duration_MTurk/v2_DepthDuration_HTML.html#67,67,1280,1024,1280,1024,8-22-2022,4-59-34,6,depth_duration_stimuli/001175_2014-06-17_15-45-55_260595134347_rgbf000129-resize_4/001175_2014-06-17_15-45-55_260595134347_rgbf000129-resize_4-target.png,1000,4.255,2,6203,1000,meters,jsons/v1_VE1000_randls_15_rotated.json,1507336,1816137,33,Woman
6,410379,DepthScenes,duration_manipulation_targetAtFixation,jsons/v1_VE1000_randls_15_rotated.json,http://54.235.29.9/FacialAge/BNav_EC2/DepthDuration/v2_depth_duration_MTurk/v2_DepthDuration_HTML.html#67,67,1280,1024,1280,1024,8-22-2022,4-59-34,7,depth_duration_stimuli/002805_2014-06-22_19-54-03_094959634447_rgbf000079-resize_1/002805_2014-06-22_19-54-03_094959634447_rgbf000079-resize_1-target.png,1000,3.1439999999999997,1,5025,999,meters,jsons/v1_VE1000_randls_15_rotated.json,1507336,1816137,33,Woman
7,410379,DepthScenes,duration_manipulation_targetAtFixation,jsons/v1_VE1000_randls_15_rotated.json,http://54.235.29.9/FacialAge/BNav_EC2/DepthDuration/v2_depth_duration_MTurk/v2_DepthDuration_HTML.html#67,67,1280,1024,1280,1024,8-22-2022,4-59-34,8,depth_duration_stimuli/000906_2014-06-08_13-35-43_260595134347_rgbf000155-resize_1/000906_2014-06-08_13-35-43_260595134347_rgbf000155-resize_1-target.png,1000,2.8489999999999998,1,4283,1001,meters,jsons/v1_VE1000_randls_15_rotated.json,1507336,1816137,33,Woman
8,410379,DepthScenes,duration_manipulation_targetAtFixation,jsons/v1_VE1000_randls_15_rotated.json,http://54.235.29.9/FacialAge/BNav_EC2/DepthDuration/v2_depth_duration_MTurk/v2_DepthDuration_HTML.html#67,67,1280,1024,1280,1024,8-22-2022,4-59-34,9,depth_duration_stimuli/001392_2014-06-19_16-07-59_260595134347_rgbf000046-resize_1/001392_2014-06-19_16-07-59_260595134347_rgbf000046-resize_1-target.png,1000,4.135,3,4875,999,meters,jsons/v1_VE1000_randls_15_rotated.json,1507336,1816137,33,Woman
9,410379,DepthScenes,duration_manipulation_targetAtFixation,jsons/v1_VE1000_randls_15_rotated.json,http://54.235.29.9/FacialAge/BNav_EC2/DepthDuration/v2_depth_duration_MTurk/v2_DepthDuration_HTML.html#67,67,1280,1024,1280,1024,8-22-2022,4-59-34,10,depth_duration_stimuli/001570_2014-06-20_17-21-09_260595134347_rgbf000135-resize_4/001570_2014-06-20_17-21-09_260595134347_rgbf000135-resize_4-target.png,1000,4.467,1,3948,1001,meters,jsons/v1_VE1000_randls_15_rotated.json,1507336,1816137,33,Woman
10,410379,DepthScenes,duration_manipulation_targetAtFixation,jsons/v1_VE1000_randls_15_rotated.json,http://54.235.29.9/FacialAge/BNav_EC2/DepthDuration/v2_depth_duration_MTurk/v2_DepthDuration_HTML.html#67,67,1280,1024,1280,1024,8-22-2022,4-59-34,11,depth_duration_stimuli/001100_2014-06-15_17-46-26_260595134347_rgbf000225-resize_2/001100_2014-06-15_17-46-26_260595134347_rgbf000225-resize_2-target.png,1000,2.24,1,4659,1001,meters,jsons/v1_VE1000_randls_15_rotated.json,1507336,1816137,33,Woman
11,410379,DepthScenes,duration_manipulation_targetAtFixation,jsons/v1_VE1000_randls_15_rotated.json,http://54.235.29.9/FacialAge/BNav_EC2/DepthDuration/v2_depth_duration_MTurk/v2_DepthDuration_HTML.html#67,67,1280,1024,1280,1024,8-22-2022,4-59-34,12,depth_duration_stimuli/002784_2014-06-22_19-26-30_094959634447_rgbf000083-resize_3/002784_2014-06-22_19-26-30_094959634447_rgbf000083-resize_3-target.png,1000,1.8046666666667,1,3882,1000,meters,jsons/v1_VE1000_randls_15_rotated.json,1507336,1816137,33,Woman
12,410379,DepthScenes,duration_manipulation_targetAtFixation,jsons/v1_VE1000_randls_15_rotated.json,http://54.235.29.9/FacialAge/BNav_EC2/DepthDuration/v2_depth_duration_MTurk/v2_DepthDuration_HTML.html#67,67,1280,1024,1280,1024,8-22-2022,4-59-34,13,depth_duration_stimuli/000734_2014-06-08_17-39-11_260595134347_rgbf000128-resize_2/000734_2014-06-08_17-39-11_260595134347_rgbf000128-resize_2-target.png,1000,4.098,2,4723,1000,meters,jsons/v1_VE1000_randls_15_rotated.json,1507336,1816137,33,Woman
13,410379,DepthScenes,duration_manipulation_targetAtFixation,jsons/v1_VE1000_randls_15_rotated.json,http://54.235.29.9/FacialAge/BNav_EC2/DepthDuration/v2_depth_duration_MTurk/v2_DepthDuration_HTML.html#67,67,1280,1024,1280,1024,8-22-2022,4-59-34,14,depth_duration_stimuli/000739_2014-06-08_18-45-58_260595134347_rgbf000068-resize_1/000739_2014-06-08_18-45-58_260595134347_rgbf000068-resize_1-target.png,1000,3.534,1,6196,1000,meters,jsons/v1_VE1000_randls_15_rotated.json,1507336,1816137,33,Woman
14,410379,DepthScenes,duration_manipulation_targetAtFixation,jsons/v1_VE1000_randls_15_rotated.json,http://54.235.29.9/FacialAge/BNav_EC2/DepthDuration/v2_depth_duration_MTurk/v2_DepthDuration_HTML.html#67,67,1280,1024,1280,1024,8-22-2022,4-59-34,15,depth_duration_stimuli/000749_2014-06-08_21-55-06_260595134347_rgbf000070-resize_2/000749_2014-06-08_21-55-06_260595134347_rgbf000070-resize_2-target.png,1000,2.331,1,6908,1000,meters,jsons/v1_VE1000_randls_15_rotated.json,1507336,1816137,33,Woman
15,410379,DepthScenes,duration_manipulation_targetAtFixation,jsons/v1_VE1000_randls_15_rotated.json,http://54.235.29.9/FacialAge/BNav_EC2/DepthDuration/v2_depth_duration_MTurk/v2_DepthDuration_HTML.html#67,67,1280,1024,1280,1024,8-22-2022,4-59-34,16,depth_duration_stimuli/002788_2014-06-22_19-36-03_094959634447_rgbf000088-resize_2/002788_2014-06-22_19-36-03_094959634447_rgbf000088-resize_2-target.png,1000,1.6465,2,5241,1000,meters,jsons/v1_VE1000_randls_15_rotated.json,1507336,1816137,33,Woman
16,410379,DepthScenes,duration_manipulation_targetAtFixation,jsons/v1_VE1000_randls_15_rotated.json,http://54.235.29.9/FacialAge/BNav_EC2/DepthDuration/v2_depth_duration_MTurk/v2_DepthDuration_HTML.html#67,67,1280,1024,1280,1024,8-22-2022,4-59-34,17,depth_duration_stimuli/000677_2014-06-08_23-10-32_260595134347_rgbf000158-resize_6/000677_2014-06-08_23-10-32_260595134347_rgbf000158-resize_6-target.png,1000,3.556,3,5113,1000,meters,jsons/v1_VE1000_randls_15_rotated.json,1507336,1816137,33,Woman
17,410379,DepthScenes,duration_manipulation_targetAtFixation,jsons/v1_VE1000_randls_15_rotated.json,http://54.235.29.9/FacialAge/BNav_EC2/DepthDuration/v2_depth_duration_MTurk/v2_DepthDuration_HTML.html#67,67,1280,1024,1280,1024,8-22-2022,4-59-34,18,depth_duration_stimuli/001029_2014-06-08_13-17-57_260595134347_rgbf000065-resize_1/001029_2014-06-08_13-17-57_260595134347_rgbf000065-resize_1-target.png,1000,3.0835,2,5190,1001,meters,jsons/v1_VE1000_randls_15_rotated.json,1507336,1816137,33,Woman
18,410379,DepthScenes,duration_manipulation_targetAtFixation,jsons/v1_VE1000_randls_15_rotated.json,http://54.235.29.9/FacialAge/BNav_EC2/DepthDuration/v2_depth_duration_MTurk/v2_DepthDuration_HTML.html#67,67,1280,1024,1280,1024,8-22-2022,4-59-34,19,depth_duration_stimuli/001498_2014-06-19_17-45-14_260595134347_rgbf000129-resize_4/001498_2014-06-19_17-45-14_260595134347_rgbf000129-resize-original.jpg,1000,1.4075,0,4825,1000,meters,jsons/v1_VE1000_randls_15_rotated.json,1507336,1816137,33,Woman
19,410379,DepthScenes,duration_manipulation_targetAtFixation,jsons/v1_VE1000_randls_15_rotated.json,http://54.235.29.9/FacialAge/BNav_EC2/DepthDuration/v2_depth_duration_MTurk/v2_DepthDuration_HTML.html#67,67,1280,1024,1280,1024,8-22-2022,4-59-34,20,depth_duration_stimuli/000457_2014-06-08_16-52-43_260595134347_rgbf000199-resize_1/000457_2014-06-08_16-52-43_260595134347_rgbf000199-resize_1-target.png,1000,3.6489999999999996,1,8869,1000,meters,jsons/v1_VE1000_randls_15_rotated.json,1507336,1816137,33,Woman
20,410379,DepthScenes,duration_manipulation_targetAtFixation,jsons/v1_VE1000_randls_15_rotated.json,http://54.235.29.9/FacialAge/BNav_EC2/DepthDuration/v2_depth_duration_MTurk/v2_DepthDuration_HTML.html#67,67,1280,1024,1280,1024,8-22-2022,4-59-34,21,depth_duration_stimuli/000929_2014-06-09_16-33-19_260595134347_rgbf000139-resize_0/000929_2014-06-09_16-33-19_260595134347_rgbf000139-resize_0-target.png,1000,2.8680000000000003,1,6491,999,meters,jsons/v1_VE1000_randls_15_rotated.json,1507336,1816137,33,Woman
21,410379,DepthScenes,duration_manipulation_targetAtFixation,jsons/v1_VE1000_randls_15_rotated.json,http://54.235.29.9/FacialAge/BNav_EC2/DepthDuration/v2_depth_duration_MTurk/v2_DepthDuration_HTML.html#67,67,1280,1024,1280,1024,8-22-2022,4-59-34,22,depth_duration_stimuli/002467_2014-06-28_20-38-07_260595134347_rgbf000026-resize_2/002467_2014-06-28_20-38-07_260595134347_rgbf000026-resize_2-target.png,1000,4.742,2,6362,999,meters,jsons/v1_VE1000_randls_15_rotated.json,1507336,1816137,33,Woman
22,410379,DepthScenes,duration_manipulation_targetAtFixation,jsons/v1_VE1000_randls_15_rotated.json,http://54.235.29.9/FacialAge/BNav_EC2/DepthDuration/v2_depth_duration_MTurk/v2_DepthDuration_HTML.html#67,67,1280,1024,1280,1024,8-22-2022,4-59-34,23,depth_duration_stimuli/002570_2014-06-24_13-59-54_094959634447_rgbf000059-resize_0/002570_2014-06-24_13-59-54_094959634447_rgbf000059-resize_0-target.png,1000,4.037,1,4605,1000,meters,jsons/v1_VE1000_randls_15_rotated.json,1507336,1816137,33,Woman
23,410379,DepthScenes,duration_manipulation_targetAtFixation,jsons/v1_VE1000_randls_15_rotated.json,http://54.235.29.9/FacialAge/BNav_EC2/DepthDuration/v2_depth_duration_MTurk/v2_DepthDuration_HTML.html#67,67,1280,1024,1280,1024,8-22-2022,4-59-34,24,depth_duration_stimuli/001450_2014-06-19_17-02-03_260595134347_rgbf000203-resize_4/001450_2014-06-19_17-02-03_260595134347_rgbf000203-resize_4-target.png,1000,4.0106666666667,2,5906,999,meters,jsons/v1_VE1000_randls_15_rotated.json,1507336,1816137,33,Woman
24,410379,DepthScenes,duration_manipulation_targetAtFixation,jsons/v1_VE1000_randls_15_rotated.json,http://54.235.29.9/FacialAge/BNav_EC2/DepthDuration/v2_depth_duration_MTurk/v2_DepthDuration_HTML.html#67,67,1280,1024,1280,1024,8-22-2022,4-59-34,25,depth_duration_stimuli/001449_2014-06-19_17-01-27_260595134347_rgbf000116-resize_2/001449_2014-06-19_17-01-27_260595134347_rgbf000116-resize_2-target.png,1000,3.452,1,7151,999,meters,jsons/v1_VE1000_randls_15_rotated.json,1507336,1816137,33,Woman
25,410379,DepthScenes,duration_manipulation_targetAtFixation,jsons/v1_VE1000_randls_15_rotated.json,http://54.235.29.9/FacialAge/BNav_EC2/DepthDuration/v2_depth_duration_MTurk/v2_DepthDuration_HTML.html#67,67,1280,1024,1280,1024,8-22-2022,4-59-34,26,depth_duration_stimuli/002953_2014-06-08_17-32-18_094959634447_rgbf000059-resize_5/002953_2014-06-08_17-32-18_094959634447_rgbf000059-resize_5-target.png,1000,1.551,1,5276,1000,meters,jsons/v1_VE1000_randls_15_rotated.json,1507336,1816137,33,Woman
26,410379,DepthScenes,duration_manipulation_targetAtFixation,jsons/v1_VE1000_randls_15_rotated.json,http://54.235.29.9/FacialAge/BNav_EC2/DepthDuration/v2_depth_duration_MTurk/v2_DepthDuration_HTML.html#67,67,1280,1024,1280,1024,8-22-2022,4-59-34,27,depth_duration_stimuli/000878_2014-06-08_22-52-45_260595134347_rgbf000045-resize_2/000878_2014-06-08_22-52-45_260595134347_rgbf000045-resize_2-target.png,1000,2.092,1,5250,1000,meters,jsons/v1_VE1000_randls_15_rotated.json,1507336,1816137,33,Woman
27,410379,DepthScenes,duration_manipulation_targetAtFixation,jsons/v1_VE1000_randls_15_rotated.json,http://54.235.29.9/FacialAge/BNav_EC2/DepthDuration/v2_depth_duration_MTurk/v2_DepthDuration_HTML.html#67,67,1280,1024,1280,1024,8-22-2022,4-59-34,28,depth_duration_stimuli/000854_2014-06-09_19-43-13_260595134347_rgbf000066-resize_0/000854_2014-06-09_19-43-13_260595134347_rgbf000066-resize_0-target.png,1000,3.068,1,7375,1000,meters,jsons/v1_VE1000_randls_15_rotated.json,1507336,1816137,33,Woman
28,410379,DepthScenes,duration_manipulation_targetAtFixation,jsons/v1_VE1000_randls_15_rotated.json,http://54.235.29.9/FacialAge/BNav_EC2/DepthDuration/v2_depth_duration_MTurk/v2_DepthDuration_HTML.html#67,67,1280,1024,1280,1024,8-22-2022,4-59-34,29,depth_duration_stimuli/000758_2014-06-08_22-05-08_260595134347_rgbf000085-resize_0/000758_2014-06-08_22-05-08_260595134347_rgbf000085-resize_0-target.png,1000,3.3810000000000002,2,4931,1000,meters,jsons/v1_VE1000_randls_15_rotated.json,1507336,1816137,33,Woman
29,410379,DepthScenes,duration_manipulation_targetAtFixation,jsons/v1_VE1000_randls_15_rotated.json,http://54.235.29.9/FacialAge/BNav_EC2/DepthDuration/v2_depth_duration_MTurk/v2_DepthDuration_HTML.html#67,67,1280,1024,1280,1024,8-22-2022,4-59-34,30,depth_duration_stimuli/002072_2014-06-24_21-48-06_260595134347_rgbf000115-resize_0/002072_2014-06-24_21-48-06_260595134347_rgbf000115-resize-original.jpg,1000,4.702,1,8201,1002,meters,jsons/v1_VE1000_randls_15_rotated.json,1507336,1816137,33,Woman
30,410379,DepthScenes,duration_manipulation_targetAtFixation,jsons/v1_VE1000_randls_15_rotated.json,http://54.235.29.9/FacialAge/BNav_EC2/DepthDuration/v2_depth_duration_MTurk/v2_DepthDuration_HTML.html#67,67,1280,1024,1280,1024,8-22-2022,4-59-34,31,depth_duration_stimuli/001132_2014-06-17_14-48-54_260595134347_rgbf000100-resize_2/001132_2014-06-17_14-48-54_260595134347_rgbf000100-resize_2-target.png,1000,3.753,1,6906,999,meters,jsons/v1_VE1000_randls_15_rotated.json,1507336,1816137,33,Woman
31,410379,DepthScenes,duration_manipulation_targetAtFixation,jsons/v1_VE1000_randls_15_rotated.json,http://54.235.29.9/FacialAge/BNav_EC2/DepthDuration/v2_depth_duration_MTurk/v2_DepthDuration_HTML.html#67,67,1280,1024,1280,1024,8-22-2022,4-59-34,32,depth_duration_stimuli/001133_2014-06-17_14-49-16_260595134347_rgbf000100-resize_0/001133_2014-06-17_14-49-16_260595134347_rgbf000100-resize_0-target.png,1000,4.2115,1,7320,1000,meters,jsons/v1_VE1000_randls_15_rotated.json,1507336,1816137,33,Woman
32,410379,DepthScenes,duration_manipulation_targetAtFixation,jsons/v1_VE1000_randls_15_rotated.json,http://54.235.29.9/FacialAge/BNav_EC2/DepthDuration/v2_depth_duration_MTurk/v2_DepthDuration_HTML.html#67,67,1280,1024,1280,1024,8-22-2022,4-59-34,33,depth_duration_stimuli/001447_2014-06-19_17-00-32_260595134347_rgbf000082-resize_5/001447_2014-06-19_17-00-32_260595134347_rgbf000082-resize_5-target.png,1000,4.13775,1,10922,1000,meters,jsons/v1_VE1000_randls_15_rotated.json,1507336,1816137,33,Woman
33,410379,DepthScenes,duration_manipulation_targetAtFixation,jsons/v1_VE1000_randls_15_rotated.json,http://54.235.29.9/FacialAge/BNav_EC2/DepthDuration/v2_depth_duration_MTurk/v2_DepthDuration_HTML.html#67,67,1280,1024,1280,1024,8-22-2022,4-59-34,34,depth_duration_stimuli/000447_2014-06-08_16-15-46_260595134347_rgbf000130-resize_1/000447_2014-06-08_16-15-46_260595134347_rgbf000130-resize_1-target.png,1000,4.479,1,10759,1000,meters,jsons/v1_VE1000_randls_15_rotated.json,1507336,1816137,33,Woman
34,410379,DepthScenes,duration_manipulation_targetAtFixation,jsons/v1_VE1000_randls_15_rotated.json,http://54.235.29.9/FacialAge/BNav_EC2/DepthDuration/v2_depth_duration_MTurk/v2_DepthDuration_HTML.html#67,67,1280,1024,1280,1024,8-22-2022,4-59-34,35,depth_duration_stimuli/000191_2014-05-12_17-07-38_260595134347_rgbf000199-resize_0/000191_2014-05-12_17-07-38_260595134347_rgbf000199-resize_0-target.png,1000,3.7995,2,8647,1000,meters,jsons/v1_VE1000_randls_15_rotated.json,1507336,1816137,33,Woman
35,410379,DepthScenes,duration_manipulation_targetAtFixation,jsons/v1_VE1000_randls_15_rotated.json,http://54.235.29.9/FacialAge/BNav_EC2/DepthDuration/v2_depth_duration_MTurk/v2_DepthDuration_HTML.html#67,67,1280,1024,1280,1024,8-22-2022,4-59-34,36,depth_duration_stimuli/000493_2014-06-09_21-01-18_260595134347_rgbf000196-resize_3/000493_2014-06-09_21-01-18_260595134347_rgbf000196-resize_3-target.png,1000,3.44,1,7057,1000,meters,jsons/v1_VE1000_randls_15_rotated.json,1507336,1816137,33,Woman
36,410379,DepthScenes,duration_manipulation_targetAtFixation,jsons/v1_VE1000_randls_15_rotated.json,http://54.235.29.9/FacialAge/BNav_EC2/DepthDuration/v2_depth_duration_MTurk/v2_DepthDuration_HTML.html#67,67,1280,1024,1280,1024,8-22-2022,4-59-34,37,depth_duration_stimuli/000691_2014-06-08_13-08-50_260595134347_rgbf000132-resize_3/000691_2014-06-08_13-08-50_260595134347_rgbf000132-resize_3-target.png,1000,4.1530000000000005,2,18220,1000,meters,jsons/v1_VE1000_randls_15_rotated.json,1507336,1816137,33,Woman
37,410379,DepthScenes,duration_manipulation_targetAtFixation,jsons/v1_VE1000_randls_15_rotated.json,http://54.235.29.9/FacialAge/BNav_EC2/DepthDuration/v2_depth_duration_MTurk/v2_DepthDuration_HTML.html#67,67,1280,1024,1280,1024,8-22-2022,4-59-34,38,depth_duration_stimuli/002213_2014-06-28_18-37-58_260595134347_rgbf000055-resize_1/002213_2014-06-28_18-37-58_260595134347_rgbf000055-resize_1-target.png,1000,3.62,1,5090,999,meters,jsons/v1_VE1000_randls_15_rotated.json,1507336,1816137,33,Woman
38,410379,DepthScenes,duration_manipulation_targetAtFixation,jsons/v1_VE1000_randls_15_rotated.json,http://54.235.29.9/FacialAge/BNav_EC2/DepthDuration/v2_depth_duration_MTurk/v2_DepthDuration_HTML.html#67,67,1280,1024,1280,1024,8-22-2022,4-59-34,39,depth_duration_stimuli/002103_2014-06-25_20-00-40_260595134347_rgbf000049-resize_0/002103_2014-06-25_20-00-40_260595134347_rgbf000049-resize_0-target.png,1000,4.105,1,6953,1000,meters,jsons/v1_VE1000_randls_15_rotated.json,1507336,1816137,33,Woman
39,410379,DepthScenes,duration_manipulation_targetAtFixation,jsons/v1_VE1000_randls_15_rotated.json,http://54.235.29.9/FacialAge/BNav_EC2/DepthDuration/v2_depth_duration_MTurk/v2_DepthDuration_HTML.html#67,67,1280,1024,1280,1024,8-22-2022,4-59-34,40,depth_duration_stimuli/002039_2014-06-24_20-22-38_260595134347_rgbf000084-resize_1/002039_2014-06-24_20-22-38_260595134347_rgbf000084-resize_1-target.png,1000,4.408,1,9662,1000,meters,jsons/v1_VE1000_randls_15_rotated.json,1507336,1816137,33,Woman
40,410379,DepthScenes,duration_manipulation_targetAtFixation,jsons/v1_VE1000_randls_15_rotated.json,http://54.235.29.9/FacialAge/BNav_EC2/DepthDuration/v2_depth_duration_MTurk/v2_DepthDuration_HTML.html#67,67,1280,1024,1280,1024,8-22-2022,4-59-34,41,depth_duration_stimuli/003048_2014-06-15_13-49-43_094959634447_rgbf000150-resize_1/003048_2014-06-15_13-49-43_094959634447_rgbf000150-resize_1-target.png,1000,4.0035,1,18186,1002,meters,jsons/v1_VE1000_randls_15_rotated.json,1507336,1816137,33,Woman
41,410379,DepthScenes,duration_manipulation_targetAtFixation,jsons/v1_VE1000_randls_15_rotated.json,http://54.235.29.9/FacialAge/BNav_EC2/DepthDuration/v2_depth_duration_MTurk/v2_DepthDuration_HTML.html#67,67,1280,1024,1280,1024,8-22-2022,4-59-34,42,depth_duration_stimuli/002043_2014-06-24_20-29-38_260595134347_rgbf000039-resize_4/002043_2014-06-24_20-29-38_260595134347_rgbf000039-resize_4-target.png,1000,2.8435,2,6748,1015,meters,jsons/v1_VE1000_randls_15_rotated.json,1507336,1816137,33,Woman
42,410379,DepthScenes,duration_manipulation_targetAtFixation,jsons/v1_VE1000_randls_15_rotated.json,http://54.235.29.9/FacialAge/BNav_EC2/DepthDuration/v2_depth_duration_MTurk/v2_DepthDuration_HTML.html#67,67,1280,1024,1280,1024,8-22-2022,4-59-34,43,depth_duration_stimuli/001136_2014-06-17_15-19-41_260595134347_rgbf000076-resize_3/001136_2014-06-17_15-19-41_260595134347_rgbf000076-resize_3-target.png,1000,1.8655,2,31731,1000,meters,jsons/v1_VE1000_randls_15_rotated.json,1507336,1816137,33,Woman
43,410379,DepthScenes,duration_manipulation_targetAtFixation,jsons/v1_VE1000_randls_15_rotated.json,http://54.235.29.9/FacialAge/BNav_EC2/DepthDuration/v2_depth_duration_MTurk/v2_DepthDuration_HTML.html#67,67,1280,1024,1280,1024,8-22-2022,4-59-34,44,depth_duration_stimuli/001164_2014-06-17_15-35-46_260595134347_rgbf000085-resize_3/001164_2014-06-17_15-35-46_260595134347_rgbf000085-resize_3-target.png,1000,2.354,1,8034,1000,meters,jsons/v1_VE1000_randls_15_rotated.json,1507336,1816137,33,Woman
44,410379,DepthScenes,duration_manipulation_targetAtFixation,jsons/v1_VE1000_randls_15_rotated.json,http://54.235.29.9/FacialAge/BNav_EC2/DepthDuration/v2_depth_duration_MTurk/v2_DepthDuration_HTML.html#67,67,1280,1024,1280,1024,8-22-2022,4-59-34,45,depth_duration_stimuli/002545_2014-06-24_13-38-53_094959634447_rgbf000080-resize_4/002545_2014-06-24_13-38-53_094959634447_rgbf000080-resize_4-target.png,1000,1.9205,2,13703,1010,meters,jsons/v1_VE1000_randls_15_rotated.json,1507336,1816137,33,Woman
45,410379,DepthScenes,duration_manipulation_targetAtFixation,jsons/v1_VE1000_randls_15_rotated.json,http://54.235.29.9/FacialAge/BNav_EC2/DepthDuration/v2_depth_duration_MTurk/v2_DepthDuration_HTML.html#67,67,1280,1024,1280,1024,8-22-2022,4-59-34,46,depth_duration_stimuli/001092_2014-06-15_17-34-58_260595134347_rgbf000171-resize_3/001092_2014-06-15_17-34-58_260595134347_rgbf000171-resize_3-target.png,1000,2.6935,2,15884,1000,meters,jsons/v1_VE1000_randls_15_rotated.json,1507336,1816137,33,Woman
46,410379,DepthScenes,duration_manipulation_targetAtFixation,jsons/v1_VE1000_randls_15_rotated.json,http://54.235.29.9/FacialAge/BNav_EC2/DepthDuration/v2_depth_duration_MTurk/v2_DepthDuration_HTML.html#67,67,1280,1024,1280,1024,8-22-2022,4-59-34,47,depth_duration_stimuli/002750_2014-06-22_19-08-03_094959634447_rgbf000094-resize_4/002750_2014-06-22_19-08-03_094959634447_rgbf000094-resize_4-target.png,1000,2.354,2,10045,1000,meters,jsons/v1_VE1000_randls_15_rotated.json,1507336,1816137,33,Woman
47,410379,DepthScenes,duration_manipulation_targetAtFixation,jsons/v1_VE1000_randls_15_rotated.json,http://54.235.29.9/FacialAge/BNav_EC2/DepthDuration/v2_depth_duration_MTurk/v2_DepthDuration_HTML.html#67,67,1280,1024,1280,1024,8-22-2022,4-59-34,48,depth_duration_stimuli/002549_2014-06-24_13-41-39_094959634447_rgbf000022-resize_3/002549_2014-06-24_13-41-39_094959634447_rgbf000022-resize_3-target.png,1000,1.476,2,10582,1001,meters,jsons/v1_VE1000_randls_15_rotated.json,1507336,1816137,33,Woman
48,410379,DepthScenes,duration_manipulation_targetAtFixation,jsons/v1_VE1000_randls_15_rotated.json,http://54.235.29.9/FacialAge/BNav_EC2/DepthDuration/v2_depth_duration_MTurk/v2_DepthDuration_HTML.html#67,67,1280,1024,1280,1024,8-22-2022,4-59-34,49,depth_duration_stimuli/001170_2014-06-17_15-43-44_260595134347_rgbf000096-resize_6/001170_2014-06-17_15-43-44_260595134347_rgbf000096-resize-original.jpg,1000,1.1909999999999998,0,19550,999,meters,jsons/v1_VE1000_randls_15_rotated.json,1507336,1816137,33,Woman
49,410379,DepthScenes,duration_manipulation_targetAtFixation,jsons/v1_VE1000_randls_15_rotated.json,http://54.235.29.9/FacialAge/BNav_EC2/DepthDuration/v2_depth_duration_MTurk/v2_DepthDuration_HTML.html#67,67,1280,1024,1280,1024,8-22-2022,4-59-34,50,depth_duration_stimuli/001032_2014-06-08_13-23-17_260595134347_rgbf000021-resize_3/001032_2014-06-08_13-23-17_260595134347_rgbf000021-resize_3-target.png,1000,3.2725,1,9758,1000,meters,jsons/v1_VE1000_randls_15_rotated.json,1507336,1816137,33,Woman
50,410379,DepthScenes,duration_manipulation_targetAtFixation,jsons/v1_VE1000_randls_15_rotated.json,http://54.235.29.9/FacialAge/BNav_EC2/DepthDuration/v2_depth_duration_MTurk/v2_DepthDuration_HTML.html#67,67,1280,1024,1280,1024,8-22-2022,4-59-34,51,depth_duration_stimuli/001059_2014-06-08_21-53-27_260595134347_rgbf000061-resize_4/001059_2014-06-08_21-53-27_260595134347_rgbf000061-resize_4-target.png,1000,2.4185,1,6736,999,meters,jsons/v1_VE1000_randls_15_rotated.json,1507336,1816137,33,Woman
51,410379,DepthScenes,duration_manipulation_targetAtFixation,jsons/v1_VE1000_randls_15_rotated.json,http://54.235.29.9/FacialAge/BNav_EC2/DepthDuration/v2_depth_duration_MTurk/v2_DepthDuration_HTML.html#67,67,1280,1024,1280,1024,8-22-2022,4-59-34,52,depth_duration_stimuli/000109_2014-05-14_23-41-52_260595134347_rgbf000035-resize_9/000109_2014-05-14_23-41-52_260595134347_rgbf000035-resize_9-target.png,1000,1.3545,2,13616,999,meters,jsons/v1_VE1000_randls_15_rotated.json,1507336,1816137,33,Woman
52,410379,DepthScenes,duration_manipulation_targetAtFixation,jsons/v1_VE1000_randls_15_rotated.json,http://54.235.29.9/FacialAge/BNav_EC2/DepthDuration/v2_depth_duration_MTurk/v2_DepthDuration_HTML.html#67,67,1280,1024,1280,1024,8-22-2022,4-59-34,53,depth_duration_stimuli/000470_2014-06-09_19-42-40_260595134347_rgbf000094-resize_1/000470_2014-06-09_19-42-40_260595134347_rgbf000094-resize_1-target.png,1000,1.831,2,11568,999,meters,jsons/v1_VE1000_randls_15_rotated.json,1507336,1816137,33,Woman
53,410379,DepthScenes,duration_manipulation_targetAtFixation,jsons/v1_VE1000_randls_15_rotated.json,http://54.235.29.9/FacialAge/BNav_EC2/DepthDuration/v2_depth_duration_MTurk/v2_DepthDuration_HTML.html#67,67,1280,1024,1280,1024,8-22-2022,4-59-34,54,depth_duration_stimuli/002199_2014-06-28_18-33-56_260595134347_rgbf000074-resize_0/002199_2014-06-28_18-33-56_260595134347_rgbf000074-resize_0-target.png,1000,1.996,1,8102,999,meters,jsons/v1_VE1000_randls_15_rotated.json,1507336,1816137,33,Woman
54,410379,DepthScenes,duration_manipulation_targetAtFixation,jsons/v1_VE1000_randls_15_rotated.json,http://54.235.29.9/FacialAge/BNav_EC2/DepthDuration/v2_depth_duration_MTurk/v2_DepthDuration_HTML.html#67,67,1280,1024,1280,1024,8-22-2022,4-59-34,55,depth_duration_stimuli/001056_2014-06-08_18-46-44_260595134347_rgbf000068-resize_0/001056_2014-06-08_18-46-44_260595134347_rgbf000068-resize_0-target.png,1000,2.6625,2,11026,1001,meters,jsons/v1_VE1000_randls_15_rotated.json,1507336,1816137,33,Woman
55,410379,DepthScenes,duration_manipulation_targetAtFixation,jsons/v1_VE1000_randls_15_rotated.json,http://54.235.29.9/FacialAge/BNav_EC2/DepthDuration/v2_depth_duration_MTurk/v2_DepthDuration_HTML.html#67,67,1280,1024,1280,1024,8-22-2022,4-59-34,56,depth_duration_stimuli/000483_2014-06-09_20-41-45_260595134347_rgbf000116-resize_4/000483_2014-06-09_20-41-45_260595134347_rgbf000116-resize_4-target.png,1000,1.337,2,8558,1000,meters,jsons/v1_VE1000_randls_15_rotated.json,1507336,1816137,33,Woman
56,410379,DepthScenes,duration_manipulation_targetAtFixation,jsons/v1_VE1000_randls_15_rotated.json,http://54.235.29.9/FacialAge/BNav_EC2/DepthDuration/v2_depth_duration_MTurk/v2_DepthDuration_HTML.html#67,67,1280,1024,1280,1024,8-22-2022,4-59-34,57,depth_duration_stimuli/000469_2014-06-09_19-42-10_260595134347_rgbf000081-resize_1/000469_2014-06-09_19-42-10_260595134347_rgbf000081-resize_1-target.png,1000,1.652,0,5489,1000,meters,jsons/v1_VE1000_randls_15_rotated.json,1507336,1816137,33,Woman
57,410379,DepthScenes,duration_manipulation_targetAtFixation,jsons/v1_VE1000_randls_15_rotated.json,http://54.235.29.9/FacialAge/BNav_EC2/DepthDuration/v2_depth_duration_MTurk/v2_DepthDuration_HTML.html#67,67,1280,1024,1280,1024,8-22-2022,4-59-34,58,depth_duration_stimuli/001516_2014-06-20_16-25-09_260595134347_rgbf000076-resize_2/001516_2014-06-20_16-25-09_260595134347_rgbf000076-resize_2-target.png,1000,1.7445,1,9648,1000,meters,jsons/v1_VE1000_randls_15_rotated.json,1507336,1816137,33,Woman
58,410379,DepthScenes,duration_manipulation_targetAtFixation,jsons/v1_VE1000_randls_15_rotated.json,http://54.235.29.9/FacialAge/BNav_EC2/DepthDuration/v2_depth_duration_MTurk/v2_DepthDuration_HTML.html#67,67,1280,1024,1280,1024,8-22-2022,4-59-34,59,depth_duration_stimuli/002118_2014-06-25_20-32-08_260595134347_rgbf000078-resize_1/002118_2014-06-25_20-32-08_260595134347_rgbf000078-resize_1-target.png,1000,2.6460000000000004,1,13518,1001,meters,jsons/v1_VE1000_randls_15_rotated.json,1507336,1816137,33,Woman
59,410379,DepthScenes,duration_manipulation_targetAtFixation,jsons/v1_VE1000_randls_15_rotated.json,http://54.235.29.9/FacialAge/BNav_EC2/DepthDuration/v2_depth_duration_MTurk/v2_DepthDuration_HTML.html#67,67,1280,1024,1280,1024,8-22-2022,4-59-34,60,depth_duration_stimuli/002639_2014-06-24_14-51-37_094959634447_rgbf000074-resize_4/002639_2014-06-24_14-51-37_094959634447_rgbf000074-resize_4-target.png,1000,4.0375,1,7856,1000,meters,jsons/v1_VE1000_randls_15_rotated.json,1507336,1816137,33,Woman
60,410379,DepthScenes,duration_manipulation_targetAtFixation,jsons/v1_VE1000_randls_15_rotated.json,http://54.235.29.9/FacialAge/BNav_EC2/DepthDuration/v2_depth_duration_MTurk/v2_DepthDuration_HTML.html#67,67,1280,1024,1280,1024,8-22-2022,4-59-34,61,depth_duration_stimuli/003292_2014-05-14_21-53-49_094959634447_rgbf000100-resize_2/003292_2014-05-14_21-53-49_094959634447_rgbf000100-resize_2-target.png,1000,3.4815,1,13184,1000,meters,jsons/v1_VE1000_randls_15_rotated.json,1507336,1816137,33,Woman
61,410379,DepthScenes,duration_manipulation_targetAtFixation,jsons/v1_VE1000_randls_15_rotated.json,http://54.235.29.9/FacialAge/BNav_EC2/DepthDuration/v2_depth_duration_MTurk/v2_DepthDuration_HTML.html#67,67,1280,1024,1280,1024,8-22-2022,4-59-34,62,depth_duration_stimuli/001214_2014-06-17_16-13-55_260595134347_rgbf000111-resize_0/001214_2014-06-17_16-13-55_260595134347_rgbf000111-resize_0-target.png,1000,2.6505,1,7842,999,meters,jsons/v1_VE1000_randls_15_rotated.json,1507336,1816137,33,Woman
62,410379,DepthScenes,duration_manipulation_targetAtFixation,jsons/v1_VE1000_randls_15_rotated.json,http://54.235.29.9/FacialAge/BNav_EC2/DepthDuration/v2_depth_duration_MTurk/v2_DepthDuration_HTML.html#67,67,1280,1024,1280,1024,8-22-2022,4-59-34,63,depth_duration_stimuli/000810_2014-06-08_17-20-01_260595134347_rgbf000105-resize_0/000810_2014-06-08_17-20-01_260595134347_rgbf000105-resize_0-target.png,1000,1.4865,1,8171,999,meters,jsons/v1_VE1000_randls_15_rotated.json,1507336,1816137,33,Woman
63,410379,DepthScenes,duration_manipulation_targetAtFixation,jsons/v1_VE1000_randls_15_rotated.json,http://54.235.29.9/FacialAge/BNav_EC2/DepthDuration/v2_depth_duration_MTurk/v2_DepthDuration_HTML.html#67,67,1280,1024,1280,1024,8-22-2022,4-59-34,64,depth_duration_stimuli/001094_2014-06-15_17-36-00_260595134347_rgbf000205-resize_0/001094_2014-06-15_17-36-00_260595134347_rgbf000205-resize_0-target.png,1000,4.2175,2,6962,1016,meters,jsons/v1_VE1000_randls_15_rotated.json,1507336,1816137,33,Woman
64,410379,DepthScenes,duration_manipulation_targetAtFixation,jsons/v1_VE1000_randls_15_rotated.json,http://54.235.29.9/FacialAge/BNav_EC2/DepthDuration/v2_depth_duration_MTurk/v2_DepthDuration_HTML.html#67,67,1280,1024,1280,1024,8-22-2022,4-59-34,65,depth_duration_stimuli/000692_2014-06-08_13-09-42_260595134347_rgbf000199-resize_2/000692_2014-06-08_13-09-42_260595134347_rgbf000199-resize_2-target.png,1000,3.661,2,8956,999,meters,jsons/v1_VE1000_randls_15_rotated.json,1507336,1816137,33,Woman
65,410379,DepthScenes,duration_manipulation_targetAtFixation,jsons/v1_VE1000_randls_15_rotated.json,http://54.235.29.9/FacialAge/BNav_EC2/DepthDuration/v2_depth_duration_MTurk/v2_DepthDuration_HTML.html#67,67,1280,1024,1280,1024,8-22-2022,4-59-34,66,depth_duration_stimuli/001540_2014-06-20_17-01-05_260595134347_rgbf000086-resize_2/001540_2014-06-20_17-01-05_260595134347_rgbf000086-resize-original.jpg,1000,1.459,1,7424,999,meters,jsons/v1_VE1000_randls_15_rotated.json,1507336,1816137,33,Woman
66,410379,DepthScenes,duration_manipulation_targetAtFixation,jsons/v1_VE1000_randls_15_rotated.json,http://54.235.29.9/FacialAge/BNav_EC2/DepthDuration/v2_depth_duration_MTurk/v2_DepthDuration_HTML.html#67,67,1280,1024,1280,1024,8-22-2022,4-59-34,67,depth_duration_stimuli/001235_2014-06-17_16-37-36_260595134347_rgbf000084-resize_4/001235_2014-06-17_16-37-36_260595134347_rgbf000084-resize_4-target.png,1000,3.6605,1,8107,1001,meters,jsons/v1_VE1000_randls_15_rotated.json,1507336,1816137,33,Woman
67,410379,DepthScenes,duration_manipulation_targetAtFixation,jsons/v1_VE1000_randls_15_rotated.json,http://54.235.29.9/FacialAge/BNav_EC2/DepthDuration/v2_depth_duration_MTurk/v2_DepthDuration_HTML.html#67,67,1280,1024,1280,1024,8-22-2022,4-59-34,68,depth_duration_stimuli/000788_2014-06-08_22-34-36_260595134347_rgbf000131-resize_1/000788_2014-06-08_22-34-36_260595134347_rgbf000131-resize_1-target.png,1000,3.359,1,11741,999,meters,jsons/v1_VE1000_randls_15_rotated.json,1507336,1816137,33,Woman
68,410379,DepthScenes,duration_manipulation_targetAtFixation,jsons/v1_VE1000_randls_15_rotated.json,http://54.235.29.9/FacialAge/BNav_EC2/DepthDuration/v2_depth_duration_MTurk/v2_DepthDuration_HTML.html#67,67,1280,1024,1280,1024,8-22-2022,4-59-34,69,depth_duration_stimuli/000780_2014-06-08_22-28-29_260595134347_rgbf000126-resize_1/000780_2014-06-08_22-28-29_260595134347_rgbf000126-resize_1-target.png,1000,3.3825,2,9651,999,meters,jsons/v1_VE1000_randls_15_rotated.json,1507336,1816137,33,Woman
69,410379,DepthScenes,duration_manipulation_targetAtFixation,jsons/v1_VE1000_randls_15_rotated.json,http://54.235.29.9/FacialAge/BNav_EC2/DepthDuration/v2_depth_duration_MTurk/v2_DepthDuration_HTML.html#67,67,1280,1024,1280,1024,8-22-2022,4-59-34,70,depth_duration_stimuli/002445_2014-06-28_20-32-16_260595134347_rgbf000029-resize_4/002445_2014-06-28_20-32-16_260595134347_rgbf000029-resize_4-target.png,1000,2.5315,1,4936,1000,meters,jsons/v1_VE1000_randls_15_rotated.json,1507336,1816137,33,Woman
70,410379,DepthScenes,duration_manipulation_targetAtFixation,jsons/v1_VE1000_randls_15_rotated.json,http://54.235.29.9/FacialAge/BNav_EC2/DepthDuration/v2_depth_duration_MTurk/v2_DepthDuration_HTML.html#67,67,1280,1024,1280,1024,8-22-2022,4-59-34,71,depth_duration_stimuli/001650_2014-06-20_12-09-00_260595134347_rgbf000087-resize_3/001650_2014-06-20_12-09-00_260595134347_rgbf000087-resize_3-target.png,1000,1.9505,1,7749,1000,meters,jsons/v1_VE1000_randls_15_rotated.json,1507336,1816137,33,Woman
71,410379,DepthScenes,duration_manipulation_targetAtFixation,jsons/v1_VE1000_randls_15_rotated.json,http://54.235.29.9/FacialAge/BNav_EC2/DepthDuration/v2_depth_duration_MTurk/v2_DepthDuration_HTML.html#67,67,1280,1024,1280,1024,8-22-2022,4-59-34,72,depth_duration_stimuli/000682_2014-06-08_23-14-58_260595134347_rgbf000041-resize_5/000682_2014-06-08_23-14-58_260595134347_rgbf000041-resize_5-target.png,1000,2.7239999999999998,2,6540,1000,meters,jsons/v1_VE1000_randls_15_rotated.json,1507336,1816137,33,Woman
72,410379,DepthScenes,duration_manipulation_targetAtFixation,jsons/v1_VE1000_randls_15_rotated.json,http://54.235.29.9/FacialAge/BNav_EC2/DepthDuration/v2_depth_duration_MTurk/v2_DepthDuration_HTML.html#67,67,1280,1024,1280,1024,8-22-2022,4-59-34,73,depth_duration_stimuli/003228_2014-05-14_13-42-35_094959634447_rgbf000101-resize_1/003228_2014-05-14_13-42-35_094959634447_rgbf000101-resize_1-target.png,1000,1.9680000000000002,1,8449,999,meters,jsons/v1_VE1000_randls_15_rotated.json,1507336,1816137,33,Woman
73,410379,DepthScenes,duration_manipulation_targetAtFixation,jsons/v1_VE1000_randls_15_rotated.json,http://54.235.29.9/FacialAge/BNav_EC2/DepthDuration/v2_depth_duration_MTurk/v2_DepthDuration_HTML.html#67,67,1280,1024,1280,1024,8-22-2022,4-59-34,74,depth_duration_stimuli/002600_2014-06-24_14-27-04_094959634447_rgbf000074-resize_2/002600_2014-06-24_14-27-04_094959634447_rgbf000074-resize_2-target.png,1000,2.7575,0,5923,1000,meters,jsons/v1_VE1000_randls_15_rotated.json,1507336,1816137,33,Woman
74,410379,DepthScenes,duration_manipulation_targetAtFixation,jsons/v1_VE1000_randls_15_rotated.json,http://54.235.29.9/FacialAge/BNav_EC2/DepthDuration/v2_depth_duration_MTurk/v2_DepthDuration_HTML.html#67,67,1280,1024,1280,1024,8-22-2022,4-59-34,75,depth_duration_stimuli/002444_2014-06-28_20-32-08_260595134347_rgbf000027-resize_0/002444_2014-06-28_20-32-08_260595134347_rgbf000027-resize_0-target.png,1000,4.388999999999999,2,9488,999,meters,jsons/v1_VE1000_randls_15_rotated.json,1507336,1816137,33,Woman
75,410379,DepthScenes,duration_manipulation_targetAtFixation,jsons/v1_VE1000_randls_15_rotated.json,http://54.235.29.9/FacialAge/BNav_EC2/DepthDuration/v2_depth_duration_MTurk/v2_DepthDuration_HTML.html#67,67,1280,1024,1280,1024,8-22-2022,4-59-34,76,depth_duration_stimuli/000436_2014-06-09_22-25-11_260595134347_rgbf000137-resize_1/000436_2014-06-09_22-25-11_260595134347_rgbf000137-resize_1-target.png,1000,4.0705,3,11812,1000,meters,jsons/v1_VE1000_randls_15_rotated.json,1507336,1816137,33,Woman
76,410379,DepthScenes,duration_manipulation_targetAtFixation,jsons/v1_VE1000_randls_15_rotated.json,http://54.235.29.9/FacialAge/BNav_EC2/DepthDuration/v2_depth_duration_MTurk/v2_DepthDuration_HTML.html#67,67,1280,1024,1280,1024,8-22-2022,4-59-34,77,depth_duration_stimuli/000137_2014-05-20_17-04-49_260595134347_rgbf000120-resize_1/000137_2014-05-20_17-04-49_260595134347_rgbf000120-resize_1-target.png,1000,3.786,3,10827,1000,meters,jsons/v1_VE1000_randls_15_rotated.json,1507336,1816137,33,Woman
77,410379,DepthScenes,duration_manipulation_targetAtFixation,jsons/v1_VE1000_randls_15_rotated.json,http://54.235.29.9/FacialAge/BNav_EC2/DepthDuration/v2_depth_duration_MTurk/v2_DepthDuration_HTML.html#67,67,1280,1024,1280,1024,8-22-2022,4-59-34,78,depth_duration_stimuli/000736_2014-06-08_18-24-15_260595134347_rgbf000206-resize_3/000736_2014-06-08_18-24-15_260595134347_rgbf000206-resize_3-target.png,1000,3.515,3,12162,1001,meters,jsons/v1_VE1000_randls_15_rotated.json,1507336,1816137,33,Woman
78,410379,DepthScenes,duration_manipulation_targetAtFixation,jsons/v1_VE1000_randls_15_rotated.json,http://54.235.29.9/FacialAge/BNav_EC2/DepthDuration/v2_depth_duration_MTurk/v2_DepthDuration_HTML.html#67,67,1280,1024,1280,1024,8-22-2022,4-59-34,79,depth_duration_stimuli/002344_2014-06-28_20-06-29_260595134347_rgbf000030-resize_1/002344_2014-06-28_20-06-29_260595134347_rgbf000030-resize_1-target.png,1000,1.5795,1,10517,1001,meters,jsons/v1_VE1000_randls_15_rotated.json,1507336,1816137,33,Woman
79,410379,DepthScenes,duration_manipulation_targetAtFixation,jsons/v1_VE1000_randls_15_rotated.json,http://54.235.29.9/FacialAge/BNav_EC2/DepthDuration/v2_depth_duration_MTurk/v2_DepthDuration_HTML.html#67,67,1280,1024,1280,1024,8-22-2022,4-59-34,80,depth_duration_stimuli/002725_2014-06-22_11-47-51_094959634447_rgbf000070-resize_1/002725_2014-06-22_11-47-51_094959634447_rgbf000070-resize_1-target.png,1000,2.195,2,4250,1000,meters,jsons/v1_VE1000_randls_15_rotated.json,1507336,1816137,33,Woman
80,410379,DepthScenes,duration_manipulation_targetAtFixation,jsons/v1_VE1000_randls_15_rotated.json,http://54.235.29.9/FacialAge/BNav_EC2/DepthDuration/v2_depth_duration_MTurk/v2_DepthDuration_HTML.html#67,67,1280,1024,1280,1024,8-22-2022,4-59-34,81,depth_duration_stimuli/003587_2014-05-23_16-48-02_094959634447_rgbf002384-resize_2/003587_2014-05-23_16-48-02_094959634447_rgbf002384-resize_2-target.png,1000,1.357,2,6366,1000,meters,jsons/v1_VE1000_randls_15_rotated.json,1507336,1816137,33,Woman
81,410379,DepthScenes,duration_manipulation_targetAtFixation,jsons/v1_VE1000_randls_15_rotated.json,http://54.235.29.9/FacialAge/BNav_EC2/DepthDuration/v2_depth_duration_MTurk/v2_DepthDuration_HTML.html#67,67,1280,1024,1280,1024,8-22-2022,4-59-34,82,depth_duration_stimuli/001167_2014-06-17_15-38-07_260595134347_rgbf000108-resize_0/001167_2014-06-17_15-38-07_260595134347_rgbf000108-resize_0-target.png,1000,1.8505,2,9439,1001,meters,jsons/v1_VE1000_randls_15_rotated.json,1507336,1816137,33,Woman
82,410379,DepthScenes,duration_manipulation_targetAtFixation,jsons/v1_VE1000_randls_15_rotated.json,http://54.235.29.9/FacialAge/BNav_EC2/DepthDuration/v2_depth_duration_MTurk/v2_DepthDuration_HTML.html#67,67,1280,1024,1280,1024,8-22-2022,4-59-34,83,depth_duration_stimuli/000556_2014-06-09_22-42-56_260595134347_rgbf000214-resize_1/000556_2014-06-09_22-42-56_260595134347_rgbf000214-resize_1-target.png,1000,4.8415,2,7212,1001,meters,jsons/v1_VE1000_randls_15_rotated.json,1507336,1816137,33,Woman
83,410379,DepthScenes,duration_manipulation_targetAtFixation,jsons/v1_VE1000_randls_15_rotated.json,http://54.235.29.9/FacialAge/BNav_EC2/DepthDuration/v2_depth_duration_MTurk/v2_DepthDuration_HTML.html#67,67,1280,1024,1280,1024,8-22-2022,4-59-34,84,depth_duration_stimuli/001158_2014-06-17_15-32-16_260595134347_rgbf000138-resize_2/001158_2014-06-17_15-32-16_260595134347_rgbf000138-resize_2-target.png,1000,4.5315,1,8499,1000,meters,jsons/v1_VE1000_randls_15_rotated.json,1507336,1816137,33,Woman
84,410379,DepthScenes,duration_manipulation_targetAtFixation,jsons/v1_VE1000_randls_15_rotated.json,http://54.235.29.9/FacialAge/BNav_EC2/DepthDuration/v2_depth_duration_MTurk/v2_DepthDuration_HTML.html#67,67,1280,1024,1280,1024,8-22-2022,4-59-34,85,depth_duration_stimuli/002758_2014-06-22_19-11-20_094959634447_rgbf000128-resize_1/002758_2014-06-22_19-11-20_094959634447_rgbf000128-resize_1-target.png,1000,2.555,1,9692,1000,meters,jsons/v1_VE1000_randls_15_rotated.json,1507336,1816137,33,Woman
85,410379,DepthScenes,duration_manipulation_targetAtFixation,jsons/v1_VE1000_randls_15_rotated.json,http://54.235.29.9/FacialAge/BNav_EC2/DepthDuration/v2_depth_duration_MTurk/v2_DepthDuration_HTML.html#67,67,1280,1024,1280,1024,8-22-2022,4-59-34,86,depth_duration_stimuli/002630_2014-06-24_14-47-50_094959634447_rgbf000055-resize_1/002630_2014-06-24_14-47-50_094959634447_rgbf000055-resize_1-target.png,1000,3.0095,2,7853,1000,meters,jsons/v1_VE1000_randls_15_rotated.json,1507336,1816137,33,Woman
86,410379,DepthScenes,duration_manipulation_targetAtFixation,jsons/v1_VE1000_randls_15_rotated.json,http://54.235.29.9/FacialAge/BNav_EC2/DepthDuration/v2_depth_duration_MTurk/v2_DepthDuration_HTML.html#67,67,1280,1024,1280,1024,8-22-2022,4-59-34,87,depth_duration_stimuli/002425_2014-06-28_20-27-29_260595134347_rgbf000031-resize_8/002425_2014-06-28_20-27-29_260595134347_rgbf000031-resize_8-target.png,1000,3.8960000000000004,2,8026,1002,meters,jsons/v1_VE1000_randls_15_rotated.json,1507336,1816137,33,Woman
87,410379,DepthScenes,duration_manipulation_targetAtFixation,jsons/v1_VE1000_randls_15_rotated.json,http://54.235.29.9/FacialAge/BNav_EC2/DepthDuration/v2_depth_duration_MTurk/v2_DepthDuration_HTML.html#67,67,1280,1024,1280,1024,8-22-2022,4-59-34,88,depth_duration_stimuli/000642_2014-06-08_16-59-25_260595134347_rgbf000098-resize_2/000642_2014-06-08_16-59-25_260595134347_rgbf000098-resize_2-target.png,1000,2.8815,3,7157,1000,meters,jsons/v1_VE1000_randls_15_rotated.json,1507336,1816137,33,Woman
88,410379,DepthScenes,duration_manipulation_targetAtFixation,jsons/v1_VE1000_randls_15_rotated.json,http://54.235.29.9/FacialAge/BNav_EC2/DepthDuration/v2_depth_duration_MTurk/v2_DepthDuration_HTML.html#67,67,1280,1024,1280,1024,8-22-2022,4-59-34,89,depth_duration_stimuli/001828_2014-06-26_21-40-03_260595134347_rgbf000024-resize_0/001828_2014-06-26_21-40-03_260595134347_rgbf000024-resize_0-target.png,1000,4.8260000000000005,2,11538,999,meters,jsons/v1_VE1000_randls_15_rotated.json,1507336,1816137,33,Woman
89,410379,DepthScenes,duration_manipulation_targetAtFixation,jsons/v1_VE1000_randls_15_rotated.json,http://54.235.29.9/FacialAge/BNav_EC2/DepthDuration/v2_depth_duration_MTurk/v2_DepthDuration_HTML.html#67,67,1280,1024,1280,1024,8-22-2022,4-59-34,90,depth_duration_stimuli/000009_2014-05-26_14-32-05_260595134347_rgbf000034-resize_3/000009_2014-05-26_14-32-05_260595134347_rgbf000034-resize_3-target.png,1000,3.8715,2,10003,1000,meters,jsons/v1_VE1000_randls_15_rotated.json,1507336,1816137,33,Woman
90,410379,DepthScenes,duration_manipulation_targetAtFixation,jsons/v1_VE1000_randls_15_rotated.json,http://54.235.29.9/FacialAge/BNav_EC2/DepthDuration/v2_depth_duration_MTurk/v2_DepthDuration_HTML.html#67,67,1280,1024,1280,1024,8-22-2022,4-59-34,91,depth_duration_stimuli/000103_2014-05-14_22-01-17_260595134347_rgbf000152-resize_5/000103_2014-05-14_22-01-17_260595134347_rgbf000152-resize_5-target.png,1000,1.993,2,10132,1000,meters,jsons/v1_VE1000_randls_15_rotated.json,1507336,1816137,33,Woman
91,410379,DepthScenes,duration_manipulation_targetAtFixation,jsons/v1_VE1000_randls_15_rotated.json,http://54.235.29.9/FacialAge/BNav_EC2/DepthDuration/v2_depth_duration_MTurk/v2_DepthDuration_HTML.html#67,67,1280,1024,1280,1024,8-22-2022,4-59-34,92,depth_duration_stimuli/001555_2014-06-20_17-12-10_260595134347_rgbf000065-resize_4/001555_2014-06-20_17-12-10_260595134347_rgbf000065-resize_4-target.png,1000,1.633,2,6796,1000,meters,jsons/v1_VE1000_randls_15_rotated.json,1507336,1816137,33,Woman
92,410379,DepthScenes,duration_manipulation_targetAtFixation,jsons/v1_VE1000_randls_15_rotated.json,http://54.235.29.9/FacialAge/BNav_EC2/DepthDuration/v2_depth_duration_MTurk/v2_DepthDuration_HTML.html#67,67,1280,1024,1280,1024,8-22-2022,4-59-34,93,depth_duration_stimuli/000943_2014-06-09_19-31-07_260595134347_rgbf000128-resize_1/000943_2014-06-09_19-31-07_260595134347_rgbf000128-resize_1-target.png,1000,1.9765,2,9229,1000,meters,jsons/v1_VE1000_randls_15_rotated.json,1507336,1816137,33,Woman
93,410379,DepthScenes,duration_manipulation_targetAtFixation,jsons/v1_VE1000_randls_15_rotated.json,http://54.235.29.9/FacialAge/BNav_EC2/DepthDuration/v2_depth_duration_MTurk/v2_DepthDuration_HTML.html#67,67,1280,1024,1280,1024,8-22-2022,4-59-34,94,depth_duration_stimuli/003070_2014-06-15_14-58-27_094959634447_rgbf000150-resize_3/003070_2014-06-15_14-58-27_094959634447_rgbf000150-resize_3-target.png,1000,2.9415,2,6980,1001,meters,jsons/v1_VE1000_randls_15_rotated.json,1507336,1816137,33,Woman
94,410379,DepthScenes,duration_manipulation_targetAtFixation,jsons/v1_VE1000_randls_15_rotated.json,http://54.235.29.9/FacialAge/BNav_EC2/DepthDuration/v2_depth_duration_MTurk/v2_DepthDuration_HTML.html#67,67,1280,1024,1280,1024,8-22-2022,4-59-34,95,depth_duration_stimuli/003338_2014-05-20_11-01-23_094959634447_rgbf000051-resize_6/003338_2014-05-20_11-01-23_094959634447_rgbf000051-resize_6-target.png,1000,1.693,2,12826,1000,meters,jsons/v1_VE1000_randls_15_rotated.json,1507336,1816137,33,Woman
95,410379,DepthScenes,duration_manipulation_targetAtFixation,jsons/v1_VE1000_randls_15_rotated.json,http://54.235.29.9/FacialAge/BNav_EC2/DepthDuration/v2_depth_duration_MTurk/v2_DepthDuration_HTML.html#67,67,1280,1024,1280,1024,8-22-2022,4-59-34,96,depth_duration_stimuli/002509_2014-06-24_13-19-22_094959634447_rgbf000077-resize_0/002509_2014-06-24_13-19-22_094959634447_rgbf000077-resize_0-target.png,1000,1.3065,2,9483,1000,meters,jsons/v1_VE1000_randls_15_rotated.json,1507336,1816137,33,Woman
96,410379,DepthScenes,duration_manipulation_targetAtFixation,jsons/v1_VE1000_randls_15_rotated.json,http://54.235.29.9/FacialAge/BNav_EC2/DepthDuration/v2_depth_duration_MTurk/v2_DepthDuration_HTML.html#67,67,1280,1024,1280,1024,8-22-2022,4-59-34,97,depth_duration_stimuli/002660_2014-06-13_15-44-18_094959634447_rgbf001878-resize_2/002660_2014-06-13_15-44-18_094959634447_rgbf001878-resize_2-target.png,1000,3.576,2,6894,1000,meters,jsons/v1_VE1000_randls_15_rotated.json,1507336,1816137,33,Woman
97,410379,DepthScenes,duration_manipulation_targetAtFixation,jsons/v1_VE1000_randls_15_rotated.json,http://54.235.29.9/FacialAge/BNav_EC2/DepthDuration/v2_depth_duration_MTurk/v2_DepthDuration_HTML.html#67,67,1280,1024,1280,1024,8-22-2022,4-59-34,98,depth_duration_stimuli/002153_2014-06-25_21-27-18_260595134347_rgbf000038-resize_5/002153_2014-06-25_21-27-18_260595134347_rgbf000038-resize_5-target.png,1000,2.505,2,8292,1000,meters,jsons/v1_VE1000_randls_15_rotated.json,1507336,1816137,33,Woman
98,410379,DepthScenes,duration_manipulation_targetAtFixation,jsons/v1_VE1000_randls_15_rotated.json,http://54.235.29.9/FacialAge/BNav_EC2/DepthDuration/v2_depth_duration_MTurk/v2_DepthDuration_HTML.html#67,67,1280,1024,1280,1024,8-22-2022,4-59-34,99,depth_duration_stimuli/001222_2014-06-17_16-24-06_260595134347_rgbf000073-resize_0/001222_2014-06-17_16-24-06_260595134347_rgbf000073-resize-original.jpg,1000,1.4385,3,8533,1000,meters,jsons/v1_VE1000_randls_15_rotated.json,1507336,1816137,33,Woman
99,410379,DepthScenes,duration_manipulation_targetAtFixation,jsons/v1_VE1000_randls_15_rotated.json,http://54.235.29.9/FacialAge/BNav_EC2/DepthDuration/v2_depth_duration_MTurk/v2_DepthDuration_HTML.html#67,67,1280,1024,1280,1024,8-22-2022,4-59-34,100,depth_duration_stimuli/001815_2014-06-26_20-52-55_260595134347_rgbf000020-resize_0/001815_2014-06-26_20-52-55_260595134347_rgbf000020-resize_0-target.png,1000,3.3865,2,14202,1000,meters,jsons/v1_VE1000_randls_15_rotated.json,1507336,1816137,33,Woman
100,410379,DepthScenes,duration_manipulation_targetAtFixation,jsons/v1_VE1000_randls_15_rotated.json,http://54.235.29.9/FacialAge/BNav_EC2/DepthDuration/v2_depth_duration_MTurk/v2_DepthDuration_HTML.html#67,67,1280,1024,1280,1024,8-22-2022,4-59-34,101,depth_duration_stimuli/001808_2014-06-26_20-50-58_260595134347_rgbf000029-resize_1/001808_2014-06-26_20-50-58_260595134347_rgbf000029-resize_1-target.png,1000,4.249,2,9371,1000,meters,jsons/v1_VE1000_randls_15_rotated.json,1507336,1816137,33,Woman
101,410379,DepthScenes,duration_manipulation_targetAtFixation,jsons/v1_VE1000_randls_15_rotated.json,http://54.235.29.9/FacialAge/BNav_EC2/DepthDuration/v2_depth_duration_MTurk/v2_DepthDuration_HTML.html#67,67,1280,1024,1280,1024,8-22-2022,4-59-34,102,depth_duration_stimuli/000549_2014-06-08_22-10-24_260595134347_rgbf000247-resize_3/000549_2014-06-08_22-10-24_260595134347_rgbf000247-resize_3-target.png,1000,1.841,3,10467,1001,meters,jsons/v1_VE1000_randls_15_rotated.json,1507336,1816137,33,Woman
102,410379,DepthScenes,duration_manipulation_targetAtFixation,jsons/v1_VE1000_randls_15_rotated.json,http://54.235.29.9/FacialAge/BNav_EC2/DepthDuration/v2_depth_duration_MTurk/v2_DepthDuration_HTML.html#67,67,1280,1024,1280,1024,8-22-2022,4-59-34,103,depth_duration_stimuli/001055_2014-06-08_18-45-35_260595134347_rgbf000111-resize_4/001055_2014-06-08_18-45-35_260595134347_rgbf000111-resize_4-target.png,1000,2.4290000000000003,3,12507,1000,meters,jsons/v1_VE1000_randls_15_rotated.json,1507336,1816137,33,Woman
103,410379,DepthScenes,duration_manipulation_targetAtFixation,jsons/v1_VE1000_randls_15_rotated.json,http://54.235.29.9/FacialAge/BNav_EC2/DepthDuration/v2_depth_duration_MTurk/v2_DepthDuration_HTML.html#67,67,1280,1024,1280,1024,8-22-2022,4-59-34,104,depth_duration_stimuli/002949_2014-06-26_15-57-42_094959634447_rgbf000079-resize_1/002949_2014-06-26_15-57-42_094959634447_rgbf000079-resize_1-target.png,1000,1.8915,2,8439,1000,meters,jsons/v1_VE1000_randls_15_rotated.json,1507336,1816137,33,Woman
104,410379,DepthScenes,duration_manipulation_targetAtFixation,jsons/v1_VE1000_randls_15_rotated.json,http://54.235.29.9/FacialAge/BNav_EC2/DepthDuration/v2_depth_duration_MTurk/v2_DepthDuration_HTML.html#67,67,1280,1024,1280,1024,8-22-2022,4-59-34,105,depth_duration_stimuli/000522_2014-06-08_13-35-06_260595134347_rgbf000244-resize_1/000522_2014-06-08_13-35-06_260595134347_rgbf000244-resize_1-target.png,1000,2.3715,2,8249,1000,meters,jsons/v1_VE1000_randls_15_rotated.json,1507336,1816137,33,Woman
105,410379,DepthScenes,duration_manipulation_targetAtFixation,jsons/v1_VE1000_randls_15_rotated.json,http://54.235.29.9/FacialAge/BNav_EC2/DepthDuration/v2_depth_duration_MTurk/v2_DepthDuration_HTML.html#67,67,1280,1024,1280,1024,8-22-2022,4-59-34,106,depth_duration_stimuli/001584_2014-06-20_11-07-43_260595134347_rgbf000002-resize_1/001584_2014-06-20_11-07-43_260595134347_rgbf000002-resize_1-target.png,1000,3.53,2,6227,998,meters,jsons/v1_VE1000_randls_15_rotated.json,1507336,1816137,33,Woman
106,410379,DepthScenes,duration_manipulation_targetAtFixation,jsons/v1_VE1000_randls_15_rotated.json,http://54.235.29.9/FacialAge/BNav_EC2/DepthDuration/v2_depth_duration_MTurk/v2_DepthDuration_HTML.html#67,67,1280,1024,1280,1024,8-22-2022,4-59-34,107,depth_duration_stimuli/003621_2014-05-23_18-06-08_094959634447_rgbf000101-resize_1/003621_2014-05-23_18-06-08_094959634447_rgbf000101-resize_1-target.png,1000,3.9835,2,9395,1000,meters,jsons/v1_VE1000_randls_15_rotated.json,1507336,1816137,33,Woman
107,410379,DepthScenes,duration_manipulation_targetAtFixation,jsons/v1_VE1000_randls_15_rotated.json,http://54.235.29.9/FacialAge/BNav_EC2/DepthDuration/v2_depth_duration_MTurk/v2_DepthDuration_HTML.html#67,67,1280,1024,1280,1024,8-22-2022,4-59-34,108,depth_duration_stimuli/002637_2014-06-24_14-51-13_094959634447_rgbf000066-resize_4/002637_2014-06-24_14-51-13_094959634447_rgbf000066-resize_4-target.png,1000,1.9955,2,8716,1000,meters,jsons/v1_VE1000_randls_15_rotated.json,1507336,1816137,33,Woman
108,410379,DepthScenes,duration_manipulation_targetAtFixation,jsons/v1_VE1000_randls_15_rotated.json,http://54.235.29.9/FacialAge/BNav_EC2/DepthDuration/v2_depth_duration_MTurk/v2_DepthDuration_HTML.html#67,67,1280,1024,1280,1024,8-22-2022,4-59-34,109,depth_duration_stimuli/003534_2014-05-22_15-06-10_094959634447_rgbf000102-resize_4/003534_2014-05-22_15-06-10_094959634447_rgbf000102-resize_4-target.png,1000,1.426,3,8113,1000,meters,jsons/v1_VE1000_randls_15_rotated.json,1507336,1816137,33,Woman
109,410379,DepthScenes,duration_manipulation_targetAtFixation,jsons/v1_VE1000_randls_15_rotated.json,http://54.235.29.9/FacialAge/BNav_EC2/DepthDuration/v2_depth_duration_MTurk/v2_DepthDuration_HTML.html#67,67,1280,1024,1280,1024,8-22-2022,4-59-34,110,depth_duration_stimuli/003495_2014-05-21_16-01-51_094959634447_rgbf000100-resize_3/003495_2014-05-21_16-01-51_094959634447_rgbf000100-resize_3-target.png,1000,1.6255,2,8454,989,meters,jsons/v1_VE1000_randls_15_rotated.json,1507336,1816137,33,Woman
110,410379,DepthScenes,duration_manipulation_targetAtFixation,jsons/v1_VE1000_randls_15_rotated.json,http://54.235.29.9/FacialAge/BNav_EC2/DepthDuration/v2_depth_duration_MTurk/v2_DepthDuration_HTML.html#67,67,1280,1024,1280,1024,8-22-2022,4-59-34,111,depth_duration_stimuli/001244_2014-06-17_16-47-45_260595134347_rgbf000030-resize_4/001244_2014-06-17_16-47-45_260595134347_rgbf000030-resize_4-target.png,1000,2.0425,2,13630,987,meters,jsons/v1_VE1000_randls_15_rotated.json,1507336,1816137,33,Woman
111,410379,DepthScenes,duration_manipulation_targetAtFixation,jsons/v1_VE1000_randls_15_rotated.json,http://54.235.29.9/FacialAge/BNav_EC2/DepthDuration/v2_depth_duration_MTurk/v2_DepthDuration_HTML.html#67,67,1280,1024,1280,1024,8-22-2022,4-59-34,112,depth_duration_stimuli/000665_2014-06-09_20-42-35_260595134347_rgbf000110-resize_1/000665_2014-06-09_20-42-35_260595134347_rgbf000110-resize_1-target.png,1000,3.057,2,7596,1000,meters,jsons/v1_VE1000_randls_15_rotated.json,1507336,1816137,33,Woman
112,410379,DepthScenes,duration_manipulation_targetAtFixation,jsons/v1_VE1000_randls_15_rotated.json,http://54.235.29.9/FacialAge/BNav_EC2/DepthDuration/v2_depth_duration_MTurk/v2_DepthDuration_HTML.html#67,67,1280,1024,1280,1024,8-22-2022,4-59-34,113,depth_duration_stimuli/001150_2014-06-17_15-27-34_260595134347_rgbf000108-resize_2/001150_2014-06-17_15-27-34_260595134347_rgbf000108-resize_2-target.png,1000,4.0325,1,6175,999,meters,jsons/v1_VE1000_randls_15_rotated.json,1507336,1816137,33,Woman
113,410379,DepthScenes,duration_manipulation_targetAtFixation,jsons/v1_VE1000_randls_15_rotated.json,http://54.235.29.9/FacialAge/BNav_EC2/DepthDuration/v2_depth_duration_MTurk/v2_DepthDuration_HTML.html#67,67,1280,1024,1280,1024,8-22-2022,4-59-34,114,depth_duration_stimuli/002323_2014-06-28_20-01-54_260595134347_rgbf000051-resize_4/002323_2014-06-28_20-01-54_260595134347_rgbf000051-resize_4-target.png,1000,3.7310000000000003,1,7390,1000,meters,jsons/v1_VE1000_randls_15_rotated.json,1507336,1816137,33,Woman
114,410379,DepthScenes,duration_manipulation_targetAtFixation,jsons/v1_VE1000_randls_15_rotated.json,http://54.235.29.9/FacialAge/BNav_EC2/DepthDuration/v2_depth_duration_MTurk/v2_DepthDuration_HTML.html#67,67,1280,1024,1280,1024,8-22-2022,4-59-34,115,depth_duration_stimuli/000917_2014-06-09_22-45-29_260595134347_rgbf000149-resize_3/000917_2014-06-09_22-45-29_260595134347_rgbf000149-resize_3-target.png,1000,4.1865,1,8901,1000,meters,jsons/v1_VE1000_randls_15_rotated.json,1507336,1816137,33,Woman
115,410379,DepthScenes,duration_manipulation_targetAtFixation,jsons/v1_VE1000_randls_15_rotated.json,http://54.235.29.9/FacialAge/BNav_EC2/DepthDuration/v2_depth_duration_MTurk/v2_DepthDuration_HTML.html#67,67,1280,1024,1280,1024,8-22-2022,4-59-34,116,depth_duration_stimuli/002678_2014-06-13_16-15-32_094959634447_rgbf000151-resize_6/002678_2014-06-13_16-15-32_094959634447_rgbf000151-resize_6-target.png,1000,2.1830000000000003,2,5638,999,meters,jsons/v1_VE1000_randls_15_rotated.json,1507336,1816137,33,Woman
116,410379,DepthScenes,duration_manipulation_targetAtFixation,jsons/v1_VE1000_randls_15_rotated.json,http://54.235.29.9/FacialAge/BNav_EC2/DepthDuration/v2_depth_duration_MTurk/v2_DepthDuration_HTML.html#67,67,1280,1024,1280,1024,8-22-2022,4-59-34,117,depth_duration_stimuli/000368_2014-06-09_15-53-01_260595134347_rgbf000155-resize_2/000368_2014-06-09_15-53-01_260595134347_rgbf000155-resize_2-target.png,1000,2.4859999999999998,2,8762,1000,meters,jsons/v1_VE1000_randls_15_rotated.json,1507336,1816137,33,Woman
117,410379,DepthScenes,duration_manipulation_targetAtFixation,jsons/v1_VE1000_randls_15_rotated.json,http://54.235.29.9/FacialAge/BNav_EC2/DepthDuration/v2_depth_duration_MTurk/v2_DepthDuration_HTML.html#67,67,1280,1024,1280,1024,8-22-2022,4-59-34,118,depth_duration_stimuli/002340_2014-06-28_20-05-46_260595134347_rgbf000113-resize_0/002340_2014-06-28_20-05-46_260595134347_rgbf000113-resize_0-target.png,1000,2.4735,2,7954,1000,meters,jsons/v1_VE1000_randls_15_rotated.json,1507336,1816137,33,Woman
118,410379,DepthScenes,duration_manipulation_targetAtFixation,jsons/v1_VE1000_randls_15_rotated.json,http://54.235.29.9/FacialAge/BNav_EC2/DepthDuration/v2_depth_duration_MTurk/v2_DepthDuration_HTML.html#67,67,1280,1024,1280,1024,8-22-2022,4-59-34,119,depth_duration_stimuli/001016_2014-06-09_16-16-10_260595134347_rgbf000112-resize_5/001016_2014-06-09_16-16-10_260595134347_rgbf000112-resize_5-target.png,1000,1.6565,1,5525,1001,meters,jsons/v1_VE1000_randls_15_rotated.json,1507336,1816137,33,Woman
119,410379,DepthScenes,duration_manipulation_targetAtFixation,jsons/v1_VE1000_randls_15_rotated.json,http://54.235.29.9/FacialAge/BNav_EC2/DepthDuration/v2_depth_duration_MTurk/v2_DepthDuration_HTML.html#67,67,1280,1024,1280,1024,8-22-2022,4-59-34,120,depth_duration_stimuli/000787_2014-06-08_22-33-53_260595134347_rgbf000175-resize_1/000787_2014-06-08_22-33-53_260595134347_rgbf000175-resize-original.jpg,1000,4.784,1,6626,1005,meters,jsons/v1_VE1000_randls_15_rotated.json,1507336,1816137,33,Woman
120,410379,DepthScenes,duration_manipulation_targetAtFixation,jsons/v1_VE1000_randls_15_rotated.json,http://54.235.29.9/FacialAge/BNav_EC2/DepthDuration/v2_depth_duration_MTurk/v2_DepthDuration_HTML.html#67,67,1280,1024,1280,1024,8-22-2022,4-59-34,121,depth_duration_stimuli/003079_2014-06-15_15-18-20_094959634447_rgbf000152-resize_8/003079_2014-06-15_15-18-20_094959634447_rgbf000152-resize_8-target.png,1000,2.8775,2,8354,999,meters,jsons/v1_VE1000_randls_15_rotated.json,1507336,1816137,33,Woman
121,410379,DepthScenes,duration_manipulation_targetAtFixation,jsons/v1_VE1000_randls_15_rotated.json,http://54.235.29.9/FacialAge/BNav_EC2/DepthDuration/v2_depth_duration_MTurk/v2_DepthDuration_HTML.html#67,67,1280,1024,1280,1024,8-22-2022,4-59-34,122,depth_duration_stimuli/000506_2014-06-08_23-21-00_260595134347_rgbf000070-resize_7/000506_2014-06-08_23-21-00_260595134347_rgbf000070-resize_7-target.png,1000,4.0585,2,7052,1000,meters,jsons/v1_VE1000_randls_15_rotated.json,1507336,1816137,33,Woman
122,410379,DepthScenes,duration_manipulation_targetAtFixation,jsons/v1_VE1000_randls_15_rotated.json,http://54.235.29.9/FacialAge/BNav_EC2/DepthDuration/v2_depth_duration_MTurk/v2_DepthDuration_HTML.html#67,67,1280,1024,1280,1024,8-22-2022,4-59-34,123,depth_duration_stimuli/003129_2014-05-12_10-48-10_094959634447_rgbf000100-resize_0/003129_2014-05-12_10-48-10_094959634447_rgbf000100-resize_0-target.png,1000,4.9305,2,6547,999,meters,jsons/v1_VE1000_randls_15_rotated.json,1507336,1816137,33,Woman
123,410379,DepthScenes,duration_manipulation_targetAtFixation,jsons/v1_VE1000_randls_15_rotated.json,http://54.235.29.9/FacialAge/BNav_EC2/DepthDuration/v2_depth_duration_MTurk/v2_DepthDuration_HTML.html#67,67,1280,1024,1280,1024,8-22-2022,4-59-34,124,depth_duration_stimuli/000414_2014-06-04_19-49-13_260595134347_rgbf000044-resize_0/000414_2014-06-04_19-49-13_260595134347_rgbf000044-resize_0-target.png,1000,4.329,2,9398,1000,meters,jsons/v1_VE1000_randls_15_rotated.json,1507336,1816137,33,Woman
124,410379,DepthScenes,duration_manipulation_targetAtFixation,jsons/v1_VE1000_randls_15_rotated.json,http://54.235.29.9/FacialAge/BNav_EC2/DepthDuration/v2_depth_duration_MTurk/v2_DepthDuration_HTML.html#67,67,1280,1024,1280,1024,8-22-2022,4-59-34,125,depth_duration_stimuli/002875_2014-06-01_15-19-00_094959634447_rgbf000151-resize_1/002875_2014-06-01_15-19-00_094959634447_rgbf000151-resize_1-target.png,1000,1.9675,1,7421,1000,meters,jsons/v1_VE1000_randls_15_rotated.json,1507336,1816137,33,Woman
125,410379,DepthScenes,duration_manipulation_targetAtFixation,jsons/v1_VE1000_randls_15_rotated.json,http://54.235.29.9/FacialAge/BNav_EC2/DepthDuration/v2_depth_duration_MTurk/v2_DepthDuration_HTML.html#67,67,1280,1024,1280,1024,8-22-2022,4-59-34,126,depth_duration_stimuli/001011_2014-06-08_23-18-54_260595134347_rgbf000044-resize_4/001011_2014-06-08_23-18-54_260595134347_rgbf000044-resize_4-target.png,1000,2.4730000000000003,3,8385,1000,meters,jsons/v1_VE1000_randls_15_rotated.json,1507336,1816137,33,Woman
126,410379,DepthScenes,duration_manipulation_targetAtFixation,jsons/v1_VE1000_randls_15_rotated.json,http://54.235.29.9/FacialAge/BNav_EC2/DepthDuration/v2_depth_duration_MTurk/v2_DepthDuration_HTML.html#67,67,1280,1024,1280,1024,8-22-2022,4-59-34,127,depth_duration_stimuli/003423_2014-05-21_10-23-26_094959634447_rgbf002665-resize_2/003423_2014-05-21_10-23-26_094959634447_rgbf002665-resize_2-target.png,1000,3.2575,3,11366,999,meters,jsons/v1_VE1000_randls_15_rotated.json,1507336,1816137,33,Woman
127,410379,DepthScenes,duration_manipulation_targetAtFixation,jsons/v1_VE1000_randls_15_rotated.json,http://54.235.29.9/FacialAge/BNav_EC2/DepthDuration/v2_depth_duration_MTurk/v2_DepthDuration_HTML.html#67,67,1280,1024,1280,1024,8-22-2022,4-59-34,128,depth_duration_stimuli/002905_2014-06-03_18-04-43_094959634447_rgbf000151-resize_2/002905_2014-06-03_18-04-43_094959634447_rgbf000151-resize_2-target.png,1000,2.0295,3,9400,1000,meters,jsons/v1_VE1000_randls_15_rotated.json,1507336,1816137,33,Woman
128,410379,DepthScenes,duration_manipulation_targetAtFixation,jsons/v1_VE1000_randls_15_rotated.json,http://54.235.29.9/FacialAge/BNav_EC2/DepthDuration/v2_depth_duration_MTurk/v2_DepthDuration_HTML.html#67,67,1280,1024,1280,1024,8-22-2022,4-59-34,129,depth_duration_stimuli/002209_2014-06-28_18-36-10_260595134347_rgbf000051-resize_1/002209_2014-06-28_18-36-10_260595134347_rgbf000051-resize_1-target.png,1000,2.057,1,7139,1000,meters,jsons/v1_VE1000_randls_15_rotated.json,1507336,1816137,33,Woman
129,410379,DepthScenes,duration_manipulation_targetAtFixation,jsons/v1_VE1000_randls_15_rotated.json,http://54.235.29.9/FacialAge/BNav_EC2/DepthDuration/v2_depth_duration_MTurk/v2_DepthDuration_HTML.html#67,67,1280,1024,1280,1024,8-22-2022,4-59-34,130,depth_duration_stimuli/002763_2014-06-22_19-13-10_094959634447_rgbf000075-resize_4/002763_2014-06-22_19-13-10_094959634447_rgbf000075-resize_4-target.png,1000,1.68375,3,14859,1001,meters,jsons/v1_VE1000_randls_15_rotated.json,1507336,1816137,33,Woman
130,410379,DepthScenes,duration_manipulation_targetAtFixation,jsons/v1_VE1000_randls_15_rotated.json,http://54.235.29.9/FacialAge/BNav_EC2/DepthDuration/v2_depth_duration_MTurk/v2_DepthDuration_HTML.html#67,67,1280,1024,1280,1024,8-22-2022,4-59-34,131,depth_duration_stimuli/001617_2014-06-20_11-35-32_260595134347_rgbf000066-resize_1/001617_2014-06-20_11-35-32_260595134347_rgbf000066-resize_1-target.png,1000,3.7910000000000004,1,6956,1016,meters,jsons/v1_VE1000_randls_15_rotated.json,1507336,1816137,33,Woman
131,410379,DepthScenes,duration_manipulation_targetAtFixation,jsons/v1_VE1000_randls_15_rotated.json,http://54.235.29.9/FacialAge/BNav_EC2/DepthDuration/v2_depth_duration_MTurk/v2_DepthDuration_HTML.html#67,67,1280,1024,1280,1024,8-22-2022,4-59-34,132,depth_duration_stimuli/001806_2014-06-26_20-50-20_260595134347_rgbf000091-resize_1/001806_2014-06-26_20-50-20_260595134347_rgbf000091-resize_1-target.png,1000,2.7305,1,8695,1000,meters,jsons/v1_VE1000_randls_15_rotated.json,1507336,1816137,33,Woman
132,410379,DepthScenes,duration_manipulation_targetAtFixation,jsons/v1_VE1000_randls_15_rotated.json,http://54.235.29.9/FacialAge/BNav_EC2/DepthDuration/v2_depth_duration_MTurk/v2_DepthDuration_HTML.html#67,67,1280,1024,1280,1024,8-22-2022,4-59-34,133,depth_duration_stimuli/000742_2014-06-08_18-48-09_260595134347_rgbf000164-resize_4/000742_2014-06-08_18-48-09_260595134347_rgbf000164-resize_4-target.png,1000,4.632,2,8244,1000,meters,jsons/v1_VE1000_randls_15_rotated.json,1507336,1816137,33,Woman
133,410379,DepthScenes,duration_manipulation_targetAtFixation,jsons/v1_VE1000_randls_15_rotated.json,http://54.235.29.9/FacialAge/BNav_EC2/DepthDuration/v2_depth_duration_MTurk/v2_DepthDuration_HTML.html#67,67,1280,1024,1280,1024,8-22-2022,4-59-34,134,depth_duration_stimuli/001066_2014-06-08_22-03-20_260595134347_rgbf000066-resize_4/001066_2014-06-08_22-03-20_260595134347_rgbf000066-resize_4-target.png,1000,4.2330000000000005,2,13424,1000,meters,jsons/v1_VE1000_randls_15_rotated.json,1507336,1816137,33,Woman
134,410379,DepthScenes,duration_manipulation_targetAtFixation,jsons/v1_VE1000_randls_15_rotated.json,http://54.235.29.9/FacialAge/BNav_EC2/DepthDuration/v2_depth_duration_MTurk/v2_DepthDuration_HTML.html#67,67,1280,1024,1280,1024,8-22-2022,4-59-34,135,depth_duration_stimuli/000375_2014-06-08_11-17-29_260595134347_rgbf000133-resize_2/000375_2014-06-08_11-17-29_260595134347_rgbf000133-resize-original.jpg,1000,4.718,1,8392,1000,meters,jsons/v1_VE1000_randls_15_rotated.json,1507336,1816137,33,Woman
135,410379,DepthScenes,duration_manipulation_targetAtFixation,jsons/v1_VE1000_randls_15_rotated.json,http://54.235.29.9/FacialAge/BNav_EC2/DepthDuration/v2_depth_duration_MTurk/v2_DepthDuration_HTML.html#67,67,1280,1024,1280,1024,8-22-2022,4-59-34,136,depth_duration_stimuli/000502_2014-06-08_23-02-32_260595134347_rgbf000063-resize_4/000502_2014-06-08_23-02-32_260595134347_rgbf000063-resize_4-target.png,1000,2.431,4,6924,1000,meters,jsons/v1_VE1000_randls_15_rotated.json,1507336,1816137,33,Woman
136,410379,DepthScenes,duration_manipulation_targetAtFixation,jsons/v1_VE1000_randls_15_rotated.json,http://54.235.29.9/FacialAge/BNav_EC2/DepthDuration/v2_depth_duration_MTurk/v2_DepthDuration_HTML.html#67,67,1280,1024,1280,1024,8-22-2022,4-59-34,137,depth_duration_stimuli/001199_2014-06-17_16-03-48_260595134347_rgbf000077-resize_0/001199_2014-06-17_16-03-48_260595134347_rgbf000077-resize_0-target.png,1000,3.4375,1,6152,1000,meters,jsons/v1_VE1000_randls_15_rotated.json,1507336,1816137,33,Woman
137,410379,DepthScenes,duration_manipulation_targetAtFixation,jsons/v1_VE1000_randls_15_rotated.json,http://54.235.29.9/FacialAge/BNav_EC2/DepthDuration/v2_depth_duration_MTurk/v2_DepthDuration_HTML.html#67,67,1280,1024,1280,1024,8-22-2022,4-59-34,138,depth_duration_stimuli/002657_2014-06-13_15-29-54_094959634447_rgbf000150-resize_1/002657_2014-06-13_15-29-54_094959634447_rgbf000150-resize_1-target.png,1000,4.919,1,7239,999,meters,jsons/v1_VE1000_randls_15_rotated.json,1507336,1816137,33,Woman
138,410379,DepthScenes,duration_manipulation_targetAtFixation,jsons/v1_VE1000_randls_15_rotated.json,http://54.235.29.9/FacialAge/BNav_EC2/DepthDuration/v2_depth_duration_MTurk/v2_DepthDuration_HTML.html#67,67,1280,1024,1280,1024,8-22-2022,4-59-34,139,depth_duration_stimuli/002375_2014-06-28_20-13-44_260595134347_rgbf000032-resize_1/002375_2014-06-28_20-13-44_260595134347_rgbf000032-resize_1-target.png,1000,4.0175,2,8472,1000,meters,jsons/v1_VE1000_randls_15_rotated.json,1507336,1816137,33,Woman
139,410379,DepthScenes,duration_manipulation_targetAtFixation,jsons/v1_VE1000_randls_15_rotated.json,http://54.235.29.9/FacialAge/BNav_EC2/DepthDuration/v2_depth_duration_MTurk/v2_DepthDuration_HTML.html#67,67,1280,1024,1280,1024,8-22-2022,4-59-34,140,depth_duration_stimuli/003083_2014-06-15_15-21-03_094959634447_rgbf000063-resize_1/003083_2014-06-15_15-21-03_094959634447_rgbf000063-resize_1-target.png,1000,4.1405,2,11097,1000,meters,jsons/v1_VE1000_randls_15_rotated.json,1507336,1816137,33,Woman
140,410379,DepthScenes,duration_manipulation_targetAtFixation,jsons/v1_VE1000_randls_15_rotated.json,http://54.235.29.9/FacialAge/BNav_EC2/DepthDuration/v2_depth_duration_MTurk/v2_DepthDuration_HTML.html#67,67,1280,1024,1280,1024,8-22-2022,4-59-34,141,depth_duration_stimuli/000486_2014-06-09_20-47-20_260595134347_rgbf000143-resize_2/000486_2014-06-09_20-47-20_260595134347_rgbf000143-resize_2-target.png,1000,4.8325,2,6089,1000,meters,jsons/v1_VE1000_randls_15_rotated.json,1507336,1816137,33,Woman
141,410379,DepthScenes,duration_manipulation_targetAtFixation,jsons/v1_VE1000_randls_15_rotated.json,http://54.235.29.9/FacialAge/BNav_EC2/DepthDuration/v2_depth_duration_MTurk/v2_DepthDuration_HTML.html#67,67,1280,1024,1280,1024,8-22-2022,4-59-34,142,depth_duration_stimuli/003010_2014-06-15_12-54-35_094959634447_rgbf000112-resize_0/003010_2014-06-15_12-54-35_094959634447_rgbf000112-resize_0-target.png,1000,3.1185,2,8663,1000,meters,jsons/v1_VE1000_randls_15_rotated.json,1507336,1816137,33,Woman
142,410379,DepthScenes,duration_manipulation_targetAtFixation,jsons/v1_VE1000_randls_15_rotated.json,http://54.235.29.9/FacialAge/BNav_EC2/DepthDuration/v2_depth_duration_MTurk/v2_DepthDuration_HTML.html#67,67,1280,1024,1280,1024,8-22-2022,4-59-34,143,depth_duration_stimuli/001810_2014-06-26_20-51-35_260595134347_rgbf000040-resize_3/001810_2014-06-26_20-51-35_260595134347_rgbf000040-resize_3-target.png,1000,2.2525,2,7717,999,meters,jsons/v1_VE1000_randls_15_rotated.json,1507336,1816137,33,Woman
143,410379,DepthScenes,duration_manipulation_targetAtFixation,jsons/v1_VE1000_randls_15_rotated.json,http://54.235.29.9/FacialAge/BNav_EC2/DepthDuration/v2_depth_duration_MTurk/v2_DepthDuration_HTML.html#67,67,1280,1024,1280,1024,8-22-2022,4-59-34,144,depth_duration_stimuli/000866_2014-06-09_20-45-42_260595134347_rgbf000139-resize_1/000866_2014-06-09_20-45-42_260595134347_rgbf000139-resize_1-target.png,1000,3.2155,2,9284,1001,meters,jsons/v1_VE1000_randls_15_rotated.json,1507336,1816137,33,Woman
144,410379,DepthScenes,duration_manipulation_targetAtFixation,jsons/v1_VE1000_randls_15_rotated.json,http://54.235.29.9/FacialAge/BNav_EC2/DepthDuration/v2_depth_duration_MTurk/v2_DepthDuration_HTML.html#67,67,1280,1024,1280,1024,8-22-2022,4-59-34,145,depth_duration_stimuli/002989_2014-06-15_12-25-03_094959634447_rgbf000150-resize_3/002989_2014-06-15_12-25-03_094959634447_rgbf000150-resize_3-target.png,1000,4.1975,2,8557,1000,meters,jsons/v1_VE1000_randls_15_rotated.json,1507336,1816137,33,Woman
145,410379,DepthScenes,duration_manipulation_targetAtFixation,jsons/v1_VE1000_randls_15_rotated.json,http://54.235.29.9/FacialAge/BNav_EC2/DepthDuration/v2_depth_duration_MTurk/v2_DepthDuration_HTML.html#67,67,1280,1024,1280,1024,8-22-2022,4-59-34,146,depth_duration_stimuli/002568_2014-06-24_13-59-21_094959634447_rgbf000062-resize_4/002568_2014-06-24_13-59-21_094959634447_rgbf000062-resize_4-target.png,1000,3.015,2,9655,1000,meters,jsons/v1_VE1000_randls_15_rotated.json,1507336,1816137,33,Woman
146,410379,DepthScenes,duration_manipulation_targetAtFixation,jsons/v1_VE1000_randls_15_rotated.json,http://54.235.29.9/FacialAge/BNav_EC2/DepthDuration/v2_depth_duration_MTurk/v2_DepthDuration_HTML.html#67,67,1280,1024,1280,1024,8-22-2022,4-59-34,147,depth_duration_stimuli/003492_2014-05-21_15-50-55_094959634447_rgbf000828-resize_1/003492_2014-05-21_15-50-55_094959634447_rgbf000828-resize_1-target.png,1000,4.06875,1,7385,1000,meters,jsons/v1_VE1000_randls_15_rotated.json,1507336,1816137,33,Woman
147,410379,DepthScenes,duration_manipulation_targetAtFixation,jsons/v1_VE1000_randls_15_rotated.json,http://54.235.29.9/FacialAge/BNav_EC2/DepthDuration/v2_depth_duration_MTurk/v2_DepthDuration_HTML.html#67,67,1280,1024,1280,1024,8-22-2022,4-59-34,148,depth_duration_stimuli/003081_2014-06-15_15-19-16_094959634447_rgbf000150-resize_1/003081_2014-06-15_15-19-16_094959634447_rgbf000150-resize_1-target.png,1000,3.9125,2,5640,1000,meters,jsons/v1_VE1000_randls_15_rotated.json,1507336,1816137,33,Woman
148,410379,DepthScenes,duration_manipulation_targetAtFixation,jsons/v1_VE1000_randls_15_rotated.json,http://54.235.29.9/FacialAge/BNav_EC2/DepthDuration/v2_depth_duration_MTurk/v2_DepthDuration_HTML.html#67,67,1280,1024,1280,1024,8-22-2022,4-59-34,149,depth_duration_stimuli/001417_2014-06-19_16-25-36_260595134347_rgbf000115-resize_5/001417_2014-06-19_16-25-36_260595134347_rgbf000115-resize_5-target.png,1000,4.6255,2,5763,986,meters,jsons/v1_VE1000_randls_15_rotated.json,1507336,1816137,33,Woman
149,410379,DepthScenes,duration_manipulation_targetAtFixation,jsons/v1_VE1000_randls_15_rotated.json,http://54.235.29.9/FacialAge/BNav_EC2/DepthDuration/v2_depth_duration_MTurk/v2_DepthDuration_HTML.html#67,67,1280,1024,1280,1024,8-22-2022,4-59-34,150,depth_duration_stimuli/000635_2014-06-08_16-38-42_260595134347_rgbf000106-resize_1/000635_2014-06-08_16-38-42_260595134347_rgbf000106-resize_1-target.png,1000,2.074,2,12722,1000,meters,jsons/v1_VE1000_randls_15_rotated.json,1507336,1816137,33,Woman
150,410379,DepthScenes,duration_manipulation_targetAtFixation,jsons/v1_VE1000_randls_15_rotated.json,http://54.235.29.9/FacialAge/BNav_EC2/DepthDuration/v2_depth_duration_MTurk/v2_DepthDuration_HTML.html#67,67,1280,1024,1280,1024,8-22-2022,4-59-34,151,depth_duration_stimuli/002279_2014-06-28_18-55-32_260595134347_rgbf000040-resize_5/002279_2014-06-28_18-55-32_260595134347_rgbf000040-resize_5-target.png,1000,1.5043333333333,2,9032,1000,meters,jsons/v1_VE1000_randls_15_rotated.json,1507336,1816137,33,Woman
151,410379,DepthScenes,duration_manipulation_targetAtFixation,jsons/v1_VE1000_randls_15_rotated.json,http://54.235.29.9/FacialAge/BNav_EC2/DepthDuration/v2_depth_duration_MTurk/v2_DepthDuration_HTML.html#67,67,1280,1024,1280,1024,8-22-2022,4-59-34,152,depth_duration_stimuli/000569_2014-06-09_22-51-47_260595134347_rgbf000141-resize_3/000569_2014-06-09_22-51-47_260595134347_rgbf000141-resize-original.jpg,1000,4.512,2,14247,1000,meters,jsons/v1_VE1000_randls_15_rotated.json,1507336,1816137,33,Woman
152,410379,DepthScenes,duration_manipulation_targetAtFixation,jsons/v1_VE1000_randls_15_rotated.json,http://54.235.29.9/FacialAge/BNav_EC2/DepthDuration/v2_depth_duration_MTurk/v2_DepthDuration_HTML.html#67,67,1280,1024,1280,1024,8-22-2022,4-59-34,153,depth_duration_stimuli/002414_2014-06-28_20-24-58_260595134347_rgbf000067-resize_4/002414_2014-06-28_20-24-58_260595134347_rgbf000067-resize_4-target.png,1000,4.363,2,14377,1000,meters,jsons/v1_VE1000_randls_15_rotated.json,1507336,1816137,33,Woman
153,410379,DepthScenes,duration_manipulation_targetAtFixation,jsons/v1_VE1000_randls_15_rotated.json,http://54.235.29.9/FacialAge/BNav_EC2/DepthDuration/v2_depth_duration_MTurk/v2_DepthDuration_HTML.html#67,67,1280,1024,1280,1024,8-22-2022,4-59-34,154,depth_duration_stimuli/000773_2014-06-08_22-24-54_260595134347_rgbf000093-resize_1/000773_2014-06-08_22-24-54_260595134347_rgbf000093-resize_1-target.png,1000,4.973,2,11990,1000,meters,jsons/v1_VE1000_randls_15_rotated.json,1507336,1816137,33,Woman
154,410379,DepthScenes,duration_manipulation_targetAtFixation,jsons/v1_VE1000_randls_15_rotated.json,http://54.235.29.9/FacialAge/BNav_EC2/DepthDuration/v2_depth_duration_MTurk/v2_DepthDuration_HTML.html#67,67,1280,1024,1280,1024,8-22-2022,4-59-34,155,depth_duration_stimuli/002995_2014-06-15_12-31-26_094959634447_rgbf000150-resize_1/002995_2014-06-15_12-31-26_094959634447_rgbf000150-resize_1-target.png,1000,3.8360000000000003,2,13962,1001,meters,jsons/v1_VE1000_randls_15_rotated.json,1507336,1816137,33,Woman
155,410379,DepthScenes,duration_manipulation_targetAtFixation,jsons/v1_VE1000_randls_15_rotated.json,http://54.235.29.9/FacialAge/BNav_EC2/DepthDuration/v2_depth_duration_MTurk/v2_DepthDuration_HTML.html#67,67,1280,1024,1280,1024,8-22-2022,4-59-34,156,depth_duration_stimuli/002748_2014-06-22_19-07-22_094959634447_rgbf000078-resize_1/002748_2014-06-22_19-07-22_094959634447_rgbf000078-resize_1-target.png,1000,4.6705,2,6134,1000,meters,jsons/v1_VE1000_randls_15_rotated.json,1507336,1816137,33,Woman
156,410379,DepthScenes,duration_manipulation_targetAtFixation,jsons/v1_VE1000_randls_15_rotated.json,http://54.235.29.9/FacialAge/BNav_EC2/DepthDuration/v2_depth_duration_MTurk/v2_DepthDuration_HTML.html#67,67,1280,1024,1280,1024,8-22-2022,4-59-34,157,depth_duration_stimuli/000927_2014-06-09_16-32-30_260595134347_rgbf000123-resize_3/000927_2014-06-09_16-32-30_260595134347_rgbf000123-resize_3-target.png,1000,2.6785,2,6838,1000,meters,jsons/v1_VE1000_randls_15_rotated.json,1507336,1816137,33,Woman
157,410379,DepthScenes,duration_manipulation_targetAtFixation,jsons/v1_VE1000_randls_15_rotated.json,http://54.235.29.9/FacialAge/BNav_EC2/DepthDuration/v2_depth_duration_MTurk/v2_DepthDuration_HTML.html#67,67,1280,1024,1280,1024,8-22-2022,4-59-34,158,depth_duration_stimuli/001110_2014-06-15_17-25-28_260595134347_rgbf000150-resize_1/001110_2014-06-15_17-25-28_260595134347_rgbf000150-resize_1-target.png,1000,1.7115,1,12052,1006,meters,jsons/v1_VE1000_randls_15_rotated.json,1507336,1816137,33,Woman
158,410379,DepthScenes,duration_manipulation_targetAtFixation,jsons/v1_VE1000_randls_15_rotated.json,http://54.235.29.9/FacialAge/BNav_EC2/DepthDuration/v2_depth_duration_MTurk/v2_DepthDuration_HTML.html#67,67,1280,1024,1280,1024,8-22-2022,4-59-34,159,depth_duration_stimuli/001052_2014-06-08_18-24-54_260595134347_rgbf000130-resize_1/001052_2014-06-08_18-24-54_260595134347_rgbf000130-resize_1-target.png,1000,4.1045,3,11034,1000,meters,jsons/v1_VE1000_randls_15_rotated.json,1507336,1816137,33,Woman
159,410379,DepthScenes,duration_manipulation_targetAtFixation,jsons/v1_VE1000_randls_15_rotated.json,http://54.235.29.9/FacialAge/BNav_EC2/DepthDuration/v2_depth_duration_MTurk/v2_DepthDuration_HTML.html#67,67,1280,1024,1280,1024,8-22-2022,4-59-34,160,depth_duration_stimuli/002988_2014-06-15_12-24-20_094959634447_rgbf000150-resize_1/002988_2014-06-15_12-24-20_094959634447_rgbf000150-resize_1-target.png,1000,4.7669999999999995,1,13010,1000,meters,jsons/v1_VE1000_randls_15_rotated.json,1507336,1816137,33,Woman
160,410379,DepthScenes,duration_manipulation_targetAtFixation,jsons/v1_VE1000_randls_15_rotated.json,http://54.235.29.9/FacialAge/BNav_EC2/DepthDuration/v2_depth_duration_MTurk/v2_DepthDuration_HTML.html#67,67,1280,1024,1280,1024,8-22-2022,4-59-34,161,depth_duration_stimuli/001571_2014-06-20_17-21-32_260595134347_rgbf000089-resize_1/001571_2014-06-20_17-21-32_260595134347_rgbf000089-resize_1-target.png,1000,1.86,1,8847,1000,meters,jsons/v1_VE1000_randls_15_rotated.json,1507336,1816137,33,Woman
161,410379,DepthScenes,duration_manipulation_targetAtFixation,jsons/v1_VE1000_randls_15_rotated.json,http://54.235.29.9/FacialAge/BNav_EC2/DepthDuration/v2_depth_duration_MTurk/v2_DepthDuration_HTML.html#67,67,1280,1024,1280,1024,8-22-2022,4-59-34,162,depth_duration_stimuli/002272_2014-06-28_18-53-56_260595134347_rgbf000067-resize_2/002272_2014-06-28_18-53-56_260595134347_rgbf000067-resize_2-target.png,1000,1.138,1,6127,999,meters,jsons/v1_VE1000_randls_15_rotated.json,1507336,1816137,33,Woman
162,410379,DepthScenes,duration_manipulation_targetAtFixation,jsons/v1_VE1000_randls_15_rotated.json,http://54.235.29.9/FacialAge/BNav_EC2/DepthDuration/v2_depth_duration_MTurk/v2_DepthDuration_HTML.html#67,67,1280,1024,1280,1024,8-22-2022,4-59-34,163,depth_duration_stimuli/002136_2014-06-25_21-18-03_260595134347_rgbf000109-resize_3/002136_2014-06-25_21-18-03_260595134347_rgbf000109-resize_3-target.png,1000,1.9569999999999999,1,7336,1000,meters,jsons/v1_VE1000_randls_15_rotated.json,1507336,1816137,33,Woman
163,410379,DepthScenes,duration_manipulation_targetAtFixation,jsons/v1_VE1000_randls_15_rotated.json,http://54.235.29.9/FacialAge/BNav_EC2/DepthDuration/v2_depth_duration_MTurk/v2_DepthDuration_HTML.html#67,67,1280,1024,1280,1024,8-22-2022,4-59-34,164,depth_duration_stimuli/002964_2014-06-08_17-46-11_094959634447_rgbf000091-resize_4/002964_2014-06-08_17-46-11_094959634447_rgbf000091-resize_4-target.png,1000,1.6909999999999998,1,10124,999,meters,jsons/v1_VE1000_randls_15_rotated.json,1507336,1816137,33,Woman
