,subjID,experimentName,versionName,sequenceName,url,selected_row,windowWidth,windowHeight,screenWidth,screenHeight,startDate,startTime,trial,stimulus,duration,actual_depth,depth_estimate,trial_RT,log_sceneDuration,unitSelection,seq_filepath,experimentTime,totalTime,age,gender
0,412775,DepthScenes,duration_manipulation_targetAtFixation,jsons/v1_VE1000_randls_60.json,http://54.235.29.9/FacialAge/BNav_EC2/DepthDuration/v2_depth_duration_MTurk/v2_DepthDuration_HTML.html#9,9,1561,700,1600,900,8-22-2022,7-58-11,1,depth_duration_stimuli/000929_2014-06-09_16-33-19_260595134347_rgbf000139-resize_0/000929_2014-06-09_16-33-19_260595134347_rgbf000139-resize_0-target.png,1000,2.8680000000000003,8,4438,1011,feet,jsons/v1_VE1000_randls_60.json,598741,723147,37,Woman
1,412775,DepthScenes,duration_manipulation_targetAtFixation,jsons/v1_VE1000_randls_60.json,http://54.235.29.9/FacialAge/BNav_EC2/DepthDuration/v2_depth_duration_MTurk/v2_DepthDuration_HTML.html#9,9,1561,700,1600,900,8-22-2022,7-58-11,2,depth_duration_stimuli/000457_2014-06-08_16-52-43_260595134347_rgbf000199-resize_1/000457_2014-06-08_16-52-43_260595134347_rgbf000199-resize_1-target.png,1000,3.6489999999999996,12,3480,989,feet,jsons/v1_VE1000_randls_60.json,598741,723147,37,Woman
2,412775,DepthScenes,duration_manipulation_targetAtFixation,jsons/v1_VE1000_randls_60.json,http://54.235.29.9/FacialAge/BNav_EC2/DepthDuration/v2_depth_duration_MTurk/v2_DepthDuration_HTML.html#9,9,1561,700,1600,900,8-22-2022,7-58-11,3,depth_duration_stimuli/002748_2014-06-22_19-07-22_094959634447_rgbf000078-resize_1/002748_2014-06-22_19-07-22_094959634447_rgbf000078-resize_1-target.png,1000,4.6705,20,3087,999,feet,jsons/v1_VE1000_randls_60.json,598741,723147,37,Woman
3,412775,DepthScenes,duration_manipulation_targetAtFixation,jsons/v1_VE1000_randls_60.json,http://54.235.29.9/FacialAge/BNav_EC2/DepthDuration/v2_depth_duration_MTurk/v2_DepthDuration_HTML.html#9,9,1561,700,1600,900,8-22-2022,7-58-11,4,depth_duration_stimuli/002995_2014-06-15_12-31-26_094959634447_rgbf000150-resize_1/002995_2014-06-15_12-31-26_094959634447_rgbf000150-resize_1-target.png,1000,3.8360000000000003,25,3213,999,feet,jsons/v1_VE1000_randls_60.json,598741,723147,37,Woman
4,412775,DepthScenes,duration_manipulation_targetAtFixation,jsons/v1_VE1000_randls_60.json,http://54.235.29.9/FacialAge/BNav_EC2/DepthDuration/v2_depth_duration_MTurk/v2_DepthDuration_HTML.html#9,9,1561,700,1600,900,8-22-2022,7-58-11,5,depth_duration_stimuli/002763_2014-06-22_19-13-10_094959634447_rgbf000075-resize_4/002763_2014-06-22_19-13-10_094959634447_rgbf000075-resize_4-target.png,1000,1.68375,4,2673,1001,feet,jsons/v1_VE1000_randls_60.json,598741,723147,37,Woman
5,412775,DepthScenes,duration_manipulation_targetAtFixation,jsons/v1_VE1000_randls_60.json,http://54.235.29.9/FacialAge/BNav_EC2/DepthDuration/v2_depth_duration_MTurk/v2_DepthDuration_HTML.html#9,9,1561,700,1600,900,8-22-2022,7-58-11,6,depth_duration_stimuli/002209_2014-06-28_18-36-10_260595134347_rgbf000051-resize_1/002209_2014-06-28_18-36-10_260595134347_rgbf000051-resize_1-target.png,1000,2.057,5,3438,999,feet,jsons/v1_VE1000_randls_60.json,598741,723147,37,Woman
6,412775,DepthScenes,duration_manipulation_targetAtFixation,jsons/v1_VE1000_randls_60.json,http://54.235.29.9/FacialAge/BNav_EC2/DepthDuration/v2_depth_duration_MTurk/v2_DepthDuration_HTML.html#9,9,1561,700,1600,900,8-22-2022,7-58-11,7,depth_duration_stimuli/003534_2014-05-22_15-06-10_094959634447_rgbf000102-resize_4/003534_2014-05-22_15-06-10_094959634447_rgbf000102-resize_4-target.png,1000,1.426,2,2794,998,feet,jsons/v1_VE1000_randls_60.json,598741,723147,37,Woman
7,412775,DepthScenes,duration_manipulation_targetAtFixation,jsons/v1_VE1000_randls_60.json,http://54.235.29.9/FacialAge/BNav_EC2/DepthDuration/v2_depth_duration_MTurk/v2_DepthDuration_HTML.html#9,9,1561,700,1600,900,8-22-2022,7-58-11,8,depth_duration_stimuli/002637_2014-06-24_14-51-13_094959634447_rgbf000066-resize_4/002637_2014-06-24_14-51-13_094959634447_rgbf000066-resize_4-target.png,1000,1.9955,7,4436,999,feet,jsons/v1_VE1000_randls_60.json,598741,723147,37,Woman
8,412775,DepthScenes,duration_manipulation_targetAtFixation,jsons/v1_VE1000_randls_60.json,http://54.235.29.9/FacialAge/BNav_EC2/DepthDuration/v2_depth_duration_MTurk/v2_DepthDuration_HTML.html#9,9,1561,700,1600,900,8-22-2022,7-58-11,9,depth_duration_stimuli/001158_2014-06-17_15-32-16_260595134347_rgbf000138-resize_2/001158_2014-06-17_15-32-16_260595134347_rgbf000138-resize_2-target.png,1000,4.5315,10,3506,999,feet,jsons/v1_VE1000_randls_60.json,598741,723147,37,Woman
9,412775,DepthScenes,duration_manipulation_targetAtFixation,jsons/v1_VE1000_randls_60.json,http://54.235.29.9/FacialAge/BNav_EC2/DepthDuration/v2_depth_duration_MTurk/v2_DepthDuration_HTML.html#9,9,1561,700,1600,900,8-22-2022,7-58-11,10,depth_duration_stimuli/000556_2014-06-09_22-42-56_260595134347_rgbf000214-resize_1/000556_2014-06-09_22-42-56_260595134347_rgbf000214-resize_1-target.png,1000,4.8415,12,3540,999,feet,jsons/v1_VE1000_randls_60.json,598741,723147,37,Woman
10,412775,DepthScenes,duration_manipulation_targetAtFixation,jsons/v1_VE1000_randls_60.json,http://54.235.29.9/FacialAge/BNav_EC2/DepthDuration/v2_depth_duration_MTurk/v2_DepthDuration_HTML.html#9,9,1561,700,1600,900,8-22-2022,7-58-11,11,depth_duration_stimuli/002549_2014-06-24_13-41-39_094959634447_rgbf000022-resize_3/002549_2014-06-24_13-41-39_094959634447_rgbf000022-resize_3-target.png,1000,1.476,3,3390,999,feet,jsons/v1_VE1000_randls_60.json,598741,723147,37,Woman
11,412775,DepthScenes,duration_manipulation_targetAtFixation,jsons/v1_VE1000_randls_60.json,http://54.235.29.9/FacialAge/BNav_EC2/DepthDuration/v2_depth_duration_MTurk/v2_DepthDuration_HTML.html#9,9,1561,700,1600,900,8-22-2022,7-58-11,12,depth_duration_stimuli/002750_2014-06-22_19-08-03_094959634447_rgbf000094-resize_4/002750_2014-06-22_19-08-03_094959634447_rgbf000094-resize_4-target.png,1000,2.354,8,4263,989,feet,jsons/v1_VE1000_randls_60.json,598741,723147,37,Woman
12,412775,DepthScenes,duration_manipulation_targetAtFixation,jsons/v1_VE1000_randls_60.json,http://54.235.29.9/FacialAge/BNav_EC2/DepthDuration/v2_depth_duration_MTurk/v2_DepthDuration_HTML.html#9,9,1561,700,1600,900,8-22-2022,7-58-11,13,depth_duration_stimuli/000569_2014-06-09_22-51-47_260595134347_rgbf000141-resize_3/000569_2014-06-09_22-51-47_260595134347_rgbf000141-resize-original.jpg,1000,4.512,0,3250,995,feet,jsons/v1_VE1000_randls_60.json,598741,723147,37,Woman
13,412775,DepthScenes,duration_manipulation_targetAtFixation,jsons/v1_VE1000_randls_60.json,http://54.235.29.9/FacialAge/BNav_EC2/DepthDuration/v2_depth_duration_MTurk/v2_DepthDuration_HTML.html#9,9,1561,700,1600,900,8-22-2022,7-58-11,14,depth_duration_stimuli/001199_2014-06-17_16-03-48_260595134347_rgbf000077-resize_0/001199_2014-06-17_16-03-48_260595134347_rgbf000077-resize_0-target.png,1000,3.4375,12,3937,990,feet,jsons/v1_VE1000_randls_60.json,598741,723147,37,Woman
14,412775,DepthScenes,duration_manipulation_targetAtFixation,jsons/v1_VE1000_randls_60.json,http://54.235.29.9/FacialAge/BNav_EC2/DepthDuration/v2_depth_duration_MTurk/v2_DepthDuration_HTML.html#9,9,1561,700,1600,900,8-22-2022,7-58-11,15,depth_duration_stimuli/000502_2014-06-08_23-02-32_260595134347_rgbf000063-resize_4/000502_2014-06-08_23-02-32_260595134347_rgbf000063-resize_4-target.png,1000,2.431,9,5656,999,feet,jsons/v1_VE1000_randls_60.json,598741,723147,37,Woman
15,412775,DepthScenes,duration_manipulation_targetAtFixation,jsons/v1_VE1000_randls_60.json,http://54.235.29.9/FacialAge/BNav_EC2/DepthDuration/v2_depth_duration_MTurk/v2_DepthDuration_HTML.html#9,9,1561,700,1600,900,8-22-2022,7-58-11,16,depth_duration_stimuli/000739_2014-06-08_18-45-58_260595134347_rgbf000068-resize_1/000739_2014-06-08_18-45-58_260595134347_rgbf000068-resize_1-target.png,1000,3.534,10,3755,999,feet,jsons/v1_VE1000_randls_60.json,598741,723147,37,Woman
16,412775,DepthScenes,duration_manipulation_targetAtFixation,jsons/v1_VE1000_randls_60.json,http://54.235.29.9/FacialAge/BNav_EC2/DepthDuration/v2_depth_duration_MTurk/v2_DepthDuration_HTML.html#9,9,1561,700,1600,900,8-22-2022,7-58-11,17,depth_duration_stimuli/000734_2014-06-08_17-39-11_260595134347_rgbf000128-resize_2/000734_2014-06-08_17-39-11_260595134347_rgbf000128-resize_2-target.png,1000,4.098,8,3081,999,feet,jsons/v1_VE1000_randls_60.json,598741,723147,37,Woman
17,412775,DepthScenes,duration_manipulation_targetAtFixation,jsons/v1_VE1000_randls_60.json,http://54.235.29.9/FacialAge/BNav_EC2/DepthDuration/v2_depth_duration_MTurk/v2_DepthDuration_HTML.html#9,9,1561,700,1600,900,8-22-2022,7-58-11,18,depth_duration_stimuli/001150_2014-06-17_15-27-34_260595134347_rgbf000108-resize_2/001150_2014-06-17_15-27-34_260595134347_rgbf000108-resize_2-target.png,1000,4.0325,8,3206,997,feet,jsons/v1_VE1000_randls_60.json,598741,723147,37,Woman
18,412775,DepthScenes,duration_manipulation_targetAtFixation,jsons/v1_VE1000_randls_60.json,http://54.235.29.9/FacialAge/BNav_EC2/DepthDuration/v2_depth_duration_MTurk/v2_DepthDuration_HTML.html#9,9,1561,700,1600,900,8-22-2022,7-58-11,19,depth_duration_stimuli/000665_2014-06-09_20-42-35_260595134347_rgbf000110-resize_1/000665_2014-06-09_20-42-35_260595134347_rgbf000110-resize_1-target.png,1000,3.057,7,2895,991,feet,jsons/v1_VE1000_randls_60.json,598741,723147,37,Woman
19,412775,DepthScenes,duration_manipulation_targetAtFixation,jsons/v1_VE1000_randls_60.json,http://54.235.29.9/FacialAge/BNav_EC2/DepthDuration/v2_depth_duration_MTurk/v2_DepthDuration_HTML.html#9,9,1561,700,1600,900,8-22-2022,7-58-11,20,depth_duration_stimuli/002445_2014-06-28_20-32-16_260595134347_rgbf000029-resize_4/002445_2014-06-28_20-32-16_260595134347_rgbf000029-resize_4-target.png,1000,2.5315,6,2916,999,feet,jsons/v1_VE1000_randls_60.json,598741,723147,37,Woman
20,412775,DepthScenes,duration_manipulation_targetAtFixation,jsons/v1_VE1000_randls_60.json,http://54.235.29.9/FacialAge/BNav_EC2/DepthDuration/v2_depth_duration_MTurk/v2_DepthDuration_HTML.html#9,9,1561,700,1600,900,8-22-2022,7-58-11,21,depth_duration_stimuli/000780_2014-06-08_22-28-29_260595134347_rgbf000126-resize_1/000780_2014-06-08_22-28-29_260595134347_rgbf000126-resize_1-target.png,1000,3.3825,7,2854,994,feet,jsons/v1_VE1000_randls_60.json,598741,723147,37,Woman
21,412775,DepthScenes,duration_manipulation_targetAtFixation,jsons/v1_VE1000_randls_60.json,http://54.235.29.9/FacialAge/BNav_EC2/DepthDuration/v2_depth_duration_MTurk/v2_DepthDuration_HTML.html#9,9,1561,700,1600,900,8-22-2022,7-58-11,22,depth_duration_stimuli/002039_2014-06-24_20-22-38_260595134347_rgbf000084-resize_1/002039_2014-06-24_20-22-38_260595134347_rgbf000084-resize_1-target.png,1000,4.408,15,3569,989,feet,jsons/v1_VE1000_randls_60.json,598741,723147,37,Woman
22,412775,DepthScenes,duration_manipulation_targetAtFixation,jsons/v1_VE1000_randls_60.json,http://54.235.29.9/FacialAge/BNav_EC2/DepthDuration/v2_depth_duration_MTurk/v2_DepthDuration_HTML.html#9,9,1561,700,1600,900,8-22-2022,7-58-11,23,depth_duration_stimuli/002103_2014-06-25_20-00-40_260595134347_rgbf000049-resize_0/002103_2014-06-25_20-00-40_260595134347_rgbf000049-resize_0-target.png,1000,4.105,15,3155,989,feet,jsons/v1_VE1000_randls_60.json,598741,723147,37,Woman
23,412775,DepthScenes,duration_manipulation_targetAtFixation,jsons/v1_VE1000_randls_60.json,http://54.235.29.9/FacialAge/BNav_EC2/DepthDuration/v2_depth_duration_MTurk/v2_DepthDuration_HTML.html#9,9,1561,700,1600,900,8-22-2022,7-58-11,24,depth_duration_stimuli/001167_2014-06-17_15-38-07_260595134347_rgbf000108-resize_0/001167_2014-06-17_15-38-07_260595134347_rgbf000108-resize_0-target.png,1000,1.8505,4,2926,1000,feet,jsons/v1_VE1000_randls_60.json,598741,723147,37,Woman
24,412775,DepthScenes,duration_manipulation_targetAtFixation,jsons/v1_VE1000_randls_60.json,http://54.235.29.9/FacialAge/BNav_EC2/DepthDuration/v2_depth_duration_MTurk/v2_DepthDuration_HTML.html#9,9,1561,700,1600,900,8-22-2022,7-58-11,25,depth_duration_stimuli/003587_2014-05-23_16-48-02_094959634447_rgbf002384-resize_2/003587_2014-05-23_16-48-02_094959634447_rgbf002384-resize_2-target.png,1000,1.357,1,2678,989,feet,jsons/v1_VE1000_randls_60.json,598741,723147,37,Woman
25,412775,DepthScenes,duration_manipulation_targetAtFixation,jsons/v1_VE1000_randls_60.json,http://54.235.29.9/FacialAge/BNav_EC2/DepthDuration/v2_depth_duration_MTurk/v2_DepthDuration_HTML.html#9,9,1561,700,1600,900,8-22-2022,7-58-11,26,depth_duration_stimuli/002989_2014-06-15_12-25-03_094959634447_rgbf000150-resize_3/002989_2014-06-15_12-25-03_094959634447_rgbf000150-resize_3-target.png,1000,4.1975,12,3103,998,feet,jsons/v1_VE1000_randls_60.json,598741,723147,37,Woman
26,412775,DepthScenes,duration_manipulation_targetAtFixation,jsons/v1_VE1000_randls_60.json,http://54.235.29.9/FacialAge/BNav_EC2/DepthDuration/v2_depth_duration_MTurk/v2_DepthDuration_HTML.html#9,9,1561,700,1600,900,8-22-2022,7-58-11,27,depth_duration_stimuli/000866_2014-06-09_20-45-42_260595134347_rgbf000139-resize_1/000866_2014-06-09_20-45-42_260595134347_rgbf000139-resize_1-target.png,1000,3.2155,10,2989,989,feet,jsons/v1_VE1000_randls_60.json,598741,723147,37,Woman
27,412775,DepthScenes,duration_manipulation_targetAtFixation,jsons/v1_VE1000_randls_60.json,http://54.235.29.9/FacialAge/BNav_EC2/DepthDuration/v2_depth_duration_MTurk/v2_DepthDuration_HTML.html#9,9,1561,700,1600,900,8-22-2022,7-58-11,28,depth_duration_stimuli/001056_2014-06-08_18-46-44_260595134347_rgbf000068-resize_0/001056_2014-06-08_18-46-44_260595134347_rgbf000068-resize_0-target.png,1000,2.6625,15,2556,990,feet,jsons/v1_VE1000_randls_60.json,598741,723147,37,Woman
28,412775,DepthScenes,duration_manipulation_targetAtFixation,jsons/v1_VE1000_randls_60.json,http://54.235.29.9/FacialAge/BNav_EC2/DepthDuration/v2_depth_duration_MTurk/v2_DepthDuration_HTML.html#9,9,1561,700,1600,900,8-22-2022,7-58-11,29,depth_duration_stimuli/002199_2014-06-28_18-33-56_260595134347_rgbf000074-resize_0/002199_2014-06-28_18-33-56_260595134347_rgbf000074-resize_0-target.png,1000,1.996,2,2765,999,feet,jsons/v1_VE1000_randls_60.json,598741,723147,37,Woman
29,412775,DepthScenes,duration_manipulation_targetAtFixation,jsons/v1_VE1000_randls_60.json,http://54.235.29.9/FacialAge/BNav_EC2/DepthDuration/v2_depth_duration_MTurk/v2_DepthDuration_HTML.html#9,9,1561,700,1600,900,8-22-2022,7-58-11,30,depth_duration_stimuli/000375_2014-06-08_11-17-29_260595134347_rgbf000133-resize_2/000375_2014-06-08_11-17-29_260595134347_rgbf000133-resize-original.jpg,1000,4.718,0,2481,999,feet,jsons/v1_VE1000_randls_60.json,598741,723147,37,Woman
30,412775,DepthScenes,duration_manipulation_targetAtFixation,jsons/v1_VE1000_randls_60.json,http://54.235.29.9/FacialAge/BNav_EC2/DepthDuration/v2_depth_duration_MTurk/v2_DepthDuration_HTML.html#9,9,1561,700,1600,900,8-22-2022,7-58-11,31,depth_duration_stimuli/003492_2014-05-21_15-50-55_094959634447_rgbf000828-resize_1/003492_2014-05-21_15-50-55_094959634447_rgbf000828-resize_1-target.png,1000,4.06875,20,2633,1003,feet,jsons/v1_VE1000_randls_60.json,598741,723147,37,Woman
31,412775,DepthScenes,duration_manipulation_targetAtFixation,jsons/v1_VE1000_randls_60.json,http://54.235.29.9/FacialAge/BNav_EC2/DepthDuration/v2_depth_duration_MTurk/v2_DepthDuration_HTML.html#9,9,1561,700,1600,900,8-22-2022,7-58-11,32,depth_duration_stimuli/002568_2014-06-24_13-59-21_094959634447_rgbf000062-resize_4/002568_2014-06-24_13-59-21_094959634447_rgbf000062-resize_4-target.png,1000,3.015,15,2560,999,feet,jsons/v1_VE1000_randls_60.json,598741,723147,37,Woman
32,412775,DepthScenes,duration_manipulation_targetAtFixation,jsons/v1_VE1000_randls_60.json,http://54.235.29.9/FacialAge/BNav_EC2/DepthDuration/v2_depth_duration_MTurk/v2_DepthDuration_HTML.html#9,9,1561,700,1600,900,8-22-2022,7-58-11,33,depth_duration_stimuli/001011_2014-06-08_23-18-54_260595134347_rgbf000044-resize_4/001011_2014-06-08_23-18-54_260595134347_rgbf000044-resize_4-target.png,1000,2.4730000000000003,6,2586,1005,feet,jsons/v1_VE1000_randls_60.json,598741,723147,37,Woman
33,412775,DepthScenes,duration_manipulation_targetAtFixation,jsons/v1_VE1000_randls_60.json,http://54.235.29.9/FacialAge/BNav_EC2/DepthDuration/v2_depth_duration_MTurk/v2_DepthDuration_HTML.html#9,9,1561,700,1600,900,8-22-2022,7-58-11,34,depth_duration_stimuli/002875_2014-06-01_15-19-00_094959634447_rgbf000151-resize_1/002875_2014-06-01_15-19-00_094959634447_rgbf000151-resize_1-target.png,1000,1.9675,5,2650,1000,feet,jsons/v1_VE1000_randls_60.json,598741,723147,37,Woman
34,412775,DepthScenes,duration_manipulation_targetAtFixation,jsons/v1_VE1000_randls_60.json,http://54.235.29.9/FacialAge/BNav_EC2/DepthDuration/v2_depth_duration_MTurk/v2_DepthDuration_HTML.html#9,9,1561,700,1600,900,8-22-2022,7-58-11,35,depth_duration_stimuli/000642_2014-06-08_16-59-25_260595134347_rgbf000098-resize_2/000642_2014-06-08_16-59-25_260595134347_rgbf000098-resize_2-target.png,1000,2.8815,7,4499,1019,feet,jsons/v1_VE1000_randls_60.json,598741,723147,37,Woman
35,412775,DepthScenes,duration_manipulation_targetAtFixation,jsons/v1_VE1000_randls_60.json,http://54.235.29.9/FacialAge/BNav_EC2/DepthDuration/v2_depth_duration_MTurk/v2_DepthDuration_HTML.html#9,9,1561,700,1600,900,8-22-2022,7-58-11,36,depth_duration_stimuli/002425_2014-06-28_20-27-29_260595134347_rgbf000031-resize_8/002425_2014-06-28_20-27-29_260595134347_rgbf000031-resize_8-target.png,1000,3.8960000000000004,10,3712,999,feet,jsons/v1_VE1000_randls_60.json,598741,723147,37,Woman
36,412775,DepthScenes,duration_manipulation_targetAtFixation,jsons/v1_VE1000_randls_60.json,http://54.235.29.9/FacialAge/BNav_EC2/DepthDuration/v2_depth_duration_MTurk/v2_DepthDuration_HTML.html#9,9,1561,700,1600,900,8-22-2022,7-58-11,37,depth_duration_stimuli/000447_2014-06-08_16-15-46_260595134347_rgbf000130-resize_1/000447_2014-06-08_16-15-46_260595134347_rgbf000130-resize_1-target.png,1000,4.479,12,2939,1010,feet,jsons/v1_VE1000_randls_60.json,598741,723147,37,Woman
37,412775,DepthScenes,duration_manipulation_targetAtFixation,jsons/v1_VE1000_randls_60.json,http://54.235.29.9/FacialAge/BNav_EC2/DepthDuration/v2_depth_duration_MTurk/v2_DepthDuration_HTML.html#9,9,1561,700,1600,900,8-22-2022,7-58-11,38,depth_duration_stimuli/001447_2014-06-19_17-00-32_260595134347_rgbf000082-resize_5/001447_2014-06-19_17-00-32_260595134347_rgbf000082-resize_5-target.png,1000,4.13775,10,4441,997,feet,jsons/v1_VE1000_randls_60.json,598741,723147,37,Woman
38,412775,DepthScenes,duration_manipulation_targetAtFixation,jsons/v1_VE1000_randls_60.json,http://54.235.29.9/FacialAge/BNav_EC2/DepthDuration/v2_depth_duration_MTurk/v2_DepthDuration_HTML.html#9,9,1561,700,1600,900,8-22-2022,7-58-11,39,depth_duration_stimuli/002600_2014-06-24_14-27-04_094959634447_rgbf000074-resize_2/002600_2014-06-24_14-27-04_094959634447_rgbf000074-resize_2-target.png,1000,2.7575,8,3311,999,feet,jsons/v1_VE1000_randls_60.json,598741,723147,37,Woman
39,412775,DepthScenes,duration_manipulation_targetAtFixation,jsons/v1_VE1000_randls_60.json,http://54.235.29.9/FacialAge/BNav_EC2/DepthDuration/v2_depth_duration_MTurk/v2_DepthDuration_HTML.html#9,9,1561,700,1600,900,8-22-2022,7-58-11,40,depth_duration_stimuli/003228_2014-05-14_13-42-35_094959634447_rgbf000101-resize_1/003228_2014-05-14_13-42-35_094959634447_rgbf000101-resize_1-target.png,1000,1.9680000000000002,4,3732,1010,feet,jsons/v1_VE1000_randls_60.json,598741,723147,37,Woman
40,412775,DepthScenes,duration_manipulation_targetAtFixation,jsons/v1_VE1000_randls_60.json,http://54.235.29.9/FacialAge/BNav_EC2/DepthDuration/v2_depth_duration_MTurk/v2_DepthDuration_HTML.html#9,9,1561,700,1600,900,8-22-2022,7-58-11,41,depth_duration_stimuli/000506_2014-06-08_23-21-00_260595134347_rgbf000070-resize_7/000506_2014-06-08_23-21-00_260595134347_rgbf000070-resize_7-target.png,1000,4.0585,10,3870,996,feet,jsons/v1_VE1000_randls_60.json,598741,723147,37,Woman
41,412775,DepthScenes,duration_manipulation_targetAtFixation,jsons/v1_VE1000_randls_60.json,http://54.235.29.9/FacialAge/BNav_EC2/DepthDuration/v2_depth_duration_MTurk/v2_DepthDuration_HTML.html#9,9,1561,700,1600,900,8-22-2022,7-58-11,42,depth_duration_stimuli/003079_2014-06-15_15-18-20_094959634447_rgbf000152-resize_8/003079_2014-06-15_15-18-20_094959634447_rgbf000152-resize_8-target.png,1000,2.8775,15,3192,1010,feet,jsons/v1_VE1000_randls_60.json,598741,723147,37,Woman
42,412775,DepthScenes,duration_manipulation_targetAtFixation,jsons/v1_VE1000_randls_60.json,http://54.235.29.9/FacialAge/BNav_EC2/DepthDuration/v2_depth_duration_MTurk/v2_DepthDuration_HTML.html#9,9,1561,700,1600,900,8-22-2022,7-58-11,43,depth_duration_stimuli/001092_2014-06-15_17-34-58_260595134347_rgbf000171-resize_3/001092_2014-06-15_17-34-58_260595134347_rgbf000171-resize_3-target.png,1000,2.6935,8,3309,1016,feet,jsons/v1_VE1000_randls_60.json,598741,723147,37,Woman
43,412775,DepthScenes,duration_manipulation_targetAtFixation,jsons/v1_VE1000_randls_60.json,http://54.235.29.9/FacialAge/BNav_EC2/DepthDuration/v2_depth_duration_MTurk/v2_DepthDuration_HTML.html#9,9,1561,700,1600,900,8-22-2022,7-58-11,44,depth_duration_stimuli/002545_2014-06-24_13-38-53_094959634447_rgbf000080-resize_4/002545_2014-06-24_13-38-53_094959634447_rgbf000080-resize_4-target.png,1000,1.9205,8,3146,1010,feet,jsons/v1_VE1000_randls_60.json,598741,723147,37,Woman
44,412775,DepthScenes,duration_manipulation_targetAtFixation,jsons/v1_VE1000_randls_60.json,http://54.235.29.9/FacialAge/BNav_EC2/DepthDuration/v2_depth_duration_MTurk/v2_DepthDuration_HTML.html#9,9,1561,700,1600,900,8-22-2022,7-58-11,45,depth_duration_stimuli/000787_2014-06-08_22-33-53_260595134347_rgbf000175-resize_1/000787_2014-06-08_22-33-53_260595134347_rgbf000175-resize-original.jpg,1000,4.784,0,2637,1000,feet,jsons/v1_VE1000_randls_60.json,598741,723147,37,Woman
45,412775,DepthScenes,duration_manipulation_targetAtFixation,jsons/v1_VE1000_randls_60.json,http://54.235.29.9/FacialAge/BNav_EC2/DepthDuration/v2_depth_duration_MTurk/v2_DepthDuration_HTML.html#9,9,1561,700,1600,900,8-22-2022,7-58-11,46,depth_duration_stimuli/000758_2014-06-08_22-05-08_260595134347_rgbf000085-resize_0/000758_2014-06-08_22-05-08_260595134347_rgbf000085-resize_0-target.png,1000,3.3810000000000002,12,3467,999,feet,jsons/v1_VE1000_randls_60.json,598741,723147,37,Woman
46,412775,DepthScenes,duration_manipulation_targetAtFixation,jsons/v1_VE1000_randls_60.json,http://54.235.29.9/FacialAge/BNav_EC2/DepthDuration/v2_depth_duration_MTurk/v2_DepthDuration_HTML.html#9,9,1561,700,1600,900,8-22-2022,7-58-11,47,depth_duration_stimuli/000854_2014-06-09_19-43-13_260595134347_rgbf000066-resize_0/000854_2014-06-09_19-43-13_260595134347_rgbf000066-resize_0-target.png,1000,3.068,10,2630,1010,feet,jsons/v1_VE1000_randls_60.json,598741,723147,37,Woman
47,412775,DepthScenes,duration_manipulation_targetAtFixation,jsons/v1_VE1000_randls_60.json,http://54.235.29.9/FacialAge/BNav_EC2/DepthDuration/v2_depth_duration_MTurk/v2_DepthDuration_HTML.html#9,9,1561,700,1600,900,8-22-2022,7-58-11,48,depth_duration_stimuli/002153_2014-06-25_21-27-18_260595134347_rgbf000038-resize_5/002153_2014-06-25_21-27-18_260595134347_rgbf000038-resize_5-target.png,1000,2.505,7,2596,998,feet,jsons/v1_VE1000_randls_60.json,598741,723147,37,Woman
48,412775,DepthScenes,duration_manipulation_targetAtFixation,jsons/v1_VE1000_randls_60.json,http://54.235.29.9/FacialAge/BNav_EC2/DepthDuration/v2_depth_duration_MTurk/v2_DepthDuration_HTML.html#9,9,1561,700,1600,900,8-22-2022,7-58-11,49,depth_duration_stimuli/002660_2014-06-13_15-44-18_094959634447_rgbf001878-resize_2/002660_2014-06-13_15-44-18_094959634447_rgbf001878-resize_2-target.png,1000,3.576,10,3131,998,feet,jsons/v1_VE1000_randls_60.json,598741,723147,37,Woman
49,412775,DepthScenes,duration_manipulation_targetAtFixation,jsons/v1_VE1000_randls_60.json,http://54.235.29.9/FacialAge/BNav_EC2/DepthDuration/v2_depth_duration_MTurk/v2_DepthDuration_HTML.html#9,9,1561,700,1600,900,8-22-2022,7-58-11,50,depth_duration_stimuli/000522_2014-06-08_13-35-06_260595134347_rgbf000244-resize_1/000522_2014-06-08_13-35-06_260595134347_rgbf000244-resize_1-target.png,1000,2.3715,2,2711,998,feet,jsons/v1_VE1000_randls_60.json,598741,723147,37,Woman
50,412775,DepthScenes,duration_manipulation_targetAtFixation,jsons/v1_VE1000_randls_60.json,http://54.235.29.9/FacialAge/BNav_EC2/DepthDuration/v2_depth_duration_MTurk/v2_DepthDuration_HTML.html#9,9,1561,700,1600,900,8-22-2022,7-58-11,51,depth_duration_stimuli/002949_2014-06-26_15-57-42_094959634447_rgbf000079-resize_1/002949_2014-06-26_15-57-42_094959634447_rgbf000079-resize_1-target.png,1000,1.8915,3,2729,998,feet,jsons/v1_VE1000_randls_60.json,598741,723147,37,Woman
51,412775,DepthScenes,duration_manipulation_targetAtFixation,jsons/v1_VE1000_randls_60.json,http://54.235.29.9/FacialAge/BNav_EC2/DepthDuration/v2_depth_duration_MTurk/v2_DepthDuration_HTML.html#9,9,1561,700,1600,900,8-22-2022,7-58-11,52,depth_duration_stimuli/000414_2014-06-04_19-49-13_260595134347_rgbf000044-resize_0/000414_2014-06-04_19-49-13_260595134347_rgbf000044-resize_0-target.png,1000,4.329,10,2617,998,feet,jsons/v1_VE1000_randls_60.json,598741,723147,37,Woman
52,412775,DepthScenes,duration_manipulation_targetAtFixation,jsons/v1_VE1000_randls_60.json,http://54.235.29.9/FacialAge/BNav_EC2/DepthDuration/v2_depth_duration_MTurk/v2_DepthDuration_HTML.html#9,9,1561,700,1600,900,8-22-2022,7-58-11,53,depth_duration_stimuli/003129_2014-05-12_10-48-10_094959634447_rgbf000100-resize_0/003129_2014-05-12_10-48-10_094959634447_rgbf000100-resize_0-target.png,1000,4.9305,20,3175,1000,feet,jsons/v1_VE1000_randls_60.json,598741,723147,37,Woman
53,412775,DepthScenes,duration_manipulation_targetAtFixation,jsons/v1_VE1000_randls_60.json,http://54.235.29.9/FacialAge/BNav_EC2/DepthDuration/v2_depth_duration_MTurk/v2_DepthDuration_HTML.html#9,9,1561,700,1600,900,8-22-2022,7-58-11,54,depth_duration_stimuli/001175_2014-06-17_15-45-55_260595134347_rgbf000129-resize_4/001175_2014-06-17_15-45-55_260595134347_rgbf000129-resize_4-target.png,1000,4.255,25,3055,997,feet,jsons/v1_VE1000_randls_60.json,598741,723147,37,Woman
54,412775,DepthScenes,duration_manipulation_targetAtFixation,jsons/v1_VE1000_randls_60.json,http://54.235.29.9/FacialAge/BNav_EC2/DepthDuration/v2_depth_duration_MTurk/v2_DepthDuration_HTML.html#9,9,1561,700,1600,900,8-22-2022,7-58-11,55,depth_duration_stimuli/003490_2014-05-21_15-50-11_094959634447_rgbf000101-resize_3/003490_2014-05-21_15-50-11_094959634447_rgbf000101-resize_3-target.png,1000,3.6445,25,2989,1008,feet,jsons/v1_VE1000_randls_60.json,598741,723147,37,Woman
55,412775,DepthScenes,duration_manipulation_targetAtFixation,jsons/v1_VE1000_randls_60.json,http://54.235.29.9/FacialAge/BNav_EC2/DepthDuration/v2_depth_duration_MTurk/v2_DepthDuration_HTML.html#9,9,1561,700,1600,900,8-22-2022,7-58-11,56,depth_duration_stimuli/000470_2014-06-09_19-42-40_260595134347_rgbf000094-resize_1/000470_2014-06-09_19-42-40_260595134347_rgbf000094-resize_1-target.png,1000,1.831,4,3609,1000,feet,jsons/v1_VE1000_randls_60.json,598741,723147,37,Woman
56,412775,DepthScenes,duration_manipulation_targetAtFixation,jsons/v1_VE1000_randls_60.json,http://54.235.29.9/FacialAge/BNav_EC2/DepthDuration/v2_depth_duration_MTurk/v2_DepthDuration_HTML.html#9,9,1561,700,1600,900,8-22-2022,7-58-11,57,depth_duration_stimuli/000109_2014-05-14_23-41-52_260595134347_rgbf000035-resize_9/000109_2014-05-14_23-41-52_260595134347_rgbf000035-resize_9-target.png,1000,1.3545,2,2637,1009,feet,jsons/v1_VE1000_randls_60.json,598741,723147,37,Woman
57,412775,DepthScenes,duration_manipulation_targetAtFixation,jsons/v1_VE1000_randls_60.json,http://54.235.29.9/FacialAge/BNav_EC2/DepthDuration/v2_depth_duration_MTurk/v2_DepthDuration_HTML.html#9,9,1561,700,1600,900,8-22-2022,7-58-11,58,depth_duration_stimuli/002213_2014-06-28_18-37-58_260595134347_rgbf000055-resize_1/002213_2014-06-28_18-37-58_260595134347_rgbf000055-resize_1-target.png,1000,3.62,10,3163,989,feet,jsons/v1_VE1000_randls_60.json,598741,723147,37,Woman
58,412775,DepthScenes,duration_manipulation_targetAtFixation,jsons/v1_VE1000_randls_60.json,http://54.235.29.9/FacialAge/BNav_EC2/DepthDuration/v2_depth_duration_MTurk/v2_DepthDuration_HTML.html#9,9,1561,700,1600,900,8-22-2022,7-58-11,59,depth_duration_stimuli/000691_2014-06-08_13-08-50_260595134347_rgbf000132-resize_3/000691_2014-06-08_13-08-50_260595134347_rgbf000132-resize_3-target.png,1000,4.1530000000000005,10,3196,1005,feet,jsons/v1_VE1000_randls_60.json,598741,723147,37,Woman
59,412775,DepthScenes,duration_manipulation_targetAtFixation,jsons/v1_VE1000_randls_60.json,http://54.235.29.9/FacialAge/BNav_EC2/DepthDuration/v2_depth_duration_MTurk/v2_DepthDuration_HTML.html#9,9,1561,700,1600,900,8-22-2022,7-58-11,60,depth_duration_stimuli/001055_2014-06-08_18-45-35_260595134347_rgbf000111-resize_4/001055_2014-06-08_18-45-35_260595134347_rgbf000111-resize_4-target.png,1000,2.4290000000000003,6,2819,999,feet,jsons/v1_VE1000_randls_60.json,598741,723147,37,Woman
60,412775,DepthScenes,duration_manipulation_targetAtFixation,jsons/v1_VE1000_randls_60.json,http://54.235.29.9/FacialAge/BNav_EC2/DepthDuration/v2_depth_duration_MTurk/v2_DepthDuration_HTML.html#9,9,1561,700,1600,900,8-22-2022,7-58-11,61,depth_duration_stimuli/000549_2014-06-08_22-10-24_260595134347_rgbf000247-resize_3/000549_2014-06-08_22-10-24_260595134347_rgbf000247-resize_3-target.png,1000,1.841,3,2719,990,feet,jsons/v1_VE1000_randls_60.json,598741,723147,37,Woman
61,412775,DepthScenes,duration_manipulation_targetAtFixation,jsons/v1_VE1000_randls_60.json,http://54.235.29.9/FacialAge/BNav_EC2/DepthDuration/v2_depth_duration_MTurk/v2_DepthDuration_HTML.html#9,9,1561,700,1600,900,8-22-2022,7-58-11,62,depth_duration_stimuli/002788_2014-06-22_19-36-03_094959634447_rgbf000088-resize_2/002788_2014-06-22_19-36-03_094959634447_rgbf000088-resize_2-target.png,1000,1.6465,6,2628,999,feet,jsons/v1_VE1000_randls_60.json,598741,723147,37,Woman
62,412775,DepthScenes,duration_manipulation_targetAtFixation,jsons/v1_VE1000_randls_60.json,http://54.235.29.9/FacialAge/BNav_EC2/DepthDuration/v2_depth_duration_MTurk/v2_DepthDuration_HTML.html#9,9,1561,700,1600,900,8-22-2022,7-58-11,63,depth_duration_stimuli/000749_2014-06-08_21-55-06_260595134347_rgbf000070-resize_2/000749_2014-06-08_21-55-06_260595134347_rgbf000070-resize_2-target.png,1000,2.331,6,3136,1014,feet,jsons/v1_VE1000_randls_60.json,598741,723147,37,Woman
63,412775,DepthScenes,duration_manipulation_targetAtFixation,jsons/v1_VE1000_randls_60.json,http://54.235.29.9/FacialAge/BNav_EC2/DepthDuration/v2_depth_duration_MTurk/v2_DepthDuration_HTML.html#9,9,1561,700,1600,900,8-22-2022,7-58-11,64,depth_duration_stimuli/002725_2014-06-22_11-47-51_094959634447_rgbf000070-resize_1/002725_2014-06-22_11-47-51_094959634447_rgbf000070-resize_1-target.png,1000,2.195,7,5724,1006,feet,jsons/v1_VE1000_randls_60.json,598741,723147,37,Woman
64,412775,DepthScenes,duration_manipulation_targetAtFixation,jsons/v1_VE1000_randls_60.json,http://54.235.29.9/FacialAge/BNav_EC2/DepthDuration/v2_depth_duration_MTurk/v2_DepthDuration_HTML.html#9,9,1561,700,1600,900,8-22-2022,7-58-11,65,depth_duration_stimuli/002344_2014-06-28_20-06-29_260595134347_rgbf000030-resize_1/002344_2014-06-28_20-06-29_260595134347_rgbf000030-resize_1-target.png,1000,1.5795,1,2756,1000,feet,jsons/v1_VE1000_randls_60.json,598741,723147,37,Woman
65,412775,DepthScenes,duration_manipulation_targetAtFixation,jsons/v1_VE1000_randls_60.json,http://54.235.29.9/FacialAge/BNav_EC2/DepthDuration/v2_depth_duration_MTurk/v2_DepthDuration_HTML.html#9,9,1561,700,1600,900,8-22-2022,7-58-11,66,depth_duration_stimuli/001222_2014-06-17_16-24-06_260595134347_rgbf000073-resize_0/001222_2014-06-17_16-24-06_260595134347_rgbf000073-resize-original.jpg,1000,1.4385,0,3073,991,feet,jsons/v1_VE1000_randls_60.json,598741,723147,37,Woman
66,412775,DepthScenes,duration_manipulation_targetAtFixation,jsons/v1_VE1000_randls_60.json,http://54.235.29.9/FacialAge/BNav_EC2/DepthDuration/v2_depth_duration_MTurk/v2_DepthDuration_HTML.html#9,9,1561,700,1600,900,8-22-2022,7-58-11,67,depth_duration_stimuli/000906_2014-06-08_13-35-43_260595134347_rgbf000155-resize_1/000906_2014-06-08_13-35-43_260595134347_rgbf000155-resize_1-target.png,1000,2.8489999999999998,8,3106,1009,feet,jsons/v1_VE1000_randls_60.json,598741,723147,37,Woman
67,412775,DepthScenes,duration_manipulation_targetAtFixation,jsons/v1_VE1000_randls_60.json,http://54.235.29.9/FacialAge/BNav_EC2/DepthDuration/v2_depth_duration_MTurk/v2_DepthDuration_HTML.html#9,9,1561,700,1600,900,8-22-2022,7-58-11,68,depth_duration_stimuli/002805_2014-06-22_19-54-03_094959634447_rgbf000079-resize_1/002805_2014-06-22_19-54-03_094959634447_rgbf000079-resize_1-target.png,1000,3.1439999999999997,10,3469,989,feet,jsons/v1_VE1000_randls_60.json,598741,723147,37,Woman
68,412775,DepthScenes,duration_manipulation_targetAtFixation,jsons/v1_VE1000_randls_60.json,http://54.235.29.9/FacialAge/BNav_EC2/DepthDuration/v2_depth_duration_MTurk/v2_DepthDuration_HTML.html#9,9,1561,700,1600,900,8-22-2022,7-58-11,69,depth_duration_stimuli/002630_2014-06-24_14-47-50_094959634447_rgbf000055-resize_1/002630_2014-06-24_14-47-50_094959634447_rgbf000055-resize_1-target.png,1000,3.0095,12,3042,999,feet,jsons/v1_VE1000_randls_60.json,598741,723147,37,Woman
69,412775,DepthScenes,duration_manipulation_targetAtFixation,jsons/v1_VE1000_randls_60.json,http://54.235.29.9/FacialAge/BNav_EC2/DepthDuration/v2_depth_duration_MTurk/v2_DepthDuration_HTML.html#9,9,1561,700,1600,900,8-22-2022,7-58-11,70,depth_duration_stimuli/002758_2014-06-22_19-11-20_094959634447_rgbf000128-resize_1/002758_2014-06-22_19-11-20_094959634447_rgbf000128-resize_1-target.png,1000,2.555,6,3123,989,feet,jsons/v1_VE1000_randls_60.json,598741,723147,37,Woman
70,412775,DepthScenes,duration_manipulation_targetAtFixation,jsons/v1_VE1000_randls_60.json,http://54.235.29.9/FacialAge/BNav_EC2/DepthDuration/v2_depth_duration_MTurk/v2_DepthDuration_HTML.html#9,9,1561,700,1600,900,8-22-2022,7-58-11,71,depth_duration_stimuli/001417_2014-06-19_16-25-36_260595134347_rgbf000115-resize_5/001417_2014-06-19_16-25-36_260595134347_rgbf000115-resize_5-target.png,1000,4.6255,15,3252,1010,feet,jsons/v1_VE1000_randls_60.json,598741,723147,37,Woman
71,412775,DepthScenes,duration_manipulation_targetAtFixation,jsons/v1_VE1000_randls_60.json,http://54.235.29.9/FacialAge/BNav_EC2/DepthDuration/v2_depth_duration_MTurk/v2_DepthDuration_HTML.html#9,9,1561,700,1600,900,8-22-2022,7-58-11,72,depth_duration_stimuli/003081_2014-06-15_15-19-16_094959634447_rgbf000150-resize_1/003081_2014-06-15_15-19-16_094959634447_rgbf000150-resize_1-target.png,1000,3.9125,15,2842,999,feet,jsons/v1_VE1000_randls_60.json,598741,723147,37,Woman
72,412775,DepthScenes,duration_manipulation_targetAtFixation,jsons/v1_VE1000_randls_60.json,http://54.235.29.9/FacialAge/BNav_EC2/DepthDuration/v2_depth_duration_MTurk/v2_DepthDuration_HTML.html#9,9,1561,700,1600,900,8-22-2022,7-58-11,73,depth_duration_stimuli/002509_2014-06-24_13-19-22_094959634447_rgbf000077-resize_0/002509_2014-06-24_13-19-22_094959634447_rgbf000077-resize_0-target.png,1000,1.3065,4,2754,999,feet,jsons/v1_VE1000_randls_60.json,598741,723147,37,Woman
73,412775,DepthScenes,duration_manipulation_targetAtFixation,jsons/v1_VE1000_randls_60.json,http://54.235.29.9/FacialAge/BNav_EC2/DepthDuration/v2_depth_duration_MTurk/v2_DepthDuration_HTML.html#9,9,1561,700,1600,900,8-22-2022,7-58-11,74,depth_duration_stimuli/003338_2014-05-20_11-01-23_094959634447_rgbf000051-resize_6/003338_2014-05-20_11-01-23_094959634447_rgbf000051-resize_6-target.png,1000,1.693,3,2902,999,feet,jsons/v1_VE1000_randls_60.json,598741,723147,37,Woman
74,412775,DepthScenes,duration_manipulation_targetAtFixation,jsons/v1_VE1000_randls_60.json,http://54.235.29.9/FacialAge/BNav_EC2/DepthDuration/v2_depth_duration_MTurk/v2_DepthDuration_HTML.html#9,9,1561,700,1600,900,8-22-2022,7-58-11,75,depth_duration_stimuli/001449_2014-06-19_17-01-27_260595134347_rgbf000116-resize_2/001449_2014-06-19_17-01-27_260595134347_rgbf000116-resize_2-target.png,1000,3.452,5,3270,999,feet,jsons/v1_VE1000_randls_60.json,598741,723147,37,Woman
75,412775,DepthScenes,duration_manipulation_targetAtFixation,jsons/v1_VE1000_randls_60.json,http://54.235.29.9/FacialAge/BNav_EC2/DepthDuration/v2_depth_duration_MTurk/v2_DepthDuration_HTML.html#9,9,1561,700,1600,900,8-22-2022,7-58-11,76,depth_duration_stimuli/001450_2014-06-19_17-02-03_260595134347_rgbf000203-resize_4/001450_2014-06-19_17-02-03_260595134347_rgbf000203-resize_4-target.png,1000,4.0106666666667,10,3925,999,feet,jsons/v1_VE1000_randls_60.json,598741,723147,37,Woman
76,412775,DepthScenes,duration_manipulation_targetAtFixation,jsons/v1_VE1000_randls_60.json,http://54.235.29.9/FacialAge/BNav_EC2/DepthDuration/v2_depth_duration_MTurk/v2_DepthDuration_HTML.html#9,9,1561,700,1600,900,8-22-2022,7-58-11,77,depth_duration_stimuli/001810_2014-06-26_20-51-35_260595134347_rgbf000040-resize_3/001810_2014-06-26_20-51-35_260595134347_rgbf000040-resize_3-target.png,1000,2.2525,6,2693,999,feet,jsons/v1_VE1000_randls_60.json,598741,723147,37,Woman
77,412775,DepthScenes,duration_manipulation_targetAtFixation,jsons/v1_VE1000_randls_60.json,http://54.235.29.9/FacialAge/BNav_EC2/DepthDuration/v2_depth_duration_MTurk/v2_DepthDuration_HTML.html#9,9,1561,700,1600,900,8-22-2022,7-58-11,78,depth_duration_stimuli/003010_2014-06-15_12-54-35_094959634447_rgbf000112-resize_0/003010_2014-06-15_12-54-35_094959634447_rgbf000112-resize_0-target.png,1000,3.1185,12,3318,999,feet,jsons/v1_VE1000_randls_60.json,598741,723147,37,Woman
78,412775,DepthScenes,duration_manipulation_targetAtFixation,jsons/v1_VE1000_randls_60.json,http://54.235.29.9/FacialAge/BNav_EC2/DepthDuration/v2_depth_duration_MTurk/v2_DepthDuration_HTML.html#9,9,1561,700,1600,900,8-22-2022,7-58-11,79,depth_duration_stimuli/002375_2014-06-28_20-13-44_260595134347_rgbf000032-resize_1/002375_2014-06-28_20-13-44_260595134347_rgbf000032-resize_1-target.png,1000,4.0175,7,2897,1009,feet,jsons/v1_VE1000_randls_60.json,598741,723147,37,Woman
79,412775,DepthScenes,duration_manipulation_targetAtFixation,jsons/v1_VE1000_randls_60.json,http://54.235.29.9/FacialAge/BNav_EC2/DepthDuration/v2_depth_duration_MTurk/v2_DepthDuration_HTML.html#9,9,1561,700,1600,900,8-22-2022,7-58-11,80,depth_duration_stimuli/002657_2014-06-13_15-29-54_094959634447_rgbf000150-resize_1/002657_2014-06-13_15-29-54_094959634447_rgbf000150-resize_1-target.png,1000,4.919,10,3222,999,feet,jsons/v1_VE1000_randls_60.json,598741,723147,37,Woman
80,412775,DepthScenes,duration_manipulation_targetAtFixation,jsons/v1_VE1000_randls_60.json,http://54.235.29.9/FacialAge/BNav_EC2/DepthDuration/v2_depth_duration_MTurk/v2_DepthDuration_HTML.html#9,9,1561,700,1600,900,8-22-2022,7-58-11,81,depth_duration_stimuli/002118_2014-06-25_20-32-08_260595134347_rgbf000078-resize_1/002118_2014-06-25_20-32-08_260595134347_rgbf000078-resize_1-target.png,1000,2.6460000000000004,10,2842,993,feet,jsons/v1_VE1000_randls_60.json,598741,723147,37,Woman
81,412775,DepthScenes,duration_manipulation_targetAtFixation,jsons/v1_VE1000_randls_60.json,http://54.235.29.9/FacialAge/BNav_EC2/DepthDuration/v2_depth_duration_MTurk/v2_DepthDuration_HTML.html#9,9,1561,700,1600,900,8-22-2022,7-58-11,82,depth_duration_stimuli/001516_2014-06-20_16-25-09_260595134347_rgbf000076-resize_2/001516_2014-06-20_16-25-09_260595134347_rgbf000076-resize_2-target.png,1000,1.7445,9,3328,1009,feet,jsons/v1_VE1000_randls_60.json,598741,723147,37,Woman
82,412775,DepthScenes,duration_manipulation_targetAtFixation,jsons/v1_VE1000_randls_60.json,http://54.235.29.9/FacialAge/BNav_EC2/DepthDuration/v2_depth_duration_MTurk/v2_DepthDuration_HTML.html#9,9,1561,700,1600,900,8-22-2022,7-58-11,83,depth_duration_stimuli/002570_2014-06-24_13-59-54_094959634447_rgbf000059-resize_0/002570_2014-06-24_13-59-54_094959634447_rgbf000059-resize_0-target.png,1000,4.037,1,3735,989,feet,jsons/v1_VE1000_randls_60.json,598741,723147,37,Woman
83,412775,DepthScenes,duration_manipulation_targetAtFixation,jsons/v1_VE1000_randls_60.json,http://54.235.29.9/FacialAge/BNav_EC2/DepthDuration/v2_depth_duration_MTurk/v2_DepthDuration_HTML.html#9,9,1561,700,1600,900,8-22-2022,7-58-11,84,depth_duration_stimuli/002467_2014-06-28_20-38-07_260595134347_rgbf000026-resize_2/002467_2014-06-28_20-38-07_260595134347_rgbf000026-resize_2-target.png,1000,4.742,0,4969,1009,feet,jsons/v1_VE1000_randls_60.json,598741,723147,37,Woman
84,412775,DepthScenes,duration_manipulation_targetAtFixation,jsons/v1_VE1000_randls_60.json,http://54.235.29.9/FacialAge/BNav_EC2/DepthDuration/v2_depth_duration_MTurk/v2_DepthDuration_HTML.html#9,9,1561,700,1600,900,8-22-2022,7-58-11,85,depth_duration_stimuli/000917_2014-06-09_22-45-29_260595134347_rgbf000149-resize_3/000917_2014-06-09_22-45-29_260595134347_rgbf000149-resize_3-target.png,1000,4.1865,6,3372,991,feet,jsons/v1_VE1000_randls_60.json,598741,723147,37,Woman
85,412775,DepthScenes,duration_manipulation_targetAtFixation,jsons/v1_VE1000_randls_60.json,http://54.235.29.9/FacialAge/BNav_EC2/DepthDuration/v2_depth_duration_MTurk/v2_DepthDuration_HTML.html#9,9,1561,700,1600,900,8-22-2022,7-58-11,86,depth_duration_stimuli/002323_2014-06-28_20-01-54_260595134347_rgbf000051-resize_4/002323_2014-06-28_20-01-54_260595134347_rgbf000051-resize_4-target.png,1000,3.7310000000000003,10,3523,999,feet,jsons/v1_VE1000_randls_60.json,598741,723147,37,Woman
86,412775,DepthScenes,duration_manipulation_targetAtFixation,jsons/v1_VE1000_randls_60.json,http://54.235.29.9/FacialAge/BNav_EC2/DepthDuration/v2_depth_duration_MTurk/v2_DepthDuration_HTML.html#9,9,1561,700,1600,900,8-22-2022,7-58-11,87,depth_duration_stimuli/000493_2014-06-09_21-01-18_260595134347_rgbf000196-resize_3/000493_2014-06-09_21-01-18_260595134347_rgbf000196-resize_3-target.png,1000,3.44,10,4359,1006,feet,jsons/v1_VE1000_randls_60.json,598741,723147,37,Woman
87,412775,DepthScenes,duration_manipulation_targetAtFixation,jsons/v1_VE1000_randls_60.json,http://54.235.29.9/FacialAge/BNav_EC2/DepthDuration/v2_depth_duration_MTurk/v2_DepthDuration_HTML.html#9,9,1561,700,1600,900,8-22-2022,7-58-11,88,depth_duration_stimuli/000191_2014-05-12_17-07-38_260595134347_rgbf000199-resize_0/000191_2014-05-12_17-07-38_260595134347_rgbf000199-resize_0-target.png,1000,3.7995,9,3408,1008,feet,jsons/v1_VE1000_randls_60.json,598741,723147,37,Woman
88,412775,DepthScenes,duration_manipulation_targetAtFixation,jsons/v1_VE1000_randls_60.json,http://54.235.29.9/FacialAge/BNav_EC2/DepthDuration/v2_depth_duration_MTurk/v2_DepthDuration_HTML.html#9,9,1561,700,1600,900,8-22-2022,7-58-11,89,depth_duration_stimuli/000878_2014-06-08_22-52-45_260595134347_rgbf000045-resize_2/000878_2014-06-08_22-52-45_260595134347_rgbf000045-resize_2-target.png,1000,2.092,6,2487,999,feet,jsons/v1_VE1000_randls_60.json,598741,723147,37,Woman
89,412775,DepthScenes,duration_manipulation_targetAtFixation,jsons/v1_VE1000_randls_60.json,http://54.235.29.9/FacialAge/BNav_EC2/DepthDuration/v2_depth_duration_MTurk/v2_DepthDuration_HTML.html#9,9,1561,700,1600,900,8-22-2022,7-58-11,90,depth_duration_stimuli/002953_2014-06-08_17-32-18_094959634447_rgbf000059-resize_5/002953_2014-06-08_17-32-18_094959634447_rgbf000059-resize_5-target.png,1000,1.551,2,3043,990,feet,jsons/v1_VE1000_randls_60.json,598741,723147,37,Woman
90,412775,DepthScenes,duration_manipulation_targetAtFixation,jsons/v1_VE1000_randls_60.json,http://54.235.29.9/FacialAge/BNav_EC2/DepthDuration/v2_depth_duration_MTurk/v2_DepthDuration_HTML.html#9,9,1561,700,1600,900,8-22-2022,7-58-11,91,depth_duration_stimuli/002663_2014-06-13_15-50-26_094959634447_rgbf000075-resize_1/002663_2014-06-13_15-50-26_094959634447_rgbf000075-resize_1-target.png,1000,4.7495,15,3297,999,feet,jsons/v1_VE1000_randls_60.json,598741,723147,37,Woman
91,412775,DepthScenes,duration_manipulation_targetAtFixation,jsons/v1_VE1000_randls_60.json,http://54.235.29.9/FacialAge/BNav_EC2/DepthDuration/v2_depth_duration_MTurk/v2_DepthDuration_HTML.html#9,9,1561,700,1600,900,8-22-2022,7-58-11,92,depth_duration_stimuli/000409_2014-06-04_19-23-33_260595134347_rgbf000067-resize_0/000409_2014-06-04_19-23-33_260595134347_rgbf000067-resize_0-target.png,1000,3.7335,10,3268,999,feet,jsons/v1_VE1000_randls_60.json,598741,723147,37,Woman
92,412775,DepthScenes,duration_manipulation_targetAtFixation,jsons/v1_VE1000_randls_60.json,http://54.235.29.9/FacialAge/BNav_EC2/DepthDuration/v2_depth_duration_MTurk/v2_DepthDuration_HTML.html#9,9,1561,700,1600,900,8-22-2022,7-58-11,93,depth_duration_stimuli/001555_2014-06-20_17-12-10_260595134347_rgbf000065-resize_4/001555_2014-06-20_17-12-10_260595134347_rgbf000065-resize_4-target.png,1000,1.633,3,3598,999,feet,jsons/v1_VE1000_randls_60.json,598741,723147,37,Woman
93,412775,DepthScenes,duration_manipulation_targetAtFixation,jsons/v1_VE1000_randls_60.json,http://54.235.29.9/FacialAge/BNav_EC2/DepthDuration/v2_depth_duration_MTurk/v2_DepthDuration_HTML.html#9,9,1561,700,1600,900,8-22-2022,7-58-11,94,depth_duration_stimuli/000103_2014-05-14_22-01-17_260595134347_rgbf000152-resize_5/000103_2014-05-14_22-01-17_260595134347_rgbf000152-resize_5-target.png,1000,1.993,6,2821,1002,feet,jsons/v1_VE1000_randls_60.json,598741,723147,37,Woman
94,412775,DepthScenes,duration_manipulation_targetAtFixation,jsons/v1_VE1000_randls_60.json,http://54.235.29.9/FacialAge/BNav_EC2/DepthDuration/v2_depth_duration_MTurk/v2_DepthDuration_HTML.html#9,9,1561,700,1600,900,8-22-2022,7-58-11,95,depth_duration_stimuli/000788_2014-06-08_22-34-36_260595134347_rgbf000131-resize_1/000788_2014-06-08_22-34-36_260595134347_rgbf000131-resize_1-target.png,1000,3.359,10,2848,999,feet,jsons/v1_VE1000_randls_60.json,598741,723147,37,Woman
95,412775,DepthScenes,duration_manipulation_targetAtFixation,jsons/v1_VE1000_randls_60.json,http://54.235.29.9/FacialAge/BNav_EC2/DepthDuration/v2_depth_duration_MTurk/v2_DepthDuration_HTML.html#9,9,1561,700,1600,900,8-22-2022,7-58-11,96,depth_duration_stimuli/001235_2014-06-17_16-37-36_260595134347_rgbf000084-resize_4/001235_2014-06-17_16-37-36_260595134347_rgbf000084-resize_4-target.png,1000,3.6605,7,3405,996,feet,jsons/v1_VE1000_randls_60.json,598741,723147,37,Woman
96,412775,DepthScenes,duration_manipulation_targetAtFixation,jsons/v1_VE1000_randls_60.json,http://54.235.29.9/FacialAge/BNav_EC2/DepthDuration/v2_depth_duration_MTurk/v2_DepthDuration_HTML.html#9,9,1561,700,1600,900,8-22-2022,7-58-11,97,depth_duration_stimuli/002964_2014-06-08_17-46-11_094959634447_rgbf000091-resize_4/002964_2014-06-08_17-46-11_094959634447_rgbf000091-resize_4-target.png,1000,1.6909999999999998,3,2645,1000,feet,jsons/v1_VE1000_randls_60.json,598741,723147,37,Woman
97,412775,DepthScenes,duration_manipulation_targetAtFixation,jsons/v1_VE1000_randls_60.json,http://54.235.29.9/FacialAge/BNav_EC2/DepthDuration/v2_depth_duration_MTurk/v2_DepthDuration_HTML.html#9,9,1561,700,1600,900,8-22-2022,7-58-11,98,depth_duration_stimuli/002136_2014-06-25_21-18-03_260595134347_rgbf000109-resize_3/002136_2014-06-25_21-18-03_260595134347_rgbf000109-resize_3-target.png,1000,1.9569999999999999,3,2679,999,feet,jsons/v1_VE1000_randls_60.json,598741,723147,37,Woman
98,412775,DepthScenes,duration_manipulation_targetAtFixation,jsons/v1_VE1000_randls_60.json,http://54.235.29.9/FacialAge/BNav_EC2/DepthDuration/v2_depth_duration_MTurk/v2_DepthDuration_HTML.html#9,9,1561,700,1600,900,8-22-2022,7-58-11,99,depth_duration_stimuli/001540_2014-06-20_17-01-05_260595134347_rgbf000086-resize_2/001540_2014-06-20_17-01-05_260595134347_rgbf000086-resize-original.jpg,1000,1.459,0,2528,990,feet,jsons/v1_VE1000_randls_60.json,598741,723147,37,Woman
99,412775,DepthScenes,duration_manipulation_targetAtFixation,jsons/v1_VE1000_randls_60.json,http://54.235.29.9/FacialAge/BNav_EC2/DepthDuration/v2_depth_duration_MTurk/v2_DepthDuration_HTML.html#9,9,1561,700,1600,900,8-22-2022,7-58-11,100,depth_duration_stimuli/001133_2014-06-17_14-49-16_260595134347_rgbf000100-resize_0/001133_2014-06-17_14-49-16_260595134347_rgbf000100-resize_0-target.png,1000,4.2115,10,2590,1011,feet,jsons/v1_VE1000_randls_60.json,598741,723147,37,Woman
100,412775,DepthScenes,duration_manipulation_targetAtFixation,jsons/v1_VE1000_randls_60.json,http://54.235.29.9/FacialAge/BNav_EC2/DepthDuration/v2_depth_duration_MTurk/v2_DepthDuration_HTML.html#9,9,1561,700,1600,900,8-22-2022,7-58-11,101,depth_duration_stimuli/001132_2014-06-17_14-48-54_260595134347_rgbf000100-resize_2/001132_2014-06-17_14-48-54_260595134347_rgbf000100-resize_2-target.png,1000,3.753,8,3697,1000,feet,jsons/v1_VE1000_randls_60.json,598741,723147,37,Woman
101,412775,DepthScenes,duration_manipulation_targetAtFixation,jsons/v1_VE1000_randls_60.json,http://54.235.29.9/FacialAge/BNav_EC2/DepthDuration/v2_depth_duration_MTurk/v2_DepthDuration_HTML.html#9,9,1561,700,1600,900,8-22-2022,7-58-11,102,depth_duration_stimuli/000736_2014-06-08_18-24-15_260595134347_rgbf000206-resize_3/000736_2014-06-08_18-24-15_260595134347_rgbf000206-resize_3-target.png,1000,3.515,7,2959,988,feet,jsons/v1_VE1000_randls_60.json,598741,723147,37,Woman
102,412775,DepthScenes,duration_manipulation_targetAtFixation,jsons/v1_VE1000_randls_60.json,http://54.235.29.9/FacialAge/BNav_EC2/DepthDuration/v2_depth_duration_MTurk/v2_DepthDuration_HTML.html#9,9,1561,700,1600,900,8-22-2022,7-58-11,103,depth_duration_stimuli/000137_2014-05-20_17-04-49_260595134347_rgbf000120-resize_1/000137_2014-05-20_17-04-49_260595134347_rgbf000120-resize_1-target.png,1000,3.786,10,3064,1000,feet,jsons/v1_VE1000_randls_60.json,598741,723147,37,Woman
103,412775,DepthScenes,duration_manipulation_targetAtFixation,jsons/v1_VE1000_randls_60.json,http://54.235.29.9/FacialAge/BNav_EC2/DepthDuration/v2_depth_duration_MTurk/v2_DepthDuration_HTML.html#9,9,1561,700,1600,900,8-22-2022,7-58-11,104,depth_duration_stimuli/000692_2014-06-08_13-09-42_260595134347_rgbf000199-resize_2/000692_2014-06-08_13-09-42_260595134347_rgbf000199-resize_2-target.png,1000,3.661,10,4461,998,feet,jsons/v1_VE1000_randls_60.json,598741,723147,37,Woman
104,412775,DepthScenes,duration_manipulation_targetAtFixation,jsons/v1_VE1000_randls_60.json,http://54.235.29.9/FacialAge/BNav_EC2/DepthDuration/v2_depth_duration_MTurk/v2_DepthDuration_HTML.html#9,9,1561,700,1600,900,8-22-2022,7-58-11,105,depth_duration_stimuli/001094_2014-06-15_17-36-00_260595134347_rgbf000205-resize_0/001094_2014-06-15_17-36-00_260595134347_rgbf000205-resize_0-target.png,1000,4.2175,12,3133,999,feet,jsons/v1_VE1000_randls_60.json,598741,723147,37,Woman
105,412775,DepthScenes,duration_manipulation_targetAtFixation,jsons/v1_VE1000_randls_60.json,http://54.235.29.9/FacialAge/BNav_EC2/DepthDuration/v2_depth_duration_MTurk/v2_DepthDuration_HTML.html#9,9,1561,700,1600,900,8-22-2022,7-58-11,106,depth_duration_stimuli/003621_2014-05-23_18-06-08_094959634447_rgbf000101-resize_1/003621_2014-05-23_18-06-08_094959634447_rgbf000101-resize_1-target.png,1000,3.9835,12,2449,999,feet,jsons/v1_VE1000_randls_60.json,598741,723147,37,Woman
106,412775,DepthScenes,duration_manipulation_targetAtFixation,jsons/v1_VE1000_randls_60.json,http://54.235.29.9/FacialAge/BNav_EC2/DepthDuration/v2_depth_duration_MTurk/v2_DepthDuration_HTML.html#9,9,1561,700,1600,900,8-22-2022,7-58-11,107,depth_duration_stimuli/001584_2014-06-20_11-07-43_260595134347_rgbf000002-resize_1/001584_2014-06-20_11-07-43_260595134347_rgbf000002-resize_1-target.png,1000,3.53,12,2576,1009,feet,jsons/v1_VE1000_randls_60.json,598741,723147,37,Woman
107,412775,DepthScenes,duration_manipulation_targetAtFixation,jsons/v1_VE1000_randls_60.json,http://54.235.29.9/FacialAge/BNav_EC2/DepthDuration/v2_depth_duration_MTurk/v2_DepthDuration_HTML.html#9,9,1561,700,1600,900,8-22-2022,7-58-11,108,depth_duration_stimuli/002784_2014-06-22_19-26-30_094959634447_rgbf000083-resize_3/002784_2014-06-22_19-26-30_094959634447_rgbf000083-resize_3-target.png,1000,1.8046666666667,3,3795,1000,feet,jsons/v1_VE1000_randls_60.json,598741,723147,37,Woman
108,412775,DepthScenes,duration_manipulation_targetAtFixation,jsons/v1_VE1000_randls_60.json,http://54.235.29.9/FacialAge/BNav_EC2/DepthDuration/v2_depth_duration_MTurk/v2_DepthDuration_HTML.html#9,9,1561,700,1600,900,8-22-2022,7-58-11,109,depth_duration_stimuli/001100_2014-06-15_17-46-26_260595134347_rgbf000225-resize_2/001100_2014-06-15_17-46-26_260595134347_rgbf000225-resize_2-target.png,1000,2.24,2,2497,999,feet,jsons/v1_VE1000_randls_60.json,598741,723147,37,Woman
109,412775,DepthScenes,duration_manipulation_targetAtFixation,jsons/v1_VE1000_randls_60.json,http://54.235.29.9/FacialAge/BNav_EC2/DepthDuration/v2_depth_duration_MTurk/v2_DepthDuration_HTML.html#9,9,1561,700,1600,900,8-22-2022,7-58-11,110,depth_duration_stimuli/001806_2014-06-26_20-50-20_260595134347_rgbf000091-resize_1/001806_2014-06-26_20-50-20_260595134347_rgbf000091-resize_1-target.png,1000,2.7305,6,2529,1000,feet,jsons/v1_VE1000_randls_60.json,598741,723147,37,Woman
110,412775,DepthScenes,duration_manipulation_targetAtFixation,jsons/v1_VE1000_randls_60.json,http://54.235.29.9/FacialAge/BNav_EC2/DepthDuration/v2_depth_duration_MTurk/v2_DepthDuration_HTML.html#9,9,1561,700,1600,900,8-22-2022,7-58-11,111,depth_duration_stimuli/001617_2014-06-20_11-35-32_260595134347_rgbf000066-resize_1/001617_2014-06-20_11-35-32_260595134347_rgbf000066-resize_1-target.png,1000,3.7910000000000004,10,2641,1000,feet,jsons/v1_VE1000_randls_60.json,598741,723147,37,Woman
111,412775,DepthScenes,duration_manipulation_targetAtFixation,jsons/v1_VE1000_randls_60.json,http://54.235.29.9/FacialAge/BNav_EC2/DepthDuration/v2_depth_duration_MTurk/v2_DepthDuration_HTML.html#9,9,1561,700,1600,900,8-22-2022,7-58-11,112,depth_duration_stimuli/001016_2014-06-09_16-16-10_260595134347_rgbf000112-resize_5/001016_2014-06-09_16-16-10_260595134347_rgbf000112-resize_5-target.png,1000,1.6565,5,2672,1000,feet,jsons/v1_VE1000_randls_60.json,598741,723147,37,Woman
112,412775,DepthScenes,duration_manipulation_targetAtFixation,jsons/v1_VE1000_randls_60.json,http://54.235.29.9/FacialAge/BNav_EC2/DepthDuration/v2_depth_duration_MTurk/v2_DepthDuration_HTML.html#9,9,1561,700,1600,900,8-22-2022,7-58-11,113,depth_duration_stimuli/002340_2014-06-28_20-05-46_260595134347_rgbf000113-resize_0/002340_2014-06-28_20-05-46_260595134347_rgbf000113-resize_0-target.png,1000,2.4735,12,2463,1009,feet,jsons/v1_VE1000_randls_60.json,598741,723147,37,Woman
113,412775,DepthScenes,duration_manipulation_targetAtFixation,jsons/v1_VE1000_randls_60.json,http://54.235.29.9/FacialAge/BNav_EC2/DepthDuration/v2_depth_duration_MTurk/v2_DepthDuration_HTML.html#9,9,1561,700,1600,900,8-22-2022,7-58-11,114,depth_duration_stimuli/001029_2014-06-08_13-17-57_260595134347_rgbf000065-resize_1/001029_2014-06-08_13-17-57_260595134347_rgbf000065-resize_1-target.png,1000,3.0835,8,2700,1000,feet,jsons/v1_VE1000_randls_60.json,598741,723147,37,Woman
114,412775,DepthScenes,duration_manipulation_targetAtFixation,jsons/v1_VE1000_randls_60.json,http://54.235.29.9/FacialAge/BNav_EC2/DepthDuration/v2_depth_duration_MTurk/v2_DepthDuration_HTML.html#9,9,1561,700,1600,900,8-22-2022,7-58-11,115,depth_duration_stimuli/000677_2014-06-08_23-10-32_260595134347_rgbf000158-resize_6/000677_2014-06-08_23-10-32_260595134347_rgbf000158-resize_6-target.png,1000,3.556,15,3084,999,feet,jsons/v1_VE1000_randls_60.json,598741,723147,37,Woman
115,412775,DepthScenes,duration_manipulation_targetAtFixation,jsons/v1_VE1000_randls_60.json,http://54.235.29.9/FacialAge/BNav_EC2/DepthDuration/v2_depth_duration_MTurk/v2_DepthDuration_HTML.html#9,9,1561,700,1600,900,8-22-2022,7-58-11,116,depth_duration_stimuli/001170_2014-06-17_15-43-44_260595134347_rgbf000096-resize_6/001170_2014-06-17_15-43-44_260595134347_rgbf000096-resize-original.jpg,1000,1.1909999999999998,0,3575,1005,feet,jsons/v1_VE1000_randls_60.json,598741,723147,37,Woman
116,412775,DepthScenes,duration_manipulation_targetAtFixation,jsons/v1_VE1000_randls_60.json,http://54.235.29.9/FacialAge/BNav_EC2/DepthDuration/v2_depth_duration_MTurk/v2_DepthDuration_HTML.html#9,9,1561,700,1600,900,8-22-2022,7-58-11,117,depth_duration_stimuli/003070_2014-06-15_14-58-27_094959634447_rgbf000150-resize_3/003070_2014-06-15_14-58-27_094959634447_rgbf000150-resize_3-target.png,1000,2.9415,7,3324,999,feet,jsons/v1_VE1000_randls_60.json,598741,723147,37,Woman
117,412775,DepthScenes,duration_manipulation_targetAtFixation,jsons/v1_VE1000_randls_60.json,http://54.235.29.9/FacialAge/BNav_EC2/DepthDuration/v2_depth_duration_MTurk/v2_DepthDuration_HTML.html#9,9,1561,700,1600,900,8-22-2022,7-58-11,118,depth_duration_stimuli/000943_2014-06-09_19-31-07_260595134347_rgbf000128-resize_1/000943_2014-06-09_19-31-07_260595134347_rgbf000128-resize_1-target.png,1000,1.9765,5,2744,999,feet,jsons/v1_VE1000_randls_60.json,598741,723147,37,Woman
118,412775,DepthScenes,duration_manipulation_targetAtFixation,jsons/v1_VE1000_randls_60.json,http://54.235.29.9/FacialAge/BNav_EC2/DepthDuration/v2_depth_duration_MTurk/v2_DepthDuration_HTML.html#9,9,1561,700,1600,900,8-22-2022,7-58-11,119,depth_duration_stimuli/000682_2014-06-08_23-14-58_260595134347_rgbf000041-resize_5/000682_2014-06-08_23-14-58_260595134347_rgbf000041-resize_5-target.png,1000,2.7239999999999998,5,5993,999,feet,jsons/v1_VE1000_randls_60.json,598741,723147,37,Woman
119,412775,DepthScenes,duration_manipulation_targetAtFixation,jsons/v1_VE1000_randls_60.json,http://54.235.29.9/FacialAge/BNav_EC2/DepthDuration/v2_depth_duration_MTurk/v2_DepthDuration_HTML.html#9,9,1561,700,1600,900,8-22-2022,7-58-11,120,depth_duration_stimuli/001650_2014-06-20_12-09-00_260595134347_rgbf000087-resize_3/001650_2014-06-20_12-09-00_260595134347_rgbf000087-resize_3-target.png,1000,1.9505,1,3040,1005,feet,jsons/v1_VE1000_randls_60.json,598741,723147,37,Woman
120,412775,DepthScenes,duration_manipulation_targetAtFixation,jsons/v1_VE1000_randls_60.json,http://54.235.29.9/FacialAge/BNav_EC2/DepthDuration/v2_depth_duration_MTurk/v2_DepthDuration_HTML.html#9,9,1561,700,1600,900,8-22-2022,7-58-11,121,depth_duration_stimuli/000368_2014-06-09_15-53-01_260595134347_rgbf000155-resize_2/000368_2014-06-09_15-53-01_260595134347_rgbf000155-resize_2-target.png,1000,2.4859999999999998,3,2899,999,feet,jsons/v1_VE1000_randls_60.json,598741,723147,37,Woman
121,412775,DepthScenes,duration_manipulation_targetAtFixation,jsons/v1_VE1000_randls_60.json,http://54.235.29.9/FacialAge/BNav_EC2/DepthDuration/v2_depth_duration_MTurk/v2_DepthDuration_HTML.html#9,9,1561,700,1600,900,8-22-2022,7-58-11,122,depth_duration_stimuli/002678_2014-06-13_16-15-32_094959634447_rgbf000151-resize_6/002678_2014-06-13_16-15-32_094959634447_rgbf000151-resize_6-target.png,1000,2.1830000000000003,8,3394,984,feet,jsons/v1_VE1000_randls_60.json,598741,723147,37,Woman
122,412775,DepthScenes,duration_manipulation_targetAtFixation,jsons/v1_VE1000_randls_60.json,http://54.235.29.9/FacialAge/BNav_EC2/DepthDuration/v2_depth_duration_MTurk/v2_DepthDuration_HTML.html#9,9,1561,700,1600,900,8-22-2022,7-58-11,123,depth_duration_stimuli/002272_2014-06-28_18-53-56_260595134347_rgbf000067-resize_2/002272_2014-06-28_18-53-56_260595134347_rgbf000067-resize_2-target.png,1000,1.138,3,3034,1009,feet,jsons/v1_VE1000_randls_60.json,598741,723147,37,Woman
123,412775,DepthScenes,duration_manipulation_targetAtFixation,jsons/v1_VE1000_randls_60.json,http://54.235.29.9/FacialAge/BNav_EC2/DepthDuration/v2_depth_duration_MTurk/v2_DepthDuration_HTML.html#9,9,1561,700,1600,900,8-22-2022,7-58-11,124,depth_duration_stimuli/001571_2014-06-20_17-21-32_260595134347_rgbf000089-resize_1/001571_2014-06-20_17-21-32_260595134347_rgbf000089-resize_1-target.png,1000,1.86,2,2393,999,feet,jsons/v1_VE1000_randls_60.json,598741,723147,37,Woman
124,412775,DepthScenes,duration_manipulation_targetAtFixation,jsons/v1_VE1000_randls_60.json,http://54.235.29.9/FacialAge/BNav_EC2/DepthDuration/v2_depth_duration_MTurk/v2_DepthDuration_HTML.html#9,9,1561,700,1600,900,8-22-2022,7-58-11,125,depth_duration_stimuli/002988_2014-06-15_12-24-20_094959634447_rgbf000150-resize_1/002988_2014-06-15_12-24-20_094959634447_rgbf000150-resize_1-target.png,1000,4.7669999999999995,15,2773,999,feet,jsons/v1_VE1000_randls_60.json,598741,723147,37,Woman
125,412775,DepthScenes,duration_manipulation_targetAtFixation,jsons/v1_VE1000_randls_60.json,http://54.235.29.9/FacialAge/BNav_EC2/DepthDuration/v2_depth_duration_MTurk/v2_DepthDuration_HTML.html#9,9,1561,700,1600,900,8-22-2022,7-58-11,126,depth_duration_stimuli/001052_2014-06-08_18-24-54_260595134347_rgbf000130-resize_1/001052_2014-06-08_18-24-54_260595134347_rgbf000130-resize_1-target.png,1000,4.1045,20,3223,999,feet,jsons/v1_VE1000_randls_60.json,598741,723147,37,Woman
126,412775,DepthScenes,duration_manipulation_targetAtFixation,jsons/v1_VE1000_randls_60.json,http://54.235.29.9/FacialAge/BNav_EC2/DepthDuration/v2_depth_duration_MTurk/v2_DepthDuration_HTML.html#9,9,1561,700,1600,900,8-22-2022,7-58-11,127,depth_duration_stimuli/001808_2014-06-26_20-50-58_260595134347_rgbf000029-resize_1/001808_2014-06-26_20-50-58_260595134347_rgbf000029-resize_1-target.png,1000,4.249,12,2654,998,feet,jsons/v1_VE1000_randls_60.json,598741,723147,37,Woman
127,412775,DepthScenes,duration_manipulation_targetAtFixation,jsons/v1_VE1000_randls_60.json,http://54.235.29.9/FacialAge/BNav_EC2/DepthDuration/v2_depth_duration_MTurk/v2_DepthDuration_HTML.html#9,9,1561,700,1600,900,8-22-2022,7-58-11,128,depth_duration_stimuli/001815_2014-06-26_20-52-55_260595134347_rgbf000020-resize_0/001815_2014-06-26_20-52-55_260595134347_rgbf000020-resize_0-target.png,1000,3.3865,10,2666,999,feet,jsons/v1_VE1000_randls_60.json,598741,723147,37,Woman
128,412775,DepthScenes,duration_manipulation_targetAtFixation,jsons/v1_VE1000_randls_60.json,http://54.235.29.9/FacialAge/BNav_EC2/DepthDuration/v2_depth_duration_MTurk/v2_DepthDuration_HTML.html#9,9,1561,700,1600,900,8-22-2022,7-58-11,129,depth_duration_stimuli/001244_2014-06-17_16-47-45_260595134347_rgbf000030-resize_4/001244_2014-06-17_16-47-45_260595134347_rgbf000030-resize_4-target.png,1000,2.0425,8,2632,989,feet,jsons/v1_VE1000_randls_60.json,598741,723147,37,Woman
129,412775,DepthScenes,duration_manipulation_targetAtFixation,jsons/v1_VE1000_randls_60.json,http://54.235.29.9/FacialAge/BNav_EC2/DepthDuration/v2_depth_duration_MTurk/v2_DepthDuration_HTML.html#9,9,1561,700,1600,900,8-22-2022,7-58-11,130,depth_duration_stimuli/003495_2014-05-21_16-01-51_094959634447_rgbf000100-resize_3/003495_2014-05-21_16-01-51_094959634447_rgbf000100-resize_3-target.png,1000,1.6255,6,2955,1016,feet,jsons/v1_VE1000_randls_60.json,598741,723147,37,Woman
130,412775,DepthScenes,duration_manipulation_targetAtFixation,jsons/v1_VE1000_randls_60.json,http://54.235.29.9/FacialAge/BNav_EC2/DepthDuration/v2_depth_duration_MTurk/v2_DepthDuration_HTML.html#9,9,1561,700,1600,900,8-22-2022,7-58-11,131,depth_duration_stimuli/001110_2014-06-15_17-25-28_260595134347_rgbf000150-resize_1/001110_2014-06-15_17-25-28_260595134347_rgbf000150-resize_1-target.png,1000,1.7115,5,2550,999,feet,jsons/v1_VE1000_randls_60.json,598741,723147,37,Woman
131,412775,DepthScenes,duration_manipulation_targetAtFixation,jsons/v1_VE1000_randls_60.json,http://54.235.29.9/FacialAge/BNav_EC2/DepthDuration/v2_depth_duration_MTurk/v2_DepthDuration_HTML.html#9,9,1561,700,1600,900,8-22-2022,7-58-11,132,depth_duration_stimuli/000927_2014-06-09_16-32-30_260595134347_rgbf000123-resize_3/000927_2014-06-09_16-32-30_260595134347_rgbf000123-resize_3-target.png,1000,2.6785,7,2533,999,feet,jsons/v1_VE1000_randls_60.json,598741,723147,37,Woman
132,412775,DepthScenes,duration_manipulation_targetAtFixation,jsons/v1_VE1000_randls_60.json,http://54.235.29.9/FacialAge/BNav_EC2/DepthDuration/v2_depth_duration_MTurk/v2_DepthDuration_HTML.html#9,9,1561,700,1600,900,8-22-2022,7-58-11,133,depth_duration_stimuli/000436_2014-06-09_22-25-11_260595134347_rgbf000137-resize_1/000436_2014-06-09_22-25-11_260595134347_rgbf000137-resize_1-target.png,1000,4.0705,10,3805,999,feet,jsons/v1_VE1000_randls_60.json,598741,723147,37,Woman
133,412775,DepthScenes,duration_manipulation_targetAtFixation,jsons/v1_VE1000_randls_60.json,http://54.235.29.9/FacialAge/BNav_EC2/DepthDuration/v2_depth_duration_MTurk/v2_DepthDuration_HTML.html#9,9,1561,700,1600,900,8-22-2022,7-58-11,134,depth_duration_stimuli/002444_2014-06-28_20-32-08_260595134347_rgbf000027-resize_0/002444_2014-06-28_20-32-08_260595134347_rgbf000027-resize_0-target.png,1000,4.388999999999999,8,2811,1000,feet,jsons/v1_VE1000_randls_60.json,598741,723147,37,Woman
134,412775,DepthScenes,duration_manipulation_targetAtFixation,jsons/v1_VE1000_randls_60.json,http://54.235.29.9/FacialAge/BNav_EC2/DepthDuration/v2_depth_duration_MTurk/v2_DepthDuration_HTML.html#9,9,1561,700,1600,900,8-22-2022,7-58-11,135,depth_duration_stimuli/002072_2014-06-24_21-48-06_260595134347_rgbf000115-resize_0/002072_2014-06-24_21-48-06_260595134347_rgbf000115-resize-original.jpg,1000,4.702,0,2995,1004,feet,jsons/v1_VE1000_randls_60.json,598741,723147,37,Woman
135,412775,DepthScenes,duration_manipulation_targetAtFixation,jsons/v1_VE1000_randls_60.json,http://54.235.29.9/FacialAge/BNav_EC2/DepthDuration/v2_depth_duration_MTurk/v2_DepthDuration_HTML.html#9,9,1561,700,1600,900,8-22-2022,7-58-11,136,depth_duration_stimuli/000009_2014-05-26_14-32-05_260595134347_rgbf000034-resize_3/000009_2014-05-26_14-32-05_260595134347_rgbf000034-resize_3-target.png,1000,3.8715,10,2623,1018,feet,jsons/v1_VE1000_randls_60.json,598741,723147,37,Woman
136,412775,DepthScenes,duration_manipulation_targetAtFixation,jsons/v1_VE1000_randls_60.json,http://54.235.29.9/FacialAge/BNav_EC2/DepthDuration/v2_depth_duration_MTurk/v2_DepthDuration_HTML.html#9,9,1561,700,1600,900,8-22-2022,7-58-11,137,depth_duration_stimuli/001828_2014-06-26_21-40-03_260595134347_rgbf000024-resize_0/001828_2014-06-26_21-40-03_260595134347_rgbf000024-resize_0-target.png,1000,4.8260000000000005,6,3479,989,feet,jsons/v1_VE1000_randls_60.json,598741,723147,37,Woman
137,412775,DepthScenes,duration_manipulation_targetAtFixation,jsons/v1_VE1000_randls_60.json,http://54.235.29.9/FacialAge/BNav_EC2/DepthDuration/v2_depth_duration_MTurk/v2_DepthDuration_HTML.html#9,9,1561,700,1600,900,8-22-2022,7-58-11,138,depth_duration_stimuli/002905_2014-06-03_18-04-43_094959634447_rgbf000151-resize_2/002905_2014-06-03_18-04-43_094959634447_rgbf000151-resize_2-target.png,1000,2.0295,4,4828,998,feet,jsons/v1_VE1000_randls_60.json,598741,723147,37,Woman
138,412775,DepthScenes,duration_manipulation_targetAtFixation,jsons/v1_VE1000_randls_60.json,http://54.235.29.9/FacialAge/BNav_EC2/DepthDuration/v2_depth_duration_MTurk/v2_DepthDuration_HTML.html#9,9,1561,700,1600,900,8-22-2022,7-58-11,139,depth_duration_stimuli/003423_2014-05-21_10-23-26_094959634447_rgbf002665-resize_2/003423_2014-05-21_10-23-26_094959634447_rgbf002665-resize_2-target.png,1000,3.2575,10,3261,982,feet,jsons/v1_VE1000_randls_60.json,598741,723147,37,Woman
139,412775,DepthScenes,duration_manipulation_targetAtFixation,jsons/v1_VE1000_randls_60.json,http://54.235.29.9/FacialAge/BNav_EC2/DepthDuration/v2_depth_duration_MTurk/v2_DepthDuration_HTML.html#9,9,1561,700,1600,900,8-22-2022,7-58-11,140,depth_duration_stimuli/001066_2014-06-08_22-03-20_260595134347_rgbf000066-resize_4/001066_2014-06-08_22-03-20_260595134347_rgbf000066-resize_4-target.png,1000,4.2330000000000005,15,2862,1009,feet,jsons/v1_VE1000_randls_60.json,598741,723147,37,Woman
140,412775,DepthScenes,duration_manipulation_targetAtFixation,jsons/v1_VE1000_randls_60.json,http://54.235.29.9/FacialAge/BNav_EC2/DepthDuration/v2_depth_duration_MTurk/v2_DepthDuration_HTML.html#9,9,1561,700,1600,900,8-22-2022,7-58-11,141,depth_duration_stimuli/000742_2014-06-08_18-48-09_260595134347_rgbf000164-resize_4/000742_2014-06-08_18-48-09_260595134347_rgbf000164-resize_4-target.png,1000,4.632,10,2782,1010,feet,jsons/v1_VE1000_randls_60.json,598741,723147,37,Woman
141,412775,DepthScenes,duration_manipulation_targetAtFixation,jsons/v1_VE1000_randls_60.json,http://54.235.29.9/FacialAge/BNav_EC2/DepthDuration/v2_depth_duration_MTurk/v2_DepthDuration_HTML.html#9,9,1561,700,1600,900,8-22-2022,7-58-11,142,depth_duration_stimuli/002279_2014-06-28_18-55-32_260595134347_rgbf000040-resize_5/002279_2014-06-28_18-55-32_260595134347_rgbf000040-resize_5-target.png,1000,1.5043333333333,2,2630,998,feet,jsons/v1_VE1000_randls_60.json,598741,723147,37,Woman
142,412775,DepthScenes,duration_manipulation_targetAtFixation,jsons/v1_VE1000_randls_60.json,http://54.235.29.9/FacialAge/BNav_EC2/DepthDuration/v2_depth_duration_MTurk/v2_DepthDuration_HTML.html#9,9,1561,700,1600,900,8-22-2022,7-58-11,143,depth_duration_stimuli/000635_2014-06-08_16-38-42_260595134347_rgbf000106-resize_1/000635_2014-06-08_16-38-42_260595134347_rgbf000106-resize_1-target.png,1000,2.074,6,2564,1000,feet,jsons/v1_VE1000_randls_60.json,598741,723147,37,Woman
143,412775,DepthScenes,duration_manipulation_targetAtFixation,jsons/v1_VE1000_randls_60.json,http://54.235.29.9/FacialAge/BNav_EC2/DepthDuration/v2_depth_duration_MTurk/v2_DepthDuration_HTML.html#9,9,1561,700,1600,900,8-22-2022,7-58-11,144,depth_duration_stimuli/003292_2014-05-14_21-53-49_094959634447_rgbf000100-resize_2/003292_2014-05-14_21-53-49_094959634447_rgbf000100-resize_2-target.png,1000,3.4815,5,2580,1009,feet,jsons/v1_VE1000_randls_60.json,598741,723147,37,Woman
144,412775,DepthScenes,duration_manipulation_targetAtFixation,jsons/v1_VE1000_randls_60.json,http://54.235.29.9/FacialAge/BNav_EC2/DepthDuration/v2_depth_duration_MTurk/v2_DepthDuration_HTML.html#9,9,1561,700,1600,900,8-22-2022,7-58-11,145,depth_duration_stimuli/002639_2014-06-24_14-51-37_094959634447_rgbf000074-resize_4/002639_2014-06-24_14-51-37_094959634447_rgbf000074-resize_4-target.png,1000,4.0375,0,3483,1000,feet,jsons/v1_VE1000_randls_60.json,598741,723147,37,Woman
145,412775,DepthScenes,duration_manipulation_targetAtFixation,jsons/v1_VE1000_randls_60.json,http://54.235.29.9/FacialAge/BNav_EC2/DepthDuration/v2_depth_duration_MTurk/v2_DepthDuration_HTML.html#9,9,1561,700,1600,900,8-22-2022,7-58-11,146,depth_duration_stimuli/001498_2014-06-19_17-45-14_260595134347_rgbf000129-resize_4/001498_2014-06-19_17-45-14_260595134347_rgbf000129-resize-original.jpg,1000,1.4075,0,2730,990,feet,jsons/v1_VE1000_randls_60.json,598741,723147,37,Woman
146,412775,DepthScenes,duration_manipulation_targetAtFixation,jsons/v1_VE1000_randls_60.json,http://54.235.29.9/FacialAge/BNav_EC2/DepthDuration/v2_depth_duration_MTurk/v2_DepthDuration_HTML.html#9,9,1561,700,1600,900,8-22-2022,7-58-11,147,depth_duration_stimuli/001570_2014-06-20_17-21-09_260595134347_rgbf000135-resize_4/001570_2014-06-20_17-21-09_260595134347_rgbf000135-resize_4-target.png,1000,4.467,10,4073,1000,feet,jsons/v1_VE1000_randls_60.json,598741,723147,37,Woman
147,412775,DepthScenes,duration_manipulation_targetAtFixation,jsons/v1_VE1000_randls_60.json,http://54.235.29.9/FacialAge/BNav_EC2/DepthDuration/v2_depth_duration_MTurk/v2_DepthDuration_HTML.html#9,9,1561,700,1600,900,8-22-2022,7-58-11,148,depth_duration_stimuli/001392_2014-06-19_16-07-59_260595134347_rgbf000046-resize_1/001392_2014-06-19_16-07-59_260595134347_rgbf000046-resize_1-target.png,1000,4.135,15,3018,999,feet,jsons/v1_VE1000_randls_60.json,598741,723147,37,Woman
148,412775,DepthScenes,duration_manipulation_targetAtFixation,jsons/v1_VE1000_randls_60.json,http://54.235.29.9/FacialAge/BNav_EC2/DepthDuration/v2_depth_duration_MTurk/v2_DepthDuration_HTML.html#9,9,1561,700,1600,900,8-22-2022,7-58-11,149,depth_duration_stimuli/000773_2014-06-08_22-24-54_260595134347_rgbf000093-resize_1/000773_2014-06-08_22-24-54_260595134347_rgbf000093-resize_1-target.png,1000,4.973,9,3058,1010,feet,jsons/v1_VE1000_randls_60.json,598741,723147,37,Woman
149,412775,DepthScenes,duration_manipulation_targetAtFixation,jsons/v1_VE1000_randls_60.json,http://54.235.29.9/FacialAge/BNav_EC2/DepthDuration/v2_depth_duration_MTurk/v2_DepthDuration_HTML.html#9,9,1561,700,1600,900,8-22-2022,7-58-11,150,depth_duration_stimuli/002414_2014-06-28_20-24-58_260595134347_rgbf000067-resize_4/002414_2014-06-28_20-24-58_260595134347_rgbf000067-resize_4-target.png,1000,4.363,15,2815,1000,feet,jsons/v1_VE1000_randls_60.json,598741,723147,37,Woman
150,412775,DepthScenes,duration_manipulation_targetAtFixation,jsons/v1_VE1000_randls_60.json,http://54.235.29.9/FacialAge/BNav_EC2/DepthDuration/v2_depth_duration_MTurk/v2_DepthDuration_HTML.html#9,9,1561,700,1600,900,8-22-2022,7-58-11,151,depth_duration_stimuli/000469_2014-06-09_19-42-10_260595134347_rgbf000081-resize_1/000469_2014-06-09_19-42-10_260595134347_rgbf000081-resize_1-target.png,1000,1.652,3,2772,999,feet,jsons/v1_VE1000_randls_60.json,598741,723147,37,Woman
151,412775,DepthScenes,duration_manipulation_targetAtFixation,jsons/v1_VE1000_randls_60.json,http://54.235.29.9/FacialAge/BNav_EC2/DepthDuration/v2_depth_duration_MTurk/v2_DepthDuration_HTML.html#9,9,1561,700,1600,900,8-22-2022,7-58-11,152,depth_duration_stimuli/000483_2014-06-09_20-41-45_260595134347_rgbf000116-resize_4/000483_2014-06-09_20-41-45_260595134347_rgbf000116-resize_4-target.png,1000,1.337,2,2367,1009,feet,jsons/v1_VE1000_randls_60.json,598741,723147,37,Woman
152,412775,DepthScenes,duration_manipulation_targetAtFixation,jsons/v1_VE1000_randls_60.json,http://54.235.29.9/FacialAge/BNav_EC2/DepthDuration/v2_depth_duration_MTurk/v2_DepthDuration_HTML.html#9,9,1561,700,1600,900,8-22-2022,7-58-11,153,depth_duration_stimuli/001164_2014-06-17_15-35-46_260595134347_rgbf000085-resize_3/001164_2014-06-17_15-35-46_260595134347_rgbf000085-resize_3-target.png,1000,2.354,5,2643,1000,feet,jsons/v1_VE1000_randls_60.json,598741,723147,37,Woman
153,412775,DepthScenes,duration_manipulation_targetAtFixation,jsons/v1_VE1000_randls_60.json,http://54.235.29.9/FacialAge/BNav_EC2/DepthDuration/v2_depth_duration_MTurk/v2_DepthDuration_HTML.html#9,9,1561,700,1600,900,8-22-2022,7-58-11,154,depth_duration_stimuli/001136_2014-06-17_15-19-41_260595134347_rgbf000076-resize_3/001136_2014-06-17_15-19-41_260595134347_rgbf000076-resize_3-target.png,1000,1.8655,5,2531,989,feet,jsons/v1_VE1000_randls_60.json,598741,723147,37,Woman
154,412775,DepthScenes,duration_manipulation_targetAtFixation,jsons/v1_VE1000_randls_60.json,http://54.235.29.9/FacialAge/BNav_EC2/DepthDuration/v2_depth_duration_MTurk/v2_DepthDuration_HTML.html#9,9,1561,700,1600,900,8-22-2022,7-58-11,155,depth_duration_stimuli/002043_2014-06-24_20-29-38_260595134347_rgbf000039-resize_4/002043_2014-06-24_20-29-38_260595134347_rgbf000039-resize_4-target.png,1000,2.8435,7,2667,989,feet,jsons/v1_VE1000_randls_60.json,598741,723147,37,Woman
155,412775,DepthScenes,duration_manipulation_targetAtFixation,jsons/v1_VE1000_randls_60.json,http://54.235.29.9/FacialAge/BNav_EC2/DepthDuration/v2_depth_duration_MTurk/v2_DepthDuration_HTML.html#9,9,1561,700,1600,900,8-22-2022,7-58-11,156,depth_duration_stimuli/003048_2014-06-15_13-49-43_094959634447_rgbf000150-resize_1/003048_2014-06-15_13-49-43_094959634447_rgbf000150-resize_1-target.png,1000,4.0035,10,3226,990,feet,jsons/v1_VE1000_randls_60.json,598741,723147,37,Woman
156,412775,DepthScenes,duration_manipulation_targetAtFixation,jsons/v1_VE1000_randls_60.json,http://54.235.29.9/FacialAge/BNav_EC2/DepthDuration/v2_depth_duration_MTurk/v2_DepthDuration_HTML.html#9,9,1561,700,1600,900,8-22-2022,7-58-11,157,depth_duration_stimuli/000810_2014-06-08_17-20-01_260595134347_rgbf000105-resize_0/000810_2014-06-08_17-20-01_260595134347_rgbf000105-resize_0-target.png,1000,1.4865,5,2588,999,feet,jsons/v1_VE1000_randls_60.json,598741,723147,37,Woman
157,412775,DepthScenes,duration_manipulation_targetAtFixation,jsons/v1_VE1000_randls_60.json,http://54.235.29.9/FacialAge/BNav_EC2/DepthDuration/v2_depth_duration_MTurk/v2_DepthDuration_HTML.html#9,9,1561,700,1600,900,8-22-2022,7-58-11,158,depth_duration_stimuli/001214_2014-06-17_16-13-55_260595134347_rgbf000111-resize_0/001214_2014-06-17_16-13-55_260595134347_rgbf000111-resize_0-target.png,1000,2.6505,5,2564,980,feet,jsons/v1_VE1000_randls_60.json,598741,723147,37,Woman
158,412775,DepthScenes,duration_manipulation_targetAtFixation,jsons/v1_VE1000_randls_60.json,http://54.235.29.9/FacialAge/BNav_EC2/DepthDuration/v2_depth_duration_MTurk/v2_DepthDuration_HTML.html#9,9,1561,700,1600,900,8-22-2022,7-58-11,159,depth_duration_stimuli/002057_2014-06-24_21-00-13_260595134347_rgbf000120-resize_1/002057_2014-06-24_21-00-13_260595134347_rgbf000120-resize_1-target.png,1000,2.967,8,2671,989,feet,jsons/v1_VE1000_randls_60.json,598741,723147,37,Woman
159,412775,DepthScenes,duration_manipulation_targetAtFixation,jsons/v1_VE1000_randls_60.json,http://54.235.29.9/FacialAge/BNav_EC2/DepthDuration/v2_depth_duration_MTurk/v2_DepthDuration_HTML.html#9,9,1561,700,1600,900,8-22-2022,7-58-11,160,depth_duration_stimuli/000709_2014-06-08_13-51-55_260595134347_rgbf000068-resize_3/000709_2014-06-08_13-51-55_260595134347_rgbf000068-resize_3-target.png,1000,1.8030000000000002,4,2304,1000,feet,jsons/v1_VE1000_randls_60.json,598741,723147,37,Woman
160,412775,DepthScenes,duration_manipulation_targetAtFixation,jsons/v1_VE1000_randls_60.json,http://54.235.29.9/FacialAge/BNav_EC2/DepthDuration/v2_depth_duration_MTurk/v2_DepthDuration_HTML.html#9,9,1561,700,1600,900,8-22-2022,7-58-11,161,depth_duration_stimuli/000486_2014-06-09_20-47-20_260595134347_rgbf000143-resize_2/000486_2014-06-09_20-47-20_260595134347_rgbf000143-resize_2-target.png,1000,4.8325,8,3523,1000,feet,jsons/v1_VE1000_randls_60.json,598741,723147,37,Woman
161,412775,DepthScenes,duration_manipulation_targetAtFixation,jsons/v1_VE1000_randls_60.json,http://54.235.29.9/FacialAge/BNav_EC2/DepthDuration/v2_depth_duration_MTurk/v2_DepthDuration_HTML.html#9,9,1561,700,1600,900,8-22-2022,7-58-11,162,depth_duration_stimuli/003083_2014-06-15_15-21-03_094959634447_rgbf000063-resize_1/003083_2014-06-15_15-21-03_094959634447_rgbf000063-resize_1-target.png,1000,4.1405,15,4146,989,feet,jsons/v1_VE1000_randls_60.json,598741,723147,37,Woman
162,412775,DepthScenes,duration_manipulation_targetAtFixation,jsons/v1_VE1000_randls_60.json,http://54.235.29.9/FacialAge/BNav_EC2/DepthDuration/v2_depth_duration_MTurk/v2_DepthDuration_HTML.html#9,9,1561,700,1600,900,8-22-2022,7-58-11,163,depth_duration_stimuli/001059_2014-06-08_21-53-27_260595134347_rgbf000061-resize_4/001059_2014-06-08_21-53-27_260595134347_rgbf000061-resize_4-target.png,1000,2.4185,6,2509,989,feet,jsons/v1_VE1000_randls_60.json,598741,723147,37,Woman
163,412775,DepthScenes,duration_manipulation_targetAtFixation,jsons/v1_VE1000_randls_60.json,http://54.235.29.9/FacialAge/BNav_EC2/DepthDuration/v2_depth_duration_MTurk/v2_DepthDuration_HTML.html#9,9,1561,700,1600,900,8-22-2022,7-58-11,164,depth_duration_stimuli/001032_2014-06-08_13-23-17_260595134347_rgbf000021-resize_3/001032_2014-06-08_13-23-17_260595134347_rgbf000021-resize_3-target.png,1000,3.2725,8,2608,979,feet,jsons/v1_VE1000_randls_60.json,598741,723147,37,Woman
