,subjID,experimentName,versionName,sequenceName,url,selected_row,windowWidth,windowHeight,screenWidth,screenHeight,startDate,startTime,trial,stimulus,duration,actual_depth,depth_estimate,trial_RT,log_sceneDuration,unitSelection,seq_filepath,experimentTime,totalTime,age,gender
0,413923,DepthScenes,duration_manipulation_targetAtFixation,jsons/v1_VE1000_randls_74.json,http://54.235.29.9/FacialAge/BNav_EC2/DepthDuration/v2_depth_duration_MTurk/v2_DepthDuration_HTML.html#142,142,1920,1080,1920,1080,8-22-2022,9-5-40,1,depth_duration_stimuli/002630_2014-06-24_14-47-50_094959634447_rgbf000055-resize_1/002630_2014-06-24_14-47-50_094959634447_rgbf000055-resize_1-target.png,1000,3.0095,10,4561,1003,meters,jsons/v1_VE1000_randls_74.json,800340,1058822,64,Woman
1,413923,DepthScenes,duration_manipulation_targetAtFixation,jsons/v1_VE1000_randls_74.json,http://54.235.29.9/FacialAge/BNav_EC2/DepthDuration/v2_depth_duration_MTurk/v2_DepthDuration_HTML.html#142,142,1920,1080,1920,1080,8-22-2022,9-5-40,2,depth_duration_stimuli/002758_2014-06-22_19-11-20_094959634447_rgbf000128-resize_1/002758_2014-06-22_19-11-20_094959634447_rgbf000128-resize_1-target.png,1000,2.555,0,7399,1003,meters,jsons/v1_VE1000_randls_74.json,800340,1058822,64,Woman
2,413923,DepthScenes,duration_manipulation_targetAtFixation,jsons/v1_VE1000_randls_74.json,http://54.235.29.9/FacialAge/BNav_EC2/DepthDuration/v2_depth_duration_MTurk/v2_DepthDuration_HTML.html#142,142,1920,1080,1920,1080,8-22-2022,9-5-40,3,depth_duration_stimuli/000493_2014-06-09_21-01-18_260595134347_rgbf000196-resize_3/000493_2014-06-09_21-01-18_260595134347_rgbf000196-resize_3-target.png,1000,3.44,20,4772,1001,meters,jsons/v1_VE1000_randls_74.json,800340,1058822,64,Woman
3,413923,DepthScenes,duration_manipulation_targetAtFixation,jsons/v1_VE1000_randls_74.json,http://54.235.29.9/FacialAge/BNav_EC2/DepthDuration/v2_depth_duration_MTurk/v2_DepthDuration_HTML.html#142,142,1920,1080,1920,1080,8-22-2022,9-5-40,4,depth_duration_stimuli/000191_2014-05-12_17-07-38_260595134347_rgbf000199-resize_0/000191_2014-05-12_17-07-38_260595134347_rgbf000199-resize_0-target.png,1000,3.7995,30,4076,994,meters,jsons/v1_VE1000_randls_74.json,800340,1058822,64,Woman
4,413923,DepthScenes,duration_manipulation_targetAtFixation,jsons/v1_VE1000_randls_74.json,http://54.235.29.9/FacialAge/BNav_EC2/DepthDuration/v2_depth_duration_MTurk/v2_DepthDuration_HTML.html#142,142,1920,1080,1920,1080,8-22-2022,9-5-40,5,depth_duration_stimuli/003534_2014-05-22_15-06-10_094959634447_rgbf000102-resize_4/003534_2014-05-22_15-06-10_094959634447_rgbf000102-resize_4-target.png,1000,1.426,80,5838,994,meters,jsons/v1_VE1000_randls_74.json,800340,1058822,64,Woman
5,413923,DepthScenes,duration_manipulation_targetAtFixation,jsons/v1_VE1000_randls_74.json,http://54.235.29.9/FacialAge/BNav_EC2/DepthDuration/v2_depth_duration_MTurk/v2_DepthDuration_HTML.html#142,142,1920,1080,1920,1080,8-22-2022,9-5-40,6,depth_duration_stimuli/002637_2014-06-24_14-51-13_094959634447_rgbf000066-resize_4/002637_2014-06-24_14-51-13_094959634447_rgbf000066-resize_4-target.png,1000,1.9955,11,4021,1004,meters,jsons/v1_VE1000_randls_74.json,800340,1058822,64,Woman
6,413923,DepthScenes,duration_manipulation_targetAtFixation,jsons/v1_VE1000_randls_74.json,http://54.235.29.9/FacialAge/BNav_EC2/DepthDuration/v2_depth_duration_MTurk/v2_DepthDuration_HTML.html#142,142,1920,1080,1920,1080,8-22-2022,9-5-40,7,depth_duration_stimuli/000929_2014-06-09_16-33-19_260595134347_rgbf000139-resize_0/000929_2014-06-09_16-33-19_260595134347_rgbf000139-resize_0-target.png,1000,2.8680000000000003,44,3744,989,meters,jsons/v1_VE1000_randls_74.json,800340,1058822,64,Woman
7,413923,DepthScenes,duration_manipulation_targetAtFixation,jsons/v1_VE1000_randls_74.json,http://54.235.29.9/FacialAge/BNav_EC2/DepthDuration/v2_depth_duration_MTurk/v2_DepthDuration_HTML.html#142,142,1920,1080,1920,1080,8-22-2022,9-5-40,8,depth_duration_stimuli/000457_2014-06-08_16-52-43_260595134347_rgbf000199-resize_1/000457_2014-06-08_16-52-43_260595134347_rgbf000199-resize_1-target.png,1000,3.6489999999999996,55,4715,987,meters,jsons/v1_VE1000_randls_74.json,800340,1058822,64,Woman
8,413923,DepthScenes,duration_manipulation_targetAtFixation,jsons/v1_VE1000_randls_74.json,http://54.235.29.9/FacialAge/BNav_EC2/DepthDuration/v2_depth_duration_MTurk/v2_DepthDuration_HTML.html#142,142,1920,1080,1920,1080,8-22-2022,9-5-40,9,depth_duration_stimuli/002788_2014-06-22_19-36-03_094959634447_rgbf000088-resize_2/002788_2014-06-22_19-36-03_094959634447_rgbf000088-resize_2-target.png,1000,1.6465,44,4032,1069,meters,jsons/v1_VE1000_randls_74.json,800340,1058822,64,Woman
9,413923,DepthScenes,duration_manipulation_targetAtFixation,jsons/v1_VE1000_randls_74.json,http://54.235.29.9/FacialAge/BNav_EC2/DepthDuration/v2_depth_duration_MTurk/v2_DepthDuration_HTML.html#142,142,1920,1080,1920,1080,8-22-2022,9-5-40,10,depth_duration_stimuli/000749_2014-06-08_21-55-06_260595134347_rgbf000070-resize_2/000749_2014-06-08_21-55-06_260595134347_rgbf000070-resize_2-target.png,1000,2.331,42,4238,1008,meters,jsons/v1_VE1000_randls_74.json,800340,1058822,64,Woman
10,413923,DepthScenes,duration_manipulation_targetAtFixation,jsons/v1_VE1000_randls_74.json,http://54.235.29.9/FacialAge/BNav_EC2/DepthDuration/v2_depth_duration_MTurk/v2_DepthDuration_HTML.html#142,142,1920,1080,1920,1080,8-22-2022,9-5-40,11,depth_duration_stimuli/002153_2014-06-25_21-27-18_260595134347_rgbf000038-resize_5/002153_2014-06-25_21-27-18_260595134347_rgbf000038-resize_5-target.png,1000,2.505,42,4260,1028,meters,jsons/v1_VE1000_randls_74.json,800340,1058822,64,Woman
11,413923,DepthScenes,duration_manipulation_targetAtFixation,jsons/v1_VE1000_randls_74.json,http://54.235.29.9/FacialAge/BNav_EC2/DepthDuration/v2_depth_duration_MTurk/v2_DepthDuration_HTML.html#142,142,1920,1080,1920,1080,8-22-2022,9-5-40,12,depth_duration_stimuli/002660_2014-06-13_15-44-18_094959634447_rgbf001878-resize_2/002660_2014-06-13_15-44-18_094959634447_rgbf001878-resize_2-target.png,1000,3.576,65,4735,993,meters,jsons/v1_VE1000_randls_74.json,800340,1058822,64,Woman
12,413923,DepthScenes,duration_manipulation_targetAtFixation,jsons/v1_VE1000_randls_74.json,http://54.235.29.9/FacialAge/BNav_EC2/DepthDuration/v2_depth_duration_MTurk/v2_DepthDuration_HTML.html#142,142,1920,1080,1920,1080,8-22-2022,9-5-40,13,depth_duration_stimuli/000569_2014-06-09_22-51-47_260595134347_rgbf000141-resize_3/000569_2014-06-09_22-51-47_260595134347_rgbf000141-resize-original.jpg,1000,4.512,0,3580,934,meters,jsons/v1_VE1000_randls_74.json,800340,1058822,64,Woman
13,413923,DepthScenes,duration_manipulation_targetAtFixation,jsons/v1_VE1000_randls_74.json,http://54.235.29.9/FacialAge/BNav_EC2/DepthDuration/v2_depth_duration_MTurk/v2_DepthDuration_HTML.html#142,142,1920,1080,1920,1080,8-22-2022,9-5-40,14,depth_duration_stimuli/000506_2014-06-08_23-21-00_260595134347_rgbf000070-resize_7/000506_2014-06-08_23-21-00_260595134347_rgbf000070-resize_7-target.png,1000,4.0585,42,4768,1009,meters,jsons/v1_VE1000_randls_74.json,800340,1058822,64,Woman
14,413923,DepthScenes,duration_manipulation_targetAtFixation,jsons/v1_VE1000_randls_74.json,http://54.235.29.9/FacialAge/BNav_EC2/DepthDuration/v2_depth_duration_MTurk/v2_DepthDuration_HTML.html#142,142,1920,1080,1920,1080,8-22-2022,9-5-40,15,depth_duration_stimuli/003079_2014-06-15_15-18-20_094959634447_rgbf000152-resize_8/003079_2014-06-15_15-18-20_094959634447_rgbf000152-resize_8-target.png,1000,2.8775,80,5017,999,meters,jsons/v1_VE1000_randls_74.json,800340,1058822,64,Woman
15,413923,DepthScenes,duration_manipulation_targetAtFixation,jsons/v1_VE1000_randls_74.json,http://54.235.29.9/FacialAge/BNav_EC2/DepthDuration/v2_depth_duration_MTurk/v2_DepthDuration_HTML.html#142,142,1920,1080,1920,1080,8-22-2022,9-5-40,16,depth_duration_stimuli/002549_2014-06-24_13-41-39_094959634447_rgbf000022-resize_3/002549_2014-06-24_13-41-39_094959634447_rgbf000022-resize_3-target.png,1000,1.476,70,3920,992,meters,jsons/v1_VE1000_randls_74.json,800340,1058822,64,Woman
16,413923,DepthScenes,duration_manipulation_targetAtFixation,jsons/v1_VE1000_randls_74.json,http://54.235.29.9/FacialAge/BNav_EC2/DepthDuration/v2_depth_duration_MTurk/v2_DepthDuration_HTML.html#142,142,1920,1080,1920,1080,8-22-2022,9-5-40,17,depth_duration_stimuli/002750_2014-06-22_19-08-03_094959634447_rgbf000094-resize_4/002750_2014-06-22_19-08-03_094959634447_rgbf000094-resize_4-target.png,1000,2.354,70,3913,999,meters,jsons/v1_VE1000_randls_74.json,800340,1058822,64,Woman
17,413923,DepthScenes,duration_manipulation_targetAtFixation,jsons/v1_VE1000_randls_74.json,http://54.235.29.9/FacialAge/BNav_EC2/DepthDuration/v2_depth_duration_MTurk/v2_DepthDuration_HTML.html#142,142,1920,1080,1920,1080,8-22-2022,9-5-40,18,depth_duration_stimuli/002989_2014-06-15_12-25-03_094959634447_rgbf000150-resize_3/002989_2014-06-15_12-25-03_094959634447_rgbf000150-resize_3-target.png,1000,4.1975,70,6064,1003,meters,jsons/v1_VE1000_randls_74.json,800340,1058822,64,Woman
18,413923,DepthScenes,duration_manipulation_targetAtFixation,jsons/v1_VE1000_randls_74.json,http://54.235.29.9/FacialAge/BNav_EC2/DepthDuration/v2_depth_duration_MTurk/v2_DepthDuration_HTML.html#142,142,1920,1080,1920,1080,8-22-2022,9-5-40,19,depth_duration_stimuli/000866_2014-06-09_20-45-42_260595134347_rgbf000139-resize_1/000866_2014-06-09_20-45-42_260595134347_rgbf000139-resize_1-target.png,1000,3.2155,70,5749,984,meters,jsons/v1_VE1000_randls_74.json,800340,1058822,64,Woman
19,413923,DepthScenes,duration_manipulation_targetAtFixation,jsons/v1_VE1000_randls_74.json,http://54.235.29.9/FacialAge/BNav_EC2/DepthDuration/v2_depth_duration_MTurk/v2_DepthDuration_HTML.html#142,142,1920,1080,1920,1080,8-22-2022,9-5-40,20,depth_duration_stimuli/003070_2014-06-15_14-58-27_094959634447_rgbf000150-resize_3/003070_2014-06-15_14-58-27_094959634447_rgbf000150-resize_3-target.png,1000,2.9415,40,4979,989,meters,jsons/v1_VE1000_randls_74.json,800340,1058822,64,Woman
20,413923,DepthScenes,duration_manipulation_targetAtFixation,jsons/v1_VE1000_randls_74.json,http://54.235.29.9/FacialAge/BNav_EC2/DepthDuration/v2_depth_duration_MTurk/v2_DepthDuration_HTML.html#142,142,1920,1080,1920,1080,8-22-2022,9-5-40,21,depth_duration_stimuli/000943_2014-06-09_19-31-07_260595134347_rgbf000128-resize_1/000943_2014-06-09_19-31-07_260595134347_rgbf000128-resize_1-target.png,1000,1.9765,55,3957,982,meters,jsons/v1_VE1000_randls_74.json,800340,1058822,64,Woman
21,413923,DepthScenes,duration_manipulation_targetAtFixation,jsons/v1_VE1000_randls_74.json,http://54.235.29.9/FacialAge/BNav_EC2/DepthDuration/v2_depth_duration_MTurk/v2_DepthDuration_HTML.html#142,142,1920,1080,1920,1080,8-22-2022,9-5-40,22,depth_duration_stimuli/000682_2014-06-08_23-14-58_260595134347_rgbf000041-resize_5/000682_2014-06-08_23-14-58_260595134347_rgbf000041-resize_5-target.png,1000,2.7239999999999998,55,3656,1007,meters,jsons/v1_VE1000_randls_74.json,800340,1058822,64,Woman
22,413923,DepthScenes,duration_manipulation_targetAtFixation,jsons/v1_VE1000_randls_74.json,http://54.235.29.9/FacialAge/BNav_EC2/DepthDuration/v2_depth_duration_MTurk/v2_DepthDuration_HTML.html#142,142,1920,1080,1920,1080,8-22-2022,9-5-40,23,depth_duration_stimuli/001650_2014-06-20_12-09-00_260595134347_rgbf000087-resize_3/001650_2014-06-20_12-09-00_260595134347_rgbf000087-resize_3-target.png,1000,1.9505,70,4227,1012,meters,jsons/v1_VE1000_randls_74.json,800340,1058822,64,Woman
23,413923,DepthScenes,duration_manipulation_targetAtFixation,jsons/v1_VE1000_randls_74.json,http://54.235.29.9/FacialAge/BNav_EC2/DepthDuration/v2_depth_duration_MTurk/v2_DepthDuration_HTML.html#142,142,1920,1080,1920,1080,8-22-2022,9-5-40,24,depth_duration_stimuli/001417_2014-06-19_16-25-36_260595134347_rgbf000115-resize_5/001417_2014-06-19_16-25-36_260595134347_rgbf000115-resize_5-target.png,1000,4.6255,70,4145,1001,meters,jsons/v1_VE1000_randls_74.json,800340,1058822,64,Woman
24,413923,DepthScenes,duration_manipulation_targetAtFixation,jsons/v1_VE1000_randls_74.json,http://54.235.29.9/FacialAge/BNav_EC2/DepthDuration/v2_depth_duration_MTurk/v2_DepthDuration_HTML.html#142,142,1920,1080,1920,1080,8-22-2022,9-5-40,25,depth_duration_stimuli/003081_2014-06-15_15-19-16_094959634447_rgbf000150-resize_1/003081_2014-06-15_15-19-16_094959634447_rgbf000150-resize_1-target.png,1000,3.9125,80,4527,1002,meters,jsons/v1_VE1000_randls_74.json,800340,1058822,64,Woman
25,413923,DepthScenes,duration_manipulation_targetAtFixation,jsons/v1_VE1000_randls_74.json,http://54.235.29.9/FacialAge/BNav_EC2/DepthDuration/v2_depth_duration_MTurk/v2_DepthDuration_HTML.html#142,142,1920,1080,1920,1080,8-22-2022,9-5-40,26,depth_duration_stimuli/001570_2014-06-20_17-21-09_260595134347_rgbf000135-resize_4/001570_2014-06-20_17-21-09_260595134347_rgbf000135-resize_4-target.png,1000,4.467,80,4457,1033,meters,jsons/v1_VE1000_randls_74.json,800340,1058822,64,Woman
26,413923,DepthScenes,duration_manipulation_targetAtFixation,jsons/v1_VE1000_randls_74.json,http://54.235.29.9/FacialAge/BNav_EC2/DepthDuration/v2_depth_duration_MTurk/v2_DepthDuration_HTML.html#142,142,1920,1080,1920,1080,8-22-2022,9-5-40,27,depth_duration_stimuli/001392_2014-06-19_16-07-59_260595134347_rgbf000046-resize_1/001392_2014-06-19_16-07-59_260595134347_rgbf000046-resize_1-target.png,1000,4.135,75,4329,956,meters,jsons/v1_VE1000_randls_74.json,800340,1058822,64,Woman
27,413923,DepthScenes,duration_manipulation_targetAtFixation,jsons/v1_VE1000_randls_74.json,http://54.235.29.9/FacialAge/BNav_EC2/DepthDuration/v2_depth_duration_MTurk/v2_DepthDuration_HTML.html#142,142,1920,1080,1920,1080,8-22-2022,9-5-40,28,depth_duration_stimuli/003621_2014-05-23_18-06-08_094959634447_rgbf000101-resize_1/003621_2014-05-23_18-06-08_094959634447_rgbf000101-resize_1-target.png,1000,3.9835,75,5687,996,meters,jsons/v1_VE1000_randls_74.json,800340,1058822,64,Woman
28,413923,DepthScenes,duration_manipulation_targetAtFixation,jsons/v1_VE1000_randls_74.json,http://54.235.29.9/FacialAge/BNav_EC2/DepthDuration/v2_depth_duration_MTurk/v2_DepthDuration_HTML.html#142,142,1920,1080,1920,1080,8-22-2022,9-5-40,29,depth_duration_stimuli/001584_2014-06-20_11-07-43_260595134347_rgbf000002-resize_1/001584_2014-06-20_11-07-43_260595134347_rgbf000002-resize_1-target.png,1000,3.53,70,4471,1063,meters,jsons/v1_VE1000_randls_74.json,800340,1058822,64,Woman
29,413923,DepthScenes,duration_manipulation_targetAtFixation,jsons/v1_VE1000_randls_74.json,http://54.235.29.9/FacialAge/BNav_EC2/DepthDuration/v2_depth_duration_MTurk/v2_DepthDuration_HTML.html#142,142,1920,1080,1920,1080,8-22-2022,9-5-40,30,depth_duration_stimuli/000375_2014-06-08_11-17-29_260595134347_rgbf000133-resize_2/000375_2014-06-08_11-17-29_260595134347_rgbf000133-resize-original.jpg,1000,4.718,70,3867,966,meters,jsons/v1_VE1000_randls_74.json,800340,1058822,64,Woman
30,413923,DepthScenes,duration_manipulation_targetAtFixation,jsons/v1_VE1000_randls_74.json,http://54.235.29.9/FacialAge/BNav_EC2/DepthDuration/v2_depth_duration_MTurk/v2_DepthDuration_HTML.html#142,142,1920,1080,1920,1080,8-22-2022,9-5-40,31,depth_duration_stimuli/001810_2014-06-26_20-51-35_260595134347_rgbf000040-resize_3/001810_2014-06-26_20-51-35_260595134347_rgbf000040-resize_3-target.png,1000,2.2525,80,4391,989,meters,jsons/v1_VE1000_randls_74.json,800340,1058822,64,Woman
31,413923,DepthScenes,duration_manipulation_targetAtFixation,jsons/v1_VE1000_randls_74.json,http://54.235.29.9/FacialAge/BNav_EC2/DepthDuration/v2_depth_duration_MTurk/v2_DepthDuration_HTML.html#142,142,1920,1080,1920,1080,8-22-2022,9-5-40,32,depth_duration_stimuli/003010_2014-06-15_12-54-35_094959634447_rgbf000112-resize_0/003010_2014-06-15_12-54-35_094959634447_rgbf000112-resize_0-target.png,1000,3.1185,90,4398,999,meters,jsons/v1_VE1000_randls_74.json,800340,1058822,64,Woman
32,413923,DepthScenes,duration_manipulation_targetAtFixation,jsons/v1_VE1000_randls_74.json,http://54.235.29.9/FacialAge/BNav_EC2/DepthDuration/v2_depth_duration_MTurk/v2_DepthDuration_HTML.html#142,142,1920,1080,1920,1080,8-22-2022,9-5-40,33,depth_duration_stimuli/000739_2014-06-08_18-45-58_260595134347_rgbf000068-resize_1/000739_2014-06-08_18-45-58_260595134347_rgbf000068-resize_1-target.png,1000,3.534,80,4148,625,meters,jsons/v1_VE1000_randls_74.json,800340,1058822,64,Woman
33,413923,DepthScenes,duration_manipulation_targetAtFixation,jsons/v1_VE1000_randls_74.json,http://54.235.29.9/FacialAge/BNav_EC2/DepthDuration/v2_depth_duration_MTurk/v2_DepthDuration_HTML.html#142,142,1920,1080,1920,1080,8-22-2022,9-5-40,34,depth_duration_stimuli/000734_2014-06-08_17-39-11_260595134347_rgbf000128-resize_2/000734_2014-06-08_17-39-11_260595134347_rgbf000128-resize_2-target.png,1000,4.098,80,3622,1033,meters,jsons/v1_VE1000_randls_74.json,800340,1058822,64,Woman
34,413923,DepthScenes,duration_manipulation_targetAtFixation,jsons/v1_VE1000_randls_74.json,http://54.235.29.9/FacialAge/BNav_EC2/DepthDuration/v2_depth_duration_MTurk/v2_DepthDuration_HTML.html#142,142,1920,1080,1920,1080,8-22-2022,9-5-40,35,depth_duration_stimuli/002600_2014-06-24_14-27-04_094959634447_rgbf000074-resize_2/002600_2014-06-24_14-27-04_094959634447_rgbf000074-resize_2-target.png,1000,2.7575,75,3997,1001,meters,jsons/v1_VE1000_randls_74.json,800340,1058822,64,Woman
35,413923,DepthScenes,duration_manipulation_targetAtFixation,jsons/v1_VE1000_randls_74.json,http://54.235.29.9/FacialAge/BNav_EC2/DepthDuration/v2_depth_duration_MTurk/v2_DepthDuration_HTML.html#142,142,1920,1080,1920,1080,8-22-2022,9-5-40,36,depth_duration_stimuli/003228_2014-05-14_13-42-35_094959634447_rgbf000101-resize_1/003228_2014-05-14_13-42-35_094959634447_rgbf000101-resize_1-target.png,1000,1.9680000000000002,75,3735,990,meters,jsons/v1_VE1000_randls_74.json,800340,1058822,64,Woman
36,413923,DepthScenes,duration_manipulation_targetAtFixation,jsons/v1_VE1000_randls_74.json,http://54.235.29.9/FacialAge/BNav_EC2/DepthDuration/v2_depth_duration_MTurk/v2_DepthDuration_HTML.html#142,142,1920,1080,1920,1080,8-22-2022,9-5-40,37,depth_duration_stimuli/000486_2014-06-09_20-47-20_260595134347_rgbf000143-resize_2/000486_2014-06-09_20-47-20_260595134347_rgbf000143-resize_2-target.png,1000,4.8325,85,3755,989,meters,jsons/v1_VE1000_randls_74.json,800340,1058822,64,Woman
37,413923,DepthScenes,duration_manipulation_targetAtFixation,jsons/v1_VE1000_randls_74.json,http://54.235.29.9/FacialAge/BNav_EC2/DepthDuration/v2_depth_duration_MTurk/v2_DepthDuration_HTML.html#142,142,1920,1080,1920,1080,8-22-2022,9-5-40,38,depth_duration_stimuli/003083_2014-06-15_15-21-03_094959634447_rgbf000063-resize_1/003083_2014-06-15_15-21-03_094959634447_rgbf000063-resize_1-target.png,1000,4.1405,85,3884,1014,meters,jsons/v1_VE1000_randls_74.json,800340,1058822,64,Woman
38,413923,DepthScenes,duration_manipulation_targetAtFixation,jsons/v1_VE1000_randls_74.json,http://54.235.29.9/FacialAge/BNav_EC2/DepthDuration/v2_depth_duration_MTurk/v2_DepthDuration_HTML.html#142,142,1920,1080,1920,1080,8-22-2022,9-5-40,39,depth_duration_stimuli/001029_2014-06-08_13-17-57_260595134347_rgbf000065-resize_1/001029_2014-06-08_13-17-57_260595134347_rgbf000065-resize_1-target.png,1000,3.0835,75,4378,1235,meters,jsons/v1_VE1000_randls_74.json,800340,1058822,64,Woman
39,413923,DepthScenes,duration_manipulation_targetAtFixation,jsons/v1_VE1000_randls_74.json,http://54.235.29.9/FacialAge/BNav_EC2/DepthDuration/v2_depth_duration_MTurk/v2_DepthDuration_HTML.html#142,142,1920,1080,1920,1080,8-22-2022,9-5-40,40,depth_duration_stimuli/000677_2014-06-08_23-10-32_260595134347_rgbf000158-resize_6/000677_2014-06-08_23-10-32_260595134347_rgbf000158-resize_6-target.png,1000,3.556,65,4468,1007,meters,jsons/v1_VE1000_randls_74.json,800340,1058822,64,Woman
40,413923,DepthScenes,duration_manipulation_targetAtFixation,jsons/v1_VE1000_randls_74.json,http://54.235.29.9/FacialAge/BNav_EC2/DepthDuration/v2_depth_duration_MTurk/v2_DepthDuration_HTML.html#142,142,1920,1080,1920,1080,8-22-2022,9-5-40,41,depth_duration_stimuli/001066_2014-06-08_22-03-20_260595134347_rgbf000066-resize_4/001066_2014-06-08_22-03-20_260595134347_rgbf000066-resize_4-target.png,1000,4.2330000000000005,70,4188,1002,meters,jsons/v1_VE1000_randls_74.json,800340,1058822,64,Woman
41,413923,DepthScenes,duration_manipulation_targetAtFixation,jsons/v1_VE1000_randls_74.json,http://54.235.29.9/FacialAge/BNav_EC2/DepthDuration/v2_depth_duration_MTurk/v2_DepthDuration_HTML.html#142,142,1920,1080,1920,1080,8-22-2022,9-5-40,42,depth_duration_stimuli/000742_2014-06-08_18-48-09_260595134347_rgbf000164-resize_4/000742_2014-06-08_18-48-09_260595134347_rgbf000164-resize_4-target.png,1000,4.632,60,4004,995,meters,jsons/v1_VE1000_randls_74.json,800340,1058822,64,Woman
42,413923,DepthScenes,duration_manipulation_targetAtFixation,jsons/v1_VE1000_randls_74.json,http://54.235.29.9/FacialAge/BNav_EC2/DepthDuration/v2_depth_duration_MTurk/v2_DepthDuration_HTML.html#142,142,1920,1080,1920,1080,8-22-2022,9-5-40,43,depth_duration_stimuli/001175_2014-06-17_15-45-55_260595134347_rgbf000129-resize_4/001175_2014-06-17_15-45-55_260595134347_rgbf000129-resize_4-target.png,1000,4.255,80,4838,981,meters,jsons/v1_VE1000_randls_74.json,800340,1058822,64,Woman
43,413923,DepthScenes,duration_manipulation_targetAtFixation,jsons/v1_VE1000_randls_74.json,http://54.235.29.9/FacialAge/BNav_EC2/DepthDuration/v2_depth_duration_MTurk/v2_DepthDuration_HTML.html#142,142,1920,1080,1920,1080,8-22-2022,9-5-40,44,depth_duration_stimuli/003490_2014-05-21_15-50-11_094959634447_rgbf000101-resize_3/003490_2014-05-21_15-50-11_094959634447_rgbf000101-resize_3-target.png,1000,3.6445,70,4584,988,meters,jsons/v1_VE1000_randls_74.json,800340,1058822,64,Woman
44,413923,DepthScenes,duration_manipulation_targetAtFixation,jsons/v1_VE1000_randls_74.json,http://54.235.29.9/FacialAge/BNav_EC2/DepthDuration/v2_depth_duration_MTurk/v2_DepthDuration_HTML.html#142,142,1920,1080,1920,1080,8-22-2022,9-5-40,45,depth_duration_stimuli/000787_2014-06-08_22-33-53_260595134347_rgbf000175-resize_1/000787_2014-06-08_22-33-53_260595134347_rgbf000175-resize-original.jpg,1000,4.784,0,3245,986,meters,jsons/v1_VE1000_randls_74.json,800340,1058822,64,Woman
45,413923,DepthScenes,duration_manipulation_targetAtFixation,jsons/v1_VE1000_randls_74.json,http://54.235.29.9/FacialAge/BNav_EC2/DepthDuration/v2_depth_duration_MTurk/v2_DepthDuration_HTML.html#142,142,1920,1080,1920,1080,8-22-2022,9-5-40,46,depth_duration_stimuli/001150_2014-06-17_15-27-34_260595134347_rgbf000108-resize_2/001150_2014-06-17_15-27-34_260595134347_rgbf000108-resize_2-target.png,1000,4.0325,70,6588,999,meters,jsons/v1_VE1000_randls_74.json,800340,1058822,64,Woman
46,413923,DepthScenes,duration_manipulation_targetAtFixation,jsons/v1_VE1000_randls_74.json,http://54.235.29.9/FacialAge/BNav_EC2/DepthDuration/v2_depth_duration_MTurk/v2_DepthDuration_HTML.html#142,142,1920,1080,1920,1080,8-22-2022,9-5-40,47,depth_duration_stimuli/000665_2014-06-09_20-42-35_260595134347_rgbf000110-resize_1/000665_2014-06-09_20-42-35_260595134347_rgbf000110-resize_1-target.png,1000,3.057,70,4150,1033,meters,jsons/v1_VE1000_randls_74.json,800340,1058822,64,Woman
47,413923,DepthScenes,duration_manipulation_targetAtFixation,jsons/v1_VE1000_randls_74.json,http://54.235.29.9/FacialAge/BNav_EC2/DepthDuration/v2_depth_duration_MTurk/v2_DepthDuration_HTML.html#142,142,1920,1080,1920,1080,8-22-2022,9-5-40,48,depth_duration_stimuli/002057_2014-06-24_21-00-13_260595134347_rgbf000120-resize_1/002057_2014-06-24_21-00-13_260595134347_rgbf000120-resize_1-target.png,1000,2.967,50,3873,987,meters,jsons/v1_VE1000_randls_74.json,800340,1058822,64,Woman
48,413923,DepthScenes,duration_manipulation_targetAtFixation,jsons/v1_VE1000_randls_74.json,http://54.235.29.9/FacialAge/BNav_EC2/DepthDuration/v2_depth_duration_MTurk/v2_DepthDuration_HTML.html#142,142,1920,1080,1920,1080,8-22-2022,9-5-40,49,depth_duration_stimuli/000709_2014-06-08_13-51-55_260595134347_rgbf000068-resize_3/000709_2014-06-08_13-51-55_260595134347_rgbf000068-resize_3-target.png,1000,1.8030000000000002,80,3807,1011,meters,jsons/v1_VE1000_randls_74.json,800340,1058822,64,Woman
49,413923,DepthScenes,duration_manipulation_targetAtFixation,jsons/v1_VE1000_randls_74.json,http://54.235.29.9/FacialAge/BNav_EC2/DepthDuration/v2_depth_duration_MTurk/v2_DepthDuration_HTML.html#142,142,1920,1080,1920,1080,8-22-2022,9-5-40,50,depth_duration_stimuli/000736_2014-06-08_18-24-15_260595134347_rgbf000206-resize_3/000736_2014-06-08_18-24-15_260595134347_rgbf000206-resize_3-target.png,1000,3.515,85,4729,1004,meters,jsons/v1_VE1000_randls_74.json,800340,1058822,64,Woman
50,413923,DepthScenes,duration_manipulation_targetAtFixation,jsons/v1_VE1000_randls_74.json,http://54.235.29.9/FacialAge/BNav_EC2/DepthDuration/v2_depth_duration_MTurk/v2_DepthDuration_HTML.html#142,142,1920,1080,1920,1080,8-22-2022,9-5-40,51,depth_duration_stimuli/000137_2014-05-20_17-04-49_260595134347_rgbf000120-resize_1/000137_2014-05-20_17-04-49_260595134347_rgbf000120-resize_1-target.png,1000,3.786,85,3414,714,meters,jsons/v1_VE1000_randls_74.json,800340,1058822,64,Woman
51,413923,DepthScenes,duration_manipulation_targetAtFixation,jsons/v1_VE1000_randls_74.json,http://54.235.29.9/FacialAge/BNav_EC2/DepthDuration/v2_depth_duration_MTurk/v2_DepthDuration_HTML.html#142,142,1920,1080,1920,1080,8-22-2022,9-5-40,52,depth_duration_stimuli/000878_2014-06-08_22-52-45_260595134347_rgbf000045-resize_2/000878_2014-06-08_22-52-45_260595134347_rgbf000045-resize_2-target.png,1000,2.092,77,4321,1009,meters,jsons/v1_VE1000_randls_74.json,800340,1058822,64,Woman
52,413923,DepthScenes,duration_manipulation_targetAtFixation,jsons/v1_VE1000_randls_74.json,http://54.235.29.9/FacialAge/BNav_EC2/DepthDuration/v2_depth_duration_MTurk/v2_DepthDuration_HTML.html#142,142,1920,1080,1920,1080,8-22-2022,9-5-40,53,depth_duration_stimuli/002953_2014-06-08_17-32-18_094959634447_rgbf000059-resize_5/002953_2014-06-08_17-32-18_094959634447_rgbf000059-resize_5-target.png,1000,1.551,66,4306,990,meters,jsons/v1_VE1000_randls_74.json,800340,1058822,64,Woman
53,413923,DepthScenes,duration_manipulation_targetAtFixation,jsons/v1_VE1000_randls_74.json,http://54.235.29.9/FacialAge/BNav_EC2/DepthDuration/v2_depth_duration_MTurk/v2_DepthDuration_HTML.html#142,142,1920,1080,1920,1080,8-22-2022,9-5-40,54,depth_duration_stimuli/002375_2014-06-28_20-13-44_260595134347_rgbf000032-resize_1/002375_2014-06-28_20-13-44_260595134347_rgbf000032-resize_1-target.png,1000,4.0175,65,5482,990,meters,jsons/v1_VE1000_randls_74.json,800340,1058822,64,Woman
54,413923,DepthScenes,duration_manipulation_targetAtFixation,jsons/v1_VE1000_randls_74.json,http://54.235.29.9/FacialAge/BNav_EC2/DepthDuration/v2_depth_duration_MTurk/v2_DepthDuration_HTML.html#142,142,1920,1080,1920,1080,8-22-2022,9-5-40,55,depth_duration_stimuli/002657_2014-06-13_15-29-54_094959634447_rgbf000150-resize_1/002657_2014-06-13_15-29-54_094959634447_rgbf000150-resize_1-target.png,1000,4.919,70,4536,999,meters,jsons/v1_VE1000_randls_74.json,800340,1058822,64,Woman
55,413923,DepthScenes,duration_manipulation_targetAtFixation,jsons/v1_VE1000_randls_74.json,http://54.235.29.9/FacialAge/BNav_EC2/DepthDuration/v2_depth_duration_MTurk/v2_DepthDuration_HTML.html#142,142,1920,1080,1920,1080,8-22-2022,9-5-40,56,depth_duration_stimuli/001016_2014-06-09_16-16-10_260595134347_rgbf000112-resize_5/001016_2014-06-09_16-16-10_260595134347_rgbf000112-resize_5-target.png,1000,1.6565,70,3902,995,meters,jsons/v1_VE1000_randls_74.json,800340,1058822,64,Woman
56,413923,DepthScenes,duration_manipulation_targetAtFixation,jsons/v1_VE1000_randls_74.json,http://54.235.29.9/FacialAge/BNav_EC2/DepthDuration/v2_depth_duration_MTurk/v2_DepthDuration_HTML.html#142,142,1920,1080,1920,1080,8-22-2022,9-5-40,57,depth_duration_stimuli/002340_2014-06-28_20-05-46_260595134347_rgbf000113-resize_0/002340_2014-06-28_20-05-46_260595134347_rgbf000113-resize_0-target.png,1000,2.4735,88,3865,994,meters,jsons/v1_VE1000_randls_74.json,800340,1058822,64,Woman
57,413923,DepthScenes,duration_manipulation_targetAtFixation,jsons/v1_VE1000_randls_74.json,http://54.235.29.9/FacialAge/BNav_EC2/DepthDuration/v2_depth_duration_MTurk/v2_DepthDuration_HTML.html#142,142,1920,1080,1920,1080,8-22-2022,9-5-40,58,depth_duration_stimuli/001011_2014-06-08_23-18-54_260595134347_rgbf000044-resize_4/001011_2014-06-08_23-18-54_260595134347_rgbf000044-resize_4-target.png,1000,2.4730000000000003,88,3771,1011,meters,jsons/v1_VE1000_randls_74.json,800340,1058822,64,Woman
58,413923,DepthScenes,duration_manipulation_targetAtFixation,jsons/v1_VE1000_randls_74.json,http://54.235.29.9/FacialAge/BNav_EC2/DepthDuration/v2_depth_duration_MTurk/v2_DepthDuration_HTML.html#142,142,1920,1080,1920,1080,8-22-2022,9-5-40,59,depth_duration_stimuli/002875_2014-06-01_15-19-00_094959634447_rgbf000151-resize_1/002875_2014-06-01_15-19-00_094959634447_rgbf000151-resize_1-target.png,1000,1.9675,55,3386,1005,meters,jsons/v1_VE1000_randls_74.json,800340,1058822,64,Woman
59,413923,DepthScenes,duration_manipulation_targetAtFixation,jsons/v1_VE1000_randls_74.json,http://54.235.29.9/FacialAge/BNav_EC2/DepthDuration/v2_depth_duration_MTurk/v2_DepthDuration_HTML.html#142,142,1920,1080,1920,1080,8-22-2022,9-5-40,60,depth_duration_stimuli/000758_2014-06-08_22-05-08_260595134347_rgbf000085-resize_0/000758_2014-06-08_22-05-08_260595134347_rgbf000085-resize_0-target.png,1000,3.3810000000000002,77,4151,996,meters,jsons/v1_VE1000_randls_74.json,800340,1058822,64,Woman
60,413923,DepthScenes,duration_manipulation_targetAtFixation,jsons/v1_VE1000_randls_74.json,http://54.235.29.9/FacialAge/BNav_EC2/DepthDuration/v2_depth_duration_MTurk/v2_DepthDuration_HTML.html#142,142,1920,1080,1920,1080,8-22-2022,9-5-40,61,depth_duration_stimuli/000854_2014-06-09_19-43-13_260595134347_rgbf000066-resize_0/000854_2014-06-09_19-43-13_260595134347_rgbf000066-resize_0-target.png,1000,3.068,66,3574,990,meters,jsons/v1_VE1000_randls_74.json,800340,1058822,64,Woman
61,413923,DepthScenes,duration_manipulation_targetAtFixation,jsons/v1_VE1000_randls_74.json,http://54.235.29.9/FacialAge/BNav_EC2/DepthDuration/v2_depth_duration_MTurk/v2_DepthDuration_HTML.html#142,142,1920,1080,1920,1080,8-22-2022,9-5-40,62,depth_duration_stimuli/001199_2014-06-17_16-03-48_260595134347_rgbf000077-resize_0/001199_2014-06-17_16-03-48_260595134347_rgbf000077-resize_0-target.png,1000,3.4375,55,4070,940,meters,jsons/v1_VE1000_randls_74.json,800340,1058822,64,Woman
62,413923,DepthScenes,duration_manipulation_targetAtFixation,jsons/v1_VE1000_randls_74.json,http://54.235.29.9/FacialAge/BNav_EC2/DepthDuration/v2_depth_duration_MTurk/v2_DepthDuration_HTML.html#142,142,1920,1080,1920,1080,8-22-2022,9-5-40,63,depth_duration_stimuli/000502_2014-06-08_23-02-32_260595134347_rgbf000063-resize_4/000502_2014-06-08_23-02-32_260595134347_rgbf000063-resize_4-target.png,1000,2.431,77,4030,1005,meters,jsons/v1_VE1000_randls_74.json,800340,1058822,64,Woman
63,413923,DepthScenes,duration_manipulation_targetAtFixation,jsons/v1_VE1000_randls_74.json,http://54.235.29.9/FacialAge/BNav_EC2/DepthDuration/v2_depth_duration_MTurk/v2_DepthDuration_HTML.html#142,142,1920,1080,1920,1080,8-22-2022,9-5-40,64,depth_duration_stimuli/001806_2014-06-26_20-50-20_260595134347_rgbf000091-resize_1/001806_2014-06-26_20-50-20_260595134347_rgbf000091-resize_1-target.png,1000,2.7305,77,3784,989,meters,jsons/v1_VE1000_randls_74.json,800340,1058822,64,Woman
64,413923,DepthScenes,duration_manipulation_targetAtFixation,jsons/v1_VE1000_randls_74.json,http://54.235.29.9/FacialAge/BNav_EC2/DepthDuration/v2_depth_duration_MTurk/v2_DepthDuration_HTML.html#142,142,1920,1080,1920,1080,8-22-2022,9-5-40,65,depth_duration_stimuli/001617_2014-06-20_11-35-32_260595134347_rgbf000066-resize_1/001617_2014-06-20_11-35-32_260595134347_rgbf000066-resize_1-target.png,1000,3.7910000000000004,55,3524,984,meters,jsons/v1_VE1000_randls_74.json,800340,1058822,64,Woman
65,413923,DepthScenes,duration_manipulation_targetAtFixation,jsons/v1_VE1000_randls_74.json,http://54.235.29.9/FacialAge/BNav_EC2/DepthDuration/v2_depth_duration_MTurk/v2_DepthDuration_HTML.html#142,142,1920,1080,1920,1080,8-22-2022,9-5-40,66,depth_duration_stimuli/001222_2014-06-17_16-24-06_260595134347_rgbf000073-resize_0/001222_2014-06-17_16-24-06_260595134347_rgbf000073-resize-original.jpg,1000,1.4385,66,4186,1006,meters,jsons/v1_VE1000_randls_74.json,800340,1058822,64,Woman
66,413923,DepthScenes,duration_manipulation_targetAtFixation,jsons/v1_VE1000_randls_74.json,http://54.235.29.9/FacialAge/BNav_EC2/DepthDuration/v2_depth_duration_MTurk/v2_DepthDuration_HTML.html#142,142,1920,1080,1920,1080,8-22-2022,9-5-40,67,depth_duration_stimuli/001167_2014-06-17_15-38-07_260595134347_rgbf000108-resize_0/001167_2014-06-17_15-38-07_260595134347_rgbf000108-resize_0-target.png,1000,1.8505,55,3781,1001,meters,jsons/v1_VE1000_randls_74.json,800340,1058822,64,Woman
67,413923,DepthScenes,duration_manipulation_targetAtFixation,jsons/v1_VE1000_randls_74.json,http://54.235.29.9/FacialAge/BNav_EC2/DepthDuration/v2_depth_duration_MTurk/v2_DepthDuration_HTML.html#142,142,1920,1080,1920,1080,8-22-2022,9-5-40,68,depth_duration_stimuli/003587_2014-05-23_16-48-02_094959634447_rgbf002384-resize_2/003587_2014-05-23_16-48-02_094959634447_rgbf002384-resize_2-target.png,1000,1.357,0,4080,997,meters,jsons/v1_VE1000_randls_74.json,800340,1058822,64,Woman
68,413923,DepthScenes,duration_manipulation_targetAtFixation,jsons/v1_VE1000_randls_74.json,http://54.235.29.9/FacialAge/BNav_EC2/DepthDuration/v2_depth_duration_MTurk/v2_DepthDuration_HTML.html#142,142,1920,1080,1920,1080,8-22-2022,9-5-40,69,depth_duration_stimuli/002663_2014-06-13_15-50-26_094959634447_rgbf000075-resize_1/002663_2014-06-13_15-50-26_094959634447_rgbf000075-resize_1-target.png,1000,4.7495,77,3779,976,meters,jsons/v1_VE1000_randls_74.json,800340,1058822,64,Woman
69,413923,DepthScenes,duration_manipulation_targetAtFixation,jsons/v1_VE1000_randls_74.json,http://54.235.29.9/FacialAge/BNav_EC2/DepthDuration/v2_depth_duration_MTurk/v2_DepthDuration_HTML.html#142,142,1920,1080,1920,1080,8-22-2022,9-5-40,70,depth_duration_stimuli/000409_2014-06-04_19-23-33_260595134347_rgbf000067-resize_0/000409_2014-06-04_19-23-33_260595134347_rgbf000067-resize_0-target.png,1000,3.7335,88,5292,1004,meters,jsons/v1_VE1000_randls_74.json,800340,1058822,64,Woman
70,413923,DepthScenes,duration_manipulation_targetAtFixation,jsons/v1_VE1000_randls_74.json,http://54.235.29.9/FacialAge/BNav_EC2/DepthDuration/v2_depth_duration_MTurk/v2_DepthDuration_HTML.html#142,142,1920,1080,1920,1080,8-22-2022,9-5-40,71,depth_duration_stimuli/002043_2014-06-24_20-29-38_260595134347_rgbf000039-resize_4/002043_2014-06-24_20-29-38_260595134347_rgbf000039-resize_4-target.png,1000,2.8435,75,3927,1011,meters,jsons/v1_VE1000_randls_74.json,800340,1058822,64,Woman
71,413923,DepthScenes,duration_manipulation_targetAtFixation,jsons/v1_VE1000_randls_74.json,http://54.235.29.9/FacialAge/BNav_EC2/DepthDuration/v2_depth_duration_MTurk/v2_DepthDuration_HTML.html#142,142,1920,1080,1920,1080,8-22-2022,9-5-40,72,depth_duration_stimuli/003048_2014-06-15_13-49-43_094959634447_rgbf000150-resize_1/003048_2014-06-15_13-49-43_094959634447_rgbf000150-resize_1-target.png,1000,4.0035,66,4039,992,meters,jsons/v1_VE1000_randls_74.json,800340,1058822,64,Woman
72,413923,DepthScenes,duration_manipulation_targetAtFixation,jsons/v1_VE1000_randls_74.json,http://54.235.29.9/FacialAge/BNav_EC2/DepthDuration/v2_depth_duration_MTurk/v2_DepthDuration_HTML.html#142,142,1920,1080,1920,1080,8-22-2022,9-5-40,73,depth_duration_stimuli/002272_2014-06-28_18-53-56_260595134347_rgbf000067-resize_2/002272_2014-06-28_18-53-56_260595134347_rgbf000067-resize_2-target.png,1000,1.138,55,3675,1124,meters,jsons/v1_VE1000_randls_74.json,800340,1058822,64,Woman
73,413923,DepthScenes,duration_manipulation_targetAtFixation,jsons/v1_VE1000_randls_74.json,http://54.235.29.9/FacialAge/BNav_EC2/DepthDuration/v2_depth_duration_MTurk/v2_DepthDuration_HTML.html#142,142,1920,1080,1920,1080,8-22-2022,9-5-40,74,depth_duration_stimuli/001571_2014-06-20_17-21-32_260595134347_rgbf000089-resize_1/001571_2014-06-20_17-21-32_260595134347_rgbf000089-resize_1-target.png,1000,1.86,55,3738,998,meters,jsons/v1_VE1000_randls_74.json,800340,1058822,64,Woman
74,413923,DepthScenes,duration_manipulation_targetAtFixation,jsons/v1_VE1000_randls_74.json,http://54.235.29.9/FacialAge/BNav_EC2/DepthDuration/v2_depth_duration_MTurk/v2_DepthDuration_HTML.html#142,142,1920,1080,1920,1080,8-22-2022,9-5-40,75,depth_duration_stimuli/002748_2014-06-22_19-07-22_094959634447_rgbf000078-resize_1/002748_2014-06-22_19-07-22_094959634447_rgbf000078-resize_1-target.png,1000,4.6705,66,3686,997,meters,jsons/v1_VE1000_randls_74.json,800340,1058822,64,Woman
75,413923,DepthScenes,duration_manipulation_targetAtFixation,jsons/v1_VE1000_randls_74.json,http://54.235.29.9/FacialAge/BNav_EC2/DepthDuration/v2_depth_duration_MTurk/v2_DepthDuration_HTML.html#142,142,1920,1080,1920,1080,8-22-2022,9-5-40,76,depth_duration_stimuli/002995_2014-06-15_12-31-26_094959634447_rgbf000150-resize_1/002995_2014-06-15_12-31-26_094959634447_rgbf000150-resize_1-target.png,1000,3.8360000000000003,55,3304,995,meters,jsons/v1_VE1000_randls_74.json,800340,1058822,64,Woman
76,413923,DepthScenes,duration_manipulation_targetAtFixation,jsons/v1_VE1000_randls_74.json,http://54.235.29.9/FacialAge/BNav_EC2/DepthDuration/v2_depth_duration_MTurk/v2_DepthDuration_HTML.html#142,142,1920,1080,1920,1080,8-22-2022,9-5-40,77,depth_duration_stimuli/002509_2014-06-24_13-19-22_094959634447_rgbf000077-resize_0/002509_2014-06-24_13-19-22_094959634447_rgbf000077-resize_0-target.png,1000,1.3065,66,3571,993,meters,jsons/v1_VE1000_randls_74.json,800340,1058822,64,Woman
77,413923,DepthScenes,duration_manipulation_targetAtFixation,jsons/v1_VE1000_randls_74.json,http://54.235.29.9/FacialAge/BNav_EC2/DepthDuration/v2_depth_duration_MTurk/v2_DepthDuration_HTML.html#142,142,1920,1080,1920,1080,8-22-2022,9-5-40,78,depth_duration_stimuli/003338_2014-05-20_11-01-23_094959634447_rgbf000051-resize_6/003338_2014-05-20_11-01-23_094959634447_rgbf000051-resize_6-target.png,1000,1.693,55,4013,781,meters,jsons/v1_VE1000_randls_74.json,800340,1058822,64,Woman
78,413923,DepthScenes,duration_manipulation_targetAtFixation,jsons/v1_VE1000_randls_74.json,http://54.235.29.9/FacialAge/BNav_EC2/DepthDuration/v2_depth_duration_MTurk/v2_DepthDuration_HTML.html#142,142,1920,1080,1920,1080,8-22-2022,9-5-40,79,depth_duration_stimuli/002039_2014-06-24_20-22-38_260595134347_rgbf000084-resize_1/002039_2014-06-24_20-22-38_260595134347_rgbf000084-resize_1-target.png,1000,4.408,75,5093,1040,meters,jsons/v1_VE1000_randls_74.json,800340,1058822,64,Woman
79,413923,DepthScenes,duration_manipulation_targetAtFixation,jsons/v1_VE1000_randls_74.json,http://54.235.29.9/FacialAge/BNav_EC2/DepthDuration/v2_depth_duration_MTurk/v2_DepthDuration_HTML.html#142,142,1920,1080,1920,1080,8-22-2022,9-5-40,80,depth_duration_stimuli/002103_2014-06-25_20-00-40_260595134347_rgbf000049-resize_0/002103_2014-06-25_20-00-40_260595134347_rgbf000049-resize_0-target.png,1000,4.105,77,4016,1020,meters,jsons/v1_VE1000_randls_74.json,800340,1058822,64,Woman
80,413923,DepthScenes,duration_manipulation_targetAtFixation,jsons/v1_VE1000_randls_74.json,http://54.235.29.9/FacialAge/BNav_EC2/DepthDuration/v2_depth_duration_MTurk/v2_DepthDuration_HTML.html#142,142,1920,1080,1920,1080,8-22-2022,9-5-40,81,depth_duration_stimuli/001110_2014-06-15_17-25-28_260595134347_rgbf000150-resize_1/001110_2014-06-15_17-25-28_260595134347_rgbf000150-resize_1-target.png,1000,1.7115,77,4038,987,meters,jsons/v1_VE1000_randls_74.json,800340,1058822,64,Woman
81,413923,DepthScenes,duration_manipulation_targetAtFixation,jsons/v1_VE1000_randls_74.json,http://54.235.29.9/FacialAge/BNav_EC2/DepthDuration/v2_depth_duration_MTurk/v2_DepthDuration_HTML.html#142,142,1920,1080,1920,1080,8-22-2022,9-5-40,82,depth_duration_stimuli/000927_2014-06-09_16-32-30_260595134347_rgbf000123-resize_3/000927_2014-06-09_16-32-30_260595134347_rgbf000123-resize_3-target.png,1000,2.6785,45,3866,911,meters,jsons/v1_VE1000_randls_74.json,800340,1058822,64,Woman
82,413923,DepthScenes,duration_manipulation_targetAtFixation,jsons/v1_VE1000_randls_74.json,http://54.235.29.9/FacialAge/BNav_EC2/DepthDuration/v2_depth_duration_MTurk/v2_DepthDuration_HTML.html#142,142,1920,1080,1920,1080,8-22-2022,9-5-40,83,depth_duration_stimuli/000906_2014-06-08_13-35-43_260595134347_rgbf000155-resize_1/000906_2014-06-08_13-35-43_260595134347_rgbf000155-resize_1-target.png,1000,2.8489999999999998,45,4005,1005,meters,jsons/v1_VE1000_randls_74.json,800340,1058822,64,Woman
83,413923,DepthScenes,duration_manipulation_targetAtFixation,jsons/v1_VE1000_randls_74.json,http://54.235.29.9/FacialAge/BNav_EC2/DepthDuration/v2_depth_duration_MTurk/v2_DepthDuration_HTML.html#142,142,1920,1080,1920,1080,8-22-2022,9-5-40,84,depth_duration_stimuli/002805_2014-06-22_19-54-03_094959634447_rgbf000079-resize_1/002805_2014-06-22_19-54-03_094959634447_rgbf000079-resize_1-target.png,1000,3.1439999999999997,55,3880,1238,meters,jsons/v1_VE1000_randls_74.json,800340,1058822,64,Woman
84,413923,DepthScenes,duration_manipulation_targetAtFixation,jsons/v1_VE1000_randls_74.json,http://54.235.29.9/FacialAge/BNav_EC2/DepthDuration/v2_depth_duration_MTurk/v2_DepthDuration_HTML.html#142,142,1920,1080,1920,1080,8-22-2022,9-5-40,85,depth_duration_stimuli/001059_2014-06-08_21-53-27_260595134347_rgbf000061-resize_4/001059_2014-06-08_21-53-27_260595134347_rgbf000061-resize_4-target.png,1000,2.4185,60,5495,1096,meters,jsons/v1_VE1000_randls_74.json,800340,1058822,64,Woman
85,413923,DepthScenes,duration_manipulation_targetAtFixation,jsons/v1_VE1000_randls_74.json,http://54.235.29.9/FacialAge/BNav_EC2/DepthDuration/v2_depth_duration_MTurk/v2_DepthDuration_HTML.html#142,142,1920,1080,1920,1080,8-22-2022,9-5-40,86,depth_duration_stimuli/001032_2014-06-08_13-23-17_260595134347_rgbf000021-resize_3/001032_2014-06-08_13-23-17_260595134347_rgbf000021-resize_3-target.png,1000,3.2725,22,4147,997,meters,jsons/v1_VE1000_randls_74.json,800340,1058822,64,Woman
86,413923,DepthScenes,duration_manipulation_targetAtFixation,jsons/v1_VE1000_randls_74.json,http://54.235.29.9/FacialAge/BNav_EC2/DepthDuration/v2_depth_duration_MTurk/v2_DepthDuration_HTML.html#142,142,1920,1080,1920,1080,8-22-2022,9-5-40,87,depth_duration_stimuli/002784_2014-06-22_19-26-30_094959634447_rgbf000083-resize_3/002784_2014-06-22_19-26-30_094959634447_rgbf000083-resize_3-target.png,1000,1.8046666666667,88,4019,997,meters,jsons/v1_VE1000_randls_74.json,800340,1058822,64,Woman
87,413923,DepthScenes,duration_manipulation_targetAtFixation,jsons/v1_VE1000_randls_74.json,http://54.235.29.9/FacialAge/BNav_EC2/DepthDuration/v2_depth_duration_MTurk/v2_DepthDuration_HTML.html#142,142,1920,1080,1920,1080,8-22-2022,9-5-40,88,depth_duration_stimuli/001100_2014-06-15_17-46-26_260595134347_rgbf000225-resize_2/001100_2014-06-15_17-46-26_260595134347_rgbf000225-resize_2-target.png,1000,2.24,88,3607,1033,meters,jsons/v1_VE1000_randls_74.json,800340,1058822,64,Woman
88,413923,DepthScenes,duration_manipulation_targetAtFixation,jsons/v1_VE1000_randls_74.json,http://54.235.29.9/FacialAge/BNav_EC2/DepthDuration/v2_depth_duration_MTurk/v2_DepthDuration_HTML.html#142,142,1920,1080,1920,1080,8-22-2022,9-5-40,89,depth_duration_stimuli/001555_2014-06-20_17-12-10_260595134347_rgbf000065-resize_4/001555_2014-06-20_17-12-10_260595134347_rgbf000065-resize_4-target.png,1000,1.633,77,4335,1064,meters,jsons/v1_VE1000_randls_74.json,800340,1058822,64,Woman
89,413923,DepthScenes,duration_manipulation_targetAtFixation,jsons/v1_VE1000_randls_74.json,http://54.235.29.9/FacialAge/BNav_EC2/DepthDuration/v2_depth_duration_MTurk/v2_DepthDuration_HTML.html#142,142,1920,1080,1920,1080,8-22-2022,9-5-40,90,depth_duration_stimuli/000103_2014-05-14_22-01-17_260595134347_rgbf000152-resize_5/000103_2014-05-14_22-01-17_260595134347_rgbf000152-resize_5-target.png,1000,1.993,66,4564,1000,meters,jsons/v1_VE1000_randls_74.json,800340,1058822,64,Woman
90,413923,DepthScenes,duration_manipulation_targetAtFixation,jsons/v1_VE1000_randls_74.json,http://54.235.29.9/FacialAge/BNav_EC2/DepthDuration/v2_depth_duration_MTurk/v2_DepthDuration_HTML.html#142,142,1920,1080,1920,1080,8-22-2022,9-5-40,91,depth_duration_stimuli/000447_2014-06-08_16-15-46_260595134347_rgbf000130-resize_1/000447_2014-06-08_16-15-46_260595134347_rgbf000130-resize_1-target.png,1000,4.479,88,3872,997,meters,jsons/v1_VE1000_randls_74.json,800340,1058822,64,Woman
91,413923,DepthScenes,duration_manipulation_targetAtFixation,jsons/v1_VE1000_randls_74.json,http://54.235.29.9/FacialAge/BNav_EC2/DepthDuration/v2_depth_duration_MTurk/v2_DepthDuration_HTML.html#142,142,1920,1080,1920,1080,8-22-2022,9-5-40,92,depth_duration_stimuli/001447_2014-06-19_17-00-32_260595134347_rgbf000082-resize_5/001447_2014-06-19_17-00-32_260595134347_rgbf000082-resize_5-target.png,1000,4.13775,77,3650,999,meters,jsons/v1_VE1000_randls_74.json,800340,1058822,64,Woman
92,413923,DepthScenes,duration_manipulation_targetAtFixation,jsons/v1_VE1000_randls_74.json,http://54.235.29.9/FacialAge/BNav_EC2/DepthDuration/v2_depth_duration_MTurk/v2_DepthDuration_HTML.html#142,142,1920,1080,1920,1080,8-22-2022,9-5-40,93,depth_duration_stimuli/002445_2014-06-28_20-32-16_260595134347_rgbf000029-resize_4/002445_2014-06-28_20-32-16_260595134347_rgbf000029-resize_4-target.png,1000,2.5315,77,4103,1003,meters,jsons/v1_VE1000_randls_74.json,800340,1058822,64,Woman
93,413923,DepthScenes,duration_manipulation_targetAtFixation,jsons/v1_VE1000_randls_74.json,http://54.235.29.9/FacialAge/BNav_EC2/DepthDuration/v2_depth_duration_MTurk/v2_DepthDuration_HTML.html#142,142,1920,1080,1920,1080,8-22-2022,9-5-40,94,depth_duration_stimuli/000780_2014-06-08_22-28-29_260595134347_rgbf000126-resize_1/000780_2014-06-08_22-28-29_260595134347_rgbf000126-resize_1-target.png,1000,3.3825,45,3783,1002,meters,jsons/v1_VE1000_randls_74.json,800340,1058822,64,Woman
94,413923,DepthScenes,duration_manipulation_targetAtFixation,jsons/v1_VE1000_randls_74.json,http://54.235.29.9/FacialAge/BNav_EC2/DepthDuration/v2_depth_duration_MTurk/v2_DepthDuration_HTML.html#142,142,1920,1080,1920,1080,8-22-2022,9-5-40,95,depth_duration_stimuli/002570_2014-06-24_13-59-54_094959634447_rgbf000059-resize_0/002570_2014-06-24_13-59-54_094959634447_rgbf000059-resize_0-target.png,1000,4.037,45,4303,968,meters,jsons/v1_VE1000_randls_74.json,800340,1058822,64,Woman
95,413923,DepthScenes,duration_manipulation_targetAtFixation,jsons/v1_VE1000_randls_74.json,http://54.235.29.9/FacialAge/BNav_EC2/DepthDuration/v2_depth_duration_MTurk/v2_DepthDuration_HTML.html#142,142,1920,1080,1920,1080,8-22-2022,9-5-40,96,depth_duration_stimuli/002467_2014-06-28_20-38-07_260595134347_rgbf000026-resize_2/002467_2014-06-28_20-38-07_260595134347_rgbf000026-resize_2-target.png,1000,4.742,55,3612,989,meters,jsons/v1_VE1000_randls_74.json,800340,1058822,64,Woman
96,413923,DepthScenes,duration_manipulation_targetAtFixation,jsons/v1_VE1000_randls_74.json,http://54.235.29.9/FacialAge/BNav_EC2/DepthDuration/v2_depth_duration_MTurk/v2_DepthDuration_HTML.html#142,142,1920,1080,1920,1080,8-22-2022,9-5-40,97,depth_duration_stimuli/003292_2014-05-14_21-53-49_094959634447_rgbf000100-resize_2/003292_2014-05-14_21-53-49_094959634447_rgbf000100-resize_2-target.png,1000,3.4815,85,3883,999,meters,jsons/v1_VE1000_randls_74.json,800340,1058822,64,Woman
97,413923,DepthScenes,duration_manipulation_targetAtFixation,jsons/v1_VE1000_randls_74.json,http://54.235.29.9/FacialAge/BNav_EC2/DepthDuration/v2_depth_duration_MTurk/v2_DepthDuration_HTML.html#142,142,1920,1080,1920,1080,8-22-2022,9-5-40,98,depth_duration_stimuli/002639_2014-06-24_14-51-37_094959634447_rgbf000074-resize_4/002639_2014-06-24_14-51-37_094959634447_rgbf000074-resize_4-target.png,1000,4.0375,85,4650,1001,meters,jsons/v1_VE1000_randls_74.json,800340,1058822,64,Woman
98,413923,DepthScenes,duration_manipulation_targetAtFixation,jsons/v1_VE1000_randls_74.json,http://54.235.29.9/FacialAge/BNav_EC2/DepthDuration/v2_depth_duration_MTurk/v2_DepthDuration_HTML.html#142,142,1920,1080,1920,1080,8-22-2022,9-5-40,99,depth_duration_stimuli/001540_2014-06-20_17-01-05_260595134347_rgbf000086-resize_2/001540_2014-06-20_17-01-05_260595134347_rgbf000086-resize-original.jpg,1000,1.459,70,7881,1001,meters,jsons/v1_VE1000_randls_74.json,800340,1058822,64,Woman
99,413923,DepthScenes,duration_manipulation_targetAtFixation,jsons/v1_VE1000_randls_74.json,http://54.235.29.9/FacialAge/BNav_EC2/DepthDuration/v2_depth_duration_MTurk/v2_DepthDuration_HTML.html#142,142,1920,1080,1920,1080,8-22-2022,9-5-40,100,depth_duration_stimuli/001449_2014-06-19_17-01-27_260595134347_rgbf000116-resize_2/001449_2014-06-19_17-01-27_260595134347_rgbf000116-resize_2-target.png,1000,3.452,75,9550,1016,meters,jsons/v1_VE1000_randls_74.json,800340,1058822,64,Woman
100,413923,DepthScenes,duration_manipulation_targetAtFixation,jsons/v1_VE1000_randls_74.json,http://54.235.29.9/FacialAge/BNav_EC2/DepthDuration/v2_depth_duration_MTurk/v2_DepthDuration_HTML.html#142,142,1920,1080,1920,1080,8-22-2022,9-5-40,101,depth_duration_stimuli/001450_2014-06-19_17-02-03_260595134347_rgbf000203-resize_4/001450_2014-06-19_17-02-03_260595134347_rgbf000203-resize_4-target.png,1000,4.0106666666667,75,4862,999,meters,jsons/v1_VE1000_randls_74.json,800340,1058822,64,Woman
101,413923,DepthScenes,duration_manipulation_targetAtFixation,jsons/v1_VE1000_randls_74.json,http://54.235.29.9/FacialAge/BNav_EC2/DepthDuration/v2_depth_duration_MTurk/v2_DepthDuration_HTML.html#142,142,1920,1080,1920,1080,8-22-2022,9-5-40,102,depth_duration_stimuli/002988_2014-06-15_12-24-20_094959634447_rgbf000150-resize_1/002988_2014-06-15_12-24-20_094959634447_rgbf000150-resize_1-target.png,1000,4.7669999999999995,75,7756,1008,meters,jsons/v1_VE1000_randls_74.json,800340,1058822,64,Woman
102,413923,DepthScenes,duration_manipulation_targetAtFixation,jsons/v1_VE1000_randls_74.json,http://54.235.29.9/FacialAge/BNav_EC2/DepthDuration/v2_depth_duration_MTurk/v2_DepthDuration_HTML.html#142,142,1920,1080,1920,1080,8-22-2022,9-5-40,103,depth_duration_stimuli/001052_2014-06-08_18-24-54_260595134347_rgbf000130-resize_1/001052_2014-06-08_18-24-54_260595134347_rgbf000130-resize_1-target.png,1000,4.1045,88,4238,1002,meters,jsons/v1_VE1000_randls_74.json,800340,1058822,64,Woman
103,413923,DepthScenes,duration_manipulation_targetAtFixation,jsons/v1_VE1000_randls_74.json,http://54.235.29.9/FacialAge/BNav_EC2/DepthDuration/v2_depth_duration_MTurk/v2_DepthDuration_HTML.html#142,142,1920,1080,1920,1080,8-22-2022,9-5-40,104,depth_duration_stimuli/002964_2014-06-08_17-46-11_094959634447_rgbf000091-resize_4/002964_2014-06-08_17-46-11_094959634447_rgbf000091-resize_4-target.png,1000,1.6909999999999998,99,6105,978,meters,jsons/v1_VE1000_randls_74.json,800340,1058822,64,Woman
104,413923,DepthScenes,duration_manipulation_targetAtFixation,jsons/v1_VE1000_randls_74.json,http://54.235.29.9/FacialAge/BNav_EC2/DepthDuration/v2_depth_duration_MTurk/v2_DepthDuration_HTML.html#142,142,1920,1080,1920,1080,8-22-2022,9-5-40,105,depth_duration_stimuli/002136_2014-06-25_21-18-03_260595134347_rgbf000109-resize_3/002136_2014-06-25_21-18-03_260595134347_rgbf000109-resize_3-target.png,1000,1.9569999999999999,88,3572,1000,meters,jsons/v1_VE1000_randls_74.json,800340,1058822,64,Woman
105,413923,DepthScenes,duration_manipulation_targetAtFixation,jsons/v1_VE1000_randls_74.json,http://54.235.29.9/FacialAge/BNav_EC2/DepthDuration/v2_depth_duration_MTurk/v2_DepthDuration_HTML.html#142,142,1920,1080,1920,1080,8-22-2022,9-5-40,106,depth_duration_stimuli/000788_2014-06-08_22-34-36_260595134347_rgbf000131-resize_1/000788_2014-06-08_22-34-36_260595134347_rgbf000131-resize_1-target.png,1000,3.359,88,3712,1004,meters,jsons/v1_VE1000_randls_74.json,800340,1058822,64,Woman
106,413923,DepthScenes,duration_manipulation_targetAtFixation,jsons/v1_VE1000_randls_74.json,http://54.235.29.9/FacialAge/BNav_EC2/DepthDuration/v2_depth_duration_MTurk/v2_DepthDuration_HTML.html#142,142,1920,1080,1920,1080,8-22-2022,9-5-40,107,depth_duration_stimuli/001235_2014-06-17_16-37-36_260595134347_rgbf000084-resize_4/001235_2014-06-17_16-37-36_260595134347_rgbf000084-resize_4-target.png,1000,3.6605,77,9167,995,meters,jsons/v1_VE1000_randls_74.json,800340,1058822,64,Woman
107,413923,DepthScenes,duration_manipulation_targetAtFixation,jsons/v1_VE1000_randls_74.json,http://54.235.29.9/FacialAge/BNav_EC2/DepthDuration/v2_depth_duration_MTurk/v2_DepthDuration_HTML.html#142,142,1920,1080,1920,1080,8-22-2022,9-5-40,108,depth_duration_stimuli/001056_2014-06-08_18-46-44_260595134347_rgbf000068-resize_0/001056_2014-06-08_18-46-44_260595134347_rgbf000068-resize_0-target.png,1000,2.6625,55,6640,1154,meters,jsons/v1_VE1000_randls_74.json,800340,1058822,64,Woman
108,413923,DepthScenes,duration_manipulation_targetAtFixation,jsons/v1_VE1000_randls_74.json,http://54.235.29.9/FacialAge/BNav_EC2/DepthDuration/v2_depth_duration_MTurk/v2_DepthDuration_HTML.html#142,142,1920,1080,1920,1080,8-22-2022,9-5-40,109,depth_duration_stimuli/002199_2014-06-28_18-33-56_260595134347_rgbf000074-resize_0/002199_2014-06-28_18-33-56_260595134347_rgbf000074-resize_0-target.png,1000,1.996,88,5673,1000,meters,jsons/v1_VE1000_randls_74.json,800340,1058822,64,Woman
109,413923,DepthScenes,duration_manipulation_targetAtFixation,jsons/v1_VE1000_randls_74.json,http://54.235.29.9/FacialAge/BNav_EC2/DepthDuration/v2_depth_duration_MTurk/v2_DepthDuration_HTML.html#142,142,1920,1080,1920,1080,8-22-2022,9-5-40,110,depth_duration_stimuli/000692_2014-06-08_13-09-42_260595134347_rgbf000199-resize_2/000692_2014-06-08_13-09-42_260595134347_rgbf000199-resize_2-target.png,1000,3.661,77,4528,1004,meters,jsons/v1_VE1000_randls_74.json,800340,1058822,64,Woman
110,413923,DepthScenes,duration_manipulation_targetAtFixation,jsons/v1_VE1000_randls_74.json,http://54.235.29.9/FacialAge/BNav_EC2/DepthDuration/v2_depth_duration_MTurk/v2_DepthDuration_HTML.html#142,142,1920,1080,1920,1080,8-22-2022,9-5-40,111,depth_duration_stimuli/001094_2014-06-15_17-36-00_260595134347_rgbf000205-resize_0/001094_2014-06-15_17-36-00_260595134347_rgbf000205-resize_0-target.png,1000,4.2175,88,7562,993,meters,jsons/v1_VE1000_randls_74.json,800340,1058822,64,Woman
111,413923,DepthScenes,duration_manipulation_targetAtFixation,jsons/v1_VE1000_randls_74.json,http://54.235.29.9/FacialAge/BNav_EC2/DepthDuration/v2_depth_duration_MTurk/v2_DepthDuration_HTML.html#142,142,1920,1080,1920,1080,8-22-2022,9-5-40,112,depth_duration_stimuli/000469_2014-06-09_19-42-10_260595134347_rgbf000081-resize_1/000469_2014-06-09_19-42-10_260595134347_rgbf000081-resize_1-target.png,1000,1.652,88,3973,1009,meters,jsons/v1_VE1000_randls_74.json,800340,1058822,64,Woman
112,413923,DepthScenes,duration_manipulation_targetAtFixation,jsons/v1_VE1000_randls_74.json,http://54.235.29.9/FacialAge/BNav_EC2/DepthDuration/v2_depth_duration_MTurk/v2_DepthDuration_HTML.html#142,142,1920,1080,1920,1080,8-22-2022,9-5-40,113,depth_duration_stimuli/000483_2014-06-09_20-41-45_260595134347_rgbf000116-resize_4/000483_2014-06-09_20-41-45_260595134347_rgbf000116-resize_4-target.png,1000,1.337,77,4139,987,meters,jsons/v1_VE1000_randls_74.json,800340,1058822,64,Woman
113,413923,DepthScenes,duration_manipulation_targetAtFixation,jsons/v1_VE1000_randls_74.json,http://54.235.29.9/FacialAge/BNav_EC2/DepthDuration/v2_depth_duration_MTurk/v2_DepthDuration_HTML.html#142,142,1920,1080,1920,1080,8-22-2022,9-5-40,114,depth_duration_stimuli/000470_2014-06-09_19-42-40_260595134347_rgbf000094-resize_1/000470_2014-06-09_19-42-40_260595134347_rgbf000094-resize_1-target.png,1000,1.831,55,3627,991,meters,jsons/v1_VE1000_randls_74.json,800340,1058822,64,Woman
114,413923,DepthScenes,duration_manipulation_targetAtFixation,jsons/v1_VE1000_randls_74.json,http://54.235.29.9/FacialAge/BNav_EC2/DepthDuration/v2_depth_duration_MTurk/v2_DepthDuration_HTML.html#142,142,1920,1080,1920,1080,8-22-2022,9-5-40,115,depth_duration_stimuli/000109_2014-05-14_23-41-52_260595134347_rgbf000035-resize_9/000109_2014-05-14_23-41-52_260595134347_rgbf000035-resize_9-target.png,1000,1.3545,88,4317,988,meters,jsons/v1_VE1000_randls_74.json,800340,1058822,64,Woman
115,413923,DepthScenes,duration_manipulation_targetAtFixation,jsons/v1_VE1000_randls_74.json,http://54.235.29.9/FacialAge/BNav_EC2/DepthDuration/v2_depth_duration_MTurk/v2_DepthDuration_HTML.html#142,142,1920,1080,1920,1080,8-22-2022,9-5-40,116,depth_duration_stimuli/001170_2014-06-17_15-43-44_260595134347_rgbf000096-resize_6/001170_2014-06-17_15-43-44_260595134347_rgbf000096-resize-original.jpg,1000,1.1909999999999998,0,3715,998,meters,jsons/v1_VE1000_randls_74.json,800340,1058822,64,Woman
116,413923,DepthScenes,duration_manipulation_targetAtFixation,jsons/v1_VE1000_randls_74.json,http://54.235.29.9/FacialAge/BNav_EC2/DepthDuration/v2_depth_duration_MTurk/v2_DepthDuration_HTML.html#142,142,1920,1080,1920,1080,8-22-2022,9-5-40,117,depth_duration_stimuli/000009_2014-05-26_14-32-05_260595134347_rgbf000034-resize_3/000009_2014-05-26_14-32-05_260595134347_rgbf000034-resize_3-target.png,1000,3.8715,44,3749,935,meters,jsons/v1_VE1000_randls_74.json,800340,1058822,64,Woman
117,413923,DepthScenes,duration_manipulation_targetAtFixation,jsons/v1_VE1000_randls_74.json,http://54.235.29.9/FacialAge/BNav_EC2/DepthDuration/v2_depth_duration_MTurk/v2_DepthDuration_HTML.html#142,142,1920,1080,1920,1080,8-22-2022,9-5-40,118,depth_duration_stimuli/001828_2014-06-26_21-40-03_260595134347_rgbf000024-resize_0/001828_2014-06-26_21-40-03_260595134347_rgbf000024-resize_0-target.png,1000,4.8260000000000005,66,4284,993,meters,jsons/v1_VE1000_randls_74.json,800340,1058822,64,Woman
118,413923,DepthScenes,duration_manipulation_targetAtFixation,jsons/v1_VE1000_randls_74.json,http://54.235.29.9/FacialAge/BNav_EC2/DepthDuration/v2_depth_duration_MTurk/v2_DepthDuration_HTML.html#142,142,1920,1080,1920,1080,8-22-2022,9-5-40,119,depth_duration_stimuli/000642_2014-06-08_16-59-25_260595134347_rgbf000098-resize_2/000642_2014-06-08_16-59-25_260595134347_rgbf000098-resize_2-target.png,1000,2.8815,88,4307,1036,meters,jsons/v1_VE1000_randls_74.json,800340,1058822,64,Woman
119,413923,DepthScenes,duration_manipulation_targetAtFixation,jsons/v1_VE1000_randls_74.json,http://54.235.29.9/FacialAge/BNav_EC2/DepthDuration/v2_depth_duration_MTurk/v2_DepthDuration_HTML.html#142,142,1920,1080,1920,1080,8-22-2022,9-5-40,120,depth_duration_stimuli/002425_2014-06-28_20-27-29_260595134347_rgbf000031-resize_8/002425_2014-06-28_20-27-29_260595134347_rgbf000031-resize_8-target.png,1000,3.8960000000000004,88,3771,1007,meters,jsons/v1_VE1000_randls_74.json,800340,1058822,64,Woman
120,413923,DepthScenes,duration_manipulation_targetAtFixation,jsons/v1_VE1000_randls_74.json,http://54.235.29.9/FacialAge/BNav_EC2/DepthDuration/v2_depth_duration_MTurk/v2_DepthDuration_HTML.html#142,142,1920,1080,1920,1080,8-22-2022,9-5-40,121,depth_duration_stimuli/002763_2014-06-22_19-13-10_094959634447_rgbf000075-resize_4/002763_2014-06-22_19-13-10_094959634447_rgbf000075-resize_4-target.png,1000,1.68375,66,5039,1006,meters,jsons/v1_VE1000_randls_74.json,800340,1058822,64,Woman
121,413923,DepthScenes,duration_manipulation_targetAtFixation,jsons/v1_VE1000_randls_74.json,http://54.235.29.9/FacialAge/BNav_EC2/DepthDuration/v2_depth_duration_MTurk/v2_DepthDuration_HTML.html#142,142,1920,1080,1920,1080,8-22-2022,9-5-40,122,depth_duration_stimuli/002209_2014-06-28_18-36-10_260595134347_rgbf000051-resize_1/002209_2014-06-28_18-36-10_260595134347_rgbf000051-resize_1-target.png,1000,2.057,88,3907,1000,meters,jsons/v1_VE1000_randls_74.json,800340,1058822,64,Woman
122,413923,DepthScenes,duration_manipulation_targetAtFixation,jsons/v1_VE1000_randls_74.json,http://54.235.29.9/FacialAge/BNav_EC2/DepthDuration/v2_depth_duration_MTurk/v2_DepthDuration_HTML.html#142,142,1920,1080,1920,1080,8-22-2022,9-5-40,123,depth_duration_stimuli/002905_2014-06-03_18-04-43_094959634447_rgbf000151-resize_2/002905_2014-06-03_18-04-43_094959634447_rgbf000151-resize_2-target.png,1000,2.0295,66,4655,881,meters,jsons/v1_VE1000_randls_74.json,800340,1058822,64,Woman
123,413923,DepthScenes,duration_manipulation_targetAtFixation,jsons/v1_VE1000_randls_74.json,http://54.235.29.9/FacialAge/BNav_EC2/DepthDuration/v2_depth_duration_MTurk/v2_DepthDuration_HTML.html#142,142,1920,1080,1920,1080,8-22-2022,9-5-40,124,depth_duration_stimuli/003423_2014-05-21_10-23-26_094959634447_rgbf002665-resize_2/003423_2014-05-21_10-23-26_094959634447_rgbf002665-resize_2-target.png,1000,3.2575,88,4039,996,meters,jsons/v1_VE1000_randls_74.json,800340,1058822,64,Woman
124,413923,DepthScenes,duration_manipulation_targetAtFixation,jsons/v1_VE1000_randls_74.json,http://54.235.29.9/FacialAge/BNav_EC2/DepthDuration/v2_depth_duration_MTurk/v2_DepthDuration_HTML.html#142,142,1920,1080,1920,1080,8-22-2022,9-5-40,125,depth_duration_stimuli/002118_2014-06-25_20-32-08_260595134347_rgbf000078-resize_1/002118_2014-06-25_20-32-08_260595134347_rgbf000078-resize_1-target.png,1000,2.6460000000000004,44,4542,1006,meters,jsons/v1_VE1000_randls_74.json,800340,1058822,64,Woman
125,413923,DepthScenes,duration_manipulation_targetAtFixation,jsons/v1_VE1000_randls_74.json,http://54.235.29.9/FacialAge/BNav_EC2/DepthDuration/v2_depth_duration_MTurk/v2_DepthDuration_HTML.html#142,142,1920,1080,1920,1080,8-22-2022,9-5-40,126,depth_duration_stimuli/001516_2014-06-20_16-25-09_260595134347_rgbf000076-resize_2/001516_2014-06-20_16-25-09_260595134347_rgbf000076-resize_2-target.png,1000,1.7445,44,3439,999,meters,jsons/v1_VE1000_randls_74.json,800340,1058822,64,Woman
126,413923,DepthScenes,duration_manipulation_targetAtFixation,jsons/v1_VE1000_randls_74.json,http://54.235.29.9/FacialAge/BNav_EC2/DepthDuration/v2_depth_duration_MTurk/v2_DepthDuration_HTML.html#142,142,1920,1080,1920,1080,8-22-2022,9-5-40,127,depth_duration_stimuli/000436_2014-06-09_22-25-11_260595134347_rgbf000137-resize_1/000436_2014-06-09_22-25-11_260595134347_rgbf000137-resize_1-target.png,1000,4.0705,55,4763,1001,meters,jsons/v1_VE1000_randls_74.json,800340,1058822,64,Woman
127,413923,DepthScenes,duration_manipulation_targetAtFixation,jsons/v1_VE1000_randls_74.json,http://54.235.29.9/FacialAge/BNav_EC2/DepthDuration/v2_depth_duration_MTurk/v2_DepthDuration_HTML.html#142,142,1920,1080,1920,1080,8-22-2022,9-5-40,128,depth_duration_stimuli/002444_2014-06-28_20-32-08_260595134347_rgbf000027-resize_0/002444_2014-06-28_20-32-08_260595134347_rgbf000027-resize_0-target.png,1000,4.388999999999999,66,4240,966,meters,jsons/v1_VE1000_randls_74.json,800340,1058822,64,Woman
128,413923,DepthScenes,duration_manipulation_targetAtFixation,jsons/v1_VE1000_randls_74.json,http://54.235.29.9/FacialAge/BNav_EC2/DepthDuration/v2_depth_duration_MTurk/v2_DepthDuration_HTML.html#142,142,1920,1080,1920,1080,8-22-2022,9-5-40,129,depth_duration_stimuli/000810_2014-06-08_17-20-01_260595134347_rgbf000105-resize_0/000810_2014-06-08_17-20-01_260595134347_rgbf000105-resize_0-target.png,1000,1.4865,66,3515,1001,meters,jsons/v1_VE1000_randls_74.json,800340,1058822,64,Woman
129,413923,DepthScenes,duration_manipulation_targetAtFixation,jsons/v1_VE1000_randls_74.json,http://54.235.29.9/FacialAge/BNav_EC2/DepthDuration/v2_depth_duration_MTurk/v2_DepthDuration_HTML.html#142,142,1920,1080,1920,1080,8-22-2022,9-5-40,130,depth_duration_stimuli/001214_2014-06-17_16-13-55_260595134347_rgbf000111-resize_0/001214_2014-06-17_16-13-55_260595134347_rgbf000111-resize_0-target.png,1000,2.6505,66,4023,948,meters,jsons/v1_VE1000_randls_74.json,800340,1058822,64,Woman
130,413923,DepthScenes,duration_manipulation_targetAtFixation,jsons/v1_VE1000_randls_74.json,http://54.235.29.9/FacialAge/BNav_EC2/DepthDuration/v2_depth_duration_MTurk/v2_DepthDuration_HTML.html#142,142,1920,1080,1920,1080,8-22-2022,9-5-40,131,depth_duration_stimuli/000773_2014-06-08_22-24-54_260595134347_rgbf000093-resize_1/000773_2014-06-08_22-24-54_260595134347_rgbf000093-resize_1-target.png,1000,4.973,88,4148,993,meters,jsons/v1_VE1000_randls_74.json,800340,1058822,64,Woman
131,413923,DepthScenes,duration_manipulation_targetAtFixation,jsons/v1_VE1000_randls_74.json,http://54.235.29.9/FacialAge/BNav_EC2/DepthDuration/v2_depth_duration_MTurk/v2_DepthDuration_HTML.html#142,142,1920,1080,1920,1080,8-22-2022,9-5-40,132,depth_duration_stimuli/002414_2014-06-28_20-24-58_260595134347_rgbf000067-resize_4/002414_2014-06-28_20-24-58_260595134347_rgbf000067-resize_4-target.png,1000,4.363,77,3498,1047,meters,jsons/v1_VE1000_randls_74.json,800340,1058822,64,Woman
132,413923,DepthScenes,duration_manipulation_targetAtFixation,jsons/v1_VE1000_randls_74.json,http://54.235.29.9/FacialAge/BNav_EC2/DepthDuration/v2_depth_duration_MTurk/v2_DepthDuration_HTML.html#142,142,1920,1080,1920,1080,8-22-2022,9-5-40,133,depth_duration_stimuli/000368_2014-06-09_15-53-01_260595134347_rgbf000155-resize_2/000368_2014-06-09_15-53-01_260595134347_rgbf000155-resize_2-target.png,1000,2.4859999999999998,66,3352,995,meters,jsons/v1_VE1000_randls_74.json,800340,1058822,64,Woman
133,413923,DepthScenes,duration_manipulation_targetAtFixation,jsons/v1_VE1000_randls_74.json,http://54.235.29.9/FacialAge/BNav_EC2/DepthDuration/v2_depth_duration_MTurk/v2_DepthDuration_HTML.html#142,142,1920,1080,1920,1080,8-22-2022,9-5-40,134,depth_duration_stimuli/002678_2014-06-13_16-15-32_094959634447_rgbf000151-resize_6/002678_2014-06-13_16-15-32_094959634447_rgbf000151-resize_6-target.png,1000,2.1830000000000003,77,3991,1017,meters,jsons/v1_VE1000_randls_74.json,800340,1058822,64,Woman
134,413923,DepthScenes,duration_manipulation_targetAtFixation,jsons/v1_VE1000_randls_74.json,http://54.235.29.9/FacialAge/BNav_EC2/DepthDuration/v2_depth_duration_MTurk/v2_DepthDuration_HTML.html#142,142,1920,1080,1920,1080,8-22-2022,9-5-40,135,depth_duration_stimuli/002072_2014-06-24_21-48-06_260595134347_rgbf000115-resize_0/002072_2014-06-24_21-48-06_260595134347_rgbf000115-resize-original.jpg,1000,4.702,0,4656,1035,meters,jsons/v1_VE1000_randls_74.json,800340,1058822,64,Woman
135,413923,DepthScenes,duration_manipulation_targetAtFixation,jsons/v1_VE1000_randls_74.json,http://54.235.29.9/FacialAge/BNav_EC2/DepthDuration/v2_depth_duration_MTurk/v2_DepthDuration_HTML.html#142,142,1920,1080,1920,1080,8-22-2022,9-5-40,136,depth_duration_stimuli/001808_2014-06-26_20-50-58_260595134347_rgbf000029-resize_1/001808_2014-06-26_20-50-58_260595134347_rgbf000029-resize_1-target.png,1000,4.249,55,3891,995,meters,jsons/v1_VE1000_randls_74.json,800340,1058822,64,Woman
136,413923,DepthScenes,duration_manipulation_targetAtFixation,jsons/v1_VE1000_randls_74.json,http://54.235.29.9/FacialAge/BNav_EC2/DepthDuration/v2_depth_duration_MTurk/v2_DepthDuration_HTML.html#142,142,1920,1080,1920,1080,8-22-2022,9-5-40,137,depth_duration_stimuli/001815_2014-06-26_20-52-55_260595134347_rgbf000020-resize_0/001815_2014-06-26_20-52-55_260595134347_rgbf000020-resize_0-target.png,1000,3.3865,55,4097,999,meters,jsons/v1_VE1000_randls_74.json,800340,1058822,64,Woman
137,413923,DepthScenes,duration_manipulation_targetAtFixation,jsons/v1_VE1000_randls_74.json,http://54.235.29.9/FacialAge/BNav_EC2/DepthDuration/v2_depth_duration_MTurk/v2_DepthDuration_HTML.html#142,142,1920,1080,1920,1080,8-22-2022,9-5-40,138,depth_duration_stimuli/001158_2014-06-17_15-32-16_260595134347_rgbf000138-resize_2/001158_2014-06-17_15-32-16_260595134347_rgbf000138-resize_2-target.png,1000,4.5315,66,7081,902,meters,jsons/v1_VE1000_randls_74.json,800340,1058822,64,Woman
138,413923,DepthScenes,duration_manipulation_targetAtFixation,jsons/v1_VE1000_randls_74.json,http://54.235.29.9/FacialAge/BNav_EC2/DepthDuration/v2_depth_duration_MTurk/v2_DepthDuration_HTML.html#142,142,1920,1080,1920,1080,8-22-2022,9-5-40,139,depth_duration_stimuli/000556_2014-06-09_22-42-56_260595134347_rgbf000214-resize_1/000556_2014-06-09_22-42-56_260595134347_rgbf000214-resize_1-target.png,1000,4.8415,55,4100,998,meters,jsons/v1_VE1000_randls_74.json,800340,1058822,64,Woman
139,413923,DepthScenes,duration_manipulation_targetAtFixation,jsons/v1_VE1000_randls_74.json,http://54.235.29.9/FacialAge/BNav_EC2/DepthDuration/v2_depth_duration_MTurk/v2_DepthDuration_HTML.html#142,142,1920,1080,1920,1080,8-22-2022,9-5-40,140,depth_duration_stimuli/000522_2014-06-08_13-35-06_260595134347_rgbf000244-resize_1/000522_2014-06-08_13-35-06_260595134347_rgbf000244-resize_1-target.png,1000,2.3715,55,4059,1000,meters,jsons/v1_VE1000_randls_74.json,800340,1058822,64,Woman
140,413923,DepthScenes,duration_manipulation_targetAtFixation,jsons/v1_VE1000_randls_74.json,http://54.235.29.9/FacialAge/BNav_EC2/DepthDuration/v2_depth_duration_MTurk/v2_DepthDuration_HTML.html#142,142,1920,1080,1920,1080,8-22-2022,9-5-40,141,depth_duration_stimuli/002949_2014-06-26_15-57-42_094959634447_rgbf000079-resize_1/002949_2014-06-26_15-57-42_094959634447_rgbf000079-resize_1-target.png,1000,1.8915,66,4436,1020,meters,jsons/v1_VE1000_randls_74.json,800340,1058822,64,Woman
141,413923,DepthScenes,duration_manipulation_targetAtFixation,jsons/v1_VE1000_randls_74.json,http://54.235.29.9/FacialAge/BNav_EC2/DepthDuration/v2_depth_duration_MTurk/v2_DepthDuration_HTML.html#142,142,1920,1080,1920,1080,8-22-2022,9-5-40,142,depth_duration_stimuli/000917_2014-06-09_22-45-29_260595134347_rgbf000149-resize_3/000917_2014-06-09_22-45-29_260595134347_rgbf000149-resize_3-target.png,1000,4.1865,88,4043,990,meters,jsons/v1_VE1000_randls_74.json,800340,1058822,64,Woman
142,413923,DepthScenes,duration_manipulation_targetAtFixation,jsons/v1_VE1000_randls_74.json,http://54.235.29.9/FacialAge/BNav_EC2/DepthDuration/v2_depth_duration_MTurk/v2_DepthDuration_HTML.html#142,142,1920,1080,1920,1080,8-22-2022,9-5-40,143,depth_duration_stimuli/002323_2014-06-28_20-01-54_260595134347_rgbf000051-resize_4/002323_2014-06-28_20-01-54_260595134347_rgbf000051-resize_4-target.png,1000,3.7310000000000003,77,3649,809,meters,jsons/v1_VE1000_randls_74.json,800340,1058822,64,Woman
143,413923,DepthScenes,duration_manipulation_targetAtFixation,jsons/v1_VE1000_randls_74.json,http://54.235.29.9/FacialAge/BNav_EC2/DepthDuration/v2_depth_duration_MTurk/v2_DepthDuration_HTML.html#142,142,1920,1080,1920,1080,8-22-2022,9-5-40,144,depth_duration_stimuli/002725_2014-06-22_11-47-51_094959634447_rgbf000070-resize_1/002725_2014-06-22_11-47-51_094959634447_rgbf000070-resize_1-target.png,1000,2.195,88,4170,1009,meters,jsons/v1_VE1000_randls_74.json,800340,1058822,64,Woman
144,413923,DepthScenes,duration_manipulation_targetAtFixation,jsons/v1_VE1000_randls_74.json,http://54.235.29.9/FacialAge/BNav_EC2/DepthDuration/v2_depth_duration_MTurk/v2_DepthDuration_HTML.html#142,142,1920,1080,1920,1080,8-22-2022,9-5-40,145,depth_duration_stimuli/002344_2014-06-28_20-06-29_260595134347_rgbf000030-resize_1/002344_2014-06-28_20-06-29_260595134347_rgbf000030-resize_1-target.png,1000,1.5795,33,3910,989,meters,jsons/v1_VE1000_randls_74.json,800340,1058822,64,Woman
145,413923,DepthScenes,duration_manipulation_targetAtFixation,jsons/v1_VE1000_randls_74.json,http://54.235.29.9/FacialAge/BNav_EC2/DepthDuration/v2_depth_duration_MTurk/v2_DepthDuration_HTML.html#142,142,1920,1080,1920,1080,8-22-2022,9-5-40,146,depth_duration_stimuli/001498_2014-06-19_17-45-14_260595134347_rgbf000129-resize_4/001498_2014-06-19_17-45-14_260595134347_rgbf000129-resize-original.jpg,1000,1.4075,77,3943,965,meters,jsons/v1_VE1000_randls_74.json,800340,1058822,64,Woman
146,413923,DepthScenes,duration_manipulation_targetAtFixation,jsons/v1_VE1000_randls_74.json,http://54.235.29.9/FacialAge/BNav_EC2/DepthDuration/v2_depth_duration_MTurk/v2_DepthDuration_HTML.html#142,142,1920,1080,1920,1080,8-22-2022,9-5-40,147,depth_duration_stimuli/001164_2014-06-17_15-35-46_260595134347_rgbf000085-resize_3/001164_2014-06-17_15-35-46_260595134347_rgbf000085-resize_3-target.png,1000,2.354,88,4225,1006,meters,jsons/v1_VE1000_randls_74.json,800340,1058822,64,Woman
147,413923,DepthScenes,duration_manipulation_targetAtFixation,jsons/v1_VE1000_randls_74.json,http://54.235.29.9/FacialAge/BNav_EC2/DepthDuration/v2_depth_duration_MTurk/v2_DepthDuration_HTML.html#142,142,1920,1080,1920,1080,8-22-2022,9-5-40,148,depth_duration_stimuli/001136_2014-06-17_15-19-41_260595134347_rgbf000076-resize_3/001136_2014-06-17_15-19-41_260595134347_rgbf000076-resize_3-target.png,1000,1.8655,88,3487,1002,meters,jsons/v1_VE1000_randls_74.json,800340,1058822,64,Woman
148,413923,DepthScenes,duration_manipulation_targetAtFixation,jsons/v1_VE1000_randls_74.json,http://54.235.29.9/FacialAge/BNav_EC2/DepthDuration/v2_depth_duration_MTurk/v2_DepthDuration_HTML.html#142,142,1920,1080,1920,1080,8-22-2022,9-5-40,149,depth_duration_stimuli/001244_2014-06-17_16-47-45_260595134347_rgbf000030-resize_4/001244_2014-06-17_16-47-45_260595134347_rgbf000030-resize_4-target.png,1000,2.0425,99,4662,1008,meters,jsons/v1_VE1000_randls_74.json,800340,1058822,64,Woman
149,413923,DepthScenes,duration_manipulation_targetAtFixation,jsons/v1_VE1000_randls_74.json,http://54.235.29.9/FacialAge/BNav_EC2/DepthDuration/v2_depth_duration_MTurk/v2_DepthDuration_HTML.html#142,142,1920,1080,1920,1080,8-22-2022,9-5-40,150,depth_duration_stimuli/003495_2014-05-21_16-01-51_094959634447_rgbf000100-resize_3/003495_2014-05-21_16-01-51_094959634447_rgbf000100-resize_3-target.png,1000,1.6255,85,3902,999,meters,jsons/v1_VE1000_randls_74.json,800340,1058822,64,Woman
150,413923,DepthScenes,duration_manipulation_targetAtFixation,jsons/v1_VE1000_randls_74.json,http://54.235.29.9/FacialAge/BNav_EC2/DepthDuration/v2_depth_duration_MTurk/v2_DepthDuration_HTML.html#142,142,1920,1080,1920,1080,8-22-2022,9-5-40,151,depth_duration_stimuli/002279_2014-06-28_18-55-32_260595134347_rgbf000040-resize_5/002279_2014-06-28_18-55-32_260595134347_rgbf000040-resize_5-target.png,1000,1.5043333333333,75,4932,997,meters,jsons/v1_VE1000_randls_74.json,800340,1058822,64,Woman
151,413923,DepthScenes,duration_manipulation_targetAtFixation,jsons/v1_VE1000_randls_74.json,http://54.235.29.9/FacialAge/BNav_EC2/DepthDuration/v2_depth_duration_MTurk/v2_DepthDuration_HTML.html#142,142,1920,1080,1920,1080,8-22-2022,9-5-40,152,depth_duration_stimuli/000635_2014-06-08_16-38-42_260595134347_rgbf000106-resize_1/000635_2014-06-08_16-38-42_260595134347_rgbf000106-resize_1-target.png,1000,2.074,77,3339,1004,meters,jsons/v1_VE1000_randls_74.json,800340,1058822,64,Woman
152,413923,DepthScenes,duration_manipulation_targetAtFixation,jsons/v1_VE1000_randls_74.json,http://54.235.29.9/FacialAge/BNav_EC2/DepthDuration/v2_depth_duration_MTurk/v2_DepthDuration_HTML.html#142,142,1920,1080,1920,1080,8-22-2022,9-5-40,153,depth_duration_stimuli/001092_2014-06-15_17-34-58_260595134347_rgbf000171-resize_3/001092_2014-06-15_17-34-58_260595134347_rgbf000171-resize_3-target.png,1000,2.6935,88,4068,996,meters,jsons/v1_VE1000_randls_74.json,800340,1058822,64,Woman
153,413923,DepthScenes,duration_manipulation_targetAtFixation,jsons/v1_VE1000_randls_74.json,http://54.235.29.9/FacialAge/BNav_EC2/DepthDuration/v2_depth_duration_MTurk/v2_DepthDuration_HTML.html#142,142,1920,1080,1920,1080,8-22-2022,9-5-40,154,depth_duration_stimuli/002545_2014-06-24_13-38-53_094959634447_rgbf000080-resize_4/002545_2014-06-24_13-38-53_094959634447_rgbf000080-resize_4-target.png,1000,1.9205,88,3746,975,meters,jsons/v1_VE1000_randls_74.json,800340,1058822,64,Woman
154,413923,DepthScenes,duration_manipulation_targetAtFixation,jsons/v1_VE1000_randls_74.json,http://54.235.29.9/FacialAge/BNav_EC2/DepthDuration/v2_depth_duration_MTurk/v2_DepthDuration_HTML.html#142,142,1920,1080,1920,1080,8-22-2022,9-5-40,155,depth_duration_stimuli/001133_2014-06-17_14-49-16_260595134347_rgbf000100-resize_0/001133_2014-06-17_14-49-16_260595134347_rgbf000100-resize_0-target.png,1000,4.2115,55,4975,994,meters,jsons/v1_VE1000_randls_74.json,800340,1058822,64,Woman
155,413923,DepthScenes,duration_manipulation_targetAtFixation,jsons/v1_VE1000_randls_74.json,http://54.235.29.9/FacialAge/BNav_EC2/DepthDuration/v2_depth_duration_MTurk/v2_DepthDuration_HTML.html#142,142,1920,1080,1920,1080,8-22-2022,9-5-40,156,depth_duration_stimuli/001132_2014-06-17_14-48-54_260595134347_rgbf000100-resize_2/001132_2014-06-17_14-48-54_260595134347_rgbf000100-resize_2-target.png,1000,3.753,88,4164,995,meters,jsons/v1_VE1000_randls_74.json,800340,1058822,64,Woman
156,413923,DepthScenes,duration_manipulation_targetAtFixation,jsons/v1_VE1000_randls_74.json,http://54.235.29.9/FacialAge/BNav_EC2/DepthDuration/v2_depth_duration_MTurk/v2_DepthDuration_HTML.html#142,142,1920,1080,1920,1080,8-22-2022,9-5-40,157,depth_duration_stimuli/000414_2014-06-04_19-49-13_260595134347_rgbf000044-resize_0/000414_2014-06-04_19-49-13_260595134347_rgbf000044-resize_0-target.png,1000,4.329,77,4067,994,meters,jsons/v1_VE1000_randls_74.json,800340,1058822,64,Woman
157,413923,DepthScenes,duration_manipulation_targetAtFixation,jsons/v1_VE1000_randls_74.json,http://54.235.29.9/FacialAge/BNav_EC2/DepthDuration/v2_depth_duration_MTurk/v2_DepthDuration_HTML.html#142,142,1920,1080,1920,1080,8-22-2022,9-5-40,158,depth_duration_stimuli/003129_2014-05-12_10-48-10_094959634447_rgbf000100-resize_0/003129_2014-05-12_10-48-10_094959634447_rgbf000100-resize_0-target.png,1000,4.9305,88,4242,1056,meters,jsons/v1_VE1000_randls_74.json,800340,1058822,64,Woman
158,413923,DepthScenes,duration_manipulation_targetAtFixation,jsons/v1_VE1000_randls_74.json,http://54.235.29.9/FacialAge/BNav_EC2/DepthDuration/v2_depth_duration_MTurk/v2_DepthDuration_HTML.html#142,142,1920,1080,1920,1080,8-22-2022,9-5-40,159,depth_duration_stimuli/001055_2014-06-08_18-45-35_260595134347_rgbf000111-resize_4/001055_2014-06-08_18-45-35_260595134347_rgbf000111-resize_4-target.png,1000,2.4290000000000003,88,3637,998,meters,jsons/v1_VE1000_randls_74.json,800340,1058822,64,Woman
159,413923,DepthScenes,duration_manipulation_targetAtFixation,jsons/v1_VE1000_randls_74.json,http://54.235.29.9/FacialAge/BNav_EC2/DepthDuration/v2_depth_duration_MTurk/v2_DepthDuration_HTML.html#142,142,1920,1080,1920,1080,8-22-2022,9-5-40,160,depth_duration_stimuli/000549_2014-06-08_22-10-24_260595134347_rgbf000247-resize_3/000549_2014-06-08_22-10-24_260595134347_rgbf000247-resize_3-target.png,1000,1.841,88,4205,993,meters,jsons/v1_VE1000_randls_74.json,800340,1058822,64,Woman
160,413923,DepthScenes,duration_manipulation_targetAtFixation,jsons/v1_VE1000_randls_74.json,http://54.235.29.9/FacialAge/BNav_EC2/DepthDuration/v2_depth_duration_MTurk/v2_DepthDuration_HTML.html#142,142,1920,1080,1920,1080,8-22-2022,9-5-40,161,depth_duration_stimuli/003492_2014-05-21_15-50-55_094959634447_rgbf000828-resize_1/003492_2014-05-21_15-50-55_094959634447_rgbf000828-resize_1-target.png,1000,4.06875,55,3474,993,meters,jsons/v1_VE1000_randls_74.json,800340,1058822,64,Woman
161,413923,DepthScenes,duration_manipulation_targetAtFixation,jsons/v1_VE1000_randls_74.json,http://54.235.29.9/FacialAge/BNav_EC2/DepthDuration/v2_depth_duration_MTurk/v2_DepthDuration_HTML.html#142,142,1920,1080,1920,1080,8-22-2022,9-5-40,162,depth_duration_stimuli/002568_2014-06-24_13-59-21_094959634447_rgbf000062-resize_4/002568_2014-06-24_13-59-21_094959634447_rgbf000062-resize_4-target.png,1000,3.015,55,3458,1005,meters,jsons/v1_VE1000_randls_74.json,800340,1058822,64,Woman
162,413923,DepthScenes,duration_manipulation_targetAtFixation,jsons/v1_VE1000_randls_74.json,http://54.235.29.9/FacialAge/BNav_EC2/DepthDuration/v2_depth_duration_MTurk/v2_DepthDuration_HTML.html#142,142,1920,1080,1920,1080,8-22-2022,9-5-40,163,depth_duration_stimuli/002213_2014-06-28_18-37-58_260595134347_rgbf000055-resize_1/002213_2014-06-28_18-37-58_260595134347_rgbf000055-resize_1-target.png,1000,3.62,55,3905,997,meters,jsons/v1_VE1000_randls_74.json,800340,1058822,64,Woman
163,413923,DepthScenes,duration_manipulation_targetAtFixation,jsons/v1_VE1000_randls_74.json,http://54.235.29.9/FacialAge/BNav_EC2/DepthDuration/v2_depth_duration_MTurk/v2_DepthDuration_HTML.html#142,142,1920,1080,1920,1080,8-22-2022,9-5-40,164,depth_duration_stimuli/000691_2014-06-08_13-08-50_260595134347_rgbf000132-resize_3/000691_2014-06-08_13-08-50_260595134347_rgbf000132-resize_3-target.png,1000,4.1530000000000005,55,3941,1059,meters,jsons/v1_VE1000_randls_74.json,800340,1058822,64,Woman
