,subjID,experimentName,versionName,sequenceName,url,selected_row,windowWidth,windowHeight,screenWidth,screenHeight,startDate,startTime,trial,stimulus,duration,actual_depth,depth_estimate,trial_RT,log_sceneDuration,unitSelection,seq_filepath,experimentTime,totalTime,age,gender
0,417131,DepthScenes,duration_manipulation_targetAtFixation,jsons/VE125_randls_11_rotated.json,http://54.235.29.9/FacialAge/BNav_EC2/DepthDuration/v2_depth_duration_MTurk/v2_DepthDuration_HTML.html#368,368,1536,714,1536,864,9-18-2022,11-24-31,1,depth_duration_stimuli/003010_2014-06-15_12-54-35_094959634447_rgbf000112-resize_0/003010_2014-06-15_12-54-35_094959634447_rgbf000112-resize_0-target.png,125,3.1185,3,3771,127,feet,jsons/VE125_randls_11_rotated.json,724327,1091613,36,Man
1,417131,DepthScenes,duration_manipulation_targetAtFixation,jsons/VE125_randls_11_rotated.json,http://54.235.29.9/FacialAge/BNav_EC2/DepthDuration/v2_depth_duration_MTurk/v2_DepthDuration_HTML.html#368,368,1536,714,1536,864,9-18-2022,11-24-31,2,depth_duration_stimuli/001810_2014-06-26_20-51-35_260595134347_rgbf000040-resize_3/001810_2014-06-26_20-51-35_260595134347_rgbf000040-resize_3-target.png,125,2.2525,2,3467,120,feet,jsons/VE125_randls_11_rotated.json,724327,1091613,36,Man
2,417131,DepthScenes,duration_manipulation_targetAtFixation,jsons/VE125_randls_11_rotated.json,http://54.235.29.9/FacialAge/BNav_EC2/DepthDuration/v2_depth_duration_MTurk/v2_DepthDuration_HTML.html#368,368,1536,714,1536,864,9-18-2022,11-24-31,3,depth_duration_stimuli/000103_2014-05-14_22-01-17_260595134347_rgbf000152-resize_5/000103_2014-05-14_22-01-17_260595134347_rgbf000152-resize_5-target.png,125,1.993,2,2610,133,feet,jsons/VE125_randls_11_rotated.json,724327,1091613,36,Man
3,417131,DepthScenes,duration_manipulation_targetAtFixation,jsons/VE125_randls_11_rotated.json,http://54.235.29.9/FacialAge/BNav_EC2/DepthDuration/v2_depth_duration_MTurk/v2_DepthDuration_HTML.html#368,368,1536,714,1536,864,9-18-2022,11-24-31,4,depth_duration_stimuli/001555_2014-06-20_17-12-10_260595134347_rgbf000065-resize_4/001555_2014-06-20_17-12-10_260595134347_rgbf000065-resize_4-target.png,125,1.633,2,4153,124,feet,jsons/VE125_randls_11_rotated.json,724327,1091613,36,Man
4,417131,DepthScenes,duration_manipulation_targetAtFixation,jsons/VE125_randls_11_rotated.json,http://54.235.29.9/FacialAge/BNav_EC2/DepthDuration/v2_depth_duration_MTurk/v2_DepthDuration_HTML.html#368,368,1536,714,1536,864,9-18-2022,11-24-31,5,depth_duration_stimuli/003048_2014-06-15_13-49-43_094959634447_rgbf000150-resize_1/003048_2014-06-15_13-49-43_094959634447_rgbf000150-resize_1-target.png,125,4.0035,3,2456,129,feet,jsons/VE125_randls_11_rotated.json,724327,1091613,36,Man
5,417131,DepthScenes,duration_manipulation_targetAtFixation,jsons/VE125_randls_11_rotated.json,http://54.235.29.9/FacialAge/BNav_EC2/DepthDuration/v2_depth_duration_MTurk/v2_DepthDuration_HTML.html#368,368,1536,714,1536,864,9-18-2022,11-24-31,6,depth_duration_stimuli/002043_2014-06-24_20-29-38_260595134347_rgbf000039-resize_4/002043_2014-06-24_20-29-38_260595134347_rgbf000039-resize_4-target.png,125,2.8435,3,3550,119,feet,jsons/VE125_randls_11_rotated.json,724327,1091613,36,Man
6,417131,DepthScenes,duration_manipulation_targetAtFixation,jsons/VE125_randls_11_rotated.json,http://54.235.29.9/FacialAge/BNav_EC2/DepthDuration/v2_depth_duration_MTurk/v2_DepthDuration_HTML.html#368,368,1536,714,1536,864,9-18-2022,11-24-31,7,depth_duration_stimuli/002545_2014-06-24_13-38-53_094959634447_rgbf000080-resize_4/002545_2014-06-24_13-38-53_094959634447_rgbf000080-resize_4-target.png,125,1.9205,2,4091,136,feet,jsons/VE125_randls_11_rotated.json,724327,1091613,36,Man
7,417131,DepthScenes,duration_manipulation_targetAtFixation,jsons/VE125_randls_11_rotated.json,http://54.235.29.9/FacialAge/BNav_EC2/DepthDuration/v2_depth_duration_MTurk/v2_DepthDuration_HTML.html#368,368,1536,714,1536,864,9-18-2022,11-24-31,8,depth_duration_stimuli/001092_2014-06-15_17-34-58_260595134347_rgbf000171-resize_3/001092_2014-06-15_17-34-58_260595134347_rgbf000171-resize_3-target.png,125,2.6935,3,2502,122,feet,jsons/VE125_randls_11_rotated.json,724327,1091613,36,Man
8,417131,DepthScenes,duration_manipulation_targetAtFixation,jsons/VE125_randls_11_rotated.json,http://54.235.29.9/FacialAge/BNav_EC2/DepthDuration/v2_depth_duration_MTurk/v2_DepthDuration_HTML.html#368,368,1536,714,1536,864,9-18-2022,11-24-31,9,depth_duration_stimuli/002323_2014-06-28_20-01-54_260595134347_rgbf000051-resize_4/002323_2014-06-28_20-01-54_260595134347_rgbf000051-resize_4-target.png,125,3.7310000000000003,5,4170,139,feet,jsons/VE125_randls_11_rotated.json,724327,1091613,36,Man
9,417131,DepthScenes,duration_manipulation_targetAtFixation,jsons/VE125_randls_11_rotated.json,http://54.235.29.9/FacialAge/BNav_EC2/DepthDuration/v2_depth_duration_MTurk/v2_DepthDuration_HTML.html#368,368,1536,714,1536,864,9-18-2022,11-24-31,10,depth_duration_stimuli/000917_2014-06-09_22-45-29_260595134347_rgbf000149-resize_3/000917_2014-06-09_22-45-29_260595134347_rgbf000149-resize_3-target.png,125,4.1865,2,2674,125,feet,jsons/VE125_randls_11_rotated.json,724327,1091613,36,Man
10,417131,DepthScenes,duration_manipulation_targetAtFixation,jsons/VE125_randls_11_rotated.json,http://54.235.29.9/FacialAge/BNav_EC2/DepthDuration/v2_depth_duration_MTurk/v2_DepthDuration_HTML.html#368,368,1536,714,1536,864,9-18-2022,11-24-31,11,depth_duration_stimuli/001828_2014-06-26_21-40-03_260595134347_rgbf000024-resize_0/001828_2014-06-26_21-40-03_260595134347_rgbf000024-resize_0-target.png,125,4.8260000000000005,4,3060,130,feet,jsons/VE125_randls_11_rotated.json,724327,1091613,36,Man
11,417131,DepthScenes,duration_manipulation_targetAtFixation,jsons/VE125_randls_11_rotated.json,http://54.235.29.9/FacialAge/BNav_EC2/DepthDuration/v2_depth_duration_MTurk/v2_DepthDuration_HTML.html#368,368,1536,714,1536,864,9-18-2022,11-24-31,12,depth_duration_stimuli/000009_2014-05-26_14-32-05_260595134347_rgbf000034-resize_3/000009_2014-05-26_14-32-05_260595134347_rgbf000034-resize_3-target.png,125,3.8715,3,3985,111,feet,jsons/VE125_randls_11_rotated.json,724327,1091613,36,Man
12,417131,DepthScenes,duration_manipulation_targetAtFixation,jsons/VE125_randls_11_rotated.json,http://54.235.29.9/FacialAge/BNav_EC2/DepthDuration/v2_depth_duration_MTurk/v2_DepthDuration_HTML.html#368,368,1536,714,1536,864,9-18-2022,11-24-31,13,depth_duration_stimuli/000709_2014-06-08_13-51-55_260595134347_rgbf000068-resize_3/000709_2014-06-08_13-51-55_260595134347_rgbf000068-resize_3-target.png,125,1.8030000000000002,2,3052,125,feet,jsons/VE125_randls_11_rotated.json,724327,1091613,36,Man
13,417131,DepthScenes,duration_manipulation_targetAtFixation,jsons/VE125_randls_11_rotated.json,http://54.235.29.9/FacialAge/BNav_EC2/DepthDuration/v2_depth_duration_MTurk/v2_DepthDuration_HTML.html#368,368,1536,714,1536,864,9-18-2022,11-24-31,14,depth_duration_stimuli/002057_2014-06-24_21-00-13_260595134347_rgbf000120-resize_1/002057_2014-06-24_21-00-13_260595134347_rgbf000120-resize_1-target.png,125,2.967,0,4081,117,feet,jsons/VE125_randls_11_rotated.json,724327,1091613,36,Man
14,417131,DepthScenes,duration_manipulation_targetAtFixation,jsons/VE125_randls_11_rotated.json,http://54.235.29.9/FacialAge/BNav_EC2/DepthDuration/v2_depth_duration_MTurk/v2_DepthDuration_HTML.html#368,368,1536,714,1536,864,9-18-2022,11-24-31,15,depth_duration_stimuli/001516_2014-06-20_16-25-09_260595134347_rgbf000076-resize_2/001516_2014-06-20_16-25-09_260595134347_rgbf000076-resize_2-target.png,125,1.7445,2,8935,131,feet,jsons/VE125_randls_11_rotated.json,724327,1091613,36,Man
15,417131,DepthScenes,duration_manipulation_targetAtFixation,jsons/VE125_randls_11_rotated.json,http://54.235.29.9/FacialAge/BNav_EC2/DepthDuration/v2_depth_duration_MTurk/v2_DepthDuration_HTML.html#368,368,1536,714,1536,864,9-18-2022,11-24-31,16,depth_duration_stimuli/002118_2014-06-25_20-32-08_260595134347_rgbf000078-resize_1/002118_2014-06-25_20-32-08_260595134347_rgbf000078-resize_1-target.png,125,2.6460000000000004,1,7275,124,feet,jsons/VE125_randls_11_rotated.json,724327,1091613,36,Man
16,417131,DepthScenes,duration_manipulation_targetAtFixation,jsons/VE125_randls_11_rotated.json,http://54.235.29.9/FacialAge/BNav_EC2/DepthDuration/v2_depth_duration_MTurk/v2_DepthDuration_HTML.html#368,368,1536,714,1536,864,9-18-2022,11-24-31,17,depth_duration_stimuli/003587_2014-05-23_16-48-02_094959634447_rgbf002384-resize_2/003587_2014-05-23_16-48-02_094959634447_rgbf002384-resize_2-target.png,125,1.357,2,3531,111,feet,jsons/VE125_randls_11_rotated.json,724327,1091613,36,Man
17,417131,DepthScenes,duration_manipulation_targetAtFixation,jsons/VE125_randls_11_rotated.json,http://54.235.29.9/FacialAge/BNav_EC2/DepthDuration/v2_depth_duration_MTurk/v2_DepthDuration_HTML.html#368,368,1536,714,1536,864,9-18-2022,11-24-31,18,depth_duration_stimuli/001167_2014-06-17_15-38-07_260595134347_rgbf000108-resize_0/001167_2014-06-17_15-38-07_260595134347_rgbf000108-resize_0-target.png,125,1.8505,2,2800,126,feet,jsons/VE125_randls_11_rotated.json,724327,1091613,36,Man
18,417131,DepthScenes,duration_manipulation_targetAtFixation,jsons/VE125_randls_11_rotated.json,http://54.235.29.9/FacialAge/BNav_EC2/DepthDuration/v2_depth_duration_MTurk/v2_DepthDuration_HTML.html#368,368,1536,714,1536,864,9-18-2022,11-24-31,19,depth_duration_stimuli/001498_2014-06-19_17-45-14_260595134347_rgbf000129-resize_4/001498_2014-06-19_17-45-14_260595134347_rgbf000129-resize-original.jpg,125,1.4075,3,3293,133,feet,jsons/VE125_randls_11_rotated.json,724327,1091613,36,Man
19,417131,DepthScenes,duration_manipulation_targetAtFixation,jsons/VE125_randls_11_rotated.json,http://54.235.29.9/FacialAge/BNav_EC2/DepthDuration/v2_depth_duration_MTurk/v2_DepthDuration_HTML.html#368,368,1536,714,1536,864,9-18-2022,11-24-31,20,depth_duration_stimuli/002678_2014-06-13_16-15-32_094959634447_rgbf000151-resize_6/002678_2014-06-13_16-15-32_094959634447_rgbf000151-resize_6-target.png,125,2.1830000000000003,2,5233,117,feet,jsons/VE125_randls_11_rotated.json,724327,1091613,36,Man
20,417131,DepthScenes,duration_manipulation_targetAtFixation,jsons/VE125_randls_11_rotated.json,http://54.235.29.9/FacialAge/BNav_EC2/DepthDuration/v2_depth_duration_MTurk/v2_DepthDuration_HTML.html#368,368,1536,714,1536,864,9-18-2022,11-24-31,21,depth_duration_stimuli/000368_2014-06-09_15-53-01_260595134347_rgbf000155-resize_2/000368_2014-06-09_15-53-01_260595134347_rgbf000155-resize_2-target.png,125,2.4859999999999998,3,3157,117,feet,jsons/VE125_randls_11_rotated.json,724327,1091613,36,Man
21,417131,DepthScenes,duration_manipulation_targetAtFixation,jsons/VE125_randls_11_rotated.json,http://54.235.29.9/FacialAge/BNav_EC2/DepthDuration/v2_depth_duration_MTurk/v2_DepthDuration_HTML.html#368,368,1536,714,1536,864,9-18-2022,11-24-31,22,depth_duration_stimuli/001235_2014-06-17_16-37-36_260595134347_rgbf000084-resize_4/001235_2014-06-17_16-37-36_260595134347_rgbf000084-resize_4-target.png,125,3.6605,3,3852,127,feet,jsons/VE125_randls_11_rotated.json,724327,1091613,36,Man
22,417131,DepthScenes,duration_manipulation_targetAtFixation,jsons/VE125_randls_11_rotated.json,http://54.235.29.9/FacialAge/BNav_EC2/DepthDuration/v2_depth_duration_MTurk/v2_DepthDuration_HTML.html#368,368,1536,714,1536,864,9-18-2022,11-24-31,23,depth_duration_stimuli/000788_2014-06-08_22-34-36_260595134347_rgbf000131-resize_1/000788_2014-06-08_22-34-36_260595134347_rgbf000131-resize_1-target.png,125,3.359,3,3422,119,feet,jsons/VE125_randls_11_rotated.json,724327,1091613,36,Man
23,417131,DepthScenes,duration_manipulation_targetAtFixation,jsons/VE125_randls_11_rotated.json,http://54.235.29.9/FacialAge/BNav_EC2/DepthDuration/v2_depth_duration_MTurk/v2_DepthDuration_HTML.html#368,368,1536,714,1536,864,9-18-2022,11-24-31,24,depth_duration_stimuli/003083_2014-06-15_15-21-03_094959634447_rgbf000063-resize_1/003083_2014-06-15_15-21-03_094959634447_rgbf000063-resize_1-target.png,125,4.1405,4,24684,122,feet,jsons/VE125_randls_11_rotated.json,724327,1091613,36,Man
24,417131,DepthScenes,duration_manipulation_targetAtFixation,jsons/VE125_randls_11_rotated.json,http://54.235.29.9/FacialAge/BNav_EC2/DepthDuration/v2_depth_duration_MTurk/v2_DepthDuration_HTML.html#368,368,1536,714,1536,864,9-18-2022,11-24-31,25,depth_duration_stimuli/000486_2014-06-09_20-47-20_260595134347_rgbf000143-resize_2/000486_2014-06-09_20-47-20_260595134347_rgbf000143-resize_2-target.png,125,4.8325,0,54606,139,feet,jsons/VE125_randls_11_rotated.json,724327,1091613,36,Man
25,417131,DepthScenes,duration_manipulation_targetAtFixation,jsons/VE125_randls_11_rotated.json,http://54.235.29.9/FacialAge/BNav_EC2/DepthDuration/v2_depth_duration_MTurk/v2_DepthDuration_HTML.html#368,368,1536,714,1536,864,9-18-2022,11-24-31,26,depth_duration_stimuli/002637_2014-06-24_14-51-13_094959634447_rgbf000066-resize_4/002637_2014-06-24_14-51-13_094959634447_rgbf000066-resize_4-target.png,125,1.9955,3,3364,122,feet,jsons/VE125_randls_11_rotated.json,724327,1091613,36,Man
26,417131,DepthScenes,duration_manipulation_targetAtFixation,jsons/VE125_randls_11_rotated.json,http://54.235.29.9/FacialAge/BNav_EC2/DepthDuration/v2_depth_duration_MTurk/v2_DepthDuration_HTML.html#368,368,1536,714,1536,864,9-18-2022,11-24-31,27,depth_duration_stimuli/003534_2014-05-22_15-06-10_094959634447_rgbf000102-resize_4/003534_2014-05-22_15-06-10_094959634447_rgbf000102-resize_4-target.png,125,1.426,0,6001,132,feet,jsons/VE125_randls_11_rotated.json,724327,1091613,36,Man
27,417131,DepthScenes,duration_manipulation_targetAtFixation,jsons/VE125_randls_11_rotated.json,http://54.235.29.9/FacialAge/BNav_EC2/DepthDuration/v2_depth_duration_MTurk/v2_DepthDuration_HTML.html#368,368,1536,714,1536,864,9-18-2022,11-24-31,28,depth_duration_stimuli/001584_2014-06-20_11-07-43_260595134347_rgbf000002-resize_1/001584_2014-06-20_11-07-43_260595134347_rgbf000002-resize_1-target.png,125,3.53,3,3260,138,feet,jsons/VE125_randls_11_rotated.json,724327,1091613,36,Man
28,417131,DepthScenes,duration_manipulation_targetAtFixation,jsons/VE125_randls_11_rotated.json,http://54.235.29.9/FacialAge/BNav_EC2/DepthDuration/v2_depth_duration_MTurk/v2_DepthDuration_HTML.html#368,368,1536,714,1536,864,9-18-2022,11-24-31,29,depth_duration_stimuli/003621_2014-05-23_18-06-08_094959634447_rgbf000101-resize_1/003621_2014-05-23_18-06-08_094959634447_rgbf000101-resize_1-target.png,125,3.9835,3,5672,128,feet,jsons/VE125_randls_11_rotated.json,724327,1091613,36,Man
29,417131,DepthScenes,duration_manipulation_targetAtFixation,jsons/VE125_randls_11_rotated.json,http://54.235.29.9/FacialAge/BNav_EC2/DepthDuration/v2_depth_duration_MTurk/v2_DepthDuration_HTML.html#368,368,1536,714,1536,864,9-18-2022,11-24-31,30,depth_duration_stimuli/002072_2014-06-24_21-48-06_260595134347_rgbf000115-resize_0/002072_2014-06-24_21-48-06_260595134347_rgbf000115-resize-original.jpg,125,4.702,0,2998,128,feet,jsons/VE125_randls_11_rotated.json,724327,1091613,36,Man
30,417131,DepthScenes,duration_manipulation_targetAtFixation,jsons/VE125_randls_11_rotated.json,http://54.235.29.9/FacialAge/BNav_EC2/DepthDuration/v2_depth_duration_MTurk/v2_DepthDuration_HTML.html#368,368,1536,714,1536,864,9-18-2022,11-24-31,31,depth_duration_stimuli/002103_2014-06-25_20-00-40_260595134347_rgbf000049-resize_0/002103_2014-06-25_20-00-40_260595134347_rgbf000049-resize_0-target.png,125,4.105,2,2353,128,feet,jsons/VE125_randls_11_rotated.json,724327,1091613,36,Man
31,417131,DepthScenes,duration_manipulation_targetAtFixation,jsons/VE125_randls_11_rotated.json,http://54.235.29.9/FacialAge/BNav_EC2/DepthDuration/v2_depth_duration_MTurk/v2_DepthDuration_HTML.html#368,368,1536,714,1536,864,9-18-2022,11-24-31,32,depth_duration_stimuli/002039_2014-06-24_20-22-38_260595134347_rgbf000084-resize_1/002039_2014-06-24_20-22-38_260595134347_rgbf000084-resize_1-target.png,125,4.408,2,2053,139,feet,jsons/VE125_randls_11_rotated.json,724327,1091613,36,Man
32,417131,DepthScenes,duration_manipulation_targetAtFixation,jsons/VE125_randls_11_rotated.json,http://54.235.29.9/FacialAge/BNav_EC2/DepthDuration/v2_depth_duration_MTurk/v2_DepthDuration_HTML.html#368,368,1536,714,1536,864,9-18-2022,11-24-31,33,depth_duration_stimuli/000943_2014-06-09_19-31-07_260595134347_rgbf000128-resize_1/000943_2014-06-09_19-31-07_260595134347_rgbf000128-resize_1-target.png,125,1.9765,2,2056,131,feet,jsons/VE125_randls_11_rotated.json,724327,1091613,36,Man
33,417131,DepthScenes,duration_manipulation_targetAtFixation,jsons/VE125_randls_11_rotated.json,http://54.235.29.9/FacialAge/BNav_EC2/DepthDuration/v2_depth_duration_MTurk/v2_DepthDuration_HTML.html#368,368,1536,714,1536,864,9-18-2022,11-24-31,34,depth_duration_stimuli/003070_2014-06-15_14-58-27_094959634447_rgbf000150-resize_3/003070_2014-06-15_14-58-27_094959634447_rgbf000150-resize_3-target.png,125,2.9415,3,3138,136,feet,jsons/VE125_randls_11_rotated.json,724327,1091613,36,Man
34,417131,DepthScenes,duration_manipulation_targetAtFixation,jsons/VE125_randls_11_rotated.json,http://54.235.29.9/FacialAge/BNav_EC2/DepthDuration/v2_depth_duration_MTurk/v2_DepthDuration_HTML.html#368,368,1536,714,1536,864,9-18-2022,11-24-31,35,depth_duration_stimuli/002425_2014-06-28_20-27-29_260595134347_rgbf000031-resize_8/002425_2014-06-28_20-27-29_260595134347_rgbf000031-resize_8-target.png,125,3.8960000000000004,2,2727,140,feet,jsons/VE125_randls_11_rotated.json,724327,1091613,36,Man
35,417131,DepthScenes,duration_manipulation_targetAtFixation,jsons/VE125_randls_11_rotated.json,http://54.235.29.9/FacialAge/BNav_EC2/DepthDuration/v2_depth_duration_MTurk/v2_DepthDuration_HTML.html#368,368,1536,714,1536,864,9-18-2022,11-24-31,36,depth_duration_stimuli/000642_2014-06-08_16-59-25_260595134347_rgbf000098-resize_2/000642_2014-06-08_16-59-25_260595134347_rgbf000098-resize_2-target.png,125,2.8815,3,5122,139,feet,jsons/VE125_randls_11_rotated.json,724327,1091613,36,Man
36,417131,DepthScenes,duration_manipulation_targetAtFixation,jsons/VE125_randls_11_rotated.json,http://54.235.29.9/FacialAge/BNav_EC2/DepthDuration/v2_depth_duration_MTurk/v2_DepthDuration_HTML.html#368,368,1536,714,1536,864,9-18-2022,11-24-31,37,depth_duration_stimuli/002414_2014-06-28_20-24-58_260595134347_rgbf000067-resize_4/002414_2014-06-28_20-24-58_260595134347_rgbf000067-resize_4-target.png,125,4.363,3,3763,122,feet,jsons/VE125_randls_11_rotated.json,724327,1091613,36,Man
37,417131,DepthScenes,duration_manipulation_targetAtFixation,jsons/VE125_randls_11_rotated.json,http://54.235.29.9/FacialAge/BNav_EC2/DepthDuration/v2_depth_duration_MTurk/v2_DepthDuration_HTML.html#368,368,1536,714,1536,864,9-18-2022,11-24-31,38,depth_duration_stimuli/000773_2014-06-08_22-24-54_260595134347_rgbf000093-resize_1/000773_2014-06-08_22-24-54_260595134347_rgbf000093-resize_1-target.png,125,4.973,3,2910,132,feet,jsons/VE125_randls_11_rotated.json,724327,1091613,36,Man
38,417131,DepthScenes,duration_manipulation_targetAtFixation,jsons/VE125_randls_11_rotated.json,http://54.235.29.9/FacialAge/BNav_EC2/DepthDuration/v2_depth_duration_MTurk/v2_DepthDuration_HTML.html#368,368,1536,714,1536,864,9-18-2022,11-24-31,39,depth_duration_stimuli/002209_2014-06-28_18-36-10_260595134347_rgbf000051-resize_1/002209_2014-06-28_18-36-10_260595134347_rgbf000051-resize_1-target.png,125,2.057,2,2537,128,feet,jsons/VE125_randls_11_rotated.json,724327,1091613,36,Man
39,417131,DepthScenes,duration_manipulation_targetAtFixation,jsons/VE125_randls_11_rotated.json,http://54.235.29.9/FacialAge/BNav_EC2/DepthDuration/v2_depth_duration_MTurk/v2_DepthDuration_HTML.html#368,368,1536,714,1536,864,9-18-2022,11-24-31,40,depth_duration_stimuli/002763_2014-06-22_19-13-10_094959634447_rgbf000075-resize_4/002763_2014-06-22_19-13-10_094959634447_rgbf000075-resize_4-target.png,125,1.68375,3,1955,132,feet,jsons/VE125_randls_11_rotated.json,724327,1091613,36,Man
40,417131,DepthScenes,duration_manipulation_targetAtFixation,jsons/VE125_randls_11_rotated.json,http://54.235.29.9/FacialAge/BNav_EC2/DepthDuration/v2_depth_duration_MTurk/v2_DepthDuration_HTML.html#368,368,1536,714,1536,864,9-18-2022,11-24-31,41,depth_duration_stimuli/000556_2014-06-09_22-42-56_260595134347_rgbf000214-resize_1/000556_2014-06-09_22-42-56_260595134347_rgbf000214-resize_1-target.png,125,4.8415,4,3682,132,feet,jsons/VE125_randls_11_rotated.json,724327,1091613,36,Man
41,417131,DepthScenes,duration_manipulation_targetAtFixation,jsons/VE125_randls_11_rotated.json,http://54.235.29.9/FacialAge/BNav_EC2/DepthDuration/v2_depth_duration_MTurk/v2_DepthDuration_HTML.html#368,368,1536,714,1536,864,9-18-2022,11-24-31,42,depth_duration_stimuli/001158_2014-06-17_15-32-16_260595134347_rgbf000138-resize_2/001158_2014-06-17_15-32-16_260595134347_rgbf000138-resize_2-target.png,125,4.5315,7,4717,116,feet,jsons/VE125_randls_11_rotated.json,724327,1091613,36,Man
42,417131,DepthScenes,duration_manipulation_targetAtFixation,jsons/VE125_randls_11_rotated.json,http://54.235.29.9/FacialAge/BNav_EC2/DepthDuration/v2_depth_duration_MTurk/v2_DepthDuration_HTML.html#368,368,1536,714,1536,864,9-18-2022,11-24-31,43,depth_duration_stimuli/000409_2014-06-04_19-23-33_260595134347_rgbf000067-resize_0/000409_2014-06-04_19-23-33_260595134347_rgbf000067-resize_0-target.png,125,3.7335,4,3496,124,feet,jsons/VE125_randls_11_rotated.json,724327,1091613,36,Man
43,417131,DepthScenes,duration_manipulation_targetAtFixation,jsons/VE125_randls_11_rotated.json,http://54.235.29.9/FacialAge/BNav_EC2/DepthDuration/v2_depth_duration_MTurk/v2_DepthDuration_HTML.html#368,368,1536,714,1536,864,9-18-2022,11-24-31,44,depth_duration_stimuli/002663_2014-06-13_15-50-26_094959634447_rgbf000075-resize_1/002663_2014-06-13_15-50-26_094959634447_rgbf000075-resize_1-target.png,125,4.7495,3,2503,124,feet,jsons/VE125_randls_11_rotated.json,724327,1091613,36,Man
44,417131,DepthScenes,duration_manipulation_targetAtFixation,jsons/VE125_randls_11_rotated.json,http://54.235.29.9/FacialAge/BNav_EC2/DepthDuration/v2_depth_duration_MTurk/v2_DepthDuration_HTML.html#368,368,1536,714,1536,864,9-18-2022,11-24-31,45,depth_duration_stimuli/000109_2014-05-14_23-41-52_260595134347_rgbf000035-resize_9/000109_2014-05-14_23-41-52_260595134347_rgbf000035-resize_9-target.png,125,1.3545,3,2946,123,feet,jsons/VE125_randls_11_rotated.json,724327,1091613,36,Man
45,417131,DepthScenes,duration_manipulation_targetAtFixation,jsons/VE125_randls_11_rotated.json,http://54.235.29.9/FacialAge/BNav_EC2/DepthDuration/v2_depth_duration_MTurk/v2_DepthDuration_HTML.html#368,368,1536,714,1536,864,9-18-2022,11-24-31,46,depth_duration_stimuli/000470_2014-06-09_19-42-40_260595134347_rgbf000094-resize_1/000470_2014-06-09_19-42-40_260595134347_rgbf000094-resize_1-target.png,125,1.831,3,3075,123,feet,jsons/VE125_randls_11_rotated.json,724327,1091613,36,Man
46,417131,DepthScenes,duration_manipulation_targetAtFixation,jsons/VE125_randls_11_rotated.json,http://54.235.29.9/FacialAge/BNav_EC2/DepthDuration/v2_depth_duration_MTurk/v2_DepthDuration_HTML.html#368,368,1536,714,1536,864,9-18-2022,11-24-31,47,depth_duration_stimuli/001100_2014-06-15_17-46-26_260595134347_rgbf000225-resize_2/001100_2014-06-15_17-46-26_260595134347_rgbf000225-resize_2-target.png,125,2.24,4,2660,129,feet,jsons/VE125_randls_11_rotated.json,724327,1091613,36,Man
47,417131,DepthScenes,duration_manipulation_targetAtFixation,jsons/VE125_randls_11_rotated.json,http://54.235.29.9/FacialAge/BNav_EC2/DepthDuration/v2_depth_duration_MTurk/v2_DepthDuration_HTML.html#368,368,1536,714,1536,864,9-18-2022,11-24-31,48,depth_duration_stimuli/002784_2014-06-22_19-26-30_094959634447_rgbf000083-resize_3/002784_2014-06-22_19-26-30_094959634447_rgbf000083-resize_3-target.png,125,1.8046666666667,3,2651,120,feet,jsons/VE125_randls_11_rotated.json,724327,1091613,36,Man
48,417131,DepthScenes,duration_manipulation_targetAtFixation,jsons/VE125_randls_11_rotated.json,http://54.235.29.9/FacialAge/BNav_EC2/DepthDuration/v2_depth_duration_MTurk/v2_DepthDuration_HTML.html#368,368,1536,714,1536,864,9-18-2022,11-24-31,49,depth_duration_stimuli/001170_2014-06-17_15-43-44_260595134347_rgbf000096-resize_6/001170_2014-06-17_15-43-44_260595134347_rgbf000096-resize-original.jpg,125,1.1909999999999998,0,2892,127,feet,jsons/VE125_randls_11_rotated.json,724327,1091613,36,Man
49,417131,DepthScenes,duration_manipulation_targetAtFixation,jsons/VE125_randls_11_rotated.json,http://54.235.29.9/FacialAge/BNav_EC2/DepthDuration/v2_depth_duration_MTurk/v2_DepthDuration_HTML.html#368,368,1536,714,1536,864,9-18-2022,11-24-31,50,depth_duration_stimuli/002875_2014-06-01_15-19-00_094959634447_rgbf000151-resize_1/002875_2014-06-01_15-19-00_094959634447_rgbf000151-resize_1-target.png,125,1.9675,5,2512,124,feet,jsons/VE125_randls_11_rotated.json,724327,1091613,36,Man
50,417131,DepthScenes,duration_manipulation_targetAtFixation,jsons/VE125_randls_11_rotated.json,http://54.235.29.9/FacialAge/BNav_EC2/DepthDuration/v2_depth_duration_MTurk/v2_DepthDuration_HTML.html#368,368,1536,714,1536,864,9-18-2022,11-24-31,51,depth_duration_stimuli/001011_2014-06-08_23-18-54_260595134347_rgbf000044-resize_4/001011_2014-06-08_23-18-54_260595134347_rgbf000044-resize_4-target.png,125,2.4730000000000003,4,2650,141,feet,jsons/VE125_randls_11_rotated.json,724327,1091613,36,Man
51,417131,DepthScenes,duration_manipulation_targetAtFixation,jsons/VE125_randls_11_rotated.json,http://54.235.29.9/FacialAge/BNav_EC2/DepthDuration/v2_depth_duration_MTurk/v2_DepthDuration_HTML.html#368,368,1536,714,1536,864,9-18-2022,11-24-31,52,depth_duration_stimuli/001132_2014-06-17_14-48-54_260595134347_rgbf000100-resize_2/001132_2014-06-17_14-48-54_260595134347_rgbf000100-resize_2-target.png,125,3.753,4,2706,126,feet,jsons/VE125_randls_11_rotated.json,724327,1091613,36,Man
52,417131,DepthScenes,duration_manipulation_targetAtFixation,jsons/VE125_randls_11_rotated.json,http://54.235.29.9/FacialAge/BNav_EC2/DepthDuration/v2_depth_duration_MTurk/v2_DepthDuration_HTML.html#368,368,1536,714,1536,864,9-18-2022,11-24-31,53,depth_duration_stimuli/001133_2014-06-17_14-49-16_260595134347_rgbf000100-resize_0/001133_2014-06-17_14-49-16_260595134347_rgbf000100-resize_0-target.png,125,4.2115,5,3928,132,feet,jsons/VE125_randls_11_rotated.json,724327,1091613,36,Man
53,417131,DepthScenes,duration_manipulation_targetAtFixation,jsons/VE125_randls_11_rotated.json,http://54.235.29.9/FacialAge/BNav_EC2/DepthDuration/v2_depth_duration_MTurk/v2_DepthDuration_HTML.html#368,368,1536,714,1536,864,9-18-2022,11-24-31,54,depth_duration_stimuli/000665_2014-06-09_20-42-35_260595134347_rgbf000110-resize_1/000665_2014-06-09_20-42-35_260595134347_rgbf000110-resize_1-target.png,125,3.057,4,2539,129,feet,jsons/VE125_randls_11_rotated.json,724327,1091613,36,Man
54,417131,DepthScenes,duration_manipulation_targetAtFixation,jsons/VE125_randls_11_rotated.json,http://54.235.29.9/FacialAge/BNav_EC2/DepthDuration/v2_depth_duration_MTurk/v2_DepthDuration_HTML.html#368,368,1536,714,1536,864,9-18-2022,11-24-31,55,depth_duration_stimuli/001150_2014-06-17_15-27-34_260595134347_rgbf000108-resize_2/001150_2014-06-17_15-27-34_260595134347_rgbf000108-resize_2-target.png,125,4.0325,5,2793,124,feet,jsons/VE125_randls_11_rotated.json,724327,1091613,36,Man
55,417131,DepthScenes,duration_manipulation_targetAtFixation,jsons/VE125_randls_11_rotated.json,http://54.235.29.9/FacialAge/BNav_EC2/DepthDuration/v2_depth_duration_MTurk/v2_DepthDuration_HTML.html#368,368,1536,714,1536,864,9-18-2022,11-24-31,56,depth_duration_stimuli/001392_2014-06-19_16-07-59_260595134347_rgbf000046-resize_1/001392_2014-06-19_16-07-59_260595134347_rgbf000046-resize_1-target.png,125,4.135,6,2363,109,feet,jsons/VE125_randls_11_rotated.json,724327,1091613,36,Man
56,417131,DepthScenes,duration_manipulation_targetAtFixation,jsons/VE125_randls_11_rotated.json,http://54.235.29.9/FacialAge/BNav_EC2/DepthDuration/v2_depth_duration_MTurk/v2_DepthDuration_HTML.html#368,368,1536,714,1536,864,9-18-2022,11-24-31,57,depth_duration_stimuli/001570_2014-06-20_17-21-09_260595134347_rgbf000135-resize_4/001570_2014-06-20_17-21-09_260595134347_rgbf000135-resize_4-target.png,125,4.467,5,2642,119,feet,jsons/VE125_randls_11_rotated.json,724327,1091613,36,Man
57,417131,DepthScenes,duration_manipulation_targetAtFixation,jsons/VE125_randls_11_rotated.json,http://54.235.29.9/FacialAge/BNav_EC2/DepthDuration/v2_depth_duration_MTurk/v2_DepthDuration_HTML.html#368,368,1536,714,1536,864,9-18-2022,11-24-31,58,depth_duration_stimuli/000691_2014-06-08_13-08-50_260595134347_rgbf000132-resize_3/000691_2014-06-08_13-08-50_260595134347_rgbf000132-resize_3-target.png,125,4.1530000000000005,4,2481,126,feet,jsons/VE125_randls_11_rotated.json,724327,1091613,36,Man
58,417131,DepthScenes,duration_manipulation_targetAtFixation,jsons/VE125_randls_11_rotated.json,http://54.235.29.9/FacialAge/BNav_EC2/DepthDuration/v2_depth_duration_MTurk/v2_DepthDuration_HTML.html#368,368,1536,714,1536,864,9-18-2022,11-24-31,59,depth_duration_stimuli/002213_2014-06-28_18-37-58_260595134347_rgbf000055-resize_1/002213_2014-06-28_18-37-58_260595134347_rgbf000055-resize_1-target.png,125,3.62,5,2559,116,feet,jsons/VE125_randls_11_rotated.json,724327,1091613,36,Man
59,417131,DepthScenes,duration_manipulation_targetAtFixation,jsons/VE125_randls_11_rotated.json,http://54.235.29.9/FacialAge/BNav_EC2/DepthDuration/v2_depth_duration_MTurk/v2_DepthDuration_HTML.html#368,368,1536,714,1536,864,9-18-2022,11-24-31,60,depth_duration_stimuli/002657_2014-06-13_15-29-54_094959634447_rgbf000150-resize_1/002657_2014-06-13_15-29-54_094959634447_rgbf000150-resize_1-target.png,125,4.919,5,3162,120,feet,jsons/VE125_randls_11_rotated.json,724327,1091613,36,Man
60,417131,DepthScenes,duration_manipulation_targetAtFixation,jsons/VE125_randls_11_rotated.json,http://54.235.29.9/FacialAge/BNav_EC2/DepthDuration/v2_depth_duration_MTurk/v2_DepthDuration_HTML.html#368,368,1536,714,1536,864,9-18-2022,11-24-31,61,depth_duration_stimuli/002375_2014-06-28_20-13-44_260595134347_rgbf000032-resize_1/002375_2014-06-28_20-13-44_260595134347_rgbf000032-resize_1-target.png,125,4.0175,3,3338,110,feet,jsons/VE125_randls_11_rotated.json,724327,1091613,36,Man
61,417131,DepthScenes,duration_manipulation_targetAtFixation,jsons/VE125_randls_11_rotated.json,http://54.235.29.9/FacialAge/BNav_EC2/DepthDuration/v2_depth_duration_MTurk/v2_DepthDuration_HTML.html#368,368,1536,714,1536,864,9-18-2022,11-24-31,62,depth_duration_stimuli/002949_2014-06-26_15-57-42_094959634447_rgbf000079-resize_1/002949_2014-06-26_15-57-42_094959634447_rgbf000079-resize_1-target.png,125,1.8915,3,2498,127,feet,jsons/VE125_randls_11_rotated.json,724327,1091613,36,Man
62,417131,DepthScenes,duration_manipulation_targetAtFixation,jsons/VE125_randls_11_rotated.json,http://54.235.29.9/FacialAge/BNav_EC2/DepthDuration/v2_depth_duration_MTurk/v2_DepthDuration_HTML.html#368,368,1536,714,1536,864,9-18-2022,11-24-31,63,depth_duration_stimuli/000522_2014-06-08_13-35-06_260595134347_rgbf000244-resize_1/000522_2014-06-08_13-35-06_260595134347_rgbf000244-resize_1-target.png,125,2.3715,3,2186,139,feet,jsons/VE125_randls_11_rotated.json,724327,1091613,36,Man
63,417131,DepthScenes,duration_manipulation_targetAtFixation,jsons/VE125_randls_11_rotated.json,http://54.235.29.9/FacialAge/BNav_EC2/DepthDuration/v2_depth_duration_MTurk/v2_DepthDuration_HTML.html#368,368,1536,714,1536,864,9-18-2022,11-24-31,64,depth_duration_stimuli/003081_2014-06-15_15-19-16_094959634447_rgbf000150-resize_1/003081_2014-06-15_15-19-16_094959634447_rgbf000150-resize_1-target.png,125,3.9125,4,2681,132,feet,jsons/VE125_randls_11_rotated.json,724327,1091613,36,Man
64,417131,DepthScenes,duration_manipulation_targetAtFixation,jsons/VE125_randls_11_rotated.json,http://54.235.29.9/FacialAge/BNav_EC2/DepthDuration/v2_depth_duration_MTurk/v2_DepthDuration_HTML.html#368,368,1536,714,1536,864,9-18-2022,11-24-31,65,depth_duration_stimuli/001417_2014-06-19_16-25-36_260595134347_rgbf000115-resize_5/001417_2014-06-19_16-25-36_260595134347_rgbf000115-resize_5-target.png,125,4.6255,5,5504,117,feet,jsons/VE125_randls_11_rotated.json,724327,1091613,36,Man
65,417131,DepthScenes,duration_manipulation_targetAtFixation,jsons/VE125_randls_11_rotated.json,http://54.235.29.9/FacialAge/BNav_EC2/DepthDuration/v2_depth_duration_MTurk/v2_DepthDuration_HTML.html#368,368,1536,714,1536,864,9-18-2022,11-24-31,66,depth_duration_stimuli/001540_2014-06-20_17-01-05_260595134347_rgbf000086-resize_2/001540_2014-06-20_17-01-05_260595134347_rgbf000086-resize-original.jpg,125,1.459,0,3238,120,feet,jsons/VE125_randls_11_rotated.json,724327,1091613,36,Man
66,417131,DepthScenes,duration_manipulation_targetAtFixation,jsons/VE125_randls_11_rotated.json,http://54.235.29.9/FacialAge/BNav_EC2/DepthDuration/v2_depth_duration_MTurk/v2_DepthDuration_HTML.html#368,368,1536,714,1536,864,9-18-2022,11-24-31,67,depth_duration_stimuli/002750_2014-06-22_19-08-03_094959634447_rgbf000094-resize_4/002750_2014-06-22_19-08-03_094959634447_rgbf000094-resize_4-target.png,125,2.354,4,3433,128,feet,jsons/VE125_randls_11_rotated.json,724327,1091613,36,Man
67,417131,DepthScenes,duration_manipulation_targetAtFixation,jsons/VE125_randls_11_rotated.json,http://54.235.29.9/FacialAge/BNav_EC2/DepthDuration/v2_depth_duration_MTurk/v2_DepthDuration_HTML.html#368,368,1536,714,1536,864,9-18-2022,11-24-31,68,depth_duration_stimuli/002549_2014-06-24_13-41-39_094959634447_rgbf000022-resize_3/002549_2014-06-24_13-41-39_094959634447_rgbf000022-resize_3-target.png,125,1.476,3,2741,123,feet,jsons/VE125_randls_11_rotated.json,724327,1091613,36,Man
68,417131,DepthScenes,duration_manipulation_targetAtFixation,jsons/VE125_randls_11_rotated.json,http://54.235.29.9/FacialAge/BNav_EC2/DepthDuration/v2_depth_duration_MTurk/v2_DepthDuration_HTML.html#368,368,1536,714,1536,864,9-18-2022,11-24-31,69,depth_duration_stimuli/000677_2014-06-08_23-10-32_260595134347_rgbf000158-resize_6/000677_2014-06-08_23-10-32_260595134347_rgbf000158-resize_6-target.png,125,3.556,4,2866,124,feet,jsons/VE125_randls_11_rotated.json,724327,1091613,36,Man
69,417131,DepthScenes,duration_manipulation_targetAtFixation,jsons/VE125_randls_11_rotated.json,http://54.235.29.9/FacialAge/BNav_EC2/DepthDuration/v2_depth_duration_MTurk/v2_DepthDuration_HTML.html#368,368,1536,714,1536,864,9-18-2022,11-24-31,70,depth_duration_stimuli/001029_2014-06-08_13-17-57_260595134347_rgbf000065-resize_1/001029_2014-06-08_13-17-57_260595134347_rgbf000065-resize_1-target.png,125,3.0835,3,2833,140,feet,jsons/VE125_randls_11_rotated.json,724327,1091613,36,Man
70,417131,DepthScenes,duration_manipulation_targetAtFixation,jsons/VE125_randls_11_rotated.json,http://54.235.29.9/FacialAge/BNav_EC2/DepthDuration/v2_depth_duration_MTurk/v2_DepthDuration_HTML.html#368,368,1536,714,1536,864,9-18-2022,11-24-31,71,depth_duration_stimuli/000866_2014-06-09_20-45-42_260595134347_rgbf000139-resize_1/000866_2014-06-09_20-45-42_260595134347_rgbf000139-resize_1-target.png,125,3.2155,3,2494,135,feet,jsons/VE125_randls_11_rotated.json,724327,1091613,36,Man
71,417131,DepthScenes,duration_manipulation_targetAtFixation,jsons/VE125_randls_11_rotated.json,http://54.235.29.9/FacialAge/BNav_EC2/DepthDuration/v2_depth_duration_MTurk/v2_DepthDuration_HTML.html#368,368,1536,714,1536,864,9-18-2022,11-24-31,72,depth_duration_stimuli/002989_2014-06-15_12-25-03_094959634447_rgbf000150-resize_3/002989_2014-06-15_12-25-03_094959634447_rgbf000150-resize_3-target.png,125,4.1975,4,2525,134,feet,jsons/VE125_randls_11_rotated.json,724327,1091613,36,Man
72,417131,DepthScenes,duration_manipulation_targetAtFixation,jsons/VE125_randls_11_rotated.json,http://54.235.29.9/FacialAge/BNav_EC2/DepthDuration/v2_depth_duration_MTurk/v2_DepthDuration_HTML.html#368,368,1536,714,1536,864,9-18-2022,11-24-31,73,depth_duration_stimuli/003079_2014-06-15_15-18-20_094959634447_rgbf000152-resize_8/003079_2014-06-15_15-18-20_094959634447_rgbf000152-resize_8-target.png,125,2.8775,4,2673,136,feet,jsons/VE125_randls_11_rotated.json,724327,1091613,36,Man
73,417131,DepthScenes,duration_manipulation_targetAtFixation,jsons/VE125_randls_11_rotated.json,http://54.235.29.9/FacialAge/BNav_EC2/DepthDuration/v2_depth_duration_MTurk/v2_DepthDuration_HTML.html#368,368,1536,714,1536,864,9-18-2022,11-24-31,74,depth_duration_stimuli/000506_2014-06-08_23-21-00_260595134347_rgbf000070-resize_7/000506_2014-06-08_23-21-00_260595134347_rgbf000070-resize_7-target.png,125,4.0585,3,2407,119,feet,jsons/VE125_randls_11_rotated.json,724327,1091613,36,Man
74,417131,DepthScenes,duration_manipulation_targetAtFixation,jsons/VE125_randls_11_rotated.json,http://54.235.29.9/FacialAge/BNav_EC2/DepthDuration/v2_depth_duration_MTurk/v2_DepthDuration_HTML.html#368,368,1536,714,1536,864,9-18-2022,11-24-31,75,depth_duration_stimuli/003495_2014-05-21_16-01-51_094959634447_rgbf000100-resize_3/003495_2014-05-21_16-01-51_094959634447_rgbf000100-resize_3-target.png,125,1.6255,3,2386,125,feet,jsons/VE125_randls_11_rotated.json,724327,1091613,36,Man
75,417131,DepthScenes,duration_manipulation_targetAtFixation,jsons/VE125_randls_11_rotated.json,http://54.235.29.9/FacialAge/BNav_EC2/DepthDuration/v2_depth_duration_MTurk/v2_DepthDuration_HTML.html#368,368,1536,714,1536,864,9-18-2022,11-24-31,76,depth_duration_stimuli/001244_2014-06-17_16-47-45_260595134347_rgbf000030-resize_4/001244_2014-06-17_16-47-45_260595134347_rgbf000030-resize_4-target.png,125,2.0425,4,2713,130,feet,jsons/VE125_randls_11_rotated.json,724327,1091613,36,Man
76,417131,DepthScenes,duration_manipulation_targetAtFixation,jsons/VE125_randls_11_rotated.json,http://54.235.29.9/FacialAge/BNav_EC2/DepthDuration/v2_depth_duration_MTurk/v2_DepthDuration_HTML.html#368,368,1536,714,1536,864,9-18-2022,11-24-31,77,depth_duration_stimuli/003228_2014-05-14_13-42-35_094959634447_rgbf000101-resize_1/003228_2014-05-14_13-42-35_094959634447_rgbf000101-resize_1-target.png,125,1.9680000000000002,2,2352,117,feet,jsons/VE125_randls_11_rotated.json,724327,1091613,36,Man
77,417131,DepthScenes,duration_manipulation_targetAtFixation,jsons/VE125_randls_11_rotated.json,http://54.235.29.9/FacialAge/BNav_EC2/DepthDuration/v2_depth_duration_MTurk/v2_DepthDuration_HTML.html#368,368,1536,714,1536,864,9-18-2022,11-24-31,78,depth_duration_stimuli/002600_2014-06-24_14-27-04_094959634447_rgbf000074-resize_2/002600_2014-06-24_14-27-04_094959634447_rgbf000074-resize_2-target.png,125,2.7575,4,2225,125,feet,jsons/VE125_randls_11_rotated.json,724327,1091613,36,Man
78,417131,DepthScenes,duration_manipulation_targetAtFixation,jsons/VE125_randls_11_rotated.json,http://54.235.29.9/FacialAge/BNav_EC2/DepthDuration/v2_depth_duration_MTurk/v2_DepthDuration_HTML.html#368,368,1536,714,1536,864,9-18-2022,11-24-31,79,depth_duration_stimuli/000854_2014-06-09_19-43-13_260595134347_rgbf000066-resize_0/000854_2014-06-09_19-43-13_260595134347_rgbf000066-resize_0-target.png,125,3.068,0,3049,126,feet,jsons/VE125_randls_11_rotated.json,724327,1091613,36,Man
79,417131,DepthScenes,duration_manipulation_targetAtFixation,jsons/VE125_randls_11_rotated.json,http://54.235.29.9/FacialAge/BNav_EC2/DepthDuration/v2_depth_duration_MTurk/v2_DepthDuration_HTML.html#368,368,1536,714,1536,864,9-18-2022,11-24-31,80,depth_duration_stimuli/000758_2014-06-08_22-05-08_260595134347_rgbf000085-resize_0/000758_2014-06-08_22-05-08_260595134347_rgbf000085-resize_0-target.png,125,3.3810000000000002,6,3816,125,feet,jsons/VE125_randls_11_rotated.json,724327,1091613,36,Man
80,417131,DepthScenes,duration_manipulation_targetAtFixation,jsons/VE125_randls_11_rotated.json,http://54.235.29.9/FacialAge/BNav_EC2/DepthDuration/v2_depth_duration_MTurk/v2_DepthDuration_HTML.html#368,368,1536,714,1536,864,9-18-2022,11-24-31,81,depth_duration_stimuli/001617_2014-06-20_11-35-32_260595134347_rgbf000066-resize_1/001617_2014-06-20_11-35-32_260595134347_rgbf000066-resize_1-target.png,125,3.7910000000000004,4,2936,124,feet,jsons/VE125_randls_11_rotated.json,724327,1091613,36,Man
81,417131,DepthScenes,duration_manipulation_targetAtFixation,jsons/VE125_randls_11_rotated.json,http://54.235.29.9/FacialAge/BNav_EC2/DepthDuration/v2_depth_duration_MTurk/v2_DepthDuration_HTML.html#368,368,1536,714,1536,864,9-18-2022,11-24-31,82,depth_duration_stimuli/001806_2014-06-26_20-50-20_260595134347_rgbf000091-resize_1/001806_2014-06-26_20-50-20_260595134347_rgbf000091-resize_1-target.png,125,2.7305,3,2410,109,feet,jsons/VE125_randls_11_rotated.json,724327,1091613,36,Man
82,417131,DepthScenes,duration_manipulation_targetAtFixation,jsons/VE125_randls_11_rotated.json,http://54.235.29.9/FacialAge/BNav_EC2/DepthDuration/v2_depth_duration_MTurk/v2_DepthDuration_HTML.html#368,368,1536,714,1536,864,9-18-2022,11-24-31,83,depth_duration_stimuli/001815_2014-06-26_20-52-55_260595134347_rgbf000020-resize_0/001815_2014-06-26_20-52-55_260595134347_rgbf000020-resize_0-target.png,125,3.3865,4,2609,125,feet,jsons/VE125_randls_11_rotated.json,724327,1091613,36,Man
83,417131,DepthScenes,duration_manipulation_targetAtFixation,jsons/VE125_randls_11_rotated.json,http://54.235.29.9/FacialAge/BNav_EC2/DepthDuration/v2_depth_duration_MTurk/v2_DepthDuration_HTML.html#368,368,1536,714,1536,864,9-18-2022,11-24-31,84,depth_duration_stimuli/001808_2014-06-26_20-50-58_260595134347_rgbf000029-resize_1/001808_2014-06-26_20-50-58_260595134347_rgbf000029-resize_1-target.png,125,4.249,5,2857,124,feet,jsons/VE125_randls_11_rotated.json,724327,1091613,36,Man
84,417131,DepthScenes,duration_manipulation_targetAtFixation,jsons/VE125_randls_11_rotated.json,http://54.235.29.9/FacialAge/BNav_EC2/DepthDuration/v2_depth_duration_MTurk/v2_DepthDuration_HTML.html#368,368,1536,714,1536,864,9-18-2022,11-24-31,85,depth_duration_stimuli/001052_2014-06-08_18-24-54_260595134347_rgbf000130-resize_1/001052_2014-06-08_18-24-54_260595134347_rgbf000130-resize_1-target.png,125,4.1045,5,3163,117,feet,jsons/VE125_randls_11_rotated.json,724327,1091613,36,Man
85,417131,DepthScenes,duration_manipulation_targetAtFixation,jsons/VE125_randls_11_rotated.json,http://54.235.29.9/FacialAge/BNav_EC2/DepthDuration/v2_depth_duration_MTurk/v2_DepthDuration_HTML.html#368,368,1536,714,1536,864,9-18-2022,11-24-31,86,depth_duration_stimuli/002988_2014-06-15_12-24-20_094959634447_rgbf000150-resize_1/002988_2014-06-15_12-24-20_094959634447_rgbf000150-resize_1-target.png,125,4.7669999999999995,7,2675,126,feet,jsons/VE125_randls_11_rotated.json,724327,1091613,36,Man
86,417131,DepthScenes,duration_manipulation_targetAtFixation,jsons/VE125_randls_11_rotated.json,http://54.235.29.9/FacialAge/BNav_EC2/DepthDuration/v2_depth_duration_MTurk/v2_DepthDuration_HTML.html#368,368,1536,714,1536,864,9-18-2022,11-24-31,87,depth_duration_stimuli/002995_2014-06-15_12-31-26_094959634447_rgbf000150-resize_1/002995_2014-06-15_12-31-26_094959634447_rgbf000150-resize_1-target.png,125,3.8360000000000003,6,2565,129,feet,jsons/VE125_randls_11_rotated.json,724327,1091613,36,Man
87,417131,DepthScenes,duration_manipulation_targetAtFixation,jsons/VE125_randls_11_rotated.json,http://54.235.29.9/FacialAge/BNav_EC2/DepthDuration/v2_depth_duration_MTurk/v2_DepthDuration_HTML.html#368,368,1536,714,1536,864,9-18-2022,11-24-31,88,depth_duration_stimuli/002748_2014-06-22_19-07-22_094959634447_rgbf000078-resize_1/002748_2014-06-22_19-07-22_094959634447_rgbf000078-resize_1-target.png,125,4.6705,7,2634,125,feet,jsons/VE125_randls_11_rotated.json,724327,1091613,36,Man
88,417131,DepthScenes,duration_manipulation_targetAtFixation,jsons/VE125_randls_11_rotated.json,http://54.235.29.9/FacialAge/BNav_EC2/DepthDuration/v2_depth_duration_MTurk/v2_DepthDuration_HTML.html#368,368,1536,714,1536,864,9-18-2022,11-24-31,89,depth_duration_stimuli/002568_2014-06-24_13-59-21_094959634447_rgbf000062-resize_4/002568_2014-06-24_13-59-21_094959634447_rgbf000062-resize_4-target.png,125,3.015,5,2505,138,feet,jsons/VE125_randls_11_rotated.json,724327,1091613,36,Man
89,417131,DepthScenes,duration_manipulation_targetAtFixation,jsons/VE125_randls_11_rotated.json,http://54.235.29.9/FacialAge/BNav_EC2/DepthDuration/v2_depth_duration_MTurk/v2_DepthDuration_HTML.html#368,368,1536,714,1536,864,9-18-2022,11-24-31,90,depth_duration_stimuli/003492_2014-05-21_15-50-55_094959634447_rgbf000828-resize_1/003492_2014-05-21_15-50-55_094959634447_rgbf000828-resize_1-target.png,125,4.06875,6,2442,129,feet,jsons/VE125_randls_11_rotated.json,724327,1091613,36,Man
90,417131,DepthScenes,duration_manipulation_targetAtFixation,jsons/VE125_randls_11_rotated.json,http://54.235.29.9/FacialAge/BNav_EC2/DepthDuration/v2_depth_duration_MTurk/v2_DepthDuration_HTML.html#368,368,1536,714,1536,864,9-18-2022,11-24-31,91,depth_duration_stimuli/001136_2014-06-17_15-19-41_260595134347_rgbf000076-resize_3/001136_2014-06-17_15-19-41_260595134347_rgbf000076-resize_3-target.png,125,1.8655,4,2795,129,feet,jsons/VE125_randls_11_rotated.json,724327,1091613,36,Man
91,417131,DepthScenes,duration_manipulation_targetAtFixation,jsons/VE125_randls_11_rotated.json,http://54.235.29.9/FacialAge/BNav_EC2/DepthDuration/v2_depth_duration_MTurk/v2_DepthDuration_HTML.html#368,368,1536,714,1536,864,9-18-2022,11-24-31,92,depth_duration_stimuli/001164_2014-06-17_15-35-46_260595134347_rgbf000085-resize_3/001164_2014-06-17_15-35-46_260595134347_rgbf000085-resize_3-target.png,125,2.354,7,2824,124,feet,jsons/VE125_randls_11_rotated.json,724327,1091613,36,Man
92,417131,DepthScenes,duration_manipulation_targetAtFixation,jsons/VE125_randls_11_rotated.json,http://54.235.29.9/FacialAge/BNav_EC2/DepthDuration/v2_depth_duration_MTurk/v2_DepthDuration_HTML.html#368,368,1536,714,1536,864,9-18-2022,11-24-31,93,depth_duration_stimuli/002199_2014-06-28_18-33-56_260595134347_rgbf000074-resize_0/002199_2014-06-28_18-33-56_260595134347_rgbf000074-resize_0-target.png,125,1.996,3,2448,132,feet,jsons/VE125_randls_11_rotated.json,724327,1091613,36,Man
93,417131,DepthScenes,duration_manipulation_targetAtFixation,jsons/VE125_randls_11_rotated.json,http://54.235.29.9/FacialAge/BNav_EC2/DepthDuration/v2_depth_duration_MTurk/v2_DepthDuration_HTML.html#368,368,1536,714,1536,864,9-18-2022,11-24-31,94,depth_duration_stimuli/001056_2014-06-08_18-46-44_260595134347_rgbf000068-resize_0/001056_2014-06-08_18-46-44_260595134347_rgbf000068-resize_0-target.png,125,2.6625,5,2794,136,feet,jsons/VE125_randls_11_rotated.json,724327,1091613,36,Man
94,417131,DepthScenes,duration_manipulation_targetAtFixation,jsons/VE125_randls_11_rotated.json,http://54.235.29.9/FacialAge/BNav_EC2/DepthDuration/v2_depth_duration_MTurk/v2_DepthDuration_HTML.html#368,368,1536,714,1536,864,9-18-2022,11-24-31,95,depth_duration_stimuli/002444_2014-06-28_20-32-08_260595134347_rgbf000027-resize_0/002444_2014-06-28_20-32-08_260595134347_rgbf000027-resize_0-target.png,125,4.388999999999999,6,3276,120,feet,jsons/VE125_randls_11_rotated.json,724327,1091613,36,Man
95,417131,DepthScenes,duration_manipulation_targetAtFixation,jsons/VE125_randls_11_rotated.json,http://54.235.29.9/FacialAge/BNav_EC2/DepthDuration/v2_depth_duration_MTurk/v2_DepthDuration_HTML.html#368,368,1536,714,1536,864,9-18-2022,11-24-31,96,depth_duration_stimuli/000436_2014-06-09_22-25-11_260595134347_rgbf000137-resize_1/000436_2014-06-09_22-25-11_260595134347_rgbf000137-resize_1-target.png,125,4.0705,8,2965,113,feet,jsons/VE125_randls_11_rotated.json,724327,1091613,36,Man
96,417131,DepthScenes,duration_manipulation_targetAtFixation,jsons/VE125_randls_11_rotated.json,http://54.235.29.9/FacialAge/BNav_EC2/DepthDuration/v2_depth_duration_MTurk/v2_DepthDuration_HTML.html#368,368,1536,714,1536,864,9-18-2022,11-24-31,97,depth_duration_stimuli/000742_2014-06-08_18-48-09_260595134347_rgbf000164-resize_4/000742_2014-06-08_18-48-09_260595134347_rgbf000164-resize_4-target.png,125,4.632,6,2980,137,feet,jsons/VE125_randls_11_rotated.json,724327,1091613,36,Man
97,417131,DepthScenes,duration_manipulation_targetAtFixation,jsons/VE125_randls_11_rotated.json,http://54.235.29.9/FacialAge/BNav_EC2/DepthDuration/v2_depth_duration_MTurk/v2_DepthDuration_HTML.html#368,368,1536,714,1536,864,9-18-2022,11-24-31,98,depth_duration_stimuli/001066_2014-06-08_22-03-20_260595134347_rgbf000066-resize_4/001066_2014-06-08_22-03-20_260595134347_rgbf000066-resize_4-target.png,125,4.2330000000000005,6,2702,119,feet,jsons/VE125_randls_11_rotated.json,724327,1091613,36,Man
98,417131,DepthScenes,duration_manipulation_targetAtFixation,jsons/VE125_randls_11_rotated.json,http://54.235.29.9/FacialAge/BNav_EC2/DepthDuration/v2_depth_duration_MTurk/v2_DepthDuration_HTML.html#368,368,1536,714,1536,864,9-18-2022,11-24-31,99,depth_duration_stimuli/001222_2014-06-17_16-24-06_260595134347_rgbf000073-resize_0/001222_2014-06-17_16-24-06_260595134347_rgbf000073-resize-original.jpg,125,1.4385,0,2580,120,feet,jsons/VE125_randls_11_rotated.json,724327,1091613,36,Man
99,417131,DepthScenes,duration_manipulation_targetAtFixation,jsons/VE125_randls_11_rotated.json,http://54.235.29.9/FacialAge/BNav_EC2/DepthDuration/v2_depth_duration_MTurk/v2_DepthDuration_HTML.html#368,368,1536,714,1536,864,9-18-2022,11-24-31,100,depth_duration_stimuli/002467_2014-06-28_20-38-07_260595134347_rgbf000026-resize_2/002467_2014-06-28_20-38-07_260595134347_rgbf000026-resize_2-target.png,125,4.742,5,3383,109,feet,jsons/VE125_randls_11_rotated.json,724327,1091613,36,Man
100,417131,DepthScenes,duration_manipulation_targetAtFixation,jsons/VE125_randls_11_rotated.json,http://54.235.29.9/FacialAge/BNav_EC2/DepthDuration/v2_depth_duration_MTurk/v2_DepthDuration_HTML.html#368,368,1536,714,1536,864,9-18-2022,11-24-31,101,depth_duration_stimuli/002570_2014-06-24_13-59-54_094959634447_rgbf000059-resize_0/002570_2014-06-24_13-59-54_094959634447_rgbf000059-resize_0-target.png,125,4.037,6,2754,119,feet,jsons/VE125_randls_11_rotated.json,724327,1091613,36,Man
101,417131,DepthScenes,duration_manipulation_targetAtFixation,jsons/VE125_randls_11_rotated.json,http://54.235.29.9/FacialAge/BNav_EC2/DepthDuration/v2_depth_duration_MTurk/v2_DepthDuration_HTML.html#368,368,1536,714,1536,864,9-18-2022,11-24-31,102,depth_duration_stimuli/000483_2014-06-09_20-41-45_260595134347_rgbf000116-resize_4/000483_2014-06-09_20-41-45_260595134347_rgbf000116-resize_4-target.png,125,1.337,2,3901,119,feet,jsons/VE125_randls_11_rotated.json,724327,1091613,36,Man
102,417131,DepthScenes,duration_manipulation_targetAtFixation,jsons/VE125_randls_11_rotated.json,http://54.235.29.9/FacialAge/BNav_EC2/DepthDuration/v2_depth_duration_MTurk/v2_DepthDuration_HTML.html#368,368,1536,714,1536,864,9-18-2022,11-24-31,103,depth_duration_stimuli/000469_2014-06-09_19-42-10_260595134347_rgbf000081-resize_1/000469_2014-06-09_19-42-10_260595134347_rgbf000081-resize_1-target.png,125,1.652,2,1984,134,feet,jsons/VE125_randls_11_rotated.json,724327,1091613,36,Man
103,417131,DepthScenes,duration_manipulation_targetAtFixation,jsons/VE125_randls_11_rotated.json,http://54.235.29.9/FacialAge/BNav_EC2/DepthDuration/v2_depth_duration_MTurk/v2_DepthDuration_HTML.html#368,368,1536,714,1536,864,9-18-2022,11-24-31,104,depth_duration_stimuli/002340_2014-06-28_20-05-46_260595134347_rgbf000113-resize_0/002340_2014-06-28_20-05-46_260595134347_rgbf000113-resize_0-target.png,125,2.4735,4,2865,130,feet,jsons/VE125_randls_11_rotated.json,724327,1091613,36,Man
104,417131,DepthScenes,duration_manipulation_targetAtFixation,jsons/VE125_randls_11_rotated.json,http://54.235.29.9/FacialAge/BNav_EC2/DepthDuration/v2_depth_duration_MTurk/v2_DepthDuration_HTML.html#368,368,1536,714,1536,864,9-18-2022,11-24-31,105,depth_duration_stimuli/001016_2014-06-09_16-16-10_260595134347_rgbf000112-resize_5/001016_2014-06-09_16-16-10_260595134347_rgbf000112-resize_5-target.png,125,1.6565,4,2593,138,feet,jsons/VE125_randls_11_rotated.json,724327,1091613,36,Man
105,417131,DepthScenes,duration_manipulation_targetAtFixation,jsons/VE125_randls_11_rotated.json,http://54.235.29.9/FacialAge/BNav_EC2/DepthDuration/v2_depth_duration_MTurk/v2_DepthDuration_HTML.html#368,368,1536,714,1536,864,9-18-2022,11-24-31,106,depth_duration_stimuli/000502_2014-06-08_23-02-32_260595134347_rgbf000063-resize_4/000502_2014-06-08_23-02-32_260595134347_rgbf000063-resize_4-target.png,125,2.431,3,2548,127,feet,jsons/VE125_randls_11_rotated.json,724327,1091613,36,Man
106,417131,DepthScenes,duration_manipulation_targetAtFixation,jsons/VE125_randls_11_rotated.json,http://54.235.29.9/FacialAge/BNav_EC2/DepthDuration/v2_depth_duration_MTurk/v2_DepthDuration_HTML.html#368,368,1536,714,1536,864,9-18-2022,11-24-31,107,depth_duration_stimuli/001199_2014-06-17_16-03-48_260595134347_rgbf000077-resize_0/001199_2014-06-17_16-03-48_260595134347_rgbf000077-resize_0-target.png,125,3.4375,4,2789,121,feet,jsons/VE125_randls_11_rotated.json,724327,1091613,36,Man
107,417131,DepthScenes,duration_manipulation_targetAtFixation,jsons/VE125_randls_11_rotated.json,http://54.235.29.9/FacialAge/BNav_EC2/DepthDuration/v2_depth_duration_MTurk/v2_DepthDuration_HTML.html#368,368,1536,714,1536,864,9-18-2022,11-24-31,108,depth_duration_stimuli/001450_2014-06-19_17-02-03_260595134347_rgbf000203-resize_4/001450_2014-06-19_17-02-03_260595134347_rgbf000203-resize_4-target.png,125,4.0106666666667,5,2504,131,feet,jsons/VE125_randls_11_rotated.json,724327,1091613,36,Man
108,417131,DepthScenes,duration_manipulation_targetAtFixation,jsons/VE125_randls_11_rotated.json,http://54.235.29.9/FacialAge/BNav_EC2/DepthDuration/v2_depth_duration_MTurk/v2_DepthDuration_HTML.html#368,368,1536,714,1536,864,9-18-2022,11-24-31,109,depth_duration_stimuli/001449_2014-06-19_17-01-27_260595134347_rgbf000116-resize_2/001449_2014-06-19_17-01-27_260595134347_rgbf000116-resize_2-target.png,125,3.452,5,2426,110,feet,jsons/VE125_randls_11_rotated.json,724327,1091613,36,Man
109,417131,DepthScenes,duration_manipulation_targetAtFixation,jsons/VE125_randls_11_rotated.json,http://54.235.29.9/FacialAge/BNav_EC2/DepthDuration/v2_depth_duration_MTurk/v2_DepthDuration_HTML.html#368,368,1536,714,1536,864,9-18-2022,11-24-31,110,depth_duration_stimuli/000191_2014-05-12_17-07-38_260595134347_rgbf000199-resize_0/000191_2014-05-12_17-07-38_260595134347_rgbf000199-resize_0-target.png,125,3.7995,5,2601,126,feet,jsons/VE125_randls_11_rotated.json,724327,1091613,36,Man
110,417131,DepthScenes,duration_manipulation_targetAtFixation,jsons/VE125_randls_11_rotated.json,http://54.235.29.9/FacialAge/BNav_EC2/DepthDuration/v2_depth_duration_MTurk/v2_DepthDuration_HTML.html#368,368,1536,714,1536,864,9-18-2022,11-24-31,111,depth_duration_stimuli/000493_2014-06-09_21-01-18_260595134347_rgbf000196-resize_3/000493_2014-06-09_21-01-18_260595134347_rgbf000196-resize_3-target.png,125,3.44,5,2161,120,feet,jsons/VE125_randls_11_rotated.json,724327,1091613,36,Man
111,417131,DepthScenes,duration_manipulation_targetAtFixation,jsons/VE125_randls_11_rotated.json,http://54.235.29.9/FacialAge/BNav_EC2/DepthDuration/v2_depth_duration_MTurk/v2_DepthDuration_HTML.html#368,368,1536,714,1536,864,9-18-2022,11-24-31,112,depth_duration_stimuli/001094_2014-06-15_17-36-00_260595134347_rgbf000205-resize_0/001094_2014-06-15_17-36-00_260595134347_rgbf000205-resize_0-target.png,125,4.2175,8,2561,118,feet,jsons/VE125_randls_11_rotated.json,724327,1091613,36,Man
112,417131,DepthScenes,duration_manipulation_targetAtFixation,jsons/VE125_randls_11_rotated.json,http://54.235.29.9/FacialAge/BNav_EC2/DepthDuration/v2_depth_duration_MTurk/v2_DepthDuration_HTML.html#368,368,1536,714,1536,864,9-18-2022,11-24-31,113,depth_duration_stimuli/000692_2014-06-08_13-09-42_260595134347_rgbf000199-resize_2/000692_2014-06-08_13-09-42_260595134347_rgbf000199-resize_2-target.png,125,3.661,0,53511,123,feet,jsons/VE125_randls_11_rotated.json,724327,1091613,36,Man
113,417131,DepthScenes,duration_manipulation_targetAtFixation,jsons/VE125_randls_11_rotated.json,http://54.235.29.9/FacialAge/BNav_EC2/DepthDuration/v2_depth_duration_MTurk/v2_DepthDuration_HTML.html#368,368,1536,714,1536,864,9-18-2022,11-24-31,114,depth_duration_stimuli/000457_2014-06-08_16-52-43_260595134347_rgbf000199-resize_1/000457_2014-06-08_16-52-43_260595134347_rgbf000199-resize_1-target.png,125,3.6489999999999996,4,3836,120,feet,jsons/VE125_randls_11_rotated.json,724327,1091613,36,Man
114,417131,DepthScenes,duration_manipulation_targetAtFixation,jsons/VE125_randls_11_rotated.json,http://54.235.29.9/FacialAge/BNav_EC2/DepthDuration/v2_depth_duration_MTurk/v2_DepthDuration_HTML.html#368,368,1536,714,1536,864,9-18-2022,11-24-31,115,depth_duration_stimuli/000929_2014-06-09_16-33-19_260595134347_rgbf000139-resize_0/000929_2014-06-09_16-33-19_260595134347_rgbf000139-resize_0-target.png,125,2.8680000000000003,4,3401,125,feet,jsons/VE125_randls_11_rotated.json,724327,1091613,36,Man
115,417131,DepthScenes,duration_manipulation_targetAtFixation,jsons/VE125_randls_11_rotated.json,http://54.235.29.9/FacialAge/BNav_EC2/DepthDuration/v2_depth_duration_MTurk/v2_DepthDuration_HTML.html#368,368,1536,714,1536,864,9-18-2022,11-24-31,116,depth_duration_stimuli/001032_2014-06-08_13-23-17_260595134347_rgbf000021-resize_3/001032_2014-06-08_13-23-17_260595134347_rgbf000021-resize_3-target.png,125,3.2725,4,3558,124,feet,jsons/VE125_randls_11_rotated.json,724327,1091613,36,Man
116,417131,DepthScenes,duration_manipulation_targetAtFixation,jsons/VE125_randls_11_rotated.json,http://54.235.29.9/FacialAge/BNav_EC2/DepthDuration/v2_depth_duration_MTurk/v2_DepthDuration_HTML.html#368,368,1536,714,1536,864,9-18-2022,11-24-31,117,depth_duration_stimuli/001059_2014-06-08_21-53-27_260595134347_rgbf000061-resize_4/001059_2014-06-08_21-53-27_260595134347_rgbf000061-resize_4-target.png,125,2.4185,4,3121,128,feet,jsons/VE125_randls_11_rotated.json,724327,1091613,36,Man
117,417131,DepthScenes,duration_manipulation_targetAtFixation,jsons/VE125_randls_11_rotated.json,http://54.235.29.9/FacialAge/BNav_EC2/DepthDuration/v2_depth_duration_MTurk/v2_DepthDuration_HTML.html#368,368,1536,714,1536,864,9-18-2022,11-24-31,118,depth_duration_stimuli/001650_2014-06-20_12-09-00_260595134347_rgbf000087-resize_3/001650_2014-06-20_12-09-00_260595134347_rgbf000087-resize_3-target.png,125,1.9505,2,2979,118,feet,jsons/VE125_randls_11_rotated.json,724327,1091613,36,Man
118,417131,DepthScenes,duration_manipulation_targetAtFixation,jsons/VE125_randls_11_rotated.json,http://54.235.29.9/FacialAge/BNav_EC2/DepthDuration/v2_depth_duration_MTurk/v2_DepthDuration_HTML.html#368,368,1536,714,1536,864,9-18-2022,11-24-31,119,depth_duration_stimuli/000682_2014-06-08_23-14-58_260595134347_rgbf000041-resize_5/000682_2014-06-08_23-14-58_260595134347_rgbf000041-resize_5-target.png,125,2.7239999999999998,4,2992,120,feet,jsons/VE125_randls_11_rotated.json,724327,1091613,36,Man
119,417131,DepthScenes,duration_manipulation_targetAtFixation,jsons/VE125_randls_11_rotated.json,http://54.235.29.9/FacialAge/BNav_EC2/DepthDuration/v2_depth_duration_MTurk/v2_DepthDuration_HTML.html#368,368,1536,714,1536,864,9-18-2022,11-24-31,120,depth_duration_stimuli/000787_2014-06-08_22-33-53_260595134347_rgbf000175-resize_1/000787_2014-06-08_22-33-53_260595134347_rgbf000175-resize-original.jpg,125,4.784,0,3044,126,feet,jsons/VE125_randls_11_rotated.json,724327,1091613,36,Man
120,417131,DepthScenes,duration_manipulation_targetAtFixation,jsons/VE125_randls_11_rotated.json,http://54.235.29.9/FacialAge/BNav_EC2/DepthDuration/v2_depth_duration_MTurk/v2_DepthDuration_HTML.html#368,368,1536,714,1536,864,9-18-2022,11-24-31,121,depth_duration_stimuli/002136_2014-06-25_21-18-03_260595134347_rgbf000109-resize_3/002136_2014-06-25_21-18-03_260595134347_rgbf000109-resize_3-target.png,125,1.9569999999999999,3,3609,129,feet,jsons/VE125_randls_11_rotated.json,724327,1091613,36,Man
121,417131,DepthScenes,duration_manipulation_targetAtFixation,jsons/VE125_randls_11_rotated.json,http://54.235.29.9/FacialAge/BNav_EC2/DepthDuration/v2_depth_duration_MTurk/v2_DepthDuration_HTML.html#368,368,1536,714,1536,864,9-18-2022,11-24-31,122,depth_duration_stimuli/002964_2014-06-08_17-46-11_094959634447_rgbf000091-resize_4/002964_2014-06-08_17-46-11_094959634447_rgbf000091-resize_4-target.png,125,1.6909999999999998,2,2160,130,feet,jsons/VE125_randls_11_rotated.json,724327,1091613,36,Man
122,417131,DepthScenes,duration_manipulation_targetAtFixation,jsons/VE125_randls_11_rotated.json,http://54.235.29.9/FacialAge/BNav_EC2/DepthDuration/v2_depth_duration_MTurk/v2_DepthDuration_HTML.html#368,368,1536,714,1536,864,9-18-2022,11-24-31,123,depth_duration_stimuli/003490_2014-05-21_15-50-11_094959634447_rgbf000101-resize_3/003490_2014-05-21_15-50-11_094959634447_rgbf000101-resize_3-target.png,125,3.6445,7,2494,135,feet,jsons/VE125_randls_11_rotated.json,724327,1091613,36,Man
123,417131,DepthScenes,duration_manipulation_targetAtFixation,jsons/VE125_randls_11_rotated.json,http://54.235.29.9/FacialAge/BNav_EC2/DepthDuration/v2_depth_duration_MTurk/v2_DepthDuration_HTML.html#368,368,1536,714,1536,864,9-18-2022,11-24-31,124,depth_duration_stimuli/001175_2014-06-17_15-45-55_260595134347_rgbf000129-resize_4/001175_2014-06-17_15-45-55_260595134347_rgbf000129-resize_4-target.png,125,4.255,10,7330,130,feet,jsons/VE125_randls_11_rotated.json,724327,1091613,36,Man
124,417131,DepthScenes,duration_manipulation_targetAtFixation,jsons/VE125_randls_11_rotated.json,http://54.235.29.9/FacialAge/BNav_EC2/DepthDuration/v2_depth_duration_MTurk/v2_DepthDuration_HTML.html#368,368,1536,714,1536,864,9-18-2022,11-24-31,125,depth_duration_stimuli/000635_2014-06-08_16-38-42_260595134347_rgbf000106-resize_1/000635_2014-06-08_16-38-42_260595134347_rgbf000106-resize_1-target.png,125,2.074,7,3249,139,feet,jsons/VE125_randls_11_rotated.json,724327,1091613,36,Man
125,417131,DepthScenes,duration_manipulation_targetAtFixation,jsons/VE125_randls_11_rotated.json,http://54.235.29.9/FacialAge/BNav_EC2/DepthDuration/v2_depth_duration_MTurk/v2_DepthDuration_HTML.html#368,368,1536,714,1536,864,9-18-2022,11-24-31,126,depth_duration_stimuli/002279_2014-06-28_18-55-32_260595134347_rgbf000040-resize_5/002279_2014-06-28_18-55-32_260595134347_rgbf000040-resize_5-target.png,125,1.5043333333333,3,2493,130,feet,jsons/VE125_randls_11_rotated.json,724327,1091613,36,Man
126,417131,DepthScenes,duration_manipulation_targetAtFixation,jsons/VE125_randls_11_rotated.json,http://54.235.29.9/FacialAge/BNav_EC2/DepthDuration/v2_depth_duration_MTurk/v2_DepthDuration_HTML.html#368,368,1536,714,1536,864,9-18-2022,11-24-31,127,depth_duration_stimuli/000780_2014-06-08_22-28-29_260595134347_rgbf000126-resize_1/000780_2014-06-08_22-28-29_260595134347_rgbf000126-resize_1-target.png,125,3.3825,5,2600,134,feet,jsons/VE125_randls_11_rotated.json,724327,1091613,36,Man
127,417131,DepthScenes,duration_manipulation_targetAtFixation,jsons/VE125_randls_11_rotated.json,http://54.235.29.9/FacialAge/BNav_EC2/DepthDuration/v2_depth_duration_MTurk/v2_DepthDuration_HTML.html#368,368,1536,714,1536,864,9-18-2022,11-24-31,128,depth_duration_stimuli/002445_2014-06-28_20-32-16_260595134347_rgbf000029-resize_4/002445_2014-06-28_20-32-16_260595134347_rgbf000029-resize_4-target.png,125,2.5315,3,2840,129,feet,jsons/VE125_randls_11_rotated.json,724327,1091613,36,Man
128,417131,DepthScenes,duration_manipulation_targetAtFixation,jsons/VE125_randls_11_rotated.json,http://54.235.29.9/FacialAge/BNav_EC2/DepthDuration/v2_depth_duration_MTurk/v2_DepthDuration_HTML.html#368,368,1536,714,1536,864,9-18-2022,11-24-31,129,depth_duration_stimuli/002805_2014-06-22_19-54-03_094959634447_rgbf000079-resize_1/002805_2014-06-22_19-54-03_094959634447_rgbf000079-resize_1-target.png,125,3.1439999999999997,6,2729,131,feet,jsons/VE125_randls_11_rotated.json,724327,1091613,36,Man
129,417131,DepthScenes,duration_manipulation_targetAtFixation,jsons/VE125_randls_11_rotated.json,http://54.235.29.9/FacialAge/BNav_EC2/DepthDuration/v2_depth_duration_MTurk/v2_DepthDuration_HTML.html#368,368,1536,714,1536,864,9-18-2022,11-24-31,130,depth_duration_stimuli/000906_2014-06-08_13-35-43_260595134347_rgbf000155-resize_1/000906_2014-06-08_13-35-43_260595134347_rgbf000155-resize_1-target.png,125,2.8489999999999998,9,3785,123,feet,jsons/VE125_randls_11_rotated.json,724327,1091613,36,Man
130,417131,DepthScenes,duration_manipulation_targetAtFixation,jsons/VE125_randls_11_rotated.json,http://54.235.29.9/FacialAge/BNav_EC2/DepthDuration/v2_depth_duration_MTurk/v2_DepthDuration_HTML.html#368,368,1536,714,1536,864,9-18-2022,11-24-31,131,depth_duration_stimuli/001447_2014-06-19_17-00-32_260595134347_rgbf000082-resize_5/001447_2014-06-19_17-00-32_260595134347_rgbf000082-resize_5-target.png,125,4.13775,7,2910,125,feet,jsons/VE125_randls_11_rotated.json,724327,1091613,36,Man
131,417131,DepthScenes,duration_manipulation_targetAtFixation,jsons/VE125_randls_11_rotated.json,http://54.235.29.9/FacialAge/BNav_EC2/DepthDuration/v2_depth_duration_MTurk/v2_DepthDuration_HTML.html#368,368,1536,714,1536,864,9-18-2022,11-24-31,132,depth_duration_stimuli/000447_2014-06-08_16-15-46_260595134347_rgbf000130-resize_1/000447_2014-06-08_16-15-46_260595134347_rgbf000130-resize_1-target.png,125,4.479,6,2846,115,feet,jsons/VE125_randls_11_rotated.json,724327,1091613,36,Man
132,417131,DepthScenes,duration_manipulation_targetAtFixation,jsons/VE125_randls_11_rotated.json,http://54.235.29.9/FacialAge/BNav_EC2/DepthDuration/v2_depth_duration_MTurk/v2_DepthDuration_HTML.html#368,368,1536,714,1536,864,9-18-2022,11-24-31,133,depth_duration_stimuli/002758_2014-06-22_19-11-20_094959634447_rgbf000128-resize_1/002758_2014-06-22_19-11-20_094959634447_rgbf000128-resize_1-target.png,125,2.555,5,3008,123,feet,jsons/VE125_randls_11_rotated.json,724327,1091613,36,Man
133,417131,DepthScenes,duration_manipulation_targetAtFixation,jsons/VE125_randls_11_rotated.json,http://54.235.29.9/FacialAge/BNav_EC2/DepthDuration/v2_depth_duration_MTurk/v2_DepthDuration_HTML.html#368,368,1536,714,1536,864,9-18-2022,11-24-31,134,depth_duration_stimuli/002630_2014-06-24_14-47-50_094959634447_rgbf000055-resize_1/002630_2014-06-24_14-47-50_094959634447_rgbf000055-resize_1-target.png,125,3.0095,9,6838,119,feet,jsons/VE125_randls_11_rotated.json,724327,1091613,36,Man
134,417131,DepthScenes,duration_manipulation_targetAtFixation,jsons/VE125_randls_11_rotated.json,http://54.235.29.9/FacialAge/BNav_EC2/DepthDuration/v2_depth_duration_MTurk/v2_DepthDuration_HTML.html#368,368,1536,714,1536,864,9-18-2022,11-24-31,135,depth_duration_stimuli/000375_2014-06-08_11-17-29_260595134347_rgbf000133-resize_2/000375_2014-06-08_11-17-29_260595134347_rgbf000133-resize-original.jpg,125,4.718,0,2804,133,feet,jsons/VE125_randls_11_rotated.json,724327,1091613,36,Man
135,417131,DepthScenes,duration_manipulation_targetAtFixation,jsons/VE125_randls_11_rotated.json,http://54.235.29.9/FacialAge/BNav_EC2/DepthDuration/v2_depth_duration_MTurk/v2_DepthDuration_HTML.html#368,368,1536,714,1536,864,9-18-2022,11-24-31,136,depth_duration_stimuli/000734_2014-06-08_17-39-11_260595134347_rgbf000128-resize_2/000734_2014-06-08_17-39-11_260595134347_rgbf000128-resize_2-target.png,125,4.098,9,3217,119,feet,jsons/VE125_randls_11_rotated.json,724327,1091613,36,Man
136,417131,DepthScenes,duration_manipulation_targetAtFixation,jsons/VE125_randls_11_rotated.json,http://54.235.29.9/FacialAge/BNav_EC2/DepthDuration/v2_depth_duration_MTurk/v2_DepthDuration_HTML.html#368,368,1536,714,1536,864,9-18-2022,11-24-31,137,depth_duration_stimuli/000739_2014-06-08_18-45-58_260595134347_rgbf000068-resize_1/000739_2014-06-08_18-45-58_260595134347_rgbf000068-resize_1-target.png,125,3.534,7,2815,129,feet,jsons/VE125_randls_11_rotated.json,724327,1091613,36,Man
137,417131,DepthScenes,duration_manipulation_targetAtFixation,jsons/VE125_randls_11_rotated.json,http://54.235.29.9/FacialAge/BNav_EC2/DepthDuration/v2_depth_duration_MTurk/v2_DepthDuration_HTML.html#368,368,1536,714,1536,864,9-18-2022,11-24-31,138,depth_duration_stimuli/002639_2014-06-24_14-51-37_094959634447_rgbf000074-resize_4/002639_2014-06-24_14-51-37_094959634447_rgbf000074-resize_4-target.png,125,4.0375,8,3391,123,feet,jsons/VE125_randls_11_rotated.json,724327,1091613,36,Man
138,417131,DepthScenes,duration_manipulation_targetAtFixation,jsons/VE125_randls_11_rotated.json,http://54.235.29.9/FacialAge/BNav_EC2/DepthDuration/v2_depth_duration_MTurk/v2_DepthDuration_HTML.html#368,368,1536,714,1536,864,9-18-2022,11-24-31,139,depth_duration_stimuli/003292_2014-05-14_21-53-49_094959634447_rgbf000100-resize_2/003292_2014-05-14_21-53-49_094959634447_rgbf000100-resize_2-target.png,125,3.4815,5,2842,126,feet,jsons/VE125_randls_11_rotated.json,724327,1091613,36,Man
139,417131,DepthScenes,duration_manipulation_targetAtFixation,jsons/VE125_randls_11_rotated.json,http://54.235.29.9/FacialAge/BNav_EC2/DepthDuration/v2_depth_duration_MTurk/v2_DepthDuration_HTML.html#368,368,1536,714,1536,864,9-18-2022,11-24-31,140,depth_duration_stimuli/002344_2014-06-28_20-06-29_260595134347_rgbf000030-resize_1/002344_2014-06-28_20-06-29_260595134347_rgbf000030-resize_1-target.png,125,1.5795,2,2698,130,feet,jsons/VE125_randls_11_rotated.json,724327,1091613,36,Man
140,417131,DepthScenes,duration_manipulation_targetAtFixation,jsons/VE125_randls_11_rotated.json,http://54.235.29.9/FacialAge/BNav_EC2/DepthDuration/v2_depth_duration_MTurk/v2_DepthDuration_HTML.html#368,368,1536,714,1536,864,9-18-2022,11-24-31,141,depth_duration_stimuli/002725_2014-06-22_11-47-51_094959634447_rgbf000070-resize_1/002725_2014-06-22_11-47-51_094959634447_rgbf000070-resize_1-target.png,125,2.195,7,2916,130,feet,jsons/VE125_randls_11_rotated.json,724327,1091613,36,Man
141,417131,DepthScenes,duration_manipulation_targetAtFixation,jsons/VE125_randls_11_rotated.json,http://54.235.29.9/FacialAge/BNav_EC2/DepthDuration/v2_depth_duration_MTurk/v2_DepthDuration_HTML.html#368,368,1536,714,1536,864,9-18-2022,11-24-31,142,depth_duration_stimuli/000549_2014-06-08_22-10-24_260595134347_rgbf000247-resize_3/000549_2014-06-08_22-10-24_260595134347_rgbf000247-resize_3-target.png,125,1.841,1,4357,125,feet,jsons/VE125_randls_11_rotated.json,724327,1091613,36,Man
142,417131,DepthScenes,duration_manipulation_targetAtFixation,jsons/VE125_randls_11_rotated.json,http://54.235.29.9/FacialAge/BNav_EC2/DepthDuration/v2_depth_duration_MTurk/v2_DepthDuration_HTML.html#368,368,1536,714,1536,864,9-18-2022,11-24-31,143,depth_duration_stimuli/001055_2014-06-08_18-45-35_260595134347_rgbf000111-resize_4/001055_2014-06-08_18-45-35_260595134347_rgbf000111-resize_4-target.png,125,2.4290000000000003,9,3216,126,feet,jsons/VE125_randls_11_rotated.json,724327,1091613,36,Man
143,417131,DepthScenes,duration_manipulation_targetAtFixation,jsons/VE125_randls_11_rotated.json,http://54.235.29.9/FacialAge/BNav_EC2/DepthDuration/v2_depth_duration_MTurk/v2_DepthDuration_HTML.html#368,368,1536,714,1536,864,9-18-2022,11-24-31,144,depth_duration_stimuli/001571_2014-06-20_17-21-32_260595134347_rgbf000089-resize_1/001571_2014-06-20_17-21-32_260595134347_rgbf000089-resize_1-target.png,125,1.86,3,2399,125,feet,jsons/VE125_randls_11_rotated.json,724327,1091613,36,Man
144,417131,DepthScenes,duration_manipulation_targetAtFixation,jsons/VE125_randls_11_rotated.json,http://54.235.29.9/FacialAge/BNav_EC2/DepthDuration/v2_depth_duration_MTurk/v2_DepthDuration_HTML.html#368,368,1536,714,1536,864,9-18-2022,11-24-31,145,depth_duration_stimuli/002272_2014-06-28_18-53-56_260595134347_rgbf000067-resize_2/002272_2014-06-28_18-53-56_260595134347_rgbf000067-resize_2-target.png,125,1.138,2,3092,122,feet,jsons/VE125_randls_11_rotated.json,724327,1091613,36,Man
145,417131,DepthScenes,duration_manipulation_targetAtFixation,jsons/VE125_randls_11_rotated.json,http://54.235.29.9/FacialAge/BNav_EC2/DepthDuration/v2_depth_duration_MTurk/v2_DepthDuration_HTML.html#368,368,1536,714,1536,864,9-18-2022,11-24-31,146,depth_duration_stimuli/002953_2014-06-08_17-32-18_094959634447_rgbf000059-resize_5/002953_2014-06-08_17-32-18_094959634447_rgbf000059-resize_5-target.png,125,1.551,2,1984,128,feet,jsons/VE125_randls_11_rotated.json,724327,1091613,36,Man
146,417131,DepthScenes,duration_manipulation_targetAtFixation,jsons/VE125_randls_11_rotated.json,http://54.235.29.9/FacialAge/BNav_EC2/DepthDuration/v2_depth_duration_MTurk/v2_DepthDuration_HTML.html#368,368,1536,714,1536,864,9-18-2022,11-24-31,147,depth_duration_stimuli/000878_2014-06-08_22-52-45_260595134347_rgbf000045-resize_2/000878_2014-06-08_22-52-45_260595134347_rgbf000045-resize_2-target.png,125,2.092,8,2544,139,feet,jsons/VE125_randls_11_rotated.json,724327,1091613,36,Man
147,417131,DepthScenes,duration_manipulation_targetAtFixation,jsons/VE125_randls_11_rotated.json,http://54.235.29.9/FacialAge/BNav_EC2/DepthDuration/v2_depth_duration_MTurk/v2_DepthDuration_HTML.html#368,368,1536,714,1536,864,9-18-2022,11-24-31,148,depth_duration_stimuli/003423_2014-05-21_10-23-26_094959634447_rgbf002665-resize_2/003423_2014-05-21_10-23-26_094959634447_rgbf002665-resize_2-target.png,125,3.2575,6,2317,129,feet,jsons/VE125_randls_11_rotated.json,724327,1091613,36,Man
148,417131,DepthScenes,duration_manipulation_targetAtFixation,jsons/VE125_randls_11_rotated.json,http://54.235.29.9/FacialAge/BNav_EC2/DepthDuration/v2_depth_duration_MTurk/v2_DepthDuration_HTML.html#368,368,1536,714,1536,864,9-18-2022,11-24-31,149,depth_duration_stimuli/002905_2014-06-03_18-04-43_094959634447_rgbf000151-resize_2/002905_2014-06-03_18-04-43_094959634447_rgbf000151-resize_2-target.png,125,2.0295,4,2218,139,feet,jsons/VE125_randls_11_rotated.json,724327,1091613,36,Man
149,417131,DepthScenes,duration_manipulation_targetAtFixation,jsons/VE125_randls_11_rotated.json,http://54.235.29.9/FacialAge/BNav_EC2/DepthDuration/v2_depth_duration_MTurk/v2_DepthDuration_HTML.html#368,368,1536,714,1536,864,9-18-2022,11-24-31,150,depth_duration_stimuli/003338_2014-05-20_11-01-23_094959634447_rgbf000051-resize_6/003338_2014-05-20_11-01-23_094959634447_rgbf000051-resize_6-target.png,125,1.693,4,2240,120,feet,jsons/VE125_randls_11_rotated.json,724327,1091613,36,Man
150,417131,DepthScenes,duration_manipulation_targetAtFixation,jsons/VE125_randls_11_rotated.json,http://54.235.29.9/FacialAge/BNav_EC2/DepthDuration/v2_depth_duration_MTurk/v2_DepthDuration_HTML.html#368,368,1536,714,1536,864,9-18-2022,11-24-31,151,depth_duration_stimuli/002509_2014-06-24_13-19-22_094959634447_rgbf000077-resize_0/002509_2014-06-24_13-19-22_094959634447_rgbf000077-resize_0-target.png,125,1.3065,4,2262,125,feet,jsons/VE125_randls_11_rotated.json,724327,1091613,36,Man
151,417131,DepthScenes,duration_manipulation_targetAtFixation,jsons/VE125_randls_11_rotated.json,http://54.235.29.9/FacialAge/BNav_EC2/DepthDuration/v2_depth_duration_MTurk/v2_DepthDuration_HTML.html#368,368,1536,714,1536,864,9-18-2022,11-24-31,152,depth_duration_stimuli/000569_2014-06-09_22-51-47_260595134347_rgbf000141-resize_3/000569_2014-06-09_22-51-47_260595134347_rgbf000141-resize-original.jpg,125,4.512,0,2780,127,feet,jsons/VE125_randls_11_rotated.json,724327,1091613,36,Man
152,417131,DepthScenes,duration_manipulation_targetAtFixation,jsons/VE125_randls_11_rotated.json,http://54.235.29.9/FacialAge/BNav_EC2/DepthDuration/v2_depth_duration_MTurk/v2_DepthDuration_HTML.html#368,368,1536,714,1536,864,9-18-2022,11-24-31,153,depth_duration_stimuli/000927_2014-06-09_16-32-30_260595134347_rgbf000123-resize_3/000927_2014-06-09_16-32-30_260595134347_rgbf000123-resize_3-target.png,125,2.6785,8,4832,138,feet,jsons/VE125_randls_11_rotated.json,724327,1091613,36,Man
153,417131,DepthScenes,duration_manipulation_targetAtFixation,jsons/VE125_randls_11_rotated.json,http://54.235.29.9/FacialAge/BNav_EC2/DepthDuration/v2_depth_duration_MTurk/v2_DepthDuration_HTML.html#368,368,1536,714,1536,864,9-18-2022,11-24-31,154,depth_duration_stimuli/001110_2014-06-15_17-25-28_260595134347_rgbf000150-resize_1/001110_2014-06-15_17-25-28_260595134347_rgbf000150-resize_1-target.png,125,1.7115,4,4675,135,feet,jsons/VE125_randls_11_rotated.json,724327,1091613,36,Man
154,417131,DepthScenes,duration_manipulation_targetAtFixation,jsons/VE125_randls_11_rotated.json,http://54.235.29.9/FacialAge/BNav_EC2/DepthDuration/v2_depth_duration_MTurk/v2_DepthDuration_HTML.html#368,368,1536,714,1536,864,9-18-2022,11-24-31,155,depth_duration_stimuli/000137_2014-05-20_17-04-49_260595134347_rgbf000120-resize_1/000137_2014-05-20_17-04-49_260595134347_rgbf000120-resize_1-target.png,125,3.786,9,2700,117,feet,jsons/VE125_randls_11_rotated.json,724327,1091613,36,Man
155,417131,DepthScenes,duration_manipulation_targetAtFixation,jsons/VE125_randls_11_rotated.json,http://54.235.29.9/FacialAge/BNav_EC2/DepthDuration/v2_depth_duration_MTurk/v2_DepthDuration_HTML.html#368,368,1536,714,1536,864,9-18-2022,11-24-31,156,depth_duration_stimuli/000736_2014-06-08_18-24-15_260595134347_rgbf000206-resize_3/000736_2014-06-08_18-24-15_260595134347_rgbf000206-resize_3-target.png,125,3.515,6,2588,120,feet,jsons/VE125_randls_11_rotated.json,724327,1091613,36,Man
156,417131,DepthScenes,duration_manipulation_targetAtFixation,jsons/VE125_randls_11_rotated.json,http://54.235.29.9/FacialAge/BNav_EC2/DepthDuration/v2_depth_duration_MTurk/v2_DepthDuration_HTML.html#368,368,1536,714,1536,864,9-18-2022,11-24-31,157,depth_duration_stimuli/001214_2014-06-17_16-13-55_260595134347_rgbf000111-resize_0/001214_2014-06-17_16-13-55_260595134347_rgbf000111-resize_0-target.png,125,2.6505,5,2734,114,feet,jsons/VE125_randls_11_rotated.json,724327,1091613,36,Man
157,417131,DepthScenes,duration_manipulation_targetAtFixation,jsons/VE125_randls_11_rotated.json,http://54.235.29.9/FacialAge/BNav_EC2/DepthDuration/v2_depth_duration_MTurk/v2_DepthDuration_HTML.html#368,368,1536,714,1536,864,9-18-2022,11-24-31,158,depth_duration_stimuli/000810_2014-06-08_17-20-01_260595134347_rgbf000105-resize_0/000810_2014-06-08_17-20-01_260595134347_rgbf000105-resize_0-target.png,125,1.4865,4,2351,120,feet,jsons/VE125_randls_11_rotated.json,724327,1091613,36,Man
158,417131,DepthScenes,duration_manipulation_targetAtFixation,jsons/VE125_randls_11_rotated.json,http://54.235.29.9/FacialAge/BNav_EC2/DepthDuration/v2_depth_duration_MTurk/v2_DepthDuration_HTML.html#368,368,1536,714,1536,864,9-18-2022,11-24-31,159,depth_duration_stimuli/000749_2014-06-08_21-55-06_260595134347_rgbf000070-resize_2/000749_2014-06-08_21-55-06_260595134347_rgbf000070-resize_2-target.png,125,2.331,8,2818,125,feet,jsons/VE125_randls_11_rotated.json,724327,1091613,36,Man
159,417131,DepthScenes,duration_manipulation_targetAtFixation,jsons/VE125_randls_11_rotated.json,http://54.235.29.9/FacialAge/BNav_EC2/DepthDuration/v2_depth_duration_MTurk/v2_DepthDuration_HTML.html#368,368,1536,714,1536,864,9-18-2022,11-24-31,160,depth_duration_stimuli/002788_2014-06-22_19-36-03_094959634447_rgbf000088-resize_2/002788_2014-06-22_19-36-03_094959634447_rgbf000088-resize_2-target.png,125,1.6465,8,3604,111,feet,jsons/VE125_randls_11_rotated.json,724327,1091613,36,Man
160,417131,DepthScenes,duration_manipulation_targetAtFixation,jsons/VE125_randls_11_rotated.json,http://54.235.29.9/FacialAge/BNav_EC2/DepthDuration/v2_depth_duration_MTurk/v2_DepthDuration_HTML.html#368,368,1536,714,1536,864,9-18-2022,11-24-31,161,depth_duration_stimuli/002660_2014-06-13_15-44-18_094959634447_rgbf001878-resize_2/002660_2014-06-13_15-44-18_094959634447_rgbf001878-resize_2-target.png,125,3.576,7,3064,125,feet,jsons/VE125_randls_11_rotated.json,724327,1091613,36,Man
161,417131,DepthScenes,duration_manipulation_targetAtFixation,jsons/VE125_randls_11_rotated.json,http://54.235.29.9/FacialAge/BNav_EC2/DepthDuration/v2_depth_duration_MTurk/v2_DepthDuration_HTML.html#368,368,1536,714,1536,864,9-18-2022,11-24-31,162,depth_duration_stimuli/002153_2014-06-25_21-27-18_260595134347_rgbf000038-resize_5/002153_2014-06-25_21-27-18_260595134347_rgbf000038-resize_5-target.png,125,2.505,5,2423,119,feet,jsons/VE125_randls_11_rotated.json,724327,1091613,36,Man
162,417131,DepthScenes,duration_manipulation_targetAtFixation,jsons/VE125_randls_11_rotated.json,http://54.235.29.9/FacialAge/BNav_EC2/DepthDuration/v2_depth_duration_MTurk/v2_DepthDuration_HTML.html#368,368,1536,714,1536,864,9-18-2022,11-24-31,163,depth_duration_stimuli/003129_2014-05-12_10-48-10_094959634447_rgbf000100-resize_0/003129_2014-05-12_10-48-10_094959634447_rgbf000100-resize_0-target.png,125,4.9305,10,6677,125,feet,jsons/VE125_randls_11_rotated.json,724327,1091613,36,Man
163,417131,DepthScenes,duration_manipulation_targetAtFixation,jsons/VE125_randls_11_rotated.json,http://54.235.29.9/FacialAge/BNav_EC2/DepthDuration/v2_depth_duration_MTurk/v2_DepthDuration_HTML.html#368,368,1536,714,1536,864,9-18-2022,11-24-31,164,depth_duration_stimuli/000414_2014-06-04_19-49-13_260595134347_rgbf000044-resize_0/000414_2014-06-04_19-49-13_260595134347_rgbf000044-resize_0-target.png,125,4.329,10,4659,139,feet,jsons/VE125_randls_11_rotated.json,724327,1091613,36,Man
