,subjID,experimentName,versionName,sequenceName,url,selected_row,windowWidth,windowHeight,screenWidth,screenHeight,startDate,startTime,trial,stimulus,duration,actual_depth,depth_estimate,trial_RT,log_sceneDuration,unitSelection,seq_filepath,experimentTime,totalTime,age,gender
0,418362,DepthScenes,duration_manipulation_targetAtFixation,jsons/v1_VE1000_randls_39.json,http://54.235.29.9/FacialAge/BNav_EC2/DepthDuration/v2_depth_duration_MTurk/v2_DepthDuration_HTML.html#387,387,1536,794,1536,864,8-30-2022,8-54-6,1,depth_duration_stimuli/002763_2014-06-22_19-13-10_094959634447_rgbf000075-resize_4/002763_2014-06-22_19-13-10_094959634447_rgbf000075-resize_4-target.png,1000,1.68375,8,3912,998,feet,jsons/v1_VE1000_randls_39.json,836268,1240882,40,Woman
1,418362,DepthScenes,duration_manipulation_targetAtFixation,jsons/v1_VE1000_randls_39.json,http://54.235.29.9/FacialAge/BNav_EC2/DepthDuration/v2_depth_duration_MTurk/v2_DepthDuration_HTML.html#387,387,1536,794,1536,864,8-30-2022,8-54-6,2,depth_duration_stimuli/002209_2014-06-28_18-36-10_260595134347_rgbf000051-resize_1/002209_2014-06-28_18-36-10_260595134347_rgbf000051-resize_1-target.png,1000,2.057,5,3688,999,feet,jsons/v1_VE1000_randls_39.json,836268,1240882,40,Woman
2,418362,DepthScenes,duration_manipulation_targetAtFixation,jsons/v1_VE1000_randls_39.json,http://54.235.29.9/FacialAge/BNav_EC2/DepthDuration/v2_depth_duration_MTurk/v2_DepthDuration_HTML.html#387,387,1536,794,1536,864,8-30-2022,8-54-6,3,depth_duration_stimuli/001806_2014-06-26_20-50-20_260595134347_rgbf000091-resize_1/001806_2014-06-26_20-50-20_260595134347_rgbf000091-resize_1-target.png,1000,2.7305,6,3546,1000,feet,jsons/v1_VE1000_randls_39.json,836268,1240882,40,Woman
3,418362,DepthScenes,duration_manipulation_targetAtFixation,jsons/v1_VE1000_randls_39.json,http://54.235.29.9/FacialAge/BNav_EC2/DepthDuration/v2_depth_duration_MTurk/v2_DepthDuration_HTML.html#387,387,1536,794,1536,864,8-30-2022,8-54-6,4,depth_duration_stimuli/001617_2014-06-20_11-35-32_260595134347_rgbf000066-resize_1/001617_2014-06-20_11-35-32_260595134347_rgbf000066-resize_1-target.png,1000,3.7910000000000004,15,4635,999,feet,jsons/v1_VE1000_randls_39.json,836268,1240882,40,Woman
4,418362,DepthScenes,duration_manipulation_targetAtFixation,jsons/v1_VE1000_randls_39.json,http://54.235.29.9/FacialAge/BNav_EC2/DepthDuration/v2_depth_duration_MTurk/v2_DepthDuration_HTML.html#387,387,1536,794,1536,864,8-30-2022,8-54-6,5,depth_duration_stimuli/001158_2014-06-17_15-32-16_260595134347_rgbf000138-resize_2/001158_2014-06-17_15-32-16_260595134347_rgbf000138-resize_2-target.png,1000,4.5315,20,3966,999,feet,jsons/v1_VE1000_randls_39.json,836268,1240882,40,Woman
5,418362,DepthScenes,duration_manipulation_targetAtFixation,jsons/v1_VE1000_randls_39.json,http://54.235.29.9/FacialAge/BNav_EC2/DepthDuration/v2_depth_duration_MTurk/v2_DepthDuration_HTML.html#387,387,1536,794,1536,864,8-30-2022,8-54-6,6,depth_duration_stimuli/000556_2014-06-09_22-42-56_260595134347_rgbf000214-resize_1/000556_2014-06-09_22-42-56_260595134347_rgbf000214-resize_1-target.png,1000,4.8415,14,4257,999,feet,jsons/v1_VE1000_randls_39.json,836268,1240882,40,Woman
6,418362,DepthScenes,duration_manipulation_targetAtFixation,jsons/v1_VE1000_randls_39.json,http://54.235.29.9/FacialAge/BNav_EC2/DepthDuration/v2_depth_duration_MTurk/v2_DepthDuration_HTML.html#387,387,1536,794,1536,864,8-30-2022,8-54-6,7,depth_duration_stimuli/002725_2014-06-22_11-47-51_094959634447_rgbf000070-resize_1/002725_2014-06-22_11-47-51_094959634447_rgbf000070-resize_1-target.png,1000,2.195,8,4190,999,feet,jsons/v1_VE1000_randls_39.json,836268,1240882,40,Woman
7,418362,DepthScenes,duration_manipulation_targetAtFixation,jsons/v1_VE1000_randls_39.json,http://54.235.29.9/FacialAge/BNav_EC2/DepthDuration/v2_depth_duration_MTurk/v2_DepthDuration_HTML.html#387,387,1536,794,1536,864,8-30-2022,8-54-6,8,depth_duration_stimuli/002344_2014-06-28_20-06-29_260595134347_rgbf000030-resize_1/002344_2014-06-28_20-06-29_260595134347_rgbf000030-resize_1-target.png,1000,1.5795,3,4694,999,feet,jsons/v1_VE1000_randls_39.json,836268,1240882,40,Woman
8,418362,DepthScenes,duration_manipulation_targetAtFixation,jsons/v1_VE1000_randls_39.json,http://54.235.29.9/FacialAge/BNav_EC2/DepthDuration/v2_depth_duration_MTurk/v2_DepthDuration_HTML.html#387,387,1536,794,1536,864,8-30-2022,8-54-6,9,depth_duration_stimuli/000436_2014-06-09_22-25-11_260595134347_rgbf000137-resize_1/000436_2014-06-09_22-25-11_260595134347_rgbf000137-resize_1-target.png,1000,4.0705,14,4219,999,feet,jsons/v1_VE1000_randls_39.json,836268,1240882,40,Woman
9,418362,DepthScenes,duration_manipulation_targetAtFixation,jsons/v1_VE1000_randls_39.json,http://54.235.29.9/FacialAge/BNav_EC2/DepthDuration/v2_depth_duration_MTurk/v2_DepthDuration_HTML.html#387,387,1536,794,1536,864,8-30-2022,8-54-6,10,depth_duration_stimuli/002444_2014-06-28_20-32-08_260595134347_rgbf000027-resize_0/002444_2014-06-28_20-32-08_260595134347_rgbf000027-resize_0-target.png,1000,4.388999999999999,12,5527,999,feet,jsons/v1_VE1000_randls_39.json,836268,1240882,40,Woman
10,418362,DepthScenes,duration_manipulation_targetAtFixation,jsons/v1_VE1000_randls_39.json,http://54.235.29.9/FacialAge/BNav_EC2/DepthDuration/v2_depth_duration_MTurk/v2_DepthDuration_HTML.html#387,387,1536,794,1536,864,8-30-2022,8-54-6,11,depth_duration_stimuli/001059_2014-06-08_21-53-27_260595134347_rgbf000061-resize_4/001059_2014-06-08_21-53-27_260595134347_rgbf000061-resize_4-target.png,1000,2.4185,8,3855,999,feet,jsons/v1_VE1000_randls_39.json,836268,1240882,40,Woman
11,418362,DepthScenes,duration_manipulation_targetAtFixation,jsons/v1_VE1000_randls_39.json,http://54.235.29.9/FacialAge/BNav_EC2/DepthDuration/v2_depth_duration_MTurk/v2_DepthDuration_HTML.html#387,387,1536,794,1536,864,8-30-2022,8-54-6,12,depth_duration_stimuli/001032_2014-06-08_13-23-17_260595134347_rgbf000021-resize_3/001032_2014-06-08_13-23-17_260595134347_rgbf000021-resize_3-target.png,1000,3.2725,7,4816,999,feet,jsons/v1_VE1000_randls_39.json,836268,1240882,40,Woman
12,418362,DepthScenes,duration_manipulation_targetAtFixation,jsons/v1_VE1000_randls_39.json,http://54.235.29.9/FacialAge/BNav_EC2/DepthDuration/v2_depth_duration_MTurk/v2_DepthDuration_HTML.html#387,387,1536,794,1536,864,8-30-2022,8-54-6,13,depth_duration_stimuli/000569_2014-06-09_22-51-47_260595134347_rgbf000141-resize_3/000569_2014-06-09_22-51-47_260595134347_rgbf000141-resize-original.jpg,1000,4.512,0,3614,999,feet,jsons/v1_VE1000_randls_39.json,836268,1240882,40,Woman
13,418362,DepthScenes,duration_manipulation_targetAtFixation,jsons/v1_VE1000_randls_39.json,http://54.235.29.9/FacialAge/BNav_EC2/DepthDuration/v2_depth_duration_MTurk/v2_DepthDuration_HTML.html#387,387,1536,794,1536,864,8-30-2022,8-54-6,14,depth_duration_stimuli/003070_2014-06-15_14-58-27_094959634447_rgbf000150-resize_3/003070_2014-06-15_14-58-27_094959634447_rgbf000150-resize_3-target.png,1000,2.9415,7,4372,999,feet,jsons/v1_VE1000_randls_39.json,836268,1240882,40,Woman
14,418362,DepthScenes,duration_manipulation_targetAtFixation,jsons/v1_VE1000_randls_39.json,http://54.235.29.9/FacialAge/BNav_EC2/DepthDuration/v2_depth_duration_MTurk/v2_DepthDuration_HTML.html#387,387,1536,794,1536,864,8-30-2022,8-54-6,15,depth_duration_stimuli/000943_2014-06-09_19-31-07_260595134347_rgbf000128-resize_1/000943_2014-06-09_19-31-07_260595134347_rgbf000128-resize_1-target.png,1000,1.9765,7,3927,1000,feet,jsons/v1_VE1000_randls_39.json,836268,1240882,40,Woman
15,418362,DepthScenes,duration_manipulation_targetAtFixation,jsons/v1_VE1000_randls_39.json,http://54.235.29.9/FacialAge/BNav_EC2/DepthDuration/v2_depth_duration_MTurk/v2_DepthDuration_HTML.html#387,387,1536,794,1536,864,8-30-2022,8-54-6,16,depth_duration_stimuli/001175_2014-06-17_15-45-55_260595134347_rgbf000129-resize_4/001175_2014-06-17_15-45-55_260595134347_rgbf000129-resize_4-target.png,1000,4.255,18,4319,999,feet,jsons/v1_VE1000_randls_39.json,836268,1240882,40,Woman
16,418362,DepthScenes,duration_manipulation_targetAtFixation,jsons/v1_VE1000_randls_39.json,http://54.235.29.9/FacialAge/BNav_EC2/DepthDuration/v2_depth_duration_MTurk/v2_DepthDuration_HTML.html#387,387,1536,794,1536,864,8-30-2022,8-54-6,17,depth_duration_stimuli/003490_2014-05-21_15-50-11_094959634447_rgbf000101-resize_3/003490_2014-05-21_15-50-11_094959634447_rgbf000101-resize_3-target.png,1000,3.6445,16,4161,999,feet,jsons/v1_VE1000_randls_39.json,836268,1240882,40,Woman
17,418362,DepthScenes,duration_manipulation_targetAtFixation,jsons/v1_VE1000_randls_39.json,http://54.235.29.9/FacialAge/BNav_EC2/DepthDuration/v2_depth_duration_MTurk/v2_DepthDuration_HTML.html#387,387,1536,794,1536,864,8-30-2022,8-54-6,18,depth_duration_stimuli/000447_2014-06-08_16-15-46_260595134347_rgbf000130-resize_1/000447_2014-06-08_16-15-46_260595134347_rgbf000130-resize_1-target.png,1000,4.479,15,5063,999,feet,jsons/v1_VE1000_randls_39.json,836268,1240882,40,Woman
18,418362,DepthScenes,duration_manipulation_targetAtFixation,jsons/v1_VE1000_randls_39.json,http://54.235.29.9/FacialAge/BNav_EC2/DepthDuration/v2_depth_duration_MTurk/v2_DepthDuration_HTML.html#387,387,1536,794,1536,864,8-30-2022,8-54-6,19,depth_duration_stimuli/001447_2014-06-19_17-00-32_260595134347_rgbf000082-resize_5/001447_2014-06-19_17-00-32_260595134347_rgbf000082-resize_5-target.png,1000,4.13775,6,4069,1000,feet,jsons/v1_VE1000_randls_39.json,836268,1240882,40,Woman
19,418362,DepthScenes,duration_manipulation_targetAtFixation,jsons/v1_VE1000_randls_39.json,http://54.235.29.9/FacialAge/BNav_EC2/DepthDuration/v2_depth_duration_MTurk/v2_DepthDuration_HTML.html#387,387,1536,794,1536,864,8-30-2022,8-54-6,20,depth_duration_stimuli/001011_2014-06-08_23-18-54_260595134347_rgbf000044-resize_4/001011_2014-06-08_23-18-54_260595134347_rgbf000044-resize_4-target.png,1000,2.4730000000000003,7,4084,998,feet,jsons/v1_VE1000_randls_39.json,836268,1240882,40,Woman
20,418362,DepthScenes,duration_manipulation_targetAtFixation,jsons/v1_VE1000_randls_39.json,http://54.235.29.9/FacialAge/BNav_EC2/DepthDuration/v2_depth_duration_MTurk/v2_DepthDuration_HTML.html#387,387,1536,794,1536,864,8-30-2022,8-54-6,21,depth_duration_stimuli/002875_2014-06-01_15-19-00_094959634447_rgbf000151-resize_1/002875_2014-06-01_15-19-00_094959634447_rgbf000151-resize_1-target.png,1000,1.9675,4,3643,1000,feet,jsons/v1_VE1000_randls_39.json,836268,1240882,40,Woman
21,418362,DepthScenes,duration_manipulation_targetAtFixation,jsons/v1_VE1000_randls_39.json,http://54.235.29.9/FacialAge/BNav_EC2/DepthDuration/v2_depth_duration_MTurk/v2_DepthDuration_HTML.html#387,387,1536,794,1536,864,8-30-2022,8-54-6,22,depth_duration_stimuli/000009_2014-05-26_14-32-05_260595134347_rgbf000034-resize_3/000009_2014-05-26_14-32-05_260595134347_rgbf000034-resize_3-target.png,1000,3.8715,10,4698,1000,feet,jsons/v1_VE1000_randls_39.json,836268,1240882,40,Woman
22,418362,DepthScenes,duration_manipulation_targetAtFixation,jsons/v1_VE1000_randls_39.json,http://54.235.29.9/FacialAge/BNav_EC2/DepthDuration/v2_depth_duration_MTurk/v2_DepthDuration_HTML.html#387,387,1536,794,1536,864,8-30-2022,8-54-6,23,depth_duration_stimuli/001828_2014-06-26_21-40-03_260595134347_rgbf000024-resize_0/001828_2014-06-26_21-40-03_260595134347_rgbf000024-resize_0-target.png,1000,4.8260000000000005,13,5528,999,feet,jsons/v1_VE1000_randls_39.json,836268,1240882,40,Woman
23,418362,DepthScenes,duration_manipulation_targetAtFixation,jsons/v1_VE1000_randls_39.json,http://54.235.29.9/FacialAge/BNav_EC2/DepthDuration/v2_depth_duration_MTurk/v2_DepthDuration_HTML.html#387,387,1536,794,1536,864,8-30-2022,8-54-6,24,depth_duration_stimuli/001092_2014-06-15_17-34-58_260595134347_rgbf000171-resize_3/001092_2014-06-15_17-34-58_260595134347_rgbf000171-resize_3-target.png,1000,2.6935,6,3937,999,feet,jsons/v1_VE1000_randls_39.json,836268,1240882,40,Woman
24,418362,DepthScenes,duration_manipulation_targetAtFixation,jsons/v1_VE1000_randls_39.json,http://54.235.29.9/FacialAge/BNav_EC2/DepthDuration/v2_depth_duration_MTurk/v2_DepthDuration_HTML.html#387,387,1536,794,1536,864,8-30-2022,8-54-6,25,depth_duration_stimuli/002545_2014-06-24_13-38-53_094959634447_rgbf000080-resize_4/002545_2014-06-24_13-38-53_094959634447_rgbf000080-resize_4-target.png,1000,1.9205,6,4905,999,feet,jsons/v1_VE1000_randls_39.json,836268,1240882,40,Woman
25,418362,DepthScenes,duration_manipulation_targetAtFixation,jsons/v1_VE1000_randls_39.json,http://54.235.29.9/FacialAge/BNav_EC2/DepthDuration/v2_depth_duration_MTurk/v2_DepthDuration_HTML.html#387,387,1536,794,1536,864,8-30-2022,8-54-6,26,depth_duration_stimuli/000810_2014-06-08_17-20-01_260595134347_rgbf000105-resize_0/000810_2014-06-08_17-20-01_260595134347_rgbf000105-resize_0-target.png,1000,1.4865,7,3646,999,feet,jsons/v1_VE1000_randls_39.json,836268,1240882,40,Woman
26,418362,DepthScenes,duration_manipulation_targetAtFixation,jsons/v1_VE1000_randls_39.json,http://54.235.29.9/FacialAge/BNav_EC2/DepthDuration/v2_depth_duration_MTurk/v2_DepthDuration_HTML.html#387,387,1536,794,1536,864,8-30-2022,8-54-6,27,depth_duration_stimuli/001214_2014-06-17_16-13-55_260595134347_rgbf000111-resize_0/001214_2014-06-17_16-13-55_260595134347_rgbf000111-resize_0-target.png,1000,2.6505,6,5495,999,feet,jsons/v1_VE1000_randls_39.json,836268,1240882,40,Woman
27,418362,DepthScenes,duration_manipulation_targetAtFixation,jsons/v1_VE1000_randls_39.json,http://54.235.29.9/FacialAge/BNav_EC2/DepthDuration/v2_depth_duration_MTurk/v2_DepthDuration_HTML.html#387,387,1536,794,1536,864,8-30-2022,8-54-6,28,depth_duration_stimuli/000917_2014-06-09_22-45-29_260595134347_rgbf000149-resize_3/000917_2014-06-09_22-45-29_260595134347_rgbf000149-resize_3-target.png,1000,4.1865,9,4770,999,feet,jsons/v1_VE1000_randls_39.json,836268,1240882,40,Woman
28,418362,DepthScenes,duration_manipulation_targetAtFixation,jsons/v1_VE1000_randls_39.json,http://54.235.29.9/FacialAge/BNav_EC2/DepthDuration/v2_depth_duration_MTurk/v2_DepthDuration_HTML.html#387,387,1536,794,1536,864,8-30-2022,8-54-6,29,depth_duration_stimuli/002323_2014-06-28_20-01-54_260595134347_rgbf000051-resize_4/002323_2014-06-28_20-01-54_260595134347_rgbf000051-resize_4-target.png,1000,3.7310000000000003,12,3980,999,feet,jsons/v1_VE1000_randls_39.json,836268,1240882,40,Woman
29,418362,DepthScenes,duration_manipulation_targetAtFixation,jsons/v1_VE1000_randls_39.json,http://54.235.29.9/FacialAge/BNav_EC2/DepthDuration/v2_depth_duration_MTurk/v2_DepthDuration_HTML.html#387,387,1536,794,1536,864,8-30-2022,8-54-6,30,depth_duration_stimuli/000375_2014-06-08_11-17-29_260595134347_rgbf000133-resize_2/000375_2014-06-08_11-17-29_260595134347_rgbf000133-resize-original.jpg,1000,4.718,0,4023,999,feet,jsons/v1_VE1000_randls_39.json,836268,1240882,40,Woman
30,418362,DepthScenes,duration_manipulation_targetAtFixation,jsons/v1_VE1000_randls_39.json,http://54.235.29.9/FacialAge/BNav_EC2/DepthDuration/v2_depth_duration_MTurk/v2_DepthDuration_HTML.html#387,387,1536,794,1536,864,8-30-2022,8-54-6,31,depth_duration_stimuli/000368_2014-06-09_15-53-01_260595134347_rgbf000155-resize_2/000368_2014-06-09_15-53-01_260595134347_rgbf000155-resize_2-target.png,1000,2.4859999999999998,6,3986,999,feet,jsons/v1_VE1000_randls_39.json,836268,1240882,40,Woman
31,418362,DepthScenes,duration_manipulation_targetAtFixation,jsons/v1_VE1000_randls_39.json,http://54.235.29.9/FacialAge/BNav_EC2/DepthDuration/v2_depth_duration_MTurk/v2_DepthDuration_HTML.html#387,387,1536,794,1536,864,8-30-2022,8-54-6,32,depth_duration_stimuli/002678_2014-06-13_16-15-32_094959634447_rgbf000151-resize_6/002678_2014-06-13_16-15-32_094959634447_rgbf000151-resize_6-target.png,1000,2.1830000000000003,9,3673,1000,feet,jsons/v1_VE1000_randls_39.json,836268,1240882,40,Woman
32,418362,DepthScenes,duration_manipulation_targetAtFixation,jsons/v1_VE1000_randls_39.json,http://54.235.29.9/FacialAge/BNav_EC2/DepthDuration/v2_depth_duration_MTurk/v2_DepthDuration_HTML.html#387,387,1536,794,1536,864,8-30-2022,8-54-6,33,depth_duration_stimuli/001570_2014-06-20_17-21-09_260595134347_rgbf000135-resize_4/001570_2014-06-20_17-21-09_260595134347_rgbf000135-resize_4-target.png,1000,4.467,14,4290,1000,feet,jsons/v1_VE1000_randls_39.json,836268,1240882,40,Woman
33,418362,DepthScenes,duration_manipulation_targetAtFixation,jsons/v1_VE1000_randls_39.json,http://54.235.29.9/FacialAge/BNav_EC2/DepthDuration/v2_depth_duration_MTurk/v2_DepthDuration_HTML.html#387,387,1536,794,1536,864,8-30-2022,8-54-6,34,depth_duration_stimuli/001392_2014-06-19_16-07-59_260595134347_rgbf000046-resize_1/001392_2014-06-19_16-07-59_260595134347_rgbf000046-resize_1-target.png,1000,4.135,15,4741,999,feet,jsons/v1_VE1000_randls_39.json,836268,1240882,40,Woman
34,418362,DepthScenes,duration_manipulation_targetAtFixation,jsons/v1_VE1000_randls_39.json,http://54.235.29.9/FacialAge/BNav_EC2/DepthDuration/v2_depth_duration_MTurk/v2_DepthDuration_HTML.html#387,387,1536,794,1536,864,8-30-2022,8-54-6,35,depth_duration_stimuli/001055_2014-06-08_18-45-35_260595134347_rgbf000111-resize_4/001055_2014-06-08_18-45-35_260595134347_rgbf000111-resize_4-target.png,1000,2.4290000000000003,10,5033,1000,feet,jsons/v1_VE1000_randls_39.json,836268,1240882,40,Woman
35,418362,DepthScenes,duration_manipulation_targetAtFixation,jsons/v1_VE1000_randls_39.json,http://54.235.29.9/FacialAge/BNav_EC2/DepthDuration/v2_depth_duration_MTurk/v2_DepthDuration_HTML.html#387,387,1536,794,1536,864,8-30-2022,8-54-6,36,depth_duration_stimuli/000549_2014-06-08_22-10-24_260595134347_rgbf000247-resize_3/000549_2014-06-08_22-10-24_260595134347_rgbf000247-resize_3-target.png,1000,1.841,4,4059,999,feet,jsons/v1_VE1000_randls_39.json,836268,1240882,40,Woman
36,418362,DepthScenes,duration_manipulation_targetAtFixation,jsons/v1_VE1000_randls_39.json,http://54.235.29.9/FacialAge/BNav_EC2/DepthDuration/v2_depth_duration_MTurk/v2_DepthDuration_HTML.html#387,387,1536,794,1536,864,8-30-2022,8-54-6,37,depth_duration_stimuli/000414_2014-06-04_19-49-13_260595134347_rgbf000044-resize_0/000414_2014-06-04_19-49-13_260595134347_rgbf000044-resize_0-target.png,1000,4.329,16,4595,1000,feet,jsons/v1_VE1000_randls_39.json,836268,1240882,40,Woman
37,418362,DepthScenes,duration_manipulation_targetAtFixation,jsons/v1_VE1000_randls_39.json,http://54.235.29.9/FacialAge/BNav_EC2/DepthDuration/v2_depth_duration_MTurk/v2_DepthDuration_HTML.html#387,387,1536,794,1536,864,8-30-2022,8-54-6,38,depth_duration_stimuli/003129_2014-05-12_10-48-10_094959634447_rgbf000100-resize_0/003129_2014-05-12_10-48-10_094959634447_rgbf000100-resize_0-target.png,1000,4.9305,18,4347,999,feet,jsons/v1_VE1000_randls_39.json,836268,1240882,40,Woman
38,418362,DepthScenes,duration_manipulation_targetAtFixation,jsons/v1_VE1000_randls_39.json,http://54.235.29.9/FacialAge/BNav_EC2/DepthDuration/v2_depth_duration_MTurk/v2_DepthDuration_HTML.html#387,387,1536,794,1536,864,8-30-2022,8-54-6,39,depth_duration_stimuli/002784_2014-06-22_19-26-30_094959634447_rgbf000083-resize_3/002784_2014-06-22_19-26-30_094959634447_rgbf000083-resize_3-target.png,1000,1.8046666666667,7,6363,999,feet,jsons/v1_VE1000_randls_39.json,836268,1240882,40,Woman
39,418362,DepthScenes,duration_manipulation_targetAtFixation,jsons/v1_VE1000_randls_39.json,http://54.235.29.9/FacialAge/BNav_EC2/DepthDuration/v2_depth_duration_MTurk/v2_DepthDuration_HTML.html#387,387,1536,794,1536,864,8-30-2022,8-54-6,40,depth_duration_stimuli/001100_2014-06-15_17-46-26_260595134347_rgbf000225-resize_2/001100_2014-06-15_17-46-26_260595134347_rgbf000225-resize_2-target.png,1000,2.24,3,4113,1000,feet,jsons/v1_VE1000_randls_39.json,836268,1240882,40,Woman
40,418362,DepthScenes,duration_manipulation_targetAtFixation,jsons/v1_VE1000_randls_39.json,http://54.235.29.9/FacialAge/BNav_EC2/DepthDuration/v2_depth_duration_MTurk/v2_DepthDuration_HTML.html#387,387,1536,794,1536,864,8-30-2022,8-54-6,41,depth_duration_stimuli/001555_2014-06-20_17-12-10_260595134347_rgbf000065-resize_4/001555_2014-06-20_17-12-10_260595134347_rgbf000065-resize_4-target.png,1000,1.633,4,3633,999,feet,jsons/v1_VE1000_randls_39.json,836268,1240882,40,Woman
41,418362,DepthScenes,duration_manipulation_targetAtFixation,jsons/v1_VE1000_randls_39.json,http://54.235.29.9/FacialAge/BNav_EC2/DepthDuration/v2_depth_duration_MTurk/v2_DepthDuration_HTML.html#387,387,1536,794,1536,864,8-30-2022,8-54-6,42,depth_duration_stimuli/000103_2014-05-14_22-01-17_260595134347_rgbf000152-resize_5/000103_2014-05-14_22-01-17_260595134347_rgbf000152-resize_5-target.png,1000,1.993,6,3523,999,feet,jsons/v1_VE1000_randls_39.json,836268,1240882,40,Woman
42,418362,DepthScenes,duration_manipulation_targetAtFixation,jsons/v1_VE1000_randls_39.json,http://54.235.29.9/FacialAge/BNav_EC2/DepthDuration/v2_depth_duration_MTurk/v2_DepthDuration_HTML.html#387,387,1536,794,1536,864,8-30-2022,8-54-6,43,depth_duration_stimuli/001110_2014-06-15_17-25-28_260595134347_rgbf000150-resize_1/001110_2014-06-15_17-25-28_260595134347_rgbf000150-resize_1-target.png,1000,1.7115,8,3894,999,feet,jsons/v1_VE1000_randls_39.json,836268,1240882,40,Woman
43,418362,DepthScenes,duration_manipulation_targetAtFixation,jsons/v1_VE1000_randls_39.json,http://54.235.29.9/FacialAge/BNav_EC2/DepthDuration/v2_depth_duration_MTurk/v2_DepthDuration_HTML.html#387,387,1536,794,1536,864,8-30-2022,8-54-6,44,depth_duration_stimuli/000927_2014-06-09_16-32-30_260595134347_rgbf000123-resize_3/000927_2014-06-09_16-32-30_260595134347_rgbf000123-resize_3-target.png,1000,2.6785,9,4692,999,feet,jsons/v1_VE1000_randls_39.json,836268,1240882,40,Woman
44,418362,DepthScenes,duration_manipulation_targetAtFixation,jsons/v1_VE1000_randls_39.json,http://54.235.29.9/FacialAge/BNav_EC2/DepthDuration/v2_depth_duration_MTurk/v2_DepthDuration_HTML.html#387,387,1536,794,1536,864,8-30-2022,8-54-6,45,depth_duration_stimuli/000787_2014-06-08_22-33-53_260595134347_rgbf000175-resize_1/000787_2014-06-08_22-33-53_260595134347_rgbf000175-resize-original.jpg,1000,4.784,0,3565,999,feet,jsons/v1_VE1000_randls_39.json,836268,1240882,40,Woman
45,418362,DepthScenes,duration_manipulation_targetAtFixation,jsons/v1_VE1000_randls_39.json,http://54.235.29.9/FacialAge/BNav_EC2/DepthDuration/v2_depth_duration_MTurk/v2_DepthDuration_HTML.html#387,387,1536,794,1536,864,8-30-2022,8-54-6,46,depth_duration_stimuli/000493_2014-06-09_21-01-18_260595134347_rgbf000196-resize_3/000493_2014-06-09_21-01-18_260595134347_rgbf000196-resize_3-target.png,1000,3.44,8,5186,1000,feet,jsons/v1_VE1000_randls_39.json,836268,1240882,40,Woman
46,418362,DepthScenes,duration_manipulation_targetAtFixation,jsons/v1_VE1000_randls_39.json,http://54.235.29.9/FacialAge/BNav_EC2/DepthDuration/v2_depth_duration_MTurk/v2_DepthDuration_HTML.html#387,387,1536,794,1536,864,8-30-2022,8-54-6,47,depth_duration_stimuli/000191_2014-05-12_17-07-38_260595134347_rgbf000199-resize_0/000191_2014-05-12_17-07-38_260595134347_rgbf000199-resize_0-target.png,1000,3.7995,15,4073,999,feet,jsons/v1_VE1000_randls_39.json,836268,1240882,40,Woman
47,418362,DepthScenes,duration_manipulation_targetAtFixation,jsons/v1_VE1000_randls_39.json,http://54.235.29.9/FacialAge/BNav_EC2/DepthDuration/v2_depth_duration_MTurk/v2_DepthDuration_HTML.html#387,387,1536,794,1536,864,8-30-2022,8-54-6,48,depth_duration_stimuli/000773_2014-06-08_22-24-54_260595134347_rgbf000093-resize_1/000773_2014-06-08_22-24-54_260595134347_rgbf000093-resize_1-target.png,1000,4.973,14,4545,999,feet,jsons/v1_VE1000_randls_39.json,836268,1240882,40,Woman
48,418362,DepthScenes,duration_manipulation_targetAtFixation,jsons/v1_VE1000_randls_39.json,http://54.235.29.9/FacialAge/BNav_EC2/DepthDuration/v2_depth_duration_MTurk/v2_DepthDuration_HTML.html#387,387,1536,794,1536,864,8-30-2022,8-54-6,49,depth_duration_stimuli/002414_2014-06-28_20-24-58_260595134347_rgbf000067-resize_4/002414_2014-06-28_20-24-58_260595134347_rgbf000067-resize_4-target.png,1000,4.363,13,5708,999,feet,jsons/v1_VE1000_randls_39.json,836268,1240882,40,Woman
49,418362,DepthScenes,duration_manipulation_targetAtFixation,jsons/v1_VE1000_randls_39.json,http://54.235.29.9/FacialAge/BNav_EC2/DepthDuration/v2_depth_duration_MTurk/v2_DepthDuration_HTML.html#387,387,1536,794,1536,864,8-30-2022,8-54-6,50,depth_duration_stimuli/002057_2014-06-24_21-00-13_260595134347_rgbf000120-resize_1/002057_2014-06-24_21-00-13_260595134347_rgbf000120-resize_1-target.png,1000,2.967,7,3634,999,feet,jsons/v1_VE1000_randls_39.json,836268,1240882,40,Woman
50,418362,DepthScenes,duration_manipulation_targetAtFixation,jsons/v1_VE1000_randls_39.json,http://54.235.29.9/FacialAge/BNav_EC2/DepthDuration/v2_depth_duration_MTurk/v2_DepthDuration_HTML.html#387,387,1536,794,1536,864,8-30-2022,8-54-6,51,depth_duration_stimuli/000709_2014-06-08_13-51-55_260595134347_rgbf000068-resize_3/000709_2014-06-08_13-51-55_260595134347_rgbf000068-resize_3-target.png,1000,1.8030000000000002,5,3664,999,feet,jsons/v1_VE1000_randls_39.json,836268,1240882,40,Woman
51,418362,DepthScenes,duration_manipulation_targetAtFixation,jsons/v1_VE1000_randls_39.json,http://54.235.29.9/FacialAge/BNav_EC2/DepthDuration/v2_depth_duration_MTurk/v2_DepthDuration_HTML.html#387,387,1536,794,1536,864,8-30-2022,8-54-6,52,depth_duration_stimuli/000682_2014-06-08_23-14-58_260595134347_rgbf000041-resize_5/000682_2014-06-08_23-14-58_260595134347_rgbf000041-resize_5-target.png,1000,2.7239999999999998,7,5719,999,feet,jsons/v1_VE1000_randls_39.json,836268,1240882,40,Woman
52,418362,DepthScenes,duration_manipulation_targetAtFixation,jsons/v1_VE1000_randls_39.json,http://54.235.29.9/FacialAge/BNav_EC2/DepthDuration/v2_depth_duration_MTurk/v2_DepthDuration_HTML.html#387,387,1536,794,1536,864,8-30-2022,8-54-6,53,depth_duration_stimuli/001650_2014-06-20_12-09-00_260595134347_rgbf000087-resize_3/001650_2014-06-20_12-09-00_260595134347_rgbf000087-resize_3-target.png,1000,1.9505,1,4472,999,feet,jsons/v1_VE1000_randls_39.json,836268,1240882,40,Woman
53,418362,DepthScenes,duration_manipulation_targetAtFixation,jsons/v1_VE1000_randls_39.json,http://54.235.29.9/FacialAge/BNav_EC2/DepthDuration/v2_depth_duration_MTurk/v2_DepthDuration_HTML.html#387,387,1536,794,1536,864,8-30-2022,8-54-6,54,depth_duration_stimuli/001167_2014-06-17_15-38-07_260595134347_rgbf000108-resize_0/001167_2014-06-17_15-38-07_260595134347_rgbf000108-resize_0-target.png,1000,1.8505,3,3762,1000,feet,jsons/v1_VE1000_randls_39.json,836268,1240882,40,Woman
54,418362,DepthScenes,duration_manipulation_targetAtFixation,jsons/v1_VE1000_randls_39.json,http://54.235.29.9/FacialAge/BNav_EC2/DepthDuration/v2_depth_duration_MTurk/v2_DepthDuration_HTML.html#387,387,1536,794,1536,864,8-30-2022,8-54-6,55,depth_duration_stimuli/003587_2014-05-23_16-48-02_094959634447_rgbf002384-resize_2/003587_2014-05-23_16-48-02_094959634447_rgbf002384-resize_2-target.png,1000,1.357,2,3433,1000,feet,jsons/v1_VE1000_randls_39.json,836268,1240882,40,Woman
55,418362,DepthScenes,duration_manipulation_targetAtFixation,jsons/v1_VE1000_randls_39.json,http://54.235.29.9/FacialAge/BNav_EC2/DepthDuration/v2_depth_duration_MTurk/v2_DepthDuration_HTML.html#387,387,1536,794,1536,864,8-30-2022,8-54-6,56,depth_duration_stimuli/002272_2014-06-28_18-53-56_260595134347_rgbf000067-resize_2/002272_2014-06-28_18-53-56_260595134347_rgbf000067-resize_2-target.png,1000,1.138,3,4594,999,feet,jsons/v1_VE1000_randls_39.json,836268,1240882,40,Woman
56,418362,DepthScenes,duration_manipulation_targetAtFixation,jsons/v1_VE1000_randls_39.json,http://54.235.29.9/FacialAge/BNav_EC2/DepthDuration/v2_depth_duration_MTurk/v2_DepthDuration_HTML.html#387,387,1536,794,1536,864,8-30-2022,8-54-6,57,depth_duration_stimuli/001571_2014-06-20_17-21-32_260595134347_rgbf000089-resize_1/001571_2014-06-20_17-21-32_260595134347_rgbf000089-resize_1-target.png,1000,1.86,3,3397,999,feet,jsons/v1_VE1000_randls_39.json,836268,1240882,40,Woman
57,418362,DepthScenes,duration_manipulation_targetAtFixation,jsons/v1_VE1000_randls_39.json,http://54.235.29.9/FacialAge/BNav_EC2/DepthDuration/v2_depth_duration_MTurk/v2_DepthDuration_HTML.html#387,387,1536,794,1536,864,8-30-2022,8-54-6,58,depth_duration_stimuli/001417_2014-06-19_16-25-36_260595134347_rgbf000115-resize_5/001417_2014-06-19_16-25-36_260595134347_rgbf000115-resize_5-target.png,1000,4.6255,12,6835,999,feet,jsons/v1_VE1000_randls_39.json,836268,1240882,40,Woman
58,418362,DepthScenes,duration_manipulation_targetAtFixation,jsons/v1_VE1000_randls_39.json,http://54.235.29.9/FacialAge/BNav_EC2/DepthDuration/v2_depth_duration_MTurk/v2_DepthDuration_HTML.html#387,387,1536,794,1536,864,8-30-2022,8-54-6,59,depth_duration_stimuli/003081_2014-06-15_15-19-16_094959634447_rgbf000150-resize_1/003081_2014-06-15_15-19-16_094959634447_rgbf000150-resize_1-target.png,1000,3.9125,11,4066,999,feet,jsons/v1_VE1000_randls_39.json,836268,1240882,40,Woman
59,418362,DepthScenes,duration_manipulation_targetAtFixation,jsons/v1_VE1000_randls_39.json,http://54.235.29.9/FacialAge/BNav_EC2/DepthDuration/v2_depth_duration_MTurk/v2_DepthDuration_HTML.html#387,387,1536,794,1536,864,8-30-2022,8-54-6,60,depth_duration_stimuli/000906_2014-06-08_13-35-43_260595134347_rgbf000155-resize_1/000906_2014-06-08_13-35-43_260595134347_rgbf000155-resize_1-target.png,1000,2.8489999999999998,10,3882,999,feet,jsons/v1_VE1000_randls_39.json,836268,1240882,40,Woman
60,418362,DepthScenes,duration_manipulation_targetAtFixation,jsons/v1_VE1000_randls_39.json,http://54.235.29.9/FacialAge/BNav_EC2/DepthDuration/v2_depth_duration_MTurk/v2_DepthDuration_HTML.html#387,387,1536,794,1536,864,8-30-2022,8-54-6,61,depth_duration_stimuli/002805_2014-06-22_19-54-03_094959634447_rgbf000079-resize_1/002805_2014-06-22_19-54-03_094959634447_rgbf000079-resize_1-target.png,1000,3.1439999999999997,14,3707,999,feet,jsons/v1_VE1000_randls_39.json,836268,1240882,40,Woman
61,418362,DepthScenes,duration_manipulation_targetAtFixation,jsons/v1_VE1000_randls_39.json,http://54.235.29.9/FacialAge/BNav_EC2/DepthDuration/v2_depth_duration_MTurk/v2_DepthDuration_HTML.html#387,387,1536,794,1536,864,8-30-2022,8-54-6,62,depth_duration_stimuli/002570_2014-06-24_13-59-54_094959634447_rgbf000059-resize_0/002570_2014-06-24_13-59-54_094959634447_rgbf000059-resize_0-target.png,1000,4.037,12,6587,1000,feet,jsons/v1_VE1000_randls_39.json,836268,1240882,40,Woman
62,418362,DepthScenes,duration_manipulation_targetAtFixation,jsons/v1_VE1000_randls_39.json,http://54.235.29.9/FacialAge/BNav_EC2/DepthDuration/v2_depth_duration_MTurk/v2_DepthDuration_HTML.html#387,387,1536,794,1536,864,8-30-2022,8-54-6,63,depth_duration_stimuli/002467_2014-06-28_20-38-07_260595134347_rgbf000026-resize_2/002467_2014-06-28_20-38-07_260595134347_rgbf000026-resize_2-target.png,1000,4.742,16,5008,999,feet,jsons/v1_VE1000_randls_39.json,836268,1240882,40,Woman
63,418362,DepthScenes,duration_manipulation_targetAtFixation,jsons/v1_VE1000_randls_39.json,http://54.235.29.9/FacialAge/BNav_EC2/DepthDuration/v2_depth_duration_MTurk/v2_DepthDuration_HTML.html#387,387,1536,794,1536,864,8-30-2022,8-54-6,64,depth_duration_stimuli/000692_2014-06-08_13-09-42_260595134347_rgbf000199-resize_2/000692_2014-06-08_13-09-42_260595134347_rgbf000199-resize_2-target.png,1000,3.661,15,4536,999,feet,jsons/v1_VE1000_randls_39.json,836268,1240882,40,Woman
64,418362,DepthScenes,duration_manipulation_targetAtFixation,jsons/v1_VE1000_randls_39.json,http://54.235.29.9/FacialAge/BNav_EC2/DepthDuration/v2_depth_duration_MTurk/v2_DepthDuration_HTML.html#387,387,1536,794,1536,864,8-30-2022,8-54-6,65,depth_duration_stimuli/001094_2014-06-15_17-36-00_260595134347_rgbf000205-resize_0/001094_2014-06-15_17-36-00_260595134347_rgbf000205-resize_0-target.png,1000,4.2175,16,4651,999,feet,jsons/v1_VE1000_randls_39.json,836268,1240882,40,Woman
65,418362,DepthScenes,duration_manipulation_targetAtFixation,jsons/v1_VE1000_randls_39.json,http://54.235.29.9/FacialAge/BNav_EC2/DepthDuration/v2_depth_duration_MTurk/v2_DepthDuration_HTML.html#387,387,1536,794,1536,864,8-30-2022,8-54-6,66,depth_duration_stimuli/001222_2014-06-17_16-24-06_260595134347_rgbf000073-resize_0/001222_2014-06-17_16-24-06_260595134347_rgbf000073-resize-original.jpg,1000,1.4385,0,3414,999,feet,jsons/v1_VE1000_randls_39.json,836268,1240882,40,Woman
66,418362,DepthScenes,duration_manipulation_targetAtFixation,jsons/v1_VE1000_randls_39.json,http://54.235.29.9/FacialAge/BNav_EC2/DepthDuration/v2_depth_duration_MTurk/v2_DepthDuration_HTML.html#387,387,1536,794,1536,864,8-30-2022,8-54-6,67,depth_duration_stimuli/001133_2014-06-17_14-49-16_260595134347_rgbf000100-resize_0/001133_2014-06-17_14-49-16_260595134347_rgbf000100-resize_0-target.png,1000,4.2115,13,4006,1000,feet,jsons/v1_VE1000_randls_39.json,836268,1240882,40,Woman
67,418362,DepthScenes,duration_manipulation_targetAtFixation,jsons/v1_VE1000_randls_39.json,http://54.235.29.9/FacialAge/BNav_EC2/DepthDuration/v2_depth_duration_MTurk/v2_DepthDuration_HTML.html#387,387,1536,794,1536,864,8-30-2022,8-54-6,68,depth_duration_stimuli/001132_2014-06-17_14-48-54_260595134347_rgbf000100-resize_2/001132_2014-06-17_14-48-54_260595134347_rgbf000100-resize_2-target.png,1000,3.753,12,4910,1000,feet,jsons/v1_VE1000_randls_39.json,836268,1240882,40,Woman
68,418362,DepthScenes,duration_manipulation_targetAtFixation,jsons/v1_VE1000_randls_39.json,http://54.235.29.9/FacialAge/BNav_EC2/DepthDuration/v2_depth_duration_MTurk/v2_DepthDuration_HTML.html#387,387,1536,794,1536,864,8-30-2022,8-54-6,69,depth_duration_stimuli/000878_2014-06-08_22-52-45_260595134347_rgbf000045-resize_2/000878_2014-06-08_22-52-45_260595134347_rgbf000045-resize_2-target.png,1000,2.092,8,3726,1000,feet,jsons/v1_VE1000_randls_39.json,836268,1240882,40,Woman
69,418362,DepthScenes,duration_manipulation_targetAtFixation,jsons/v1_VE1000_randls_39.json,http://54.235.29.9/FacialAge/BNav_EC2/DepthDuration/v2_depth_duration_MTurk/v2_DepthDuration_HTML.html#387,387,1536,794,1536,864,8-30-2022,8-54-6,70,depth_duration_stimuli/002953_2014-06-08_17-32-18_094959634447_rgbf000059-resize_5/002953_2014-06-08_17-32-18_094959634447_rgbf000059-resize_5-target.png,1000,1.551,6,3788,999,feet,jsons/v1_VE1000_randls_39.json,836268,1240882,40,Woman
70,418362,DepthScenes,duration_manipulation_targetAtFixation,jsons/v1_VE1000_randls_39.json,http://54.235.29.9/FacialAge/BNav_EC2/DepthDuration/v2_depth_duration_MTurk/v2_DepthDuration_HTML.html#387,387,1536,794,1536,864,8-30-2022,8-54-6,71,depth_duration_stimuli/001029_2014-06-08_13-17-57_260595134347_rgbf000065-resize_1/001029_2014-06-08_13-17-57_260595134347_rgbf000065-resize_1-target.png,1000,3.0835,9,4123,999,feet,jsons/v1_VE1000_randls_39.json,836268,1240882,40,Woman
71,418362,DepthScenes,duration_manipulation_targetAtFixation,jsons/v1_VE1000_randls_39.json,http://54.235.29.9/FacialAge/BNav_EC2/DepthDuration/v2_depth_duration_MTurk/v2_DepthDuration_HTML.html#387,387,1536,794,1536,864,8-30-2022,8-54-6,72,depth_duration_stimuli/000677_2014-06-08_23-10-32_260595134347_rgbf000158-resize_6/000677_2014-06-08_23-10-32_260595134347_rgbf000158-resize_6-target.png,1000,3.556,10,8174,1000,feet,jsons/v1_VE1000_randls_39.json,836268,1240882,40,Woman
72,418362,DepthScenes,duration_manipulation_targetAtFixation,jsons/v1_VE1000_randls_39.json,http://54.235.29.9/FacialAge/BNav_EC2/DepthDuration/v2_depth_duration_MTurk/v2_DepthDuration_HTML.html#387,387,1536,794,1536,864,8-30-2022,8-54-6,73,depth_duration_stimuli/000470_2014-06-09_19-42-40_260595134347_rgbf000094-resize_1/000470_2014-06-09_19-42-40_260595134347_rgbf000094-resize_1-target.png,1000,1.831,8,5224,999,feet,jsons/v1_VE1000_randls_39.json,836268,1240882,40,Woman
73,418362,DepthScenes,duration_manipulation_targetAtFixation,jsons/v1_VE1000_randls_39.json,http://54.235.29.9/FacialAge/BNav_EC2/DepthDuration/v2_depth_duration_MTurk/v2_DepthDuration_HTML.html#387,387,1536,794,1536,864,8-30-2022,8-54-6,74,depth_duration_stimuli/000109_2014-05-14_23-41-52_260595134347_rgbf000035-resize_9/000109_2014-05-14_23-41-52_260595134347_rgbf000035-resize_9-target.png,1000,1.3545,4,6598,999,feet,jsons/v1_VE1000_randls_39.json,836268,1240882,40,Woman
74,418362,DepthScenes,duration_manipulation_targetAtFixation,jsons/v1_VE1000_randls_39.json,http://54.235.29.9/FacialAge/BNav_EC2/DepthDuration/v2_depth_duration_MTurk/v2_DepthDuration_HTML.html#387,387,1536,794,1536,864,8-30-2022,8-54-6,75,depth_duration_stimuli/000469_2014-06-09_19-42-10_260595134347_rgbf000081-resize_1/000469_2014-06-09_19-42-10_260595134347_rgbf000081-resize_1-target.png,1000,1.652,4,4120,999,feet,jsons/v1_VE1000_randls_39.json,836268,1240882,40,Woman
75,418362,DepthScenes,duration_manipulation_targetAtFixation,jsons/v1_VE1000_randls_39.json,http://54.235.29.9/FacialAge/BNav_EC2/DepthDuration/v2_depth_duration_MTurk/v2_DepthDuration_HTML.html#387,387,1536,794,1536,864,8-30-2022,8-54-6,76,depth_duration_stimuli/000483_2014-06-09_20-41-45_260595134347_rgbf000116-resize_4/000483_2014-06-09_20-41-45_260595134347_rgbf000116-resize_4-target.png,1000,1.337,3,3631,1000,feet,jsons/v1_VE1000_randls_39.json,836268,1240882,40,Woman
76,418362,DepthScenes,duration_manipulation_targetAtFixation,jsons/v1_VE1000_randls_39.json,http://54.235.29.9/FacialAge/BNav_EC2/DepthDuration/v2_depth_duration_MTurk/v2_DepthDuration_HTML.html#387,387,1536,794,1536,864,8-30-2022,8-54-6,77,depth_duration_stimuli/001199_2014-06-17_16-03-48_260595134347_rgbf000077-resize_0/001199_2014-06-17_16-03-48_260595134347_rgbf000077-resize_0-target.png,1000,3.4375,14,5494,1000,feet,jsons/v1_VE1000_randls_39.json,836268,1240882,40,Woman
77,418362,DepthScenes,duration_manipulation_targetAtFixation,jsons/v1_VE1000_randls_39.json,http://54.235.29.9/FacialAge/BNav_EC2/DepthDuration/v2_depth_duration_MTurk/v2_DepthDuration_HTML.html#387,387,1536,794,1536,864,8-30-2022,8-54-6,78,depth_duration_stimuli/000502_2014-06-08_23-02-32_260595134347_rgbf000063-resize_4/000502_2014-06-08_23-02-32_260595134347_rgbf000063-resize_4-target.png,1000,2.431,6,3662,999,feet,jsons/v1_VE1000_randls_39.json,836268,1240882,40,Woman
78,418362,DepthScenes,duration_manipulation_targetAtFixation,jsons/v1_VE1000_randls_39.json,http://54.235.29.9/FacialAge/BNav_EC2/DepthDuration/v2_depth_duration_MTurk/v2_DepthDuration_HTML.html#387,387,1536,794,1536,864,8-30-2022,8-54-6,79,depth_duration_stimuli/002905_2014-06-03_18-04-43_094959634447_rgbf000151-resize_2/002905_2014-06-03_18-04-43_094959634447_rgbf000151-resize_2-target.png,1000,2.0295,5,3711,1000,feet,jsons/v1_VE1000_randls_39.json,836268,1240882,40,Woman
79,418362,DepthScenes,duration_manipulation_targetAtFixation,jsons/v1_VE1000_randls_39.json,http://54.235.29.9/FacialAge/BNav_EC2/DepthDuration/v2_depth_duration_MTurk/v2_DepthDuration_HTML.html#387,387,1536,794,1536,864,8-30-2022,8-54-6,80,depth_duration_stimuli/003423_2014-05-21_10-23-26_094959634447_rgbf002665-resize_2/003423_2014-05-21_10-23-26_094959634447_rgbf002665-resize_2-target.png,1000,3.2575,10,5321,999,feet,jsons/v1_VE1000_randls_39.json,836268,1240882,40,Woman
80,418362,DepthScenes,duration_manipulation_targetAtFixation,jsons/v1_VE1000_randls_39.json,http://54.235.29.9/FacialAge/BNav_EC2/DepthDuration/v2_depth_duration_MTurk/v2_DepthDuration_HTML.html#387,387,1536,794,1536,864,8-30-2022,8-54-6,81,depth_duration_stimuli/000758_2014-06-08_22-05-08_260595134347_rgbf000085-resize_0/000758_2014-06-08_22-05-08_260595134347_rgbf000085-resize_0-target.png,1000,3.3810000000000002,11,4871,1000,feet,jsons/v1_VE1000_randls_39.json,836268,1240882,40,Woman
81,418362,DepthScenes,duration_manipulation_targetAtFixation,jsons/v1_VE1000_randls_39.json,http://54.235.29.9/FacialAge/BNav_EC2/DepthDuration/v2_depth_duration_MTurk/v2_DepthDuration_HTML.html#387,387,1536,794,1536,864,8-30-2022,8-54-6,82,depth_duration_stimuli/000854_2014-06-09_19-43-13_260595134347_rgbf000066-resize_0/000854_2014-06-09_19-43-13_260595134347_rgbf000066-resize_0-target.png,1000,3.068,8,3651,999,feet,jsons/v1_VE1000_randls_39.json,836268,1240882,40,Woman
82,418362,DepthScenes,duration_manipulation_targetAtFixation,jsons/v1_VE1000_randls_39.json,http://54.235.29.9/FacialAge/BNav_EC2/DepthDuration/v2_depth_duration_MTurk/v2_DepthDuration_HTML.html#387,387,1536,794,1536,864,8-30-2022,8-54-6,83,depth_duration_stimuli/002279_2014-06-28_18-55-32_260595134347_rgbf000040-resize_5/002279_2014-06-28_18-55-32_260595134347_rgbf000040-resize_5-target.png,1000,1.5043333333333,4,4215,999,feet,jsons/v1_VE1000_randls_39.json,836268,1240882,40,Woman
83,418362,DepthScenes,duration_manipulation_targetAtFixation,jsons/v1_VE1000_randls_39.json,http://54.235.29.9/FacialAge/BNav_EC2/DepthDuration/v2_depth_duration_MTurk/v2_DepthDuration_HTML.html#387,387,1536,794,1536,864,8-30-2022,8-54-6,84,depth_duration_stimuli/000635_2014-06-08_16-38-42_260595134347_rgbf000106-resize_1/000635_2014-06-08_16-38-42_260595134347_rgbf000106-resize_1-target.png,1000,2.074,7,3596,1000,feet,jsons/v1_VE1000_randls_39.json,836268,1240882,40,Woman
84,418362,DepthScenes,duration_manipulation_targetAtFixation,jsons/v1_VE1000_randls_39.json,http://54.235.29.9/FacialAge/BNav_EC2/DepthDuration/v2_depth_duration_MTurk/v2_DepthDuration_HTML.html#387,387,1536,794,1536,864,8-30-2022,8-54-6,85,depth_duration_stimuli/002445_2014-06-28_20-32-16_260595134347_rgbf000029-resize_4/002445_2014-06-28_20-32-16_260595134347_rgbf000029-resize_4-target.png,1000,2.5315,7,3928,1000,feet,jsons/v1_VE1000_randls_39.json,836268,1240882,40,Woman
85,418362,DepthScenes,duration_manipulation_targetAtFixation,jsons/v1_VE1000_randls_39.json,http://54.235.29.9/FacialAge/BNav_EC2/DepthDuration/v2_depth_duration_MTurk/v2_DepthDuration_HTML.html#387,387,1536,794,1536,864,8-30-2022,8-54-6,86,depth_duration_stimuli/000780_2014-06-08_22-28-29_260595134347_rgbf000126-resize_1/000780_2014-06-08_22-28-29_260595134347_rgbf000126-resize_1-target.png,1000,3.3825,11,4002,999,feet,jsons/v1_VE1000_randls_39.json,836268,1240882,40,Woman
86,418362,DepthScenes,duration_manipulation_targetAtFixation,jsons/v1_VE1000_randls_39.json,http://54.235.29.9/FacialAge/BNav_EC2/DepthDuration/v2_depth_duration_MTurk/v2_DepthDuration_HTML.html#387,387,1536,794,1536,864,8-30-2022,8-54-6,87,depth_duration_stimuli/001449_2014-06-19_17-01-27_260595134347_rgbf000116-resize_2/001449_2014-06-19_17-01-27_260595134347_rgbf000116-resize_2-target.png,1000,3.452,10,3643,998,feet,jsons/v1_VE1000_randls_39.json,836268,1240882,40,Woman
87,418362,DepthScenes,duration_manipulation_targetAtFixation,jsons/v1_VE1000_randls_39.json,http://54.235.29.9/FacialAge/BNav_EC2/DepthDuration/v2_depth_duration_MTurk/v2_DepthDuration_HTML.html#387,387,1536,794,1536,864,8-30-2022,8-54-6,88,depth_duration_stimuli/001450_2014-06-19_17-02-03_260595134347_rgbf000203-resize_4/001450_2014-06-19_17-02-03_260595134347_rgbf000203-resize_4-target.png,1000,4.0106666666667,14,3587,999,feet,jsons/v1_VE1000_randls_39.json,836268,1240882,40,Woman
88,418362,DepthScenes,duration_manipulation_targetAtFixation,jsons/v1_VE1000_randls_39.json,http://54.235.29.9/FacialAge/BNav_EC2/DepthDuration/v2_depth_duration_MTurk/v2_DepthDuration_HTML.html#387,387,1536,794,1536,864,8-30-2022,8-54-6,89,depth_duration_stimuli/000642_2014-06-08_16-59-25_260595134347_rgbf000098-resize_2/000642_2014-06-08_16-59-25_260595134347_rgbf000098-resize_2-target.png,1000,2.8815,13,5268,999,feet,jsons/v1_VE1000_randls_39.json,836268,1240882,40,Woman
89,418362,DepthScenes,duration_manipulation_targetAtFixation,jsons/v1_VE1000_randls_39.json,http://54.235.29.9/FacialAge/BNav_EC2/DepthDuration/v2_depth_duration_MTurk/v2_DepthDuration_HTML.html#387,387,1536,794,1536,864,8-30-2022,8-54-6,90,depth_duration_stimuli/002425_2014-06-28_20-27-29_260595134347_rgbf000031-resize_8/002425_2014-06-28_20-27-29_260595134347_rgbf000031-resize_8-target.png,1000,3.8960000000000004,13,5293,999,feet,jsons/v1_VE1000_randls_39.json,836268,1240882,40,Woman
90,418362,DepthScenes,duration_manipulation_targetAtFixation,jsons/v1_VE1000_randls_39.json,http://54.235.29.9/FacialAge/BNav_EC2/DepthDuration/v2_depth_duration_MTurk/v2_DepthDuration_HTML.html#387,387,1536,794,1536,864,8-30-2022,8-54-6,91,depth_duration_stimuli/001808_2014-06-26_20-50-58_260595134347_rgbf000029-resize_1/001808_2014-06-26_20-50-58_260595134347_rgbf000029-resize_1-target.png,1000,4.249,12,5425,1000,feet,jsons/v1_VE1000_randls_39.json,836268,1240882,40,Woman
91,418362,DepthScenes,duration_manipulation_targetAtFixation,jsons/v1_VE1000_randls_39.json,http://54.235.29.9/FacialAge/BNav_EC2/DepthDuration/v2_depth_duration_MTurk/v2_DepthDuration_HTML.html#387,387,1536,794,1536,864,8-30-2022,8-54-6,92,depth_duration_stimuli/001815_2014-06-26_20-52-55_260595134347_rgbf000020-resize_0/001815_2014-06-26_20-52-55_260595134347_rgbf000020-resize_0-target.png,1000,3.3865,10,4403,999,feet,jsons/v1_VE1000_randls_39.json,836268,1240882,40,Woman
92,418362,DepthScenes,duration_manipulation_targetAtFixation,jsons/v1_VE1000_randls_39.json,http://54.235.29.9/FacialAge/BNav_EC2/DepthDuration/v2_depth_duration_MTurk/v2_DepthDuration_HTML.html#387,387,1536,794,1536,864,8-30-2022,8-54-6,93,depth_duration_stimuli/001056_2014-06-08_18-46-44_260595134347_rgbf000068-resize_0/001056_2014-06-08_18-46-44_260595134347_rgbf000068-resize_0-target.png,1000,2.6625,10,6066,999,feet,jsons/v1_VE1000_randls_39.json,836268,1240882,40,Woman
93,418362,DepthScenes,duration_manipulation_targetAtFixation,jsons/v1_VE1000_randls_39.json,http://54.235.29.9/FacialAge/BNav_EC2/DepthDuration/v2_depth_duration_MTurk/v2_DepthDuration_HTML.html#387,387,1536,794,1536,864,8-30-2022,8-54-6,94,depth_duration_stimuli/002199_2014-06-28_18-33-56_260595134347_rgbf000074-resize_0/002199_2014-06-28_18-33-56_260595134347_rgbf000074-resize_0-target.png,1000,1.996,3,3880,999,feet,jsons/v1_VE1000_randls_39.json,836268,1240882,40,Woman
94,418362,DepthScenes,duration_manipulation_targetAtFixation,jsons/v1_VE1000_randls_39.json,http://54.235.29.9/FacialAge/BNav_EC2/DepthDuration/v2_depth_duration_MTurk/v2_DepthDuration_HTML.html#387,387,1536,794,1536,864,8-30-2022,8-54-6,95,depth_duration_stimuli/003292_2014-05-14_21-53-49_094959634447_rgbf000100-resize_2/003292_2014-05-14_21-53-49_094959634447_rgbf000100-resize_2-target.png,1000,3.4815,12,6818,1000,feet,jsons/v1_VE1000_randls_39.json,836268,1240882,40,Woman
95,418362,DepthScenes,duration_manipulation_targetAtFixation,jsons/v1_VE1000_randls_39.json,http://54.235.29.9/FacialAge/BNav_EC2/DepthDuration/v2_depth_duration_MTurk/v2_DepthDuration_HTML.html#387,387,1536,794,1536,864,8-30-2022,8-54-6,96,depth_duration_stimuli/002639_2014-06-24_14-51-37_094959634447_rgbf000074-resize_4/002639_2014-06-24_14-51-37_094959634447_rgbf000074-resize_4-target.png,1000,4.0375,13,3992,999,feet,jsons/v1_VE1000_randls_39.json,836268,1240882,40,Woman
96,418362,DepthScenes,duration_manipulation_targetAtFixation,jsons/v1_VE1000_randls_39.json,http://54.235.29.9/FacialAge/BNav_EC2/DepthDuration/v2_depth_duration_MTurk/v2_DepthDuration_HTML.html#387,387,1536,794,1536,864,8-30-2022,8-54-6,97,depth_duration_stimuli/001244_2014-06-17_16-47-45_260595134347_rgbf000030-resize_4/001244_2014-06-17_16-47-45_260595134347_rgbf000030-resize_4-target.png,1000,2.0425,4,3440,997,feet,jsons/v1_VE1000_randls_39.json,836268,1240882,40,Woman
97,418362,DepthScenes,duration_manipulation_targetAtFixation,jsons/v1_VE1000_randls_39.json,http://54.235.29.9/FacialAge/BNav_EC2/DepthDuration/v2_depth_duration_MTurk/v2_DepthDuration_HTML.html#387,387,1536,794,1536,864,8-30-2022,8-54-6,98,depth_duration_stimuli/003495_2014-05-21_16-01-51_094959634447_rgbf000100-resize_3/003495_2014-05-21_16-01-51_094959634447_rgbf000100-resize_3-target.png,1000,1.6255,4,4694,999,feet,jsons/v1_VE1000_randls_39.json,836268,1240882,40,Woman
98,418362,DepthScenes,duration_manipulation_targetAtFixation,jsons/v1_VE1000_randls_39.json,http://54.235.29.9/FacialAge/BNav_EC2/DepthDuration/v2_depth_duration_MTurk/v2_DepthDuration_HTML.html#387,387,1536,794,1536,864,8-30-2022,8-54-6,99,depth_duration_stimuli/001540_2014-06-20_17-01-05_260595134347_rgbf000086-resize_2/001540_2014-06-20_17-01-05_260595134347_rgbf000086-resize-original.jpg,1000,1.459,0,5425,999,feet,jsons/v1_VE1000_randls_39.json,836268,1240882,40,Woman
99,418362,DepthScenes,duration_manipulation_targetAtFixation,jsons/v1_VE1000_randls_39.json,http://54.235.29.9/FacialAge/BNav_EC2/DepthDuration/v2_depth_duration_MTurk/v2_DepthDuration_HTML.html#387,387,1536,794,1536,864,8-30-2022,8-54-6,100,depth_duration_stimuli/001150_2014-06-17_15-27-34_260595134347_rgbf000108-resize_2/001150_2014-06-17_15-27-34_260595134347_rgbf000108-resize_2-target.png,1000,4.0325,14,3971,1000,feet,jsons/v1_VE1000_randls_39.json,836268,1240882,40,Woman
100,418362,DepthScenes,duration_manipulation_targetAtFixation,jsons/v1_VE1000_randls_39.json,http://54.235.29.9/FacialAge/BNav_EC2/DepthDuration/v2_depth_duration_MTurk/v2_DepthDuration_HTML.html#387,387,1536,794,1536,864,8-30-2022,8-54-6,101,depth_duration_stimuli/000665_2014-06-09_20-42-35_260595134347_rgbf000110-resize_1/000665_2014-06-09_20-42-35_260595134347_rgbf000110-resize_1-target.png,1000,3.057,10,6040,999,feet,jsons/v1_VE1000_randls_39.json,836268,1240882,40,Woman
101,418362,DepthScenes,duration_manipulation_targetAtFixation,jsons/v1_VE1000_randls_39.json,http://54.235.29.9/FacialAge/BNav_EC2/DepthDuration/v2_depth_duration_MTurk/v2_DepthDuration_HTML.html#387,387,1536,794,1536,864,8-30-2022,8-54-6,102,depth_duration_stimuli/002600_2014-06-24_14-27-04_094959634447_rgbf000074-resize_2/002600_2014-06-24_14-27-04_094959634447_rgbf000074-resize_2-target.png,1000,2.7575,8,3287,999,feet,jsons/v1_VE1000_randls_39.json,836268,1240882,40,Woman
102,418362,DepthScenes,duration_manipulation_targetAtFixation,jsons/v1_VE1000_randls_39.json,http://54.235.29.9/FacialAge/BNav_EC2/DepthDuration/v2_depth_duration_MTurk/v2_DepthDuration_HTML.html#387,387,1536,794,1536,864,8-30-2022,8-54-6,103,depth_duration_stimuli/003228_2014-05-14_13-42-35_094959634447_rgbf000101-resize_1/003228_2014-05-14_13-42-35_094959634447_rgbf000101-resize_1-target.png,1000,1.9680000000000002,4,3301,1000,feet,jsons/v1_VE1000_randls_39.json,836268,1240882,40,Woman
103,418362,DepthScenes,duration_manipulation_targetAtFixation,jsons/v1_VE1000_randls_39.json,http://54.235.29.9/FacialAge/BNav_EC2/DepthDuration/v2_depth_duration_MTurk/v2_DepthDuration_HTML.html#387,387,1536,794,1536,864,8-30-2022,8-54-6,104,depth_duration_stimuli/002549_2014-06-24_13-41-39_094959634447_rgbf000022-resize_3/002549_2014-06-24_13-41-39_094959634447_rgbf000022-resize_3-target.png,1000,1.476,4,4120,1000,feet,jsons/v1_VE1000_randls_39.json,836268,1240882,40,Woman
104,418362,DepthScenes,duration_manipulation_targetAtFixation,jsons/v1_VE1000_randls_39.json,http://54.235.29.9/FacialAge/BNav_EC2/DepthDuration/v2_depth_duration_MTurk/v2_DepthDuration_HTML.html#387,387,1536,794,1536,864,8-30-2022,8-54-6,105,depth_duration_stimuli/002750_2014-06-22_19-08-03_094959634447_rgbf000094-resize_4/002750_2014-06-22_19-08-03_094959634447_rgbf000094-resize_4-target.png,1000,2.354,8,3540,999,feet,jsons/v1_VE1000_randls_39.json,836268,1240882,40,Woman
105,418362,DepthScenes,duration_manipulation_targetAtFixation,jsons/v1_VE1000_randls_39.json,http://54.235.29.9/FacialAge/BNav_EC2/DepthDuration/v2_depth_duration_MTurk/v2_DepthDuration_HTML.html#387,387,1536,794,1536,864,8-30-2022,8-54-6,106,depth_duration_stimuli/000739_2014-06-08_18-45-58_260595134347_rgbf000068-resize_1/000739_2014-06-08_18-45-58_260595134347_rgbf000068-resize_1-target.png,1000,3.534,9,4633,999,feet,jsons/v1_VE1000_randls_39.json,836268,1240882,40,Woman
106,418362,DepthScenes,duration_manipulation_targetAtFixation,jsons/v1_VE1000_randls_39.json,http://54.235.29.9/FacialAge/BNav_EC2/DepthDuration/v2_depth_duration_MTurk/v2_DepthDuration_HTML.html#387,387,1536,794,1536,864,8-30-2022,8-54-6,107,depth_duration_stimuli/000734_2014-06-08_17-39-11_260595134347_rgbf000128-resize_2/000734_2014-06-08_17-39-11_260595134347_rgbf000128-resize_2-target.png,1000,4.098,9,7994,999,feet,jsons/v1_VE1000_randls_39.json,836268,1240882,40,Woman
107,418362,DepthScenes,duration_manipulation_targetAtFixation,jsons/v1_VE1000_randls_39.json,http://54.235.29.9/FacialAge/BNav_EC2/DepthDuration/v2_depth_duration_MTurk/v2_DepthDuration_HTML.html#387,387,1536,794,1536,864,8-30-2022,8-54-6,108,depth_duration_stimuli/002509_2014-06-24_13-19-22_094959634447_rgbf000077-resize_0/002509_2014-06-24_13-19-22_094959634447_rgbf000077-resize_0-target.png,1000,1.3065,2,3893,999,feet,jsons/v1_VE1000_randls_39.json,836268,1240882,40,Woman
108,418362,DepthScenes,duration_manipulation_targetAtFixation,jsons/v1_VE1000_randls_39.json,http://54.235.29.9/FacialAge/BNav_EC2/DepthDuration/v2_depth_duration_MTurk/v2_DepthDuration_HTML.html#387,387,1536,794,1536,864,8-30-2022,8-54-6,109,depth_duration_stimuli/003338_2014-05-20_11-01-23_094959634447_rgbf000051-resize_6/003338_2014-05-20_11-01-23_094959634447_rgbf000051-resize_6-target.png,1000,1.693,3,4526,1000,feet,jsons/v1_VE1000_randls_39.json,836268,1240882,40,Woman
109,418362,DepthScenes,duration_manipulation_targetAtFixation,jsons/v1_VE1000_randls_39.json,http://54.235.29.9/FacialAge/BNav_EC2/DepthDuration/v2_depth_duration_MTurk/v2_DepthDuration_HTML.html#387,387,1536,794,1536,864,8-30-2022,8-54-6,110,depth_duration_stimuli/001016_2014-06-09_16-16-10_260595134347_rgbf000112-resize_5/001016_2014-06-09_16-16-10_260595134347_rgbf000112-resize_5-target.png,1000,1.6565,6,6058,1000,feet,jsons/v1_VE1000_randls_39.json,836268,1240882,40,Woman
110,418362,DepthScenes,duration_manipulation_targetAtFixation,jsons/v1_VE1000_randls_39.json,http://54.235.29.9/FacialAge/BNav_EC2/DepthDuration/v2_depth_duration_MTurk/v2_DepthDuration_HTML.html#387,387,1536,794,1536,864,8-30-2022,8-54-6,111,depth_duration_stimuli/002340_2014-06-28_20-05-46_260595134347_rgbf000113-resize_0/002340_2014-06-28_20-05-46_260595134347_rgbf000113-resize_0-target.png,1000,2.4735,11,8258,999,feet,jsons/v1_VE1000_randls_39.json,836268,1240882,40,Woman
111,418362,DepthScenes,duration_manipulation_targetAtFixation,jsons/v1_VE1000_randls_39.json,http://54.235.29.9/FacialAge/BNav_EC2/DepthDuration/v2_depth_duration_MTurk/v2_DepthDuration_HTML.html#387,387,1536,794,1536,864,8-30-2022,8-54-6,112,depth_duration_stimuli/002039_2014-06-24_20-22-38_260595134347_rgbf000084-resize_1/002039_2014-06-24_20-22-38_260595134347_rgbf000084-resize_1-target.png,1000,4.408,14,3493,999,feet,jsons/v1_VE1000_randls_39.json,836268,1240882,40,Woman
112,418362,DepthScenes,duration_manipulation_targetAtFixation,jsons/v1_VE1000_randls_39.json,http://54.235.29.9/FacialAge/BNav_EC2/DepthDuration/v2_depth_duration_MTurk/v2_DepthDuration_HTML.html#387,387,1536,794,1536,864,8-30-2022,8-54-6,113,depth_duration_stimuli/002103_2014-06-25_20-00-40_260595134347_rgbf000049-resize_0/002103_2014-06-25_20-00-40_260595134347_rgbf000049-resize_0-target.png,1000,4.105,9,6590,998,feet,jsons/v1_VE1000_randls_39.json,836268,1240882,40,Woman
113,418362,DepthScenes,duration_manipulation_targetAtFixation,jsons/v1_VE1000_randls_39.json,http://54.235.29.9/FacialAge/BNav_EC2/DepthDuration/v2_depth_duration_MTurk/v2_DepthDuration_HTML.html#387,387,1536,794,1536,864,8-30-2022,8-54-6,114,depth_duration_stimuli/002748_2014-06-22_19-07-22_094959634447_rgbf000078-resize_1/002748_2014-06-22_19-07-22_094959634447_rgbf000078-resize_1-target.png,1000,4.6705,14,5446,999,feet,jsons/v1_VE1000_randls_39.json,836268,1240882,40,Woman
114,418362,DepthScenes,duration_manipulation_targetAtFixation,jsons/v1_VE1000_randls_39.json,http://54.235.29.9/FacialAge/BNav_EC2/DepthDuration/v2_depth_duration_MTurk/v2_DepthDuration_HTML.html#387,387,1536,794,1536,864,8-30-2022,8-54-6,115,depth_duration_stimuli/002995_2014-06-15_12-31-26_094959634447_rgbf000150-resize_1/002995_2014-06-15_12-31-26_094959634447_rgbf000150-resize_1-target.png,1000,3.8360000000000003,16,4167,999,feet,jsons/v1_VE1000_randls_39.json,836268,1240882,40,Woman
115,418362,DepthScenes,duration_manipulation_targetAtFixation,jsons/v1_VE1000_randls_39.json,http://54.235.29.9/FacialAge/BNav_EC2/DepthDuration/v2_depth_duration_MTurk/v2_DepthDuration_HTML.html#387,387,1536,794,1536,864,8-30-2022,8-54-6,116,depth_duration_stimuli/001170_2014-06-17_15-43-44_260595134347_rgbf000096-resize_6/001170_2014-06-17_15-43-44_260595134347_rgbf000096-resize-original.jpg,1000,1.1909999999999998,0,3840,999,feet,jsons/v1_VE1000_randls_39.json,836268,1240882,40,Woman
116,418362,DepthScenes,duration_manipulation_targetAtFixation,jsons/v1_VE1000_randls_39.json,http://54.235.29.9/FacialAge/BNav_EC2/DepthDuration/v2_depth_duration_MTurk/v2_DepthDuration_HTML.html#387,387,1536,794,1536,864,8-30-2022,8-54-6,117,depth_duration_stimuli/001810_2014-06-26_20-51-35_260595134347_rgbf000040-resize_3/001810_2014-06-26_20-51-35_260595134347_rgbf000040-resize_3-target.png,1000,2.2525,6,4287,999,feet,jsons/v1_VE1000_randls_39.json,836268,1240882,40,Woman
117,418362,DepthScenes,duration_manipulation_targetAtFixation,jsons/v1_VE1000_randls_39.json,http://54.235.29.9/FacialAge/BNav_EC2/DepthDuration/v2_depth_duration_MTurk/v2_DepthDuration_HTML.html#387,387,1536,794,1536,864,8-30-2022,8-54-6,118,depth_duration_stimuli/003010_2014-06-15_12-54-35_094959634447_rgbf000112-resize_0/003010_2014-06-15_12-54-35_094959634447_rgbf000112-resize_0-target.png,1000,3.1185,10,4340,999,feet,jsons/v1_VE1000_randls_39.json,836268,1240882,40,Woman
118,418362,DepthScenes,duration_manipulation_targetAtFixation,jsons/v1_VE1000_randls_39.json,http://54.235.29.9/FacialAge/BNav_EC2/DepthDuration/v2_depth_duration_MTurk/v2_DepthDuration_HTML.html#387,387,1536,794,1536,864,8-30-2022,8-54-6,119,depth_duration_stimuli/000486_2014-06-09_20-47-20_260595134347_rgbf000143-resize_2/000486_2014-06-09_20-47-20_260595134347_rgbf000143-resize_2-target.png,1000,4.8325,12,4742,1000,feet,jsons/v1_VE1000_randls_39.json,836268,1240882,40,Woman
119,418362,DepthScenes,duration_manipulation_targetAtFixation,jsons/v1_VE1000_randls_39.json,http://54.235.29.9/FacialAge/BNav_EC2/DepthDuration/v2_depth_duration_MTurk/v2_DepthDuration_HTML.html#387,387,1536,794,1536,864,8-30-2022,8-54-6,120,depth_duration_stimuli/003083_2014-06-15_15-21-03_094959634447_rgbf000063-resize_1/003083_2014-06-15_15-21-03_094959634447_rgbf000063-resize_1-target.png,1000,4.1405,17,5282,999,feet,jsons/v1_VE1000_randls_39.json,836268,1240882,40,Woman
120,418362,DepthScenes,duration_manipulation_targetAtFixation,jsons/v1_VE1000_randls_39.json,http://54.235.29.9/FacialAge/BNav_EC2/DepthDuration/v2_depth_duration_MTurk/v2_DepthDuration_HTML.html#387,387,1536,794,1536,864,8-30-2022,8-54-6,121,depth_duration_stimuli/002153_2014-06-25_21-27-18_260595134347_rgbf000038-resize_5/002153_2014-06-25_21-27-18_260595134347_rgbf000038-resize_5-target.png,1000,2.505,7,4331,1000,feet,jsons/v1_VE1000_randls_39.json,836268,1240882,40,Woman
121,418362,DepthScenes,duration_manipulation_targetAtFixation,jsons/v1_VE1000_randls_39.json,http://54.235.29.9/FacialAge/BNav_EC2/DepthDuration/v2_depth_duration_MTurk/v2_DepthDuration_HTML.html#387,387,1536,794,1536,864,8-30-2022,8-54-6,122,depth_duration_stimuli/002660_2014-06-13_15-44-18_094959634447_rgbf001878-resize_2/002660_2014-06-13_15-44-18_094959634447_rgbf001878-resize_2-target.png,1000,3.576,9,5091,1000,feet,jsons/v1_VE1000_randls_39.json,836268,1240882,40,Woman
122,418362,DepthScenes,duration_manipulation_targetAtFixation,jsons/v1_VE1000_randls_39.json,http://54.235.29.9/FacialAge/BNav_EC2/DepthDuration/v2_depth_duration_MTurk/v2_DepthDuration_HTML.html#387,387,1536,794,1536,864,8-30-2022,8-54-6,123,depth_duration_stimuli/001066_2014-06-08_22-03-20_260595134347_rgbf000066-resize_4/001066_2014-06-08_22-03-20_260595134347_rgbf000066-resize_4-target.png,1000,4.2330000000000005,13,4563,1000,feet,jsons/v1_VE1000_randls_39.json,836268,1240882,40,Woman
123,418362,DepthScenes,duration_manipulation_targetAtFixation,jsons/v1_VE1000_randls_39.json,http://54.235.29.9/FacialAge/BNav_EC2/DepthDuration/v2_depth_duration_MTurk/v2_DepthDuration_HTML.html#387,387,1536,794,1536,864,8-30-2022,8-54-6,124,depth_duration_stimuli/000742_2014-06-08_18-48-09_260595134347_rgbf000164-resize_4/000742_2014-06-08_18-48-09_260595134347_rgbf000164-resize_4-target.png,1000,4.632,15,5227,999,feet,jsons/v1_VE1000_randls_39.json,836268,1240882,40,Woman
124,418362,DepthScenes,duration_manipulation_targetAtFixation,jsons/v1_VE1000_randls_39.json,http://54.235.29.9/FacialAge/BNav_EC2/DepthDuration/v2_depth_duration_MTurk/v2_DepthDuration_HTML.html#387,387,1536,794,1536,864,8-30-2022,8-54-6,125,depth_duration_stimuli/003621_2014-05-23_18-06-08_094959634447_rgbf000101-resize_1/003621_2014-05-23_18-06-08_094959634447_rgbf000101-resize_1-target.png,1000,3.9835,14,3929,999,feet,jsons/v1_VE1000_randls_39.json,836268,1240882,40,Woman
125,418362,DepthScenes,duration_manipulation_targetAtFixation,jsons/v1_VE1000_randls_39.json,http://54.235.29.9/FacialAge/BNav_EC2/DepthDuration/v2_depth_duration_MTurk/v2_DepthDuration_HTML.html#387,387,1536,794,1536,864,8-30-2022,8-54-6,126,depth_duration_stimuli/001584_2014-06-20_11-07-43_260595134347_rgbf000002-resize_1/001584_2014-06-20_11-07-43_260595134347_rgbf000002-resize_1-target.png,1000,3.53,12,5549,1000,feet,jsons/v1_VE1000_randls_39.json,836268,1240882,40,Woman
126,418362,DepthScenes,duration_manipulation_targetAtFixation,jsons/v1_VE1000_randls_39.json,http://54.235.29.9/FacialAge/BNav_EC2/DepthDuration/v2_depth_duration_MTurk/v2_DepthDuration_HTML.html#387,387,1536,794,1536,864,8-30-2022,8-54-6,127,depth_duration_stimuli/002788_2014-06-22_19-36-03_094959634447_rgbf000088-resize_2/002788_2014-06-22_19-36-03_094959634447_rgbf000088-resize_2-target.png,1000,1.6465,8,4891,999,feet,jsons/v1_VE1000_randls_39.json,836268,1240882,40,Woman
127,418362,DepthScenes,duration_manipulation_targetAtFixation,jsons/v1_VE1000_randls_39.json,http://54.235.29.9/FacialAge/BNav_EC2/DepthDuration/v2_depth_duration_MTurk/v2_DepthDuration_HTML.html#387,387,1536,794,1536,864,8-30-2022,8-54-6,128,depth_duration_stimuli/000749_2014-06-08_21-55-06_260595134347_rgbf000070-resize_2/000749_2014-06-08_21-55-06_260595134347_rgbf000070-resize_2-target.png,1000,2.331,8,4650,999,feet,jsons/v1_VE1000_randls_39.json,836268,1240882,40,Woman
128,418362,DepthScenes,duration_manipulation_targetAtFixation,jsons/v1_VE1000_randls_39.json,http://54.235.29.9/FacialAge/BNav_EC2/DepthDuration/v2_depth_duration_MTurk/v2_DepthDuration_HTML.html#387,387,1536,794,1536,864,8-30-2022,8-54-6,129,depth_duration_stimuli/002043_2014-06-24_20-29-38_260595134347_rgbf000039-resize_4/002043_2014-06-24_20-29-38_260595134347_rgbf000039-resize_4-target.png,1000,2.8435,9,4026,999,feet,jsons/v1_VE1000_randls_39.json,836268,1240882,40,Woman
129,418362,DepthScenes,duration_manipulation_targetAtFixation,jsons/v1_VE1000_randls_39.json,http://54.235.29.9/FacialAge/BNav_EC2/DepthDuration/v2_depth_duration_MTurk/v2_DepthDuration_HTML.html#387,387,1536,794,1536,864,8-30-2022,8-54-6,130,depth_duration_stimuli/003048_2014-06-15_13-49-43_094959634447_rgbf000150-resize_1/003048_2014-06-15_13-49-43_094959634447_rgbf000150-resize_1-target.png,1000,4.0035,12,5418,1000,feet,jsons/v1_VE1000_randls_39.json,836268,1240882,40,Woman
130,418362,DepthScenes,duration_manipulation_targetAtFixation,jsons/v1_VE1000_randls_39.json,http://54.235.29.9/FacialAge/BNav_EC2/DepthDuration/v2_depth_duration_MTurk/v2_DepthDuration_HTML.html#387,387,1536,794,1536,864,8-30-2022,8-54-6,131,depth_duration_stimuli/002375_2014-06-28_20-13-44_260595134347_rgbf000032-resize_1/002375_2014-06-28_20-13-44_260595134347_rgbf000032-resize_1-target.png,1000,4.0175,9,5814,998,feet,jsons/v1_VE1000_randls_39.json,836268,1240882,40,Woman
131,418362,DepthScenes,duration_manipulation_targetAtFixation,jsons/v1_VE1000_randls_39.json,http://54.235.29.9/FacialAge/BNav_EC2/DepthDuration/v2_depth_duration_MTurk/v2_DepthDuration_HTML.html#387,387,1536,794,1536,864,8-30-2022,8-54-6,132,depth_duration_stimuli/002657_2014-06-13_15-29-54_094959634447_rgbf000150-resize_1/002657_2014-06-13_15-29-54_094959634447_rgbf000150-resize_1-target.png,1000,4.919,13,5980,999,feet,jsons/v1_VE1000_randls_39.json,836268,1240882,40,Woman
132,418362,DepthScenes,duration_manipulation_targetAtFixation,jsons/v1_VE1000_randls_39.json,http://54.235.29.9/FacialAge/BNav_EC2/DepthDuration/v2_depth_duration_MTurk/v2_DepthDuration_HTML.html#387,387,1536,794,1536,864,8-30-2022,8-54-6,133,depth_duration_stimuli/002213_2014-06-28_18-37-58_260595134347_rgbf000055-resize_1/002213_2014-06-28_18-37-58_260595134347_rgbf000055-resize_1-target.png,1000,3.62,12,5298,999,feet,jsons/v1_VE1000_randls_39.json,836268,1240882,40,Woman
133,418362,DepthScenes,duration_manipulation_targetAtFixation,jsons/v1_VE1000_randls_39.json,http://54.235.29.9/FacialAge/BNav_EC2/DepthDuration/v2_depth_duration_MTurk/v2_DepthDuration_HTML.html#387,387,1536,794,1536,864,8-30-2022,8-54-6,134,depth_duration_stimuli/000691_2014-06-08_13-08-50_260595134347_rgbf000132-resize_3/000691_2014-06-08_13-08-50_260595134347_rgbf000132-resize_3-target.png,1000,4.1530000000000005,11,4779,999,feet,jsons/v1_VE1000_randls_39.json,836268,1240882,40,Woman
134,418362,DepthScenes,duration_manipulation_targetAtFixation,jsons/v1_VE1000_randls_39.json,http://54.235.29.9/FacialAge/BNav_EC2/DepthDuration/v2_depth_duration_MTurk/v2_DepthDuration_HTML.html#387,387,1536,794,1536,864,8-30-2022,8-54-6,135,depth_duration_stimuli/002072_2014-06-24_21-48-06_260595134347_rgbf000115-resize_0/002072_2014-06-24_21-48-06_260595134347_rgbf000115-resize-original.jpg,1000,4.702,0,4403,999,feet,jsons/v1_VE1000_randls_39.json,836268,1240882,40,Woman
135,418362,DepthScenes,duration_manipulation_targetAtFixation,jsons/v1_VE1000_randls_39.json,http://54.235.29.9/FacialAge/BNav_EC2/DepthDuration/v2_depth_duration_MTurk/v2_DepthDuration_HTML.html#387,387,1536,794,1536,864,8-30-2022,8-54-6,136,depth_duration_stimuli/002964_2014-06-08_17-46-11_094959634447_rgbf000091-resize_4/002964_2014-06-08_17-46-11_094959634447_rgbf000091-resize_4-target.png,1000,1.6909999999999998,5,4526,999,feet,jsons/v1_VE1000_randls_39.json,836268,1240882,40,Woman
136,418362,DepthScenes,duration_manipulation_targetAtFixation,jsons/v1_VE1000_randls_39.json,http://54.235.29.9/FacialAge/BNav_EC2/DepthDuration/v2_depth_duration_MTurk/v2_DepthDuration_HTML.html#387,387,1536,794,1536,864,8-30-2022,8-54-6,137,depth_duration_stimuli/002136_2014-06-25_21-18-03_260595134347_rgbf000109-resize_3/002136_2014-06-25_21-18-03_260595134347_rgbf000109-resize_3-target.png,1000,1.9569999999999999,6,4526,999,feet,jsons/v1_VE1000_randls_39.json,836268,1240882,40,Woman
137,418362,DepthScenes,duration_manipulation_targetAtFixation,jsons/v1_VE1000_randls_39.json,http://54.235.29.9/FacialAge/BNav_EC2/DepthDuration/v2_depth_duration_MTurk/v2_DepthDuration_HTML.html#387,387,1536,794,1536,864,8-30-2022,8-54-6,138,depth_duration_stimuli/002118_2014-06-25_20-32-08_260595134347_rgbf000078-resize_1/002118_2014-06-25_20-32-08_260595134347_rgbf000078-resize_1-target.png,1000,2.6460000000000004,9,6143,1000,feet,jsons/v1_VE1000_randls_39.json,836268,1240882,40,Woman
138,418362,DepthScenes,duration_manipulation_targetAtFixation,jsons/v1_VE1000_randls_39.json,http://54.235.29.9/FacialAge/BNav_EC2/DepthDuration/v2_depth_duration_MTurk/v2_DepthDuration_HTML.html#387,387,1536,794,1536,864,8-30-2022,8-54-6,139,depth_duration_stimuli/001516_2014-06-20_16-25-09_260595134347_rgbf000076-resize_2/001516_2014-06-20_16-25-09_260595134347_rgbf000076-resize_2-target.png,1000,1.7445,7,4193,1000,feet,jsons/v1_VE1000_randls_39.json,836268,1240882,40,Woman
139,418362,DepthScenes,duration_manipulation_targetAtFixation,jsons/v1_VE1000_randls_39.json,http://54.235.29.9/FacialAge/BNav_EC2/DepthDuration/v2_depth_duration_MTurk/v2_DepthDuration_HTML.html#387,387,1536,794,1536,864,8-30-2022,8-54-6,140,depth_duration_stimuli/003534_2014-05-22_15-06-10_094959634447_rgbf000102-resize_4/003534_2014-05-22_15-06-10_094959634447_rgbf000102-resize_4-target.png,1000,1.426,5,4551,1000,feet,jsons/v1_VE1000_randls_39.json,836268,1240882,40,Woman
140,418362,DepthScenes,duration_manipulation_targetAtFixation,jsons/v1_VE1000_randls_39.json,http://54.235.29.9/FacialAge/BNav_EC2/DepthDuration/v2_depth_duration_MTurk/v2_DepthDuration_HTML.html#387,387,1536,794,1536,864,8-30-2022,8-54-6,141,depth_duration_stimuli/002637_2014-06-24_14-51-13_094959634447_rgbf000066-resize_4/002637_2014-06-24_14-51-13_094959634447_rgbf000066-resize_4-target.png,1000,1.9955,6,4083,1000,feet,jsons/v1_VE1000_randls_39.json,836268,1240882,40,Woman
141,418362,DepthScenes,duration_manipulation_targetAtFixation,jsons/v1_VE1000_randls_39.json,http://54.235.29.9/FacialAge/BNav_EC2/DepthDuration/v2_depth_duration_MTurk/v2_DepthDuration_HTML.html#387,387,1536,794,1536,864,8-30-2022,8-54-6,142,depth_duration_stimuli/000506_2014-06-08_23-21-00_260595134347_rgbf000070-resize_7/000506_2014-06-08_23-21-00_260595134347_rgbf000070-resize_7-target.png,1000,4.0585,12,4507,1000,feet,jsons/v1_VE1000_randls_39.json,836268,1240882,40,Woman
142,418362,DepthScenes,duration_manipulation_targetAtFixation,jsons/v1_VE1000_randls_39.json,http://54.235.29.9/FacialAge/BNav_EC2/DepthDuration/v2_depth_duration_MTurk/v2_DepthDuration_HTML.html#387,387,1536,794,1536,864,8-30-2022,8-54-6,143,depth_duration_stimuli/003079_2014-06-15_15-18-20_094959634447_rgbf000152-resize_8/003079_2014-06-15_15-18-20_094959634447_rgbf000152-resize_8-target.png,1000,2.8775,11,4508,999,feet,jsons/v1_VE1000_randls_39.json,836268,1240882,40,Woman
143,418362,DepthScenes,duration_manipulation_targetAtFixation,jsons/v1_VE1000_randls_39.json,http://54.235.29.9/FacialAge/BNav_EC2/DepthDuration/v2_depth_duration_MTurk/v2_DepthDuration_HTML.html#387,387,1536,794,1536,864,8-30-2022,8-54-6,144,depth_duration_stimuli/002630_2014-06-24_14-47-50_094959634447_rgbf000055-resize_1/002630_2014-06-24_14-47-50_094959634447_rgbf000055-resize_1-target.png,1000,3.0095,14,5013,999,feet,jsons/v1_VE1000_randls_39.json,836268,1240882,40,Woman
144,418362,DepthScenes,duration_manipulation_targetAtFixation,jsons/v1_VE1000_randls_39.json,http://54.235.29.9/FacialAge/BNav_EC2/DepthDuration/v2_depth_duration_MTurk/v2_DepthDuration_HTML.html#387,387,1536,794,1536,864,8-30-2022,8-54-6,145,depth_duration_stimuli/002758_2014-06-22_19-11-20_094959634447_rgbf000128-resize_1/002758_2014-06-22_19-11-20_094959634447_rgbf000128-resize_1-target.png,1000,2.555,7,4884,999,feet,jsons/v1_VE1000_randls_39.json,836268,1240882,40,Woman
145,418362,DepthScenes,duration_manipulation_targetAtFixation,jsons/v1_VE1000_randls_39.json,http://54.235.29.9/FacialAge/BNav_EC2/DepthDuration/v2_depth_duration_MTurk/v2_DepthDuration_HTML.html#387,387,1536,794,1536,864,8-30-2022,8-54-6,146,depth_duration_stimuli/001498_2014-06-19_17-45-14_260595134347_rgbf000129-resize_4/001498_2014-06-19_17-45-14_260595134347_rgbf000129-resize-original.jpg,1000,1.4075,0,4174,999,feet,jsons/v1_VE1000_randls_39.json,836268,1240882,40,Woman
146,418362,DepthScenes,duration_manipulation_targetAtFixation,jsons/v1_VE1000_randls_39.json,http://54.235.29.9/FacialAge/BNav_EC2/DepthDuration/v2_depth_duration_MTurk/v2_DepthDuration_HTML.html#387,387,1536,794,1536,864,8-30-2022,8-54-6,147,depth_duration_stimuli/000736_2014-06-08_18-24-15_260595134347_rgbf000206-resize_3/000736_2014-06-08_18-24-15_260595134347_rgbf000206-resize_3-target.png,1000,3.515,9,5490,999,feet,jsons/v1_VE1000_randls_39.json,836268,1240882,40,Woman
147,418362,DepthScenes,duration_manipulation_targetAtFixation,jsons/v1_VE1000_randls_39.json,http://54.235.29.9/FacialAge/BNav_EC2/DepthDuration/v2_depth_duration_MTurk/v2_DepthDuration_HTML.html#387,387,1536,794,1536,864,8-30-2022,8-54-6,148,depth_duration_stimuli/000137_2014-05-20_17-04-49_260595134347_rgbf000120-resize_1/000137_2014-05-20_17-04-49_260595134347_rgbf000120-resize_1-target.png,1000,3.786,12,4338,999,feet,jsons/v1_VE1000_randls_39.json,836268,1240882,40,Woman
148,418362,DepthScenes,duration_manipulation_targetAtFixation,jsons/v1_VE1000_randls_39.json,http://54.235.29.9/FacialAge/BNav_EC2/DepthDuration/v2_depth_duration_MTurk/v2_DepthDuration_HTML.html#387,387,1536,794,1536,864,8-30-2022,8-54-6,149,depth_duration_stimuli/000788_2014-06-08_22-34-36_260595134347_rgbf000131-resize_1/000788_2014-06-08_22-34-36_260595134347_rgbf000131-resize_1-target.png,1000,3.359,14,4802,999,feet,jsons/v1_VE1000_randls_39.json,836268,1240882,40,Woman
149,418362,DepthScenes,duration_manipulation_targetAtFixation,jsons/v1_VE1000_randls_39.json,http://54.235.29.9/FacialAge/BNav_EC2/DepthDuration/v2_depth_duration_MTurk/v2_DepthDuration_HTML.html#387,387,1536,794,1536,864,8-30-2022,8-54-6,150,depth_duration_stimuli/001235_2014-06-17_16-37-36_260595134347_rgbf000084-resize_4/001235_2014-06-17_16-37-36_260595134347_rgbf000084-resize_4-target.png,1000,3.6605,13,5458,999,feet,jsons/v1_VE1000_randls_39.json,836268,1240882,40,Woman
150,418362,DepthScenes,duration_manipulation_targetAtFixation,jsons/v1_VE1000_randls_39.json,http://54.235.29.9/FacialAge/BNav_EC2/DepthDuration/v2_depth_duration_MTurk/v2_DepthDuration_HTML.html#387,387,1536,794,1536,864,8-30-2022,8-54-6,151,depth_duration_stimuli/003492_2014-05-21_15-50-55_094959634447_rgbf000828-resize_1/003492_2014-05-21_15-50-55_094959634447_rgbf000828-resize_1-target.png,1000,4.06875,15,4159,999,feet,jsons/v1_VE1000_randls_39.json,836268,1240882,40,Woman
151,418362,DepthScenes,duration_manipulation_targetAtFixation,jsons/v1_VE1000_randls_39.json,http://54.235.29.9/FacialAge/BNav_EC2/DepthDuration/v2_depth_duration_MTurk/v2_DepthDuration_HTML.html#387,387,1536,794,1536,864,8-30-2022,8-54-6,152,depth_duration_stimuli/002568_2014-06-24_13-59-21_094959634447_rgbf000062-resize_4/002568_2014-06-24_13-59-21_094959634447_rgbf000062-resize_4-target.png,1000,3.015,9,4515,1000,feet,jsons/v1_VE1000_randls_39.json,836268,1240882,40,Woman
152,418362,DepthScenes,duration_manipulation_targetAtFixation,jsons/v1_VE1000_randls_39.json,http://54.235.29.9/FacialAge/BNav_EC2/DepthDuration/v2_depth_duration_MTurk/v2_DepthDuration_HTML.html#387,387,1536,794,1536,864,8-30-2022,8-54-6,153,depth_duration_stimuli/002989_2014-06-15_12-25-03_094959634447_rgbf000150-resize_3/002989_2014-06-15_12-25-03_094959634447_rgbf000150-resize_3-target.png,1000,4.1975,14,6120,999,feet,jsons/v1_VE1000_randls_39.json,836268,1240882,40,Woman
153,418362,DepthScenes,duration_manipulation_targetAtFixation,jsons/v1_VE1000_randls_39.json,http://54.235.29.9/FacialAge/BNav_EC2/DepthDuration/v2_depth_duration_MTurk/v2_DepthDuration_HTML.html#387,387,1536,794,1536,864,8-30-2022,8-54-6,154,depth_duration_stimuli/000866_2014-06-09_20-45-42_260595134347_rgbf000139-resize_1/000866_2014-06-09_20-45-42_260595134347_rgbf000139-resize_1-target.png,1000,3.2155,7,4669,999,feet,jsons/v1_VE1000_randls_39.json,836268,1240882,40,Woman
154,418362,DepthScenes,duration_manipulation_targetAtFixation,jsons/v1_VE1000_randls_39.json,http://54.235.29.9/FacialAge/BNav_EC2/DepthDuration/v2_depth_duration_MTurk/v2_DepthDuration_HTML.html#387,387,1536,794,1536,864,8-30-2022,8-54-6,155,depth_duration_stimuli/001164_2014-06-17_15-35-46_260595134347_rgbf000085-resize_3/001164_2014-06-17_15-35-46_260595134347_rgbf000085-resize_3-target.png,1000,2.354,6,3723,999,feet,jsons/v1_VE1000_randls_39.json,836268,1240882,40,Woman
155,418362,DepthScenes,duration_manipulation_targetAtFixation,jsons/v1_VE1000_randls_39.json,http://54.235.29.9/FacialAge/BNav_EC2/DepthDuration/v2_depth_duration_MTurk/v2_DepthDuration_HTML.html#387,387,1536,794,1536,864,8-30-2022,8-54-6,156,depth_duration_stimuli/001136_2014-06-17_15-19-41_260595134347_rgbf000076-resize_3/001136_2014-06-17_15-19-41_260595134347_rgbf000076-resize_3-target.png,1000,1.8655,6,3779,999,feet,jsons/v1_VE1000_randls_39.json,836268,1240882,40,Woman
156,418362,DepthScenes,duration_manipulation_targetAtFixation,jsons/v1_VE1000_randls_39.json,http://54.235.29.9/FacialAge/BNav_EC2/DepthDuration/v2_depth_duration_MTurk/v2_DepthDuration_HTML.html#387,387,1536,794,1536,864,8-30-2022,8-54-6,157,depth_duration_stimuli/000522_2014-06-08_13-35-06_260595134347_rgbf000244-resize_1/000522_2014-06-08_13-35-06_260595134347_rgbf000244-resize_1-target.png,1000,2.3715,4,5402,999,feet,jsons/v1_VE1000_randls_39.json,836268,1240882,40,Woman
157,418362,DepthScenes,duration_manipulation_targetAtFixation,jsons/v1_VE1000_randls_39.json,http://54.235.29.9/FacialAge/BNav_EC2/DepthDuration/v2_depth_duration_MTurk/v2_DepthDuration_HTML.html#387,387,1536,794,1536,864,8-30-2022,8-54-6,158,depth_duration_stimuli/002949_2014-06-26_15-57-42_094959634447_rgbf000079-resize_1/002949_2014-06-26_15-57-42_094959634447_rgbf000079-resize_1-target.png,1000,1.8915,5,3418,999,feet,jsons/v1_VE1000_randls_39.json,836268,1240882,40,Woman
158,418362,DepthScenes,duration_manipulation_targetAtFixation,jsons/v1_VE1000_randls_39.json,http://54.235.29.9/FacialAge/BNav_EC2/DepthDuration/v2_depth_duration_MTurk/v2_DepthDuration_HTML.html#387,387,1536,794,1536,864,8-30-2022,8-54-6,159,depth_duration_stimuli/000929_2014-06-09_16-33-19_260595134347_rgbf000139-resize_0/000929_2014-06-09_16-33-19_260595134347_rgbf000139-resize_0-target.png,1000,2.8680000000000003,7,3735,998,feet,jsons/v1_VE1000_randls_39.json,836268,1240882,40,Woman
159,418362,DepthScenes,duration_manipulation_targetAtFixation,jsons/v1_VE1000_randls_39.json,http://54.235.29.9/FacialAge/BNav_EC2/DepthDuration/v2_depth_duration_MTurk/v2_DepthDuration_HTML.html#387,387,1536,794,1536,864,8-30-2022,8-54-6,160,depth_duration_stimuli/000457_2014-06-08_16-52-43_260595134347_rgbf000199-resize_1/000457_2014-06-08_16-52-43_260595134347_rgbf000199-resize_1-target.png,1000,3.6489999999999996,9,5789,1000,feet,jsons/v1_VE1000_randls_39.json,836268,1240882,40,Woman
160,418362,DepthScenes,duration_manipulation_targetAtFixation,jsons/v1_VE1000_randls_39.json,http://54.235.29.9/FacialAge/BNav_EC2/DepthDuration/v2_depth_duration_MTurk/v2_DepthDuration_HTML.html#387,387,1536,794,1536,864,8-30-2022,8-54-6,161,depth_duration_stimuli/002663_2014-06-13_15-50-26_094959634447_rgbf000075-resize_1/002663_2014-06-13_15-50-26_094959634447_rgbf000075-resize_1-target.png,1000,4.7495,12,4100,999,feet,jsons/v1_VE1000_randls_39.json,836268,1240882,40,Woman
161,418362,DepthScenes,duration_manipulation_targetAtFixation,jsons/v1_VE1000_randls_39.json,http://54.235.29.9/FacialAge/BNav_EC2/DepthDuration/v2_depth_duration_MTurk/v2_DepthDuration_HTML.html#387,387,1536,794,1536,864,8-30-2022,8-54-6,162,depth_duration_stimuli/000409_2014-06-04_19-23-33_260595134347_rgbf000067-resize_0/000409_2014-06-04_19-23-33_260595134347_rgbf000067-resize_0-target.png,1000,3.7335,15,4634,999,feet,jsons/v1_VE1000_randls_39.json,836268,1240882,40,Woman
162,418362,DepthScenes,duration_manipulation_targetAtFixation,jsons/v1_VE1000_randls_39.json,http://54.235.29.9/FacialAge/BNav_EC2/DepthDuration/v2_depth_duration_MTurk/v2_DepthDuration_HTML.html#387,387,1536,794,1536,864,8-30-2022,8-54-6,163,depth_duration_stimuli/002988_2014-06-15_12-24-20_094959634447_rgbf000150-resize_1/002988_2014-06-15_12-24-20_094959634447_rgbf000150-resize_1-target.png,1000,4.7669999999999995,13,4867,999,feet,jsons/v1_VE1000_randls_39.json,836268,1240882,40,Woman
163,418362,DepthScenes,duration_manipulation_targetAtFixation,jsons/v1_VE1000_randls_39.json,http://54.235.29.9/FacialAge/BNav_EC2/DepthDuration/v2_depth_duration_MTurk/v2_DepthDuration_HTML.html#387,387,1536,794,1536,864,8-30-2022,8-54-6,164,depth_duration_stimuli/001052_2014-06-08_18-24-54_260595134347_rgbf000130-resize_1/001052_2014-06-08_18-24-54_260595134347_rgbf000130-resize_1-target.png,1000,4.1045,14,6585,991,feet,jsons/v1_VE1000_randls_39.json,836268,1240882,40,Woman
