,subjID,experimentName,versionName,sequenceName,url,selected_row,windowWidth,windowHeight,screenWidth,screenHeight,startDate,startTime,trial,stimulus,duration,actual_depth,depth_estimate,trial_RT,log_sceneDuration,unitSelection,seq_filepath,experimentTime,totalTime,age,gender
0,420331,DepthScenes,duration_manipulation_targetAtFixation,jsons/VE125_randls_34_rotated.json,http://54.235.29.9/FacialAge/BNav_EC2/DepthDuration/v2_depth_duration_MTurk/v2_DepthDuration_HTML.html#256,256,1366,625,1366,768,8-30-2022,13-55-23,1,depth_duration_stimuli/000103_2014-05-14_22-01-17_260595134347_rgbf000152-resize_5/000103_2014-05-14_22-01-17_260595134347_rgbf000152-resize_5-target.png,125,1.993,2,30953,0,feet,jsons/VE125_randls_34_rotated.json,957978,1397053,29,Man
1,420331,DepthScenes,duration_manipulation_targetAtFixation,jsons/VE125_randls_34_rotated.json,http://54.235.29.9/FacialAge/BNav_EC2/DepthDuration/v2_depth_duration_MTurk/v2_DepthDuration_HTML.html#256,256,1366,625,1366,768,8-30-2022,13-55-23,2,depth_duration_stimuli/001555_2014-06-20_17-12-10_260595134347_rgbf000065-resize_4/001555_2014-06-20_17-12-10_260595134347_rgbf000065-resize_4-target.png,125,1.633,5,10472,191,feet,jsons/VE125_randls_34_rotated.json,957978,1397053,29,Man
2,420331,DepthScenes,duration_manipulation_targetAtFixation,jsons/VE125_randls_34_rotated.json,http://54.235.29.9/FacialAge/BNav_EC2/DepthDuration/v2_depth_duration_MTurk/v2_DepthDuration_HTML.html#256,256,1366,625,1366,768,8-30-2022,13-55-23,3,depth_duration_stimuli/001617_2014-06-20_11-35-32_260595134347_rgbf000066-resize_1/001617_2014-06-20_11-35-32_260595134347_rgbf000066-resize_1-target.png,125,3.7910000000000004,3,3906,134,feet,jsons/VE125_randls_34_rotated.json,957978,1397053,29,Man
3,420331,DepthScenes,duration_manipulation_targetAtFixation,jsons/VE125_randls_34_rotated.json,http://54.235.29.9/FacialAge/BNav_EC2/DepthDuration/v2_depth_duration_MTurk/v2_DepthDuration_HTML.html#256,256,1366,625,1366,768,8-30-2022,13-55-23,4,depth_duration_stimuli/001806_2014-06-26_20-50-20_260595134347_rgbf000091-resize_1/001806_2014-06-26_20-50-20_260595134347_rgbf000091-resize_1-target.png,125,2.7305,0,2753,166,feet,jsons/VE125_randls_34_rotated.json,957978,1397053,29,Man
4,420331,DepthScenes,duration_manipulation_targetAtFixation,jsons/VE125_randls_34_rotated.json,http://54.235.29.9/FacialAge/BNav_EC2/DepthDuration/v2_depth_duration_MTurk/v2_DepthDuration_HTML.html#256,256,1366,625,1366,768,8-30-2022,13-55-23,5,depth_duration_stimuli/003228_2014-05-14_13-42-35_094959634447_rgbf000101-resize_1/003228_2014-05-14_13-42-35_094959634447_rgbf000101-resize_1-target.png,125,1.9680000000000002,0,3759,117,feet,jsons/VE125_randls_34_rotated.json,957978,1397053,29,Man
5,420331,DepthScenes,duration_manipulation_targetAtFixation,jsons/VE125_randls_34_rotated.json,http://54.235.29.9/FacialAge/BNav_EC2/DepthDuration/v2_depth_duration_MTurk/v2_DepthDuration_HTML.html#256,256,1366,625,1366,768,8-30-2022,13-55-23,6,depth_duration_stimuli/002600_2014-06-24_14-27-04_094959634447_rgbf000074-resize_2/002600_2014-06-24_14-27-04_094959634447_rgbf000074-resize_2-target.png,125,2.7575,3,6647,126,feet,jsons/VE125_randls_34_rotated.json,957978,1397053,29,Man
6,420331,DepthScenes,duration_manipulation_targetAtFixation,jsons/VE125_randls_34_rotated.json,http://54.235.29.9/FacialAge/BNav_EC2/DepthDuration/v2_depth_duration_MTurk/v2_DepthDuration_HTML.html#256,256,1366,625,1366,768,8-30-2022,13-55-23,7,depth_duration_stimuli/001032_2014-06-08_13-23-17_260595134347_rgbf000021-resize_3/001032_2014-06-08_13-23-17_260595134347_rgbf000021-resize_3-target.png,125,3.2725,6,5261,125,feet,jsons/VE125_randls_34_rotated.json,957978,1397053,29,Man
7,420331,DepthScenes,duration_manipulation_targetAtFixation,jsons/VE125_randls_34_rotated.json,http://54.235.29.9/FacialAge/BNav_EC2/DepthDuration/v2_depth_duration_MTurk/v2_DepthDuration_HTML.html#256,256,1366,625,1366,768,8-30-2022,13-55-23,8,depth_duration_stimuli/001059_2014-06-08_21-53-27_260595134347_rgbf000061-resize_4/001059_2014-06-08_21-53-27_260595134347_rgbf000061-resize_4-target.png,125,2.4185,3,2825,124,feet,jsons/VE125_randls_34_rotated.json,957978,1397053,29,Man
8,420331,DepthScenes,duration_manipulation_targetAtFixation,jsons/VE125_randls_34_rotated.json,http://54.235.29.9/FacialAge/BNav_EC2/DepthDuration/v2_depth_duration_MTurk/v2_DepthDuration_HTML.html#256,256,1366,625,1366,768,8-30-2022,13-55-23,9,depth_duration_stimuli/003495_2014-05-21_16-01-51_094959634447_rgbf000100-resize_3/003495_2014-05-21_16-01-51_094959634447_rgbf000100-resize_3-target.png,125,1.6255,2,4299,108,feet,jsons/VE125_randls_34_rotated.json,957978,1397053,29,Man
9,420331,DepthScenes,duration_manipulation_targetAtFixation,jsons/VE125_randls_34_rotated.json,http://54.235.29.9/FacialAge/BNav_EC2/DepthDuration/v2_depth_duration_MTurk/v2_DepthDuration_HTML.html#256,256,1366,625,1366,768,8-30-2022,13-55-23,10,depth_duration_stimuli/001244_2014-06-17_16-47-45_260595134347_rgbf000030-resize_4/001244_2014-06-17_16-47-45_260595134347_rgbf000030-resize_4-target.png,125,2.0425,2,2703,137,feet,jsons/VE125_randls_34_rotated.json,957978,1397053,29,Man
10,420331,DepthScenes,duration_manipulation_targetAtFixation,jsons/VE125_randls_34_rotated.json,http://54.235.29.9/FacialAge/BNav_EC2/DepthDuration/v2_depth_duration_MTurk/v2_DepthDuration_HTML.html#256,256,1366,625,1366,768,8-30-2022,13-55-23,11,depth_duration_stimuli/002425_2014-06-28_20-27-29_260595134347_rgbf000031-resize_8/002425_2014-06-28_20-27-29_260595134347_rgbf000031-resize_8-target.png,125,3.8960000000000004,3,13747,136,feet,jsons/VE125_randls_34_rotated.json,957978,1397053,29,Man
11,420331,DepthScenes,duration_manipulation_targetAtFixation,jsons/VE125_randls_34_rotated.json,http://54.235.29.9/FacialAge/BNav_EC2/DepthDuration/v2_depth_duration_MTurk/v2_DepthDuration_HTML.html#256,256,1366,625,1366,768,8-30-2022,13-55-23,12,depth_duration_stimuli/000642_2014-06-08_16-59-25_260595134347_rgbf000098-resize_2/000642_2014-06-08_16-59-25_260595134347_rgbf000098-resize_2-target.png,125,2.8815,3,3425,133,feet,jsons/VE125_randls_34_rotated.json,957978,1397053,29,Man
12,420331,DepthScenes,duration_manipulation_targetAtFixation,jsons/VE125_randls_34_rotated.json,http://54.235.29.9/FacialAge/BNav_EC2/DepthDuration/v2_depth_duration_MTurk/v2_DepthDuration_HTML.html#256,256,1366,625,1366,768,8-30-2022,13-55-23,13,depth_duration_stimuli/001571_2014-06-20_17-21-32_260595134347_rgbf000089-resize_1/001571_2014-06-20_17-21-32_260595134347_rgbf000089-resize_1-target.png,125,1.86,3,27002,189,feet,jsons/VE125_randls_34_rotated.json,957978,1397053,29,Man
13,420331,DepthScenes,duration_manipulation_targetAtFixation,jsons/VE125_randls_34_rotated.json,http://54.235.29.9/FacialAge/BNav_EC2/DepthDuration/v2_depth_duration_MTurk/v2_DepthDuration_HTML.html#256,256,1366,625,1366,768,8-30-2022,13-55-23,14,depth_duration_stimuli/002272_2014-06-28_18-53-56_260595134347_rgbf000067-resize_2/002272_2014-06-28_18-53-56_260595134347_rgbf000067-resize_2-target.png,125,1.138,2,5088,97,feet,jsons/VE125_randls_34_rotated.json,957978,1397053,29,Man
14,420331,DepthScenes,duration_manipulation_targetAtFixation,jsons/VE125_randls_34_rotated.json,http://54.235.29.9/FacialAge/BNav_EC2/DepthDuration/v2_depth_duration_MTurk/v2_DepthDuration_HTML.html#256,256,1366,625,1366,768,8-30-2022,13-55-23,15,depth_duration_stimuli/003048_2014-06-15_13-49-43_094959634447_rgbf000150-resize_1/003048_2014-06-15_13-49-43_094959634447_rgbf000150-resize_1-target.png,125,4.0035,3,4532,144,feet,jsons/VE125_randls_34_rotated.json,957978,1397053,29,Man
15,420331,DepthScenes,duration_manipulation_targetAtFixation,jsons/VE125_randls_34_rotated.json,http://54.235.29.9/FacialAge/BNav_EC2/DepthDuration/v2_depth_duration_MTurk/v2_DepthDuration_HTML.html#256,256,1366,625,1366,768,8-30-2022,13-55-23,16,depth_duration_stimuli/002043_2014-06-24_20-29-38_260595134347_rgbf000039-resize_4/002043_2014-06-24_20-29-38_260595134347_rgbf000039-resize_4-target.png,125,2.8435,3,5047,121,feet,jsons/VE125_randls_34_rotated.json,957978,1397053,29,Man
16,420331,DepthScenes,duration_manipulation_targetAtFixation,jsons/VE125_randls_34_rotated.json,http://54.235.29.9/FacialAge/BNav_EC2/DepthDuration/v2_depth_duration_MTurk/v2_DepthDuration_HTML.html#256,256,1366,625,1366,768,8-30-2022,13-55-23,17,depth_duration_stimuli/001214_2014-06-17_16-13-55_260595134347_rgbf000111-resize_0/001214_2014-06-17_16-13-55_260595134347_rgbf000111-resize_0-target.png,125,2.6505,0,3080,144,feet,jsons/VE125_randls_34_rotated.json,957978,1397053,29,Man
17,420331,DepthScenes,duration_manipulation_targetAtFixation,jsons/VE125_randls_34_rotated.json,http://54.235.29.9/FacialAge/BNav_EC2/DepthDuration/v2_depth_duration_MTurk/v2_DepthDuration_HTML.html#256,256,1366,625,1366,768,8-30-2022,13-55-23,18,depth_duration_stimuli/000810_2014-06-08_17-20-01_260595134347_rgbf000105-resize_0/000810_2014-06-08_17-20-01_260595134347_rgbf000105-resize_0-target.png,125,1.4865,3,16558,314,feet,jsons/VE125_randls_34_rotated.json,957978,1397053,29,Man
18,420331,DepthScenes,duration_manipulation_targetAtFixation,jsons/VE125_randls_34_rotated.json,http://54.235.29.9/FacialAge/BNav_EC2/DepthDuration/v2_depth_duration_MTurk/v2_DepthDuration_HTML.html#256,256,1366,625,1366,768,8-30-2022,13-55-23,19,depth_duration_stimuli/001498_2014-06-19_17-45-14_260595134347_rgbf000129-resize_4/001498_2014-06-19_17-45-14_260595134347_rgbf000129-resize-original.jpg,125,1.4075,3,2603,125,feet,jsons/VE125_randls_34_rotated.json,957978,1397053,29,Man
19,420331,DepthScenes,duration_manipulation_targetAtFixation,jsons/VE125_randls_34_rotated.json,http://54.235.29.9/FacialAge/BNav_EC2/DepthDuration/v2_depth_duration_MTurk/v2_DepthDuration_HTML.html#256,256,1366,625,1366,768,8-30-2022,13-55-23,20,depth_duration_stimuli/002444_2014-06-28_20-32-08_260595134347_rgbf000027-resize_0/002444_2014-06-28_20-32-08_260595134347_rgbf000027-resize_0-target.png,125,4.388999999999999,1,2824,124,feet,jsons/VE125_randls_34_rotated.json,957978,1397053,29,Man
20,420331,DepthScenes,duration_manipulation_targetAtFixation,jsons/VE125_randls_34_rotated.json,http://54.235.29.9/FacialAge/BNav_EC2/DepthDuration/v2_depth_duration_MTurk/v2_DepthDuration_HTML.html#256,256,1366,625,1366,768,8-30-2022,13-55-23,21,depth_duration_stimuli/000436_2014-06-09_22-25-11_260595134347_rgbf000137-resize_1/000436_2014-06-09_22-25-11_260595134347_rgbf000137-resize_1-target.png,125,4.0705,2,1895,129,feet,jsons/VE125_randls_34_rotated.json,957978,1397053,29,Man
21,420331,DepthScenes,duration_manipulation_targetAtFixation,jsons/VE125_randls_34_rotated.json,http://54.235.29.9/FacialAge/BNav_EC2/DepthDuration/v2_depth_duration_MTurk/v2_DepthDuration_HTML.html#256,256,1366,625,1366,768,8-30-2022,13-55-23,22,depth_duration_stimuli/002637_2014-06-24_14-51-13_094959634447_rgbf000066-resize_4/002637_2014-06-24_14-51-13_094959634447_rgbf000066-resize_4-target.png,125,1.9955,3,1950,126,feet,jsons/VE125_randls_34_rotated.json,957978,1397053,29,Man
22,420331,DepthScenes,duration_manipulation_targetAtFixation,jsons/VE125_randls_34_rotated.json,http://54.235.29.9/FacialAge/BNav_EC2/DepthDuration/v2_depth_duration_MTurk/v2_DepthDuration_HTML.html#256,256,1366,625,1366,768,8-30-2022,13-55-23,23,depth_duration_stimuli/003534_2014-05-22_15-06-10_094959634447_rgbf000102-resize_4/003534_2014-05-22_15-06-10_094959634447_rgbf000102-resize_4-target.png,125,1.426,1,2046,134,feet,jsons/VE125_randls_34_rotated.json,957978,1397053,29,Man
23,420331,DepthScenes,duration_manipulation_targetAtFixation,jsons/VE125_randls_34_rotated.json,http://54.235.29.9/FacialAge/BNav_EC2/DepthDuration/v2_depth_duration_MTurk/v2_DepthDuration_HTML.html#256,256,1366,625,1366,768,8-30-2022,13-55-23,24,depth_duration_stimuli/001447_2014-06-19_17-00-32_260595134347_rgbf000082-resize_5/001447_2014-06-19_17-00-32_260595134347_rgbf000082-resize_5-target.png,125,4.13775,2,2855,122,feet,jsons/VE125_randls_34_rotated.json,957978,1397053,29,Man
24,420331,DepthScenes,duration_manipulation_targetAtFixation,jsons/VE125_randls_34_rotated.json,http://54.235.29.9/FacialAge/BNav_EC2/DepthDuration/v2_depth_duration_MTurk/v2_DepthDuration_HTML.html#256,256,1366,625,1366,768,8-30-2022,13-55-23,25,depth_duration_stimuli/000447_2014-06-08_16-15-46_260595134347_rgbf000130-resize_1/000447_2014-06-08_16-15-46_260595134347_rgbf000130-resize_1-target.png,125,4.479,2,3161,178,feet,jsons/VE125_randls_34_rotated.json,957978,1397053,29,Man
25,420331,DepthScenes,duration_manipulation_targetAtFixation,jsons/VE125_randls_34_rotated.json,http://54.235.29.9/FacialAge/BNav_EC2/DepthDuration/v2_depth_duration_MTurk/v2_DepthDuration_HTML.html#256,256,1366,625,1366,768,8-30-2022,13-55-23,26,depth_duration_stimuli/000854_2014-06-09_19-43-13_260595134347_rgbf000066-resize_0/000854_2014-06-09_19-43-13_260595134347_rgbf000066-resize_0-target.png,125,3.068,2,4407,148,feet,jsons/VE125_randls_34_rotated.json,957978,1397053,29,Man
26,420331,DepthScenes,duration_manipulation_targetAtFixation,jsons/VE125_randls_34_rotated.json,http://54.235.29.9/FacialAge/BNav_EC2/DepthDuration/v2_depth_duration_MTurk/v2_DepthDuration_HTML.html#256,256,1366,625,1366,768,8-30-2022,13-55-23,27,depth_duration_stimuli/000758_2014-06-08_22-05-08_260595134347_rgbf000085-resize_0/000758_2014-06-08_22-05-08_260595134347_rgbf000085-resize_0-target.png,125,3.3810000000000002,1,2358,116,feet,jsons/VE125_randls_34_rotated.json,957978,1397053,29,Man
27,420331,DepthScenes,duration_manipulation_targetAtFixation,jsons/VE125_randls_34_rotated.json,http://54.235.29.9/FacialAge/BNav_EC2/DepthDuration/v2_depth_duration_MTurk/v2_DepthDuration_HTML.html#256,256,1366,625,1366,768,8-30-2022,13-55-23,28,depth_duration_stimuli/001052_2014-06-08_18-24-54_260595134347_rgbf000130-resize_1/001052_2014-06-08_18-24-54_260595134347_rgbf000130-resize_1-target.png,125,4.1045,2,2157,126,feet,jsons/VE125_randls_34_rotated.json,957978,1397053,29,Man
28,420331,DepthScenes,duration_manipulation_targetAtFixation,jsons/VE125_randls_34_rotated.json,http://54.235.29.9/FacialAge/BNav_EC2/DepthDuration/v2_depth_duration_MTurk/v2_DepthDuration_HTML.html#256,256,1366,625,1366,768,8-30-2022,13-55-23,29,depth_duration_stimuli/002988_2014-06-15_12-24-20_094959634447_rgbf000150-resize_1/002988_2014-06-15_12-24-20_094959634447_rgbf000150-resize_1-target.png,125,4.7669999999999995,2,2539,131,feet,jsons/VE125_randls_34_rotated.json,957978,1397053,29,Man
29,420331,DepthScenes,duration_manipulation_targetAtFixation,jsons/VE125_randls_34_rotated.json,http://54.235.29.9/FacialAge/BNav_EC2/DepthDuration/v2_depth_duration_MTurk/v2_DepthDuration_HTML.html#256,256,1366,625,1366,768,8-30-2022,13-55-23,30,depth_duration_stimuli/002072_2014-06-24_21-48-06_260595134347_rgbf000115-resize_0/002072_2014-06-24_21-48-06_260595134347_rgbf000115-resize-original.jpg,125,4.702,3,2617,193,feet,jsons/VE125_randls_34_rotated.json,957978,1397053,29,Man
30,420331,DepthScenes,duration_manipulation_targetAtFixation,jsons/VE125_randls_34_rotated.json,http://54.235.29.9/FacialAge/BNav_EC2/DepthDuration/v2_depth_duration_MTurk/v2_DepthDuration_HTML.html#256,256,1366,625,1366,768,8-30-2022,13-55-23,31,depth_duration_stimuli/002209_2014-06-28_18-36-10_260595134347_rgbf000051-resize_1/002209_2014-06-28_18-36-10_260595134347_rgbf000051-resize_1-target.png,125,2.057,2,2460,122,feet,jsons/VE125_randls_34_rotated.json,957978,1397053,29,Man
31,420331,DepthScenes,duration_manipulation_targetAtFixation,jsons/VE125_randls_34_rotated.json,http://54.235.29.9/FacialAge/BNav_EC2/DepthDuration/v2_depth_duration_MTurk/v2_DepthDuration_HTML.html#256,256,1366,625,1366,768,8-30-2022,13-55-23,32,depth_duration_stimuli/002763_2014-06-22_19-13-10_094959634447_rgbf000075-resize_4/002763_2014-06-22_19-13-10_094959634447_rgbf000075-resize_4-target.png,125,1.68375,3,2149,117,feet,jsons/VE125_randls_34_rotated.json,957978,1397053,29,Man
32,420331,DepthScenes,duration_manipulation_targetAtFixation,jsons/VE125_randls_34_rotated.json,http://54.235.29.9/FacialAge/BNav_EC2/DepthDuration/v2_depth_duration_MTurk/v2_DepthDuration_HTML.html#256,256,1366,625,1366,768,8-30-2022,13-55-23,33,depth_duration_stimuli/002758_2014-06-22_19-11-20_094959634447_rgbf000128-resize_1/002758_2014-06-22_19-11-20_094959634447_rgbf000128-resize_1-target.png,125,2.555,2,2671,112,feet,jsons/VE125_randls_34_rotated.json,957978,1397053,29,Man
33,420331,DepthScenes,duration_manipulation_targetAtFixation,jsons/VE125_randls_34_rotated.json,http://54.235.29.9/FacialAge/BNav_EC2/DepthDuration/v2_depth_duration_MTurk/v2_DepthDuration_HTML.html#256,256,1366,625,1366,768,8-30-2022,13-55-23,34,depth_duration_stimuli/002630_2014-06-24_14-47-50_094959634447_rgbf000055-resize_1/002630_2014-06-24_14-47-50_094959634447_rgbf000055-resize_1-target.png,125,3.0095,1,2530,144,feet,jsons/VE125_randls_34_rotated.json,957978,1397053,29,Man
34,420331,DepthScenes,duration_manipulation_targetAtFixation,jsons/VE125_randls_34_rotated.json,http://54.235.29.9/FacialAge/BNav_EC2/DepthDuration/v2_depth_duration_MTurk/v2_DepthDuration_HTML.html#256,256,1366,625,1366,768,8-30-2022,13-55-23,35,depth_duration_stimuli/002344_2014-06-28_20-06-29_260595134347_rgbf000030-resize_1/002344_2014-06-28_20-06-29_260595134347_rgbf000030-resize_1-target.png,125,1.5795,2,2679,124,feet,jsons/VE125_randls_34_rotated.json,957978,1397053,29,Man
35,420331,DepthScenes,duration_manipulation_targetAtFixation,jsons/VE125_randls_34_rotated.json,http://54.235.29.9/FacialAge/BNav_EC2/DepthDuration/v2_depth_duration_MTurk/v2_DepthDuration_HTML.html#256,256,1366,625,1366,768,8-30-2022,13-55-23,36,depth_duration_stimuli/002725_2014-06-22_11-47-51_094959634447_rgbf000070-resize_1/002725_2014-06-22_11-47-51_094959634447_rgbf000070-resize_1-target.png,125,2.195,1,2495,124,feet,jsons/VE125_randls_34_rotated.json,957978,1397053,29,Man
36,420331,DepthScenes,duration_manipulation_targetAtFixation,jsons/VE125_randls_34_rotated.json,http://54.235.29.9/FacialAge/BNav_EC2/DepthDuration/v2_depth_duration_MTurk/v2_DepthDuration_HTML.html#256,256,1366,625,1366,768,8-30-2022,13-55-23,37,depth_duration_stimuli/003081_2014-06-15_15-19-16_094959634447_rgbf000150-resize_1/003081_2014-06-15_15-19-16_094959634447_rgbf000150-resize_1-target.png,125,3.9125,2,3494,130,feet,jsons/VE125_randls_34_rotated.json,957978,1397053,29,Man
37,420331,DepthScenes,duration_manipulation_targetAtFixation,jsons/VE125_randls_34_rotated.json,http://54.235.29.9/FacialAge/BNav_EC2/DepthDuration/v2_depth_duration_MTurk/v2_DepthDuration_HTML.html#256,256,1366,625,1366,768,8-30-2022,13-55-23,38,depth_duration_stimuli/001417_2014-06-19_16-25-36_260595134347_rgbf000115-resize_5/001417_2014-06-19_16-25-36_260595134347_rgbf000115-resize_5-target.png,125,4.6255,2,2333,121,feet,jsons/VE125_randls_34_rotated.json,957978,1397053,29,Man
38,420331,DepthScenes,duration_manipulation_targetAtFixation,jsons/VE125_randls_34_rotated.json,http://54.235.29.9/FacialAge/BNav_EC2/DepthDuration/v2_depth_duration_MTurk/v2_DepthDuration_HTML.html#256,256,1366,625,1366,768,8-30-2022,13-55-23,39,depth_duration_stimuli/000457_2014-06-08_16-52-43_260595134347_rgbf000199-resize_1/000457_2014-06-08_16-52-43_260595134347_rgbf000199-resize_1-target.png,125,3.6489999999999996,3,2585,112,feet,jsons/VE125_randls_34_rotated.json,957978,1397053,29,Man
39,420331,DepthScenes,duration_manipulation_targetAtFixation,jsons/VE125_randls_34_rotated.json,http://54.235.29.9/FacialAge/BNav_EC2/DepthDuration/v2_depth_duration_MTurk/v2_DepthDuration_HTML.html#256,256,1366,625,1366,768,8-30-2022,13-55-23,40,depth_duration_stimuli/000929_2014-06-09_16-33-19_260595134347_rgbf000139-resize_0/000929_2014-06-09_16-33-19_260595134347_rgbf000139-resize_0-target.png,125,2.8680000000000003,3,2863,136,feet,jsons/VE125_randls_34_rotated.json,957978,1397053,29,Man
40,420331,DepthScenes,duration_manipulation_targetAtFixation,jsons/VE125_randls_34_rotated.json,http://54.235.29.9/FacialAge/BNav_EC2/DepthDuration/v2_depth_duration_MTurk/v2_DepthDuration_HTML.html#256,256,1366,625,1366,768,8-30-2022,13-55-23,41,depth_duration_stimuli/002953_2014-06-08_17-32-18_094959634447_rgbf000059-resize_5/002953_2014-06-08_17-32-18_094959634447_rgbf000059-resize_5-target.png,125,1.551,1,2410,135,feet,jsons/VE125_randls_34_rotated.json,957978,1397053,29,Man
41,420331,DepthScenes,duration_manipulation_targetAtFixation,jsons/VE125_randls_34_rotated.json,http://54.235.29.9/FacialAge/BNav_EC2/DepthDuration/v2_depth_duration_MTurk/v2_DepthDuration_HTML.html#256,256,1366,625,1366,768,8-30-2022,13-55-23,42,depth_duration_stimuli/000878_2014-06-08_22-52-45_260595134347_rgbf000045-resize_2/000878_2014-06-08_22-52-45_260595134347_rgbf000045-resize_2-target.png,125,2.092,0,2937,123,feet,jsons/VE125_randls_34_rotated.json,957978,1397053,29,Man
42,420331,DepthScenes,duration_manipulation_targetAtFixation,jsons/VE125_randls_34_rotated.json,http://54.235.29.9/FacialAge/BNav_EC2/DepthDuration/v2_depth_duration_MTurk/v2_DepthDuration_HTML.html#256,256,1366,625,1366,768,8-30-2022,13-55-23,43,depth_duration_stimuli/000677_2014-06-08_23-10-32_260595134347_rgbf000158-resize_6/000677_2014-06-08_23-10-32_260595134347_rgbf000158-resize_6-target.png,125,3.556,4,4554,126,feet,jsons/VE125_randls_34_rotated.json,957978,1397053,29,Man
43,420331,DepthScenes,duration_manipulation_targetAtFixation,jsons/VE125_randls_34_rotated.json,http://54.235.29.9/FacialAge/BNav_EC2/DepthDuration/v2_depth_duration_MTurk/v2_DepthDuration_HTML.html#256,256,1366,625,1366,768,8-30-2022,13-55-23,44,depth_duration_stimuli/001029_2014-06-08_13-17-57_260595134347_rgbf000065-resize_1/001029_2014-06-08_13-17-57_260595134347_rgbf000065-resize_1-target.png,125,3.0835,1,2178,114,feet,jsons/VE125_randls_34_rotated.json,957978,1397053,29,Man
44,420331,DepthScenes,duration_manipulation_targetAtFixation,jsons/VE125_randls_34_rotated.json,http://54.235.29.9/FacialAge/BNav_EC2/DepthDuration/v2_depth_duration_MTurk/v2_DepthDuration_HTML.html#256,256,1366,625,1366,768,8-30-2022,13-55-23,45,depth_duration_stimuli/001094_2014-06-15_17-36-00_260595134347_rgbf000205-resize_0/001094_2014-06-15_17-36-00_260595134347_rgbf000205-resize_0-target.png,125,4.2175,2,2254,110,feet,jsons/VE125_randls_34_rotated.json,957978,1397053,29,Man
45,420331,DepthScenes,duration_manipulation_targetAtFixation,jsons/VE125_randls_34_rotated.json,http://54.235.29.9/FacialAge/BNav_EC2/DepthDuration/v2_depth_duration_MTurk/v2_DepthDuration_HTML.html#256,256,1366,625,1366,768,8-30-2022,13-55-23,46,depth_duration_stimuli/000692_2014-06-08_13-09-42_260595134347_rgbf000199-resize_2/000692_2014-06-08_13-09-42_260595134347_rgbf000199-resize_2-target.png,125,3.661,2,2428,137,feet,jsons/VE125_randls_34_rotated.json,957978,1397053,29,Man
46,420331,DepthScenes,duration_manipulation_targetAtFixation,jsons/VE125_randls_34_rotated.json,http://54.235.29.9/FacialAge/BNav_EC2/DepthDuration/v2_depth_duration_MTurk/v2_DepthDuration_HTML.html#256,256,1366,625,1366,768,8-30-2022,13-55-23,47,depth_duration_stimuli/000665_2014-06-09_20-42-35_260595134347_rgbf000110-resize_1/000665_2014-06-09_20-42-35_260595134347_rgbf000110-resize_1-target.png,125,3.057,3,2386,122,feet,jsons/VE125_randls_34_rotated.json,957978,1397053,29,Man
47,420331,DepthScenes,duration_manipulation_targetAtFixation,jsons/VE125_randls_34_rotated.json,http://54.235.29.9/FacialAge/BNav_EC2/DepthDuration/v2_depth_duration_MTurk/v2_DepthDuration_HTML.html#256,256,1366,625,1366,768,8-30-2022,13-55-23,48,depth_duration_stimuli/001150_2014-06-17_15-27-34_260595134347_rgbf000108-resize_2/001150_2014-06-17_15-27-34_260595134347_rgbf000108-resize_2-target.png,125,4.0325,1,2954,161,feet,jsons/VE125_randls_34_rotated.json,957978,1397053,29,Man
48,420331,DepthScenes,duration_manipulation_targetAtFixation,jsons/VE125_randls_34_rotated.json,http://54.235.29.9/FacialAge/BNav_EC2/DepthDuration/v2_depth_duration_MTurk/v2_DepthDuration_HTML.html#256,256,1366,625,1366,768,8-30-2022,13-55-23,49,depth_duration_stimuli/001170_2014-06-17_15-43-44_260595134347_rgbf000096-resize_6/001170_2014-06-17_15-43-44_260595134347_rgbf000096-resize-original.jpg,125,1.1909999999999998,2,2498,125,feet,jsons/VE125_randls_34_rotated.json,957978,1397053,29,Man
49,420331,DepthScenes,duration_manipulation_targetAtFixation,jsons/VE125_randls_34_rotated.json,http://54.235.29.9/FacialAge/BNav_EC2/DepthDuration/v2_depth_duration_MTurk/v2_DepthDuration_HTML.html#256,256,1366,625,1366,768,8-30-2022,13-55-23,50,depth_duration_stimuli/001136_2014-06-17_15-19-41_260595134347_rgbf000076-resize_3/001136_2014-06-17_15-19-41_260595134347_rgbf000076-resize_3-target.png,125,1.8655,3,3020,125,feet,jsons/VE125_randls_34_rotated.json,957978,1397053,29,Man
50,420331,DepthScenes,duration_manipulation_targetAtFixation,jsons/VE125_randls_34_rotated.json,http://54.235.29.9/FacialAge/BNav_EC2/DepthDuration/v2_depth_duration_MTurk/v2_DepthDuration_HTML.html#256,256,1366,625,1366,768,8-30-2022,13-55-23,51,depth_duration_stimuli/001164_2014-06-17_15-35-46_260595134347_rgbf000085-resize_3/001164_2014-06-17_15-35-46_260595134347_rgbf000085-resize_3-target.png,125,2.354,0,4773,186,feet,jsons/VE125_randls_34_rotated.json,957978,1397053,29,Man
51,420331,DepthScenes,duration_manipulation_targetAtFixation,jsons/VE125_randls_34_rotated.json,http://54.235.29.9/FacialAge/BNav_EC2/DepthDuration/v2_depth_duration_MTurk/v2_DepthDuration_HTML.html#256,256,1366,625,1366,768,8-30-2022,13-55-23,52,depth_duration_stimuli/002136_2014-06-25_21-18-03_260595134347_rgbf000109-resize_3/002136_2014-06-25_21-18-03_260595134347_rgbf000109-resize_3-target.png,125,1.9569999999999999,1,2291,127,feet,jsons/VE125_randls_34_rotated.json,957978,1397053,29,Man
52,420331,DepthScenes,duration_manipulation_targetAtFixation,jsons/VE125_randls_34_rotated.json,http://54.235.29.9/FacialAge/BNav_EC2/DepthDuration/v2_depth_duration_MTurk/v2_DepthDuration_HTML.html#256,256,1366,625,1366,768,8-30-2022,13-55-23,53,depth_duration_stimuli/002964_2014-06-08_17-46-11_094959634447_rgbf000091-resize_4/002964_2014-06-08_17-46-11_094959634447_rgbf000091-resize_4-target.png,125,1.6909999999999998,2,2058,111,feet,jsons/VE125_randls_34_rotated.json,957978,1397053,29,Man
53,420331,DepthScenes,duration_manipulation_targetAtFixation,jsons/VE125_randls_34_rotated.json,http://54.235.29.9/FacialAge/BNav_EC2/DepthDuration/v2_depth_duration_MTurk/v2_DepthDuration_HTML.html#256,256,1366,625,1366,768,8-30-2022,13-55-23,54,depth_duration_stimuli/000137_2014-05-20_17-04-49_260595134347_rgbf000120-resize_1/000137_2014-05-20_17-04-49_260595134347_rgbf000120-resize_1-target.png,125,3.786,3,2338,123,feet,jsons/VE125_randls_34_rotated.json,957978,1397053,29,Man
54,420331,DepthScenes,duration_manipulation_targetAtFixation,jsons/VE125_randls_34_rotated.json,http://54.235.29.9/FacialAge/BNav_EC2/DepthDuration/v2_depth_duration_MTurk/v2_DepthDuration_HTML.html#256,256,1366,625,1366,768,8-30-2022,13-55-23,55,depth_duration_stimuli/000736_2014-06-08_18-24-15_260595134347_rgbf000206-resize_3/000736_2014-06-08_18-24-15_260595134347_rgbf000206-resize_3-target.png,125,3.515,4,2313,124,feet,jsons/VE125_randls_34_rotated.json,957978,1397053,29,Man
55,420331,DepthScenes,duration_manipulation_targetAtFixation,jsons/VE125_randls_34_rotated.json,http://54.235.29.9/FacialAge/BNav_EC2/DepthDuration/v2_depth_duration_MTurk/v2_DepthDuration_HTML.html#256,256,1366,625,1366,768,8-30-2022,13-55-23,56,depth_duration_stimuli/002750_2014-06-22_19-08-03_094959634447_rgbf000094-resize_4/002750_2014-06-22_19-08-03_094959634447_rgbf000094-resize_4-target.png,125,2.354,1,2974,126,feet,jsons/VE125_randls_34_rotated.json,957978,1397053,29,Man
56,420331,DepthScenes,duration_manipulation_targetAtFixation,jsons/VE125_randls_34_rotated.json,http://54.235.29.9/FacialAge/BNav_EC2/DepthDuration/v2_depth_duration_MTurk/v2_DepthDuration_HTML.html#256,256,1366,625,1366,768,8-30-2022,13-55-23,57,depth_duration_stimuli/002549_2014-06-24_13-41-39_094959634447_rgbf000022-resize_3/002549_2014-06-24_13-41-39_094959634447_rgbf000022-resize_3-target.png,125,1.476,2,2366,125,feet,jsons/VE125_randls_34_rotated.json,957978,1397053,29,Man
57,420331,DepthScenes,duration_manipulation_targetAtFixation,jsons/VE125_randls_34_rotated.json,http://54.235.29.9/FacialAge/BNav_EC2/DepthDuration/v2_depth_duration_MTurk/v2_DepthDuration_HTML.html#256,256,1366,625,1366,768,8-30-2022,13-55-23,58,depth_duration_stimuli/000927_2014-06-09_16-32-30_260595134347_rgbf000123-resize_3/000927_2014-06-09_16-32-30_260595134347_rgbf000123-resize_3-target.png,125,2.6785,0,2703,126,feet,jsons/VE125_randls_34_rotated.json,957978,1397053,29,Man
58,420331,DepthScenes,duration_manipulation_targetAtFixation,jsons/VE125_randls_34_rotated.json,http://54.235.29.9/FacialAge/BNav_EC2/DepthDuration/v2_depth_duration_MTurk/v2_DepthDuration_HTML.html#256,256,1366,625,1366,768,8-30-2022,13-55-23,59,depth_duration_stimuli/001110_2014-06-15_17-25-28_260595134347_rgbf000150-resize_1/001110_2014-06-15_17-25-28_260595134347_rgbf000150-resize_1-target.png,125,1.7115,0,1986,122,feet,jsons/VE125_randls_34_rotated.json,957978,1397053,29,Man
59,420331,DepthScenes,duration_manipulation_targetAtFixation,jsons/VE125_randls_34_rotated.json,http://54.235.29.9/FacialAge/BNav_EC2/DepthDuration/v2_depth_duration_MTurk/v2_DepthDuration_HTML.html#256,256,1366,625,1366,768,8-30-2022,13-55-23,60,depth_duration_stimuli/003010_2014-06-15_12-54-35_094959634447_rgbf000112-resize_0/003010_2014-06-15_12-54-35_094959634447_rgbf000112-resize_0-target.png,125,3.1185,1,2668,125,feet,jsons/VE125_randls_34_rotated.json,957978,1397053,29,Man
60,420331,DepthScenes,duration_manipulation_targetAtFixation,jsons/VE125_randls_34_rotated.json,http://54.235.29.9/FacialAge/BNav_EC2/DepthDuration/v2_depth_duration_MTurk/v2_DepthDuration_HTML.html#256,256,1366,625,1366,768,8-30-2022,13-55-23,61,depth_duration_stimuli/001810_2014-06-26_20-51-35_260595134347_rgbf000040-resize_3/001810_2014-06-26_20-51-35_260595134347_rgbf000040-resize_3-target.png,125,2.2525,2,2333,138,feet,jsons/VE125_randls_34_rotated.json,957978,1397053,29,Man
61,420331,DepthScenes,duration_manipulation_targetAtFixation,jsons/VE125_randls_34_rotated.json,http://54.235.29.9/FacialAge/BNav_EC2/DepthDuration/v2_depth_duration_MTurk/v2_DepthDuration_HTML.html#256,256,1366,625,1366,768,8-30-2022,13-55-23,62,depth_duration_stimuli/002995_2014-06-15_12-31-26_094959634447_rgbf000150-resize_1/002995_2014-06-15_12-31-26_094959634447_rgbf000150-resize_1-target.png,125,3.8360000000000003,2,2811,124,feet,jsons/VE125_randls_34_rotated.json,957978,1397053,29,Man
62,420331,DepthScenes,duration_manipulation_targetAtFixation,jsons/VE125_randls_34_rotated.json,http://54.235.29.9/FacialAge/BNav_EC2/DepthDuration/v2_depth_duration_MTurk/v2_DepthDuration_HTML.html#256,256,1366,625,1366,768,8-30-2022,13-55-23,63,depth_duration_stimuli/002748_2014-06-22_19-07-22_094959634447_rgbf000078-resize_1/002748_2014-06-22_19-07-22_094959634447_rgbf000078-resize_1-target.png,125,4.6705,9,2251,143,feet,jsons/VE125_randls_34_rotated.json,957978,1397053,29,Man
63,420331,DepthScenes,duration_manipulation_targetAtFixation,jsons/VE125_randls_34_rotated.json,http://54.235.29.9/FacialAge/BNav_EC2/DepthDuration/v2_depth_duration_MTurk/v2_DepthDuration_HTML.html#256,256,1366,625,1366,768,8-30-2022,13-55-23,64,depth_duration_stimuli/002103_2014-06-25_20-00-40_260595134347_rgbf000049-resize_0/002103_2014-06-25_20-00-40_260595134347_rgbf000049-resize_0-target.png,125,4.105,7,2548,123,feet,jsons/VE125_randls_34_rotated.json,957978,1397053,29,Man
64,420331,DepthScenes,duration_manipulation_targetAtFixation,jsons/VE125_randls_34_rotated.json,http://54.235.29.9/FacialAge/BNav_EC2/DepthDuration/v2_depth_duration_MTurk/v2_DepthDuration_HTML.html#256,256,1366,625,1366,768,8-30-2022,13-55-23,65,depth_duration_stimuli/002039_2014-06-24_20-22-38_260595134347_rgbf000084-resize_1/002039_2014-06-24_20-22-38_260595134347_rgbf000084-resize_1-target.png,125,4.408,0,2405,156,feet,jsons/VE125_randls_34_rotated.json,957978,1397053,29,Man
65,420331,DepthScenes,duration_manipulation_targetAtFixation,jsons/VE125_randls_34_rotated.json,http://54.235.29.9/FacialAge/BNav_EC2/DepthDuration/v2_depth_duration_MTurk/v2_DepthDuration_HTML.html#256,256,1366,625,1366,768,8-30-2022,13-55-23,66,depth_duration_stimuli/001540_2014-06-20_17-01-05_260595134347_rgbf000086-resize_2/001540_2014-06-20_17-01-05_260595134347_rgbf000086-resize-original.jpg,125,1.459,7,3460,126,feet,jsons/VE125_randls_34_rotated.json,957978,1397053,29,Man
66,420331,DepthScenes,duration_manipulation_targetAtFixation,jsons/VE125_randls_34_rotated.json,http://54.235.29.9/FacialAge/BNav_EC2/DepthDuration/v2_depth_duration_MTurk/v2_DepthDuration_HTML.html#256,256,1366,625,1366,768,8-30-2022,13-55-23,67,depth_duration_stimuli/000742_2014-06-08_18-48-09_260595134347_rgbf000164-resize_4/000742_2014-06-08_18-48-09_260595134347_rgbf000164-resize_4-target.png,125,4.632,1,2197,125,feet,jsons/VE125_randls_34_rotated.json,957978,1397053,29,Man
67,420331,DepthScenes,duration_manipulation_targetAtFixation,jsons/VE125_randls_34_rotated.json,http://54.235.29.9/FacialAge/BNav_EC2/DepthDuration/v2_depth_duration_MTurk/v2_DepthDuration_HTML.html#256,256,1366,625,1366,768,8-30-2022,13-55-23,68,depth_duration_stimuli/001066_2014-06-08_22-03-20_260595134347_rgbf000066-resize_4/001066_2014-06-08_22-03-20_260595134347_rgbf000066-resize_4-target.png,125,4.2330000000000005,2,2700,123,feet,jsons/VE125_randls_34_rotated.json,957978,1397053,29,Man
68,420331,DepthScenes,duration_manipulation_targetAtFixation,jsons/VE125_randls_34_rotated.json,http://54.235.29.9/FacialAge/BNav_EC2/DepthDuration/v2_depth_duration_MTurk/v2_DepthDuration_HTML.html#256,256,1366,625,1366,768,8-30-2022,13-55-23,69,depth_duration_stimuli/002199_2014-06-28_18-33-56_260595134347_rgbf000074-resize_0/002199_2014-06-28_18-33-56_260595134347_rgbf000074-resize_0-target.png,125,1.996,2,2750,131,feet,jsons/VE125_randls_34_rotated.json,957978,1397053,29,Man
69,420331,DepthScenes,duration_manipulation_targetAtFixation,jsons/VE125_randls_34_rotated.json,http://54.235.29.9/FacialAge/BNav_EC2/DepthDuration/v2_depth_duration_MTurk/v2_DepthDuration_HTML.html#256,256,1366,625,1366,768,8-30-2022,13-55-23,70,depth_duration_stimuli/001056_2014-06-08_18-46-44_260595134347_rgbf000068-resize_0/001056_2014-06-08_18-46-44_260595134347_rgbf000068-resize_0-target.png,125,2.6625,5,2126,115,feet,jsons/VE125_randls_34_rotated.json,957978,1397053,29,Man
70,420331,DepthScenes,duration_manipulation_targetAtFixation,jsons/VE125_randls_34_rotated.json,http://54.235.29.9/FacialAge/BNav_EC2/DepthDuration/v2_depth_duration_MTurk/v2_DepthDuration_HTML.html#256,256,1366,625,1366,768,8-30-2022,13-55-23,71,depth_duration_stimuli/002805_2014-06-22_19-54-03_094959634447_rgbf000079-resize_1/002805_2014-06-22_19-54-03_094959634447_rgbf000079-resize_1-target.png,125,3.1439999999999997,5,2557,106,feet,jsons/VE125_randls_34_rotated.json,957978,1397053,29,Man
71,420331,DepthScenes,duration_manipulation_targetAtFixation,jsons/VE125_randls_34_rotated.json,http://54.235.29.9/FacialAge/BNav_EC2/DepthDuration/v2_depth_duration_MTurk/v2_DepthDuration_HTML.html#256,256,1366,625,1366,768,8-30-2022,13-55-23,72,depth_duration_stimuli/000906_2014-06-08_13-35-43_260595134347_rgbf000155-resize_1/000906_2014-06-08_13-35-43_260595134347_rgbf000155-resize_1-target.png,125,2.8489999999999998,4,2580,122,feet,jsons/VE125_randls_34_rotated.json,957978,1397053,29,Man
72,420331,DepthScenes,duration_manipulation_targetAtFixation,jsons/VE125_randls_34_rotated.json,http://54.235.29.9/FacialAge/BNav_EC2/DepthDuration/v2_depth_duration_MTurk/v2_DepthDuration_HTML.html#256,256,1366,625,1366,768,8-30-2022,13-55-23,73,depth_duration_stimuli/003338_2014-05-20_11-01-23_094959634447_rgbf000051-resize_6/003338_2014-05-20_11-01-23_094959634447_rgbf000051-resize_6-target.png,125,1.693,4,4244,145,feet,jsons/VE125_randls_34_rotated.json,957978,1397053,29,Man
73,420331,DepthScenes,duration_manipulation_targetAtFixation,jsons/VE125_randls_34_rotated.json,http://54.235.29.9/FacialAge/BNav_EC2/DepthDuration/v2_depth_duration_MTurk/v2_DepthDuration_HTML.html#256,256,1366,625,1366,768,8-30-2022,13-55-23,74,depth_duration_stimuli/002509_2014-06-24_13-19-22_094959634447_rgbf000077-resize_0/002509_2014-06-24_13-19-22_094959634447_rgbf000077-resize_0-target.png,125,1.3065,4,2244,116,feet,jsons/VE125_randls_34_rotated.json,957978,1397053,29,Man
74,420331,DepthScenes,duration_manipulation_targetAtFixation,jsons/VE125_randls_34_rotated.json,http://54.235.29.9/FacialAge/BNav_EC2/DepthDuration/v2_depth_duration_MTurk/v2_DepthDuration_HTML.html#256,256,1366,625,1366,768,8-30-2022,13-55-23,75,depth_duration_stimuli/003490_2014-05-21_15-50-11_094959634447_rgbf000101-resize_3/003490_2014-05-21_15-50-11_094959634447_rgbf000101-resize_3-target.png,125,3.6445,4,2407,134,feet,jsons/VE125_randls_34_rotated.json,957978,1397053,29,Man
75,420331,DepthScenes,duration_manipulation_targetAtFixation,jsons/VE125_randls_34_rotated.json,http://54.235.29.9/FacialAge/BNav_EC2/DepthDuration/v2_depth_duration_MTurk/v2_DepthDuration_HTML.html#256,256,1366,625,1366,768,8-30-2022,13-55-23,76,depth_duration_stimuli/001175_2014-06-17_15-45-55_260595134347_rgbf000129-resize_4/001175_2014-06-17_15-45-55_260595134347_rgbf000129-resize_4-target.png,125,4.255,4,2529,138,feet,jsons/VE125_randls_34_rotated.json,957978,1397053,29,Man
76,420331,DepthScenes,duration_manipulation_targetAtFixation,jsons/VE125_randls_34_rotated.json,http://54.235.29.9/FacialAge/BNav_EC2/DepthDuration/v2_depth_duration_MTurk/v2_DepthDuration_HTML.html#256,256,1366,625,1366,768,8-30-2022,13-55-23,77,depth_duration_stimuli/003423_2014-05-21_10-23-26_094959634447_rgbf002665-resize_2/003423_2014-05-21_10-23-26_094959634447_rgbf002665-resize_2-target.png,125,3.2575,4,3674,105,feet,jsons/VE125_randls_34_rotated.json,957978,1397053,29,Man
77,420331,DepthScenes,duration_manipulation_targetAtFixation,jsons/VE125_randls_34_rotated.json,http://54.235.29.9/FacialAge/BNav_EC2/DepthDuration/v2_depth_duration_MTurk/v2_DepthDuration_HTML.html#256,256,1366,625,1366,768,8-30-2022,13-55-23,78,depth_duration_stimuli/002905_2014-06-03_18-04-43_094959634447_rgbf000151-resize_2/002905_2014-06-03_18-04-43_094959634447_rgbf000151-resize_2-target.png,125,2.0295,0,2505,124,feet,jsons/VE125_randls_34_rotated.json,957978,1397053,29,Man
78,420331,DepthScenes,duration_manipulation_targetAtFixation,jsons/VE125_randls_34_rotated.json,http://54.235.29.9/FacialAge/BNav_EC2/DepthDuration/v2_depth_duration_MTurk/v2_DepthDuration_HTML.html#256,256,1366,625,1366,768,8-30-2022,13-55-23,79,depth_duration_stimuli/000635_2014-06-08_16-38-42_260595134347_rgbf000106-resize_1/000635_2014-06-08_16-38-42_260595134347_rgbf000106-resize_1-target.png,125,2.074,5,1862,120,feet,jsons/VE125_randls_34_rotated.json,957978,1397053,29,Man
79,420331,DepthScenes,duration_manipulation_targetAtFixation,jsons/VE125_randls_34_rotated.json,http://54.235.29.9/FacialAge/BNav_EC2/DepthDuration/v2_depth_duration_MTurk/v2_DepthDuration_HTML.html#256,256,1366,625,1366,768,8-30-2022,13-55-23,80,depth_duration_stimuli/002279_2014-06-28_18-55-32_260595134347_rgbf000040-resize_5/002279_2014-06-28_18-55-32_260595134347_rgbf000040-resize_5-target.png,125,1.5043333333333,8,2482,145,feet,jsons/VE125_randls_34_rotated.json,957978,1397053,29,Man
80,420331,DepthScenes,duration_manipulation_targetAtFixation,jsons/VE125_randls_34_rotated.json,http://54.235.29.9/FacialAge/BNav_EC2/DepthDuration/v2_depth_duration_MTurk/v2_DepthDuration_HTML.html#256,256,1366,625,1366,768,8-30-2022,13-55-23,81,depth_duration_stimuli/001828_2014-06-26_21-40-03_260595134347_rgbf000024-resize_0/001828_2014-06-26_21-40-03_260595134347_rgbf000024-resize_0-target.png,125,4.8260000000000005,2,16440,125,feet,jsons/VE125_randls_34_rotated.json,957978,1397053,29,Man
81,420331,DepthScenes,duration_manipulation_targetAtFixation,jsons/VE125_randls_34_rotated.json,http://54.235.29.9/FacialAge/BNav_EC2/DepthDuration/v2_depth_duration_MTurk/v2_DepthDuration_HTML.html#256,256,1366,625,1366,768,8-30-2022,13-55-23,82,depth_duration_stimuli/000009_2014-05-26_14-32-05_260595134347_rgbf000034-resize_3/000009_2014-05-26_14-32-05_260595134347_rgbf000034-resize_3-target.png,125,3.8715,5,3387,126,feet,jsons/VE125_randls_34_rotated.json,957978,1397053,29,Man
82,420331,DepthScenes,duration_manipulation_targetAtFixation,jsons/VE125_randls_34_rotated.json,http://54.235.29.9/FacialAge/BNav_EC2/DepthDuration/v2_depth_duration_MTurk/v2_DepthDuration_HTML.html#256,256,1366,625,1366,768,8-30-2022,13-55-23,83,depth_duration_stimuli/001584_2014-06-20_11-07-43_260595134347_rgbf000002-resize_1/001584_2014-06-20_11-07-43_260595134347_rgbf000002-resize_1-target.png,125,3.53,5,2671,188,feet,jsons/VE125_randls_34_rotated.json,957978,1397053,29,Man
83,420331,DepthScenes,duration_manipulation_targetAtFixation,jsons/VE125_randls_34_rotated.json,http://54.235.29.9/FacialAge/BNav_EC2/DepthDuration/v2_depth_duration_MTurk/v2_DepthDuration_HTML.html#256,256,1366,625,1366,768,8-30-2022,13-55-23,84,depth_duration_stimuli/003621_2014-05-23_18-06-08_094959634447_rgbf000101-resize_1/003621_2014-05-23_18-06-08_094959634447_rgbf000101-resize_1-target.png,125,3.9835,5,3220,122,feet,jsons/VE125_randls_34_rotated.json,957978,1397053,29,Man
84,420331,DepthScenes,duration_manipulation_targetAtFixation,jsons/VE125_randls_34_rotated.json,http://54.235.29.9/FacialAge/BNav_EC2/DepthDuration/v2_depth_duration_MTurk/v2_DepthDuration_HTML.html#256,256,1366,625,1366,768,8-30-2022,13-55-23,85,depth_duration_stimuli/001650_2014-06-20_12-09-00_260595134347_rgbf000087-resize_3/001650_2014-06-20_12-09-00_260595134347_rgbf000087-resize_3-target.png,125,1.9505,7,5270,138,feet,jsons/VE125_randls_34_rotated.json,957978,1397053,29,Man
85,420331,DepthScenes,duration_manipulation_targetAtFixation,jsons/VE125_randls_34_rotated.json,http://54.235.29.9/FacialAge/BNav_EC2/DepthDuration/v2_depth_duration_MTurk/v2_DepthDuration_HTML.html#256,256,1366,625,1366,768,8-30-2022,13-55-23,86,depth_duration_stimuli/000682_2014-06-08_23-14-58_260595134347_rgbf000041-resize_5/000682_2014-06-08_23-14-58_260595134347_rgbf000041-resize_5-target.png,125,2.7239999999999998,3,4169,131,feet,jsons/VE125_randls_34_rotated.json,957978,1397053,29,Man
86,420331,DepthScenes,duration_manipulation_targetAtFixation,jsons/VE125_randls_34_rotated.json,http://54.235.29.9/FacialAge/BNav_EC2/DepthDuration/v2_depth_duration_MTurk/v2_DepthDuration_HTML.html#256,256,1366,625,1366,768,8-30-2022,13-55-23,87,depth_duration_stimuli/002660_2014-06-13_15-44-18_094959634447_rgbf001878-resize_2/002660_2014-06-13_15-44-18_094959634447_rgbf001878-resize_2-target.png,125,3.576,3,6894,126,feet,jsons/VE125_randls_34_rotated.json,957978,1397053,29,Man
87,420331,DepthScenes,duration_manipulation_targetAtFixation,jsons/VE125_randls_34_rotated.json,http://54.235.29.9/FacialAge/BNav_EC2/DepthDuration/v2_depth_duration_MTurk/v2_DepthDuration_HTML.html#256,256,1366,625,1366,768,8-30-2022,13-55-23,88,depth_duration_stimuli/002153_2014-06-25_21-27-18_260595134347_rgbf000038-resize_5/002153_2014-06-25_21-27-18_260595134347_rgbf000038-resize_5-target.png,125,2.505,6,4779,135,feet,jsons/VE125_randls_34_rotated.json,957978,1397053,29,Man
88,420331,DepthScenes,duration_manipulation_targetAtFixation,jsons/VE125_randls_34_rotated.json,http://54.235.29.9/FacialAge/BNav_EC2/DepthDuration/v2_depth_duration_MTurk/v2_DepthDuration_HTML.html#256,256,1366,625,1366,768,8-30-2022,13-55-23,89,depth_duration_stimuli/000780_2014-06-08_22-28-29_260595134347_rgbf000126-resize_1/000780_2014-06-08_22-28-29_260595134347_rgbf000126-resize_1-target.png,125,3.3825,3,4324,130,feet,jsons/VE125_randls_34_rotated.json,957978,1397053,29,Man
89,420331,DepthScenes,duration_manipulation_targetAtFixation,jsons/VE125_randls_34_rotated.json,http://54.235.29.9/FacialAge/BNav_EC2/DepthDuration/v2_depth_duration_MTurk/v2_DepthDuration_HTML.html#256,256,1366,625,1366,768,8-30-2022,13-55-23,90,depth_duration_stimuli/002445_2014-06-28_20-32-16_260595134347_rgbf000029-resize_4/002445_2014-06-28_20-32-16_260595134347_rgbf000029-resize_4-target.png,125,2.5315,2,20564,129,feet,jsons/VE125_randls_34_rotated.json,957978,1397053,29,Man
90,420331,DepthScenes,duration_manipulation_targetAtFixation,jsons/VE125_randls_34_rotated.json,http://54.235.29.9/FacialAge/BNav_EC2/DepthDuration/v2_depth_duration_MTurk/v2_DepthDuration_HTML.html#256,256,1366,625,1366,768,8-30-2022,13-55-23,91,depth_duration_stimuli/002678_2014-06-13_16-15-32_094959634447_rgbf000151-resize_6/002678_2014-06-13_16-15-32_094959634447_rgbf000151-resize_6-target.png,125,2.1830000000000003,8,5896,218,feet,jsons/VE125_randls_34_rotated.json,957978,1397053,29,Man
91,420331,DepthScenes,duration_manipulation_targetAtFixation,jsons/VE125_randls_34_rotated.json,http://54.235.29.9/FacialAge/BNav_EC2/DepthDuration/v2_depth_duration_MTurk/v2_DepthDuration_HTML.html#256,256,1366,625,1366,768,8-30-2022,13-55-23,92,depth_duration_stimuli/000368_2014-06-09_15-53-01_260595134347_rgbf000155-resize_2/000368_2014-06-09_15-53-01_260595134347_rgbf000155-resize_2-target.png,125,2.4859999999999998,8,3558,121,feet,jsons/VE125_randls_34_rotated.json,957978,1397053,29,Man
92,420331,DepthScenes,duration_manipulation_targetAtFixation,jsons/VE125_randls_34_rotated.json,http://54.235.29.9/FacialAge/BNav_EC2/DepthDuration/v2_depth_duration_MTurk/v2_DepthDuration_HTML.html#256,256,1366,625,1366,768,8-30-2022,13-55-23,93,depth_duration_stimuli/003079_2014-06-15_15-18-20_094959634447_rgbf000152-resize_8/003079_2014-06-15_15-18-20_094959634447_rgbf000152-resize_8-target.png,125,2.8775,8,2812,119,feet,jsons/VE125_randls_34_rotated.json,957978,1397053,29,Man
93,420331,DepthScenes,duration_manipulation_targetAtFixation,jsons/VE125_randls_34_rotated.json,http://54.235.29.9/FacialAge/BNav_EC2/DepthDuration/v2_depth_duration_MTurk/v2_DepthDuration_HTML.html#256,256,1366,625,1366,768,8-30-2022,13-55-23,94,depth_duration_stimuli/000506_2014-06-08_23-21-00_260595134347_rgbf000070-resize_7/000506_2014-06-08_23-21-00_260595134347_rgbf000070-resize_7-target.png,125,4.0585,2,7929,129,feet,jsons/VE125_randls_34_rotated.json,957978,1397053,29,Man
94,420331,DepthScenes,duration_manipulation_targetAtFixation,jsons/VE125_randls_34_rotated.json,http://54.235.29.9/FacialAge/BNav_EC2/DepthDuration/v2_depth_duration_MTurk/v2_DepthDuration_HTML.html#256,256,1366,625,1366,768,8-30-2022,13-55-23,95,depth_duration_stimuli/000549_2014-06-08_22-10-24_260595134347_rgbf000247-resize_3/000549_2014-06-08_22-10-24_260595134347_rgbf000247-resize_3-target.png,125,1.841,8,6812,125,feet,jsons/VE125_randls_34_rotated.json,957978,1397053,29,Man
95,420331,DepthScenes,duration_manipulation_targetAtFixation,jsons/VE125_randls_34_rotated.json,http://54.235.29.9/FacialAge/BNav_EC2/DepthDuration/v2_depth_duration_MTurk/v2_DepthDuration_HTML.html#256,256,1366,625,1366,768,8-30-2022,13-55-23,96,depth_duration_stimuli/001055_2014-06-08_18-45-35_260595134347_rgbf000111-resize_4/001055_2014-06-08_18-45-35_260595134347_rgbf000111-resize_4-target.png,125,2.4290000000000003,9,5784,140,feet,jsons/VE125_randls_34_rotated.json,957978,1397053,29,Man
96,420331,DepthScenes,duration_manipulation_targetAtFixation,jsons/VE125_randls_34_rotated.json,http://54.235.29.9/FacialAge/BNav_EC2/DepthDuration/v2_depth_duration_MTurk/v2_DepthDuration_HTML.html#256,256,1366,625,1366,768,8-30-2022,13-55-23,97,depth_duration_stimuli/000749_2014-06-08_21-55-06_260595134347_rgbf000070-resize_2/000749_2014-06-08_21-55-06_260595134347_rgbf000070-resize_2-target.png,125,2.331,2,4802,221,feet,jsons/VE125_randls_34_rotated.json,957978,1397053,29,Man
97,420331,DepthScenes,duration_manipulation_targetAtFixation,jsons/VE125_randls_34_rotated.json,http://54.235.29.9/FacialAge/BNav_EC2/DepthDuration/v2_depth_duration_MTurk/v2_DepthDuration_HTML.html#256,256,1366,625,1366,768,8-30-2022,13-55-23,98,depth_duration_stimuli/002788_2014-06-22_19-36-03_094959634447_rgbf000088-resize_2/002788_2014-06-22_19-36-03_094959634447_rgbf000088-resize_2-target.png,125,1.6465,2,2301,144,feet,jsons/VE125_randls_34_rotated.json,957978,1397053,29,Man
98,420331,DepthScenes,duration_manipulation_targetAtFixation,jsons/VE125_randls_34_rotated.json,http://54.235.29.9/FacialAge/BNav_EC2/DepthDuration/v2_depth_duration_MTurk/v2_DepthDuration_HTML.html#256,256,1366,625,1366,768,8-30-2022,13-55-23,99,depth_duration_stimuli/001222_2014-06-17_16-24-06_260595134347_rgbf000073-resize_0/001222_2014-06-17_16-24-06_260595134347_rgbf000073-resize-original.jpg,125,1.4385,3,2268,145,feet,jsons/VE125_randls_34_rotated.json,957978,1397053,29,Man
99,420331,DepthScenes,duration_manipulation_targetAtFixation,jsons/VE125_randls_34_rotated.json,http://54.235.29.9/FacialAge/BNav_EC2/DepthDuration/v2_depth_duration_MTurk/v2_DepthDuration_HTML.html#256,256,1366,625,1366,768,8-30-2022,13-55-23,100,depth_duration_stimuli/000502_2014-06-08_23-02-32_260595134347_rgbf000063-resize_4/000502_2014-06-08_23-02-32_260595134347_rgbf000063-resize_4-target.png,125,2.431,1,2087,127,feet,jsons/VE125_randls_34_rotated.json,957978,1397053,29,Man
100,420331,DepthScenes,duration_manipulation_targetAtFixation,jsons/VE125_randls_34_rotated.json,http://54.235.29.9/FacialAge/BNav_EC2/DepthDuration/v2_depth_duration_MTurk/v2_DepthDuration_HTML.html#256,256,1366,625,1366,768,8-30-2022,13-55-23,101,depth_duration_stimuli/001199_2014-06-17_16-03-48_260595134347_rgbf000077-resize_0/001199_2014-06-17_16-03-48_260595134347_rgbf000077-resize_0-target.png,125,3.4375,2,10845,123,feet,jsons/VE125_randls_34_rotated.json,957978,1397053,29,Man
101,420331,DepthScenes,duration_manipulation_targetAtFixation,jsons/VE125_randls_34_rotated.json,http://54.235.29.9/FacialAge/BNav_EC2/DepthDuration/v2_depth_duration_MTurk/v2_DepthDuration_HTML.html#256,256,1366,625,1366,768,8-30-2022,13-55-23,102,depth_duration_stimuli/002545_2014-06-24_13-38-53_094959634447_rgbf000080-resize_4/002545_2014-06-24_13-38-53_094959634447_rgbf000080-resize_4-target.png,125,1.9205,5,3689,126,feet,jsons/VE125_randls_34_rotated.json,957978,1397053,29,Man
102,420331,DepthScenes,duration_manipulation_targetAtFixation,jsons/VE125_randls_34_rotated.json,http://54.235.29.9/FacialAge/BNav_EC2/DepthDuration/v2_depth_duration_MTurk/v2_DepthDuration_HTML.html#256,256,1366,625,1366,768,8-30-2022,13-55-23,103,depth_duration_stimuli/001092_2014-06-15_17-34-58_260595134347_rgbf000171-resize_3/001092_2014-06-15_17-34-58_260595134347_rgbf000171-resize_3-target.png,125,2.6935,2,3720,121,feet,jsons/VE125_randls_34_rotated.json,957978,1397053,29,Man
103,420331,DepthScenes,duration_manipulation_targetAtFixation,jsons/VE125_randls_34_rotated.json,http://54.235.29.9/FacialAge/BNav_EC2/DepthDuration/v2_depth_duration_MTurk/v2_DepthDuration_HTML.html#256,256,1366,625,1366,768,8-30-2022,13-55-23,104,depth_duration_stimuli/001815_2014-06-26_20-52-55_260595134347_rgbf000020-resize_0/001815_2014-06-26_20-52-55_260595134347_rgbf000020-resize_0-target.png,125,3.3865,3,5702,109,feet,jsons/VE125_randls_34_rotated.json,957978,1397053,29,Man
104,420331,DepthScenes,duration_manipulation_targetAtFixation,jsons/VE125_randls_34_rotated.json,http://54.235.29.9/FacialAge/BNav_EC2/DepthDuration/v2_depth_duration_MTurk/v2_DepthDuration_HTML.html#256,256,1366,625,1366,768,8-30-2022,13-55-23,105,depth_duration_stimuli/001808_2014-06-26_20-50-58_260595134347_rgbf000029-resize_1/001808_2014-06-26_20-50-58_260595134347_rgbf000029-resize_1-target.png,125,4.249,2,3109,150,feet,jsons/VE125_randls_34_rotated.json,957978,1397053,29,Man
105,420331,DepthScenes,duration_manipulation_targetAtFixation,jsons/VE125_randls_34_rotated.json,http://54.235.29.9/FacialAge/BNav_EC2/DepthDuration/v2_depth_duration_MTurk/v2_DepthDuration_HTML.html#256,256,1366,625,1366,768,8-30-2022,13-55-23,106,depth_duration_stimuli/002340_2014-06-28_20-05-46_260595134347_rgbf000113-resize_0/002340_2014-06-28_20-05-46_260595134347_rgbf000113-resize_0-target.png,125,2.4735,2,8695,126,feet,jsons/VE125_randls_34_rotated.json,957978,1397053,29,Man
106,420331,DepthScenes,duration_manipulation_targetAtFixation,jsons/VE125_randls_34_rotated.json,http://54.235.29.9/FacialAge/BNav_EC2/DepthDuration/v2_depth_duration_MTurk/v2_DepthDuration_HTML.html#256,256,1366,625,1366,768,8-30-2022,13-55-23,107,depth_duration_stimuli/001016_2014-06-09_16-16-10_260595134347_rgbf000112-resize_5/001016_2014-06-09_16-16-10_260595134347_rgbf000112-resize_5-target.png,125,1.6565,8,11125,131,feet,jsons/VE125_randls_34_rotated.json,957978,1397053,29,Man
107,420331,DepthScenes,duration_manipulation_targetAtFixation,jsons/VE125_randls_34_rotated.json,http://54.235.29.9/FacialAge/BNav_EC2/DepthDuration/v2_depth_duration_MTurk/v2_DepthDuration_HTML.html#256,256,1366,625,1366,768,8-30-2022,13-55-23,108,depth_duration_stimuli/002875_2014-06-01_15-19-00_094959634447_rgbf000151-resize_1/002875_2014-06-01_15-19-00_094959634447_rgbf000151-resize_1-target.png,125,1.9675,8,2425,123,feet,jsons/VE125_randls_34_rotated.json,957978,1397053,29,Man
108,420331,DepthScenes,duration_manipulation_targetAtFixation,jsons/VE125_randls_34_rotated.json,http://54.235.29.9/FacialAge/BNav_EC2/DepthDuration/v2_depth_duration_MTurk/v2_DepthDuration_HTML.html#256,256,1366,625,1366,768,8-30-2022,13-55-23,109,depth_duration_stimuli/001011_2014-06-08_23-18-54_260595134347_rgbf000044-resize_4/001011_2014-06-08_23-18-54_260595134347_rgbf000044-resize_4-target.png,125,2.4730000000000003,2,6280,122,feet,jsons/VE125_randls_34_rotated.json,957978,1397053,29,Man
109,420331,DepthScenes,duration_manipulation_targetAtFixation,jsons/VE125_randls_34_rotated.json,http://54.235.29.9/FacialAge/BNav_EC2/DepthDuration/v2_depth_duration_MTurk/v2_DepthDuration_HTML.html#256,256,1366,625,1366,768,8-30-2022,13-55-23,110,depth_duration_stimuli/002568_2014-06-24_13-59-21_094959634447_rgbf000062-resize_4/002568_2014-06-24_13-59-21_094959634447_rgbf000062-resize_4-target.png,125,3.015,0,142580,124,feet,jsons/VE125_randls_34_rotated.json,957978,1397053,29,Man
110,420331,DepthScenes,duration_manipulation_targetAtFixation,jsons/VE125_randls_34_rotated.json,http://54.235.29.9/FacialAge/BNav_EC2/DepthDuration/v2_depth_duration_MTurk/v2_DepthDuration_HTML.html#256,256,1366,625,1366,768,8-30-2022,13-55-23,111,depth_duration_stimuli/003492_2014-05-21_15-50-55_094959634447_rgbf000828-resize_1/003492_2014-05-21_15-50-55_094959634447_rgbf000828-resize_1-target.png,125,4.06875,6,8372,119,feet,jsons/VE125_randls_34_rotated.json,957978,1397053,29,Man
111,420331,DepthScenes,duration_manipulation_targetAtFixation,jsons/VE125_randls_34_rotated.json,http://54.235.29.9/FacialAge/BNav_EC2/DepthDuration/v2_depth_duration_MTurk/v2_DepthDuration_HTML.html#256,256,1366,625,1366,768,8-30-2022,13-55-23,112,depth_duration_stimuli/002323_2014-06-28_20-01-54_260595134347_rgbf000051-resize_4/002323_2014-06-28_20-01-54_260595134347_rgbf000051-resize_4-target.png,125,3.7310000000000003,0,58423,140,feet,jsons/VE125_randls_34_rotated.json,957978,1397053,29,Man
112,420331,DepthScenes,duration_manipulation_targetAtFixation,jsons/VE125_randls_34_rotated.json,http://54.235.29.9/FacialAge/BNav_EC2/DepthDuration/v2_depth_duration_MTurk/v2_DepthDuration_HTML.html#256,256,1366,625,1366,768,8-30-2022,13-55-23,113,depth_duration_stimuli/000917_2014-06-09_22-45-29_260595134347_rgbf000149-resize_3/000917_2014-06-09_22-45-29_260595134347_rgbf000149-resize_3-target.png,125,4.1865,2,10523,103,feet,jsons/VE125_randls_34_rotated.json,957978,1397053,29,Man
113,420331,DepthScenes,duration_manipulation_targetAtFixation,jsons/VE125_randls_34_rotated.json,http://54.235.29.9/FacialAge/BNav_EC2/DepthDuration/v2_depth_duration_MTurk/v2_DepthDuration_HTML.html#256,256,1366,625,1366,768,8-30-2022,13-55-23,114,depth_duration_stimuli/002467_2014-06-28_20-38-07_260595134347_rgbf000026-resize_2/002467_2014-06-28_20-38-07_260595134347_rgbf000026-resize_2-target.png,125,4.742,2,11385,130,feet,jsons/VE125_randls_34_rotated.json,957978,1397053,29,Man
114,420331,DepthScenes,duration_manipulation_targetAtFixation,jsons/VE125_randls_34_rotated.json,http://54.235.29.9/FacialAge/BNav_EC2/DepthDuration/v2_depth_duration_MTurk/v2_DepthDuration_HTML.html#256,256,1366,625,1366,768,8-30-2022,13-55-23,115,depth_duration_stimuli/002570_2014-06-24_13-59-54_094959634447_rgbf000059-resize_0/002570_2014-06-24_13-59-54_094959634447_rgbf000059-resize_0-target.png,125,4.037,0,10445,124,feet,jsons/VE125_randls_34_rotated.json,957978,1397053,29,Man
115,420331,DepthScenes,duration_manipulation_targetAtFixation,jsons/VE125_randls_34_rotated.json,http://54.235.29.9/FacialAge/BNav_EC2/DepthDuration/v2_depth_duration_MTurk/v2_DepthDuration_HTML.html#256,256,1366,625,1366,768,8-30-2022,13-55-23,116,depth_duration_stimuli/002639_2014-06-24_14-51-37_094959634447_rgbf000074-resize_4/002639_2014-06-24_14-51-37_094959634447_rgbf000074-resize_4-target.png,125,4.0375,0,12149,124,feet,jsons/VE125_randls_34_rotated.json,957978,1397053,29,Man
116,420331,DepthScenes,duration_manipulation_targetAtFixation,jsons/VE125_randls_34_rotated.json,http://54.235.29.9/FacialAge/BNav_EC2/DepthDuration/v2_depth_duration_MTurk/v2_DepthDuration_HTML.html#256,256,1366,625,1366,768,8-30-2022,13-55-23,117,depth_duration_stimuli/003292_2014-05-14_21-53-49_094959634447_rgbf000100-resize_2/003292_2014-05-14_21-53-49_094959634447_rgbf000100-resize_2-target.png,125,3.4815,0,3936,126,feet,jsons/VE125_randls_34_rotated.json,957978,1397053,29,Man
117,420331,DepthScenes,duration_manipulation_targetAtFixation,jsons/VE125_randls_34_rotated.json,http://54.235.29.9/FacialAge/BNav_EC2/DepthDuration/v2_depth_duration_MTurk/v2_DepthDuration_HTML.html#256,256,1366,625,1366,768,8-30-2022,13-55-23,118,depth_duration_stimuli/000943_2014-06-09_19-31-07_260595134347_rgbf000128-resize_1/000943_2014-06-09_19-31-07_260595134347_rgbf000128-resize_1-target.png,125,1.9765,3,3488,122,feet,jsons/VE125_randls_34_rotated.json,957978,1397053,29,Man
118,420331,DepthScenes,duration_manipulation_targetAtFixation,jsons/VE125_randls_34_rotated.json,http://54.235.29.9/FacialAge/BNav_EC2/DepthDuration/v2_depth_duration_MTurk/v2_DepthDuration_HTML.html#256,256,1366,625,1366,768,8-30-2022,13-55-23,119,depth_duration_stimuli/003070_2014-06-15_14-58-27_094959634447_rgbf000150-resize_3/003070_2014-06-15_14-58-27_094959634447_rgbf000150-resize_3-target.png,125,2.9415,5,3392,132,feet,jsons/VE125_randls_34_rotated.json,957978,1397053,29,Man
119,420331,DepthScenes,duration_manipulation_targetAtFixation,jsons/VE125_randls_34_rotated.json,http://54.235.29.9/FacialAge/BNav_EC2/DepthDuration/v2_depth_duration_MTurk/v2_DepthDuration_HTML.html#256,256,1366,625,1366,768,8-30-2022,13-55-23,120,depth_duration_stimuli/000787_2014-06-08_22-33-53_260595134347_rgbf000175-resize_1/000787_2014-06-08_22-33-53_260595134347_rgbf000175-resize-original.jpg,125,4.784,3,8577,126,feet,jsons/VE125_randls_34_rotated.json,957978,1397053,29,Man
120,420331,DepthScenes,duration_manipulation_targetAtFixation,jsons/VE125_randls_34_rotated.json,http://54.235.29.9/FacialAge/BNav_EC2/DepthDuration/v2_depth_duration_MTurk/v2_DepthDuration_HTML.html#256,256,1366,625,1366,768,8-30-2022,13-55-23,121,depth_duration_stimuli/000866_2014-06-09_20-45-42_260595134347_rgbf000139-resize_1/000866_2014-06-09_20-45-42_260595134347_rgbf000139-resize_1-target.png,125,3.2155,5,3613,114,feet,jsons/VE125_randls_34_rotated.json,957978,1397053,29,Man
121,420331,DepthScenes,duration_manipulation_targetAtFixation,jsons/VE125_randls_34_rotated.json,http://54.235.29.9/FacialAge/BNav_EC2/DepthDuration/v2_depth_duration_MTurk/v2_DepthDuration_HTML.html#256,256,1366,625,1366,768,8-30-2022,13-55-23,122,depth_duration_stimuli/002989_2014-06-15_12-25-03_094959634447_rgbf000150-resize_3/002989_2014-06-15_12-25-03_094959634447_rgbf000150-resize_3-target.png,125,4.1975,3,3209,126,feet,jsons/VE125_randls_34_rotated.json,957978,1397053,29,Man
122,420331,DepthScenes,duration_manipulation_targetAtFixation,jsons/VE125_randls_34_rotated.json,http://54.235.29.9/FacialAge/BNav_EC2/DepthDuration/v2_depth_duration_MTurk/v2_DepthDuration_HTML.html#256,256,1366,625,1366,768,8-30-2022,13-55-23,123,depth_duration_stimuli/001100_2014-06-15_17-46-26_260595134347_rgbf000225-resize_2/001100_2014-06-15_17-46-26_260595134347_rgbf000225-resize_2-target.png,125,2.24,6,2698,125,feet,jsons/VE125_randls_34_rotated.json,957978,1397053,29,Man
123,420331,DepthScenes,duration_manipulation_targetAtFixation,jsons/VE125_randls_34_rotated.json,http://54.235.29.9/FacialAge/BNav_EC2/DepthDuration/v2_depth_duration_MTurk/v2_DepthDuration_HTML.html#256,256,1366,625,1366,768,8-30-2022,13-55-23,124,depth_duration_stimuli/002784_2014-06-22_19-26-30_094959634447_rgbf000083-resize_3/002784_2014-06-22_19-26-30_094959634447_rgbf000083-resize_3-target.png,125,1.8046666666667,3,4562,130,feet,jsons/VE125_randls_34_rotated.json,957978,1397053,29,Man
124,420331,DepthScenes,duration_manipulation_targetAtFixation,jsons/VE125_randls_34_rotated.json,http://54.235.29.9/FacialAge/BNav_EC2/DepthDuration/v2_depth_duration_MTurk/v2_DepthDuration_HTML.html#256,256,1366,625,1366,768,8-30-2022,13-55-23,125,depth_duration_stimuli/000483_2014-06-09_20-41-45_260595134347_rgbf000116-resize_4/000483_2014-06-09_20-41-45_260595134347_rgbf000116-resize_4-target.png,125,1.337,0,3720,124,feet,jsons/VE125_randls_34_rotated.json,957978,1397053,29,Man
125,420331,DepthScenes,duration_manipulation_targetAtFixation,jsons/VE125_randls_34_rotated.json,http://54.235.29.9/FacialAge/BNav_EC2/DepthDuration/v2_depth_duration_MTurk/v2_DepthDuration_HTML.html#256,256,1366,625,1366,768,8-30-2022,13-55-23,126,depth_duration_stimuli/000469_2014-06-09_19-42-10_260595134347_rgbf000081-resize_1/000469_2014-06-09_19-42-10_260595134347_rgbf000081-resize_1-target.png,125,1.652,0,4154,125,feet,jsons/VE125_randls_34_rotated.json,957978,1397053,29,Man
126,420331,DepthScenes,duration_manipulation_targetAtFixation,jsons/VE125_randls_34_rotated.json,http://54.235.29.9/FacialAge/BNav_EC2/DepthDuration/v2_depth_duration_MTurk/v2_DepthDuration_HTML.html#256,256,1366,625,1366,768,8-30-2022,13-55-23,127,depth_duration_stimuli/000109_2014-05-14_23-41-52_260595134347_rgbf000035-resize_9/000109_2014-05-14_23-41-52_260595134347_rgbf000035-resize_9-target.png,125,1.3545,0,2818,125,feet,jsons/VE125_randls_34_rotated.json,957978,1397053,29,Man
127,420331,DepthScenes,duration_manipulation_targetAtFixation,jsons/VE125_randls_34_rotated.json,http://54.235.29.9/FacialAge/BNav_EC2/DepthDuration/v2_depth_duration_MTurk/v2_DepthDuration_HTML.html#256,256,1366,625,1366,768,8-30-2022,13-55-23,128,depth_duration_stimuli/000470_2014-06-09_19-42-40_260595134347_rgbf000094-resize_1/000470_2014-06-09_19-42-40_260595134347_rgbf000094-resize_1-target.png,125,1.831,0,2460,125,feet,jsons/VE125_randls_34_rotated.json,957978,1397053,29,Man
128,420331,DepthScenes,duration_manipulation_targetAtFixation,jsons/VE125_randls_34_rotated.json,http://54.235.29.9/FacialAge/BNav_EC2/DepthDuration/v2_depth_duration_MTurk/v2_DepthDuration_HTML.html#256,256,1366,625,1366,768,8-30-2022,13-55-23,129,depth_duration_stimuli/001132_2014-06-17_14-48-54_260595134347_rgbf000100-resize_2/001132_2014-06-17_14-48-54_260595134347_rgbf000100-resize_2-target.png,125,3.753,2,2889,117,feet,jsons/VE125_randls_34_rotated.json,957978,1397053,29,Man
129,420331,DepthScenes,duration_manipulation_targetAtFixation,jsons/VE125_randls_34_rotated.json,http://54.235.29.9/FacialAge/BNav_EC2/DepthDuration/v2_depth_duration_MTurk/v2_DepthDuration_HTML.html#256,256,1366,625,1366,768,8-30-2022,13-55-23,130,depth_duration_stimuli/001133_2014-06-17_14-49-16_260595134347_rgbf000100-resize_0/001133_2014-06-17_14-49-16_260595134347_rgbf000100-resize_0-target.png,125,4.2115,3,2628,126,feet,jsons/VE125_randls_34_rotated.json,957978,1397053,29,Man
130,420331,DepthScenes,duration_manipulation_targetAtFixation,jsons/VE125_randls_34_rotated.json,http://54.235.29.9/FacialAge/BNav_EC2/DepthDuration/v2_depth_duration_MTurk/v2_DepthDuration_HTML.html#256,256,1366,625,1366,768,8-30-2022,13-55-23,131,depth_duration_stimuli/001450_2014-06-19_17-02-03_260595134347_rgbf000203-resize_4/001450_2014-06-19_17-02-03_260595134347_rgbf000203-resize_4-target.png,125,4.0106666666667,1,2278,125,feet,jsons/VE125_randls_34_rotated.json,957978,1397053,29,Man
131,420331,DepthScenes,duration_manipulation_targetAtFixation,jsons/VE125_randls_34_rotated.json,http://54.235.29.9/FacialAge/BNav_EC2/DepthDuration/v2_depth_duration_MTurk/v2_DepthDuration_HTML.html#256,256,1366,625,1366,768,8-30-2022,13-55-23,132,depth_duration_stimuli/001449_2014-06-19_17-01-27_260595134347_rgbf000116-resize_2/001449_2014-06-19_17-01-27_260595134347_rgbf000116-resize_2-target.png,125,3.452,0,2486,125,feet,jsons/VE125_randls_34_rotated.json,957978,1397053,29,Man
132,420331,DepthScenes,duration_manipulation_targetAtFixation,jsons/VE125_randls_34_rotated.json,http://54.235.29.9/FacialAge/BNav_EC2/DepthDuration/v2_depth_duration_MTurk/v2_DepthDuration_HTML.html#256,256,1366,625,1366,768,8-30-2022,13-55-23,133,depth_duration_stimuli/003129_2014-05-12_10-48-10_094959634447_rgbf000100-resize_0/003129_2014-05-12_10-48-10_094959634447_rgbf000100-resize_0-target.png,125,4.9305,6,2326,126,feet,jsons/VE125_randls_34_rotated.json,957978,1397053,29,Man
133,420331,DepthScenes,duration_manipulation_targetAtFixation,jsons/VE125_randls_34_rotated.json,http://54.235.29.9/FacialAge/BNav_EC2/DepthDuration/v2_depth_duration_MTurk/v2_DepthDuration_HTML.html#256,256,1366,625,1366,768,8-30-2022,13-55-23,134,depth_duration_stimuli/000414_2014-06-04_19-49-13_260595134347_rgbf000044-resize_0/000414_2014-06-04_19-49-13_260595134347_rgbf000044-resize_0-target.png,125,4.329,0,2757,120,feet,jsons/VE125_randls_34_rotated.json,957978,1397053,29,Man
134,420331,DepthScenes,duration_manipulation_targetAtFixation,jsons/VE125_randls_34_rotated.json,http://54.235.29.9/FacialAge/BNav_EC2/DepthDuration/v2_depth_duration_MTurk/v2_DepthDuration_HTML.html#256,256,1366,625,1366,768,8-30-2022,13-55-23,135,depth_duration_stimuli/000375_2014-06-08_11-17-29_260595134347_rgbf000133-resize_2/000375_2014-06-08_11-17-29_260595134347_rgbf000133-resize-original.jpg,125,4.718,3,2102,126,feet,jsons/VE125_randls_34_rotated.json,957978,1397053,29,Man
135,420331,DepthScenes,duration_manipulation_targetAtFixation,jsons/VE125_randls_34_rotated.json,http://54.235.29.9/FacialAge/BNav_EC2/DepthDuration/v2_depth_duration_MTurk/v2_DepthDuration_HTML.html#256,256,1366,625,1366,768,8-30-2022,13-55-23,136,depth_duration_stimuli/003587_2014-05-23_16-48-02_094959634447_rgbf002384-resize_2/003587_2014-05-23_16-48-02_094959634447_rgbf002384-resize_2-target.png,125,1.357,6,2396,123,feet,jsons/VE125_randls_34_rotated.json,957978,1397053,29,Man
136,420331,DepthScenes,duration_manipulation_targetAtFixation,jsons/VE125_randls_34_rotated.json,http://54.235.29.9/FacialAge/BNav_EC2/DepthDuration/v2_depth_duration_MTurk/v2_DepthDuration_HTML.html#256,256,1366,625,1366,768,8-30-2022,13-55-23,137,depth_duration_stimuli/001167_2014-06-17_15-38-07_260595134347_rgbf000108-resize_0/001167_2014-06-17_15-38-07_260595134347_rgbf000108-resize_0-target.png,125,1.8505,9,2755,132,feet,jsons/VE125_randls_34_rotated.json,957978,1397053,29,Man
137,420331,DepthScenes,duration_manipulation_targetAtFixation,jsons/VE125_randls_34_rotated.json,http://54.235.29.9/FacialAge/BNav_EC2/DepthDuration/v2_depth_duration_MTurk/v2_DepthDuration_HTML.html#256,256,1366,625,1366,768,8-30-2022,13-55-23,138,depth_duration_stimuli/000709_2014-06-08_13-51-55_260595134347_rgbf000068-resize_3/000709_2014-06-08_13-51-55_260595134347_rgbf000068-resize_3-target.png,125,1.8030000000000002,3,3011,123,feet,jsons/VE125_randls_34_rotated.json,957978,1397053,29,Man
138,420331,DepthScenes,duration_manipulation_targetAtFixation,jsons/VE125_randls_34_rotated.json,http://54.235.29.9/FacialAge/BNav_EC2/DepthDuration/v2_depth_duration_MTurk/v2_DepthDuration_HTML.html#256,256,1366,625,1366,768,8-30-2022,13-55-23,139,depth_duration_stimuli/002057_2014-06-24_21-00-13_260595134347_rgbf000120-resize_1/002057_2014-06-24_21-00-13_260595134347_rgbf000120-resize_1-target.png,125,2.967,6,2693,116,feet,jsons/VE125_randls_34_rotated.json,957978,1397053,29,Man
139,420331,DepthScenes,duration_manipulation_targetAtFixation,jsons/VE125_randls_34_rotated.json,http://54.235.29.9/FacialAge/BNav_EC2/DepthDuration/v2_depth_duration_MTurk/v2_DepthDuration_HTML.html#256,256,1366,625,1366,768,8-30-2022,13-55-23,140,depth_duration_stimuli/002657_2014-06-13_15-29-54_094959634447_rgbf000150-resize_1/002657_2014-06-13_15-29-54_094959634447_rgbf000150-resize_1-target.png,125,4.919,3,2237,174,feet,jsons/VE125_randls_34_rotated.json,957978,1397053,29,Man
140,420331,DepthScenes,duration_manipulation_targetAtFixation,jsons/VE125_randls_34_rotated.json,http://54.235.29.9/FacialAge/BNav_EC2/DepthDuration/v2_depth_duration_MTurk/v2_DepthDuration_HTML.html#256,256,1366,625,1366,768,8-30-2022,13-55-23,141,depth_duration_stimuli/002375_2014-06-28_20-13-44_260595134347_rgbf000032-resize_1/002375_2014-06-28_20-13-44_260595134347_rgbf000032-resize_1-target.png,125,4.0175,6,2146,126,feet,jsons/VE125_randls_34_rotated.json,957978,1397053,29,Man
141,420331,DepthScenes,duration_manipulation_targetAtFixation,jsons/VE125_randls_34_rotated.json,http://54.235.29.9/FacialAge/BNav_EC2/DepthDuration/v2_depth_duration_MTurk/v2_DepthDuration_HTML.html#256,256,1366,625,1366,768,8-30-2022,13-55-23,142,depth_duration_stimuli/002414_2014-06-28_20-24-58_260595134347_rgbf000067-resize_4/002414_2014-06-28_20-24-58_260595134347_rgbf000067-resize_4-target.png,125,4.363,3,2450,129,feet,jsons/VE125_randls_34_rotated.json,957978,1397053,29,Man
142,420331,DepthScenes,duration_manipulation_targetAtFixation,jsons/VE125_randls_34_rotated.json,http://54.235.29.9/FacialAge/BNav_EC2/DepthDuration/v2_depth_duration_MTurk/v2_DepthDuration_HTML.html#256,256,1366,625,1366,768,8-30-2022,13-55-23,143,depth_duration_stimuli/000773_2014-06-08_22-24-54_260595134347_rgbf000093-resize_1/000773_2014-06-08_22-24-54_260595134347_rgbf000093-resize_1-target.png,125,4.973,6,2024,132,feet,jsons/VE125_randls_34_rotated.json,957978,1397053,29,Man
143,420331,DepthScenes,duration_manipulation_targetAtFixation,jsons/VE125_randls_34_rotated.json,http://54.235.29.9/FacialAge/BNav_EC2/DepthDuration/v2_depth_duration_MTurk/v2_DepthDuration_HTML.html#256,256,1366,625,1366,768,8-30-2022,13-55-23,144,depth_duration_stimuli/001516_2014-06-20_16-25-09_260595134347_rgbf000076-resize_2/001516_2014-06-20_16-25-09_260595134347_rgbf000076-resize_2-target.png,125,1.7445,2,2153,139,feet,jsons/VE125_randls_34_rotated.json,957978,1397053,29,Man
144,420331,DepthScenes,duration_manipulation_targetAtFixation,jsons/VE125_randls_34_rotated.json,http://54.235.29.9/FacialAge/BNav_EC2/DepthDuration/v2_depth_duration_MTurk/v2_DepthDuration_HTML.html#256,256,1366,625,1366,768,8-30-2022,13-55-23,145,depth_duration_stimuli/002118_2014-06-25_20-32-08_260595134347_rgbf000078-resize_1/002118_2014-06-25_20-32-08_260595134347_rgbf000078-resize_1-target.png,125,2.6460000000000004,1,1959,119,feet,jsons/VE125_randls_34_rotated.json,957978,1397053,29,Man
145,420331,DepthScenes,duration_manipulation_targetAtFixation,jsons/VE125_randls_34_rotated.json,http://54.235.29.9/FacialAge/BNav_EC2/DepthDuration/v2_depth_duration_MTurk/v2_DepthDuration_HTML.html#256,256,1366,625,1366,768,8-30-2022,13-55-23,146,depth_duration_stimuli/000556_2014-06-09_22-42-56_260595134347_rgbf000214-resize_1/000556_2014-06-09_22-42-56_260595134347_rgbf000214-resize_1-target.png,125,4.8415,0,2087,118,feet,jsons/VE125_randls_34_rotated.json,957978,1397053,29,Man
146,420331,DepthScenes,duration_manipulation_targetAtFixation,jsons/VE125_randls_34_rotated.json,http://54.235.29.9/FacialAge/BNav_EC2/DepthDuration/v2_depth_duration_MTurk/v2_DepthDuration_HTML.html#256,256,1366,625,1366,768,8-30-2022,13-55-23,147,depth_duration_stimuli/001158_2014-06-17_15-32-16_260595134347_rgbf000138-resize_2/001158_2014-06-17_15-32-16_260595134347_rgbf000138-resize_2-target.png,125,4.5315,2,2125,161,feet,jsons/VE125_randls_34_rotated.json,957978,1397053,29,Man
147,420331,DepthScenes,duration_manipulation_targetAtFixation,jsons/VE125_randls_34_rotated.json,http://54.235.29.9/FacialAge/BNav_EC2/DepthDuration/v2_depth_duration_MTurk/v2_DepthDuration_HTML.html#256,256,1366,625,1366,768,8-30-2022,13-55-23,148,depth_duration_stimuli/001392_2014-06-19_16-07-59_260595134347_rgbf000046-resize_1/001392_2014-06-19_16-07-59_260595134347_rgbf000046-resize_1-target.png,125,4.135,6,2203,128,feet,jsons/VE125_randls_34_rotated.json,957978,1397053,29,Man
148,420331,DepthScenes,duration_manipulation_targetAtFixation,jsons/VE125_randls_34_rotated.json,http://54.235.29.9/FacialAge/BNav_EC2/DepthDuration/v2_depth_duration_MTurk/v2_DepthDuration_HTML.html#256,256,1366,625,1366,768,8-30-2022,13-55-23,149,depth_duration_stimuli/001570_2014-06-20_17-21-09_260595134347_rgbf000135-resize_4/001570_2014-06-20_17-21-09_260595134347_rgbf000135-resize_4-target.png,125,4.467,3,2064,124,feet,jsons/VE125_randls_34_rotated.json,957978,1397053,29,Man
149,420331,DepthScenes,duration_manipulation_targetAtFixation,jsons/VE125_randls_34_rotated.json,http://54.235.29.9/FacialAge/BNav_EC2/DepthDuration/v2_depth_duration_MTurk/v2_DepthDuration_HTML.html#256,256,1366,625,1366,768,8-30-2022,13-55-23,150,depth_duration_stimuli/002949_2014-06-26_15-57-42_094959634447_rgbf000079-resize_1/002949_2014-06-26_15-57-42_094959634447_rgbf000079-resize_1-target.png,125,1.8915,6,2498,151,feet,jsons/VE125_randls_34_rotated.json,957978,1397053,29,Man
150,420331,DepthScenes,duration_manipulation_targetAtFixation,jsons/VE125_randls_34_rotated.json,http://54.235.29.9/FacialAge/BNav_EC2/DepthDuration/v2_depth_duration_MTurk/v2_DepthDuration_HTML.html#256,256,1366,625,1366,768,8-30-2022,13-55-23,151,depth_duration_stimuli/000522_2014-06-08_13-35-06_260595134347_rgbf000244-resize_1/000522_2014-06-08_13-35-06_260595134347_rgbf000244-resize_1-target.png,125,2.3715,2,1802,133,feet,jsons/VE125_randls_34_rotated.json,957978,1397053,29,Man
151,420331,DepthScenes,duration_manipulation_targetAtFixation,jsons/VE125_randls_34_rotated.json,http://54.235.29.9/FacialAge/BNav_EC2/DepthDuration/v2_depth_duration_MTurk/v2_DepthDuration_HTML.html#256,256,1366,625,1366,768,8-30-2022,13-55-23,152,depth_duration_stimuli/000569_2014-06-09_22-51-47_260595134347_rgbf000141-resize_3/000569_2014-06-09_22-51-47_260595134347_rgbf000141-resize-original.jpg,125,4.512,3,1843,126,feet,jsons/VE125_randls_34_rotated.json,957978,1397053,29,Man
152,420331,DepthScenes,duration_manipulation_targetAtFixation,jsons/VE125_randls_34_rotated.json,http://54.235.29.9/FacialAge/BNav_EC2/DepthDuration/v2_depth_duration_MTurk/v2_DepthDuration_HTML.html#256,256,1366,625,1366,768,8-30-2022,13-55-23,153,depth_duration_stimuli/003083_2014-06-15_15-21-03_094959634447_rgbf000063-resize_1/003083_2014-06-15_15-21-03_094959634447_rgbf000063-resize_1-target.png,125,4.1405,3,2132,119,feet,jsons/VE125_randls_34_rotated.json,957978,1397053,29,Man
153,420331,DepthScenes,duration_manipulation_targetAtFixation,jsons/VE125_randls_34_rotated.json,http://54.235.29.9/FacialAge/BNav_EC2/DepthDuration/v2_depth_duration_MTurk/v2_DepthDuration_HTML.html#256,256,1366,625,1366,768,8-30-2022,13-55-23,154,depth_duration_stimuli/000486_2014-06-09_20-47-20_260595134347_rgbf000143-resize_2/000486_2014-06-09_20-47-20_260595134347_rgbf000143-resize_2-target.png,125,4.8325,3,1961,123,feet,jsons/VE125_randls_34_rotated.json,957978,1397053,29,Man
154,420331,DepthScenes,duration_manipulation_targetAtFixation,jsons/VE125_randls_34_rotated.json,http://54.235.29.9/FacialAge/BNav_EC2/DepthDuration/v2_depth_duration_MTurk/v2_DepthDuration_HTML.html#256,256,1366,625,1366,768,8-30-2022,13-55-23,155,depth_duration_stimuli/000409_2014-06-04_19-23-33_260595134347_rgbf000067-resize_0/000409_2014-06-04_19-23-33_260595134347_rgbf000067-resize_0-target.png,125,3.7335,3,2299,134,feet,jsons/VE125_randls_34_rotated.json,957978,1397053,29,Man
155,420331,DepthScenes,duration_manipulation_targetAtFixation,jsons/VE125_randls_34_rotated.json,http://54.235.29.9/FacialAge/BNav_EC2/DepthDuration/v2_depth_duration_MTurk/v2_DepthDuration_HTML.html#256,256,1366,625,1366,768,8-30-2022,13-55-23,156,depth_duration_stimuli/002663_2014-06-13_15-50-26_094959634447_rgbf000075-resize_1/002663_2014-06-13_15-50-26_094959634447_rgbf000075-resize_1-target.png,125,4.7495,1,2105,128,feet,jsons/VE125_randls_34_rotated.json,957978,1397053,29,Man
156,420331,DepthScenes,duration_manipulation_targetAtFixation,jsons/VE125_randls_34_rotated.json,http://54.235.29.9/FacialAge/BNav_EC2/DepthDuration/v2_depth_duration_MTurk/v2_DepthDuration_HTML.html#256,256,1366,625,1366,768,8-30-2022,13-55-23,157,depth_duration_stimuli/000691_2014-06-08_13-08-50_260595134347_rgbf000132-resize_3/000691_2014-06-08_13-08-50_260595134347_rgbf000132-resize_3-target.png,125,4.1530000000000005,2,2289,127,feet,jsons/VE125_randls_34_rotated.json,957978,1397053,29,Man
157,420331,DepthScenes,duration_manipulation_targetAtFixation,jsons/VE125_randls_34_rotated.json,http://54.235.29.9/FacialAge/BNav_EC2/DepthDuration/v2_depth_duration_MTurk/v2_DepthDuration_HTML.html#256,256,1366,625,1366,768,8-30-2022,13-55-23,158,depth_duration_stimuli/002213_2014-06-28_18-37-58_260595134347_rgbf000055-resize_1/002213_2014-06-28_18-37-58_260595134347_rgbf000055-resize_1-target.png,125,3.62,3,2213,127,feet,jsons/VE125_randls_34_rotated.json,957978,1397053,29,Man
158,420331,DepthScenes,duration_manipulation_targetAtFixation,jsons/VE125_randls_34_rotated.json,http://54.235.29.9/FacialAge/BNav_EC2/DepthDuration/v2_depth_duration_MTurk/v2_DepthDuration_HTML.html#256,256,1366,625,1366,768,8-30-2022,13-55-23,159,depth_duration_stimuli/000191_2014-05-12_17-07-38_260595134347_rgbf000199-resize_0/000191_2014-05-12_17-07-38_260595134347_rgbf000199-resize_0-target.png,125,3.7995,3,4747,119,feet,jsons/VE125_randls_34_rotated.json,957978,1397053,29,Man
159,420331,DepthScenes,duration_manipulation_targetAtFixation,jsons/VE125_randls_34_rotated.json,http://54.235.29.9/FacialAge/BNav_EC2/DepthDuration/v2_depth_duration_MTurk/v2_DepthDuration_HTML.html#256,256,1366,625,1366,768,8-30-2022,13-55-23,160,depth_duration_stimuli/000493_2014-06-09_21-01-18_260595134347_rgbf000196-resize_3/000493_2014-06-09_21-01-18_260595134347_rgbf000196-resize_3-target.png,125,3.44,6,2682,129,feet,jsons/VE125_randls_34_rotated.json,957978,1397053,29,Man
160,420331,DepthScenes,duration_manipulation_targetAtFixation,jsons/VE125_randls_34_rotated.json,http://54.235.29.9/FacialAge/BNav_EC2/DepthDuration/v2_depth_duration_MTurk/v2_DepthDuration_HTML.html#256,256,1366,625,1366,768,8-30-2022,13-55-23,161,depth_duration_stimuli/001235_2014-06-17_16-37-36_260595134347_rgbf000084-resize_4/001235_2014-06-17_16-37-36_260595134347_rgbf000084-resize_4-target.png,125,3.6605,6,2394,133,feet,jsons/VE125_randls_34_rotated.json,957978,1397053,29,Man
161,420331,DepthScenes,duration_manipulation_targetAtFixation,jsons/VE125_randls_34_rotated.json,http://54.235.29.9/FacialAge/BNav_EC2/DepthDuration/v2_depth_duration_MTurk/v2_DepthDuration_HTML.html#256,256,1366,625,1366,768,8-30-2022,13-55-23,162,depth_duration_stimuli/000788_2014-06-08_22-34-36_260595134347_rgbf000131-resize_1/000788_2014-06-08_22-34-36_260595134347_rgbf000131-resize_1-target.png,125,3.359,3,2083,126,feet,jsons/VE125_randls_34_rotated.json,957978,1397053,29,Man
162,420331,DepthScenes,duration_manipulation_targetAtFixation,jsons/VE125_randls_34_rotated.json,http://54.235.29.9/FacialAge/BNav_EC2/DepthDuration/v2_depth_duration_MTurk/v2_DepthDuration_HTML.html#256,256,1366,625,1366,768,8-30-2022,13-55-23,163,depth_duration_stimuli/000734_2014-06-08_17-39-11_260595134347_rgbf000128-resize_2/000734_2014-06-08_17-39-11_260595134347_rgbf000128-resize_2-target.png,125,4.098,3,2207,121,feet,jsons/VE125_randls_34_rotated.json,957978,1397053,29,Man
163,420331,DepthScenes,duration_manipulation_targetAtFixation,jsons/VE125_randls_34_rotated.json,http://54.235.29.9/FacialAge/BNav_EC2/DepthDuration/v2_depth_duration_MTurk/v2_DepthDuration_HTML.html#256,256,1366,625,1366,768,8-30-2022,13-55-23,164,depth_duration_stimuli/000739_2014-06-08_18-45-58_260595134347_rgbf000068-resize_1/000739_2014-06-08_18-45-58_260595134347_rgbf000068-resize_1-target.png,125,3.534,3,2978,125,feet,jsons/VE125_randls_34_rotated.json,957978,1397053,29,Man
