,subjID,experimentName,versionName,sequenceName,url,selected_row,windowWidth,windowHeight,screenWidth,screenHeight,startDate,startTime,trial,stimulus,duration,actual_depth,depth_estimate,trial_RT,log_sceneDuration,unitSelection,seq_filepath,experimentTime,totalTime,age,gender
0,420492,DepthScenes,duration_manipulation_targetAtFixation,jsons/v1_VE250_randls_8.json,http://54.235.29.9/FacialAge/BNav_EC2/DepthDuration/v2_depth_duration_MTurk/v2_DepthDuration_HTML.html#65,65,1366,625,1366,768,8-29-2022,10-3-28,1,depth_duration_stimuli/000788_2014-06-08_22-34-36_260595134347_rgbf000131-resize_1/000788_2014-06-08_22-34-36_260595134347_rgbf000131-resize_1-target.png,250,3.359,2,3122,250,feet,jsons/v1_VE250_randls_8.json,557659,1000510,21,Woman
1,420492,DepthScenes,duration_manipulation_targetAtFixation,jsons/v1_VE250_randls_8.json,http://54.235.29.9/FacialAge/BNav_EC2/DepthDuration/v2_depth_duration_MTurk/v2_DepthDuration_HTML.html#65,65,1366,625,1366,768,8-29-2022,10-3-28,2,depth_duration_stimuli/001235_2014-06-17_16-37-36_260595134347_rgbf000084-resize_4/001235_2014-06-17_16-37-36_260595134347_rgbf000084-resize_4-target.png,250,3.6605,2,3664,250,feet,jsons/v1_VE250_randls_8.json,557659,1000510,21,Woman
2,420492,DepthScenes,duration_manipulation_targetAtFixation,jsons/v1_VE250_randls_8.json,http://54.235.29.9/FacialAge/BNav_EC2/DepthDuration/v2_depth_duration_MTurk/v2_DepthDuration_HTML.html#65,65,1366,625,1366,768,8-29-2022,10-3-28,3,depth_duration_stimuli/001175_2014-06-17_15-45-55_260595134347_rgbf000129-resize_4/001175_2014-06-17_15-45-55_260595134347_rgbf000129-resize_4-target.png,250,4.255,6,3354,249,feet,jsons/v1_VE250_randls_8.json,557659,1000510,21,Woman
3,420492,DepthScenes,duration_manipulation_targetAtFixation,jsons/v1_VE250_randls_8.json,http://54.235.29.9/FacialAge/BNav_EC2/DepthDuration/v2_depth_duration_MTurk/v2_DepthDuration_HTML.html#65,65,1366,625,1366,768,8-29-2022,10-3-28,4,depth_duration_stimuli/003490_2014-05-21_15-50-11_094959634447_rgbf000101-resize_3/003490_2014-05-21_15-50-11_094959634447_rgbf000101-resize_3-target.png,250,3.6445,5,2401,249,feet,jsons/v1_VE250_randls_8.json,557659,1000510,21,Woman
4,420492,DepthScenes,duration_manipulation_targetAtFixation,jsons/v1_VE250_randls_8.json,http://54.235.29.9/FacialAge/BNav_EC2/DepthDuration/v2_depth_duration_MTurk/v2_DepthDuration_HTML.html#65,65,1366,625,1366,768,8-29-2022,10-3-28,5,depth_duration_stimuli/000810_2014-06-08_17-20-01_260595134347_rgbf000105-resize_0/000810_2014-06-08_17-20-01_260595134347_rgbf000105-resize_0-target.png,250,1.4865,3,2403,249,feet,jsons/v1_VE250_randls_8.json,557659,1000510,21,Woman
5,420492,DepthScenes,duration_manipulation_targetAtFixation,jsons/v1_VE250_randls_8.json,http://54.235.29.9/FacialAge/BNav_EC2/DepthDuration/v2_depth_duration_MTurk/v2_DepthDuration_HTML.html#65,65,1366,625,1366,768,8-29-2022,10-3-28,6,depth_duration_stimuli/001214_2014-06-17_16-13-55_260595134347_rgbf000111-resize_0/001214_2014-06-17_16-13-55_260595134347_rgbf000111-resize_0-target.png,250,2.6505,2,2459,249,feet,jsons/v1_VE250_randls_8.json,557659,1000510,21,Woman
6,420492,DepthScenes,duration_manipulation_targetAtFixation,jsons/v1_VE250_randls_8.json,http://54.235.29.9/FacialAge/BNav_EC2/DepthDuration/v2_depth_duration_MTurk/v2_DepthDuration_HTML.html#65,65,1366,625,1366,768,8-29-2022,10-3-28,7,depth_duration_stimuli/003070_2014-06-15_14-58-27_094959634447_rgbf000150-resize_3/003070_2014-06-15_14-58-27_094959634447_rgbf000150-resize_3-target.png,250,2.9415,3,3018,249,feet,jsons/v1_VE250_randls_8.json,557659,1000510,21,Woman
7,420492,DepthScenes,duration_manipulation_targetAtFixation,jsons/v1_VE250_randls_8.json,http://54.235.29.9/FacialAge/BNav_EC2/DepthDuration/v2_depth_duration_MTurk/v2_DepthDuration_HTML.html#65,65,1366,625,1366,768,8-29-2022,10-3-28,8,depth_duration_stimuli/000943_2014-06-09_19-31-07_260595134347_rgbf000128-resize_1/000943_2014-06-09_19-31-07_260595134347_rgbf000128-resize_1-target.png,250,1.9765,5,2577,249,feet,jsons/v1_VE250_randls_8.json,557659,1000510,21,Woman
8,420492,DepthScenes,duration_manipulation_targetAtFixation,jsons/v1_VE250_randls_8.json,http://54.235.29.9/FacialAge/BNav_EC2/DepthDuration/v2_depth_duration_MTurk/v2_DepthDuration_HTML.html#65,65,1366,625,1366,768,8-29-2022,10-3-28,9,depth_duration_stimuli/000469_2014-06-09_19-42-10_260595134347_rgbf000081-resize_1/000469_2014-06-09_19-42-10_260595134347_rgbf000081-resize_1-target.png,250,1.652,3,1914,249,feet,jsons/v1_VE250_randls_8.json,557659,1000510,21,Woman
9,420492,DepthScenes,duration_manipulation_targetAtFixation,jsons/v1_VE250_randls_8.json,http://54.235.29.9/FacialAge/BNav_EC2/DepthDuration/v2_depth_duration_MTurk/v2_DepthDuration_HTML.html#65,65,1366,625,1366,768,8-29-2022,10-3-28,10,depth_duration_stimuli/000483_2014-06-09_20-41-45_260595134347_rgbf000116-resize_4/000483_2014-06-09_20-41-45_260595134347_rgbf000116-resize_4-target.png,250,1.337,3,2748,249,feet,jsons/v1_VE250_randls_8.json,557659,1000510,21,Woman
10,420492,DepthScenes,duration_manipulation_targetAtFixation,jsons/v1_VE250_randls_8.json,http://54.235.29.9/FacialAge/BNav_EC2/DepthDuration/v2_depth_duration_MTurk/v2_DepthDuration_HTML.html#65,65,1366,625,1366,768,8-29-2022,10-3-28,11,depth_duration_stimuli/001810_2014-06-26_20-51-35_260595134347_rgbf000040-resize_3/001810_2014-06-26_20-51-35_260595134347_rgbf000040-resize_3-target.png,250,2.2525,4,2545,249,feet,jsons/v1_VE250_randls_8.json,557659,1000510,21,Woman
11,420492,DepthScenes,duration_manipulation_targetAtFixation,jsons/v1_VE250_randls_8.json,http://54.235.29.9/FacialAge/BNav_EC2/DepthDuration/v2_depth_duration_MTurk/v2_DepthDuration_HTML.html#65,65,1366,625,1366,768,8-29-2022,10-3-28,12,depth_duration_stimuli/003010_2014-06-15_12-54-35_094959634447_rgbf000112-resize_0/003010_2014-06-15_12-54-35_094959634447_rgbf000112-resize_0-target.png,250,3.1185,9,2704,249,feet,jsons/v1_VE250_randls_8.json,557659,1000510,21,Woman
12,420492,DepthScenes,duration_manipulation_targetAtFixation,jsons/v1_VE250_randls_8.json,http://54.235.29.9/FacialAge/BNav_EC2/DepthDuration/v2_depth_duration_MTurk/v2_DepthDuration_HTML.html#65,65,1366,625,1366,768,8-29-2022,10-3-28,13,depth_duration_stimuli/000569_2014-06-09_22-51-47_260595134347_rgbf000141-resize_3/000569_2014-06-09_22-51-47_260595134347_rgbf000141-resize-original.jpg,250,4.512,0,4466,249,feet,jsons/v1_VE250_randls_8.json,557659,1000510,21,Woman
13,420492,DepthScenes,duration_manipulation_targetAtFixation,jsons/v1_VE250_randls_8.json,http://54.235.29.9/FacialAge/BNav_EC2/DepthDuration/v2_depth_duration_MTurk/v2_DepthDuration_HTML.html#65,65,1366,625,1366,768,8-29-2022,10-3-28,14,depth_duration_stimuli/000682_2014-06-08_23-14-58_260595134347_rgbf000041-resize_5/000682_2014-06-08_23-14-58_260595134347_rgbf000041-resize_5-target.png,250,2.7239999999999998,4,3523,250,feet,jsons/v1_VE250_randls_8.json,557659,1000510,21,Woman
14,420492,DepthScenes,duration_manipulation_targetAtFixation,jsons/v1_VE250_randls_8.json,http://54.235.29.9/FacialAge/BNav_EC2/DepthDuration/v2_depth_duration_MTurk/v2_DepthDuration_HTML.html#65,65,1366,625,1366,768,8-29-2022,10-3-28,15,depth_duration_stimuli/001650_2014-06-20_12-09-00_260595134347_rgbf000087-resize_3/001650_2014-06-20_12-09-00_260595134347_rgbf000087-resize_3-target.png,250,1.9505,1,2538,250,feet,jsons/v1_VE250_randls_8.json,557659,1000510,21,Woman
15,420492,DepthScenes,duration_manipulation_targetAtFixation,jsons/v1_VE250_randls_8.json,http://54.235.29.9/FacialAge/BNav_EC2/DepthDuration/v2_depth_duration_MTurk/v2_DepthDuration_HTML.html#65,65,1366,625,1366,768,8-29-2022,10-3-28,16,depth_duration_stimuli/002630_2014-06-24_14-47-50_094959634447_rgbf000055-resize_1/002630_2014-06-24_14-47-50_094959634447_rgbf000055-resize_1-target.png,250,3.0095,5,2466,249,feet,jsons/v1_VE250_randls_8.json,557659,1000510,21,Woman
16,420492,DepthScenes,duration_manipulation_targetAtFixation,jsons/v1_VE250_randls_8.json,http://54.235.29.9/FacialAge/BNav_EC2/DepthDuration/v2_depth_duration_MTurk/v2_DepthDuration_HTML.html#65,65,1366,625,1366,768,8-29-2022,10-3-28,17,depth_duration_stimuli/002758_2014-06-22_19-11-20_094959634447_rgbf000128-resize_1/002758_2014-06-22_19-11-20_094959634447_rgbf000128-resize_1-target.png,250,2.555,3,3859,248,feet,jsons/v1_VE250_randls_8.json,557659,1000510,21,Woman
17,420492,DepthScenes,duration_manipulation_targetAtFixation,jsons/v1_VE250_randls_8.json,http://54.235.29.9/FacialAge/BNav_EC2/DepthDuration/v2_depth_duration_MTurk/v2_DepthDuration_HTML.html#65,65,1366,625,1366,768,8-29-2022,10-3-28,18,depth_duration_stimuli/001133_2014-06-17_14-49-16_260595134347_rgbf000100-resize_0/001133_2014-06-17_14-49-16_260595134347_rgbf000100-resize_0-target.png,250,4.2115,3,2481,248,feet,jsons/v1_VE250_randls_8.json,557659,1000510,21,Woman
18,420492,DepthScenes,duration_manipulation_targetAtFixation,jsons/v1_VE250_randls_8.json,http://54.235.29.9/FacialAge/BNav_EC2/DepthDuration/v2_depth_duration_MTurk/v2_DepthDuration_HTML.html#65,65,1366,625,1366,768,8-29-2022,10-3-28,19,depth_duration_stimuli/001132_2014-06-17_14-48-54_260595134347_rgbf000100-resize_2/001132_2014-06-17_14-48-54_260595134347_rgbf000100-resize_2-target.png,250,3.753,5,2406,249,feet,jsons/v1_VE250_randls_8.json,557659,1000510,21,Woman
19,420492,DepthScenes,duration_manipulation_targetAtFixation,jsons/v1_VE250_randls_8.json,http://54.235.29.9/FacialAge/BNav_EC2/DepthDuration/v2_depth_duration_MTurk/v2_DepthDuration_HTML.html#65,65,1366,625,1366,768,8-29-2022,10-3-28,20,depth_duration_stimuli/001059_2014-06-08_21-53-27_260595134347_rgbf000061-resize_4/001059_2014-06-08_21-53-27_260595134347_rgbf000061-resize_4-target.png,250,2.4185,3,2344,250,feet,jsons/v1_VE250_randls_8.json,557659,1000510,21,Woman
20,420492,DepthScenes,duration_manipulation_targetAtFixation,jsons/v1_VE250_randls_8.json,http://54.235.29.9/FacialAge/BNav_EC2/DepthDuration/v2_depth_duration_MTurk/v2_DepthDuration_HTML.html#65,65,1366,625,1366,768,8-29-2022,10-3-28,21,depth_duration_stimuli/001032_2014-06-08_13-23-17_260595134347_rgbf000021-resize_3/001032_2014-06-08_13-23-17_260595134347_rgbf000021-resize_3-target.png,250,3.2725,2,2705,250,feet,jsons/v1_VE250_randls_8.json,557659,1000510,21,Woman
21,420492,DepthScenes,duration_manipulation_targetAtFixation,jsons/v1_VE250_randls_8.json,http://54.235.29.9/FacialAge/BNav_EC2/DepthDuration/v2_depth_duration_MTurk/v2_DepthDuration_HTML.html#65,65,1366,625,1366,768,8-29-2022,10-3-28,22,depth_duration_stimuli/000736_2014-06-08_18-24-15_260595134347_rgbf000206-resize_3/000736_2014-06-08_18-24-15_260595134347_rgbf000206-resize_3-target.png,250,3.515,3,2786,249,feet,jsons/v1_VE250_randls_8.json,557659,1000510,21,Woman
22,420492,DepthScenes,duration_manipulation_targetAtFixation,jsons/v1_VE250_randls_8.json,http://54.235.29.9/FacialAge/BNav_EC2/DepthDuration/v2_depth_duration_MTurk/v2_DepthDuration_HTML.html#65,65,1366,625,1366,768,8-29-2022,10-3-28,23,depth_duration_stimuli/000137_2014-05-20_17-04-49_260595134347_rgbf000120-resize_1/000137_2014-05-20_17-04-49_260595134347_rgbf000120-resize_1-target.png,250,3.786,5,2233,249,feet,jsons/v1_VE250_randls_8.json,557659,1000510,21,Woman
23,420492,DepthScenes,duration_manipulation_targetAtFixation,jsons/v1_VE250_randls_8.json,http://54.235.29.9/FacialAge/BNav_EC2/DepthDuration/v2_depth_duration_MTurk/v2_DepthDuration_HTML.html#65,65,1366,625,1366,768,8-29-2022,10-3-28,24,depth_duration_stimuli/000493_2014-06-09_21-01-18_260595134347_rgbf000196-resize_3/000493_2014-06-09_21-01-18_260595134347_rgbf000196-resize_3-target.png,250,3.44,4,2497,249,feet,jsons/v1_VE250_randls_8.json,557659,1000510,21,Woman
24,420492,DepthScenes,duration_manipulation_targetAtFixation,jsons/v1_VE250_randls_8.json,http://54.235.29.9/FacialAge/BNav_EC2/DepthDuration/v2_depth_duration_MTurk/v2_DepthDuration_HTML.html#65,65,1366,625,1366,768,8-29-2022,10-3-28,25,depth_duration_stimuli/000191_2014-05-12_17-07-38_260595134347_rgbf000199-resize_0/000191_2014-05-12_17-07-38_260595134347_rgbf000199-resize_0-target.png,250,3.7995,9,2834,248,feet,jsons/v1_VE250_randls_8.json,557659,1000510,21,Woman
25,420492,DepthScenes,duration_manipulation_targetAtFixation,jsons/v1_VE250_randls_8.json,http://54.235.29.9/FacialAge/BNav_EC2/DepthDuration/v2_depth_duration_MTurk/v2_DepthDuration_HTML.html#65,65,1366,625,1366,768,8-29-2022,10-3-28,26,depth_duration_stimuli/001244_2014-06-17_16-47-45_260595134347_rgbf000030-resize_4/001244_2014-06-17_16-47-45_260595134347_rgbf000030-resize_4-target.png,250,2.0425,5,2425,249,feet,jsons/v1_VE250_randls_8.json,557659,1000510,21,Woman
26,420492,DepthScenes,duration_manipulation_targetAtFixation,jsons/v1_VE250_randls_8.json,http://54.235.29.9/FacialAge/BNav_EC2/DepthDuration/v2_depth_duration_MTurk/v2_DepthDuration_HTML.html#65,65,1366,625,1366,768,8-29-2022,10-3-28,27,depth_duration_stimuli/003495_2014-05-21_16-01-51_094959634447_rgbf000100-resize_3/003495_2014-05-21_16-01-51_094959634447_rgbf000100-resize_3-target.png,250,1.6255,2,2556,249,feet,jsons/v1_VE250_randls_8.json,557659,1000510,21,Woman
27,420492,DepthScenes,duration_manipulation_targetAtFixation,jsons/v1_VE250_randls_8.json,http://54.235.29.9/FacialAge/BNav_EC2/DepthDuration/v2_depth_duration_MTurk/v2_DepthDuration_HTML.html#65,65,1366,625,1366,768,8-29-2022,10-3-28,28,depth_duration_stimuli/002763_2014-06-22_19-13-10_094959634447_rgbf000075-resize_4/002763_2014-06-22_19-13-10_094959634447_rgbf000075-resize_4-target.png,250,1.68375,4,2869,249,feet,jsons/v1_VE250_randls_8.json,557659,1000510,21,Woman
28,420492,DepthScenes,duration_manipulation_targetAtFixation,jsons/v1_VE250_randls_8.json,http://54.235.29.9/FacialAge/BNav_EC2/DepthDuration/v2_depth_duration_MTurk/v2_DepthDuration_HTML.html#65,65,1366,625,1366,768,8-29-2022,10-3-28,29,depth_duration_stimuli/002209_2014-06-28_18-36-10_260595134347_rgbf000051-resize_1/002209_2014-06-28_18-36-10_260595134347_rgbf000051-resize_1-target.png,250,2.057,3,2768,249,feet,jsons/v1_VE250_randls_8.json,557659,1000510,21,Woman
29,420492,DepthScenes,duration_manipulation_targetAtFixation,jsons/v1_VE250_randls_8.json,http://54.235.29.9/FacialAge/BNav_EC2/DepthDuration/v2_depth_duration_MTurk/v2_DepthDuration_HTML.html#65,65,1366,625,1366,768,8-29-2022,10-3-28,30,depth_duration_stimuli/000375_2014-06-08_11-17-29_260595134347_rgbf000133-resize_2/000375_2014-06-08_11-17-29_260595134347_rgbf000133-resize-original.jpg,250,4.718,0,2515,249,feet,jsons/v1_VE250_randls_8.json,557659,1000510,21,Woman
30,420492,DepthScenes,duration_manipulation_targetAtFixation,jsons/v1_VE250_randls_8.json,http://54.235.29.9/FacialAge/BNav_EC2/DepthDuration/v2_depth_duration_MTurk/v2_DepthDuration_HTML.html#65,65,1366,625,1366,768,8-29-2022,10-3-28,31,depth_duration_stimuli/001570_2014-06-20_17-21-09_260595134347_rgbf000135-resize_4/001570_2014-06-20_17-21-09_260595134347_rgbf000135-resize_4-target.png,250,4.467,4,2712,249,feet,jsons/v1_VE250_randls_8.json,557659,1000510,21,Woman
31,420492,DepthScenes,duration_manipulation_targetAtFixation,jsons/v1_VE250_randls_8.json,http://54.235.29.9/FacialAge/BNav_EC2/DepthDuration/v2_depth_duration_MTurk/v2_DepthDuration_HTML.html#65,65,1366,625,1366,768,8-29-2022,10-3-28,32,depth_duration_stimuli/001392_2014-06-19_16-07-59_260595134347_rgbf000046-resize_1/001392_2014-06-19_16-07-59_260595134347_rgbf000046-resize_1-target.png,250,4.135,3,2668,248,feet,jsons/v1_VE250_randls_8.json,557659,1000510,21,Woman
32,420492,DepthScenes,duration_manipulation_targetAtFixation,jsons/v1_VE250_randls_8.json,http://54.235.29.9/FacialAge/BNav_EC2/DepthDuration/v2_depth_duration_MTurk/v2_DepthDuration_HTML.html#65,65,1366,625,1366,768,8-29-2022,10-3-28,33,depth_duration_stimuli/000414_2014-06-04_19-49-13_260595134347_rgbf000044-resize_0/000414_2014-06-04_19-49-13_260595134347_rgbf000044-resize_0-target.png,250,4.329,6,2888,250,feet,jsons/v1_VE250_randls_8.json,557659,1000510,21,Woman
33,420492,DepthScenes,duration_manipulation_targetAtFixation,jsons/v1_VE250_randls_8.json,http://54.235.29.9/FacialAge/BNav_EC2/DepthDuration/v2_depth_duration_MTurk/v2_DepthDuration_HTML.html#65,65,1366,625,1366,768,8-29-2022,10-3-28,34,depth_duration_stimuli/003129_2014-05-12_10-48-10_094959634447_rgbf000100-resize_0/003129_2014-05-12_10-48-10_094959634447_rgbf000100-resize_0-target.png,250,4.9305,2,2913,249,feet,jsons/v1_VE250_randls_8.json,557659,1000510,21,Woman
34,420492,DepthScenes,duration_manipulation_targetAtFixation,jsons/v1_VE250_randls_8.json,http://54.235.29.9/FacialAge/BNav_EC2/DepthDuration/v2_depth_duration_MTurk/v2_DepthDuration_HTML.html#65,65,1366,625,1366,768,8-29-2022,10-3-28,35,depth_duration_stimuli/001417_2014-06-19_16-25-36_260595134347_rgbf000115-resize_5/001417_2014-06-19_16-25-36_260595134347_rgbf000115-resize_5-target.png,250,4.6255,5,2507,249,feet,jsons/v1_VE250_randls_8.json,557659,1000510,21,Woman
35,420492,DepthScenes,duration_manipulation_targetAtFixation,jsons/v1_VE250_randls_8.json,http://54.235.29.9/FacialAge/BNav_EC2/DepthDuration/v2_depth_duration_MTurk/v2_DepthDuration_HTML.html#65,65,1366,625,1366,768,8-29-2022,10-3-28,36,depth_duration_stimuli/003081_2014-06-15_15-19-16_094959634447_rgbf000150-resize_1/003081_2014-06-15_15-19-16_094959634447_rgbf000150-resize_1-target.png,250,3.9125,5,2387,249,feet,jsons/v1_VE250_randls_8.json,557659,1000510,21,Woman
36,420492,DepthScenes,duration_manipulation_targetAtFixation,jsons/v1_VE250_randls_8.json,http://54.235.29.9/FacialAge/BNav_EC2/DepthDuration/v2_depth_duration_MTurk/v2_DepthDuration_HTML.html#65,65,1366,625,1366,768,8-29-2022,10-3-28,37,depth_duration_stimuli/000929_2014-06-09_16-33-19_260595134347_rgbf000139-resize_0/000929_2014-06-09_16-33-19_260595134347_rgbf000139-resize_0-target.png,250,2.8680000000000003,3,2315,249,feet,jsons/v1_VE250_randls_8.json,557659,1000510,21,Woman
37,420492,DepthScenes,duration_manipulation_targetAtFixation,jsons/v1_VE250_randls_8.json,http://54.235.29.9/FacialAge/BNav_EC2/DepthDuration/v2_depth_duration_MTurk/v2_DepthDuration_HTML.html#65,65,1366,625,1366,768,8-29-2022,10-3-28,38,depth_duration_stimuli/000457_2014-06-08_16-52-43_260595134347_rgbf000199-resize_1/000457_2014-06-08_16-52-43_260595134347_rgbf000199-resize_1-target.png,250,3.6489999999999996,7,2809,249,feet,jsons/v1_VE250_randls_8.json,557659,1000510,21,Woman
38,420492,DepthScenes,duration_manipulation_targetAtFixation,jsons/v1_VE250_randls_8.json,http://54.235.29.9/FacialAge/BNav_EC2/DepthDuration/v2_depth_duration_MTurk/v2_DepthDuration_HTML.html#65,65,1366,625,1366,768,8-29-2022,10-3-28,39,depth_duration_stimuli/001066_2014-06-08_22-03-20_260595134347_rgbf000066-resize_4/001066_2014-06-08_22-03-20_260595134347_rgbf000066-resize_4-target.png,250,4.2330000000000005,5,2491,249,feet,jsons/v1_VE250_randls_8.json,557659,1000510,21,Woman
39,420492,DepthScenes,duration_manipulation_targetAtFixation,jsons/v1_VE250_randls_8.json,http://54.235.29.9/FacialAge/BNav_EC2/DepthDuration/v2_depth_duration_MTurk/v2_DepthDuration_HTML.html#65,65,1366,625,1366,768,8-29-2022,10-3-28,40,depth_duration_stimuli/000742_2014-06-08_18-48-09_260595134347_rgbf000164-resize_4/000742_2014-06-08_18-48-09_260595134347_rgbf000164-resize_4-target.png,250,4.632,3,8841,251,feet,jsons/v1_VE250_randls_8.json,557659,1000510,21,Woman
40,420492,DepthScenes,duration_manipulation_targetAtFixation,jsons/v1_VE250_randls_8.json,http://54.235.29.9/FacialAge/BNav_EC2/DepthDuration/v2_depth_duration_MTurk/v2_DepthDuration_HTML.html#65,65,1366,625,1366,768,8-29-2022,10-3-28,41,depth_duration_stimuli/000773_2014-06-08_22-24-54_260595134347_rgbf000093-resize_1/000773_2014-06-08_22-24-54_260595134347_rgbf000093-resize_1-target.png,250,4.973,2,5379,249,feet,jsons/v1_VE250_randls_8.json,557659,1000510,21,Woman
41,420492,DepthScenes,duration_manipulation_targetAtFixation,jsons/v1_VE250_randls_8.json,http://54.235.29.9/FacialAge/BNav_EC2/DepthDuration/v2_depth_duration_MTurk/v2_DepthDuration_HTML.html#65,65,1366,625,1366,768,8-29-2022,10-3-28,42,depth_duration_stimuli/002414_2014-06-28_20-24-58_260595134347_rgbf000067-resize_4/002414_2014-06-28_20-24-58_260595134347_rgbf000067-resize_4-target.png,250,4.363,4,2785,249,feet,jsons/v1_VE250_randls_8.json,557659,1000510,21,Woman
42,420492,DepthScenes,duration_manipulation_targetAtFixation,jsons/v1_VE250_randls_8.json,http://54.235.29.9/FacialAge/BNav_EC2/DepthDuration/v2_depth_duration_MTurk/v2_DepthDuration_HTML.html#65,65,1366,625,1366,768,8-29-2022,10-3-28,43,depth_duration_stimuli/002663_2014-06-13_15-50-26_094959634447_rgbf000075-resize_1/002663_2014-06-13_15-50-26_094959634447_rgbf000075-resize_1-target.png,250,4.7495,4,2490,250,feet,jsons/v1_VE250_randls_8.json,557659,1000510,21,Woman
43,420492,DepthScenes,duration_manipulation_targetAtFixation,jsons/v1_VE250_randls_8.json,http://54.235.29.9/FacialAge/BNav_EC2/DepthDuration/v2_depth_duration_MTurk/v2_DepthDuration_HTML.html#65,65,1366,625,1366,768,8-29-2022,10-3-28,44,depth_duration_stimuli/000409_2014-06-04_19-23-33_260595134347_rgbf000067-resize_0/000409_2014-06-04_19-23-33_260595134347_rgbf000067-resize_0-target.png,250,3.7335,2,2049,249,feet,jsons/v1_VE250_randls_8.json,557659,1000510,21,Woman
44,420492,DepthScenes,duration_manipulation_targetAtFixation,jsons/v1_VE250_randls_8.json,http://54.235.29.9/FacialAge/BNav_EC2/DepthDuration/v2_depth_duration_MTurk/v2_DepthDuration_HTML.html#65,65,1366,625,1366,768,8-29-2022,10-3-28,45,depth_duration_stimuli/000787_2014-06-08_22-33-53_260595134347_rgbf000175-resize_1/000787_2014-06-08_22-33-53_260595134347_rgbf000175-resize-original.jpg,250,4.784,0,2577,247,feet,jsons/v1_VE250_randls_8.json,557659,1000510,21,Woman
45,420492,DepthScenes,duration_manipulation_targetAtFixation,jsons/v1_VE250_randls_8.json,http://54.235.29.9/FacialAge/BNav_EC2/DepthDuration/v2_depth_duration_MTurk/v2_DepthDuration_HTML.html#65,65,1366,625,1366,768,8-29-2022,10-3-28,46,depth_duration_stimuli/002788_2014-06-22_19-36-03_094959634447_rgbf000088-resize_2/002788_2014-06-22_19-36-03_094959634447_rgbf000088-resize_2-target.png,250,1.6465,3,2219,249,feet,jsons/v1_VE250_randls_8.json,557659,1000510,21,Woman
46,420492,DepthScenes,duration_manipulation_targetAtFixation,jsons/v1_VE250_randls_8.json,http://54.235.29.9/FacialAge/BNav_EC2/DepthDuration/v2_depth_duration_MTurk/v2_DepthDuration_HTML.html#65,65,1366,625,1366,768,8-29-2022,10-3-28,47,depth_duration_stimuli/000749_2014-06-08_21-55-06_260595134347_rgbf000070-resize_2/000749_2014-06-08_21-55-06_260595134347_rgbf000070-resize_2-target.png,250,2.331,3,4004,249,feet,jsons/v1_VE250_randls_8.json,557659,1000510,21,Woman
47,420492,DepthScenes,duration_manipulation_targetAtFixation,jsons/v1_VE250_randls_8.json,http://54.235.29.9/FacialAge/BNav_EC2/DepthDuration/v2_depth_duration_MTurk/v2_DepthDuration_HTML.html#65,65,1366,625,1366,768,8-29-2022,10-3-28,48,depth_duration_stimuli/002509_2014-06-24_13-19-22_094959634447_rgbf000077-resize_0/002509_2014-06-24_13-19-22_094959634447_rgbf000077-resize_0-target.png,250,1.3065,2,2833,249,feet,jsons/v1_VE250_randls_8.json,557659,1000510,21,Woman
48,420492,DepthScenes,duration_manipulation_targetAtFixation,jsons/v1_VE250_randls_8.json,http://54.235.29.9/FacialAge/BNav_EC2/DepthDuration/v2_depth_duration_MTurk/v2_DepthDuration_HTML.html#65,65,1366,625,1366,768,8-29-2022,10-3-28,49,depth_duration_stimuli/003338_2014-05-20_11-01-23_094959634447_rgbf000051-resize_6/003338_2014-05-20_11-01-23_094959634447_rgbf000051-resize_6-target.png,250,1.693,3,2423,250,feet,jsons/v1_VE250_randls_8.json,557659,1000510,21,Woman
49,420492,DepthScenes,duration_manipulation_targetAtFixation,jsons/v1_VE250_randls_8.json,http://54.235.29.9/FacialAge/BNav_EC2/DepthDuration/v2_depth_duration_MTurk/v2_DepthDuration_HTML.html#65,65,1366,625,1366,768,8-29-2022,10-3-28,50,depth_duration_stimuli/003492_2014-05-21_15-50-55_094959634447_rgbf000828-resize_1/003492_2014-05-21_15-50-55_094959634447_rgbf000828-resize_1-target.png,250,4.06875,4,2180,249,feet,jsons/v1_VE250_randls_8.json,557659,1000510,21,Woman
50,420492,DepthScenes,duration_manipulation_targetAtFixation,jsons/v1_VE250_randls_8.json,http://54.235.29.9/FacialAge/BNav_EC2/DepthDuration/v2_depth_duration_MTurk/v2_DepthDuration_HTML.html#65,65,1366,625,1366,768,8-29-2022,10-3-28,51,depth_duration_stimuli/002568_2014-06-24_13-59-21_094959634447_rgbf000062-resize_4/002568_2014-06-24_13-59-21_094959634447_rgbf000062-resize_4-target.png,250,3.015,2,2611,250,feet,jsons/v1_VE250_randls_8.json,557659,1000510,21,Woman
51,420492,DepthScenes,duration_manipulation_targetAtFixation,jsons/v1_VE250_randls_8.json,http://54.235.29.9/FacialAge/BNav_EC2/DepthDuration/v2_depth_duration_MTurk/v2_DepthDuration_HTML.html#65,65,1366,625,1366,768,8-29-2022,10-3-28,52,depth_duration_stimuli/000368_2014-06-09_15-53-01_260595134347_rgbf000155-resize_2/000368_2014-06-09_15-53-01_260595134347_rgbf000155-resize_2-target.png,250,2.4859999999999998,2,2215,249,feet,jsons/v1_VE250_randls_8.json,557659,1000510,21,Woman
52,420492,DepthScenes,duration_manipulation_targetAtFixation,jsons/v1_VE250_randls_8.json,http://54.235.29.9/FacialAge/BNav_EC2/DepthDuration/v2_depth_duration_MTurk/v2_DepthDuration_HTML.html#65,65,1366,625,1366,768,8-29-2022,10-3-28,53,depth_duration_stimuli/002678_2014-06-13_16-15-32_094959634447_rgbf000151-resize_6/002678_2014-06-13_16-15-32_094959634447_rgbf000151-resize_6-target.png,250,2.1830000000000003,4,5008,249,feet,jsons/v1_VE250_randls_8.json,557659,1000510,21,Woman
53,420492,DepthScenes,duration_manipulation_targetAtFixation,jsons/v1_VE250_randls_8.json,http://54.235.29.9/FacialAge/BNav_EC2/DepthDuration/v2_depth_duration_MTurk/v2_DepthDuration_HTML.html#65,65,1366,625,1366,768,8-29-2022,10-3-28,54,depth_duration_stimuli/003621_2014-05-23_18-06-08_094959634447_rgbf000101-resize_1/003621_2014-05-23_18-06-08_094959634447_rgbf000101-resize_1-target.png,250,3.9835,5,2631,249,feet,jsons/v1_VE250_randls_8.json,557659,1000510,21,Woman
54,420492,DepthScenes,duration_manipulation_targetAtFixation,jsons/v1_VE250_randls_8.json,http://54.235.29.9/FacialAge/BNav_EC2/DepthDuration/v2_depth_duration_MTurk/v2_DepthDuration_HTML.html#65,65,1366,625,1366,768,8-29-2022,10-3-28,55,depth_duration_stimuli/001584_2014-06-20_11-07-43_260595134347_rgbf000002-resize_1/001584_2014-06-20_11-07-43_260595134347_rgbf000002-resize_1-target.png,250,3.53,3,2554,249,feet,jsons/v1_VE250_randls_8.json,557659,1000510,21,Woman
55,420492,DepthScenes,duration_manipulation_targetAtFixation,jsons/v1_VE250_randls_8.json,http://54.235.29.9/FacialAge/BNav_EC2/DepthDuration/v2_depth_duration_MTurk/v2_DepthDuration_HTML.html#65,65,1366,625,1366,768,8-29-2022,10-3-28,56,depth_duration_stimuli/002989_2014-06-15_12-25-03_094959634447_rgbf000150-resize_3/002989_2014-06-15_12-25-03_094959634447_rgbf000150-resize_3-target.png,250,4.1975,6,2346,249,feet,jsons/v1_VE250_randls_8.json,557659,1000510,21,Woman
56,420492,DepthScenes,duration_manipulation_targetAtFixation,jsons/v1_VE250_randls_8.json,http://54.235.29.9/FacialAge/BNav_EC2/DepthDuration/v2_depth_duration_MTurk/v2_DepthDuration_HTML.html#65,65,1366,625,1366,768,8-29-2022,10-3-28,57,depth_duration_stimuli/000866_2014-06-09_20-45-42_260595134347_rgbf000139-resize_1/000866_2014-06-09_20-45-42_260595134347_rgbf000139-resize_1-target.png,250,3.2155,3,2465,249,feet,jsons/v1_VE250_randls_8.json,557659,1000510,21,Woman
57,420492,DepthScenes,duration_manipulation_targetAtFixation,jsons/v1_VE250_randls_8.json,http://54.235.29.9/FacialAge/BNav_EC2/DepthDuration/v2_depth_duration_MTurk/v2_DepthDuration_HTML.html#65,65,1366,625,1366,768,8-29-2022,10-3-28,58,depth_duration_stimuli/003292_2014-05-14_21-53-49_094959634447_rgbf000100-resize_2/003292_2014-05-14_21-53-49_094959634447_rgbf000100-resize_2-target.png,250,3.4815,2,2628,249,feet,jsons/v1_VE250_randls_8.json,557659,1000510,21,Woman
58,420492,DepthScenes,duration_manipulation_targetAtFixation,jsons/v1_VE250_randls_8.json,http://54.235.29.9/FacialAge/BNav_EC2/DepthDuration/v2_depth_duration_MTurk/v2_DepthDuration_HTML.html#65,65,1366,625,1366,768,8-29-2022,10-3-28,59,depth_duration_stimuli/002639_2014-06-24_14-51-37_094959634447_rgbf000074-resize_4/002639_2014-06-24_14-51-37_094959634447_rgbf000074-resize_4-target.png,250,4.0375,3,2487,249,feet,jsons/v1_VE250_randls_8.json,557659,1000510,21,Woman
59,420492,DepthScenes,duration_manipulation_targetAtFixation,jsons/v1_VE250_randls_8.json,http://54.235.29.9/FacialAge/BNav_EC2/DepthDuration/v2_depth_duration_MTurk/v2_DepthDuration_HTML.html#65,65,1366,625,1366,768,8-29-2022,10-3-28,60,depth_duration_stimuli/001449_2014-06-19_17-01-27_260595134347_rgbf000116-resize_2/001449_2014-06-19_17-01-27_260595134347_rgbf000116-resize_2-target.png,250,3.452,3,2165,249,feet,jsons/v1_VE250_randls_8.json,557659,1000510,21,Woman
60,420492,DepthScenes,duration_manipulation_targetAtFixation,jsons/v1_VE250_randls_8.json,http://54.235.29.9/FacialAge/BNav_EC2/DepthDuration/v2_depth_duration_MTurk/v2_DepthDuration_HTML.html#65,65,1366,625,1366,768,8-29-2022,10-3-28,61,depth_duration_stimuli/001450_2014-06-19_17-02-03_260595134347_rgbf000203-resize_4/001450_2014-06-19_17-02-03_260595134347_rgbf000203-resize_4-target.png,250,4.0106666666667,4,2473,250,feet,jsons/v1_VE250_randls_8.json,557659,1000510,21,Woman
61,420492,DepthScenes,duration_manipulation_targetAtFixation,jsons/v1_VE250_randls_8.json,http://54.235.29.9/FacialAge/BNav_EC2/DepthDuration/v2_depth_duration_MTurk/v2_DepthDuration_HTML.html#65,65,1366,625,1366,768,8-29-2022,10-3-28,62,depth_duration_stimuli/000506_2014-06-08_23-21-00_260595134347_rgbf000070-resize_7/000506_2014-06-08_23-21-00_260595134347_rgbf000070-resize_7-target.png,250,4.0585,3,2939,249,feet,jsons/v1_VE250_randls_8.json,557659,1000510,21,Woman
62,420492,DepthScenes,duration_manipulation_targetAtFixation,jsons/v1_VE250_randls_8.json,http://54.235.29.9/FacialAge/BNav_EC2/DepthDuration/v2_depth_duration_MTurk/v2_DepthDuration_HTML.html#65,65,1366,625,1366,768,8-29-2022,10-3-28,63,depth_duration_stimuli/003079_2014-06-15_15-18-20_094959634447_rgbf000152-resize_8/003079_2014-06-15_15-18-20_094959634447_rgbf000152-resize_8-target.png,250,2.8775,7,2354,249,feet,jsons/v1_VE250_randls_8.json,557659,1000510,21,Woman
63,420492,DepthScenes,duration_manipulation_targetAtFixation,jsons/v1_VE250_randls_8.json,http://54.235.29.9/FacialAge/BNav_EC2/DepthDuration/v2_depth_duration_MTurk/v2_DepthDuration_HTML.html#65,65,1366,625,1366,768,8-29-2022,10-3-28,64,depth_duration_stimuli/001110_2014-06-15_17-25-28_260595134347_rgbf000150-resize_1/001110_2014-06-15_17-25-28_260595134347_rgbf000150-resize_1-target.png,250,1.7115,3,2874,248,feet,jsons/v1_VE250_randls_8.json,557659,1000510,21,Woman
64,420492,DepthScenes,duration_manipulation_targetAtFixation,jsons/v1_VE250_randls_8.json,http://54.235.29.9/FacialAge/BNav_EC2/DepthDuration/v2_depth_duration_MTurk/v2_DepthDuration_HTML.html#65,65,1366,625,1366,768,8-29-2022,10-3-28,65,depth_duration_stimuli/000927_2014-06-09_16-32-30_260595134347_rgbf000123-resize_3/000927_2014-06-09_16-32-30_260595134347_rgbf000123-resize_3-target.png,250,2.6785,4,2545,249,feet,jsons/v1_VE250_randls_8.json,557659,1000510,21,Woman
65,420492,DepthScenes,duration_manipulation_targetAtFixation,jsons/v1_VE250_randls_8.json,http://54.235.29.9/FacialAge/BNav_EC2/DepthDuration/v2_depth_duration_MTurk/v2_DepthDuration_HTML.html#65,65,1366,625,1366,768,8-29-2022,10-3-28,66,depth_duration_stimuli/001222_2014-06-17_16-24-06_260595134347_rgbf000073-resize_0/001222_2014-06-17_16-24-06_260595134347_rgbf000073-resize-original.jpg,250,1.4385,0,2395,248,feet,jsons/v1_VE250_randls_8.json,557659,1000510,21,Woman
66,420492,DepthScenes,duration_manipulation_targetAtFixation,jsons/v1_VE250_randls_8.json,http://54.235.29.9/FacialAge/BNav_EC2/DepthDuration/v2_depth_duration_MTurk/v2_DepthDuration_HTML.html#65,65,1366,625,1366,768,8-29-2022,10-3-28,67,depth_duration_stimuli/002784_2014-06-22_19-26-30_094959634447_rgbf000083-resize_3/002784_2014-06-22_19-26-30_094959634447_rgbf000083-resize_3-target.png,250,1.8046666666667,1,2178,249,feet,jsons/v1_VE250_randls_8.json,557659,1000510,21,Woman
67,420492,DepthScenes,duration_manipulation_targetAtFixation,jsons/v1_VE250_randls_8.json,http://54.235.29.9/FacialAge/BNav_EC2/DepthDuration/v2_depth_duration_MTurk/v2_DepthDuration_HTML.html#65,65,1366,625,1366,768,8-29-2022,10-3-28,68,depth_duration_stimuli/001100_2014-06-15_17-46-26_260595134347_rgbf000225-resize_2/001100_2014-06-15_17-46-26_260595134347_rgbf000225-resize_2-target.png,250,2.24,3,2868,249,feet,jsons/v1_VE250_randls_8.json,557659,1000510,21,Woman
68,420492,DepthScenes,duration_manipulation_targetAtFixation,jsons/v1_VE250_randls_8.json,http://54.235.29.9/FacialAge/BNav_EC2/DepthDuration/v2_depth_duration_MTurk/v2_DepthDuration_HTML.html#65,65,1366,625,1366,768,8-29-2022,10-3-28,69,depth_duration_stimuli/001167_2014-06-17_15-38-07_260595134347_rgbf000108-resize_0/001167_2014-06-17_15-38-07_260595134347_rgbf000108-resize_0-target.png,250,1.8505,3,2226,249,feet,jsons/v1_VE250_randls_8.json,557659,1000510,21,Woman
69,420492,DepthScenes,duration_manipulation_targetAtFixation,jsons/v1_VE250_randls_8.json,http://54.235.29.9/FacialAge/BNav_EC2/DepthDuration/v2_depth_duration_MTurk/v2_DepthDuration_HTML.html#65,65,1366,625,1366,768,8-29-2022,10-3-28,70,depth_duration_stimuli/003587_2014-05-23_16-48-02_094959634447_rgbf002384-resize_2/003587_2014-05-23_16-48-02_094959634447_rgbf002384-resize_2-target.png,250,1.357,2,2113,250,feet,jsons/v1_VE250_randls_8.json,557659,1000510,21,Woman
70,420492,DepthScenes,duration_manipulation_targetAtFixation,jsons/v1_VE250_randls_8.json,http://54.235.29.9/FacialAge/BNav_EC2/DepthDuration/v2_depth_duration_MTurk/v2_DepthDuration_HTML.html#65,65,1366,625,1366,768,8-29-2022,10-3-28,71,depth_duration_stimuli/000906_2014-06-08_13-35-43_260595134347_rgbf000155-resize_1/000906_2014-06-08_13-35-43_260595134347_rgbf000155-resize_1-target.png,250,2.8489999999999998,5,2780,250,feet,jsons/v1_VE250_randls_8.json,557659,1000510,21,Woman
71,420492,DepthScenes,duration_manipulation_targetAtFixation,jsons/v1_VE250_randls_8.json,http://54.235.29.9/FacialAge/BNav_EC2/DepthDuration/v2_depth_duration_MTurk/v2_DepthDuration_HTML.html#65,65,1366,625,1366,768,8-29-2022,10-3-28,72,depth_duration_stimuli/002805_2014-06-22_19-54-03_094959634447_rgbf000079-resize_1/002805_2014-06-22_19-54-03_094959634447_rgbf000079-resize_1-target.png,250,3.1439999999999997,3,2459,250,feet,jsons/v1_VE250_randls_8.json,557659,1000510,21,Woman
72,420492,DepthScenes,duration_manipulation_targetAtFixation,jsons/v1_VE250_randls_8.json,http://54.235.29.9/FacialAge/BNav_EC2/DepthDuration/v2_depth_duration_MTurk/v2_DepthDuration_HTML.html#65,65,1366,625,1366,768,8-29-2022,10-3-28,73,depth_duration_stimuli/001199_2014-06-17_16-03-48_260595134347_rgbf000077-resize_0/001199_2014-06-17_16-03-48_260595134347_rgbf000077-resize_0-target.png,250,3.4375,4,2209,250,feet,jsons/v1_VE250_randls_8.json,557659,1000510,21,Woman
73,420492,DepthScenes,duration_manipulation_targetAtFixation,jsons/v1_VE250_randls_8.json,http://54.235.29.9/FacialAge/BNav_EC2/DepthDuration/v2_depth_duration_MTurk/v2_DepthDuration_HTML.html#65,65,1366,625,1366,768,8-29-2022,10-3-28,74,depth_duration_stimuli/000502_2014-06-08_23-02-32_260595134347_rgbf000063-resize_4/000502_2014-06-08_23-02-32_260595134347_rgbf000063-resize_4-target.png,250,2.431,2,2124,249,feet,jsons/v1_VE250_randls_8.json,557659,1000510,21,Woman
74,420492,DepthScenes,duration_manipulation_targetAtFixation,jsons/v1_VE250_randls_8.json,http://54.235.29.9/FacialAge/BNav_EC2/DepthDuration/v2_depth_duration_MTurk/v2_DepthDuration_HTML.html#65,65,1366,625,1366,768,8-29-2022,10-3-28,75,depth_duration_stimuli/001056_2014-06-08_18-46-44_260595134347_rgbf000068-resize_0/001056_2014-06-08_18-46-44_260595134347_rgbf000068-resize_0-target.png,250,2.6625,2,2458,247,feet,jsons/v1_VE250_randls_8.json,557659,1000510,21,Woman
75,420492,DepthScenes,duration_manipulation_targetAtFixation,jsons/v1_VE250_randls_8.json,http://54.235.29.9/FacialAge/BNav_EC2/DepthDuration/v2_depth_duration_MTurk/v2_DepthDuration_HTML.html#65,65,1366,625,1366,768,8-29-2022,10-3-28,76,depth_duration_stimuli/002199_2014-06-28_18-33-56_260595134347_rgbf000074-resize_0/002199_2014-06-28_18-33-56_260595134347_rgbf000074-resize_0-target.png,250,1.996,2,2808,250,feet,jsons/v1_VE250_randls_8.json,557659,1000510,21,Woman
76,420492,DepthScenes,duration_manipulation_targetAtFixation,jsons/v1_VE250_randls_8.json,http://54.235.29.9/FacialAge/BNav_EC2/DepthDuration/v2_depth_duration_MTurk/v2_DepthDuration_HTML.html#65,65,1366,625,1366,768,8-29-2022,10-3-28,77,depth_duration_stimuli/001158_2014-06-17_15-32-16_260595134347_rgbf000138-resize_2/001158_2014-06-17_15-32-16_260595134347_rgbf000138-resize_2-target.png,250,4.5315,3,2195,250,feet,jsons/v1_VE250_randls_8.json,557659,1000510,21,Woman
77,420492,DepthScenes,duration_manipulation_targetAtFixation,jsons/v1_VE250_randls_8.json,http://54.235.29.9/FacialAge/BNav_EC2/DepthDuration/v2_depth_duration_MTurk/v2_DepthDuration_HTML.html#65,65,1366,625,1366,768,8-29-2022,10-3-28,78,depth_duration_stimuli/000556_2014-06-09_22-42-56_260595134347_rgbf000214-resize_1/000556_2014-06-09_22-42-56_260595134347_rgbf000214-resize_1-target.png,250,4.8415,1,2696,250,feet,jsons/v1_VE250_randls_8.json,557659,1000510,21,Woman
78,420492,DepthScenes,duration_manipulation_targetAtFixation,jsons/v1_VE250_randls_8.json,http://54.235.29.9/FacialAge/BNav_EC2/DepthDuration/v2_depth_duration_MTurk/v2_DepthDuration_HTML.html#65,65,1366,625,1366,768,8-29-2022,10-3-28,79,depth_duration_stimuli/002748_2014-06-22_19-07-22_094959634447_rgbf000078-resize_1/002748_2014-06-22_19-07-22_094959634447_rgbf000078-resize_1-target.png,250,4.6705,4,3529,250,feet,jsons/v1_VE250_randls_8.json,557659,1000510,21,Woman
79,420492,DepthScenes,duration_manipulation_targetAtFixation,jsons/v1_VE250_randls_8.json,http://54.235.29.9/FacialAge/BNav_EC2/DepthDuration/v2_depth_duration_MTurk/v2_DepthDuration_HTML.html#65,65,1366,625,1366,768,8-29-2022,10-3-28,80,depth_duration_stimuli/002995_2014-06-15_12-31-26_094959634447_rgbf000150-resize_1/002995_2014-06-15_12-31-26_094959634447_rgbf000150-resize_1-target.png,250,3.8360000000000003,3,2116,249,feet,jsons/v1_VE250_randls_8.json,557659,1000510,21,Woman
80,420492,DepthScenes,duration_manipulation_targetAtFixation,jsons/v1_VE250_randls_8.json,http://54.235.29.9/FacialAge/BNav_EC2/DepthDuration/v2_depth_duration_MTurk/v2_DepthDuration_HTML.html#65,65,1366,625,1366,768,8-29-2022,10-3-28,81,depth_duration_stimuli/000436_2014-06-09_22-25-11_260595134347_rgbf000137-resize_1/000436_2014-06-09_22-25-11_260595134347_rgbf000137-resize_1-target.png,250,4.0705,4,2137,247,feet,jsons/v1_VE250_randls_8.json,557659,1000510,21,Woman
81,420492,DepthScenes,duration_manipulation_targetAtFixation,jsons/v1_VE250_randls_8.json,http://54.235.29.9/FacialAge/BNav_EC2/DepthDuration/v2_depth_duration_MTurk/v2_DepthDuration_HTML.html#65,65,1366,625,1366,768,8-29-2022,10-3-28,82,depth_duration_stimuli/002444_2014-06-28_20-32-08_260595134347_rgbf000027-resize_0/002444_2014-06-28_20-32-08_260595134347_rgbf000027-resize_0-target.png,250,4.388999999999999,5,3010,249,feet,jsons/v1_VE250_randls_8.json,557659,1000510,21,Woman
82,420492,DepthScenes,duration_manipulation_targetAtFixation,jsons/v1_VE250_randls_8.json,http://54.235.29.9/FacialAge/BNav_EC2/DepthDuration/v2_depth_duration_MTurk/v2_DepthDuration_HTML.html#65,65,1366,625,1366,768,8-29-2022,10-3-28,83,depth_duration_stimuli/000758_2014-06-08_22-05-08_260595134347_rgbf000085-resize_0/000758_2014-06-08_22-05-08_260595134347_rgbf000085-resize_0-target.png,250,3.3810000000000002,3,2123,249,feet,jsons/v1_VE250_randls_8.json,557659,1000510,21,Woman
83,420492,DepthScenes,duration_manipulation_targetAtFixation,jsons/v1_VE250_randls_8.json,http://54.235.29.9/FacialAge/BNav_EC2/DepthDuration/v2_depth_duration_MTurk/v2_DepthDuration_HTML.html#65,65,1366,625,1366,768,8-29-2022,10-3-28,84,depth_duration_stimuli/000854_2014-06-09_19-43-13_260595134347_rgbf000066-resize_0/000854_2014-06-09_19-43-13_260595134347_rgbf000066-resize_0-target.png,250,3.068,1,2317,249,feet,jsons/v1_VE250_randls_8.json,557659,1000510,21,Woman
84,420492,DepthScenes,duration_manipulation_targetAtFixation,jsons/v1_VE250_randls_8.json,http://54.235.29.9/FacialAge/BNav_EC2/DepthDuration/v2_depth_duration_MTurk/v2_DepthDuration_HTML.html#65,65,1366,625,1366,768,8-29-2022,10-3-28,85,depth_duration_stimuli/000009_2014-05-26_14-32-05_260595134347_rgbf000034-resize_3/000009_2014-05-26_14-32-05_260595134347_rgbf000034-resize_3-target.png,250,3.8715,5,2791,249,feet,jsons/v1_VE250_randls_8.json,557659,1000510,21,Woman
85,420492,DepthScenes,duration_manipulation_targetAtFixation,jsons/v1_VE250_randls_8.json,http://54.235.29.9/FacialAge/BNav_EC2/DepthDuration/v2_depth_duration_MTurk/v2_DepthDuration_HTML.html#65,65,1366,625,1366,768,8-29-2022,10-3-28,86,depth_duration_stimuli/001828_2014-06-26_21-40-03_260595134347_rgbf000024-resize_0/001828_2014-06-26_21-40-03_260595134347_rgbf000024-resize_0-target.png,250,4.8260000000000005,3,2074,249,feet,jsons/v1_VE250_randls_8.json,557659,1000510,21,Woman
86,420492,DepthScenes,duration_manipulation_targetAtFixation,jsons/v1_VE250_randls_8.json,http://54.235.29.9/FacialAge/BNav_EC2/DepthDuration/v2_depth_duration_MTurk/v2_DepthDuration_HTML.html#65,65,1366,625,1366,768,8-29-2022,10-3-28,87,depth_duration_stimuli/001029_2014-06-08_13-17-57_260595134347_rgbf000065-resize_1/001029_2014-06-08_13-17-57_260595134347_rgbf000065-resize_1-target.png,250,3.0835,3,2337,249,feet,jsons/v1_VE250_randls_8.json,557659,1000510,21,Woman
87,420492,DepthScenes,duration_manipulation_targetAtFixation,jsons/v1_VE250_randls_8.json,http://54.235.29.9/FacialAge/BNav_EC2/DepthDuration/v2_depth_duration_MTurk/v2_DepthDuration_HTML.html#65,65,1366,625,1366,768,8-29-2022,10-3-28,88,depth_duration_stimuli/000677_2014-06-08_23-10-32_260595134347_rgbf000158-resize_6/000677_2014-06-08_23-10-32_260595134347_rgbf000158-resize_6-target.png,250,3.556,3,2057,250,feet,jsons/v1_VE250_randls_8.json,557659,1000510,21,Woman
88,420492,DepthScenes,duration_manipulation_targetAtFixation,jsons/v1_VE250_randls_8.json,http://54.235.29.9/FacialAge/BNav_EC2/DepthDuration/v2_depth_duration_MTurk/v2_DepthDuration_HTML.html#65,65,1366,625,1366,768,8-29-2022,10-3-28,89,depth_duration_stimuli/003534_2014-05-22_15-06-10_094959634447_rgbf000102-resize_4/003534_2014-05-22_15-06-10_094959634447_rgbf000102-resize_4-target.png,250,1.426,1,2186,249,feet,jsons/v1_VE250_randls_8.json,557659,1000510,21,Woman
89,420492,DepthScenes,duration_manipulation_targetAtFixation,jsons/v1_VE250_randls_8.json,http://54.235.29.9/FacialAge/BNav_EC2/DepthDuration/v2_depth_duration_MTurk/v2_DepthDuration_HTML.html#65,65,1366,625,1366,768,8-29-2022,10-3-28,90,depth_duration_stimuli/002637_2014-06-24_14-51-13_094959634447_rgbf000066-resize_4/002637_2014-06-24_14-51-13_094959634447_rgbf000066-resize_4-target.png,250,1.9955,5,2194,250,feet,jsons/v1_VE250_randls_8.json,557659,1000510,21,Woman
90,420492,DepthScenes,duration_manipulation_targetAtFixation,jsons/v1_VE250_randls_8.json,http://54.235.29.9/FacialAge/BNav_EC2/DepthDuration/v2_depth_duration_MTurk/v2_DepthDuration_HTML.html#65,65,1366,625,1366,768,8-29-2022,10-3-28,91,depth_duration_stimuli/002118_2014-06-25_20-32-08_260595134347_rgbf000078-resize_1/002118_2014-06-25_20-32-08_260595134347_rgbf000078-resize_1-target.png,250,2.6460000000000004,1,2161,249,feet,jsons/v1_VE250_randls_8.json,557659,1000510,21,Woman
91,420492,DepthScenes,duration_manipulation_targetAtFixation,jsons/v1_VE250_randls_8.json,http://54.235.29.9/FacialAge/BNav_EC2/DepthDuration/v2_depth_duration_MTurk/v2_DepthDuration_HTML.html#65,65,1366,625,1366,768,8-29-2022,10-3-28,92,depth_duration_stimuli/001516_2014-06-20_16-25-09_260595134347_rgbf000076-resize_2/001516_2014-06-20_16-25-09_260595134347_rgbf000076-resize_2-target.png,250,1.7445,3,2210,248,feet,jsons/v1_VE250_randls_8.json,557659,1000510,21,Woman
92,420492,DepthScenes,duration_manipulation_targetAtFixation,jsons/v1_VE250_randls_8.json,http://54.235.29.9/FacialAge/BNav_EC2/DepthDuration/v2_depth_duration_MTurk/v2_DepthDuration_HTML.html#65,65,1366,625,1366,768,8-29-2022,10-3-28,93,depth_duration_stimuli/000917_2014-06-09_22-45-29_260595134347_rgbf000149-resize_3/000917_2014-06-09_22-45-29_260595134347_rgbf000149-resize_3-target.png,250,4.1865,3,2323,249,feet,jsons/v1_VE250_randls_8.json,557659,1000510,21,Woman
93,420492,DepthScenes,duration_manipulation_targetAtFixation,jsons/v1_VE250_randls_8.json,http://54.235.29.9/FacialAge/BNav_EC2/DepthDuration/v2_depth_duration_MTurk/v2_DepthDuration_HTML.html#65,65,1366,625,1366,768,8-29-2022,10-3-28,94,depth_duration_stimuli/002323_2014-06-28_20-01-54_260595134347_rgbf000051-resize_4/002323_2014-06-28_20-01-54_260595134347_rgbf000051-resize_4-target.png,250,3.7310000000000003,4,2209,249,feet,jsons/v1_VE250_randls_8.json,557659,1000510,21,Woman
94,420492,DepthScenes,duration_manipulation_targetAtFixation,jsons/v1_VE250_randls_8.json,http://54.235.29.9/FacialAge/BNav_EC2/DepthDuration/v2_depth_duration_MTurk/v2_DepthDuration_HTML.html#65,65,1366,625,1366,768,8-29-2022,10-3-28,95,depth_duration_stimuli/000642_2014-06-08_16-59-25_260595134347_rgbf000098-resize_2/000642_2014-06-08_16-59-25_260595134347_rgbf000098-resize_2-target.png,250,2.8815,2,2203,250,feet,jsons/v1_VE250_randls_8.json,557659,1000510,21,Woman
95,420492,DepthScenes,duration_manipulation_targetAtFixation,jsons/v1_VE250_randls_8.json,http://54.235.29.9/FacialAge/BNav_EC2/DepthDuration/v2_depth_duration_MTurk/v2_DepthDuration_HTML.html#65,65,1366,625,1366,768,8-29-2022,10-3-28,96,depth_duration_stimuli/002425_2014-06-28_20-27-29_260595134347_rgbf000031-resize_8/002425_2014-06-28_20-27-29_260595134347_rgbf000031-resize_8-target.png,250,3.8960000000000004,6,2537,247,feet,jsons/v1_VE250_randls_8.json,557659,1000510,21,Woman
96,420492,DepthScenes,duration_manipulation_targetAtFixation,jsons/v1_VE250_randls_8.json,http://54.235.29.9/FacialAge/BNav_EC2/DepthDuration/v2_depth_duration_MTurk/v2_DepthDuration_HTML.html#65,65,1366,625,1366,768,8-29-2022,10-3-28,97,depth_duration_stimuli/001150_2014-06-17_15-27-34_260595134347_rgbf000108-resize_2/001150_2014-06-17_15-27-34_260595134347_rgbf000108-resize_2-target.png,250,4.0325,4,2218,249,feet,jsons/v1_VE250_randls_8.json,557659,1000510,21,Woman
97,420492,DepthScenes,duration_manipulation_targetAtFixation,jsons/v1_VE250_randls_8.json,http://54.235.29.9/FacialAge/BNav_EC2/DepthDuration/v2_depth_duration_MTurk/v2_DepthDuration_HTML.html#65,65,1366,625,1366,768,8-29-2022,10-3-28,98,depth_duration_stimuli/000665_2014-06-09_20-42-35_260595134347_rgbf000110-resize_1/000665_2014-06-09_20-42-35_260595134347_rgbf000110-resize_1-target.png,250,3.057,3,2242,249,feet,jsons/v1_VE250_randls_8.json,557659,1000510,21,Woman
98,420492,DepthScenes,duration_manipulation_targetAtFixation,jsons/v1_VE250_randls_8.json,http://54.235.29.9/FacialAge/BNav_EC2/DepthDuration/v2_depth_duration_MTurk/v2_DepthDuration_HTML.html#65,65,1366,625,1366,768,8-29-2022,10-3-28,99,depth_duration_stimuli/001540_2014-06-20_17-01-05_260595134347_rgbf000086-resize_2/001540_2014-06-20_17-01-05_260595134347_rgbf000086-resize-original.jpg,250,1.459,0,3312,249,feet,jsons/v1_VE250_randls_8.json,557659,1000510,21,Woman
99,420492,DepthScenes,duration_manipulation_targetAtFixation,jsons/v1_VE250_randls_8.json,http://54.235.29.9/FacialAge/BNav_EC2/DepthDuration/v2_depth_duration_MTurk/v2_DepthDuration_HTML.html#65,65,1366,625,1366,768,8-29-2022,10-3-28,100,depth_duration_stimuli/001164_2014-06-17_15-35-46_260595134347_rgbf000085-resize_3/001164_2014-06-17_15-35-46_260595134347_rgbf000085-resize_3-target.png,250,2.354,4,3426,249,feet,jsons/v1_VE250_randls_8.json,557659,1000510,21,Woman
100,420492,DepthScenes,duration_manipulation_targetAtFixation,jsons/v1_VE250_randls_8.json,http://54.235.29.9/FacialAge/BNav_EC2/DepthDuration/v2_depth_duration_MTurk/v2_DepthDuration_HTML.html#65,65,1366,625,1366,768,8-29-2022,10-3-28,101,depth_duration_stimuli/001136_2014-06-17_15-19-41_260595134347_rgbf000076-resize_3/001136_2014-06-17_15-19-41_260595134347_rgbf000076-resize_3-target.png,250,1.8655,5,2361,250,feet,jsons/v1_VE250_randls_8.json,557659,1000510,21,Woman
101,420492,DepthScenes,duration_manipulation_targetAtFixation,jsons/v1_VE250_randls_8.json,http://54.235.29.9/FacialAge/BNav_EC2/DepthDuration/v2_depth_duration_MTurk/v2_DepthDuration_HTML.html#65,65,1366,625,1366,768,8-29-2022,10-3-28,102,depth_duration_stimuli/002039_2014-06-24_20-22-38_260595134347_rgbf000084-resize_1/002039_2014-06-24_20-22-38_260595134347_rgbf000084-resize_1-target.png,250,4.408,3,3163,250,feet,jsons/v1_VE250_randls_8.json,557659,1000510,21,Woman
102,420492,DepthScenes,duration_manipulation_targetAtFixation,jsons/v1_VE250_randls_8.json,http://54.235.29.9/FacialAge/BNav_EC2/DepthDuration/v2_depth_duration_MTurk/v2_DepthDuration_HTML.html#65,65,1366,625,1366,768,8-29-2022,10-3-28,103,depth_duration_stimuli/002103_2014-06-25_20-00-40_260595134347_rgbf000049-resize_0/002103_2014-06-25_20-00-40_260595134347_rgbf000049-resize_0-target.png,250,4.105,3,1898,249,feet,jsons/v1_VE250_randls_8.json,557659,1000510,21,Woman
103,420492,DepthScenes,duration_manipulation_targetAtFixation,jsons/v1_VE250_randls_8.json,http://54.235.29.9/FacialAge/BNav_EC2/DepthDuration/v2_depth_duration_MTurk/v2_DepthDuration_HTML.html#65,65,1366,625,1366,768,8-29-2022,10-3-28,104,depth_duration_stimuli/001092_2014-06-15_17-34-58_260595134347_rgbf000171-resize_3/001092_2014-06-15_17-34-58_260595134347_rgbf000171-resize_3-target.png,250,2.6935,2,2107,248,feet,jsons/v1_VE250_randls_8.json,557659,1000510,21,Woman
104,420492,DepthScenes,duration_manipulation_targetAtFixation,jsons/v1_VE250_randls_8.json,http://54.235.29.9/FacialAge/BNav_EC2/DepthDuration/v2_depth_duration_MTurk/v2_DepthDuration_HTML.html#65,65,1366,625,1366,768,8-29-2022,10-3-28,105,depth_duration_stimuli/002545_2014-06-24_13-38-53_094959634447_rgbf000080-resize_4/002545_2014-06-24_13-38-53_094959634447_rgbf000080-resize_4-target.png,250,1.9205,3,2042,249,feet,jsons/v1_VE250_randls_8.json,557659,1000510,21,Woman
105,420492,DepthScenes,duration_manipulation_targetAtFixation,jsons/v1_VE250_randls_8.json,http://54.235.29.9/FacialAge/BNav_EC2/DepthDuration/v2_depth_duration_MTurk/v2_DepthDuration_HTML.html#65,65,1366,625,1366,768,8-29-2022,10-3-28,106,depth_duration_stimuli/000486_2014-06-09_20-47-20_260595134347_rgbf000143-resize_2/000486_2014-06-09_20-47-20_260595134347_rgbf000143-resize_2-target.png,250,4.8325,3,2065,250,feet,jsons/v1_VE250_randls_8.json,557659,1000510,21,Woman
106,420492,DepthScenes,duration_manipulation_targetAtFixation,jsons/v1_VE250_randls_8.json,http://54.235.29.9/FacialAge/BNav_EC2/DepthDuration/v2_depth_duration_MTurk/v2_DepthDuration_HTML.html#65,65,1366,625,1366,768,8-29-2022,10-3-28,107,depth_duration_stimuli/003083_2014-06-15_15-21-03_094959634447_rgbf000063-resize_1/003083_2014-06-15_15-21-03_094959634447_rgbf000063-resize_1-target.png,250,4.1405,6,2875,249,feet,jsons/v1_VE250_randls_8.json,557659,1000510,21,Woman
107,420492,DepthScenes,duration_manipulation_targetAtFixation,jsons/v1_VE250_randls_8.json,http://54.235.29.9/FacialAge/BNav_EC2/DepthDuration/v2_depth_duration_MTurk/v2_DepthDuration_HTML.html#65,65,1366,625,1366,768,8-29-2022,10-3-28,108,depth_duration_stimuli/000739_2014-06-08_18-45-58_260595134347_rgbf000068-resize_1/000739_2014-06-08_18-45-58_260595134347_rgbf000068-resize_1-target.png,250,3.534,3,2480,248,feet,jsons/v1_VE250_randls_8.json,557659,1000510,21,Woman
108,420492,DepthScenes,duration_manipulation_targetAtFixation,jsons/v1_VE250_randls_8.json,http://54.235.29.9/FacialAge/BNav_EC2/DepthDuration/v2_depth_duration_MTurk/v2_DepthDuration_HTML.html#65,65,1366,625,1366,768,8-29-2022,10-3-28,109,depth_duration_stimuli/000734_2014-06-08_17-39-11_260595134347_rgbf000128-resize_2/000734_2014-06-08_17-39-11_260595134347_rgbf000128-resize_2-target.png,250,4.098,4,2946,249,feet,jsons/v1_VE250_randls_8.json,557659,1000510,21,Woman
109,420492,DepthScenes,duration_manipulation_targetAtFixation,jsons/v1_VE250_randls_8.json,http://54.235.29.9/FacialAge/BNav_EC2/DepthDuration/v2_depth_duration_MTurk/v2_DepthDuration_HTML.html#65,65,1366,625,1366,768,8-29-2022,10-3-28,110,depth_duration_stimuli/002905_2014-06-03_18-04-43_094959634447_rgbf000151-resize_2/002905_2014-06-03_18-04-43_094959634447_rgbf000151-resize_2-target.png,250,2.0295,2,3165,249,feet,jsons/v1_VE250_randls_8.json,557659,1000510,21,Woman
110,420492,DepthScenes,duration_manipulation_targetAtFixation,jsons/v1_VE250_randls_8.json,http://54.235.29.9/FacialAge/BNav_EC2/DepthDuration/v2_depth_duration_MTurk/v2_DepthDuration_HTML.html#65,65,1366,625,1366,768,8-29-2022,10-3-28,111,depth_duration_stimuli/003423_2014-05-21_10-23-26_094959634447_rgbf002665-resize_2/003423_2014-05-21_10-23-26_094959634447_rgbf002665-resize_2-target.png,250,3.2575,1,2503,249,feet,jsons/v1_VE250_randls_8.json,557659,1000510,21,Woman
111,420492,DepthScenes,duration_manipulation_targetAtFixation,jsons/v1_VE250_randls_8.json,http://54.235.29.9/FacialAge/BNav_EC2/DepthDuration/v2_depth_duration_MTurk/v2_DepthDuration_HTML.html#65,65,1366,625,1366,768,8-29-2022,10-3-28,112,depth_duration_stimuli/002279_2014-06-28_18-55-32_260595134347_rgbf000040-resize_5/002279_2014-06-28_18-55-32_260595134347_rgbf000040-resize_5-target.png,250,1.5043333333333,2,2356,249,feet,jsons/v1_VE250_randls_8.json,557659,1000510,21,Woman
112,420492,DepthScenes,duration_manipulation_targetAtFixation,jsons/v1_VE250_randls_8.json,http://54.235.29.9/FacialAge/BNav_EC2/DepthDuration/v2_depth_duration_MTurk/v2_DepthDuration_HTML.html#65,65,1366,625,1366,768,8-29-2022,10-3-28,113,depth_duration_stimuli/000635_2014-06-08_16-38-42_260595134347_rgbf000106-resize_1/000635_2014-06-08_16-38-42_260595134347_rgbf000106-resize_1-target.png,250,2.074,5,2692,251,feet,jsons/v1_VE250_randls_8.json,557659,1000510,21,Woman
113,420492,DepthScenes,duration_manipulation_targetAtFixation,jsons/v1_VE250_randls_8.json,http://54.235.29.9/FacialAge/BNav_EC2/DepthDuration/v2_depth_duration_MTurk/v2_DepthDuration_HTML.html#65,65,1366,625,1366,768,8-29-2022,10-3-28,114,depth_duration_stimuli/002153_2014-06-25_21-27-18_260595134347_rgbf000038-resize_5/002153_2014-06-25_21-27-18_260595134347_rgbf000038-resize_5-target.png,250,2.505,1,2291,249,feet,jsons/v1_VE250_randls_8.json,557659,1000510,21,Woman
114,420492,DepthScenes,duration_manipulation_targetAtFixation,jsons/v1_VE250_randls_8.json,http://54.235.29.9/FacialAge/BNav_EC2/DepthDuration/v2_depth_duration_MTurk/v2_DepthDuration_HTML.html#65,65,1366,625,1366,768,8-29-2022,10-3-28,115,depth_duration_stimuli/002660_2014-06-13_15-44-18_094959634447_rgbf001878-resize_2/002660_2014-06-13_15-44-18_094959634447_rgbf001878-resize_2-target.png,250,3.576,3,2552,249,feet,jsons/v1_VE250_randls_8.json,557659,1000510,21,Woman
115,420492,DepthScenes,duration_manipulation_targetAtFixation,jsons/v1_VE250_randls_8.json,http://54.235.29.9/FacialAge/BNav_EC2/DepthDuration/v2_depth_duration_MTurk/v2_DepthDuration_HTML.html#65,65,1366,625,1366,768,8-29-2022,10-3-28,116,depth_duration_stimuli/001170_2014-06-17_15-43-44_260595134347_rgbf000096-resize_6/001170_2014-06-17_15-43-44_260595134347_rgbf000096-resize-original.jpg,250,1.1909999999999998,0,3596,250,feet,jsons/v1_VE250_randls_8.json,557659,1000510,21,Woman
116,420492,DepthScenes,duration_manipulation_targetAtFixation,jsons/v1_VE250_randls_8.json,http://54.235.29.9/FacialAge/BNav_EC2/DepthDuration/v2_depth_duration_MTurk/v2_DepthDuration_HTML.html#65,65,1366,625,1366,768,8-29-2022,10-3-28,117,depth_duration_stimuli/000522_2014-06-08_13-35-06_260595134347_rgbf000244-resize_1/000522_2014-06-08_13-35-06_260595134347_rgbf000244-resize_1-target.png,250,2.3715,2,3969,249,feet,jsons/v1_VE250_randls_8.json,557659,1000510,21,Woman
117,420492,DepthScenes,duration_manipulation_targetAtFixation,jsons/v1_VE250_randls_8.json,http://54.235.29.9/FacialAge/BNav_EC2/DepthDuration/v2_depth_duration_MTurk/v2_DepthDuration_HTML.html#65,65,1366,625,1366,768,8-29-2022,10-3-28,118,depth_duration_stimuli/002949_2014-06-26_15-57-42_094959634447_rgbf000079-resize_1/002949_2014-06-26_15-57-42_094959634447_rgbf000079-resize_1-target.png,250,1.8915,3,2938,249,feet,jsons/v1_VE250_randls_8.json,557659,1000510,21,Woman
118,420492,DepthScenes,duration_manipulation_targetAtFixation,jsons/v1_VE250_randls_8.json,http://54.235.29.9/FacialAge/BNav_EC2/DepthDuration/v2_depth_duration_MTurk/v2_DepthDuration_HTML.html#65,65,1366,625,1366,768,8-29-2022,10-3-28,119,depth_duration_stimuli/002272_2014-06-28_18-53-56_260595134347_rgbf000067-resize_2/002272_2014-06-28_18-53-56_260595134347_rgbf000067-resize_2-target.png,250,1.138,3,2451,249,feet,jsons/v1_VE250_randls_8.json,557659,1000510,21,Woman
119,420492,DepthScenes,duration_manipulation_targetAtFixation,jsons/v1_VE250_randls_8.json,http://54.235.29.9/FacialAge/BNav_EC2/DepthDuration/v2_depth_duration_MTurk/v2_DepthDuration_HTML.html#65,65,1366,625,1366,768,8-29-2022,10-3-28,120,depth_duration_stimuli/001571_2014-06-20_17-21-32_260595134347_rgbf000089-resize_1/001571_2014-06-20_17-21-32_260595134347_rgbf000089-resize_1-target.png,250,1.86,2,2553,249,feet,jsons/v1_VE250_randls_8.json,557659,1000510,21,Woman
120,420492,DepthScenes,duration_manipulation_targetAtFixation,jsons/v1_VE250_randls_8.json,http://54.235.29.9/FacialAge/BNav_EC2/DepthDuration/v2_depth_duration_MTurk/v2_DepthDuration_HTML.html#65,65,1366,625,1366,768,8-29-2022,10-3-28,121,depth_duration_stimuli/002213_2014-06-28_18-37-58_260595134347_rgbf000055-resize_1/002213_2014-06-28_18-37-58_260595134347_rgbf000055-resize_1-target.png,250,3.62,5,5423,249,feet,jsons/v1_VE250_randls_8.json,557659,1000510,21,Woman
121,420492,DepthScenes,duration_manipulation_targetAtFixation,jsons/v1_VE250_randls_8.json,http://54.235.29.9/FacialAge/BNav_EC2/DepthDuration/v2_depth_duration_MTurk/v2_DepthDuration_HTML.html#65,65,1366,625,1366,768,8-29-2022,10-3-28,122,depth_duration_stimuli/000691_2014-06-08_13-08-50_260595134347_rgbf000132-resize_3/000691_2014-06-08_13-08-50_260595134347_rgbf000132-resize_3-target.png,250,4.1530000000000005,2,2850,249,feet,jsons/v1_VE250_randls_8.json,557659,1000510,21,Woman
122,420492,DepthScenes,duration_manipulation_targetAtFixation,jsons/v1_VE250_randls_8.json,http://54.235.29.9/FacialAge/BNav_EC2/DepthDuration/v2_depth_duration_MTurk/v2_DepthDuration_HTML.html#65,65,1366,625,1366,768,8-29-2022,10-3-28,123,depth_duration_stimuli/002570_2014-06-24_13-59-54_094959634447_rgbf000059-resize_0/002570_2014-06-24_13-59-54_094959634447_rgbf000059-resize_0-target.png,250,4.037,3,5281,249,feet,jsons/v1_VE250_randls_8.json,557659,1000510,21,Woman
123,420492,DepthScenes,duration_manipulation_targetAtFixation,jsons/v1_VE250_randls_8.json,http://54.235.29.9/FacialAge/BNav_EC2/DepthDuration/v2_depth_duration_MTurk/v2_DepthDuration_HTML.html#65,65,1366,625,1366,768,8-29-2022,10-3-28,124,depth_duration_stimuli/002467_2014-06-28_20-38-07_260595134347_rgbf000026-resize_2/002467_2014-06-28_20-38-07_260595134347_rgbf000026-resize_2-target.png,250,4.742,4,3276,249,feet,jsons/v1_VE250_randls_8.json,557659,1000510,21,Woman
124,420492,DepthScenes,duration_manipulation_targetAtFixation,jsons/v1_VE250_randls_8.json,http://54.235.29.9/FacialAge/BNav_EC2/DepthDuration/v2_depth_duration_MTurk/v2_DepthDuration_HTML.html#65,65,1366,625,1366,768,8-29-2022,10-3-28,125,depth_duration_stimuli/002043_2014-06-24_20-29-38_260595134347_rgbf000039-resize_4/002043_2014-06-24_20-29-38_260595134347_rgbf000039-resize_4-target.png,250,2.8435,3,4529,248,feet,jsons/v1_VE250_randls_8.json,557659,1000510,21,Woman
125,420492,DepthScenes,duration_manipulation_targetAtFixation,jsons/v1_VE250_randls_8.json,http://54.235.29.9/FacialAge/BNav_EC2/DepthDuration/v2_depth_duration_MTurk/v2_DepthDuration_HTML.html#65,65,1366,625,1366,768,8-29-2022,10-3-28,126,depth_duration_stimuli/003048_2014-06-15_13-49-43_094959634447_rgbf000150-resize_1/003048_2014-06-15_13-49-43_094959634447_rgbf000150-resize_1-target.png,250,4.0035,5,2762,249,feet,jsons/v1_VE250_randls_8.json,557659,1000510,21,Woman
126,420492,DepthScenes,duration_manipulation_targetAtFixation,jsons/v1_VE250_randls_8.json,http://54.235.29.9/FacialAge/BNav_EC2/DepthDuration/v2_depth_duration_MTurk/v2_DepthDuration_HTML.html#65,65,1366,625,1366,768,8-29-2022,10-3-28,127,depth_duration_stimuli/002988_2014-06-15_12-24-20_094959634447_rgbf000150-resize_1/002988_2014-06-15_12-24-20_094959634447_rgbf000150-resize_1-target.png,250,4.7669999999999995,6,3009,249,feet,jsons/v1_VE250_randls_8.json,557659,1000510,21,Woman
127,420492,DepthScenes,duration_manipulation_targetAtFixation,jsons/v1_VE250_randls_8.json,http://54.235.29.9/FacialAge/BNav_EC2/DepthDuration/v2_depth_duration_MTurk/v2_DepthDuration_HTML.html#65,65,1366,625,1366,768,8-29-2022,10-3-28,128,depth_duration_stimuli/001052_2014-06-08_18-24-54_260595134347_rgbf000130-resize_1/001052_2014-06-08_18-24-54_260595134347_rgbf000130-resize_1-target.png,250,4.1045,3,6086,249,feet,jsons/v1_VE250_randls_8.json,557659,1000510,21,Woman
128,420492,DepthScenes,duration_manipulation_targetAtFixation,jsons/v1_VE250_randls_8.json,http://54.235.29.9/FacialAge/BNav_EC2/DepthDuration/v2_depth_duration_MTurk/v2_DepthDuration_HTML.html#65,65,1366,625,1366,768,8-29-2022,10-3-28,129,depth_duration_stimuli/000692_2014-06-08_13-09-42_260595134347_rgbf000199-resize_2/000692_2014-06-08_13-09-42_260595134347_rgbf000199-resize_2-target.png,250,3.661,5,6848,250,feet,jsons/v1_VE250_randls_8.json,557659,1000510,21,Woman
129,420492,DepthScenes,duration_manipulation_targetAtFixation,jsons/v1_VE250_randls_8.json,http://54.235.29.9/FacialAge/BNav_EC2/DepthDuration/v2_depth_duration_MTurk/v2_DepthDuration_HTML.html#65,65,1366,625,1366,768,8-29-2022,10-3-28,130,depth_duration_stimuli/001094_2014-06-15_17-36-00_260595134347_rgbf000205-resize_0/001094_2014-06-15_17-36-00_260595134347_rgbf000205-resize_0-target.png,250,4.2175,3,2322,249,feet,jsons/v1_VE250_randls_8.json,557659,1000510,21,Woman
130,420492,DepthScenes,duration_manipulation_targetAtFixation,jsons/v1_VE250_randls_8.json,http://54.235.29.9/FacialAge/BNav_EC2/DepthDuration/v2_depth_duration_MTurk/v2_DepthDuration_HTML.html#65,65,1366,625,1366,768,8-29-2022,10-3-28,131,depth_duration_stimuli/001555_2014-06-20_17-12-10_260595134347_rgbf000065-resize_4/001555_2014-06-20_17-12-10_260595134347_rgbf000065-resize_4-target.png,250,1.633,1,2754,249,feet,jsons/v1_VE250_randls_8.json,557659,1000510,21,Woman
131,420492,DepthScenes,duration_manipulation_targetAtFixation,jsons/v1_VE250_randls_8.json,http://54.235.29.9/FacialAge/BNav_EC2/DepthDuration/v2_depth_duration_MTurk/v2_DepthDuration_HTML.html#65,65,1366,625,1366,768,8-29-2022,10-3-28,132,depth_duration_stimuli/000103_2014-05-14_22-01-17_260595134347_rgbf000152-resize_5/000103_2014-05-14_22-01-17_260595134347_rgbf000152-resize_5-target.png,250,1.993,5,2730,249,feet,jsons/v1_VE250_randls_8.json,557659,1000510,21,Woman
132,420492,DepthScenes,duration_manipulation_targetAtFixation,jsons/v1_VE250_randls_8.json,http://54.235.29.9/FacialAge/BNav_EC2/DepthDuration/v2_depth_duration_MTurk/v2_DepthDuration_HTML.html#65,65,1366,625,1366,768,8-29-2022,10-3-28,133,depth_duration_stimuli/002057_2014-06-24_21-00-13_260595134347_rgbf000120-resize_1/002057_2014-06-24_21-00-13_260595134347_rgbf000120-resize_1-target.png,250,2.967,6,2258,249,feet,jsons/v1_VE250_randls_8.json,557659,1000510,21,Woman
133,420492,DepthScenes,duration_manipulation_targetAtFixation,jsons/v1_VE250_randls_8.json,http://54.235.29.9/FacialAge/BNav_EC2/DepthDuration/v2_depth_duration_MTurk/v2_DepthDuration_HTML.html#65,65,1366,625,1366,768,8-29-2022,10-3-28,134,depth_duration_stimuli/000709_2014-06-08_13-51-55_260595134347_rgbf000068-resize_3/000709_2014-06-08_13-51-55_260595134347_rgbf000068-resize_3-target.png,250,1.8030000000000002,6,2498,249,feet,jsons/v1_VE250_randls_8.json,557659,1000510,21,Woman
134,420492,DepthScenes,duration_manipulation_targetAtFixation,jsons/v1_VE250_randls_8.json,http://54.235.29.9/FacialAge/BNav_EC2/DepthDuration/v2_depth_duration_MTurk/v2_DepthDuration_HTML.html#65,65,1366,625,1366,768,8-29-2022,10-3-28,135,depth_duration_stimuli/002072_2014-06-24_21-48-06_260595134347_rgbf000115-resize_0/002072_2014-06-24_21-48-06_260595134347_rgbf000115-resize-original.jpg,250,4.702,0,2619,248,feet,jsons/v1_VE250_randls_8.json,557659,1000510,21,Woman
135,420492,DepthScenes,duration_manipulation_targetAtFixation,jsons/v1_VE250_randls_8.json,http://54.235.29.9/FacialAge/BNav_EC2/DepthDuration/v2_depth_duration_MTurk/v2_DepthDuration_HTML.html#65,65,1366,625,1366,768,8-29-2022,10-3-28,136,depth_duration_stimuli/002600_2014-06-24_14-27-04_094959634447_rgbf000074-resize_2/002600_2014-06-24_14-27-04_094959634447_rgbf000074-resize_2-target.png,250,2.7575,1,2425,249,feet,jsons/v1_VE250_randls_8.json,557659,1000510,21,Woman
136,420492,DepthScenes,duration_manipulation_targetAtFixation,jsons/v1_VE250_randls_8.json,http://54.235.29.9/FacialAge/BNav_EC2/DepthDuration/v2_depth_duration_MTurk/v2_DepthDuration_HTML.html#65,65,1366,625,1366,768,8-29-2022,10-3-28,137,depth_duration_stimuli/003228_2014-05-14_13-42-35_094959634447_rgbf000101-resize_1/003228_2014-05-14_13-42-35_094959634447_rgbf000101-resize_1-target.png,250,1.9680000000000002,2,2378,250,feet,jsons/v1_VE250_randls_8.json,557659,1000510,21,Woman
137,420492,DepthScenes,duration_manipulation_targetAtFixation,jsons/v1_VE250_randls_8.json,http://54.235.29.9/FacialAge/BNav_EC2/DepthDuration/v2_depth_duration_MTurk/v2_DepthDuration_HTML.html#65,65,1366,625,1366,768,8-29-2022,10-3-28,138,depth_duration_stimuli/002445_2014-06-28_20-32-16_260595134347_rgbf000029-resize_4/002445_2014-06-28_20-32-16_260595134347_rgbf000029-resize_4-target.png,250,2.5315,2,2225,250,feet,jsons/v1_VE250_randls_8.json,557659,1000510,21,Woman
138,420492,DepthScenes,duration_manipulation_targetAtFixation,jsons/v1_VE250_randls_8.json,http://54.235.29.9/FacialAge/BNav_EC2/DepthDuration/v2_depth_duration_MTurk/v2_DepthDuration_HTML.html#65,65,1366,625,1366,768,8-29-2022,10-3-28,139,depth_duration_stimuli/000780_2014-06-08_22-28-29_260595134347_rgbf000126-resize_1/000780_2014-06-08_22-28-29_260595134347_rgbf000126-resize_1-target.png,250,3.3825,4,2337,249,feet,jsons/v1_VE250_randls_8.json,557659,1000510,21,Woman
139,420492,DepthScenes,duration_manipulation_targetAtFixation,jsons/v1_VE250_randls_8.json,http://54.235.29.9/FacialAge/BNav_EC2/DepthDuration/v2_depth_duration_MTurk/v2_DepthDuration_HTML.html#65,65,1366,625,1366,768,8-29-2022,10-3-28,140,depth_duration_stimuli/002549_2014-06-24_13-41-39_094959634447_rgbf000022-resize_3/002549_2014-06-24_13-41-39_094959634447_rgbf000022-resize_3-target.png,250,1.476,4,2396,249,feet,jsons/v1_VE250_randls_8.json,557659,1000510,21,Woman
140,420492,DepthScenes,duration_manipulation_targetAtFixation,jsons/v1_VE250_randls_8.json,http://54.235.29.9/FacialAge/BNav_EC2/DepthDuration/v2_depth_duration_MTurk/v2_DepthDuration_HTML.html#65,65,1366,625,1366,768,8-29-2022,10-3-28,141,depth_duration_stimuli/002750_2014-06-22_19-08-03_094959634447_rgbf000094-resize_4/002750_2014-06-22_19-08-03_094959634447_rgbf000094-resize_4-target.png,250,2.354,5,2600,250,feet,jsons/v1_VE250_randls_8.json,557659,1000510,21,Woman
141,420492,DepthScenes,duration_manipulation_targetAtFixation,jsons/v1_VE250_randls_8.json,http://54.235.29.9/FacialAge/BNav_EC2/DepthDuration/v2_depth_duration_MTurk/v2_DepthDuration_HTML.html#65,65,1366,625,1366,768,8-29-2022,10-3-28,142,depth_duration_stimuli/000878_2014-06-08_22-52-45_260595134347_rgbf000045-resize_2/000878_2014-06-08_22-52-45_260595134347_rgbf000045-resize_2-target.png,250,2.092,5,2349,249,feet,jsons/v1_VE250_randls_8.json,557659,1000510,21,Woman
142,420492,DepthScenes,duration_manipulation_targetAtFixation,jsons/v1_VE250_randls_8.json,http://54.235.29.9/FacialAge/BNav_EC2/DepthDuration/v2_depth_duration_MTurk/v2_DepthDuration_HTML.html#65,65,1366,625,1366,768,8-29-2022,10-3-28,143,depth_duration_stimuli/002953_2014-06-08_17-32-18_094959634447_rgbf000059-resize_5/002953_2014-06-08_17-32-18_094959634447_rgbf000059-resize_5-target.png,250,1.551,3,3385,249,feet,jsons/v1_VE250_randls_8.json,557659,1000510,21,Woman
143,420492,DepthScenes,duration_manipulation_targetAtFixation,jsons/v1_VE250_randls_8.json,http://54.235.29.9/FacialAge/BNav_EC2/DepthDuration/v2_depth_duration_MTurk/v2_DepthDuration_HTML.html#65,65,1366,625,1366,768,8-29-2022,10-3-28,144,depth_duration_stimuli/001016_2014-06-09_16-16-10_260595134347_rgbf000112-resize_5/001016_2014-06-09_16-16-10_260595134347_rgbf000112-resize_5-target.png,250,1.6565,3,12076,249,feet,jsons/v1_VE250_randls_8.json,557659,1000510,21,Woman
144,420492,DepthScenes,duration_manipulation_targetAtFixation,jsons/v1_VE250_randls_8.json,http://54.235.29.9/FacialAge/BNav_EC2/DepthDuration/v2_depth_duration_MTurk/v2_DepthDuration_HTML.html#65,65,1366,625,1366,768,8-29-2022,10-3-28,145,depth_duration_stimuli/002340_2014-06-28_20-05-46_260595134347_rgbf000113-resize_0/002340_2014-06-28_20-05-46_260595134347_rgbf000113-resize_0-target.png,250,2.4735,6,3816,249,feet,jsons/v1_VE250_randls_8.json,557659,1000510,21,Woman
145,420492,DepthScenes,duration_manipulation_targetAtFixation,jsons/v1_VE250_randls_8.json,http://54.235.29.9/FacialAge/BNav_EC2/DepthDuration/v2_depth_duration_MTurk/v2_DepthDuration_HTML.html#65,65,1366,625,1366,768,8-29-2022,10-3-28,146,depth_duration_stimuli/001498_2014-06-19_17-45-14_260595134347_rgbf000129-resize_4/001498_2014-06-19_17-45-14_260595134347_rgbf000129-resize-original.jpg,250,1.4075,0,3018,249,feet,jsons/v1_VE250_randls_8.json,557659,1000510,21,Woman
146,420492,DepthScenes,duration_manipulation_targetAtFixation,jsons/v1_VE250_randls_8.json,http://54.235.29.9/FacialAge/BNav_EC2/DepthDuration/v2_depth_duration_MTurk/v2_DepthDuration_HTML.html#65,65,1366,625,1366,768,8-29-2022,10-3-28,147,depth_duration_stimuli/001055_2014-06-08_18-45-35_260595134347_rgbf000111-resize_4/001055_2014-06-08_18-45-35_260595134347_rgbf000111-resize_4-target.png,250,2.4290000000000003,6,2630,249,feet,jsons/v1_VE250_randls_8.json,557659,1000510,21,Woman
147,420492,DepthScenes,duration_manipulation_targetAtFixation,jsons/v1_VE250_randls_8.json,http://54.235.29.9/FacialAge/BNav_EC2/DepthDuration/v2_depth_duration_MTurk/v2_DepthDuration_HTML.html#65,65,1366,625,1366,768,8-29-2022,10-3-28,148,depth_duration_stimuli/000549_2014-06-08_22-10-24_260595134347_rgbf000247-resize_3/000549_2014-06-08_22-10-24_260595134347_rgbf000247-resize_3-target.png,250,1.841,4,12099,249,feet,jsons/v1_VE250_randls_8.json,557659,1000510,21,Woman
148,420492,DepthScenes,duration_manipulation_targetAtFixation,jsons/v1_VE250_randls_8.json,http://54.235.29.9/FacialAge/BNav_EC2/DepthDuration/v2_depth_duration_MTurk/v2_DepthDuration_HTML.html#65,65,1366,625,1366,768,8-29-2022,10-3-28,149,depth_duration_stimuli/001808_2014-06-26_20-50-58_260595134347_rgbf000029-resize_1/001808_2014-06-26_20-50-58_260595134347_rgbf000029-resize_1-target.png,250,4.249,4,2720,250,feet,jsons/v1_VE250_randls_8.json,557659,1000510,21,Woman
149,420492,DepthScenes,duration_manipulation_targetAtFixation,jsons/v1_VE250_randls_8.json,http://54.235.29.9/FacialAge/BNav_EC2/DepthDuration/v2_depth_duration_MTurk/v2_DepthDuration_HTML.html#65,65,1366,625,1366,768,8-29-2022,10-3-28,150,depth_duration_stimuli/001815_2014-06-26_20-52-55_260595134347_rgbf000020-resize_0/001815_2014-06-26_20-52-55_260595134347_rgbf000020-resize_0-target.png,250,3.3865,6,2370,250,feet,jsons/v1_VE250_randls_8.json,557659,1000510,21,Woman
150,420492,DepthScenes,duration_manipulation_targetAtFixation,jsons/v1_VE250_randls_8.json,http://54.235.29.9/FacialAge/BNav_EC2/DepthDuration/v2_depth_duration_MTurk/v2_DepthDuration_HTML.html#65,65,1366,625,1366,768,8-29-2022,10-3-28,151,depth_duration_stimuli/001011_2014-06-08_23-18-54_260595134347_rgbf000044-resize_4/001011_2014-06-08_23-18-54_260595134347_rgbf000044-resize_4-target.png,250,2.4730000000000003,4,3193,249,feet,jsons/v1_VE250_randls_8.json,557659,1000510,21,Woman
151,420492,DepthScenes,duration_manipulation_targetAtFixation,jsons/v1_VE250_randls_8.json,http://54.235.29.9/FacialAge/BNav_EC2/DepthDuration/v2_depth_duration_MTurk/v2_DepthDuration_HTML.html#65,65,1366,625,1366,768,8-29-2022,10-3-28,152,depth_duration_stimuli/002875_2014-06-01_15-19-00_094959634447_rgbf000151-resize_1/002875_2014-06-01_15-19-00_094959634447_rgbf000151-resize_1-target.png,250,1.9675,5,2658,249,feet,jsons/v1_VE250_randls_8.json,557659,1000510,21,Woman
152,420492,DepthScenes,duration_manipulation_targetAtFixation,jsons/v1_VE250_randls_8.json,http://54.235.29.9/FacialAge/BNav_EC2/DepthDuration/v2_depth_duration_MTurk/v2_DepthDuration_HTML.html#65,65,1366,625,1366,768,8-29-2022,10-3-28,153,depth_duration_stimuli/002725_2014-06-22_11-47-51_094959634447_rgbf000070-resize_1/002725_2014-06-22_11-47-51_094959634447_rgbf000070-resize_1-target.png,250,2.195,5,3242,249,feet,jsons/v1_VE250_randls_8.json,557659,1000510,21,Woman
153,420492,DepthScenes,duration_manipulation_targetAtFixation,jsons/v1_VE250_randls_8.json,http://54.235.29.9/FacialAge/BNav_EC2/DepthDuration/v2_depth_duration_MTurk/v2_DepthDuration_HTML.html#65,65,1366,625,1366,768,8-29-2022,10-3-28,154,depth_duration_stimuli/002344_2014-06-28_20-06-29_260595134347_rgbf000030-resize_1/002344_2014-06-28_20-06-29_260595134347_rgbf000030-resize_1-target.png,250,1.5795,2,2650,249,feet,jsons/v1_VE250_randls_8.json,557659,1000510,21,Woman
154,420492,DepthScenes,duration_manipulation_targetAtFixation,jsons/v1_VE250_randls_8.json,http://54.235.29.9/FacialAge/BNav_EC2/DepthDuration/v2_depth_duration_MTurk/v2_DepthDuration_HTML.html#65,65,1366,625,1366,768,8-29-2022,10-3-28,155,depth_duration_stimuli/001806_2014-06-26_20-50-20_260595134347_rgbf000091-resize_1/001806_2014-06-26_20-50-20_260595134347_rgbf000091-resize_1-target.png,250,2.7305,2,5146,249,feet,jsons/v1_VE250_randls_8.json,557659,1000510,21,Woman
155,420492,DepthScenes,duration_manipulation_targetAtFixation,jsons/v1_VE250_randls_8.json,http://54.235.29.9/FacialAge/BNav_EC2/DepthDuration/v2_depth_duration_MTurk/v2_DepthDuration_HTML.html#65,65,1366,625,1366,768,8-29-2022,10-3-28,156,depth_duration_stimuli/001617_2014-06-20_11-35-32_260595134347_rgbf000066-resize_1/001617_2014-06-20_11-35-32_260595134347_rgbf000066-resize_1-target.png,250,3.7910000000000004,4,2713,249,feet,jsons/v1_VE250_randls_8.json,557659,1000510,21,Woman
156,420492,DepthScenes,duration_manipulation_targetAtFixation,jsons/v1_VE250_randls_8.json,http://54.235.29.9/FacialAge/BNav_EC2/DepthDuration/v2_depth_duration_MTurk/v2_DepthDuration_HTML.html#65,65,1366,625,1366,768,8-29-2022,10-3-28,157,depth_duration_stimuli/002375_2014-06-28_20-13-44_260595134347_rgbf000032-resize_1/002375_2014-06-28_20-13-44_260595134347_rgbf000032-resize_1-target.png,250,4.0175,3,2604,249,feet,jsons/v1_VE250_randls_8.json,557659,1000510,21,Woman
157,420492,DepthScenes,duration_manipulation_targetAtFixation,jsons/v1_VE250_randls_8.json,http://54.235.29.9/FacialAge/BNav_EC2/DepthDuration/v2_depth_duration_MTurk/v2_DepthDuration_HTML.html#65,65,1366,625,1366,768,8-29-2022,10-3-28,158,depth_duration_stimuli/002657_2014-06-13_15-29-54_094959634447_rgbf000150-resize_1/002657_2014-06-13_15-29-54_094959634447_rgbf000150-resize_1-target.png,250,4.919,3,2514,249,feet,jsons/v1_VE250_randls_8.json,557659,1000510,21,Woman
158,420492,DepthScenes,duration_manipulation_targetAtFixation,jsons/v1_VE250_randls_8.json,http://54.235.29.9/FacialAge/BNav_EC2/DepthDuration/v2_depth_duration_MTurk/v2_DepthDuration_HTML.html#65,65,1366,625,1366,768,8-29-2022,10-3-28,159,depth_duration_stimuli/000470_2014-06-09_19-42-40_260595134347_rgbf000094-resize_1/000470_2014-06-09_19-42-40_260595134347_rgbf000094-resize_1-target.png,250,1.831,2,2274,249,feet,jsons/v1_VE250_randls_8.json,557659,1000510,21,Woman
159,420492,DepthScenes,duration_manipulation_targetAtFixation,jsons/v1_VE250_randls_8.json,http://54.235.29.9/FacialAge/BNav_EC2/DepthDuration/v2_depth_duration_MTurk/v2_DepthDuration_HTML.html#65,65,1366,625,1366,768,8-29-2022,10-3-28,160,depth_duration_stimuli/000109_2014-05-14_23-41-52_260595134347_rgbf000035-resize_9/000109_2014-05-14_23-41-52_260595134347_rgbf000035-resize_9-target.png,250,1.3545,1,2154,249,feet,jsons/v1_VE250_randls_8.json,557659,1000510,21,Woman
160,420492,DepthScenes,duration_manipulation_targetAtFixation,jsons/v1_VE250_randls_8.json,http://54.235.29.9/FacialAge/BNav_EC2/DepthDuration/v2_depth_duration_MTurk/v2_DepthDuration_HTML.html#65,65,1366,625,1366,768,8-29-2022,10-3-28,161,depth_duration_stimuli/002964_2014-06-08_17-46-11_094959634447_rgbf000091-resize_4/002964_2014-06-08_17-46-11_094959634447_rgbf000091-resize_4-target.png,250,1.6909999999999998,3,2194,249,feet,jsons/v1_VE250_randls_8.json,557659,1000510,21,Woman
161,420492,DepthScenes,duration_manipulation_targetAtFixation,jsons/v1_VE250_randls_8.json,http://54.235.29.9/FacialAge/BNav_EC2/DepthDuration/v2_depth_duration_MTurk/v2_DepthDuration_HTML.html#65,65,1366,625,1366,768,8-29-2022,10-3-28,162,depth_duration_stimuli/002136_2014-06-25_21-18-03_260595134347_rgbf000109-resize_3/002136_2014-06-25_21-18-03_260595134347_rgbf000109-resize_3-target.png,250,1.9569999999999999,3,2108,249,feet,jsons/v1_VE250_randls_8.json,557659,1000510,21,Woman
162,420492,DepthScenes,duration_manipulation_targetAtFixation,jsons/v1_VE250_randls_8.json,http://54.235.29.9/FacialAge/BNav_EC2/DepthDuration/v2_depth_duration_MTurk/v2_DepthDuration_HTML.html#65,65,1366,625,1366,768,8-29-2022,10-3-28,163,depth_duration_stimuli/000447_2014-06-08_16-15-46_260595134347_rgbf000130-resize_1/000447_2014-06-08_16-15-46_260595134347_rgbf000130-resize_1-target.png,250,4.479,4,2504,250,feet,jsons/v1_VE250_randls_8.json,557659,1000510,21,Woman
163,420492,DepthScenes,duration_manipulation_targetAtFixation,jsons/v1_VE250_randls_8.json,http://54.235.29.9/FacialAge/BNav_EC2/DepthDuration/v2_depth_duration_MTurk/v2_DepthDuration_HTML.html#65,65,1366,625,1366,768,8-29-2022,10-3-28,164,depth_duration_stimuli/001447_2014-06-19_17-00-32_260595134347_rgbf000082-resize_5/001447_2014-06-19_17-00-32_260595134347_rgbf000082-resize_5-target.png,250,4.13775,4,2139,250,feet,jsons/v1_VE250_randls_8.json,557659,1000510,21,Woman
