,subjID,experimentName,versionName,sequenceName,url,selected_row,windowWidth,windowHeight,screenWidth,screenHeight,startDate,startTime,trial,stimulus,duration,actual_depth,depth_estimate,trial_RT,log_sceneDuration,unitSelection,seq_filepath,experimentTime,totalTime,age,gender
0,425041,DepthScenes,duration_manipulation_targetAtFixation,jsons/VE125_randls_69_rotated.json,http://54.235.29.9/FacialAge/BNav_EC2/DepthDuration/v2_depth_duration_MTurk/v2_DepthDuration_HTML.html#16,16,1366,625,1366,768,8-21-2022,6-53-9,1,depth_duration_stimuli/000780_2014-06-08_22-28-29_260595134347_rgbf000126-resize_1/000780_2014-06-08_22-28-29_260595134347_rgbf000126-resize_1-target.png,125,3.3825,1,5668,124,meters,jsons/VE125_randls_69_rotated.json,540150,717901,59,Man
1,425041,DepthScenes,duration_manipulation_targetAtFixation,jsons/VE125_randls_69_rotated.json,http://54.235.29.9/FacialAge/BNav_EC2/DepthDuration/v2_depth_duration_MTurk/v2_DepthDuration_HTML.html#16,16,1366,625,1366,768,8-21-2022,6-53-9,2,depth_duration_stimuli/002445_2014-06-28_20-32-16_260595134347_rgbf000029-resize_4/002445_2014-06-28_20-32-16_260595134347_rgbf000029-resize_4-target.png,125,2.5315,1,3373,123,meters,jsons/VE125_randls_69_rotated.json,540150,717901,59,Man
2,425041,DepthScenes,duration_manipulation_targetAtFixation,jsons/VE125_randls_69_rotated.json,http://54.235.29.9/FacialAge/BNav_EC2/DepthDuration/v2_depth_duration_MTurk/v2_DepthDuration_HTML.html#16,16,1366,625,1366,768,8-21-2022,6-53-9,3,depth_duration_stimuli/000691_2014-06-08_13-08-50_260595134347_rgbf000132-resize_3/000691_2014-06-08_13-08-50_260595134347_rgbf000132-resize_3-target.png,125,4.1530000000000005,1,4621,109,meters,jsons/VE125_randls_69_rotated.json,540150,717901,59,Man
3,425041,DepthScenes,duration_manipulation_targetAtFixation,jsons/VE125_randls_69_rotated.json,http://54.235.29.9/FacialAge/BNav_EC2/DepthDuration/v2_depth_duration_MTurk/v2_DepthDuration_HTML.html#16,16,1366,625,1366,768,8-21-2022,6-53-9,4,depth_duration_stimuli/002213_2014-06-28_18-37-58_260595134347_rgbf000055-resize_1/002213_2014-06-28_18-37-58_260595134347_rgbf000055-resize_1-target.png,125,3.62,2,3658,122,meters,jsons/VE125_randls_69_rotated.json,540150,717901,59,Man
4,425041,DepthScenes,duration_manipulation_targetAtFixation,jsons/VE125_randls_69_rotated.json,http://54.235.29.9/FacialAge/BNav_EC2/DepthDuration/v2_depth_duration_MTurk/v2_DepthDuration_HTML.html#16,16,1366,625,1366,768,8-21-2022,6-53-9,5,depth_duration_stimuli/001447_2014-06-19_17-00-32_260595134347_rgbf000082-resize_5/001447_2014-06-19_17-00-32_260595134347_rgbf000082-resize_5-target.png,125,4.13775,1,2639,117,meters,jsons/VE125_randls_69_rotated.json,540150,717901,59,Man
5,425041,DepthScenes,duration_manipulation_targetAtFixation,jsons/VE125_randls_69_rotated.json,http://54.235.29.9/FacialAge/BNav_EC2/DepthDuration/v2_depth_duration_MTurk/v2_DepthDuration_HTML.html#16,16,1366,625,1366,768,8-21-2022,6-53-9,6,depth_duration_stimuli/000447_2014-06-08_16-15-46_260595134347_rgbf000130-resize_1/000447_2014-06-08_16-15-46_260595134347_rgbf000130-resize_1-target.png,125,4.479,2,2969,139,meters,jsons/VE125_randls_69_rotated.json,540150,717901,59,Man
6,425041,DepthScenes,duration_manipulation_targetAtFixation,jsons/VE125_randls_69_rotated.json,http://54.235.29.9/FacialAge/BNav_EC2/DepthDuration/v2_depth_duration_MTurk/v2_DepthDuration_HTML.html#16,16,1366,625,1366,768,8-21-2022,6-53-9,7,depth_duration_stimuli/000502_2014-06-08_23-02-32_260595134347_rgbf000063-resize_4/000502_2014-06-08_23-02-32_260595134347_rgbf000063-resize_4-target.png,125,2.431,1,2663,124,meters,jsons/VE125_randls_69_rotated.json,540150,717901,59,Man
7,425041,DepthScenes,duration_manipulation_targetAtFixation,jsons/VE125_randls_69_rotated.json,http://54.235.29.9/FacialAge/BNav_EC2/DepthDuration/v2_depth_duration_MTurk/v2_DepthDuration_HTML.html#16,16,1366,625,1366,768,8-21-2022,6-53-9,8,depth_duration_stimuli/001199_2014-06-17_16-03-48_260595134347_rgbf000077-resize_0/001199_2014-06-17_16-03-48_260595134347_rgbf000077-resize_0-target.png,125,3.4375,2,2328,104,meters,jsons/VE125_randls_69_rotated.json,540150,717901,59,Man
8,425041,DepthScenes,duration_manipulation_targetAtFixation,jsons/VE125_randls_69_rotated.json,http://54.235.29.9/FacialAge/BNav_EC2/DepthDuration/v2_depth_duration_MTurk/v2_DepthDuration_HTML.html#16,16,1366,625,1366,768,8-21-2022,6-53-9,9,depth_duration_stimuli/003129_2014-05-12_10-48-10_094959634447_rgbf000100-resize_0/003129_2014-05-12_10-48-10_094959634447_rgbf000100-resize_0-target.png,125,4.9305,2,2932,122,meters,jsons/VE125_randls_69_rotated.json,540150,717901,59,Man
9,425041,DepthScenes,duration_manipulation_targetAtFixation,jsons/VE125_randls_69_rotated.json,http://54.235.29.9/FacialAge/BNav_EC2/DepthDuration/v2_depth_duration_MTurk/v2_DepthDuration_HTML.html#16,16,1366,625,1366,768,8-21-2022,6-53-9,10,depth_duration_stimuli/000414_2014-06-04_19-49-13_260595134347_rgbf000044-resize_0/000414_2014-06-04_19-49-13_260595134347_rgbf000044-resize_0-target.png,125,4.329,2,4841,130,meters,jsons/VE125_randls_69_rotated.json,540150,717901,59,Man
10,425041,DepthScenes,duration_manipulation_targetAtFixation,jsons/VE125_randls_69_rotated.json,http://54.235.29.9/FacialAge/BNav_EC2/DepthDuration/v2_depth_duration_MTurk/v2_DepthDuration_HTML.html#16,16,1366,625,1366,768,8-21-2022,6-53-9,11,depth_duration_stimuli/003587_2014-05-23_16-48-02_094959634447_rgbf002384-resize_2/003587_2014-05-23_16-48-02_094959634447_rgbf002384-resize_2-target.png,125,1.357,3,4519,123,meters,jsons/VE125_randls_69_rotated.json,540150,717901,59,Man
11,425041,DepthScenes,duration_manipulation_targetAtFixation,jsons/VE125_randls_69_rotated.json,http://54.235.29.9/FacialAge/BNav_EC2/DepthDuration/v2_depth_duration_MTurk/v2_DepthDuration_HTML.html#16,16,1366,625,1366,768,8-21-2022,6-53-9,12,depth_duration_stimuli/001167_2014-06-17_15-38-07_260595134347_rgbf000108-resize_0/001167_2014-06-17_15-38-07_260595134347_rgbf000108-resize_0-target.png,125,1.8505,2,2630,124,meters,jsons/VE125_randls_69_rotated.json,540150,717901,59,Man
12,425041,DepthScenes,duration_manipulation_targetAtFixation,jsons/VE125_randls_69_rotated.json,http://54.235.29.9/FacialAge/BNav_EC2/DepthDuration/v2_depth_duration_MTurk/v2_DepthDuration_HTML.html#16,16,1366,625,1366,768,8-21-2022,6-53-9,13,depth_duration_stimuli/002637_2014-06-24_14-51-13_094959634447_rgbf000066-resize_4/002637_2014-06-24_14-51-13_094959634447_rgbf000066-resize_4-target.png,125,1.9955,1,3404,135,meters,jsons/VE125_randls_69_rotated.json,540150,717901,59,Man
13,425041,DepthScenes,duration_manipulation_targetAtFixation,jsons/VE125_randls_69_rotated.json,http://54.235.29.9/FacialAge/BNav_EC2/DepthDuration/v2_depth_duration_MTurk/v2_DepthDuration_HTML.html#16,16,1366,625,1366,768,8-21-2022,6-53-9,14,depth_duration_stimuli/003534_2014-05-22_15-06-10_094959634447_rgbf000102-resize_4/003534_2014-05-22_15-06-10_094959634447_rgbf000102-resize_4-target.png,125,1.426,2,3410,123,meters,jsons/VE125_randls_69_rotated.json,540150,717901,59,Man
14,425041,DepthScenes,duration_manipulation_targetAtFixation,jsons/VE125_randls_69_rotated.json,http://54.235.29.9/FacialAge/BNav_EC2/DepthDuration/v2_depth_duration_MTurk/v2_DepthDuration_HTML.html#16,16,1366,625,1366,768,8-21-2022,6-53-9,15,depth_duration_stimuli/000409_2014-06-04_19-23-33_260595134347_rgbf000067-resize_0/000409_2014-06-04_19-23-33_260595134347_rgbf000067-resize_0-target.png,125,3.7335,1,3316,123,meters,jsons/VE125_randls_69_rotated.json,540150,717901,59,Man
15,425041,DepthScenes,duration_manipulation_targetAtFixation,jsons/VE125_randls_69_rotated.json,http://54.235.29.9/FacialAge/BNav_EC2/DepthDuration/v2_depth_duration_MTurk/v2_DepthDuration_HTML.html#16,16,1366,625,1366,768,8-21-2022,6-53-9,16,depth_duration_stimuli/002663_2014-06-13_15-50-26_094959634447_rgbf000075-resize_1/002663_2014-06-13_15-50-26_094959634447_rgbf000075-resize_1-target.png,125,4.7495,1,3002,99,meters,jsons/VE125_randls_69_rotated.json,540150,717901,59,Man
16,425041,DepthScenes,duration_manipulation_targetAtFixation,jsons/VE125_randls_69_rotated.json,http://54.235.29.9/FacialAge/BNav_EC2/DepthDuration/v2_depth_duration_MTurk/v2_DepthDuration_HTML.html#16,16,1366,625,1366,768,8-21-2022,6-53-9,17,depth_duration_stimuli/000749_2014-06-08_21-55-06_260595134347_rgbf000070-resize_2/000749_2014-06-08_21-55-06_260595134347_rgbf000070-resize_2-target.png,125,2.331,1,4688,124,meters,jsons/VE125_randls_69_rotated.json,540150,717901,59,Man
17,425041,DepthScenes,duration_manipulation_targetAtFixation,jsons/VE125_randls_69_rotated.json,http://54.235.29.9/FacialAge/BNav_EC2/DepthDuration/v2_depth_duration_MTurk/v2_DepthDuration_HTML.html#16,16,1366,625,1366,768,8-21-2022,6-53-9,18,depth_duration_stimuli/002788_2014-06-22_19-36-03_094959634447_rgbf000088-resize_2/002788_2014-06-22_19-36-03_094959634447_rgbf000088-resize_2-target.png,125,1.6465,1,2458,139,meters,jsons/VE125_randls_69_rotated.json,540150,717901,59,Man
18,425041,DepthScenes,duration_manipulation_targetAtFixation,jsons/VE125_randls_69_rotated.json,http://54.235.29.9/FacialAge/BNav_EC2/DepthDuration/v2_depth_duration_MTurk/v2_DepthDuration_HTML.html#16,16,1366,625,1366,768,8-21-2022,6-53-9,19,depth_duration_stimuli/001498_2014-06-19_17-45-14_260595134347_rgbf000129-resize_4/001498_2014-06-19_17-45-14_260595134347_rgbf000129-resize-original.jpg,125,1.4075,0,5047,115,meters,jsons/VE125_randls_69_rotated.json,540150,717901,59,Man
19,425041,DepthScenes,duration_manipulation_targetAtFixation,jsons/VE125_randls_69_rotated.json,http://54.235.29.9/FacialAge/BNav_EC2/DepthDuration/v2_depth_duration_MTurk/v2_DepthDuration_HTML.html#16,16,1366,625,1366,768,8-21-2022,6-53-9,20,depth_duration_stimuli/003048_2014-06-15_13-49-43_094959634447_rgbf000150-resize_1/003048_2014-06-15_13-49-43_094959634447_rgbf000150-resize_1-target.png,125,4.0035,1,2839,123,meters,jsons/VE125_randls_69_rotated.json,540150,717901,59,Man
20,425041,DepthScenes,duration_manipulation_targetAtFixation,jsons/VE125_randls_69_rotated.json,http://54.235.29.9/FacialAge/BNav_EC2/DepthDuration/v2_depth_duration_MTurk/v2_DepthDuration_HTML.html#16,16,1366,625,1366,768,8-21-2022,6-53-9,21,depth_duration_stimuli/002043_2014-06-24_20-29-38_260595134347_rgbf000039-resize_4/002043_2014-06-24_20-29-38_260595134347_rgbf000039-resize_4-target.png,125,2.8435,1,2064,115,meters,jsons/VE125_randls_69_rotated.json,540150,717901,59,Man
21,425041,DepthScenes,duration_manipulation_targetAtFixation,jsons/VE125_randls_69_rotated.json,http://54.235.29.9/FacialAge/BNav_EC2/DepthDuration/v2_depth_duration_MTurk/v2_DepthDuration_HTML.html#16,16,1366,625,1366,768,8-21-2022,6-53-9,22,depth_duration_stimuli/000137_2014-05-20_17-04-49_260595134347_rgbf000120-resize_1/000137_2014-05-20_17-04-49_260595134347_rgbf000120-resize_1-target.png,125,3.786,1,2565,138,meters,jsons/VE125_randls_69_rotated.json,540150,717901,59,Man
22,425041,DepthScenes,duration_manipulation_targetAtFixation,jsons/VE125_randls_69_rotated.json,http://54.235.29.9/FacialAge/BNav_EC2/DepthDuration/v2_depth_duration_MTurk/v2_DepthDuration_HTML.html#16,16,1366,625,1366,768,8-21-2022,6-53-9,23,depth_duration_stimuli/000736_2014-06-08_18-24-15_260595134347_rgbf000206-resize_3/000736_2014-06-08_18-24-15_260595134347_rgbf000206-resize_3-target.png,125,3.515,1,2108,113,meters,jsons/VE125_randls_69_rotated.json,540150,717901,59,Man
23,425041,DepthScenes,duration_manipulation_targetAtFixation,jsons/VE125_randls_69_rotated.json,http://54.235.29.9/FacialAge/BNav_EC2/DepthDuration/v2_depth_duration_MTurk/v2_DepthDuration_HTML.html#16,16,1366,625,1366,768,8-21-2022,6-53-9,24,depth_duration_stimuli/002639_2014-06-24_14-51-37_094959634447_rgbf000074-resize_4/002639_2014-06-24_14-51-37_094959634447_rgbf000074-resize_4-target.png,125,4.0375,2,2854,123,meters,jsons/VE125_randls_69_rotated.json,540150,717901,59,Man
24,425041,DepthScenes,duration_manipulation_targetAtFixation,jsons/VE125_randls_69_rotated.json,http://54.235.29.9/FacialAge/BNav_EC2/DepthDuration/v2_depth_duration_MTurk/v2_DepthDuration_HTML.html#16,16,1366,625,1366,768,8-21-2022,6-53-9,25,depth_duration_stimuli/003292_2014-05-14_21-53-49_094959634447_rgbf000100-resize_2/003292_2014-05-14_21-53-49_094959634447_rgbf000100-resize_2-target.png,125,3.4815,2,2489,123,meters,jsons/VE125_randls_69_rotated.json,540150,717901,59,Man
25,425041,DepthScenes,duration_manipulation_targetAtFixation,jsons/VE125_randls_69_rotated.json,http://54.235.29.9/FacialAge/BNav_EC2/DepthDuration/v2_depth_duration_MTurk/v2_DepthDuration_HTML.html#16,16,1366,625,1366,768,8-21-2022,6-53-9,26,depth_duration_stimuli/001132_2014-06-17_14-48-54_260595134347_rgbf000100-resize_2/001132_2014-06-17_14-48-54_260595134347_rgbf000100-resize_2-target.png,125,3.753,1,2474,124,meters,jsons/VE125_randls_69_rotated.json,540150,717901,59,Man
26,425041,DepthScenes,duration_manipulation_targetAtFixation,jsons/VE125_randls_69_rotated.json,http://54.235.29.9/FacialAge/BNav_EC2/DepthDuration/v2_depth_duration_MTurk/v2_DepthDuration_HTML.html#16,16,1366,625,1366,768,8-21-2022,6-53-9,27,depth_duration_stimuli/001133_2014-06-17_14-49-16_260595134347_rgbf000100-resize_0/001133_2014-06-17_14-49-16_260595134347_rgbf000100-resize_0-target.png,125,4.2115,1,2949,124,meters,jsons/VE125_randls_69_rotated.json,540150,717901,59,Man
27,425041,DepthScenes,duration_manipulation_targetAtFixation,jsons/VE125_randls_69_rotated.json,http://54.235.29.9/FacialAge/BNav_EC2/DepthDuration/v2_depth_duration_MTurk/v2_DepthDuration_HTML.html#16,16,1366,625,1366,768,8-21-2022,6-53-9,28,depth_duration_stimuli/003081_2014-06-15_15-19-16_094959634447_rgbf000150-resize_1/003081_2014-06-15_15-19-16_094959634447_rgbf000150-resize_1-target.png,125,3.9125,1,3436,122,meters,jsons/VE125_randls_69_rotated.json,540150,717901,59,Man
28,425041,DepthScenes,duration_manipulation_targetAtFixation,jsons/VE125_randls_69_rotated.json,http://54.235.29.9/FacialAge/BNav_EC2/DepthDuration/v2_depth_duration_MTurk/v2_DepthDuration_HTML.html#16,16,1366,625,1366,768,8-21-2022,6-53-9,29,depth_duration_stimuli/001417_2014-06-19_16-25-36_260595134347_rgbf000115-resize_5/001417_2014-06-19_16-25-36_260595134347_rgbf000115-resize_5-target.png,125,4.6255,1,2148,123,meters,jsons/VE125_randls_69_rotated.json,540150,717901,59,Man
29,425041,DepthScenes,duration_manipulation_targetAtFixation,jsons/VE125_randls_69_rotated.json,http://54.235.29.9/FacialAge/BNav_EC2/DepthDuration/v2_depth_duration_MTurk/v2_DepthDuration_HTML.html#16,16,1366,625,1366,768,8-21-2022,6-53-9,30,depth_duration_stimuli/002072_2014-06-24_21-48-06_260595134347_rgbf000115-resize_0/002072_2014-06-24_21-48-06_260595134347_rgbf000115-resize-original.jpg,125,4.702,0,4870,124,meters,jsons/VE125_randls_69_rotated.json,540150,717901,59,Man
30,425041,DepthScenes,duration_manipulation_targetAtFixation,jsons/VE125_randls_69_rotated.json,http://54.235.29.9/FacialAge/BNav_EC2/DepthDuration/v2_depth_duration_MTurk/v2_DepthDuration_HTML.html#16,16,1366,625,1366,768,8-21-2022,6-53-9,31,depth_duration_stimuli/003423_2014-05-21_10-23-26_094959634447_rgbf002665-resize_2/003423_2014-05-21_10-23-26_094959634447_rgbf002665-resize_2-target.png,125,3.2575,1,2798,114,meters,jsons/VE125_randls_69_rotated.json,540150,717901,59,Man
31,425041,DepthScenes,duration_manipulation_targetAtFixation,jsons/VE125_randls_69_rotated.json,http://54.235.29.9/FacialAge/BNav_EC2/DepthDuration/v2_depth_duration_MTurk/v2_DepthDuration_HTML.html#16,16,1366,625,1366,768,8-21-2022,6-53-9,32,depth_duration_stimuli/002905_2014-06-03_18-04-43_094959634447_rgbf000151-resize_2/002905_2014-06-03_18-04-43_094959634447_rgbf000151-resize_2-target.png,125,2.0295,1,2254,111,meters,jsons/VE125_randls_69_rotated.json,540150,717901,59,Man
32,425041,DepthScenes,duration_manipulation_targetAtFixation,jsons/VE125_randls_69_rotated.json,http://54.235.29.9/FacialAge/BNav_EC2/DepthDuration/v2_depth_duration_MTurk/v2_DepthDuration_HTML.html#16,16,1366,625,1366,768,8-21-2022,6-53-9,33,depth_duration_stimuli/002340_2014-06-28_20-05-46_260595134347_rgbf000113-resize_0/002340_2014-06-28_20-05-46_260595134347_rgbf000113-resize_0-target.png,125,2.4735,2,2580,115,meters,jsons/VE125_randls_69_rotated.json,540150,717901,59,Man
33,425041,DepthScenes,duration_manipulation_targetAtFixation,jsons/VE125_randls_69_rotated.json,http://54.235.29.9/FacialAge/BNav_EC2/DepthDuration/v2_depth_duration_MTurk/v2_DepthDuration_HTML.html#16,16,1366,625,1366,768,8-21-2022,6-53-9,34,depth_duration_stimuli/001016_2014-06-09_16-16-10_260595134347_rgbf000112-resize_5/001016_2014-06-09_16-16-10_260595134347_rgbf000112-resize_5-target.png,125,1.6565,2,6910,97,meters,jsons/VE125_randls_69_rotated.json,540150,717901,59,Man
34,425041,DepthScenes,duration_manipulation_targetAtFixation,jsons/VE125_randls_69_rotated.json,http://54.235.29.9/FacialAge/BNav_EC2/DepthDuration/v2_depth_duration_MTurk/v2_DepthDuration_HTML.html#16,16,1366,625,1366,768,8-21-2022,6-53-9,35,depth_duration_stimuli/002414_2014-06-28_20-24-58_260595134347_rgbf000067-resize_4/002414_2014-06-28_20-24-58_260595134347_rgbf000067-resize_4-target.png,125,4.363,1,4029,124,meters,jsons/VE125_randls_69_rotated.json,540150,717901,59,Man
35,425041,DepthScenes,duration_manipulation_targetAtFixation,jsons/VE125_randls_69_rotated.json,http://54.235.29.9/FacialAge/BNav_EC2/DepthDuration/v2_depth_duration_MTurk/v2_DepthDuration_HTML.html#16,16,1366,625,1366,768,8-21-2022,6-53-9,36,depth_duration_stimuli/000773_2014-06-08_22-24-54_260595134347_rgbf000093-resize_1/000773_2014-06-08_22-24-54_260595134347_rgbf000093-resize_1-target.png,125,4.973,2,2430,119,meters,jsons/VE125_randls_69_rotated.json,540150,717901,59,Man
36,425041,DepthScenes,duration_manipulation_targetAtFixation,jsons/VE125_randls_69_rotated.json,http://54.235.29.9/FacialAge/BNav_EC2/DepthDuration/v2_depth_duration_MTurk/v2_DepthDuration_HTML.html#16,16,1366,625,1366,768,8-21-2022,6-53-9,37,depth_duration_stimuli/000483_2014-06-09_20-41-45_260595134347_rgbf000116-resize_4/000483_2014-06-09_20-41-45_260595134347_rgbf000116-resize_4-target.png,125,1.337,1,2690,139,meters,jsons/VE125_randls_69_rotated.json,540150,717901,59,Man
37,425041,DepthScenes,duration_manipulation_targetAtFixation,jsons/VE125_randls_69_rotated.json,http://54.235.29.9/FacialAge/BNav_EC2/DepthDuration/v2_depth_duration_MTurk/v2_DepthDuration_HTML.html#16,16,1366,625,1366,768,8-21-2022,6-53-9,38,depth_duration_stimuli/000469_2014-06-09_19-42-10_260595134347_rgbf000081-resize_1/000469_2014-06-09_19-42-10_260595134347_rgbf000081-resize_1-target.png,125,1.652,1,2067,112,meters,jsons/VE125_randls_69_rotated.json,540150,717901,59,Man
38,425041,DepthScenes,duration_manipulation_targetAtFixation,jsons/VE125_randls_69_rotated.json,http://54.235.29.9/FacialAge/BNav_EC2/DepthDuration/v2_depth_duration_MTurk/v2_DepthDuration_HTML.html#16,16,1366,625,1366,768,8-21-2022,6-53-9,39,depth_duration_stimuli/003079_2014-06-15_15-18-20_094959634447_rgbf000152-resize_8/003079_2014-06-15_15-18-20_094959634447_rgbf000152-resize_8-target.png,125,2.8775,2,3047,123,meters,jsons/VE125_randls_69_rotated.json,540150,717901,59,Man
39,425041,DepthScenes,duration_manipulation_targetAtFixation,jsons/VE125_randls_69_rotated.json,http://54.235.29.9/FacialAge/BNav_EC2/DepthDuration/v2_depth_duration_MTurk/v2_DepthDuration_HTML.html#16,16,1366,625,1366,768,8-21-2022,6-53-9,40,depth_duration_stimuli/000506_2014-06-08_23-21-00_260595134347_rgbf000070-resize_7/000506_2014-06-08_23-21-00_260595134347_rgbf000070-resize_7-target.png,125,4.0585,1,2347,123,meters,jsons/VE125_randls_69_rotated.json,540150,717901,59,Man
40,425041,DepthScenes,duration_manipulation_targetAtFixation,jsons/VE125_randls_69_rotated.json,http://54.235.29.9/FacialAge/BNav_EC2/DepthDuration/v2_depth_duration_MTurk/v2_DepthDuration_HTML.html#16,16,1366,625,1366,768,8-21-2022,6-53-9,41,depth_duration_stimuli/000457_2014-06-08_16-52-43_260595134347_rgbf000199-resize_1/000457_2014-06-08_16-52-43_260595134347_rgbf000199-resize_1-target.png,125,3.6489999999999996,1,2672,125,meters,jsons/VE125_randls_69_rotated.json,540150,717901,59,Man
41,425041,DepthScenes,duration_manipulation_targetAtFixation,jsons/VE125_randls_69_rotated.json,http://54.235.29.9/FacialAge/BNav_EC2/DepthDuration/v2_depth_duration_MTurk/v2_DepthDuration_HTML.html#16,16,1366,625,1366,768,8-21-2022,6-53-9,42,depth_duration_stimuli/000929_2014-06-09_16-33-19_260595134347_rgbf000139-resize_0/000929_2014-06-09_16-33-19_260595134347_rgbf000139-resize_0-target.png,125,2.8680000000000003,1,2657,109,meters,jsons/VE125_randls_69_rotated.json,540150,717901,59,Man
42,425041,DepthScenes,duration_manipulation_targetAtFixation,jsons/VE125_randls_69_rotated.json,http://54.235.29.9/FacialAge/BNav_EC2/DepthDuration/v2_depth_duration_MTurk/v2_DepthDuration_HTML.html#16,16,1366,625,1366,768,8-21-2022,6-53-9,43,depth_duration_stimuli/002103_2014-06-25_20-00-40_260595134347_rgbf000049-resize_0/002103_2014-06-25_20-00-40_260595134347_rgbf000049-resize_0-target.png,125,4.105,2,2421,124,meters,jsons/VE125_randls_69_rotated.json,540150,717901,59,Man
43,425041,DepthScenes,duration_manipulation_targetAtFixation,jsons/VE125_randls_69_rotated.json,http://54.235.29.9/FacialAge/BNav_EC2/DepthDuration/v2_depth_duration_MTurk/v2_DepthDuration_HTML.html#16,16,1366,625,1366,768,8-21-2022,6-53-9,44,depth_duration_stimuli/002039_2014-06-24_20-22-38_260595134347_rgbf000084-resize_1/002039_2014-06-24_20-22-38_260595134347_rgbf000084-resize_1-target.png,125,4.408,2,2015,110,meters,jsons/VE125_randls_69_rotated.json,540150,717901,59,Man
44,425041,DepthScenes,duration_manipulation_targetAtFixation,jsons/VE125_randls_69_rotated.json,http://54.235.29.9/FacialAge/BNav_EC2/DepthDuration/v2_depth_duration_MTurk/v2_DepthDuration_HTML.html#16,16,1366,625,1366,768,8-21-2022,6-53-9,45,depth_duration_stimuli/003338_2014-05-20_11-01-23_094959634447_rgbf000051-resize_6/003338_2014-05-20_11-01-23_094959634447_rgbf000051-resize_6-target.png,125,1.693,1,2604,110,meters,jsons/VE125_randls_69_rotated.json,540150,717901,59,Man
45,425041,DepthScenes,duration_manipulation_targetAtFixation,jsons/VE125_randls_69_rotated.json,http://54.235.29.9/FacialAge/BNav_EC2/DepthDuration/v2_depth_duration_MTurk/v2_DepthDuration_HTML.html#16,16,1366,625,1366,768,8-21-2022,6-53-9,46,depth_duration_stimuli/002509_2014-06-24_13-19-22_094959634447_rgbf000077-resize_0/002509_2014-06-24_13-19-22_094959634447_rgbf000077-resize_0-target.png,125,1.3065,1,1892,123,meters,jsons/VE125_randls_69_rotated.json,540150,717901,59,Man
46,425041,DepthScenes,duration_manipulation_targetAtFixation,jsons/VE125_randls_69_rotated.json,http://54.235.29.9/FacialAge/BNav_EC2/DepthDuration/v2_depth_duration_MTurk/v2_DepthDuration_HTML.html#16,16,1366,625,1366,768,8-21-2022,6-53-9,47,depth_duration_stimuli/002344_2014-06-28_20-06-29_260595134347_rgbf000030-resize_1/002344_2014-06-28_20-06-29_260595134347_rgbf000030-resize_1-target.png,125,1.5795,2,4127,122,meters,jsons/VE125_randls_69_rotated.json,540150,717901,59,Man
47,425041,DepthScenes,duration_manipulation_targetAtFixation,jsons/VE125_randls_69_rotated.json,http://54.235.29.9/FacialAge/BNav_EC2/DepthDuration/v2_depth_duration_MTurk/v2_DepthDuration_HTML.html#16,16,1366,625,1366,768,8-21-2022,6-53-9,48,depth_duration_stimuli/002725_2014-06-22_11-47-51_094959634447_rgbf000070-resize_1/002725_2014-06-22_11-47-51_094959634447_rgbf000070-resize_1-target.png,125,2.195,1,3531,124,meters,jsons/VE125_randls_69_rotated.json,540150,717901,59,Man
48,425041,DepthScenes,duration_manipulation_targetAtFixation,jsons/VE125_randls_69_rotated.json,http://54.235.29.9/FacialAge/BNav_EC2/DepthDuration/v2_depth_duration_MTurk/v2_DepthDuration_HTML.html#16,16,1366,625,1366,768,8-21-2022,6-53-9,49,depth_duration_stimuli/001170_2014-06-17_15-43-44_260595134347_rgbf000096-resize_6/001170_2014-06-17_15-43-44_260595134347_rgbf000096-resize-original.jpg,125,1.1909999999999998,0,4151,110,meters,jsons/VE125_randls_69_rotated.json,540150,717901,59,Man
49,425041,DepthScenes,duration_manipulation_targetAtFixation,jsons/VE125_randls_69_rotated.json,http://54.235.29.9/FacialAge/BNav_EC2/DepthDuration/v2_depth_duration_MTurk/v2_DepthDuration_HTML.html#16,16,1366,625,1366,768,8-21-2022,6-53-9,50,depth_duration_stimuli/000665_2014-06-09_20-42-35_260595134347_rgbf000110-resize_1/000665_2014-06-09_20-42-35_260595134347_rgbf000110-resize_1-target.png,125,3.057,1,2898,125,meters,jsons/VE125_randls_69_rotated.json,540150,717901,59,Man
50,425041,DepthScenes,duration_manipulation_targetAtFixation,jsons/VE125_randls_69_rotated.json,http://54.235.29.9/FacialAge/BNav_EC2/DepthDuration/v2_depth_duration_MTurk/v2_DepthDuration_HTML.html#16,16,1366,625,1366,768,8-21-2022,6-53-9,51,depth_duration_stimuli/001150_2014-06-17_15-27-34_260595134347_rgbf000108-resize_2/001150_2014-06-17_15-27-34_260595134347_rgbf000108-resize_2-target.png,125,4.0325,2,2640,124,meters,jsons/VE125_randls_69_rotated.json,540150,717901,59,Man
51,425041,DepthScenes,duration_manipulation_targetAtFixation,jsons/VE125_randls_69_rotated.json,http://54.235.29.9/FacialAge/BNav_EC2/DepthDuration/v2_depth_duration_MTurk/v2_DepthDuration_HTML.html#16,16,1366,625,1366,768,8-21-2022,6-53-9,52,depth_duration_stimuli/002678_2014-06-13_16-15-32_094959634447_rgbf000151-resize_6/002678_2014-06-13_16-15-32_094959634447_rgbf000151-resize_6-target.png,125,2.1830000000000003,1,2532,121,meters,jsons/VE125_randls_69_rotated.json,540150,717901,59,Man
52,425041,DepthScenes,duration_manipulation_targetAtFixation,jsons/VE125_randls_69_rotated.json,http://54.235.29.9/FacialAge/BNav_EC2/DepthDuration/v2_depth_duration_MTurk/v2_DepthDuration_HTML.html#16,16,1366,625,1366,768,8-21-2022,6-53-9,53,depth_duration_stimuli/000368_2014-06-09_15-53-01_260595134347_rgbf000155-resize_2/000368_2014-06-09_15-53-01_260595134347_rgbf000155-resize_2-target.png,125,2.4859999999999998,1,2342,125,meters,jsons/VE125_randls_69_rotated.json,540150,717901,59,Man
53,425041,DepthScenes,duration_manipulation_targetAtFixation,jsons/VE125_randls_69_rotated.json,http://54.235.29.9/FacialAge/BNav_EC2/DepthDuration/v2_depth_duration_MTurk/v2_DepthDuration_HTML.html#16,16,1366,625,1366,768,8-21-2022,6-53-9,54,depth_duration_stimuli/001392_2014-06-19_16-07-59_260595134347_rgbf000046-resize_1/001392_2014-06-19_16-07-59_260595134347_rgbf000046-resize_1-target.png,125,4.135,2,3435,125,meters,jsons/VE125_randls_69_rotated.json,540150,717901,59,Man
54,425041,DepthScenes,duration_manipulation_targetAtFixation,jsons/VE125_randls_69_rotated.json,http://54.235.29.9/FacialAge/BNav_EC2/DepthDuration/v2_depth_duration_MTurk/v2_DepthDuration_HTML.html#16,16,1366,625,1366,768,8-21-2022,6-53-9,55,depth_duration_stimuli/001570_2014-06-20_17-21-09_260595134347_rgbf000135-resize_4/001570_2014-06-20_17-21-09_260595134347_rgbf000135-resize_4-target.png,125,4.467,2,2154,109,meters,jsons/VE125_randls_69_rotated.json,540150,717901,59,Man
55,425041,DepthScenes,duration_manipulation_targetAtFixation,jsons/VE125_randls_69_rotated.json,http://54.235.29.9/FacialAge/BNav_EC2/DepthDuration/v2_depth_duration_MTurk/v2_DepthDuration_HTML.html#16,16,1366,625,1366,768,8-21-2022,6-53-9,56,depth_duration_stimuli/003228_2014-05-14_13-42-35_094959634447_rgbf000101-resize_1/003228_2014-05-14_13-42-35_094959634447_rgbf000101-resize_1-target.png,125,1.9680000000000002,1,3083,123,meters,jsons/VE125_randls_69_rotated.json,540150,717901,59,Man
56,425041,DepthScenes,duration_manipulation_targetAtFixation,jsons/VE125_randls_69_rotated.json,http://54.235.29.9/FacialAge/BNav_EC2/DepthDuration/v2_depth_duration_MTurk/v2_DepthDuration_HTML.html#16,16,1366,625,1366,768,8-21-2022,6-53-9,57,depth_duration_stimuli/002600_2014-06-24_14-27-04_094959634447_rgbf000074-resize_2/002600_2014-06-24_14-27-04_094959634447_rgbf000074-resize_2-target.png,125,2.7575,1,3585,123,meters,jsons/VE125_randls_69_rotated.json,540150,717901,59,Man
57,425041,DepthScenes,duration_manipulation_targetAtFixation,jsons/VE125_randls_69_rotated.json,http://54.235.29.9/FacialAge/BNav_EC2/DepthDuration/v2_depth_duration_MTurk/v2_DepthDuration_HTML.html#16,16,1366,625,1366,768,8-21-2022,6-53-9,58,depth_duration_stimuli/001214_2014-06-17_16-13-55_260595134347_rgbf000111-resize_0/001214_2014-06-17_16-13-55_260595134347_rgbf000111-resize_0-target.png,125,2.6505,1,2490,139,meters,jsons/VE125_randls_69_rotated.json,540150,717901,59,Man
58,425041,DepthScenes,duration_manipulation_targetAtFixation,jsons/VE125_randls_69_rotated.json,http://54.235.29.9/FacialAge/BNav_EC2/DepthDuration/v2_depth_duration_MTurk/v2_DepthDuration_HTML.html#16,16,1366,625,1366,768,8-21-2022,6-53-9,59,depth_duration_stimuli/000810_2014-06-08_17-20-01_260595134347_rgbf000105-resize_0/000810_2014-06-08_17-20-01_260595134347_rgbf000105-resize_0-target.png,125,1.4865,1,4230,139,meters,jsons/VE125_randls_69_rotated.json,540150,717901,59,Man
59,425041,DepthScenes,duration_manipulation_targetAtFixation,jsons/VE125_randls_69_rotated.json,http://54.235.29.9/FacialAge/BNav_EC2/DepthDuration/v2_depth_duration_MTurk/v2_DepthDuration_HTML.html#16,16,1366,625,1366,768,8-21-2022,6-53-9,60,depth_duration_stimuli/000556_2014-06-09_22-42-56_260595134347_rgbf000214-resize_1/000556_2014-06-09_22-42-56_260595134347_rgbf000214-resize_1-target.png,125,4.8415,1,2538,123,meters,jsons/VE125_randls_69_rotated.json,540150,717901,59,Man
60,425041,DepthScenes,duration_manipulation_targetAtFixation,jsons/VE125_randls_69_rotated.json,http://54.235.29.9/FacialAge/BNav_EC2/DepthDuration/v2_depth_duration_MTurk/v2_DepthDuration_HTML.html#16,16,1366,625,1366,768,8-21-2022,6-53-9,61,depth_duration_stimuli/001158_2014-06-17_15-32-16_260595134347_rgbf000138-resize_2/001158_2014-06-17_15-32-16_260595134347_rgbf000138-resize_2-target.png,125,4.5315,1,2071,123,meters,jsons/VE125_randls_69_rotated.json,540150,717901,59,Man
61,425041,DepthScenes,duration_manipulation_targetAtFixation,jsons/VE125_randls_69_rotated.json,http://54.235.29.9/FacialAge/BNav_EC2/DepthDuration/v2_depth_duration_MTurk/v2_DepthDuration_HTML.html#16,16,1366,625,1366,768,8-21-2022,6-53-9,62,depth_duration_stimuli/003010_2014-06-15_12-54-35_094959634447_rgbf000112-resize_0/003010_2014-06-15_12-54-35_094959634447_rgbf000112-resize_0-target.png,125,3.1185,1,2678,97,meters,jsons/VE125_randls_69_rotated.json,540150,717901,59,Man
62,425041,DepthScenes,duration_manipulation_targetAtFixation,jsons/VE125_randls_69_rotated.json,http://54.235.29.9/FacialAge/BNav_EC2/DepthDuration/v2_depth_duration_MTurk/v2_DepthDuration_HTML.html#16,16,1366,625,1366,768,8-21-2022,6-53-9,63,depth_duration_stimuli/001810_2014-06-26_20-51-35_260595134347_rgbf000040-resize_3/001810_2014-06-26_20-51-35_260595134347_rgbf000040-resize_3-target.png,125,2.2525,1,2741,107,meters,jsons/VE125_randls_69_rotated.json,540150,717901,59,Man
63,425041,DepthScenes,duration_manipulation_targetAtFixation,jsons/VE125_randls_69_rotated.json,http://54.235.29.9/FacialAge/BNav_EC2/DepthDuration/v2_depth_duration_MTurk/v2_DepthDuration_HTML.html#16,16,1366,625,1366,768,8-21-2022,6-53-9,64,depth_duration_stimuli/002568_2014-06-24_13-59-21_094959634447_rgbf000062-resize_4/002568_2014-06-24_13-59-21_094959634447_rgbf000062-resize_4-target.png,125,3.015,1,2392,139,meters,jsons/VE125_randls_69_rotated.json,540150,717901,59,Man
64,425041,DepthScenes,duration_manipulation_targetAtFixation,jsons/VE125_randls_69_rotated.json,http://54.235.29.9/FacialAge/BNav_EC2/DepthDuration/v2_depth_duration_MTurk/v2_DepthDuration_HTML.html#16,16,1366,625,1366,768,8-21-2022,6-53-9,65,depth_duration_stimuli/003492_2014-05-21_15-50-55_094959634447_rgbf000828-resize_1/003492_2014-05-21_15-50-55_094959634447_rgbf000828-resize_1-target.png,125,4.06875,2,2583,123,meters,jsons/VE125_randls_69_rotated.json,540150,717901,59,Man
65,425041,DepthScenes,duration_manipulation_targetAtFixation,jsons/VE125_randls_69_rotated.json,http://54.235.29.9/FacialAge/BNav_EC2/DepthDuration/v2_depth_duration_MTurk/v2_DepthDuration_HTML.html#16,16,1366,625,1366,768,8-21-2022,6-53-9,66,depth_duration_stimuli/001540_2014-06-20_17-01-05_260595134347_rgbf000086-resize_2/001540_2014-06-20_17-01-05_260595134347_rgbf000086-resize-original.jpg,125,1.459,0,5552,124,meters,jsons/VE125_randls_69_rotated.json,540150,717901,59,Man
66,425041,DepthScenes,duration_manipulation_targetAtFixation,jsons/VE125_randls_69_rotated.json,http://54.235.29.9/FacialAge/BNav_EC2/DepthDuration/v2_depth_duration_MTurk/v2_DepthDuration_HTML.html#16,16,1366,625,1366,768,8-21-2022,6-53-9,67,depth_duration_stimuli/000854_2014-06-09_19-43-13_260595134347_rgbf000066-resize_0/000854_2014-06-09_19-43-13_260595134347_rgbf000066-resize_0-target.png,125,3.068,1,2700,123,meters,jsons/VE125_randls_69_rotated.json,540150,717901,59,Man
67,425041,DepthScenes,duration_manipulation_targetAtFixation,jsons/VE125_randls_69_rotated.json,http://54.235.29.9/FacialAge/BNav_EC2/DepthDuration/v2_depth_duration_MTurk/v2_DepthDuration_HTML.html#16,16,1366,625,1366,768,8-21-2022,6-53-9,68,depth_duration_stimuli/000758_2014-06-08_22-05-08_260595134347_rgbf000085-resize_0/000758_2014-06-08_22-05-08_260595134347_rgbf000085-resize_0-target.png,125,3.3810000000000002,1,2446,122,meters,jsons/VE125_randls_69_rotated.json,540150,717901,59,Man
68,425041,DepthScenes,duration_manipulation_targetAtFixation,jsons/VE125_randls_69_rotated.json,http://54.235.29.9/FacialAge/BNav_EC2/DepthDuration/v2_depth_duration_MTurk/v2_DepthDuration_HTML.html#16,16,1366,625,1366,768,8-21-2022,6-53-9,69,depth_duration_stimuli/000109_2014-05-14_23-41-52_260595134347_rgbf000035-resize_9/000109_2014-05-14_23-41-52_260595134347_rgbf000035-resize_9-target.png,125,1.3545,1,2518,101,meters,jsons/VE125_randls_69_rotated.json,540150,717901,59,Man
69,425041,DepthScenes,duration_manipulation_targetAtFixation,jsons/VE125_randls_69_rotated.json,http://54.235.29.9/FacialAge/BNav_EC2/DepthDuration/v2_depth_duration_MTurk/v2_DepthDuration_HTML.html#16,16,1366,625,1366,768,8-21-2022,6-53-9,70,depth_duration_stimuli/000470_2014-06-09_19-42-40_260595134347_rgbf000094-resize_1/000470_2014-06-09_19-42-40_260595134347_rgbf000094-resize_1-target.png,125,1.831,1,2306,124,meters,jsons/VE125_randls_69_rotated.json,540150,717901,59,Man
70,425041,DepthScenes,duration_manipulation_targetAtFixation,jsons/VE125_randls_69_rotated.json,http://54.235.29.9/FacialAge/BNav_EC2/DepthDuration/v2_depth_duration_MTurk/v2_DepthDuration_HTML.html#16,16,1366,625,1366,768,8-21-2022,6-53-9,71,depth_duration_stimuli/002444_2014-06-28_20-32-08_260595134347_rgbf000027-resize_0/002444_2014-06-28_20-32-08_260595134347_rgbf000027-resize_0-target.png,125,4.388999999999999,1,2772,138,meters,jsons/VE125_randls_69_rotated.json,540150,717901,59,Man
71,425041,DepthScenes,duration_manipulation_targetAtFixation,jsons/VE125_randls_69_rotated.json,http://54.235.29.9/FacialAge/BNav_EC2/DepthDuration/v2_depth_duration_MTurk/v2_DepthDuration_HTML.html#16,16,1366,625,1366,768,8-21-2022,6-53-9,72,depth_duration_stimuli/000436_2014-06-09_22-25-11_260595134347_rgbf000137-resize_1/000436_2014-06-09_22-25-11_260595134347_rgbf000137-resize_1-target.png,125,4.0705,2,2304,210,meters,jsons/VE125_randls_69_rotated.json,540150,717901,59,Man
72,425041,DepthScenes,duration_manipulation_targetAtFixation,jsons/VE125_randls_69_rotated.json,http://54.235.29.9/FacialAge/BNav_EC2/DepthDuration/v2_depth_duration_MTurk/v2_DepthDuration_HTML.html#16,16,1366,625,1366,768,8-21-2022,6-53-9,73,depth_duration_stimuli/001136_2014-06-17_15-19-41_260595134347_rgbf000076-resize_3/001136_2014-06-17_15-19-41_260595134347_rgbf000076-resize_3-target.png,125,1.8655,2,2110,125,meters,jsons/VE125_randls_69_rotated.json,540150,717901,59,Man
73,425041,DepthScenes,duration_manipulation_targetAtFixation,jsons/VE125_randls_69_rotated.json,http://54.235.29.9/FacialAge/BNav_EC2/DepthDuration/v2_depth_duration_MTurk/v2_DepthDuration_HTML.html#16,16,1366,625,1366,768,8-21-2022,6-53-9,74,depth_duration_stimuli/001164_2014-06-17_15-35-46_260595134347_rgbf000085-resize_3/001164_2014-06-17_15-35-46_260595134347_rgbf000085-resize_3-target.png,125,2.354,2,2065,141,meters,jsons/VE125_randls_69_rotated.json,540150,717901,59,Man
74,425041,DepthScenes,duration_manipulation_targetAtFixation,jsons/VE125_randls_69_rotated.json,http://54.235.29.9/FacialAge/BNav_EC2/DepthDuration/v2_depth_duration_MTurk/v2_DepthDuration_HTML.html#16,16,1366,625,1366,768,8-21-2022,6-53-9,75,depth_duration_stimuli/001650_2014-06-20_12-09-00_260595134347_rgbf000087-resize_3/001650_2014-06-20_12-09-00_260595134347_rgbf000087-resize_3-target.png,125,1.9505,2,2728,124,meters,jsons/VE125_randls_69_rotated.json,540150,717901,59,Man
75,425041,DepthScenes,duration_manipulation_targetAtFixation,jsons/VE125_randls_69_rotated.json,http://54.235.29.9/FacialAge/BNav_EC2/DepthDuration/v2_depth_duration_MTurk/v2_DepthDuration_HTML.html#16,16,1366,625,1366,768,8-21-2022,6-53-9,76,depth_duration_stimuli/000682_2014-06-08_23-14-58_260595134347_rgbf000041-resize_5/000682_2014-06-08_23-14-58_260595134347_rgbf000041-resize_5-target.png,125,2.7239999999999998,1,1908,130,meters,jsons/VE125_randls_69_rotated.json,540150,717901,59,Man
76,425041,DepthScenes,duration_manipulation_targetAtFixation,jsons/VE125_randls_69_rotated.json,http://54.235.29.9/FacialAge/BNav_EC2/DepthDuration/v2_depth_duration_MTurk/v2_DepthDuration_HTML.html#16,16,1366,625,1366,768,8-21-2022,6-53-9,77,depth_duration_stimuli/000549_2014-06-08_22-10-24_260595134347_rgbf000247-resize_3/000549_2014-06-08_22-10-24_260595134347_rgbf000247-resize_3-target.png,125,1.841,1,2250,124,meters,jsons/VE125_randls_69_rotated.json,540150,717901,59,Man
77,425041,DepthScenes,duration_manipulation_targetAtFixation,jsons/VE125_randls_69_rotated.json,http://54.235.29.9/FacialAge/BNav_EC2/DepthDuration/v2_depth_duration_MTurk/v2_DepthDuration_HTML.html#16,16,1366,625,1366,768,8-21-2022,6-53-9,78,depth_duration_stimuli/001055_2014-06-08_18-45-35_260595134347_rgbf000111-resize_4/001055_2014-06-08_18-45-35_260595134347_rgbf000111-resize_4-target.png,125,2.4290000000000003,2,2080,113,meters,jsons/VE125_randls_69_rotated.json,540150,717901,59,Man
78,425041,DepthScenes,duration_manipulation_targetAtFixation,jsons/VE125_randls_69_rotated.json,http://54.235.29.9/FacialAge/BNav_EC2/DepthDuration/v2_depth_duration_MTurk/v2_DepthDuration_HTML.html#16,16,1366,625,1366,768,8-21-2022,6-53-9,79,depth_duration_stimuli/002209_2014-06-28_18-36-10_260595134347_rgbf000051-resize_1/002209_2014-06-28_18-36-10_260595134347_rgbf000051-resize_1-target.png,125,2.057,1,2298,123,meters,jsons/VE125_randls_69_rotated.json,540150,717901,59,Man
79,425041,DepthScenes,duration_manipulation_targetAtFixation,jsons/VE125_randls_69_rotated.json,http://54.235.29.9/FacialAge/BNav_EC2/DepthDuration/v2_depth_duration_MTurk/v2_DepthDuration_HTML.html#16,16,1366,625,1366,768,8-21-2022,6-53-9,80,depth_duration_stimuli/002763_2014-06-22_19-13-10_094959634447_rgbf000075-resize_4/002763_2014-06-22_19-13-10_094959634447_rgbf000075-resize_4-target.png,125,1.68375,1,2417,137,meters,jsons/VE125_randls_69_rotated.json,540150,717901,59,Man
80,425041,DepthScenes,duration_manipulation_targetAtFixation,jsons/VE125_randls_69_rotated.json,http://54.235.29.9/FacialAge/BNav_EC2/DepthDuration/v2_depth_duration_MTurk/v2_DepthDuration_HTML.html#16,16,1366,625,1366,768,8-21-2022,6-53-9,81,depth_duration_stimuli/001032_2014-06-08_13-23-17_260595134347_rgbf000021-resize_3/001032_2014-06-08_13-23-17_260595134347_rgbf000021-resize_3-target.png,125,3.2725,1,2228,140,meters,jsons/VE125_randls_69_rotated.json,540150,717901,59,Man
81,425041,DepthScenes,duration_manipulation_targetAtFixation,jsons/VE125_randls_69_rotated.json,http://54.235.29.9/FacialAge/BNav_EC2/DepthDuration/v2_depth_duration_MTurk/v2_DepthDuration_HTML.html#16,16,1366,625,1366,768,8-21-2022,6-53-9,82,depth_duration_stimuli/001059_2014-06-08_21-53-27_260595134347_rgbf000061-resize_4/001059_2014-06-08_21-53-27_260595134347_rgbf000061-resize_4-target.png,125,2.4185,1,2306,132,meters,jsons/VE125_randls_69_rotated.json,540150,717901,59,Man
82,425041,DepthScenes,duration_manipulation_targetAtFixation,jsons/VE125_randls_69_rotated.json,http://54.235.29.9/FacialAge/BNav_EC2/DepthDuration/v2_depth_duration_MTurk/v2_DepthDuration_HTML.html#16,16,1366,625,1366,768,8-21-2022,6-53-9,83,depth_duration_stimuli/000734_2014-06-08_17-39-11_260595134347_rgbf000128-resize_2/000734_2014-06-08_17-39-11_260595134347_rgbf000128-resize_2-target.png,125,4.098,1,2300,138,meters,jsons/VE125_randls_69_rotated.json,540150,717901,59,Man
83,425041,DepthScenes,duration_manipulation_targetAtFixation,jsons/VE125_randls_69_rotated.json,http://54.235.29.9/FacialAge/BNav_EC2/DepthDuration/v2_depth_duration_MTurk/v2_DepthDuration_HTML.html#16,16,1366,625,1366,768,8-21-2022,6-53-9,84,depth_duration_stimuli/000739_2014-06-08_18-45-58_260595134347_rgbf000068-resize_1/000739_2014-06-08_18-45-58_260595134347_rgbf000068-resize_1-target.png,125,3.534,1,2259,125,meters,jsons/VE125_randls_69_rotated.json,540150,717901,59,Man
84,425041,DepthScenes,duration_manipulation_targetAtFixation,jsons/VE125_randls_69_rotated.json,http://54.235.29.9/FacialAge/BNav_EC2/DepthDuration/v2_depth_duration_MTurk/v2_DepthDuration_HTML.html#16,16,1366,625,1366,768,8-21-2022,6-53-9,85,depth_duration_stimuli/002199_2014-06-28_18-33-56_260595134347_rgbf000074-resize_0/002199_2014-06-28_18-33-56_260595134347_rgbf000074-resize_0-target.png,125,1.996,1,2393,139,meters,jsons/VE125_randls_69_rotated.json,540150,717901,59,Man
85,425041,DepthScenes,duration_manipulation_targetAtFixation,jsons/VE125_randls_69_rotated.json,http://54.235.29.9/FacialAge/BNav_EC2/DepthDuration/v2_depth_duration_MTurk/v2_DepthDuration_HTML.html#16,16,1366,625,1366,768,8-21-2022,6-53-9,86,depth_duration_stimuli/001056_2014-06-08_18-46-44_260595134347_rgbf000068-resize_0/001056_2014-06-08_18-46-44_260595134347_rgbf000068-resize_0-target.png,125,2.6625,1,2314,123,meters,jsons/VE125_randls_69_rotated.json,540150,717901,59,Man
86,425041,DepthScenes,duration_manipulation_targetAtFixation,jsons/VE125_randls_69_rotated.json,http://54.235.29.9/FacialAge/BNav_EC2/DepthDuration/v2_depth_duration_MTurk/v2_DepthDuration_HTML.html#16,16,1366,625,1366,768,8-21-2022,6-53-9,87,depth_duration_stimuli/003490_2014-05-21_15-50-11_094959634447_rgbf000101-resize_3/003490_2014-05-21_15-50-11_094959634447_rgbf000101-resize_3-target.png,125,3.6445,1,2235,140,meters,jsons/VE125_randls_69_rotated.json,540150,717901,59,Man
87,425041,DepthScenes,duration_manipulation_targetAtFixation,jsons/VE125_randls_69_rotated.json,http://54.235.29.9/FacialAge/BNav_EC2/DepthDuration/v2_depth_duration_MTurk/v2_DepthDuration_HTML.html#16,16,1366,625,1366,768,8-21-2022,6-53-9,88,depth_duration_stimuli/001175_2014-06-17_15-45-55_260595134347_rgbf000129-resize_4/001175_2014-06-17_15-45-55_260595134347_rgbf000129-resize_4-target.png,125,4.255,1,1948,120,meters,jsons/VE125_randls_69_rotated.json,540150,717901,59,Man
88,425041,DepthScenes,duration_manipulation_targetAtFixation,jsons/VE125_randls_69_rotated.json,http://54.235.29.9/FacialAge/BNav_EC2/DepthDuration/v2_depth_duration_MTurk/v2_DepthDuration_HTML.html#16,16,1366,625,1366,768,8-21-2022,6-53-9,89,depth_duration_stimuli/002657_2014-06-13_15-29-54_094959634447_rgbf000150-resize_1/002657_2014-06-13_15-29-54_094959634447_rgbf000150-resize_1-target.png,125,4.919,1,2135,121,meters,jsons/VE125_randls_69_rotated.json,540150,717901,59,Man
89,425041,DepthScenes,duration_manipulation_targetAtFixation,jsons/VE125_randls_69_rotated.json,http://54.235.29.9/FacialAge/BNav_EC2/DepthDuration/v2_depth_duration_MTurk/v2_DepthDuration_HTML.html#16,16,1366,625,1366,768,8-21-2022,6-53-9,90,depth_duration_stimuli/002375_2014-06-28_20-13-44_260595134347_rgbf000032-resize_1/002375_2014-06-28_20-13-44_260595134347_rgbf000032-resize_1-target.png,125,4.0175,1,2086,123,meters,jsons/VE125_randls_69_rotated.json,540150,717901,59,Man
90,425041,DepthScenes,duration_manipulation_targetAtFixation,jsons/VE125_randls_69_rotated.json,http://54.235.29.9/FacialAge/BNav_EC2/DepthDuration/v2_depth_duration_MTurk/v2_DepthDuration_HTML.html#16,16,1366,625,1366,768,8-21-2022,6-53-9,91,depth_duration_stimuli/002425_2014-06-28_20-27-29_260595134347_rgbf000031-resize_8/002425_2014-06-28_20-27-29_260595134347_rgbf000031-resize_8-target.png,125,3.8960000000000004,1,2059,139,meters,jsons/VE125_randls_69_rotated.json,540150,717901,59,Man
91,425041,DepthScenes,duration_manipulation_targetAtFixation,jsons/VE125_randls_69_rotated.json,http://54.235.29.9/FacialAge/BNav_EC2/DepthDuration/v2_depth_duration_MTurk/v2_DepthDuration_HTML.html#16,16,1366,625,1366,768,8-21-2022,6-53-9,92,depth_duration_stimuli/000642_2014-06-08_16-59-25_260595134347_rgbf000098-resize_2/000642_2014-06-08_16-59-25_260595134347_rgbf000098-resize_2-target.png,125,2.8815,1,3326,121,meters,jsons/VE125_randls_69_rotated.json,540150,717901,59,Man
92,425041,DepthScenes,duration_manipulation_targetAtFixation,jsons/VE125_randls_69_rotated.json,http://54.235.29.9/FacialAge/BNav_EC2/DepthDuration/v2_depth_duration_MTurk/v2_DepthDuration_HTML.html#16,16,1366,625,1366,768,8-21-2022,6-53-9,93,depth_duration_stimuli/001450_2014-06-19_17-02-03_260595134347_rgbf000203-resize_4/001450_2014-06-19_17-02-03_260595134347_rgbf000203-resize_4-target.png,125,4.0106666666667,2,2280,121,meters,jsons/VE125_randls_69_rotated.json,540150,717901,59,Man
93,425041,DepthScenes,duration_manipulation_targetAtFixation,jsons/VE125_randls_69_rotated.json,http://54.235.29.9/FacialAge/BNav_EC2/DepthDuration/v2_depth_duration_MTurk/v2_DepthDuration_HTML.html#16,16,1366,625,1366,768,8-21-2022,6-53-9,94,depth_duration_stimuli/001449_2014-06-19_17-01-27_260595134347_rgbf000116-resize_2/001449_2014-06-19_17-01-27_260595134347_rgbf000116-resize_2-target.png,125,3.452,2,2165,125,meters,jsons/VE125_randls_69_rotated.json,540150,717901,59,Man
94,425041,DepthScenes,duration_manipulation_targetAtFixation,jsons/VE125_randls_69_rotated.json,http://54.235.29.9/FacialAge/BNav_EC2/DepthDuration/v2_depth_duration_MTurk/v2_DepthDuration_HTML.html#16,16,1366,625,1366,768,8-21-2022,6-53-9,95,depth_duration_stimuli/000709_2014-06-08_13-51-55_260595134347_rgbf000068-resize_3/000709_2014-06-08_13-51-55_260595134347_rgbf000068-resize_3-target.png,125,1.8030000000000002,2,2296,124,meters,jsons/VE125_randls_69_rotated.json,540150,717901,59,Man
95,425041,DepthScenes,duration_manipulation_targetAtFixation,jsons/VE125_randls_69_rotated.json,http://54.235.29.9/FacialAge/BNav_EC2/DepthDuration/v2_depth_duration_MTurk/v2_DepthDuration_HTML.html#16,16,1366,625,1366,768,8-21-2022,6-53-9,96,depth_duration_stimuli/002057_2014-06-24_21-00-13_260595134347_rgbf000120-resize_1/002057_2014-06-24_21-00-13_260595134347_rgbf000120-resize_1-target.png,125,2.967,2,1934,139,meters,jsons/VE125_randls_69_rotated.json,540150,717901,59,Man
96,425041,DepthScenes,duration_manipulation_targetAtFixation,jsons/VE125_randls_69_rotated.json,http://54.235.29.9/FacialAge/BNav_EC2/DepthDuration/v2_depth_duration_MTurk/v2_DepthDuration_HTML.html#16,16,1366,625,1366,768,8-21-2022,6-53-9,97,depth_duration_stimuli/002949_2014-06-26_15-57-42_094959634447_rgbf000079-resize_1/002949_2014-06-26_15-57-42_094959634447_rgbf000079-resize_1-target.png,125,1.8915,1,2646,120,meters,jsons/VE125_randls_69_rotated.json,540150,717901,59,Man
97,425041,DepthScenes,duration_manipulation_targetAtFixation,jsons/VE125_randls_69_rotated.json,http://54.235.29.9/FacialAge/BNav_EC2/DepthDuration/v2_depth_duration_MTurk/v2_DepthDuration_HTML.html#16,16,1366,625,1366,768,8-21-2022,6-53-9,98,depth_duration_stimuli/000522_2014-06-08_13-35-06_260595134347_rgbf000244-resize_1/000522_2014-06-08_13-35-06_260595134347_rgbf000244-resize_1-target.png,125,2.3715,1,2084,109,meters,jsons/VE125_randls_69_rotated.json,540150,717901,59,Man
98,425041,DepthScenes,duration_manipulation_targetAtFixation,jsons/VE125_randls_69_rotated.json,http://54.235.29.9/FacialAge/BNav_EC2/DepthDuration/v2_depth_duration_MTurk/v2_DepthDuration_HTML.html#16,16,1366,625,1366,768,8-21-2022,6-53-9,99,depth_duration_stimuli/001222_2014-06-17_16-24-06_260595134347_rgbf000073-resize_0/001222_2014-06-17_16-24-06_260595134347_rgbf000073-resize-original.jpg,125,1.4385,0,4972,123,meters,jsons/VE125_randls_69_rotated.json,540150,717901,59,Man
99,425041,DepthScenes,duration_manipulation_targetAtFixation,jsons/VE125_randls_69_rotated.json,http://54.235.29.9/FacialAge/BNav_EC2/DepthDuration/v2_depth_duration_MTurk/v2_DepthDuration_HTML.html#16,16,1366,625,1366,768,8-21-2022,6-53-9,100,depth_duration_stimuli/001235_2014-06-17_16-37-36_260595134347_rgbf000084-resize_4/001235_2014-06-17_16-37-36_260595134347_rgbf000084-resize_4-target.png,125,3.6605,1,2235,126,meters,jsons/VE125_randls_69_rotated.json,540150,717901,59,Man
100,425041,DepthScenes,duration_manipulation_targetAtFixation,jsons/VE125_randls_69_rotated.json,http://54.235.29.9/FacialAge/BNav_EC2/DepthDuration/v2_depth_duration_MTurk/v2_DepthDuration_HTML.html#16,16,1366,625,1366,768,8-21-2022,6-53-9,101,depth_duration_stimuli/000788_2014-06-08_22-34-36_260595134347_rgbf000131-resize_1/000788_2014-06-08_22-34-36_260595134347_rgbf000131-resize_1-target.png,125,3.359,1,4146,96,meters,jsons/VE125_randls_69_rotated.json,540150,717901,59,Man
101,425041,DepthScenes,duration_manipulation_targetAtFixation,jsons/VE125_randls_69_rotated.json,http://54.235.29.9/FacialAge/BNav_EC2/DepthDuration/v2_depth_duration_MTurk/v2_DepthDuration_HTML.html#16,16,1366,625,1366,768,8-21-2022,6-53-9,102,depth_duration_stimuli/000191_2014-05-12_17-07-38_260595134347_rgbf000199-resize_0/000191_2014-05-12_17-07-38_260595134347_rgbf000199-resize_0-target.png,125,3.7995,2,2790,139,meters,jsons/VE125_randls_69_rotated.json,540150,717901,59,Man
102,425041,DepthScenes,duration_manipulation_targetAtFixation,jsons/VE125_randls_69_rotated.json,http://54.235.29.9/FacialAge/BNav_EC2/DepthDuration/v2_depth_duration_MTurk/v2_DepthDuration_HTML.html#16,16,1366,625,1366,768,8-21-2022,6-53-9,103,depth_duration_stimuli/000493_2014-06-09_21-01-18_260595134347_rgbf000196-resize_3/000493_2014-06-09_21-01-18_260595134347_rgbf000196-resize_3-target.png,125,3.44,1,2378,125,meters,jsons/VE125_randls_69_rotated.json,540150,717901,59,Man
103,425041,DepthScenes,duration_manipulation_targetAtFixation,jsons/VE125_randls_69_rotated.json,http://54.235.29.9/FacialAge/BNav_EC2/DepthDuration/v2_depth_duration_MTurk/v2_DepthDuration_HTML.html#16,16,1366,625,1366,768,8-21-2022,6-53-9,104,depth_duration_stimuli/000742_2014-06-08_18-48-09_260595134347_rgbf000164-resize_4/000742_2014-06-08_18-48-09_260595134347_rgbf000164-resize_4-target.png,125,4.632,1,3268,127,meters,jsons/VE125_randls_69_rotated.json,540150,717901,59,Man
104,425041,DepthScenes,duration_manipulation_targetAtFixation,jsons/VE125_randls_69_rotated.json,http://54.235.29.9/FacialAge/BNav_EC2/DepthDuration/v2_depth_duration_MTurk/v2_DepthDuration_HTML.html#16,16,1366,625,1366,768,8-21-2022,6-53-9,105,depth_duration_stimuli/001066_2014-06-08_22-03-20_260595134347_rgbf000066-resize_4/001066_2014-06-08_22-03-20_260595134347_rgbf000066-resize_4-target.png,125,4.2330000000000005,2,2502,139,meters,jsons/VE125_randls_69_rotated.json,540150,717901,59,Man
105,425041,DepthScenes,duration_manipulation_targetAtFixation,jsons/VE125_randls_69_rotated.json,http://54.235.29.9/FacialAge/BNav_EC2/DepthDuration/v2_depth_duration_MTurk/v2_DepthDuration_HTML.html#16,16,1366,625,1366,768,8-21-2022,6-53-9,106,depth_duration_stimuli/000677_2014-06-08_23-10-32_260595134347_rgbf000158-resize_6/000677_2014-06-08_23-10-32_260595134347_rgbf000158-resize_6-target.png,125,3.556,1,2431,126,meters,jsons/VE125_randls_69_rotated.json,540150,717901,59,Man
106,425041,DepthScenes,duration_manipulation_targetAtFixation,jsons/VE125_randls_69_rotated.json,http://54.235.29.9/FacialAge/BNav_EC2/DepthDuration/v2_depth_duration_MTurk/v2_DepthDuration_HTML.html#16,16,1366,625,1366,768,8-21-2022,6-53-9,107,depth_duration_stimuli/001029_2014-06-08_13-17-57_260595134347_rgbf000065-resize_1/001029_2014-06-08_13-17-57_260595134347_rgbf000065-resize_1-target.png,125,3.0835,1,2645,124,meters,jsons/VE125_randls_69_rotated.json,540150,717901,59,Man
107,425041,DepthScenes,duration_manipulation_targetAtFixation,jsons/VE125_randls_69_rotated.json,http://54.235.29.9/FacialAge/BNav_EC2/DepthDuration/v2_depth_duration_MTurk/v2_DepthDuration_HTML.html#16,16,1366,625,1366,768,8-21-2022,6-53-9,108,depth_duration_stimuli/001584_2014-06-20_11-07-43_260595134347_rgbf000002-resize_1/001584_2014-06-20_11-07-43_260595134347_rgbf000002-resize_1-target.png,125,3.53,2,2327,121,meters,jsons/VE125_randls_69_rotated.json,540150,717901,59,Man
108,425041,DepthScenes,duration_manipulation_targetAtFixation,jsons/VE125_randls_69_rotated.json,http://54.235.29.9/FacialAge/BNav_EC2/DepthDuration/v2_depth_duration_MTurk/v2_DepthDuration_HTML.html#16,16,1366,625,1366,768,8-21-2022,6-53-9,109,depth_duration_stimuli/003621_2014-05-23_18-06-08_094959634447_rgbf000101-resize_1/003621_2014-05-23_18-06-08_094959634447_rgbf000101-resize_1-target.png,125,3.9835,2,2522,123,meters,jsons/VE125_randls_69_rotated.json,540150,717901,59,Man
109,425041,DepthScenes,duration_manipulation_targetAtFixation,jsons/VE125_randls_69_rotated.json,http://54.235.29.9/FacialAge/BNav_EC2/DepthDuration/v2_depth_duration_MTurk/v2_DepthDuration_HTML.html#16,16,1366,625,1366,768,8-21-2022,6-53-9,110,depth_duration_stimuli/000943_2014-06-09_19-31-07_260595134347_rgbf000128-resize_1/000943_2014-06-09_19-31-07_260595134347_rgbf000128-resize_1-target.png,125,1.9765,1,2568,124,meters,jsons/VE125_randls_69_rotated.json,540150,717901,59,Man
110,425041,DepthScenes,duration_manipulation_targetAtFixation,jsons/VE125_randls_69_rotated.json,http://54.235.29.9/FacialAge/BNav_EC2/DepthDuration/v2_depth_duration_MTurk/v2_DepthDuration_HTML.html#16,16,1366,625,1366,768,8-21-2022,6-53-9,111,depth_duration_stimuli/003070_2014-06-15_14-58-27_094959634447_rgbf000150-resize_3/003070_2014-06-15_14-58-27_094959634447_rgbf000150-resize_3-target.png,125,2.9415,1,2303,130,meters,jsons/VE125_randls_69_rotated.json,540150,717901,59,Man
111,425041,DepthScenes,duration_manipulation_targetAtFixation,jsons/VE125_randls_69_rotated.json,http://54.235.29.9/FacialAge/BNav_EC2/DepthDuration/v2_depth_duration_MTurk/v2_DepthDuration_HTML.html#16,16,1366,625,1366,768,8-21-2022,6-53-9,112,depth_duration_stimuli/002467_2014-06-28_20-38-07_260595134347_rgbf000026-resize_2/002467_2014-06-28_20-38-07_260595134347_rgbf000026-resize_2-target.png,125,4.742,1,2043,123,meters,jsons/VE125_randls_69_rotated.json,540150,717901,59,Man
112,425041,DepthScenes,duration_manipulation_targetAtFixation,jsons/VE125_randls_69_rotated.json,http://54.235.29.9/FacialAge/BNav_EC2/DepthDuration/v2_depth_duration_MTurk/v2_DepthDuration_HTML.html#16,16,1366,625,1366,768,8-21-2022,6-53-9,113,depth_duration_stimuli/002570_2014-06-24_13-59-54_094959634447_rgbf000059-resize_0/002570_2014-06-24_13-59-54_094959634447_rgbf000059-resize_0-target.png,125,4.037,1,2420,123,meters,jsons/VE125_randls_69_rotated.json,540150,717901,59,Man
113,425041,DepthScenes,duration_manipulation_targetAtFixation,jsons/VE125_randls_69_rotated.json,http://54.235.29.9/FacialAge/BNav_EC2/DepthDuration/v2_depth_duration_MTurk/v2_DepthDuration_HTML.html#16,16,1366,625,1366,768,8-21-2022,6-53-9,114,depth_duration_stimuli/001100_2014-06-15_17-46-26_260595134347_rgbf000225-resize_2/001100_2014-06-15_17-46-26_260595134347_rgbf000225-resize_2-target.png,125,2.24,1,3410,123,meters,jsons/VE125_randls_69_rotated.json,540150,717901,59,Man
114,425041,DepthScenes,duration_manipulation_targetAtFixation,jsons/VE125_randls_69_rotated.json,http://54.235.29.9/FacialAge/BNav_EC2/DepthDuration/v2_depth_duration_MTurk/v2_DepthDuration_HTML.html#16,16,1366,625,1366,768,8-21-2022,6-53-9,115,depth_duration_stimuli/002784_2014-06-22_19-26-30_094959634447_rgbf000083-resize_3/002784_2014-06-22_19-26-30_094959634447_rgbf000083-resize_3-target.png,125,1.8046666666667,1,1920,95,meters,jsons/VE125_randls_69_rotated.json,540150,717901,59,Man
115,425041,DepthScenes,duration_manipulation_targetAtFixation,jsons/VE125_randls_69_rotated.json,http://54.235.29.9/FacialAge/BNav_EC2/DepthDuration/v2_depth_duration_MTurk/v2_DepthDuration_HTML.html#16,16,1366,625,1366,768,8-21-2022,6-53-9,116,depth_duration_stimuli/001094_2014-06-15_17-36-00_260595134347_rgbf000205-resize_0/001094_2014-06-15_17-36-00_260595134347_rgbf000205-resize_0-target.png,125,4.2175,1,2140,123,meters,jsons/VE125_randls_69_rotated.json,540150,717901,59,Man
116,425041,DepthScenes,duration_manipulation_targetAtFixation,jsons/VE125_randls_69_rotated.json,http://54.235.29.9/FacialAge/BNav_EC2/DepthDuration/v2_depth_duration_MTurk/v2_DepthDuration_HTML.html#16,16,1366,625,1366,768,8-21-2022,6-53-9,117,depth_duration_stimuli/000692_2014-06-08_13-09-42_260595134347_rgbf000199-resize_2/000692_2014-06-08_13-09-42_260595134347_rgbf000199-resize_2-target.png,125,3.661,1,2464,109,meters,jsons/VE125_randls_69_rotated.json,540150,717901,59,Man
117,425041,DepthScenes,duration_manipulation_targetAtFixation,jsons/VE125_randls_69_rotated.json,http://54.235.29.9/FacialAge/BNav_EC2/DepthDuration/v2_depth_duration_MTurk/v2_DepthDuration_HTML.html#16,16,1366,625,1366,768,8-21-2022,6-53-9,118,depth_duration_stimuli/002758_2014-06-22_19-11-20_094959634447_rgbf000128-resize_1/002758_2014-06-22_19-11-20_094959634447_rgbf000128-resize_1-target.png,125,2.555,1,2165,117,meters,jsons/VE125_randls_69_rotated.json,540150,717901,59,Man
118,425041,DepthScenes,duration_manipulation_targetAtFixation,jsons/VE125_randls_69_rotated.json,http://54.235.29.9/FacialAge/BNav_EC2/DepthDuration/v2_depth_duration_MTurk/v2_DepthDuration_HTML.html#16,16,1366,625,1366,768,8-21-2022,6-53-9,119,depth_duration_stimuli/002630_2014-06-24_14-47-50_094959634447_rgbf000055-resize_1/002630_2014-06-24_14-47-50_094959634447_rgbf000055-resize_1-target.png,125,3.0095,2,2522,139,meters,jsons/VE125_randls_69_rotated.json,540150,717901,59,Man
119,425041,DepthScenes,duration_manipulation_targetAtFixation,jsons/VE125_randls_69_rotated.json,http://54.235.29.9/FacialAge/BNav_EC2/DepthDuration/v2_depth_duration_MTurk/v2_DepthDuration_HTML.html#16,16,1366,625,1366,768,8-21-2022,6-53-9,120,depth_duration_stimuli/000787_2014-06-08_22-33-53_260595134347_rgbf000175-resize_1/000787_2014-06-08_22-33-53_260595134347_rgbf000175-resize-original.jpg,125,4.784,0,4192,124,meters,jsons/VE125_randls_69_rotated.json,540150,717901,59,Man
120,425041,DepthScenes,duration_manipulation_targetAtFixation,jsons/VE125_randls_69_rotated.json,http://54.235.29.9/FacialAge/BNav_EC2/DepthDuration/v2_depth_duration_MTurk/v2_DepthDuration_HTML.html#16,16,1366,625,1366,768,8-21-2022,6-53-9,121,depth_duration_stimuli/003083_2014-06-15_15-21-03_094959634447_rgbf000063-resize_1/003083_2014-06-15_15-21-03_094959634447_rgbf000063-resize_1-target.png,125,4.1405,1,2563,114,meters,jsons/VE125_randls_69_rotated.json,540150,717901,59,Man
121,425041,DepthScenes,duration_manipulation_targetAtFixation,jsons/VE125_randls_69_rotated.json,http://54.235.29.9/FacialAge/BNav_EC2/DepthDuration/v2_depth_duration_MTurk/v2_DepthDuration_HTML.html#16,16,1366,625,1366,768,8-21-2022,6-53-9,122,depth_duration_stimuli/000486_2014-06-09_20-47-20_260595134347_rgbf000143-resize_2/000486_2014-06-09_20-47-20_260595134347_rgbf000143-resize_2-target.png,125,4.8325,1,2785,136,meters,jsons/VE125_randls_69_rotated.json,540150,717901,59,Man
122,425041,DepthScenes,duration_manipulation_targetAtFixation,jsons/VE125_randls_69_rotated.json,http://54.235.29.9/FacialAge/BNav_EC2/DepthDuration/v2_depth_duration_MTurk/v2_DepthDuration_HTML.html#16,16,1366,625,1366,768,8-21-2022,6-53-9,123,depth_duration_stimuli/002805_2014-06-22_19-54-03_094959634447_rgbf000079-resize_1/002805_2014-06-22_19-54-03_094959634447_rgbf000079-resize_1-target.png,125,3.1439999999999997,1,2401,98,meters,jsons/VE125_randls_69_rotated.json,540150,717901,59,Man
123,425041,DepthScenes,duration_manipulation_targetAtFixation,jsons/VE125_randls_69_rotated.json,http://54.235.29.9/FacialAge/BNav_EC2/DepthDuration/v2_depth_duration_MTurk/v2_DepthDuration_HTML.html#16,16,1366,625,1366,768,8-21-2022,6-53-9,124,depth_duration_stimuli/000906_2014-06-08_13-35-43_260595134347_rgbf000155-resize_1/000906_2014-06-08_13-35-43_260595134347_rgbf000155-resize_1-target.png,125,2.8489999999999998,1,2772,125,meters,jsons/VE125_randls_69_rotated.json,540150,717901,59,Man
124,425041,DepthScenes,duration_manipulation_targetAtFixation,jsons/VE125_randls_69_rotated.json,http://54.235.29.9/FacialAge/BNav_EC2/DepthDuration/v2_depth_duration_MTurk/v2_DepthDuration_HTML.html#16,16,1366,625,1366,768,8-21-2022,6-53-9,125,depth_duration_stimuli/001571_2014-06-20_17-21-32_260595134347_rgbf000089-resize_1/001571_2014-06-20_17-21-32_260595134347_rgbf000089-resize_1-target.png,125,1.86,1,3221,141,meters,jsons/VE125_randls_69_rotated.json,540150,717901,59,Man
125,425041,DepthScenes,duration_manipulation_targetAtFixation,jsons/VE125_randls_69_rotated.json,http://54.235.29.9/FacialAge/BNav_EC2/DepthDuration/v2_depth_duration_MTurk/v2_DepthDuration_HTML.html#16,16,1366,625,1366,768,8-21-2022,6-53-9,126,depth_duration_stimuli/002272_2014-06-28_18-53-56_260595134347_rgbf000067-resize_2/002272_2014-06-28_18-53-56_260595134347_rgbf000067-resize_2-target.png,125,1.138,1,2796,138,meters,jsons/VE125_randls_69_rotated.json,540150,717901,59,Man
126,425041,DepthScenes,duration_manipulation_targetAtFixation,jsons/VE125_randls_69_rotated.json,http://54.235.29.9/FacialAge/BNav_EC2/DepthDuration/v2_depth_duration_MTurk/v2_DepthDuration_HTML.html#16,16,1366,625,1366,768,8-21-2022,6-53-9,127,depth_duration_stimuli/000866_2014-06-09_20-45-42_260595134347_rgbf000139-resize_1/000866_2014-06-09_20-45-42_260595134347_rgbf000139-resize_1-target.png,125,3.2155,1,2247,94,meters,jsons/VE125_randls_69_rotated.json,540150,717901,59,Man
127,425041,DepthScenes,duration_manipulation_targetAtFixation,jsons/VE125_randls_69_rotated.json,http://54.235.29.9/FacialAge/BNav_EC2/DepthDuration/v2_depth_duration_MTurk/v2_DepthDuration_HTML.html#16,16,1366,625,1366,768,8-21-2022,6-53-9,128,depth_duration_stimuli/002989_2014-06-15_12-25-03_094959634447_rgbf000150-resize_3/002989_2014-06-15_12-25-03_094959634447_rgbf000150-resize_3-target.png,125,4.1975,1,3248,127,meters,jsons/VE125_randls_69_rotated.json,540150,717901,59,Man
128,425041,DepthScenes,duration_manipulation_targetAtFixation,jsons/VE125_randls_69_rotated.json,http://54.235.29.9/FacialAge/BNav_EC2/DepthDuration/v2_depth_duration_MTurk/v2_DepthDuration_HTML.html#16,16,1366,625,1366,768,8-21-2022,6-53-9,129,depth_duration_stimuli/001052_2014-06-08_18-24-54_260595134347_rgbf000130-resize_1/001052_2014-06-08_18-24-54_260595134347_rgbf000130-resize_1-target.png,125,4.1045,2,2778,124,meters,jsons/VE125_randls_69_rotated.json,540150,717901,59,Man
129,425041,DepthScenes,duration_manipulation_targetAtFixation,jsons/VE125_randls_69_rotated.json,http://54.235.29.9/FacialAge/BNav_EC2/DepthDuration/v2_depth_duration_MTurk/v2_DepthDuration_HTML.html#16,16,1366,625,1366,768,8-21-2022,6-53-9,130,depth_duration_stimuli/002988_2014-06-15_12-24-20_094959634447_rgbf000150-resize_1/002988_2014-06-15_12-24-20_094959634447_rgbf000150-resize_1-target.png,125,4.7669999999999995,1,2756,140,meters,jsons/VE125_randls_69_rotated.json,540150,717901,59,Man
130,425041,DepthScenes,duration_manipulation_targetAtFixation,jsons/VE125_randls_69_rotated.json,http://54.235.29.9/FacialAge/BNav_EC2/DepthDuration/v2_depth_duration_MTurk/v2_DepthDuration_HTML.html#16,16,1366,625,1366,768,8-21-2022,6-53-9,131,depth_duration_stimuli/003495_2014-05-21_16-01-51_094959634447_rgbf000100-resize_3/003495_2014-05-21_16-01-51_094959634447_rgbf000100-resize_3-target.png,125,1.6255,2,3447,66,meters,jsons/VE125_randls_69_rotated.json,540150,717901,59,Man
131,425041,DepthScenes,duration_manipulation_targetAtFixation,jsons/VE125_randls_69_rotated.json,http://54.235.29.9/FacialAge/BNav_EC2/DepthDuration/v2_depth_duration_MTurk/v2_DepthDuration_HTML.html#16,16,1366,625,1366,768,8-21-2022,6-53-9,132,depth_duration_stimuli/001244_2014-06-17_16-47-45_260595134347_rgbf000030-resize_4/001244_2014-06-17_16-47-45_260595134347_rgbf000030-resize_4-target.png,125,2.0425,1,2875,93,meters,jsons/VE125_randls_69_rotated.json,540150,717901,59,Man
132,425041,DepthScenes,duration_manipulation_targetAtFixation,jsons/VE125_randls_69_rotated.json,http://54.235.29.9/FacialAge/BNav_EC2/DepthDuration/v2_depth_duration_MTurk/v2_DepthDuration_HTML.html#16,16,1366,625,1366,768,8-21-2022,6-53-9,133,depth_duration_stimuli/002136_2014-06-25_21-18-03_260595134347_rgbf000109-resize_3/002136_2014-06-25_21-18-03_260595134347_rgbf000109-resize_3-target.png,125,1.9569999999999999,1,2263,138,meters,jsons/VE125_randls_69_rotated.json,540150,717901,59,Man
133,425041,DepthScenes,duration_manipulation_targetAtFixation,jsons/VE125_randls_69_rotated.json,http://54.235.29.9/FacialAge/BNav_EC2/DepthDuration/v2_depth_duration_MTurk/v2_DepthDuration_HTML.html#16,16,1366,625,1366,768,8-21-2022,6-53-9,134,depth_duration_stimuli/002964_2014-06-08_17-46-11_094959634447_rgbf000091-resize_4/002964_2014-06-08_17-46-11_094959634447_rgbf000091-resize_4-target.png,125,1.6909999999999998,1,2302,125,meters,jsons/VE125_randls_69_rotated.json,540150,717901,59,Man
134,425041,DepthScenes,duration_manipulation_targetAtFixation,jsons/VE125_randls_69_rotated.json,http://54.235.29.9/FacialAge/BNav_EC2/DepthDuration/v2_depth_duration_MTurk/v2_DepthDuration_HTML.html#16,16,1366,625,1366,768,8-21-2022,6-53-9,135,depth_duration_stimuli/000375_2014-06-08_11-17-29_260595134347_rgbf000133-resize_2/000375_2014-06-08_11-17-29_260595134347_rgbf000133-resize-original.jpg,125,4.718,0,4734,117,meters,jsons/VE125_randls_69_rotated.json,540150,717901,59,Man
135,425041,DepthScenes,duration_manipulation_targetAtFixation,jsons/VE125_randls_69_rotated.json,http://54.235.29.9/FacialAge/BNav_EC2/DepthDuration/v2_depth_duration_MTurk/v2_DepthDuration_HTML.html#16,16,1366,625,1366,768,8-21-2022,6-53-9,136,depth_duration_stimuli/002660_2014-06-13_15-44-18_094959634447_rgbf001878-resize_2/002660_2014-06-13_15-44-18_094959634447_rgbf001878-resize_2-target.png,125,3.576,1,3006,136,meters,jsons/VE125_randls_69_rotated.json,540150,717901,59,Man
136,425041,DepthScenes,duration_manipulation_targetAtFixation,jsons/VE125_randls_69_rotated.json,http://54.235.29.9/FacialAge/BNav_EC2/DepthDuration/v2_depth_duration_MTurk/v2_DepthDuration_HTML.html#16,16,1366,625,1366,768,8-21-2022,6-53-9,137,depth_duration_stimuli/002153_2014-06-25_21-27-18_260595134347_rgbf000038-resize_5/002153_2014-06-25_21-27-18_260595134347_rgbf000038-resize_5-target.png,125,2.505,1,1991,124,meters,jsons/VE125_randls_69_rotated.json,540150,717901,59,Man
137,425041,DepthScenes,duration_manipulation_targetAtFixation,jsons/VE125_randls_69_rotated.json,http://54.235.29.9/FacialAge/BNav_EC2/DepthDuration/v2_depth_duration_MTurk/v2_DepthDuration_HTML.html#16,16,1366,625,1366,768,8-21-2022,6-53-9,138,depth_duration_stimuli/000927_2014-06-09_16-32-30_260595134347_rgbf000123-resize_3/000927_2014-06-09_16-32-30_260595134347_rgbf000123-resize_3-target.png,125,2.6785,1,2059,134,meters,jsons/VE125_randls_69_rotated.json,540150,717901,59,Man
138,425041,DepthScenes,duration_manipulation_targetAtFixation,jsons/VE125_randls_69_rotated.json,http://54.235.29.9/FacialAge/BNav_EC2/DepthDuration/v2_depth_duration_MTurk/v2_DepthDuration_HTML.html#16,16,1366,625,1366,768,8-21-2022,6-53-9,139,depth_duration_stimuli/001110_2014-06-15_17-25-28_260595134347_rgbf000150-resize_1/001110_2014-06-15_17-25-28_260595134347_rgbf000150-resize_1-target.png,125,1.7115,1,2418,115,meters,jsons/VE125_randls_69_rotated.json,540150,717901,59,Man
139,425041,DepthScenes,duration_manipulation_targetAtFixation,jsons/VE125_randls_69_rotated.json,http://54.235.29.9/FacialAge/BNav_EC2/DepthDuration/v2_depth_duration_MTurk/v2_DepthDuration_HTML.html#16,16,1366,625,1366,768,8-21-2022,6-53-9,140,depth_duration_stimuli/001516_2014-06-20_16-25-09_260595134347_rgbf000076-resize_2/001516_2014-06-20_16-25-09_260595134347_rgbf000076-resize_2-target.png,125,1.7445,1,2335,140,meters,jsons/VE125_randls_69_rotated.json,540150,717901,59,Man
140,425041,DepthScenes,duration_manipulation_targetAtFixation,jsons/VE125_randls_69_rotated.json,http://54.235.29.9/FacialAge/BNav_EC2/DepthDuration/v2_depth_duration_MTurk/v2_DepthDuration_HTML.html#16,16,1366,625,1366,768,8-21-2022,6-53-9,141,depth_duration_stimuli/002118_2014-06-25_20-32-08_260595134347_rgbf000078-resize_1/002118_2014-06-25_20-32-08_260595134347_rgbf000078-resize_1-target.png,125,2.6460000000000004,1,2123,124,meters,jsons/VE125_randls_69_rotated.json,540150,717901,59,Man
141,425041,DepthScenes,duration_manipulation_targetAtFixation,jsons/VE125_randls_69_rotated.json,http://54.235.29.9/FacialAge/BNav_EC2/DepthDuration/v2_depth_duration_MTurk/v2_DepthDuration_HTML.html#16,16,1366,625,1366,768,8-21-2022,6-53-9,142,depth_duration_stimuli/002995_2014-06-15_12-31-26_094959634447_rgbf000150-resize_1/002995_2014-06-15_12-31-26_094959634447_rgbf000150-resize_1-target.png,125,3.8360000000000003,1,2171,122,meters,jsons/VE125_randls_69_rotated.json,540150,717901,59,Man
142,425041,DepthScenes,duration_manipulation_targetAtFixation,jsons/VE125_randls_69_rotated.json,http://54.235.29.9/FacialAge/BNav_EC2/DepthDuration/v2_depth_duration_MTurk/v2_DepthDuration_HTML.html#16,16,1366,625,1366,768,8-21-2022,6-53-9,143,depth_duration_stimuli/002748_2014-06-22_19-07-22_094959634447_rgbf000078-resize_1/002748_2014-06-22_19-07-22_094959634447_rgbf000078-resize_1-target.png,125,4.6705,2,2276,125,meters,jsons/VE125_randls_69_rotated.json,540150,717901,59,Man
143,425041,DepthScenes,duration_manipulation_targetAtFixation,jsons/VE125_randls_69_rotated.json,http://54.235.29.9/FacialAge/BNav_EC2/DepthDuration/v2_depth_duration_MTurk/v2_DepthDuration_HTML.html#16,16,1366,625,1366,768,8-21-2022,6-53-9,144,depth_duration_stimuli/000103_2014-05-14_22-01-17_260595134347_rgbf000152-resize_5/000103_2014-05-14_22-01-17_260595134347_rgbf000152-resize_5-target.png,125,1.993,1,2356,124,meters,jsons/VE125_randls_69_rotated.json,540150,717901,59,Man
144,425041,DepthScenes,duration_manipulation_targetAtFixation,jsons/VE125_randls_69_rotated.json,http://54.235.29.9/FacialAge/BNav_EC2/DepthDuration/v2_depth_duration_MTurk/v2_DepthDuration_HTML.html#16,16,1366,625,1366,768,8-21-2022,6-53-9,145,depth_duration_stimuli/001555_2014-06-20_17-12-10_260595134347_rgbf000065-resize_4/001555_2014-06-20_17-12-10_260595134347_rgbf000065-resize_4-target.png,125,1.633,1,2246,126,meters,jsons/VE125_randls_69_rotated.json,540150,717901,59,Man
145,425041,DepthScenes,duration_manipulation_targetAtFixation,jsons/VE125_randls_69_rotated.json,http://54.235.29.9/FacialAge/BNav_EC2/DepthDuration/v2_depth_duration_MTurk/v2_DepthDuration_HTML.html#16,16,1366,625,1366,768,8-21-2022,6-53-9,146,depth_duration_stimuli/000635_2014-06-08_16-38-42_260595134347_rgbf000106-resize_1/000635_2014-06-08_16-38-42_260595134347_rgbf000106-resize_1-target.png,125,2.074,1,2083,122,meters,jsons/VE125_randls_69_rotated.json,540150,717901,59,Man
146,425041,DepthScenes,duration_manipulation_targetAtFixation,jsons/VE125_randls_69_rotated.json,http://54.235.29.9/FacialAge/BNav_EC2/DepthDuration/v2_depth_duration_MTurk/v2_DepthDuration_HTML.html#16,16,1366,625,1366,768,8-21-2022,6-53-9,147,depth_duration_stimuli/002279_2014-06-28_18-55-32_260595134347_rgbf000040-resize_5/002279_2014-06-28_18-55-32_260595134347_rgbf000040-resize_5-target.png,125,1.5043333333333,1,2478,118,meters,jsons/VE125_randls_69_rotated.json,540150,717901,59,Man
147,425041,DepthScenes,duration_manipulation_targetAtFixation,jsons/VE125_randls_69_rotated.json,http://54.235.29.9/FacialAge/BNav_EC2/DepthDuration/v2_depth_duration_MTurk/v2_DepthDuration_HTML.html#16,16,1366,625,1366,768,8-21-2022,6-53-9,148,depth_duration_stimuli/001617_2014-06-20_11-35-32_260595134347_rgbf000066-resize_1/001617_2014-06-20_11-35-32_260595134347_rgbf000066-resize_1-target.png,125,3.7910000000000004,2,2308,124,meters,jsons/VE125_randls_69_rotated.json,540150,717901,59,Man
148,425041,DepthScenes,duration_manipulation_targetAtFixation,jsons/VE125_randls_69_rotated.json,http://54.235.29.9/FacialAge/BNav_EC2/DepthDuration/v2_depth_duration_MTurk/v2_DepthDuration_HTML.html#16,16,1366,625,1366,768,8-21-2022,6-53-9,149,depth_duration_stimuli/001806_2014-06-26_20-50-20_260595134347_rgbf000091-resize_1/001806_2014-06-26_20-50-20_260595134347_rgbf000091-resize_1-target.png,125,2.7305,1,3227,117,meters,jsons/VE125_randls_69_rotated.json,540150,717901,59,Man
149,425041,DepthScenes,duration_manipulation_targetAtFixation,jsons/VE125_randls_69_rotated.json,http://54.235.29.9/FacialAge/BNav_EC2/DepthDuration/v2_depth_duration_MTurk/v2_DepthDuration_HTML.html#16,16,1366,625,1366,768,8-21-2022,6-53-9,150,depth_duration_stimuli/002323_2014-06-28_20-01-54_260595134347_rgbf000051-resize_4/002323_2014-06-28_20-01-54_260595134347_rgbf000051-resize_4-target.png,125,3.7310000000000003,1,2047,123,meters,jsons/VE125_randls_69_rotated.json,540150,717901,59,Man
150,425041,DepthScenes,duration_manipulation_targetAtFixation,jsons/VE125_randls_69_rotated.json,http://54.235.29.9/FacialAge/BNav_EC2/DepthDuration/v2_depth_duration_MTurk/v2_DepthDuration_HTML.html#16,16,1366,625,1366,768,8-21-2022,6-53-9,151,depth_duration_stimuli/000917_2014-06-09_22-45-29_260595134347_rgbf000149-resize_3/000917_2014-06-09_22-45-29_260595134347_rgbf000149-resize_3-target.png,125,4.1865,2,2606,137,meters,jsons/VE125_randls_69_rotated.json,540150,717901,59,Man
151,425041,DepthScenes,duration_manipulation_targetAtFixation,jsons/VE125_randls_69_rotated.json,http://54.235.29.9/FacialAge/BNav_EC2/DepthDuration/v2_depth_duration_MTurk/v2_DepthDuration_HTML.html#16,16,1366,625,1366,768,8-21-2022,6-53-9,152,depth_duration_stimuli/000569_2014-06-09_22-51-47_260595134347_rgbf000141-resize_3/000569_2014-06-09_22-51-47_260595134347_rgbf000141-resize-original.jpg,125,4.512,0,4370,125,meters,jsons/VE125_randls_69_rotated.json,540150,717901,59,Man
152,425041,DepthScenes,duration_manipulation_targetAtFixation,jsons/VE125_randls_69_rotated.json,http://54.235.29.9/FacialAge/BNav_EC2/DepthDuration/v2_depth_duration_MTurk/v2_DepthDuration_HTML.html#16,16,1366,625,1366,768,8-21-2022,6-53-9,153,depth_duration_stimuli/001828_2014-06-26_21-40-03_260595134347_rgbf000024-resize_0/001828_2014-06-26_21-40-03_260595134347_rgbf000024-resize_0-target.png,125,4.8260000000000005,1,2348,123,meters,jsons/VE125_randls_69_rotated.json,540150,717901,59,Man
153,425041,DepthScenes,duration_manipulation_targetAtFixation,jsons/VE125_randls_69_rotated.json,http://54.235.29.9/FacialAge/BNav_EC2/DepthDuration/v2_depth_duration_MTurk/v2_DepthDuration_HTML.html#16,16,1366,625,1366,768,8-21-2022,6-53-9,154,depth_duration_stimuli/000009_2014-05-26_14-32-05_260595134347_rgbf000034-resize_3/000009_2014-05-26_14-32-05_260595134347_rgbf000034-resize_3-target.png,125,3.8715,1,2162,124,meters,jsons/VE125_randls_69_rotated.json,540150,717901,59,Man
154,425041,DepthScenes,duration_manipulation_targetAtFixation,jsons/VE125_randls_69_rotated.json,http://54.235.29.9/FacialAge/BNav_EC2/DepthDuration/v2_depth_duration_MTurk/v2_DepthDuration_HTML.html#16,16,1366,625,1366,768,8-21-2022,6-53-9,155,depth_duration_stimuli/001815_2014-06-26_20-52-55_260595134347_rgbf000020-resize_0/001815_2014-06-26_20-52-55_260595134347_rgbf000020-resize_0-target.png,125,3.3865,2,3688,121,meters,jsons/VE125_randls_69_rotated.json,540150,717901,59,Man
155,425041,DepthScenes,duration_manipulation_targetAtFixation,jsons/VE125_randls_69_rotated.json,http://54.235.29.9/FacialAge/BNav_EC2/DepthDuration/v2_depth_duration_MTurk/v2_DepthDuration_HTML.html#16,16,1366,625,1366,768,8-21-2022,6-53-9,156,depth_duration_stimuli/001808_2014-06-26_20-50-58_260595134347_rgbf000029-resize_1/001808_2014-06-26_20-50-58_260595134347_rgbf000029-resize_1-target.png,125,4.249,1,2389,139,meters,jsons/VE125_randls_69_rotated.json,540150,717901,59,Man
156,425041,DepthScenes,duration_manipulation_targetAtFixation,jsons/VE125_randls_69_rotated.json,http://54.235.29.9/FacialAge/BNav_EC2/DepthDuration/v2_depth_duration_MTurk/v2_DepthDuration_HTML.html#16,16,1366,625,1366,768,8-21-2022,6-53-9,157,depth_duration_stimuli/002545_2014-06-24_13-38-53_094959634447_rgbf000080-resize_4/002545_2014-06-24_13-38-53_094959634447_rgbf000080-resize_4-target.png,125,1.9205,1,2418,123,meters,jsons/VE125_randls_69_rotated.json,540150,717901,59,Man
157,425041,DepthScenes,duration_manipulation_targetAtFixation,jsons/VE125_randls_69_rotated.json,http://54.235.29.9/FacialAge/BNav_EC2/DepthDuration/v2_depth_duration_MTurk/v2_DepthDuration_HTML.html#16,16,1366,625,1366,768,8-21-2022,6-53-9,158,depth_duration_stimuli/001092_2014-06-15_17-34-58_260595134347_rgbf000171-resize_3/001092_2014-06-15_17-34-58_260595134347_rgbf000171-resize_3-target.png,125,2.6935,1,2367,139,meters,jsons/VE125_randls_69_rotated.json,540150,717901,59,Man
158,425041,DepthScenes,duration_manipulation_targetAtFixation,jsons/VE125_randls_69_rotated.json,http://54.235.29.9/FacialAge/BNav_EC2/DepthDuration/v2_depth_duration_MTurk/v2_DepthDuration_HTML.html#16,16,1366,625,1366,768,8-21-2022,6-53-9,159,depth_duration_stimuli/002875_2014-06-01_15-19-00_094959634447_rgbf000151-resize_1/002875_2014-06-01_15-19-00_094959634447_rgbf000151-resize_1-target.png,125,1.9675,1,2842,139,meters,jsons/VE125_randls_69_rotated.json,540150,717901,59,Man
159,425041,DepthScenes,duration_manipulation_targetAtFixation,jsons/VE125_randls_69_rotated.json,http://54.235.29.9/FacialAge/BNav_EC2/DepthDuration/v2_depth_duration_MTurk/v2_DepthDuration_HTML.html#16,16,1366,625,1366,768,8-21-2022,6-53-9,160,depth_duration_stimuli/001011_2014-06-08_23-18-54_260595134347_rgbf000044-resize_4/001011_2014-06-08_23-18-54_260595134347_rgbf000044-resize_4-target.png,125,2.4730000000000003,1,2244,124,meters,jsons/VE125_randls_69_rotated.json,540150,717901,59,Man
160,425041,DepthScenes,duration_manipulation_targetAtFixation,jsons/VE125_randls_69_rotated.json,http://54.235.29.9/FacialAge/BNav_EC2/DepthDuration/v2_depth_duration_MTurk/v2_DepthDuration_HTML.html#16,16,1366,625,1366,768,8-21-2022,6-53-9,161,depth_duration_stimuli/002750_2014-06-22_19-08-03_094959634447_rgbf000094-resize_4/002750_2014-06-22_19-08-03_094959634447_rgbf000094-resize_4-target.png,125,2.354,1,2503,123,meters,jsons/VE125_randls_69_rotated.json,540150,717901,59,Man
161,425041,DepthScenes,duration_manipulation_targetAtFixation,jsons/VE125_randls_69_rotated.json,http://54.235.29.9/FacialAge/BNav_EC2/DepthDuration/v2_depth_duration_MTurk/v2_DepthDuration_HTML.html#16,16,1366,625,1366,768,8-21-2022,6-53-9,162,depth_duration_stimuli/002549_2014-06-24_13-41-39_094959634447_rgbf000022-resize_3/002549_2014-06-24_13-41-39_094959634447_rgbf000022-resize_3-target.png,125,1.476,1,2908,124,meters,jsons/VE125_randls_69_rotated.json,540150,717901,59,Man
162,425041,DepthScenes,duration_manipulation_targetAtFixation,jsons/VE125_randls_69_rotated.json,http://54.235.29.9/FacialAge/BNav_EC2/DepthDuration/v2_depth_duration_MTurk/v2_DepthDuration_HTML.html#16,16,1366,625,1366,768,8-21-2022,6-53-9,163,depth_duration_stimuli/002953_2014-06-08_17-32-18_094959634447_rgbf000059-resize_5/002953_2014-06-08_17-32-18_094959634447_rgbf000059-resize_5-target.png,125,1.551,1,2294,121,meters,jsons/VE125_randls_69_rotated.json,540150,717901,59,Man
163,425041,DepthScenes,duration_manipulation_targetAtFixation,jsons/VE125_randls_69_rotated.json,http://54.235.29.9/FacialAge/BNav_EC2/DepthDuration/v2_depth_duration_MTurk/v2_DepthDuration_HTML.html#16,16,1366,625,1366,768,8-21-2022,6-53-9,164,depth_duration_stimuli/000878_2014-06-08_22-52-45_260595134347_rgbf000045-resize_2/000878_2014-06-08_22-52-45_260595134347_rgbf000045-resize_2-target.png,125,2.092,1,2629,139,meters,jsons/VE125_randls_69_rotated.json,540150,717901,59,Man
