,subjID,experimentName,versionName,sequenceName,url,selected_row,windowWidth,windowHeight,screenWidth,screenHeight,startDate,startTime,trial,stimulus,duration,actual_depth,depth_estimate,trial_RT,log_sceneDuration,unitSelection,seq_filepath,experimentTime,totalTime,age,gender
0,428881,DepthScenes,duration_manipulation_targetAtFixation,jsons/VE125_randls_51_rotated.json,http://54.235.29.9/FacialAge/BNav_EC2/DepthDuration/v2_depth_duration_MTurk/v2_DepthDuration_HTML.html#124,124,683,312,1366,768,8-21-2022,14-58-14,1,depth_duration_stimuli/002425_2014-06-28_20-27-29_260595134347_rgbf000031-resize_8/002425_2014-06-28_20-27-29_260595134347_rgbf000031-resize_8-target.png,125,3.8960000000000004,5,6493,128,meters,jsons/VE125_randls_51_rotated.json,987695,1944609,48,Woman
1,428881,DepthScenes,duration_manipulation_targetAtFixation,jsons/VE125_randls_51_rotated.json,http://54.235.29.9/FacialAge/BNav_EC2/DepthDuration/v2_depth_duration_MTurk/v2_DepthDuration_HTML.html#124,124,683,312,1366,768,8-21-2022,14-58-14,2,depth_duration_stimuli/000642_2014-06-08_16-59-25_260595134347_rgbf000098-resize_2/000642_2014-06-08_16-59-25_260595134347_rgbf000098-resize_2-target.png,125,2.8815,5,3847,190,meters,jsons/VE125_randls_51_rotated.json,987695,1944609,48,Woman
2,428881,DepthScenes,duration_manipulation_targetAtFixation,jsons/VE125_randls_51_rotated.json,http://54.235.29.9/FacialAge/BNav_EC2/DepthDuration/v2_depth_duration_MTurk/v2_DepthDuration_HTML.html#124,124,683,312,1366,768,8-21-2022,14-58-14,3,depth_duration_stimuli/000483_2014-06-09_20-41-45_260595134347_rgbf000116-resize_4/000483_2014-06-09_20-41-45_260595134347_rgbf000116-resize_4-target.png,125,1.337,5,2551,120,meters,jsons/VE125_randls_51_rotated.json,987695,1944609,48,Woman
3,428881,DepthScenes,duration_manipulation_targetAtFixation,jsons/VE125_randls_51_rotated.json,http://54.235.29.9/FacialAge/BNav_EC2/DepthDuration/v2_depth_duration_MTurk/v2_DepthDuration_HTML.html#124,124,683,312,1366,768,8-21-2022,14-58-14,4,depth_duration_stimuli/000469_2014-06-09_19-42-10_260595134347_rgbf000081-resize_1/000469_2014-06-09_19-42-10_260595134347_rgbf000081-resize_1-target.png,125,1.652,5,5356,122,meters,jsons/VE125_randls_51_rotated.json,987695,1944609,48,Woman
4,428881,DepthScenes,duration_manipulation_targetAtFixation,jsons/VE125_randls_51_rotated.json,http://54.235.29.9/FacialAge/BNav_EC2/DepthDuration/v2_depth_duration_MTurk/v2_DepthDuration_HTML.html#124,124,683,312,1366,768,8-21-2022,14-58-14,5,depth_duration_stimuli/001450_2014-06-19_17-02-03_260595134347_rgbf000203-resize_4/001450_2014-06-19_17-02-03_260595134347_rgbf000203-resize_4-target.png,125,4.0106666666667,5,4665,139,meters,jsons/VE125_randls_51_rotated.json,987695,1944609,48,Woman
5,428881,DepthScenes,duration_manipulation_targetAtFixation,jsons/VE125_randls_51_rotated.json,http://54.235.29.9/FacialAge/BNav_EC2/DepthDuration/v2_depth_duration_MTurk/v2_DepthDuration_HTML.html#124,124,683,312,1366,768,8-21-2022,14-58-14,6,depth_duration_stimuli/001449_2014-06-19_17-01-27_260595134347_rgbf000116-resize_2/001449_2014-06-19_17-01-27_260595134347_rgbf000116-resize_2-target.png,125,3.452,5,8106,125,meters,jsons/VE125_randls_51_rotated.json,987695,1944609,48,Woman
6,428881,DepthScenes,duration_manipulation_targetAtFixation,jsons/VE125_randls_51_rotated.json,http://54.235.29.9/FacialAge/BNav_EC2/DepthDuration/v2_depth_duration_MTurk/v2_DepthDuration_HTML.html#124,124,683,312,1366,768,8-21-2022,14-58-14,7,depth_duration_stimuli/001584_2014-06-20_11-07-43_260595134347_rgbf000002-resize_1/001584_2014-06-20_11-07-43_260595134347_rgbf000002-resize_1-target.png,125,3.53,5,5012,106,meters,jsons/VE125_randls_51_rotated.json,987695,1944609,48,Woman
7,428881,DepthScenes,duration_manipulation_targetAtFixation,jsons/VE125_randls_51_rotated.json,http://54.235.29.9/FacialAge/BNav_EC2/DepthDuration/v2_depth_duration_MTurk/v2_DepthDuration_HTML.html#124,124,683,312,1366,768,8-21-2022,14-58-14,8,depth_duration_stimuli/003621_2014-05-23_18-06-08_094959634447_rgbf000101-resize_1/003621_2014-05-23_18-06-08_094959634447_rgbf000101-resize_1-target.png,125,3.9835,5,4038,118,meters,jsons/VE125_randls_51_rotated.json,987695,1944609,48,Woman
8,428881,DepthScenes,duration_manipulation_targetAtFixation,jsons/VE125_randls_51_rotated.json,http://54.235.29.9/FacialAge/BNav_EC2/DepthDuration/v2_depth_duration_MTurk/v2_DepthDuration_HTML.html#124,124,683,312,1366,768,8-21-2022,14-58-14,9,depth_duration_stimuli/000665_2014-06-09_20-42-35_260595134347_rgbf000110-resize_1/000665_2014-06-09_20-42-35_260595134347_rgbf000110-resize_1-target.png,125,3.057,5,13611,123,meters,jsons/VE125_randls_51_rotated.json,987695,1944609,48,Woman
9,428881,DepthScenes,duration_manipulation_targetAtFixation,jsons/VE125_randls_51_rotated.json,http://54.235.29.9/FacialAge/BNav_EC2/DepthDuration/v2_depth_duration_MTurk/v2_DepthDuration_HTML.html#124,124,683,312,1366,768,8-21-2022,14-58-14,10,depth_duration_stimuli/001150_2014-06-17_15-27-34_260595134347_rgbf000108-resize_2/001150_2014-06-17_15-27-34_260595134347_rgbf000108-resize_2-target.png,125,4.0325,5,13918,124,meters,jsons/VE125_randls_51_rotated.json,987695,1944609,48,Woman
10,428881,DepthScenes,duration_manipulation_targetAtFixation,jsons/VE125_randls_51_rotated.json,http://54.235.29.9/FacialAge/BNav_EC2/DepthDuration/v2_depth_duration_MTurk/v2_DepthDuration_HTML.html#124,124,683,312,1366,768,8-21-2022,14-58-14,11,depth_duration_stimuli/000734_2014-06-08_17-39-11_260595134347_rgbf000128-resize_2/000734_2014-06-08_17-39-11_260595134347_rgbf000128-resize_2-target.png,125,4.098,5,4083,0,meters,jsons/VE125_randls_51_rotated.json,987695,1944609,48,Woman
11,428881,DepthScenes,duration_manipulation_targetAtFixation,jsons/VE125_randls_51_rotated.json,http://54.235.29.9/FacialAge/BNav_EC2/DepthDuration/v2_depth_duration_MTurk/v2_DepthDuration_HTML.html#124,124,683,312,1366,768,8-21-2022,14-58-14,12,depth_duration_stimuli/000739_2014-06-08_18-45-58_260595134347_rgbf000068-resize_1/000739_2014-06-08_18-45-58_260595134347_rgbf000068-resize_1-target.png,125,3.534,5,6171,111,meters,jsons/VE125_randls_51_rotated.json,987695,1944609,48,Woman
12,428881,DepthScenes,duration_manipulation_targetAtFixation,jsons/VE125_randls_51_rotated.json,http://54.235.29.9/FacialAge/BNav_EC2/DepthDuration/v2_depth_duration_MTurk/v2_DepthDuration_HTML.html#124,124,683,312,1366,768,8-21-2022,14-58-14,13,depth_duration_stimuli/002467_2014-06-28_20-38-07_260595134347_rgbf000026-resize_2/002467_2014-06-28_20-38-07_260595134347_rgbf000026-resize_2-target.png,125,4.742,5,6329,61,meters,jsons/VE125_randls_51_rotated.json,987695,1944609,48,Woman
13,428881,DepthScenes,duration_manipulation_targetAtFixation,jsons/VE125_randls_51_rotated.json,http://54.235.29.9/FacialAge/BNav_EC2/DepthDuration/v2_depth_duration_MTurk/v2_DepthDuration_HTML.html#124,124,683,312,1366,768,8-21-2022,14-58-14,14,depth_duration_stimuli/002570_2014-06-24_13-59-54_094959634447_rgbf000059-resize_0/002570_2014-06-24_13-59-54_094959634447_rgbf000059-resize_0-target.png,125,4.037,5,6501,124,meters,jsons/VE125_randls_51_rotated.json,987695,1944609,48,Woman
14,428881,DepthScenes,duration_manipulation_targetAtFixation,jsons/VE125_randls_51_rotated.json,http://54.235.29.9/FacialAge/BNav_EC2/DepthDuration/v2_depth_duration_MTurk/v2_DepthDuration_HTML.html#124,124,683,312,1366,768,8-21-2022,14-58-14,15,depth_duration_stimuli/002637_2014-06-24_14-51-13_094959634447_rgbf000066-resize_4/002637_2014-06-24_14-51-13_094959634447_rgbf000066-resize_4-target.png,125,1.9955,5,10938,145,meters,jsons/VE125_randls_51_rotated.json,987695,1944609,48,Woman
15,428881,DepthScenes,duration_manipulation_targetAtFixation,jsons/VE125_randls_51_rotated.json,http://54.235.29.9/FacialAge/BNav_EC2/DepthDuration/v2_depth_duration_MTurk/v2_DepthDuration_HTML.html#124,124,683,312,1366,768,8-21-2022,14-58-14,16,depth_duration_stimuli/003534_2014-05-22_15-06-10_094959634447_rgbf000102-resize_4/003534_2014-05-22_15-06-10_094959634447_rgbf000102-resize_4-target.png,125,1.426,5,8927,115,meters,jsons/VE125_randls_51_rotated.json,987695,1944609,48,Woman
16,428881,DepthScenes,duration_manipulation_targetAtFixation,jsons/VE125_randls_51_rotated.json,http://54.235.29.9/FacialAge/BNav_EC2/DepthDuration/v2_depth_duration_MTurk/v2_DepthDuration_HTML.html#124,124,683,312,1366,768,8-21-2022,14-58-14,17,depth_duration_stimuli/003338_2014-05-20_11-01-23_094959634447_rgbf000051-resize_6/003338_2014-05-20_11-01-23_094959634447_rgbf000051-resize_6-target.png,125,1.693,5,11656,118,meters,jsons/VE125_randls_51_rotated.json,987695,1944609,48,Woman
17,428881,DepthScenes,duration_manipulation_targetAtFixation,jsons/VE125_randls_51_rotated.json,http://54.235.29.9/FacialAge/BNav_EC2/DepthDuration/v2_depth_duration_MTurk/v2_DepthDuration_HTML.html#124,124,683,312,1366,768,8-21-2022,14-58-14,18,depth_duration_stimuli/002509_2014-06-24_13-19-22_094959634447_rgbf000077-resize_0/002509_2014-06-24_13-19-22_094959634447_rgbf000077-resize_0-target.png,125,1.3065,5,15297,247,meters,jsons/VE125_randls_51_rotated.json,987695,1944609,48,Woman
18,428881,DepthScenes,duration_manipulation_targetAtFixation,jsons/VE125_randls_51_rotated.json,http://54.235.29.9/FacialAge/BNav_EC2/DepthDuration/v2_depth_duration_MTurk/v2_DepthDuration_HTML.html#124,124,683,312,1366,768,8-21-2022,14-58-14,19,depth_duration_stimuli/001498_2014-06-19_17-45-14_260595134347_rgbf000129-resize_4/001498_2014-06-19_17-45-14_260595134347_rgbf000129-resize-original.jpg,125,1.4075,5,3668,122,meters,jsons/VE125_randls_51_rotated.json,987695,1944609,48,Woman
19,428881,DepthScenes,duration_manipulation_targetAtFixation,jsons/VE125_randls_51_rotated.json,http://54.235.29.9/FacialAge/BNav_EC2/DepthDuration/v2_depth_duration_MTurk/v2_DepthDuration_HTML.html#124,124,683,312,1366,768,8-21-2022,14-58-14,20,depth_duration_stimuli/002545_2014-06-24_13-38-53_094959634447_rgbf000080-resize_4/002545_2014-06-24_13-38-53_094959634447_rgbf000080-resize_4-target.png,125,1.9205,6,17652,123,meters,jsons/VE125_randls_51_rotated.json,987695,1944609,48,Woman
20,428881,DepthScenes,duration_manipulation_targetAtFixation,jsons/VE125_randls_51_rotated.json,http://54.235.29.9/FacialAge/BNav_EC2/DepthDuration/v2_depth_duration_MTurk/v2_DepthDuration_HTML.html#124,124,683,312,1366,768,8-21-2022,14-58-14,21,depth_duration_stimuli/001092_2014-06-15_17-34-58_260595134347_rgbf000171-resize_3/001092_2014-06-15_17-34-58_260595134347_rgbf000171-resize_3-target.png,125,2.6935,6,7405,106,meters,jsons/VE125_randls_51_rotated.json,987695,1944609,48,Woman
21,428881,DepthScenes,duration_manipulation_targetAtFixation,jsons/VE125_randls_51_rotated.json,http://54.235.29.9/FacialAge/BNav_EC2/DepthDuration/v2_depth_duration_MTurk/v2_DepthDuration_HTML.html#124,124,683,312,1366,768,8-21-2022,14-58-14,22,depth_duration_stimuli/002340_2014-06-28_20-05-46_260595134347_rgbf000113-resize_0/002340_2014-06-28_20-05-46_260595134347_rgbf000113-resize_0-target.png,125,2.4735,5,5391,102,meters,jsons/VE125_randls_51_rotated.json,987695,1944609,48,Woman
22,428881,DepthScenes,duration_manipulation_targetAtFixation,jsons/VE125_randls_51_rotated.json,http://54.235.29.9/FacialAge/BNav_EC2/DepthDuration/v2_depth_duration_MTurk/v2_DepthDuration_HTML.html#124,124,683,312,1366,768,8-21-2022,14-58-14,23,depth_duration_stimuli/001016_2014-06-09_16-16-10_260595134347_rgbf000112-resize_5/001016_2014-06-09_16-16-10_260595134347_rgbf000112-resize_5-target.png,125,1.6565,6,6479,122,meters,jsons/VE125_randls_51_rotated.json,987695,1944609,48,Woman
23,428881,DepthScenes,duration_manipulation_targetAtFixation,jsons/VE125_randls_51_rotated.json,http://54.235.29.9/FacialAge/BNav_EC2/DepthDuration/v2_depth_duration_MTurk/v2_DepthDuration_HTML.html#124,124,683,312,1366,768,8-21-2022,14-58-14,24,depth_duration_stimuli/003587_2014-05-23_16-48-02_094959634447_rgbf002384-resize_2/003587_2014-05-23_16-48-02_094959634447_rgbf002384-resize_2-target.png,125,1.357,6,9413,114,meters,jsons/VE125_randls_51_rotated.json,987695,1944609,48,Woman
24,428881,DepthScenes,duration_manipulation_targetAtFixation,jsons/VE125_randls_51_rotated.json,http://54.235.29.9/FacialAge/BNav_EC2/DepthDuration/v2_depth_duration_MTurk/v2_DepthDuration_HTML.html#124,124,683,312,1366,768,8-21-2022,14-58-14,25,depth_duration_stimuli/001167_2014-06-17_15-38-07_260595134347_rgbf000108-resize_0/001167_2014-06-17_15-38-07_260595134347_rgbf000108-resize_0-target.png,125,1.8505,6,4969,119,meters,jsons/VE125_randls_51_rotated.json,987695,1944609,48,Woman
25,428881,DepthScenes,duration_manipulation_targetAtFixation,jsons/VE125_randls_51_rotated.json,http://54.235.29.9/FacialAge/BNav_EC2/DepthDuration/v2_depth_duration_MTurk/v2_DepthDuration_HTML.html#124,124,683,312,1366,768,8-21-2022,14-58-14,26,depth_duration_stimuli/000866_2014-06-09_20-45-42_260595134347_rgbf000139-resize_1/000866_2014-06-09_20-45-42_260595134347_rgbf000139-resize_1-target.png,125,3.2155,6,4447,107,meters,jsons/VE125_randls_51_rotated.json,987695,1944609,48,Woman
26,428881,DepthScenes,duration_manipulation_targetAtFixation,jsons/VE125_randls_51_rotated.json,http://54.235.29.9/FacialAge/BNav_EC2/DepthDuration/v2_depth_duration_MTurk/v2_DepthDuration_HTML.html#124,124,683,312,1366,768,8-21-2022,14-58-14,27,depth_duration_stimuli/002989_2014-06-15_12-25-03_094959634447_rgbf000150-resize_3/002989_2014-06-15_12-25-03_094959634447_rgbf000150-resize_3-target.png,125,4.1975,6,3753,123,meters,jsons/VE125_randls_51_rotated.json,987695,1944609,48,Woman
27,428881,DepthScenes,duration_manipulation_targetAtFixation,jsons/VE125_randls_51_rotated.json,http://54.235.29.9/FacialAge/BNav_EC2/DepthDuration/v2_depth_duration_MTurk/v2_DepthDuration_HTML.html#124,124,683,312,1366,768,8-21-2022,14-58-14,28,depth_duration_stimuli/000103_2014-05-14_22-01-17_260595134347_rgbf000152-resize_5/000103_2014-05-14_22-01-17_260595134347_rgbf000152-resize_5-target.png,125,1.993,6,15559,118,meters,jsons/VE125_randls_51_rotated.json,987695,1944609,48,Woman
28,428881,DepthScenes,duration_manipulation_targetAtFixation,jsons/VE125_randls_51_rotated.json,http://54.235.29.9/FacialAge/BNav_EC2/DepthDuration/v2_depth_duration_MTurk/v2_DepthDuration_HTML.html#124,124,683,312,1366,768,8-21-2022,14-58-14,29,depth_duration_stimuli/001555_2014-06-20_17-12-10_260595134347_rgbf000065-resize_4/001555_2014-06-20_17-12-10_260595134347_rgbf000065-resize_4-target.png,125,1.633,6,4780,165,meters,jsons/VE125_randls_51_rotated.json,987695,1944609,48,Woman
29,428881,DepthScenes,duration_manipulation_targetAtFixation,jsons/VE125_randls_51_rotated.json,http://54.235.29.9/FacialAge/BNav_EC2/DepthDuration/v2_depth_duration_MTurk/v2_DepthDuration_HTML.html#124,124,683,312,1366,768,8-21-2022,14-58-14,30,depth_duration_stimuli/002072_2014-06-24_21-48-06_260595134347_rgbf000115-resize_0/002072_2014-06-24_21-48-06_260595134347_rgbf000115-resize-original.jpg,125,4.702,6,4134,122,meters,jsons/VE125_randls_51_rotated.json,987695,1944609,48,Woman
30,428881,DepthScenes,duration_manipulation_targetAtFixation,jsons/VE125_randls_51_rotated.json,http://54.235.29.9/FacialAge/BNav_EC2/DepthDuration/v2_depth_duration_MTurk/v2_DepthDuration_HTML.html#124,124,683,312,1366,768,8-21-2022,14-58-14,31,depth_duration_stimuli/000409_2014-06-04_19-23-33_260595134347_rgbf000067-resize_0/000409_2014-06-04_19-23-33_260595134347_rgbf000067-resize_0-target.png,125,3.7335,5,8341,112,meters,jsons/VE125_randls_51_rotated.json,987695,1944609,48,Woman
31,428881,DepthScenes,duration_manipulation_targetAtFixation,jsons/VE125_randls_51_rotated.json,http://54.235.29.9/FacialAge/BNav_EC2/DepthDuration/v2_depth_duration_MTurk/v2_DepthDuration_HTML.html#124,124,683,312,1366,768,8-21-2022,14-58-14,32,depth_duration_stimuli/002663_2014-06-13_15-50-26_094959634447_rgbf000075-resize_1/002663_2014-06-13_15-50-26_094959634447_rgbf000075-resize_1-target.png,125,4.7495,6,5721,124,meters,jsons/VE125_randls_51_rotated.json,987695,1944609,48,Woman
32,428881,DepthScenes,duration_manipulation_targetAtFixation,jsons/VE125_randls_51_rotated.json,http://54.235.29.9/FacialAge/BNav_EC2/DepthDuration/v2_depth_duration_MTurk/v2_DepthDuration_HTML.html#124,124,683,312,1366,768,8-21-2022,14-58-14,33,depth_duration_stimuli/000556_2014-06-09_22-42-56_260595134347_rgbf000214-resize_1/000556_2014-06-09_22-42-56_260595134347_rgbf000214-resize_1-target.png,125,4.8415,6,14898,121,meters,jsons/VE125_randls_51_rotated.json,987695,1944609,48,Woman
33,428881,DepthScenes,duration_manipulation_targetAtFixation,jsons/VE125_randls_51_rotated.json,http://54.235.29.9/FacialAge/BNav_EC2/DepthDuration/v2_depth_duration_MTurk/v2_DepthDuration_HTML.html#124,124,683,312,1366,768,8-21-2022,14-58-14,34,depth_duration_stimuli/001158_2014-06-17_15-32-16_260595134347_rgbf000138-resize_2/001158_2014-06-17_15-32-16_260595134347_rgbf000138-resize_2-target.png,125,4.5315,6,4911,119,meters,jsons/VE125_randls_51_rotated.json,987695,1944609,48,Woman
34,428881,DepthScenes,duration_manipulation_targetAtFixation,jsons/VE125_randls_51_rotated.json,http://54.235.29.9/FacialAge/BNav_EC2/DepthDuration/v2_depth_duration_MTurk/v2_DepthDuration_HTML.html#124,124,683,312,1366,768,8-21-2022,14-58-14,35,depth_duration_stimuli/002209_2014-06-28_18-36-10_260595134347_rgbf000051-resize_1/002209_2014-06-28_18-36-10_260595134347_rgbf000051-resize_1-target.png,125,2.057,6,14504,123,meters,jsons/VE125_randls_51_rotated.json,987695,1944609,48,Woman
35,428881,DepthScenes,duration_manipulation_targetAtFixation,jsons/VE125_randls_51_rotated.json,http://54.235.29.9/FacialAge/BNav_EC2/DepthDuration/v2_depth_duration_MTurk/v2_DepthDuration_HTML.html#124,124,683,312,1366,768,8-21-2022,14-58-14,36,depth_duration_stimuli/002763_2014-06-22_19-13-10_094959634447_rgbf000075-resize_4/002763_2014-06-22_19-13-10_094959634447_rgbf000075-resize_4-target.png,125,1.68375,6,4797,248,meters,jsons/VE125_randls_51_rotated.json,987695,1944609,48,Woman
36,428881,DepthScenes,duration_manipulation_targetAtFixation,jsons/VE125_randls_51_rotated.json,http://54.235.29.9/FacialAge/BNav_EC2/DepthDuration/v2_depth_duration_MTurk/v2_DepthDuration_HTML.html#124,124,683,312,1366,768,8-21-2022,14-58-14,37,depth_duration_stimuli/001571_2014-06-20_17-21-32_260595134347_rgbf000089-resize_1/001571_2014-06-20_17-21-32_260595134347_rgbf000089-resize_1-target.png,125,1.86,6,7606,7,meters,jsons/VE125_randls_51_rotated.json,987695,1944609,48,Woman
37,428881,DepthScenes,duration_manipulation_targetAtFixation,jsons/VE125_randls_51_rotated.json,http://54.235.29.9/FacialAge/BNav_EC2/DepthDuration/v2_depth_duration_MTurk/v2_DepthDuration_HTML.html#124,124,683,312,1366,768,8-21-2022,14-58-14,38,depth_duration_stimuli/002272_2014-06-28_18-53-56_260595134347_rgbf000067-resize_2/002272_2014-06-28_18-53-56_260595134347_rgbf000067-resize_2-target.png,125,1.138,5,8500,110,meters,jsons/VE125_randls_51_rotated.json,987695,1944609,48,Woman
38,428881,DepthScenes,duration_manipulation_targetAtFixation,jsons/VE125_randls_51_rotated.json,http://54.235.29.9/FacialAge/BNav_EC2/DepthDuration/v2_depth_duration_MTurk/v2_DepthDuration_HTML.html#124,124,683,312,1366,768,8-21-2022,14-58-14,39,depth_duration_stimuli/000635_2014-06-08_16-38-42_260595134347_rgbf000106-resize_1/000635_2014-06-08_16-38-42_260595134347_rgbf000106-resize_1-target.png,125,2.074,5,11780,0,meters,jsons/VE125_randls_51_rotated.json,987695,1944609,48,Woman
39,428881,DepthScenes,duration_manipulation_targetAtFixation,jsons/VE125_randls_51_rotated.json,http://54.235.29.9/FacialAge/BNav_EC2/DepthDuration/v2_depth_duration_MTurk/v2_DepthDuration_HTML.html#124,124,683,312,1366,768,8-21-2022,14-58-14,40,depth_duration_stimuli/002279_2014-06-28_18-55-32_260595134347_rgbf000040-resize_5/002279_2014-06-28_18-55-32_260595134347_rgbf000040-resize_5-target.png,125,1.5043333333333,6,11578,121,meters,jsons/VE125_randls_51_rotated.json,987695,1944609,48,Woman
40,428881,DepthScenes,duration_manipulation_targetAtFixation,jsons/VE125_randls_51_rotated.json,http://54.235.29.9/FacialAge/BNav_EC2/DepthDuration/v2_depth_duration_MTurk/v2_DepthDuration_HTML.html#124,124,683,312,1366,768,8-21-2022,14-58-14,41,depth_duration_stimuli/002344_2014-06-28_20-06-29_260595134347_rgbf000030-resize_1/002344_2014-06-28_20-06-29_260595134347_rgbf000030-resize_1-target.png,125,1.5795,69,14860,79,meters,jsons/VE125_randls_51_rotated.json,987695,1944609,48,Woman
41,428881,DepthScenes,duration_manipulation_targetAtFixation,jsons/VE125_randls_51_rotated.json,http://54.235.29.9/FacialAge/BNav_EC2/DepthDuration/v2_depth_duration_MTurk/v2_DepthDuration_HTML.html#124,124,683,312,1366,768,8-21-2022,14-58-14,42,depth_duration_stimuli/002725_2014-06-22_11-47-51_094959634447_rgbf000070-resize_1/002725_2014-06-22_11-47-51_094959634447_rgbf000070-resize_1-target.png,125,2.195,5,4453,113,meters,jsons/VE125_randls_51_rotated.json,987695,1944609,48,Woman
42,428881,DepthScenes,duration_manipulation_targetAtFixation,jsons/VE125_randls_51_rotated.json,http://54.235.29.9/FacialAge/BNav_EC2/DepthDuration/v2_depth_duration_MTurk/v2_DepthDuration_HTML.html#124,124,683,312,1366,768,8-21-2022,14-58-14,43,depth_duration_stimuli/001214_2014-06-17_16-13-55_260595134347_rgbf000111-resize_0/001214_2014-06-17_16-13-55_260595134347_rgbf000111-resize_0-target.png,125,2.6505,6,13390,124,meters,jsons/VE125_randls_51_rotated.json,987695,1944609,48,Woman
43,428881,DepthScenes,duration_manipulation_targetAtFixation,jsons/VE125_randls_51_rotated.json,http://54.235.29.9/FacialAge/BNav_EC2/DepthDuration/v2_depth_duration_MTurk/v2_DepthDuration_HTML.html#124,124,683,312,1366,768,8-21-2022,14-58-14,44,depth_duration_stimuli/000810_2014-06-08_17-20-01_260595134347_rgbf000105-resize_0/000810_2014-06-08_17-20-01_260595134347_rgbf000105-resize_0-target.png,125,1.4865,52,12078,115,meters,jsons/VE125_randls_51_rotated.json,987695,1944609,48,Woman
44,428881,DepthScenes,duration_manipulation_targetAtFixation,jsons/VE125_randls_51_rotated.json,http://54.235.29.9/FacialAge/BNav_EC2/DepthDuration/v2_depth_duration_MTurk/v2_DepthDuration_HTML.html#124,124,683,312,1366,768,8-21-2022,14-58-14,45,depth_duration_stimuli/002953_2014-06-08_17-32-18_094959634447_rgbf000059-resize_5/002953_2014-06-08_17-32-18_094959634447_rgbf000059-resize_5-target.png,125,1.551,6,16014,111,meters,jsons/VE125_randls_51_rotated.json,987695,1944609,48,Woman
45,428881,DepthScenes,duration_manipulation_targetAtFixation,jsons/VE125_randls_51_rotated.json,http://54.235.29.9/FacialAge/BNav_EC2/DepthDuration/v2_depth_duration_MTurk/v2_DepthDuration_HTML.html#124,124,683,312,1366,768,8-21-2022,14-58-14,46,depth_duration_stimuli/000878_2014-06-08_22-52-45_260595134347_rgbf000045-resize_2/000878_2014-06-08_22-52-45_260595134347_rgbf000045-resize_2-target.png,125,2.092,6,13687,124,meters,jsons/VE125_randls_51_rotated.json,987695,1944609,48,Woman
46,428881,DepthScenes,duration_manipulation_targetAtFixation,jsons/VE125_randls_51_rotated.json,http://54.235.29.9/FacialAge/BNav_EC2/DepthDuration/v2_depth_duration_MTurk/v2_DepthDuration_HTML.html#124,124,683,312,1366,768,8-21-2022,14-58-14,47,depth_duration_stimuli/000709_2014-06-08_13-51-55_260595134347_rgbf000068-resize_3/000709_2014-06-08_13-51-55_260595134347_rgbf000068-resize_3-target.png,125,1.8030000000000002,6,8688,125,meters,jsons/VE125_randls_51_rotated.json,987695,1944609,48,Woman
47,428881,DepthScenes,duration_manipulation_targetAtFixation,jsons/VE125_randls_51_rotated.json,http://54.235.29.9/FacialAge/BNav_EC2/DepthDuration/v2_depth_duration_MTurk/v2_DepthDuration_HTML.html#124,124,683,312,1366,768,8-21-2022,14-58-14,48,depth_duration_stimuli/002057_2014-06-24_21-00-13_260595134347_rgbf000120-resize_1/002057_2014-06-24_21-00-13_260595134347_rgbf000120-resize_1-target.png,125,2.967,6,6030,130,meters,jsons/VE125_randls_51_rotated.json,987695,1944609,48,Woman
48,428881,DepthScenes,duration_manipulation_targetAtFixation,jsons/VE125_randls_51_rotated.json,http://54.235.29.9/FacialAge/BNav_EC2/DepthDuration/v2_depth_duration_MTurk/v2_DepthDuration_HTML.html#124,124,683,312,1366,768,8-21-2022,14-58-14,49,depth_duration_stimuli/001170_2014-06-17_15-43-44_260595134347_rgbf000096-resize_6/001170_2014-06-17_15-43-44_260595134347_rgbf000096-resize-original.jpg,125,1.1909999999999998,6,10519,178,meters,jsons/VE125_randls_51_rotated.json,987695,1944609,48,Woman
49,428881,DepthScenes,duration_manipulation_targetAtFixation,jsons/VE125_randls_51_rotated.json,http://54.235.29.9/FacialAge/BNav_EC2/DepthDuration/v2_depth_duration_MTurk/v2_DepthDuration_HTML.html#124,124,683,312,1366,768,8-21-2022,14-58-14,50,depth_duration_stimuli/000749_2014-06-08_21-55-06_260595134347_rgbf000070-resize_2/000749_2014-06-08_21-55-06_260595134347_rgbf000070-resize_2-target.png,125,2.331,6,27330,125,meters,jsons/VE125_randls_51_rotated.json,987695,1944609,48,Woman
50,428881,DepthScenes,duration_manipulation_targetAtFixation,jsons/VE125_randls_51_rotated.json,http://54.235.29.9/FacialAge/BNav_EC2/DepthDuration/v2_depth_duration_MTurk/v2_DepthDuration_HTML.html#124,124,683,312,1366,768,8-21-2022,14-58-14,51,depth_duration_stimuli/002788_2014-06-22_19-36-03_094959634447_rgbf000088-resize_2/002788_2014-06-22_19-36-03_094959634447_rgbf000088-resize_2-target.png,125,1.6465,6,4937,112,meters,jsons/VE125_randls_51_rotated.json,987695,1944609,48,Woman
51,428881,DepthScenes,duration_manipulation_targetAtFixation,jsons/VE125_randls_51_rotated.json,http://54.235.29.9/FacialAge/BNav_EC2/DepthDuration/v2_depth_duration_MTurk/v2_DepthDuration_HTML.html#124,124,683,312,1366,768,8-21-2022,14-58-14,52,depth_duration_stimuli/001650_2014-06-20_12-09-00_260595134347_rgbf000087-resize_3/001650_2014-06-20_12-09-00_260595134347_rgbf000087-resize_3-target.png,125,1.9505,6,5854,119,meters,jsons/VE125_randls_51_rotated.json,987695,1944609,48,Woman
52,428881,DepthScenes,duration_manipulation_targetAtFixation,jsons/VE125_randls_51_rotated.json,http://54.235.29.9/FacialAge/BNav_EC2/DepthDuration/v2_depth_duration_MTurk/v2_DepthDuration_HTML.html#124,124,683,312,1366,768,8-21-2022,14-58-14,53,depth_duration_stimuli/000682_2014-06-08_23-14-58_260595134347_rgbf000041-resize_5/000682_2014-06-08_23-14-58_260595134347_rgbf000041-resize_5-target.png,125,2.7239999999999998,6,3688,111,meters,jsons/VE125_randls_51_rotated.json,987695,1944609,48,Woman
53,428881,DepthScenes,duration_manipulation_targetAtFixation,jsons/VE125_randls_51_rotated.json,http://54.235.29.9/FacialAge/BNav_EC2/DepthDuration/v2_depth_duration_MTurk/v2_DepthDuration_HTML.html#124,124,683,312,1366,768,8-21-2022,14-58-14,54,depth_duration_stimuli/000502_2014-06-08_23-02-32_260595134347_rgbf000063-resize_4/000502_2014-06-08_23-02-32_260595134347_rgbf000063-resize_4-target.png,125,2.431,6,4360,207,meters,jsons/VE125_randls_51_rotated.json,987695,1944609,48,Woman
54,428881,DepthScenes,duration_manipulation_targetAtFixation,jsons/VE125_randls_51_rotated.json,http://54.235.29.9/FacialAge/BNav_EC2/DepthDuration/v2_depth_duration_MTurk/v2_DepthDuration_HTML.html#124,124,683,312,1366,768,8-21-2022,14-58-14,55,depth_duration_stimuli/001199_2014-06-17_16-03-48_260595134347_rgbf000077-resize_0/001199_2014-06-17_16-03-48_260595134347_rgbf000077-resize_0-target.png,125,3.4375,6,6630,11,meters,jsons/VE125_randls_51_rotated.json,987695,1944609,48,Woman
55,428881,DepthScenes,duration_manipulation_targetAtFixation,jsons/VE125_randls_51_rotated.json,http://54.235.29.9/FacialAge/BNav_EC2/DepthDuration/v2_depth_duration_MTurk/v2_DepthDuration_HTML.html#124,124,683,312,1366,768,8-21-2022,14-58-14,56,depth_duration_stimuli/003423_2014-05-21_10-23-26_094959634447_rgbf002665-resize_2/003423_2014-05-21_10-23-26_094959634447_rgbf002665-resize_2-target.png,125,3.2575,6,5203,161,meters,jsons/VE125_randls_51_rotated.json,987695,1944609,48,Woman
56,428881,DepthScenes,duration_manipulation_targetAtFixation,jsons/VE125_randls_51_rotated.json,http://54.235.29.9/FacialAge/BNav_EC2/DepthDuration/v2_depth_duration_MTurk/v2_DepthDuration_HTML.html#124,124,683,312,1366,768,8-21-2022,14-58-14,57,depth_duration_stimuli/002905_2014-06-03_18-04-43_094959634447_rgbf000151-resize_2/002905_2014-06-03_18-04-43_094959634447_rgbf000151-resize_2-target.png,125,2.0295,6,3219,229,meters,jsons/VE125_randls_51_rotated.json,987695,1944609,48,Woman
57,428881,DepthScenes,duration_manipulation_targetAtFixation,jsons/VE125_randls_51_rotated.json,http://54.235.29.9/FacialAge/BNav_EC2/DepthDuration/v2_depth_duration_MTurk/v2_DepthDuration_HTML.html#124,124,683,312,1366,768,8-21-2022,14-58-14,58,depth_duration_stimuli/003228_2014-05-14_13-42-35_094959634447_rgbf000101-resize_1/003228_2014-05-14_13-42-35_094959634447_rgbf000101-resize_1-target.png,125,1.9680000000000002,6,2875,109,meters,jsons/VE125_randls_51_rotated.json,987695,1944609,48,Woman
58,428881,DepthScenes,duration_manipulation_targetAtFixation,jsons/VE125_randls_51_rotated.json,http://54.235.29.9/FacialAge/BNav_EC2/DepthDuration/v2_depth_duration_MTurk/v2_DepthDuration_HTML.html#124,124,683,312,1366,768,8-21-2022,14-58-14,59,depth_duration_stimuli/002600_2014-06-24_14-27-04_094959634447_rgbf000074-resize_2/002600_2014-06-24_14-27-04_094959634447_rgbf000074-resize_2-target.png,125,2.7575,6,3547,111,meters,jsons/VE125_randls_51_rotated.json,987695,1944609,48,Woman
59,428881,DepthScenes,duration_manipulation_targetAtFixation,jsons/VE125_randls_51_rotated.json,http://54.235.29.9/FacialAge/BNav_EC2/DepthDuration/v2_depth_duration_MTurk/v2_DepthDuration_HTML.html#124,124,683,312,1366,768,8-21-2022,14-58-14,60,depth_duration_stimuli/001235_2014-06-17_16-37-36_260595134347_rgbf000084-resize_4/001235_2014-06-17_16-37-36_260595134347_rgbf000084-resize_4-target.png,125,3.6605,6,3026,126,meters,jsons/VE125_randls_51_rotated.json,987695,1944609,48,Woman
60,428881,DepthScenes,duration_manipulation_targetAtFixation,jsons/VE125_randls_51_rotated.json,http://54.235.29.9/FacialAge/BNav_EC2/DepthDuration/v2_depth_duration_MTurk/v2_DepthDuration_HTML.html#124,124,683,312,1366,768,8-21-2022,14-58-14,61,depth_duration_stimuli/000788_2014-06-08_22-34-36_260595134347_rgbf000131-resize_1/000788_2014-06-08_22-34-36_260595134347_rgbf000131-resize_1-target.png,125,3.359,6,2691,150,meters,jsons/VE125_randls_51_rotated.json,987695,1944609,48,Woman
61,428881,DepthScenes,duration_manipulation_targetAtFixation,jsons/VE125_randls_51_rotated.json,http://54.235.29.9/FacialAge/BNav_EC2/DepthDuration/v2_depth_duration_MTurk/v2_DepthDuration_HTML.html#124,124,683,312,1366,768,8-21-2022,14-58-14,62,depth_duration_stimuli/001100_2014-06-15_17-46-26_260595134347_rgbf000225-resize_2/001100_2014-06-15_17-46-26_260595134347_rgbf000225-resize_2-target.png,125,2.24,6,4595,112,meters,jsons/VE125_randls_51_rotated.json,987695,1944609,48,Woman
62,428881,DepthScenes,duration_manipulation_targetAtFixation,jsons/VE125_randls_51_rotated.json,http://54.235.29.9/FacialAge/BNav_EC2/DepthDuration/v2_depth_duration_MTurk/v2_DepthDuration_HTML.html#124,124,683,312,1366,768,8-21-2022,14-58-14,63,depth_duration_stimuli/002784_2014-06-22_19-26-30_094959634447_rgbf000083-resize_3/002784_2014-06-22_19-26-30_094959634447_rgbf000083-resize_3-target.png,125,1.8046666666667,6,2608,125,meters,jsons/VE125_randls_51_rotated.json,987695,1944609,48,Woman
63,428881,DepthScenes,duration_manipulation_targetAtFixation,jsons/VE125_randls_51_rotated.json,http://54.235.29.9/FacialAge/BNav_EC2/DepthDuration/v2_depth_duration_MTurk/v2_DepthDuration_HTML.html#124,124,683,312,1366,768,8-21-2022,14-58-14,64,depth_duration_stimuli/000943_2014-06-09_19-31-07_260595134347_rgbf000128-resize_1/000943_2014-06-09_19-31-07_260595134347_rgbf000128-resize_1-target.png,125,1.9765,6,5172,125,meters,jsons/VE125_randls_51_rotated.json,987695,1944609,48,Woman
64,428881,DepthScenes,duration_manipulation_targetAtFixation,jsons/VE125_randls_51_rotated.json,http://54.235.29.9/FacialAge/BNav_EC2/DepthDuration/v2_depth_duration_MTurk/v2_DepthDuration_HTML.html#124,124,683,312,1366,768,8-21-2022,14-58-14,65,depth_duration_stimuli/003070_2014-06-15_14-58-27_094959634447_rgbf000150-resize_3/003070_2014-06-15_14-58-27_094959634447_rgbf000150-resize_3-target.png,125,2.9415,5,2780,159,meters,jsons/VE125_randls_51_rotated.json,987695,1944609,48,Woman
65,428881,DepthScenes,duration_manipulation_targetAtFixation,jsons/VE125_randls_51_rotated.json,http://54.235.29.9/FacialAge/BNav_EC2/DepthDuration/v2_depth_duration_MTurk/v2_DepthDuration_HTML.html#124,124,683,312,1366,768,8-21-2022,14-58-14,66,depth_duration_stimuli/001540_2014-06-20_17-01-05_260595134347_rgbf000086-resize_2/001540_2014-06-20_17-01-05_260595134347_rgbf000086-resize-original.jpg,125,1.459,6,5984,79,meters,jsons/VE125_randls_51_rotated.json,987695,1944609,48,Woman
66,428881,DepthScenes,duration_manipulation_targetAtFixation,jsons/VE125_randls_51_rotated.json,http://54.235.29.9/FacialAge/BNav_EC2/DepthDuration/v2_depth_duration_MTurk/v2_DepthDuration_HTML.html#124,124,683,312,1366,768,8-21-2022,14-58-14,67,depth_duration_stimuli/003129_2014-05-12_10-48-10_094959634447_rgbf000100-resize_0/003129_2014-05-12_10-48-10_094959634447_rgbf000100-resize_0-target.png,125,4.9305,5,4530,125,meters,jsons/VE125_randls_51_rotated.json,987695,1944609,48,Woman
67,428881,DepthScenes,duration_manipulation_targetAtFixation,jsons/VE125_randls_51_rotated.json,http://54.235.29.9/FacialAge/BNav_EC2/DepthDuration/v2_depth_duration_MTurk/v2_DepthDuration_HTML.html#124,124,683,312,1366,768,8-21-2022,14-58-14,68,depth_duration_stimuli/000414_2014-06-04_19-49-13_260595134347_rgbf000044-resize_0/000414_2014-06-04_19-49-13_260595134347_rgbf000044-resize_0-target.png,125,4.329,6,3375,66,meters,jsons/VE125_randls_51_rotated.json,987695,1944609,48,Woman
68,428881,DepthScenes,duration_manipulation_targetAtFixation,jsons/VE125_randls_51_rotated.json,http://54.235.29.9/FacialAge/BNav_EC2/DepthDuration/v2_depth_duration_MTurk/v2_DepthDuration_HTML.html#124,124,683,312,1366,768,8-21-2022,14-58-14,69,depth_duration_stimuli/002995_2014-06-15_12-31-26_094959634447_rgbf000150-resize_1/002995_2014-06-15_12-31-26_094959634447_rgbf000150-resize_1-target.png,125,3.8360000000000003,6,4797,111,meters,jsons/VE125_randls_51_rotated.json,987695,1944609,48,Woman
69,428881,DepthScenes,duration_manipulation_targetAtFixation,jsons/VE125_randls_51_rotated.json,http://54.235.29.9/FacialAge/BNav_EC2/DepthDuration/v2_depth_duration_MTurk/v2_DepthDuration_HTML.html#124,124,683,312,1366,768,8-21-2022,14-58-14,70,depth_duration_stimuli/002748_2014-06-22_19-07-22_094959634447_rgbf000078-resize_1/002748_2014-06-22_19-07-22_094959634447_rgbf000078-resize_1-target.png,125,4.6705,6,4355,139,meters,jsons/VE125_randls_51_rotated.json,987695,1944609,48,Woman
70,428881,DepthScenes,duration_manipulation_targetAtFixation,jsons/VE125_randls_51_rotated.json,http://54.235.29.9/FacialAge/BNav_EC2/DepthDuration/v2_depth_duration_MTurk/v2_DepthDuration_HTML.html#124,124,683,312,1366,768,8-21-2022,14-58-14,71,depth_duration_stimuli/000742_2014-06-08_18-48-09_260595134347_rgbf000164-resize_4/000742_2014-06-08_18-48-09_260595134347_rgbf000164-resize_4-target.png,125,4.632,6,2219,114,meters,jsons/VE125_randls_51_rotated.json,987695,1944609,48,Woman
71,428881,DepthScenes,duration_manipulation_targetAtFixation,jsons/VE125_randls_51_rotated.json,http://54.235.29.9/FacialAge/BNav_EC2/DepthDuration/v2_depth_duration_MTurk/v2_DepthDuration_HTML.html#124,124,683,312,1366,768,8-21-2022,14-58-14,72,depth_duration_stimuli/001066_2014-06-08_22-03-20_260595134347_rgbf000066-resize_4/001066_2014-06-08_22-03-20_260595134347_rgbf000066-resize_4-target.png,125,4.2330000000000005,6,2838,116,meters,jsons/VE125_randls_51_rotated.json,987695,1944609,48,Woman
72,428881,DepthScenes,duration_manipulation_targetAtFixation,jsons/VE125_randls_51_rotated.json,http://54.235.29.9/FacialAge/BNav_EC2/DepthDuration/v2_depth_duration_MTurk/v2_DepthDuration_HTML.html#124,124,683,312,1366,768,8-21-2022,14-58-14,73,depth_duration_stimuli/002103_2014-06-25_20-00-40_260595134347_rgbf000049-resize_0/002103_2014-06-25_20-00-40_260595134347_rgbf000049-resize_0-target.png,125,4.105,6,3156,112,meters,jsons/VE125_randls_51_rotated.json,987695,1944609,48,Woman
73,428881,DepthScenes,duration_manipulation_targetAtFixation,jsons/VE125_randls_51_rotated.json,http://54.235.29.9/FacialAge/BNav_EC2/DepthDuration/v2_depth_duration_MTurk/v2_DepthDuration_HTML.html#124,124,683,312,1366,768,8-21-2022,14-58-14,74,depth_duration_stimuli/002039_2014-06-24_20-22-38_260595134347_rgbf000084-resize_1/002039_2014-06-24_20-22-38_260595134347_rgbf000084-resize_1-target.png,125,4.408,6,2655,138,meters,jsons/VE125_randls_51_rotated.json,987695,1944609,48,Woman
74,428881,DepthScenes,duration_manipulation_targetAtFixation,jsons/VE125_randls_51_rotated.json,http://54.235.29.9/FacialAge/BNav_EC2/DepthDuration/v2_depth_duration_MTurk/v2_DepthDuration_HTML.html#124,124,683,312,1366,768,8-21-2022,14-58-14,75,depth_duration_stimuli/000191_2014-05-12_17-07-38_260595134347_rgbf000199-resize_0/000191_2014-05-12_17-07-38_260595134347_rgbf000199-resize_0-target.png,125,3.7995,6,2562,111,meters,jsons/VE125_randls_51_rotated.json,987695,1944609,48,Woman
75,428881,DepthScenes,duration_manipulation_targetAtFixation,jsons/VE125_randls_51_rotated.json,http://54.235.29.9/FacialAge/BNav_EC2/DepthDuration/v2_depth_duration_MTurk/v2_DepthDuration_HTML.html#124,124,683,312,1366,768,8-21-2022,14-58-14,76,depth_duration_stimuli/000493_2014-06-09_21-01-18_260595134347_rgbf000196-resize_3/000493_2014-06-09_21-01-18_260595134347_rgbf000196-resize_3-target.png,125,3.44,6,2453,148,meters,jsons/VE125_randls_51_rotated.json,987695,1944609,48,Woman
76,428881,DepthScenes,duration_manipulation_targetAtFixation,jsons/VE125_randls_51_rotated.json,http://54.235.29.9/FacialAge/BNav_EC2/DepthDuration/v2_depth_duration_MTurk/v2_DepthDuration_HTML.html#124,124,683,312,1366,768,8-21-2022,14-58-14,77,depth_duration_stimuli/002660_2014-06-13_15-44-18_094959634447_rgbf001878-resize_2/002660_2014-06-13_15-44-18_094959634447_rgbf001878-resize_2-target.png,125,3.576,6,3774,133,meters,jsons/VE125_randls_51_rotated.json,987695,1944609,48,Woman
77,428881,DepthScenes,duration_manipulation_targetAtFixation,jsons/VE125_randls_51_rotated.json,http://54.235.29.9/FacialAge/BNav_EC2/DepthDuration/v2_depth_duration_MTurk/v2_DepthDuration_HTML.html#124,124,683,312,1366,768,8-21-2022,14-58-14,78,depth_duration_stimuli/002153_2014-06-25_21-27-18_260595134347_rgbf000038-resize_5/002153_2014-06-25_21-27-18_260595134347_rgbf000038-resize_5-target.png,125,2.505,6,3266,123,meters,jsons/VE125_randls_51_rotated.json,987695,1944609,48,Woman
78,428881,DepthScenes,duration_manipulation_targetAtFixation,jsons/VE125_randls_51_rotated.json,http://54.235.29.9/FacialAge/BNav_EC2/DepthDuration/v2_depth_duration_MTurk/v2_DepthDuration_HTML.html#124,124,683,312,1366,768,8-21-2022,14-58-14,79,depth_duration_stimuli/001815_2014-06-26_20-52-55_260595134347_rgbf000020-resize_0/001815_2014-06-26_20-52-55_260595134347_rgbf000020-resize_0-target.png,125,3.3865,6,2560,118,meters,jsons/VE125_randls_51_rotated.json,987695,1944609,48,Woman
79,428881,DepthScenes,duration_manipulation_targetAtFixation,jsons/VE125_randls_51_rotated.json,http://54.235.29.9/FacialAge/BNav_EC2/DepthDuration/v2_depth_duration_MTurk/v2_DepthDuration_HTML.html#124,124,683,312,1366,768,8-21-2022,14-58-14,80,depth_duration_stimuli/001808_2014-06-26_20-50-58_260595134347_rgbf000029-resize_1/001808_2014-06-26_20-50-58_260595134347_rgbf000029-resize_1-target.png,125,4.249,6,2311,117,meters,jsons/VE125_randls_51_rotated.json,987695,1944609,48,Woman
80,428881,DepthScenes,duration_manipulation_targetAtFixation,jsons/VE125_randls_51_rotated.json,http://54.235.29.9/FacialAge/BNav_EC2/DepthDuration/v2_depth_duration_MTurk/v2_DepthDuration_HTML.html#124,124,683,312,1366,768,8-21-2022,14-58-14,81,depth_duration_stimuli/001136_2014-06-17_15-19-41_260595134347_rgbf000076-resize_3/001136_2014-06-17_15-19-41_260595134347_rgbf000076-resize_3-target.png,125,1.8655,6,13620,121,meters,jsons/VE125_randls_51_rotated.json,987695,1944609,48,Woman
81,428881,DepthScenes,duration_manipulation_targetAtFixation,jsons/VE125_randls_51_rotated.json,http://54.235.29.9/FacialAge/BNav_EC2/DepthDuration/v2_depth_duration_MTurk/v2_DepthDuration_HTML.html#124,124,683,312,1366,768,8-21-2022,14-58-14,82,depth_duration_stimuli/001164_2014-06-17_15-35-46_260595134347_rgbf000085-resize_3/001164_2014-06-17_15-35-46_260595134347_rgbf000085-resize_3-target.png,125,2.354,6,5781,123,meters,jsons/VE125_randls_51_rotated.json,987695,1944609,48,Woman
82,428881,DepthScenes,duration_manipulation_targetAtFixation,jsons/VE125_randls_51_rotated.json,http://54.235.29.9/FacialAge/BNav_EC2/DepthDuration/v2_depth_duration_MTurk/v2_DepthDuration_HTML.html#124,124,683,312,1366,768,8-21-2022,14-58-14,83,depth_duration_stimuli/002758_2014-06-22_19-11-20_094959634447_rgbf000128-resize_1/002758_2014-06-22_19-11-20_094959634447_rgbf000128-resize_1-target.png,125,2.555,6,2969,128,meters,jsons/VE125_randls_51_rotated.json,987695,1944609,48,Woman
83,428881,DepthScenes,duration_manipulation_targetAtFixation,jsons/VE125_randls_51_rotated.json,http://54.235.29.9/FacialAge/BNav_EC2/DepthDuration/v2_depth_duration_MTurk/v2_DepthDuration_HTML.html#124,124,683,312,1366,768,8-21-2022,14-58-14,84,depth_duration_stimuli/002630_2014-06-24_14-47-50_094959634447_rgbf000055-resize_1/002630_2014-06-24_14-47-50_094959634447_rgbf000055-resize_1-target.png,125,3.0095,65,9203,125,meters,jsons/VE125_randls_51_rotated.json,987695,1944609,48,Woman
84,428881,DepthScenes,duration_manipulation_targetAtFixation,jsons/VE125_randls_51_rotated.json,http://54.235.29.9/FacialAge/BNav_EC2/DepthDuration/v2_depth_duration_MTurk/v2_DepthDuration_HTML.html#124,124,683,312,1366,768,8-21-2022,14-58-14,85,depth_duration_stimuli/001447_2014-06-19_17-00-32_260595134347_rgbf000082-resize_5/001447_2014-06-19_17-00-32_260595134347_rgbf000082-resize_5-target.png,125,4.13775,6,12093,113,meters,jsons/VE125_randls_51_rotated.json,987695,1944609,48,Woman
85,428881,DepthScenes,duration_manipulation_targetAtFixation,jsons/VE125_randls_51_rotated.json,http://54.235.29.9/FacialAge/BNav_EC2/DepthDuration/v2_depth_duration_MTurk/v2_DepthDuration_HTML.html#124,124,683,312,1366,768,8-21-2022,14-58-14,86,depth_duration_stimuli/000447_2014-06-08_16-15-46_260595134347_rgbf000130-resize_1/000447_2014-06-08_16-15-46_260595134347_rgbf000130-resize_1-target.png,125,4.479,6,2125,111,meters,jsons/VE125_randls_51_rotated.json,987695,1944609,48,Woman
86,428881,DepthScenes,duration_manipulation_targetAtFixation,jsons/VE125_randls_51_rotated.json,http://54.235.29.9/FacialAge/BNav_EC2/DepthDuration/v2_depth_duration_MTurk/v2_DepthDuration_HTML.html#124,124,683,312,1366,768,8-21-2022,14-58-14,87,depth_duration_stimuli/000109_2014-05-14_23-41-52_260595134347_rgbf000035-resize_9/000109_2014-05-14_23-41-52_260595134347_rgbf000035-resize_9-target.png,125,1.3545,6,2199,139,meters,jsons/VE125_randls_51_rotated.json,987695,1944609,48,Woman
87,428881,DepthScenes,duration_manipulation_targetAtFixation,jsons/VE125_randls_51_rotated.json,http://54.235.29.9/FacialAge/BNav_EC2/DepthDuration/v2_depth_duration_MTurk/v2_DepthDuration_HTML.html#124,124,683,312,1366,768,8-21-2022,14-58-14,88,depth_duration_stimuli/000470_2014-06-09_19-42-40_260595134347_rgbf000094-resize_1/000470_2014-06-09_19-42-40_260595134347_rgbf000094-resize_1-target.png,125,1.831,6,4464,113,meters,jsons/VE125_randls_51_rotated.json,987695,1944609,48,Woman
88,428881,DepthScenes,duration_manipulation_targetAtFixation,jsons/VE125_randls_51_rotated.json,http://54.235.29.9/FacialAge/BNav_EC2/DepthDuration/v2_depth_duration_MTurk/v2_DepthDuration_HTML.html#124,124,683,312,1366,768,8-21-2022,14-58-14,89,depth_duration_stimuli/003081_2014-06-15_15-19-16_094959634447_rgbf000150-resize_1/003081_2014-06-15_15-19-16_094959634447_rgbf000150-resize_1-target.png,125,3.9125,6,11345,110,meters,jsons/VE125_randls_51_rotated.json,987695,1944609,48,Woman
89,428881,DepthScenes,duration_manipulation_targetAtFixation,jsons/VE125_randls_51_rotated.json,http://54.235.29.9/FacialAge/BNav_EC2/DepthDuration/v2_depth_duration_MTurk/v2_DepthDuration_HTML.html#124,124,683,312,1366,768,8-21-2022,14-58-14,90,depth_duration_stimuli/001417_2014-06-19_16-25-36_260595134347_rgbf000115-resize_5/001417_2014-06-19_16-25-36_260595134347_rgbf000115-resize_5-target.png,125,4.6255,6,2380,138,meters,jsons/VE125_randls_51_rotated.json,987695,1944609,48,Woman
90,428881,DepthScenes,duration_manipulation_targetAtFixation,jsons/VE125_randls_51_rotated.json,http://54.235.29.9/FacialAge/BNav_EC2/DepthDuration/v2_depth_duration_MTurk/v2_DepthDuration_HTML.html#124,124,683,312,1366,768,8-21-2022,14-58-14,91,depth_duration_stimuli/001094_2014-06-15_17-36-00_260595134347_rgbf000205-resize_0/001094_2014-06-15_17-36-00_260595134347_rgbf000205-resize_0-target.png,125,4.2175,6,3609,124,meters,jsons/VE125_randls_51_rotated.json,987695,1944609,48,Woman
91,428881,DepthScenes,duration_manipulation_targetAtFixation,jsons/VE125_randls_51_rotated.json,http://54.235.29.9/FacialAge/BNav_EC2/DepthDuration/v2_depth_duration_MTurk/v2_DepthDuration_HTML.html#124,124,683,312,1366,768,8-21-2022,14-58-14,92,depth_duration_stimuli/000692_2014-06-08_13-09-42_260595134347_rgbf000199-resize_2/000692_2014-06-08_13-09-42_260595134347_rgbf000199-resize_2-target.png,125,3.661,6,2999,125,meters,jsons/VE125_randls_51_rotated.json,987695,1944609,48,Woman
92,428881,DepthScenes,duration_manipulation_targetAtFixation,jsons/VE125_randls_51_rotated.json,http://54.235.29.9/FacialAge/BNav_EC2/DepthDuration/v2_depth_duration_MTurk/v2_DepthDuration_HTML.html#124,124,683,312,1366,768,8-21-2022,14-58-14,93,depth_duration_stimuli/002639_2014-06-24_14-51-37_094959634447_rgbf000074-resize_4/002639_2014-06-24_14-51-37_094959634447_rgbf000074-resize_4-target.png,125,4.0375,6,1969,127,meters,jsons/VE125_randls_51_rotated.json,987695,1944609,48,Woman
93,428881,DepthScenes,duration_manipulation_targetAtFixation,jsons/VE125_randls_51_rotated.json,http://54.235.29.9/FacialAge/BNav_EC2/DepthDuration/v2_depth_duration_MTurk/v2_DepthDuration_HTML.html#124,124,683,312,1366,768,8-21-2022,14-58-14,94,depth_duration_stimuli/003292_2014-05-14_21-53-49_094959634447_rgbf000100-resize_2/003292_2014-05-14_21-53-49_094959634447_rgbf000100-resize_2-target.png,125,3.4815,2,1984,111,meters,jsons/VE125_randls_51_rotated.json,987695,1944609,48,Woman
94,428881,DepthScenes,duration_manipulation_targetAtFixation,jsons/VE125_randls_51_rotated.json,http://54.235.29.9/FacialAge/BNav_EC2/DepthDuration/v2_depth_duration_MTurk/v2_DepthDuration_HTML.html#124,124,683,312,1366,768,8-21-2022,14-58-14,95,depth_duration_stimuli/000927_2014-06-09_16-32-30_260595134347_rgbf000123-resize_3/000927_2014-06-09_16-32-30_260595134347_rgbf000123-resize_3-target.png,125,2.6785,6,3928,135,meters,jsons/VE125_randls_51_rotated.json,987695,1944609,48,Woman
95,428881,DepthScenes,duration_manipulation_targetAtFixation,jsons/VE125_randls_51_rotated.json,http://54.235.29.9/FacialAge/BNav_EC2/DepthDuration/v2_depth_duration_MTurk/v2_DepthDuration_HTML.html#124,124,683,312,1366,768,8-21-2022,14-58-14,96,depth_duration_stimuli/001110_2014-06-15_17-25-28_260595134347_rgbf000150-resize_1/001110_2014-06-15_17-25-28_260595134347_rgbf000150-resize_1-target.png,125,1.7115,5,2049,131,meters,jsons/VE125_randls_51_rotated.json,987695,1944609,48,Woman
96,428881,DepthScenes,duration_manipulation_targetAtFixation,jsons/VE125_randls_51_rotated.json,http://54.235.29.9/FacialAge/BNav_EC2/DepthDuration/v2_depth_duration_MTurk/v2_DepthDuration_HTML.html#124,124,683,312,1366,768,8-21-2022,14-58-14,97,depth_duration_stimuli/000549_2014-06-08_22-10-24_260595134347_rgbf000247-resize_3/000549_2014-06-08_22-10-24_260595134347_rgbf000247-resize_3-target.png,125,1.841,5,2655,120,meters,jsons/VE125_randls_51_rotated.json,987695,1944609,48,Woman
97,428881,DepthScenes,duration_manipulation_targetAtFixation,jsons/VE125_randls_51_rotated.json,http://54.235.29.9/FacialAge/BNav_EC2/DepthDuration/v2_depth_duration_MTurk/v2_DepthDuration_HTML.html#124,124,683,312,1366,768,8-21-2022,14-58-14,98,depth_duration_stimuli/001055_2014-06-08_18-45-35_260595134347_rgbf000111-resize_4/001055_2014-06-08_18-45-35_260595134347_rgbf000111-resize_4-target.png,125,2.4290000000000003,6,3092,109,meters,jsons/VE125_randls_51_rotated.json,987695,1944609,48,Woman
98,428881,DepthScenes,duration_manipulation_targetAtFixation,jsons/VE125_randls_51_rotated.json,http://54.235.29.9/FacialAge/BNav_EC2/DepthDuration/v2_depth_duration_MTurk/v2_DepthDuration_HTML.html#124,124,683,312,1366,768,8-21-2022,14-58-14,99,depth_duration_stimuli/001222_2014-06-17_16-24-06_260595134347_rgbf000073-resize_0/001222_2014-06-17_16-24-06_260595134347_rgbf000073-resize-original.jpg,125,1.4385,6,2469,118,meters,jsons/VE125_randls_51_rotated.json,987695,1944609,48,Woman
99,428881,DepthScenes,duration_manipulation_targetAtFixation,jsons/VE125_randls_51_rotated.json,http://54.235.29.9/FacialAge/BNav_EC2/DepthDuration/v2_depth_duration_MTurk/v2_DepthDuration_HTML.html#124,124,683,312,1366,768,8-21-2022,14-58-14,100,depth_duration_stimuli/002949_2014-06-26_15-57-42_094959634447_rgbf000079-resize_1/002949_2014-06-26_15-57-42_094959634447_rgbf000079-resize_1-target.png,125,1.8915,6,2266,111,meters,jsons/VE125_randls_51_rotated.json,987695,1944609,48,Woman
100,428881,DepthScenes,duration_manipulation_targetAtFixation,jsons/VE125_randls_51_rotated.json,http://54.235.29.9/FacialAge/BNav_EC2/DepthDuration/v2_depth_duration_MTurk/v2_DepthDuration_HTML.html#124,124,683,312,1366,768,8-21-2022,14-58-14,101,depth_duration_stimuli/000522_2014-06-08_13-35-06_260595134347_rgbf000244-resize_1/000522_2014-06-08_13-35-06_260595134347_rgbf000244-resize_1-target.png,125,2.3715,6,3297,133,meters,jsons/VE125_randls_51_rotated.json,987695,1944609,48,Woman
101,428881,DepthScenes,duration_manipulation_targetAtFixation,jsons/VE125_randls_51_rotated.json,http://54.235.29.9/FacialAge/BNav_EC2/DepthDuration/v2_depth_duration_MTurk/v2_DepthDuration_HTML.html#124,124,683,312,1366,768,8-21-2022,14-58-14,102,depth_duration_stimuli/000854_2014-06-09_19-43-13_260595134347_rgbf000066-resize_0/000854_2014-06-09_19-43-13_260595134347_rgbf000066-resize_0-target.png,125,3.068,6,5376,110,meters,jsons/VE125_randls_51_rotated.json,987695,1944609,48,Woman
102,428881,DepthScenes,duration_manipulation_targetAtFixation,jsons/VE125_randls_51_rotated.json,http://54.235.29.9/FacialAge/BNav_EC2/DepthDuration/v2_depth_duration_MTurk/v2_DepthDuration_HTML.html#124,124,683,312,1366,768,8-21-2022,14-58-14,103,depth_duration_stimuli/000758_2014-06-08_22-05-08_260595134347_rgbf000085-resize_0/000758_2014-06-08_22-05-08_260595134347_rgbf000085-resize_0-target.png,125,3.3810000000000002,65,7595,73,meters,jsons/VE125_randls_51_rotated.json,987695,1944609,48,Woman
103,428881,DepthScenes,duration_manipulation_targetAtFixation,jsons/VE125_randls_51_rotated.json,http://54.235.29.9/FacialAge/BNav_EC2/DepthDuration/v2_depth_duration_MTurk/v2_DepthDuration_HTML.html#124,124,683,312,1366,768,8-21-2022,14-58-14,104,depth_duration_stimuli/000457_2014-06-08_16-52-43_260595134347_rgbf000199-resize_1/000457_2014-06-08_16-52-43_260595134347_rgbf000199-resize_1-target.png,125,3.6489999999999996,5,5297,111,meters,jsons/VE125_randls_51_rotated.json,987695,1944609,48,Woman
104,428881,DepthScenes,duration_manipulation_targetAtFixation,jsons/VE125_randls_51_rotated.json,http://54.235.29.9/FacialAge/BNav_EC2/DepthDuration/v2_depth_duration_MTurk/v2_DepthDuration_HTML.html#124,124,683,312,1366,768,8-21-2022,14-58-14,105,depth_duration_stimuli/000929_2014-06-09_16-33-19_260595134347_rgbf000139-resize_0/000929_2014-06-09_16-33-19_260595134347_rgbf000139-resize_0-target.png,125,2.8680000000000003,5,8359,110,meters,jsons/VE125_randls_51_rotated.json,987695,1944609,48,Woman
105,428881,DepthScenes,duration_manipulation_targetAtFixation,jsons/VE125_randls_51_rotated.json,http://54.235.29.9/FacialAge/BNav_EC2/DepthDuration/v2_depth_duration_MTurk/v2_DepthDuration_HTML.html#124,124,683,312,1366,768,8-21-2022,14-58-14,106,depth_duration_stimuli/002199_2014-06-28_18-33-56_260595134347_rgbf000074-resize_0/002199_2014-06-28_18-33-56_260595134347_rgbf000074-resize_0-target.png,125,1.996,6,8392,126,meters,jsons/VE125_randls_51_rotated.json,987695,1944609,48,Woman
106,428881,DepthScenes,duration_manipulation_targetAtFixation,jsons/VE125_randls_51_rotated.json,http://54.235.29.9/FacialAge/BNav_EC2/DepthDuration/v2_depth_duration_MTurk/v2_DepthDuration_HTML.html#124,124,683,312,1366,768,8-21-2022,14-58-14,107,depth_duration_stimuli/001056_2014-06-08_18-46-44_260595134347_rgbf000068-resize_0/001056_2014-06-08_18-46-44_260595134347_rgbf000068-resize_0-target.png,125,2.6625,6,4110,224,meters,jsons/VE125_randls_51_rotated.json,987695,1944609,48,Woman
107,428881,DepthScenes,duration_manipulation_targetAtFixation,jsons/VE125_randls_51_rotated.json,http://54.235.29.9/FacialAge/BNav_EC2/DepthDuration/v2_depth_duration_MTurk/v2_DepthDuration_HTML.html#124,124,683,312,1366,768,8-21-2022,14-58-14,108,depth_duration_stimuli/002323_2014-06-28_20-01-54_260595134347_rgbf000051-resize_4/002323_2014-06-28_20-01-54_260595134347_rgbf000051-resize_4-target.png,125,3.7310000000000003,6,2626,126,meters,jsons/VE125_randls_51_rotated.json,987695,1944609,48,Woman
108,428881,DepthScenes,duration_manipulation_targetAtFixation,jsons/VE125_randls_51_rotated.json,http://54.235.29.9/FacialAge/BNav_EC2/DepthDuration/v2_depth_duration_MTurk/v2_DepthDuration_HTML.html#124,124,683,312,1366,768,8-21-2022,14-58-14,109,depth_duration_stimuli/000917_2014-06-09_22-45-29_260595134347_rgbf000149-resize_3/000917_2014-06-09_22-45-29_260595134347_rgbf000149-resize_3-target.png,125,4.1865,6,2625,124,meters,jsons/VE125_randls_51_rotated.json,987695,1944609,48,Woman
109,428881,DepthScenes,duration_manipulation_targetAtFixation,jsons/VE125_randls_51_rotated.json,http://54.235.29.9/FacialAge/BNav_EC2/DepthDuration/v2_depth_duration_MTurk/v2_DepthDuration_HTML.html#124,124,683,312,1366,768,8-21-2022,14-58-14,110,depth_duration_stimuli/002136_2014-06-25_21-18-03_260595134347_rgbf000109-resize_3/002136_2014-06-25_21-18-03_260595134347_rgbf000109-resize_3-target.png,125,1.9569999999999999,6,3078,213,meters,jsons/VE125_randls_51_rotated.json,987695,1944609,48,Woman
110,428881,DepthScenes,duration_manipulation_targetAtFixation,jsons/VE125_randls_51_rotated.json,http://54.235.29.9/FacialAge/BNav_EC2/DepthDuration/v2_depth_duration_MTurk/v2_DepthDuration_HTML.html#124,124,683,312,1366,768,8-21-2022,14-58-14,111,depth_duration_stimuli/002964_2014-06-08_17-46-11_094959634447_rgbf000091-resize_4/002964_2014-06-08_17-46-11_094959634447_rgbf000091-resize_4-target.png,125,1.6909999999999998,6,5640,434,meters,jsons/VE125_randls_51_rotated.json,987695,1944609,48,Woman
111,428881,DepthScenes,duration_manipulation_targetAtFixation,jsons/VE125_randls_51_rotated.json,http://54.235.29.9/FacialAge/BNav_EC2/DepthDuration/v2_depth_duration_MTurk/v2_DepthDuration_HTML.html#124,124,683,312,1366,768,8-21-2022,14-58-14,112,depth_duration_stimuli/001617_2014-06-20_11-35-32_260595134347_rgbf000066-resize_1/001617_2014-06-20_11-35-32_260595134347_rgbf000066-resize_1-target.png,125,3.7910000000000004,6,15375,111,meters,jsons/VE125_randls_51_rotated.json,987695,1944609,48,Woman
112,428881,DepthScenes,duration_manipulation_targetAtFixation,jsons/VE125_randls_51_rotated.json,http://54.235.29.9/FacialAge/BNav_EC2/DepthDuration/v2_depth_duration_MTurk/v2_DepthDuration_HTML.html#124,124,683,312,1366,768,8-21-2022,14-58-14,113,depth_duration_stimuli/001806_2014-06-26_20-50-20_260595134347_rgbf000091-resize_1/001806_2014-06-26_20-50-20_260595134347_rgbf000091-resize_1-target.png,125,2.7305,6,4531,112,meters,jsons/VE125_randls_51_rotated.json,987695,1944609,48,Woman
113,428881,DepthScenes,duration_manipulation_targetAtFixation,jsons/VE125_randls_51_rotated.json,http://54.235.29.9/FacialAge/BNav_EC2/DepthDuration/v2_depth_duration_MTurk/v2_DepthDuration_HTML.html#124,124,683,312,1366,768,8-21-2022,14-58-14,114,depth_duration_stimuli/000691_2014-06-08_13-08-50_260595134347_rgbf000132-resize_3/000691_2014-06-08_13-08-50_260595134347_rgbf000132-resize_3-target.png,125,4.1530000000000005,3,7203,142,meters,jsons/VE125_randls_51_rotated.json,987695,1944609,48,Woman
114,428881,DepthScenes,duration_manipulation_targetAtFixation,jsons/VE125_randls_51_rotated.json,http://54.235.29.9/FacialAge/BNav_EC2/DepthDuration/v2_depth_duration_MTurk/v2_DepthDuration_HTML.html#124,124,683,312,1366,768,8-21-2022,14-58-14,115,depth_duration_stimuli/002213_2014-06-28_18-37-58_260595134347_rgbf000055-resize_1/002213_2014-06-28_18-37-58_260595134347_rgbf000055-resize_1-target.png,125,3.62,6,4093,110,meters,jsons/VE125_randls_51_rotated.json,987695,1944609,48,Woman
115,428881,DepthScenes,duration_manipulation_targetAtFixation,jsons/VE125_randls_51_rotated.json,http://54.235.29.9/FacialAge/BNav_EC2/DepthDuration/v2_depth_duration_MTurk/v2_DepthDuration_HTML.html#124,124,683,312,1366,768,8-21-2022,14-58-14,116,depth_duration_stimuli/002568_2014-06-24_13-59-21_094959634447_rgbf000062-resize_4/002568_2014-06-24_13-59-21_094959634447_rgbf000062-resize_4-target.png,125,3.015,6,3563,176,meters,jsons/VE125_randls_51_rotated.json,987695,1944609,48,Woman
116,428881,DepthScenes,duration_manipulation_targetAtFixation,jsons/VE125_randls_51_rotated.json,http://54.235.29.9/FacialAge/BNav_EC2/DepthDuration/v2_depth_duration_MTurk/v2_DepthDuration_HTML.html#124,124,683,312,1366,768,8-21-2022,14-58-14,117,depth_duration_stimuli/003492_2014-05-21_15-50-55_094959634447_rgbf000828-resize_1/003492_2014-05-21_15-50-55_094959634447_rgbf000828-resize_1-target.png,125,4.06875,6,2060,114,meters,jsons/VE125_randls_51_rotated.json,987695,1944609,48,Woman
117,428881,DepthScenes,duration_manipulation_targetAtFixation,jsons/VE125_randls_51_rotated.json,http://54.235.29.9/FacialAge/BNav_EC2/DepthDuration/v2_depth_duration_MTurk/v2_DepthDuration_HTML.html#124,124,683,312,1366,768,8-21-2022,14-58-14,118,depth_duration_stimuli/003495_2014-05-21_16-01-51_094959634447_rgbf000100-resize_3/003495_2014-05-21_16-01-51_094959634447_rgbf000100-resize_3-target.png,125,1.6255,6,3766,0,meters,jsons/VE125_randls_51_rotated.json,987695,1944609,48,Woman
118,428881,DepthScenes,duration_manipulation_targetAtFixation,jsons/VE125_randls_51_rotated.json,http://54.235.29.9/FacialAge/BNav_EC2/DepthDuration/v2_depth_duration_MTurk/v2_DepthDuration_HTML.html#124,124,683,312,1366,768,8-21-2022,14-58-14,119,depth_duration_stimuli/001244_2014-06-17_16-47-45_260595134347_rgbf000030-resize_4/001244_2014-06-17_16-47-45_260595134347_rgbf000030-resize_4-target.png,125,2.0425,6,2343,116,meters,jsons/VE125_randls_51_rotated.json,987695,1944609,48,Woman
119,428881,DepthScenes,duration_manipulation_targetAtFixation,jsons/VE125_randls_51_rotated.json,http://54.235.29.9/FacialAge/BNav_EC2/DepthDuration/v2_depth_duration_MTurk/v2_DepthDuration_HTML.html#124,124,683,312,1366,768,8-21-2022,14-58-14,120,depth_duration_stimuli/000787_2014-06-08_22-33-53_260595134347_rgbf000175-resize_1/000787_2014-06-08_22-33-53_260595134347_rgbf000175-resize-original.jpg,125,4.784,6,2235,129,meters,jsons/VE125_randls_51_rotated.json,987695,1944609,48,Woman
120,428881,DepthScenes,duration_manipulation_targetAtFixation,jsons/VE125_randls_51_rotated.json,http://54.235.29.9/FacialAge/BNav_EC2/DepthDuration/v2_depth_duration_MTurk/v2_DepthDuration_HTML.html#124,124,683,312,1366,768,8-21-2022,14-58-14,121,depth_duration_stimuli/001516_2014-06-20_16-25-09_260595134347_rgbf000076-resize_2/001516_2014-06-20_16-25-09_260595134347_rgbf000076-resize_2-target.png,125,1.7445,6,2923,111,meters,jsons/VE125_randls_51_rotated.json,987695,1944609,48,Woman
121,428881,DepthScenes,duration_manipulation_targetAtFixation,jsons/VE125_randls_51_rotated.json,http://54.235.29.9/FacialAge/BNav_EC2/DepthDuration/v2_depth_duration_MTurk/v2_DepthDuration_HTML.html#124,124,683,312,1366,768,8-21-2022,14-58-14,122,depth_duration_stimuli/002118_2014-06-25_20-32-08_260595134347_rgbf000078-resize_1/002118_2014-06-25_20-32-08_260595134347_rgbf000078-resize_1-target.png,125,2.6460000000000004,6,3252,151,meters,jsons/VE125_randls_51_rotated.json,987695,1944609,48,Woman
122,428881,DepthScenes,duration_manipulation_targetAtFixation,jsons/VE125_randls_51_rotated.json,http://54.235.29.9/FacialAge/BNav_EC2/DepthDuration/v2_depth_duration_MTurk/v2_DepthDuration_HTML.html#124,124,683,312,1366,768,8-21-2022,14-58-14,123,depth_duration_stimuli/000137_2014-05-20_17-04-49_260595134347_rgbf000120-resize_1/000137_2014-05-20_17-04-49_260595134347_rgbf000120-resize_1-target.png,125,3.786,6,2203,113,meters,jsons/VE125_randls_51_rotated.json,987695,1944609,48,Woman
123,428881,DepthScenes,duration_manipulation_targetAtFixation,jsons/VE125_randls_51_rotated.json,http://54.235.29.9/FacialAge/BNav_EC2/DepthDuration/v2_depth_duration_MTurk/v2_DepthDuration_HTML.html#124,124,683,312,1366,768,8-21-2022,14-58-14,124,depth_duration_stimuli/000736_2014-06-08_18-24-15_260595134347_rgbf000206-resize_3/000736_2014-06-08_18-24-15_260595134347_rgbf000206-resize_3-target.png,125,3.515,6,1934,111,meters,jsons/VE125_randls_51_rotated.json,987695,1944609,48,Woman
124,428881,DepthScenes,duration_manipulation_targetAtFixation,jsons/VE125_randls_51_rotated.json,http://54.235.29.9/FacialAge/BNav_EC2/DepthDuration/v2_depth_duration_MTurk/v2_DepthDuration_HTML.html#124,124,683,312,1366,768,8-21-2022,14-58-14,125,depth_duration_stimuli/001828_2014-06-26_21-40-03_260595134347_rgbf000024-resize_0/001828_2014-06-26_21-40-03_260595134347_rgbf000024-resize_0-target.png,125,4.8260000000000005,6,2564,111,meters,jsons/VE125_randls_51_rotated.json,987695,1944609,48,Woman
125,428881,DepthScenes,duration_manipulation_targetAtFixation,jsons/VE125_randls_51_rotated.json,http://54.235.29.9/FacialAge/BNav_EC2/DepthDuration/v2_depth_duration_MTurk/v2_DepthDuration_HTML.html#124,124,683,312,1366,768,8-21-2022,14-58-14,126,depth_duration_stimuli/000009_2014-05-26_14-32-05_260595134347_rgbf000034-resize_3/000009_2014-05-26_14-32-05_260595134347_rgbf000034-resize_3-target.png,125,3.8715,6,2094,112,meters,jsons/VE125_randls_51_rotated.json,987695,1944609,48,Woman
126,428881,DepthScenes,duration_manipulation_targetAtFixation,jsons/VE125_randls_51_rotated.json,http://54.235.29.9/FacialAge/BNav_EC2/DepthDuration/v2_depth_duration_MTurk/v2_DepthDuration_HTML.html#124,124,683,312,1366,768,8-21-2022,14-58-14,127,depth_duration_stimuli/000677_2014-06-08_23-10-32_260595134347_rgbf000158-resize_6/000677_2014-06-08_23-10-32_260595134347_rgbf000158-resize_6-target.png,125,3.556,6,2110,119,meters,jsons/VE125_randls_51_rotated.json,987695,1944609,48,Woman
127,428881,DepthScenes,duration_manipulation_targetAtFixation,jsons/VE125_randls_51_rotated.json,http://54.235.29.9/FacialAge/BNav_EC2/DepthDuration/v2_depth_duration_MTurk/v2_DepthDuration_HTML.html#124,124,683,312,1366,768,8-21-2022,14-58-14,128,depth_duration_stimuli/001029_2014-06-08_13-17-57_260595134347_rgbf000065-resize_1/001029_2014-06-08_13-17-57_260595134347_rgbf000065-resize_1-target.png,125,3.0835,6,1933,111,meters,jsons/VE125_randls_51_rotated.json,987695,1944609,48,Woman
128,428881,DepthScenes,duration_manipulation_targetAtFixation,jsons/VE125_randls_51_rotated.json,http://54.235.29.9/FacialAge/BNav_EC2/DepthDuration/v2_depth_duration_MTurk/v2_DepthDuration_HTML.html#124,124,683,312,1366,768,8-21-2022,14-58-14,129,depth_duration_stimuli/002875_2014-06-01_15-19-00_094959634447_rgbf000151-resize_1/002875_2014-06-01_15-19-00_094959634447_rgbf000151-resize_1-target.png,125,1.9675,6,2078,125,meters,jsons/VE125_randls_51_rotated.json,987695,1944609,48,Woman
129,428881,DepthScenes,duration_manipulation_targetAtFixation,jsons/VE125_randls_51_rotated.json,http://54.235.29.9/FacialAge/BNav_EC2/DepthDuration/v2_depth_duration_MTurk/v2_DepthDuration_HTML.html#124,124,683,312,1366,768,8-21-2022,14-58-14,130,depth_duration_stimuli/001011_2014-06-08_23-18-54_260595134347_rgbf000044-resize_4/001011_2014-06-08_23-18-54_260595134347_rgbf000044-resize_4-target.png,125,2.4730000000000003,6,2521,123,meters,jsons/VE125_randls_51_rotated.json,987695,1944609,48,Woman
130,428881,DepthScenes,duration_manipulation_targetAtFixation,jsons/VE125_randls_51_rotated.json,http://54.235.29.9/FacialAge/BNav_EC2/DepthDuration/v2_depth_duration_MTurk/v2_DepthDuration_HTML.html#124,124,683,312,1366,768,8-21-2022,14-58-14,131,depth_duration_stimuli/003079_2014-06-15_15-18-20_094959634447_rgbf000152-resize_8/003079_2014-06-15_15-18-20_094959634447_rgbf000152-resize_8-target.png,125,2.8775,6,1970,116,meters,jsons/VE125_randls_51_rotated.json,987695,1944609,48,Woman
131,428881,DepthScenes,duration_manipulation_targetAtFixation,jsons/VE125_randls_51_rotated.json,http://54.235.29.9/FacialAge/BNav_EC2/DepthDuration/v2_depth_duration_MTurk/v2_DepthDuration_HTML.html#124,124,683,312,1366,768,8-21-2022,14-58-14,132,depth_duration_stimuli/000506_2014-06-08_23-21-00_260595134347_rgbf000070-resize_7/000506_2014-06-08_23-21-00_260595134347_rgbf000070-resize_7-target.png,125,4.0585,6,1938,116,meters,jsons/VE125_randls_51_rotated.json,987695,1944609,48,Woman
132,428881,DepthScenes,duration_manipulation_targetAtFixation,jsons/VE125_randls_51_rotated.json,http://54.235.29.9/FacialAge/BNav_EC2/DepthDuration/v2_depth_duration_MTurk/v2_DepthDuration_HTML.html#124,124,683,312,1366,768,8-21-2022,14-58-14,133,depth_duration_stimuli/002414_2014-06-28_20-24-58_260595134347_rgbf000067-resize_4/002414_2014-06-28_20-24-58_260595134347_rgbf000067-resize_4-target.png,125,4.363,5,10657,112,meters,jsons/VE125_randls_51_rotated.json,987695,1944609,48,Woman
133,428881,DepthScenes,duration_manipulation_targetAtFixation,jsons/VE125_randls_51_rotated.json,http://54.235.29.9/FacialAge/BNav_EC2/DepthDuration/v2_depth_duration_MTurk/v2_DepthDuration_HTML.html#124,124,683,312,1366,768,8-21-2022,14-58-14,134,depth_duration_stimuli/000773_2014-06-08_22-24-54_260595134347_rgbf000093-resize_1/000773_2014-06-08_22-24-54_260595134347_rgbf000093-resize_1-target.png,125,4.973,5,2998,127,meters,jsons/VE125_randls_51_rotated.json,987695,1944609,48,Woman
134,428881,DepthScenes,duration_manipulation_targetAtFixation,jsons/VE125_randls_51_rotated.json,http://54.235.29.9/FacialAge/BNav_EC2/DepthDuration/v2_depth_duration_MTurk/v2_DepthDuration_HTML.html#124,124,683,312,1366,768,8-21-2022,14-58-14,135,depth_duration_stimuli/000375_2014-06-08_11-17-29_260595134347_rgbf000133-resize_2/000375_2014-06-08_11-17-29_260595134347_rgbf000133-resize-original.jpg,125,4.718,6,3344,114,meters,jsons/VE125_randls_51_rotated.json,987695,1944609,48,Woman
135,428881,DepthScenes,duration_manipulation_targetAtFixation,jsons/VE125_randls_51_rotated.json,http://54.235.29.9/FacialAge/BNav_EC2/DepthDuration/v2_depth_duration_MTurk/v2_DepthDuration_HTML.html#124,124,683,312,1366,768,8-21-2022,14-58-14,136,depth_duration_stimuli/002657_2014-06-13_15-29-54_094959634447_rgbf000150-resize_1/002657_2014-06-13_15-29-54_094959634447_rgbf000150-resize_1-target.png,125,4.919,5,3453,111,meters,jsons/VE125_randls_51_rotated.json,987695,1944609,48,Woman
136,428881,DepthScenes,duration_manipulation_targetAtFixation,jsons/VE125_randls_51_rotated.json,http://54.235.29.9/FacialAge/BNav_EC2/DepthDuration/v2_depth_duration_MTurk/v2_DepthDuration_HTML.html#124,124,683,312,1366,768,8-21-2022,14-58-14,137,depth_duration_stimuli/002375_2014-06-28_20-13-44_260595134347_rgbf000032-resize_1/002375_2014-06-28_20-13-44_260595134347_rgbf000032-resize_1-target.png,125,4.0175,6,2563,120,meters,jsons/VE125_randls_51_rotated.json,987695,1944609,48,Woman
137,428881,DepthScenes,duration_manipulation_targetAtFixation,jsons/VE125_randls_51_rotated.json,http://54.235.29.9/FacialAge/BNav_EC2/DepthDuration/v2_depth_duration_MTurk/v2_DepthDuration_HTML.html#124,124,683,312,1366,768,8-21-2022,14-58-14,138,depth_duration_stimuli/001052_2014-06-08_18-24-54_260595134347_rgbf000130-resize_1/001052_2014-06-08_18-24-54_260595134347_rgbf000130-resize_1-target.png,125,4.1045,6,6187,119,meters,jsons/VE125_randls_51_rotated.json,987695,1944609,48,Woman
138,428881,DepthScenes,duration_manipulation_targetAtFixation,jsons/VE125_randls_51_rotated.json,http://54.235.29.9/FacialAge/BNav_EC2/DepthDuration/v2_depth_duration_MTurk/v2_DepthDuration_HTML.html#124,124,683,312,1366,768,8-21-2022,14-58-14,139,depth_duration_stimuli/002988_2014-06-15_12-24-20_094959634447_rgbf000150-resize_1/002988_2014-06-15_12-24-20_094959634447_rgbf000150-resize_1-target.png,125,4.7669999999999995,2,2407,124,meters,jsons/VE125_randls_51_rotated.json,987695,1944609,48,Woman
139,428881,DepthScenes,duration_manipulation_targetAtFixation,jsons/VE125_randls_51_rotated.json,http://54.235.29.9/FacialAge/BNav_EC2/DepthDuration/v2_depth_duration_MTurk/v2_DepthDuration_HTML.html#124,124,683,312,1366,768,8-21-2022,14-58-14,140,depth_duration_stimuli/002678_2014-06-13_16-15-32_094959634447_rgbf000151-resize_6/002678_2014-06-13_16-15-32_094959634447_rgbf000151-resize_6-target.png,125,2.1830000000000003,6,3499,124,meters,jsons/VE125_randls_51_rotated.json,987695,1944609,48,Woman
140,428881,DepthScenes,duration_manipulation_targetAtFixation,jsons/VE125_randls_51_rotated.json,http://54.235.29.9/FacialAge/BNav_EC2/DepthDuration/v2_depth_duration_MTurk/v2_DepthDuration_HTML.html#124,124,683,312,1366,768,8-21-2022,14-58-14,141,depth_duration_stimuli/000368_2014-06-09_15-53-01_260595134347_rgbf000155-resize_2/000368_2014-06-09_15-53-01_260595134347_rgbf000155-resize_2-target.png,125,2.4859999999999998,6,2969,80,meters,jsons/VE125_randls_51_rotated.json,987695,1944609,48,Woman
141,428881,DepthScenes,duration_manipulation_targetAtFixation,jsons/VE125_randls_51_rotated.json,http://54.235.29.9/FacialAge/BNav_EC2/DepthDuration/v2_depth_duration_MTurk/v2_DepthDuration_HTML.html#124,124,683,312,1366,768,8-21-2022,14-58-14,142,depth_duration_stimuli/001392_2014-06-19_16-07-59_260595134347_rgbf000046-resize_1/001392_2014-06-19_16-07-59_260595134347_rgbf000046-resize_1-target.png,125,4.135,3,3545,125,meters,jsons/VE125_randls_51_rotated.json,987695,1944609,48,Woman
142,428881,DepthScenes,duration_manipulation_targetAtFixation,jsons/VE125_randls_51_rotated.json,http://54.235.29.9/FacialAge/BNav_EC2/DepthDuration/v2_depth_duration_MTurk/v2_DepthDuration_HTML.html#124,124,683,312,1366,768,8-21-2022,14-58-14,143,depth_duration_stimuli/001570_2014-06-20_17-21-09_260595134347_rgbf000135-resize_4/001570_2014-06-20_17-21-09_260595134347_rgbf000135-resize_4-target.png,125,4.467,6,9453,220,meters,jsons/VE125_randls_51_rotated.json,987695,1944609,48,Woman
143,428881,DepthScenes,duration_manipulation_targetAtFixation,jsons/VE125_randls_51_rotated.json,http://54.235.29.9/FacialAge/BNav_EC2/DepthDuration/v2_depth_duration_MTurk/v2_DepthDuration_HTML.html#124,124,683,312,1366,768,8-21-2022,14-58-14,144,depth_duration_stimuli/003490_2014-05-21_15-50-11_094959634447_rgbf000101-resize_3/003490_2014-05-21_15-50-11_094959634447_rgbf000101-resize_3-target.png,125,3.6445,5,3500,397,meters,jsons/VE125_randls_51_rotated.json,987695,1944609,48,Woman
144,428881,DepthScenes,duration_manipulation_targetAtFixation,jsons/VE125_randls_51_rotated.json,http://54.235.29.9/FacialAge/BNav_EC2/DepthDuration/v2_depth_duration_MTurk/v2_DepthDuration_HTML.html#124,124,683,312,1366,768,8-21-2022,14-58-14,145,depth_duration_stimuli/001175_2014-06-17_15-45-55_260595134347_rgbf000129-resize_4/001175_2014-06-17_15-45-55_260595134347_rgbf000129-resize_4-target.png,125,4.255,6,3514,129,meters,jsons/VE125_randls_51_rotated.json,987695,1944609,48,Woman
145,428881,DepthScenes,duration_manipulation_targetAtFixation,jsons/VE125_randls_51_rotated.json,http://54.235.29.9/FacialAge/BNav_EC2/DepthDuration/v2_depth_duration_MTurk/v2_DepthDuration_HTML.html#124,124,683,312,1366,768,8-21-2022,14-58-14,146,depth_duration_stimuli/000780_2014-06-08_22-28-29_260595134347_rgbf000126-resize_1/000780_2014-06-08_22-28-29_260595134347_rgbf000126-resize_1-target.png,125,3.3825,6,3173,125,meters,jsons/VE125_randls_51_rotated.json,987695,1944609,48,Woman
146,428881,DepthScenes,duration_manipulation_targetAtFixation,jsons/VE125_randls_51_rotated.json,http://54.235.29.9/FacialAge/BNav_EC2/DepthDuration/v2_depth_duration_MTurk/v2_DepthDuration_HTML.html#124,124,683,312,1366,768,8-21-2022,14-58-14,147,depth_duration_stimuli/002445_2014-06-28_20-32-16_260595134347_rgbf000029-resize_4/002445_2014-06-28_20-32-16_260595134347_rgbf000029-resize_4-target.png,125,2.5315,6,3625,111,meters,jsons/VE125_randls_51_rotated.json,987695,1944609,48,Woman
147,428881,DepthScenes,duration_manipulation_targetAtFixation,jsons/VE125_randls_51_rotated.json,http://54.235.29.9/FacialAge/BNav_EC2/DepthDuration/v2_depth_duration_MTurk/v2_DepthDuration_HTML.html#124,124,683,312,1366,768,8-21-2022,14-58-14,148,depth_duration_stimuli/002444_2014-06-28_20-32-08_260595134347_rgbf000027-resize_0/002444_2014-06-28_20-32-08_260595134347_rgbf000027-resize_0-target.png,125,4.388999999999999,6,3188,111,meters,jsons/VE125_randls_51_rotated.json,987695,1944609,48,Woman
148,428881,DepthScenes,duration_manipulation_targetAtFixation,jsons/VE125_randls_51_rotated.json,http://54.235.29.9/FacialAge/BNav_EC2/DepthDuration/v2_depth_duration_MTurk/v2_DepthDuration_HTML.html#124,124,683,312,1366,768,8-21-2022,14-58-14,149,depth_duration_stimuli/000436_2014-06-09_22-25-11_260595134347_rgbf000137-resize_1/000436_2014-06-09_22-25-11_260595134347_rgbf000137-resize_1-target.png,125,4.0705,6,3439,125,meters,jsons/VE125_randls_51_rotated.json,987695,1944609,48,Woman
149,428881,DepthScenes,duration_manipulation_targetAtFixation,jsons/VE125_randls_51_rotated.json,http://54.235.29.9/FacialAge/BNav_EC2/DepthDuration/v2_depth_duration_MTurk/v2_DepthDuration_HTML.html#124,124,683,312,1366,768,8-21-2022,14-58-14,150,depth_duration_stimuli/002750_2014-06-22_19-08-03_094959634447_rgbf000094-resize_4/002750_2014-06-22_19-08-03_094959634447_rgbf000094-resize_4-target.png,125,2.354,6,3046,126,meters,jsons/VE125_randls_51_rotated.json,987695,1944609,48,Woman
150,428881,DepthScenes,duration_manipulation_targetAtFixation,jsons/VE125_randls_51_rotated.json,http://54.235.29.9/FacialAge/BNav_EC2/DepthDuration/v2_depth_duration_MTurk/v2_DepthDuration_HTML.html#124,124,683,312,1366,768,8-21-2022,14-58-14,151,depth_duration_stimuli/002549_2014-06-24_13-41-39_094959634447_rgbf000022-resize_3/002549_2014-06-24_13-41-39_094959634447_rgbf000022-resize_3-target.png,125,1.476,6,3031,125,meters,jsons/VE125_randls_51_rotated.json,987695,1944609,48,Woman
151,428881,DepthScenes,duration_manipulation_targetAtFixation,jsons/VE125_randls_51_rotated.json,http://54.235.29.9/FacialAge/BNav_EC2/DepthDuration/v2_depth_duration_MTurk/v2_DepthDuration_HTML.html#124,124,683,312,1366,768,8-21-2022,14-58-14,152,depth_duration_stimuli/000569_2014-06-09_22-51-47_260595134347_rgbf000141-resize_3/000569_2014-06-09_22-51-47_260595134347_rgbf000141-resize-original.jpg,125,4.512,6,3775,111,meters,jsons/VE125_randls_51_rotated.json,987695,1944609,48,Woman
152,428881,DepthScenes,duration_manipulation_targetAtFixation,jsons/VE125_randls_51_rotated.json,http://54.235.29.9/FacialAge/BNav_EC2/DepthDuration/v2_depth_duration_MTurk/v2_DepthDuration_HTML.html#124,124,683,312,1366,768,8-21-2022,14-58-14,153,depth_duration_stimuli/002805_2014-06-22_19-54-03_094959634447_rgbf000079-resize_1/002805_2014-06-22_19-54-03_094959634447_rgbf000079-resize_1-target.png,125,3.1439999999999997,6,2624,119,meters,jsons/VE125_randls_51_rotated.json,987695,1944609,48,Woman
153,428881,DepthScenes,duration_manipulation_targetAtFixation,jsons/VE125_randls_51_rotated.json,http://54.235.29.9/FacialAge/BNav_EC2/DepthDuration/v2_depth_duration_MTurk/v2_DepthDuration_HTML.html#124,124,683,312,1366,768,8-21-2022,14-58-14,154,depth_duration_stimuli/000906_2014-06-08_13-35-43_260595134347_rgbf000155-resize_1/000906_2014-06-08_13-35-43_260595134347_rgbf000155-resize_1-target.png,125,2.8489999999999998,5,3796,255,meters,jsons/VE125_randls_51_rotated.json,987695,1944609,48,Woman
154,428881,DepthScenes,duration_manipulation_targetAtFixation,jsons/VE125_randls_51_rotated.json,http://54.235.29.9/FacialAge/BNav_EC2/DepthDuration/v2_depth_duration_MTurk/v2_DepthDuration_HTML.html#124,124,683,312,1366,768,8-21-2022,14-58-14,155,depth_duration_stimuli/001132_2014-06-17_14-48-54_260595134347_rgbf000100-resize_2/001132_2014-06-17_14-48-54_260595134347_rgbf000100-resize_2-target.png,125,3.753,5,2829,111,meters,jsons/VE125_randls_51_rotated.json,987695,1944609,48,Woman
155,428881,DepthScenes,duration_manipulation_targetAtFixation,jsons/VE125_randls_51_rotated.json,http://54.235.29.9/FacialAge/BNav_EC2/DepthDuration/v2_depth_duration_MTurk/v2_DepthDuration_HTML.html#124,124,683,312,1366,768,8-21-2022,14-58-14,156,depth_duration_stimuli/001133_2014-06-17_14-49-16_260595134347_rgbf000100-resize_0/001133_2014-06-17_14-49-16_260595134347_rgbf000100-resize_0-target.png,125,4.2115,5,9030,125,meters,jsons/VE125_randls_51_rotated.json,987695,1944609,48,Woman
156,428881,DepthScenes,duration_manipulation_targetAtFixation,jsons/VE125_randls_51_rotated.json,http://54.235.29.9/FacialAge/BNav_EC2/DepthDuration/v2_depth_duration_MTurk/v2_DepthDuration_HTML.html#124,124,683,312,1366,768,8-21-2022,14-58-14,157,depth_duration_stimuli/003083_2014-06-15_15-21-03_094959634447_rgbf000063-resize_1/003083_2014-06-15_15-21-03_094959634447_rgbf000063-resize_1-target.png,125,4.1405,5,3017,111,meters,jsons/VE125_randls_51_rotated.json,987695,1944609,48,Woman
157,428881,DepthScenes,duration_manipulation_targetAtFixation,jsons/VE125_randls_51_rotated.json,http://54.235.29.9/FacialAge/BNav_EC2/DepthDuration/v2_depth_duration_MTurk/v2_DepthDuration_HTML.html#124,124,683,312,1366,768,8-21-2022,14-58-14,158,depth_duration_stimuli/000486_2014-06-09_20-47-20_260595134347_rgbf000143-resize_2/000486_2014-06-09_20-47-20_260595134347_rgbf000143-resize_2-target.png,125,4.8325,6,2342,125,meters,jsons/VE125_randls_51_rotated.json,987695,1944609,48,Woman
158,428881,DepthScenes,duration_manipulation_targetAtFixation,jsons/VE125_randls_51_rotated.json,http://54.235.29.9/FacialAge/BNav_EC2/DepthDuration/v2_depth_duration_MTurk/v2_DepthDuration_HTML.html#124,124,683,312,1366,768,8-21-2022,14-58-14,159,depth_duration_stimuli/003048_2014-06-15_13-49-43_094959634447_rgbf000150-resize_1/003048_2014-06-15_13-49-43_094959634447_rgbf000150-resize_1-target.png,125,4.0035,6,2097,119,meters,jsons/VE125_randls_51_rotated.json,987695,1944609,48,Woman
159,428881,DepthScenes,duration_manipulation_targetAtFixation,jsons/VE125_randls_51_rotated.json,http://54.235.29.9/FacialAge/BNav_EC2/DepthDuration/v2_depth_duration_MTurk/v2_DepthDuration_HTML.html#124,124,683,312,1366,768,8-21-2022,14-58-14,160,depth_duration_stimuli/002043_2014-06-24_20-29-38_260595134347_rgbf000039-resize_4/002043_2014-06-24_20-29-38_260595134347_rgbf000039-resize_4-target.png,125,2.8435,6,3047,115,meters,jsons/VE125_randls_51_rotated.json,987695,1944609,48,Woman
160,428881,DepthScenes,duration_manipulation_targetAtFixation,jsons/VE125_randls_51_rotated.json,http://54.235.29.9/FacialAge/BNav_EC2/DepthDuration/v2_depth_duration_MTurk/v2_DepthDuration_HTML.html#124,124,683,312,1366,768,8-21-2022,14-58-14,161,depth_duration_stimuli/001032_2014-06-08_13-23-17_260595134347_rgbf000021-resize_3/001032_2014-06-08_13-23-17_260595134347_rgbf000021-resize_3-target.png,125,3.2725,6,4890,124,meters,jsons/VE125_randls_51_rotated.json,987695,1944609,48,Woman
161,428881,DepthScenes,duration_manipulation_targetAtFixation,jsons/VE125_randls_51_rotated.json,http://54.235.29.9/FacialAge/BNav_EC2/DepthDuration/v2_depth_duration_MTurk/v2_DepthDuration_HTML.html#124,124,683,312,1366,768,8-21-2022,14-58-14,162,depth_duration_stimuli/001059_2014-06-08_21-53-27_260595134347_rgbf000061-resize_4/001059_2014-06-08_21-53-27_260595134347_rgbf000061-resize_4-target.png,125,2.4185,6,2810,132,meters,jsons/VE125_randls_51_rotated.json,987695,1944609,48,Woman
162,428881,DepthScenes,duration_manipulation_targetAtFixation,jsons/VE125_randls_51_rotated.json,http://54.235.29.9/FacialAge/BNav_EC2/DepthDuration/v2_depth_duration_MTurk/v2_DepthDuration_HTML.html#124,124,683,312,1366,768,8-21-2022,14-58-14,163,depth_duration_stimuli/003010_2014-06-15_12-54-35_094959634447_rgbf000112-resize_0/003010_2014-06-15_12-54-35_094959634447_rgbf000112-resize_0-target.png,125,3.1185,6,2046,124,meters,jsons/VE125_randls_51_rotated.json,987695,1944609,48,Woman
163,428881,DepthScenes,duration_manipulation_targetAtFixation,jsons/VE125_randls_51_rotated.json,http://54.235.29.9/FacialAge/BNav_EC2/DepthDuration/v2_depth_duration_MTurk/v2_DepthDuration_HTML.html#124,124,683,312,1366,768,8-21-2022,14-58-14,164,depth_duration_stimuli/001810_2014-06-26_20-51-35_260595134347_rgbf000040-resize_3/001810_2014-06-26_20-51-35_260595134347_rgbf000040-resize_3-target.png,125,2.2525,6,4251,115,meters,jsons/VE125_randls_51_rotated.json,987695,1944609,48,Woman
