,subjID,experimentName,versionName,sequenceName,url,selected_row,windowWidth,windowHeight,screenWidth,screenHeight,startDate,startTime,trial,stimulus,duration,actual_depth,depth_estimate,trial_RT,log_sceneDuration,unitSelection,seq_filepath,experimentTime,totalTime,age,gender
0,429426,DepthScenes,duration_manipulation_targetAtFixation,jsons/VE125_randls_51_rotated.json,http://54.235.29.9/FacialAge/BNav_EC2/DepthDuration/v2_depth_duration_MTurk/v2_DepthDuration_HTML.html#353,353,1684,803,1685,948,8-30-2022,8-59-17,1,depth_duration_stimuli/002425_2014-06-28_20-27-29_260595134347_rgbf000031-resize_8/002425_2014-06-28_20-27-29_260595134347_rgbf000031-resize_8-target.png,125,3.8960000000000004,5.0,4671,124,feet,jsons/VE125_randls_51_rotated.json,612783,1076955,64,Woman
1,429426,DepthScenes,duration_manipulation_targetAtFixation,jsons/VE125_randls_51_rotated.json,http://54.235.29.9/FacialAge/BNav_EC2/DepthDuration/v2_depth_duration_MTurk/v2_DepthDuration_HTML.html#353,353,1684,803,1685,948,8-30-2022,8-59-17,2,depth_duration_stimuli/000642_2014-06-08_16-59-25_260595134347_rgbf000098-resize_2/000642_2014-06-08_16-59-25_260595134347_rgbf000098-resize_2-target.png,125,2.8815,3.0,3479,124,feet,jsons/VE125_randls_51_rotated.json,612783,1076955,64,Woman
2,429426,DepthScenes,duration_manipulation_targetAtFixation,jsons/VE125_randls_51_rotated.json,http://54.235.29.9/FacialAge/BNav_EC2/DepthDuration/v2_depth_duration_MTurk/v2_DepthDuration_HTML.html#353,353,1684,803,1685,948,8-30-2022,8-59-17,3,depth_duration_stimuli/000483_2014-06-09_20-41-45_260595134347_rgbf000116-resize_4/000483_2014-06-09_20-41-45_260595134347_rgbf000116-resize_4-target.png,125,1.337,2.5,3693,123,feet,jsons/VE125_randls_51_rotated.json,612783,1076955,64,Woman
3,429426,DepthScenes,duration_manipulation_targetAtFixation,jsons/VE125_randls_51_rotated.json,http://54.235.29.9/FacialAge/BNav_EC2/DepthDuration/v2_depth_duration_MTurk/v2_DepthDuration_HTML.html#353,353,1684,803,1685,948,8-30-2022,8-59-17,4,depth_duration_stimuli/000469_2014-06-09_19-42-10_260595134347_rgbf000081-resize_1/000469_2014-06-09_19-42-10_260595134347_rgbf000081-resize_1-target.png,125,1.652,2.0,3252,123,feet,jsons/VE125_randls_51_rotated.json,612783,1076955,64,Woman
4,429426,DepthScenes,duration_manipulation_targetAtFixation,jsons/VE125_randls_51_rotated.json,http://54.235.29.9/FacialAge/BNav_EC2/DepthDuration/v2_depth_duration_MTurk/v2_DepthDuration_HTML.html#353,353,1684,803,1685,948,8-30-2022,8-59-17,5,depth_duration_stimuli/001450_2014-06-19_17-02-03_260595134347_rgbf000203-resize_4/001450_2014-06-19_17-02-03_260595134347_rgbf000203-resize_4-target.png,125,4.0106666666667,5.0,5048,124,feet,jsons/VE125_randls_51_rotated.json,612783,1076955,64,Woman
5,429426,DepthScenes,duration_manipulation_targetAtFixation,jsons/VE125_randls_51_rotated.json,http://54.235.29.9/FacialAge/BNav_EC2/DepthDuration/v2_depth_duration_MTurk/v2_DepthDuration_HTML.html#353,353,1684,803,1685,948,8-30-2022,8-59-17,6,depth_duration_stimuli/001449_2014-06-19_17-01-27_260595134347_rgbf000116-resize_2/001449_2014-06-19_17-01-27_260595134347_rgbf000116-resize_2-target.png,125,3.452,6.0,4639,125,feet,jsons/VE125_randls_51_rotated.json,612783,1076955,64,Woman
6,429426,DepthScenes,duration_manipulation_targetAtFixation,jsons/VE125_randls_51_rotated.json,http://54.235.29.9/FacialAge/BNav_EC2/DepthDuration/v2_depth_duration_MTurk/v2_DepthDuration_HTML.html#353,353,1684,803,1685,948,8-30-2022,8-59-17,7,depth_duration_stimuli/001584_2014-06-20_11-07-43_260595134347_rgbf000002-resize_1/001584_2014-06-20_11-07-43_260595134347_rgbf000002-resize_1-target.png,125,3.53,6.5,5234,124,feet,jsons/VE125_randls_51_rotated.json,612783,1076955,64,Woman
7,429426,DepthScenes,duration_manipulation_targetAtFixation,jsons/VE125_randls_51_rotated.json,http://54.235.29.9/FacialAge/BNav_EC2/DepthDuration/v2_depth_duration_MTurk/v2_DepthDuration_HTML.html#353,353,1684,803,1685,948,8-30-2022,8-59-17,8,depth_duration_stimuli/003621_2014-05-23_18-06-08_094959634447_rgbf000101-resize_1/003621_2014-05-23_18-06-08_094959634447_rgbf000101-resize_1-target.png,125,3.9835,7.0,3586,124,feet,jsons/VE125_randls_51_rotated.json,612783,1076955,64,Woman
8,429426,DepthScenes,duration_manipulation_targetAtFixation,jsons/VE125_randls_51_rotated.json,http://54.235.29.9/FacialAge/BNav_EC2/DepthDuration/v2_depth_duration_MTurk/v2_DepthDuration_HTML.html#353,353,1684,803,1685,948,8-30-2022,8-59-17,9,depth_duration_stimuli/000665_2014-06-09_20-42-35_260595134347_rgbf000110-resize_1/000665_2014-06-09_20-42-35_260595134347_rgbf000110-resize_1-target.png,125,3.057,4.0,3400,124,feet,jsons/VE125_randls_51_rotated.json,612783,1076955,64,Woman
9,429426,DepthScenes,duration_manipulation_targetAtFixation,jsons/VE125_randls_51_rotated.json,http://54.235.29.9/FacialAge/BNav_EC2/DepthDuration/v2_depth_duration_MTurk/v2_DepthDuration_HTML.html#353,353,1684,803,1685,948,8-30-2022,8-59-17,10,depth_duration_stimuli/001150_2014-06-17_15-27-34_260595134347_rgbf000108-resize_2/001150_2014-06-17_15-27-34_260595134347_rgbf000108-resize_2-target.png,125,4.0325,5.5,6143,124,feet,jsons/VE125_randls_51_rotated.json,612783,1076955,64,Woman
10,429426,DepthScenes,duration_manipulation_targetAtFixation,jsons/VE125_randls_51_rotated.json,http://54.235.29.9/FacialAge/BNav_EC2/DepthDuration/v2_depth_duration_MTurk/v2_DepthDuration_HTML.html#353,353,1684,803,1685,948,8-30-2022,8-59-17,11,depth_duration_stimuli/000734_2014-06-08_17-39-11_260595134347_rgbf000128-resize_2/000734_2014-06-08_17-39-11_260595134347_rgbf000128-resize_2-target.png,125,4.098,6.0,3886,124,feet,jsons/VE125_randls_51_rotated.json,612783,1076955,64,Woman
11,429426,DepthScenes,duration_manipulation_targetAtFixation,jsons/VE125_randls_51_rotated.json,http://54.235.29.9/FacialAge/BNav_EC2/DepthDuration/v2_depth_duration_MTurk/v2_DepthDuration_HTML.html#353,353,1684,803,1685,948,8-30-2022,8-59-17,12,depth_duration_stimuli/000739_2014-06-08_18-45-58_260595134347_rgbf000068-resize_1/000739_2014-06-08_18-45-58_260595134347_rgbf000068-resize_1-target.png,125,3.534,6.5,4802,124,feet,jsons/VE125_randls_51_rotated.json,612783,1076955,64,Woman
12,429426,DepthScenes,duration_manipulation_targetAtFixation,jsons/VE125_randls_51_rotated.json,http://54.235.29.9/FacialAge/BNav_EC2/DepthDuration/v2_depth_duration_MTurk/v2_DepthDuration_HTML.html#353,353,1684,803,1685,948,8-30-2022,8-59-17,13,depth_duration_stimuli/002467_2014-06-28_20-38-07_260595134347_rgbf000026-resize_2/002467_2014-06-28_20-38-07_260595134347_rgbf000026-resize_2-target.png,125,4.742,7.0,5251,123,feet,jsons/VE125_randls_51_rotated.json,612783,1076955,64,Woman
13,429426,DepthScenes,duration_manipulation_targetAtFixation,jsons/VE125_randls_51_rotated.json,http://54.235.29.9/FacialAge/BNav_EC2/DepthDuration/v2_depth_duration_MTurk/v2_DepthDuration_HTML.html#353,353,1684,803,1685,948,8-30-2022,8-59-17,14,depth_duration_stimuli/002570_2014-06-24_13-59-54_094959634447_rgbf000059-resize_0/002570_2014-06-24_13-59-54_094959634447_rgbf000059-resize_0-target.png,125,4.037,5.0,3775,123,feet,jsons/VE125_randls_51_rotated.json,612783,1076955,64,Woman
14,429426,DepthScenes,duration_manipulation_targetAtFixation,jsons/VE125_randls_51_rotated.json,http://54.235.29.9/FacialAge/BNav_EC2/DepthDuration/v2_depth_duration_MTurk/v2_DepthDuration_HTML.html#353,353,1684,803,1685,948,8-30-2022,8-59-17,15,depth_duration_stimuli/002637_2014-06-24_14-51-13_094959634447_rgbf000066-resize_4/002637_2014-06-24_14-51-13_094959634447_rgbf000066-resize_4-target.png,125,1.9955,6.0,4211,122,feet,jsons/VE125_randls_51_rotated.json,612783,1076955,64,Woman
15,429426,DepthScenes,duration_manipulation_targetAtFixation,jsons/VE125_randls_51_rotated.json,http://54.235.29.9/FacialAge/BNav_EC2/DepthDuration/v2_depth_duration_MTurk/v2_DepthDuration_HTML.html#353,353,1684,803,1685,948,8-30-2022,8-59-17,16,depth_duration_stimuli/003534_2014-05-22_15-06-10_094959634447_rgbf000102-resize_4/003534_2014-05-22_15-06-10_094959634447_rgbf000102-resize_4-target.png,125,1.426,3.0,3194,122,feet,jsons/VE125_randls_51_rotated.json,612783,1076955,64,Woman
16,429426,DepthScenes,duration_manipulation_targetAtFixation,jsons/VE125_randls_51_rotated.json,http://54.235.29.9/FacialAge/BNav_EC2/DepthDuration/v2_depth_duration_MTurk/v2_DepthDuration_HTML.html#353,353,1684,803,1685,948,8-30-2022,8-59-17,17,depth_duration_stimuli/003338_2014-05-20_11-01-23_094959634447_rgbf000051-resize_6/003338_2014-05-20_11-01-23_094959634447_rgbf000051-resize_6-target.png,125,1.693,2.0,3493,123,feet,jsons/VE125_randls_51_rotated.json,612783,1076955,64,Woman
17,429426,DepthScenes,duration_manipulation_targetAtFixation,jsons/VE125_randls_51_rotated.json,http://54.235.29.9/FacialAge/BNav_EC2/DepthDuration/v2_depth_duration_MTurk/v2_DepthDuration_HTML.html#353,353,1684,803,1685,948,8-30-2022,8-59-17,18,depth_duration_stimuli/002509_2014-06-24_13-19-22_094959634447_rgbf000077-resize_0/002509_2014-06-24_13-19-22_094959634447_rgbf000077-resize_0-target.png,125,1.3065,3.0,3303,123,feet,jsons/VE125_randls_51_rotated.json,612783,1076955,64,Woman
18,429426,DepthScenes,duration_manipulation_targetAtFixation,jsons/VE125_randls_51_rotated.json,http://54.235.29.9/FacialAge/BNav_EC2/DepthDuration/v2_depth_duration_MTurk/v2_DepthDuration_HTML.html#353,353,1684,803,1685,948,8-30-2022,8-59-17,19,depth_duration_stimuli/001498_2014-06-19_17-45-14_260595134347_rgbf000129-resize_4/001498_2014-06-19_17-45-14_260595134347_rgbf000129-resize-original.jpg,125,1.4075,0.0,4307,141,feet,jsons/VE125_randls_51_rotated.json,612783,1076955,64,Woman
19,429426,DepthScenes,duration_manipulation_targetAtFixation,jsons/VE125_randls_51_rotated.json,http://54.235.29.9/FacialAge/BNav_EC2/DepthDuration/v2_depth_duration_MTurk/v2_DepthDuration_HTML.html#353,353,1684,803,1685,948,8-30-2022,8-59-17,20,depth_duration_stimuli/002545_2014-06-24_13-38-53_094959634447_rgbf000080-resize_4/002545_2014-06-24_13-38-53_094959634447_rgbf000080-resize_4-target.png,125,1.9205,4.0,3314,125,feet,jsons/VE125_randls_51_rotated.json,612783,1076955,64,Woman
20,429426,DepthScenes,duration_manipulation_targetAtFixation,jsons/VE125_randls_51_rotated.json,http://54.235.29.9/FacialAge/BNav_EC2/DepthDuration/v2_depth_duration_MTurk/v2_DepthDuration_HTML.html#353,353,1684,803,1685,948,8-30-2022,8-59-17,21,depth_duration_stimuli/001092_2014-06-15_17-34-58_260595134347_rgbf000171-resize_3/001092_2014-06-15_17-34-58_260595134347_rgbf000171-resize_3-target.png,125,2.6935,5.0,4909,123,feet,jsons/VE125_randls_51_rotated.json,612783,1076955,64,Woman
21,429426,DepthScenes,duration_manipulation_targetAtFixation,jsons/VE125_randls_51_rotated.json,http://54.235.29.9/FacialAge/BNav_EC2/DepthDuration/v2_depth_duration_MTurk/v2_DepthDuration_HTML.html#353,353,1684,803,1685,948,8-30-2022,8-59-17,22,depth_duration_stimuli/002340_2014-06-28_20-05-46_260595134347_rgbf000113-resize_0/002340_2014-06-28_20-05-46_260595134347_rgbf000113-resize_0-target.png,125,2.4735,7.0,3927,125,feet,jsons/VE125_randls_51_rotated.json,612783,1076955,64,Woman
22,429426,DepthScenes,duration_manipulation_targetAtFixation,jsons/VE125_randls_51_rotated.json,http://54.235.29.9/FacialAge/BNav_EC2/DepthDuration/v2_depth_duration_MTurk/v2_DepthDuration_HTML.html#353,353,1684,803,1685,948,8-30-2022,8-59-17,23,depth_duration_stimuli/001016_2014-06-09_16-16-10_260595134347_rgbf000112-resize_5/001016_2014-06-09_16-16-10_260595134347_rgbf000112-resize_5-target.png,125,1.6565,5.0,4434,124,feet,jsons/VE125_randls_51_rotated.json,612783,1076955,64,Woman
23,429426,DepthScenes,duration_manipulation_targetAtFixation,jsons/VE125_randls_51_rotated.json,http://54.235.29.9/FacialAge/BNav_EC2/DepthDuration/v2_depth_duration_MTurk/v2_DepthDuration_HTML.html#353,353,1684,803,1685,948,8-30-2022,8-59-17,24,depth_duration_stimuli/003587_2014-05-23_16-48-02_094959634447_rgbf002384-resize_2/003587_2014-05-23_16-48-02_094959634447_rgbf002384-resize_2-target.png,125,1.357,2.5,4145,137,feet,jsons/VE125_randls_51_rotated.json,612783,1076955,64,Woman
24,429426,DepthScenes,duration_manipulation_targetAtFixation,jsons/VE125_randls_51_rotated.json,http://54.235.29.9/FacialAge/BNav_EC2/DepthDuration/v2_depth_duration_MTurk/v2_DepthDuration_HTML.html#353,353,1684,803,1685,948,8-30-2022,8-59-17,25,depth_duration_stimuli/001167_2014-06-17_15-38-07_260595134347_rgbf000108-resize_0/001167_2014-06-17_15-38-07_260595134347_rgbf000108-resize_0-target.png,125,1.8505,2.0,2515,122,feet,jsons/VE125_randls_51_rotated.json,612783,1076955,64,Woman
25,429426,DepthScenes,duration_manipulation_targetAtFixation,jsons/VE125_randls_51_rotated.json,http://54.235.29.9/FacialAge/BNav_EC2/DepthDuration/v2_depth_duration_MTurk/v2_DepthDuration_HTML.html#353,353,1684,803,1685,948,8-30-2022,8-59-17,26,depth_duration_stimuli/000866_2014-06-09_20-45-42_260595134347_rgbf000139-resize_1/000866_2014-06-09_20-45-42_260595134347_rgbf000139-resize_1-target.png,125,3.2155,4.0,4087,124,feet,jsons/VE125_randls_51_rotated.json,612783,1076955,64,Woman
26,429426,DepthScenes,duration_manipulation_targetAtFixation,jsons/VE125_randls_51_rotated.json,http://54.235.29.9/FacialAge/BNav_EC2/DepthDuration/v2_depth_duration_MTurk/v2_DepthDuration_HTML.html#353,353,1684,803,1685,948,8-30-2022,8-59-17,27,depth_duration_stimuli/002989_2014-06-15_12-25-03_094959634447_rgbf000150-resize_3/002989_2014-06-15_12-25-03_094959634447_rgbf000150-resize_3-target.png,125,4.1975,6.0,3237,138,feet,jsons/VE125_randls_51_rotated.json,612783,1076955,64,Woman
27,429426,DepthScenes,duration_manipulation_targetAtFixation,jsons/VE125_randls_51_rotated.json,http://54.235.29.9/FacialAge/BNav_EC2/DepthDuration/v2_depth_duration_MTurk/v2_DepthDuration_HTML.html#353,353,1684,803,1685,948,8-30-2022,8-59-17,28,depth_duration_stimuli/000103_2014-05-14_22-01-17_260595134347_rgbf000152-resize_5/000103_2014-05-14_22-01-17_260595134347_rgbf000152-resize_5-target.png,125,1.993,7.0,3253,125,feet,jsons/VE125_randls_51_rotated.json,612783,1076955,64,Woman
28,429426,DepthScenes,duration_manipulation_targetAtFixation,jsons/VE125_randls_51_rotated.json,http://54.235.29.9/FacialAge/BNav_EC2/DepthDuration/v2_depth_duration_MTurk/v2_DepthDuration_HTML.html#353,353,1684,803,1685,948,8-30-2022,8-59-17,29,depth_duration_stimuli/001555_2014-06-20_17-12-10_260595134347_rgbf000065-resize_4/001555_2014-06-20_17-12-10_260595134347_rgbf000065-resize_4-target.png,125,1.633,3.0,2924,124,feet,jsons/VE125_randls_51_rotated.json,612783,1076955,64,Woman
29,429426,DepthScenes,duration_manipulation_targetAtFixation,jsons/VE125_randls_51_rotated.json,http://54.235.29.9/FacialAge/BNav_EC2/DepthDuration/v2_depth_duration_MTurk/v2_DepthDuration_HTML.html#353,353,1684,803,1685,948,8-30-2022,8-59-17,30,depth_duration_stimuli/002072_2014-06-24_21-48-06_260595134347_rgbf000115-resize_0/002072_2014-06-24_21-48-06_260595134347_rgbf000115-resize-original.jpg,125,4.702,0.0,3474,126,feet,jsons/VE125_randls_51_rotated.json,612783,1076955,64,Woman
30,429426,DepthScenes,duration_manipulation_targetAtFixation,jsons/VE125_randls_51_rotated.json,http://54.235.29.9/FacialAge/BNav_EC2/DepthDuration/v2_depth_duration_MTurk/v2_DepthDuration_HTML.html#353,353,1684,803,1685,948,8-30-2022,8-59-17,31,depth_duration_stimuli/000409_2014-06-04_19-23-33_260595134347_rgbf000067-resize_0/000409_2014-06-04_19-23-33_260595134347_rgbf000067-resize_0-target.png,125,3.7335,5.0,3332,124,feet,jsons/VE125_randls_51_rotated.json,612783,1076955,64,Woman
31,429426,DepthScenes,duration_manipulation_targetAtFixation,jsons/VE125_randls_51_rotated.json,http://54.235.29.9/FacialAge/BNav_EC2/DepthDuration/v2_depth_duration_MTurk/v2_DepthDuration_HTML.html#353,353,1684,803,1685,948,8-30-2022,8-59-17,32,depth_duration_stimuli/002663_2014-06-13_15-50-26_094959634447_rgbf000075-resize_1/002663_2014-06-13_15-50-26_094959634447_rgbf000075-resize_1-target.png,125,4.7495,7.0,3370,122,feet,jsons/VE125_randls_51_rotated.json,612783,1076955,64,Woman
32,429426,DepthScenes,duration_manipulation_targetAtFixation,jsons/VE125_randls_51_rotated.json,http://54.235.29.9/FacialAge/BNav_EC2/DepthDuration/v2_depth_duration_MTurk/v2_DepthDuration_HTML.html#353,353,1684,803,1685,948,8-30-2022,8-59-17,33,depth_duration_stimuli/000556_2014-06-09_22-42-56_260595134347_rgbf000214-resize_1/000556_2014-06-09_22-42-56_260595134347_rgbf000214-resize_1-target.png,125,4.8415,6.0,2967,125,feet,jsons/VE125_randls_51_rotated.json,612783,1076955,64,Woman
33,429426,DepthScenes,duration_manipulation_targetAtFixation,jsons/VE125_randls_51_rotated.json,http://54.235.29.9/FacialAge/BNav_EC2/DepthDuration/v2_depth_duration_MTurk/v2_DepthDuration_HTML.html#353,353,1684,803,1685,948,8-30-2022,8-59-17,34,depth_duration_stimuli/001158_2014-06-17_15-32-16_260595134347_rgbf000138-resize_2/001158_2014-06-17_15-32-16_260595134347_rgbf000138-resize_2-target.png,125,4.5315,8.0,2957,125,feet,jsons/VE125_randls_51_rotated.json,612783,1076955,64,Woman
34,429426,DepthScenes,duration_manipulation_targetAtFixation,jsons/VE125_randls_51_rotated.json,http://54.235.29.9/FacialAge/BNav_EC2/DepthDuration/v2_depth_duration_MTurk/v2_DepthDuration_HTML.html#353,353,1684,803,1685,948,8-30-2022,8-59-17,35,depth_duration_stimuli/002209_2014-06-28_18-36-10_260595134347_rgbf000051-resize_1/002209_2014-06-28_18-36-10_260595134347_rgbf000051-resize_1-target.png,125,2.057,5.0,4004,140,feet,jsons/VE125_randls_51_rotated.json,612783,1076955,64,Woman
35,429426,DepthScenes,duration_manipulation_targetAtFixation,jsons/VE125_randls_51_rotated.json,http://54.235.29.9/FacialAge/BNav_EC2/DepthDuration/v2_depth_duration_MTurk/v2_DepthDuration_HTML.html#353,353,1684,803,1685,948,8-30-2022,8-59-17,36,depth_duration_stimuli/002763_2014-06-22_19-13-10_094959634447_rgbf000075-resize_4/002763_2014-06-22_19-13-10_094959634447_rgbf000075-resize_4-target.png,125,1.68375,4.0,3041,126,feet,jsons/VE125_randls_51_rotated.json,612783,1076955,64,Woman
36,429426,DepthScenes,duration_manipulation_targetAtFixation,jsons/VE125_randls_51_rotated.json,http://54.235.29.9/FacialAge/BNav_EC2/DepthDuration/v2_depth_duration_MTurk/v2_DepthDuration_HTML.html#353,353,1684,803,1685,948,8-30-2022,8-59-17,37,depth_duration_stimuli/001571_2014-06-20_17-21-32_260595134347_rgbf000089-resize_1/001571_2014-06-20_17-21-32_260595134347_rgbf000089-resize_1-target.png,125,1.86,3.0,2990,126,feet,jsons/VE125_randls_51_rotated.json,612783,1076955,64,Woman
37,429426,DepthScenes,duration_manipulation_targetAtFixation,jsons/VE125_randls_51_rotated.json,http://54.235.29.9/FacialAge/BNav_EC2/DepthDuration/v2_depth_duration_MTurk/v2_DepthDuration_HTML.html#353,353,1684,803,1685,948,8-30-2022,8-59-17,38,depth_duration_stimuli/002272_2014-06-28_18-53-56_260595134347_rgbf000067-resize_2/002272_2014-06-28_18-53-56_260595134347_rgbf000067-resize_2-target.png,125,1.138,3.0,2190,123,feet,jsons/VE125_randls_51_rotated.json,612783,1076955,64,Woman
38,429426,DepthScenes,duration_manipulation_targetAtFixation,jsons/VE125_randls_51_rotated.json,http://54.235.29.9/FacialAge/BNav_EC2/DepthDuration/v2_depth_duration_MTurk/v2_DepthDuration_HTML.html#353,353,1684,803,1685,948,8-30-2022,8-59-17,39,depth_duration_stimuli/000635_2014-06-08_16-38-42_260595134347_rgbf000106-resize_1/000635_2014-06-08_16-38-42_260595134347_rgbf000106-resize_1-target.png,125,2.074,5.0,2959,138,feet,jsons/VE125_randls_51_rotated.json,612783,1076955,64,Woman
39,429426,DepthScenes,duration_manipulation_targetAtFixation,jsons/VE125_randls_51_rotated.json,http://54.235.29.9/FacialAge/BNav_EC2/DepthDuration/v2_depth_duration_MTurk/v2_DepthDuration_HTML.html#353,353,1684,803,1685,948,8-30-2022,8-59-17,40,depth_duration_stimuli/002279_2014-06-28_18-55-32_260595134347_rgbf000040-resize_5/002279_2014-06-28_18-55-32_260595134347_rgbf000040-resize_5-target.png,125,1.5043333333333,3.0,4564,125,feet,jsons/VE125_randls_51_rotated.json,612783,1076955,64,Woman
40,429426,DepthScenes,duration_manipulation_targetAtFixation,jsons/VE125_randls_51_rotated.json,http://54.235.29.9/FacialAge/BNav_EC2/DepthDuration/v2_depth_duration_MTurk/v2_DepthDuration_HTML.html#353,353,1684,803,1685,948,8-30-2022,8-59-17,41,depth_duration_stimuli/002344_2014-06-28_20-06-29_260595134347_rgbf000030-resize_1/002344_2014-06-28_20-06-29_260595134347_rgbf000030-resize_1-target.png,125,1.5795,2.0,2545,126,feet,jsons/VE125_randls_51_rotated.json,612783,1076955,64,Woman
41,429426,DepthScenes,duration_manipulation_targetAtFixation,jsons/VE125_randls_51_rotated.json,http://54.235.29.9/FacialAge/BNav_EC2/DepthDuration/v2_depth_duration_MTurk/v2_DepthDuration_HTML.html#353,353,1684,803,1685,948,8-30-2022,8-59-17,42,depth_duration_stimuli/002725_2014-06-22_11-47-51_094959634447_rgbf000070-resize_1/002725_2014-06-22_11-47-51_094959634447_rgbf000070-resize_1-target.png,125,2.195,7.0,2861,123,feet,jsons/VE125_randls_51_rotated.json,612783,1076955,64,Woman
42,429426,DepthScenes,duration_manipulation_targetAtFixation,jsons/VE125_randls_51_rotated.json,http://54.235.29.9/FacialAge/BNav_EC2/DepthDuration/v2_depth_duration_MTurk/v2_DepthDuration_HTML.html#353,353,1684,803,1685,948,8-30-2022,8-59-17,43,depth_duration_stimuli/001214_2014-06-17_16-13-55_260595134347_rgbf000111-resize_0/001214_2014-06-17_16-13-55_260595134347_rgbf000111-resize_0-target.png,125,2.6505,4.0,2608,123,feet,jsons/VE125_randls_51_rotated.json,612783,1076955,64,Woman
43,429426,DepthScenes,duration_manipulation_targetAtFixation,jsons/VE125_randls_51_rotated.json,http://54.235.29.9/FacialAge/BNav_EC2/DepthDuration/v2_depth_duration_MTurk/v2_DepthDuration_HTML.html#353,353,1684,803,1685,948,8-30-2022,8-59-17,44,depth_duration_stimuli/000810_2014-06-08_17-20-01_260595134347_rgbf000105-resize_0/000810_2014-06-08_17-20-01_260595134347_rgbf000105-resize_0-target.png,125,1.4865,5.0,3805,126,feet,jsons/VE125_randls_51_rotated.json,612783,1076955,64,Woman
44,429426,DepthScenes,duration_manipulation_targetAtFixation,jsons/VE125_randls_51_rotated.json,http://54.235.29.9/FacialAge/BNav_EC2/DepthDuration/v2_depth_duration_MTurk/v2_DepthDuration_HTML.html#353,353,1684,803,1685,948,8-30-2022,8-59-17,45,depth_duration_stimuli/002953_2014-06-08_17-32-18_094959634447_rgbf000059-resize_5/002953_2014-06-08_17-32-18_094959634447_rgbf000059-resize_5-target.png,125,1.551,4.0,2833,125,feet,jsons/VE125_randls_51_rotated.json,612783,1076955,64,Woman
45,429426,DepthScenes,duration_manipulation_targetAtFixation,jsons/VE125_randls_51_rotated.json,http://54.235.29.9/FacialAge/BNav_EC2/DepthDuration/v2_depth_duration_MTurk/v2_DepthDuration_HTML.html#353,353,1684,803,1685,948,8-30-2022,8-59-17,46,depth_duration_stimuli/000878_2014-06-08_22-52-45_260595134347_rgbf000045-resize_2/000878_2014-06-08_22-52-45_260595134347_rgbf000045-resize_2-target.png,125,2.092,6.0,2802,123,feet,jsons/VE125_randls_51_rotated.json,612783,1076955,64,Woman
46,429426,DepthScenes,duration_manipulation_targetAtFixation,jsons/VE125_randls_51_rotated.json,http://54.235.29.9/FacialAge/BNav_EC2/DepthDuration/v2_depth_duration_MTurk/v2_DepthDuration_HTML.html#353,353,1684,803,1685,948,8-30-2022,8-59-17,47,depth_duration_stimuli/000709_2014-06-08_13-51-55_260595134347_rgbf000068-resize_3/000709_2014-06-08_13-51-55_260595134347_rgbf000068-resize_3-target.png,125,1.8030000000000002,7.0,3517,123,feet,jsons/VE125_randls_51_rotated.json,612783,1076955,64,Woman
47,429426,DepthScenes,duration_manipulation_targetAtFixation,jsons/VE125_randls_51_rotated.json,http://54.235.29.9/FacialAge/BNav_EC2/DepthDuration/v2_depth_duration_MTurk/v2_DepthDuration_HTML.html#353,353,1684,803,1685,948,8-30-2022,8-59-17,48,depth_duration_stimuli/002057_2014-06-24_21-00-13_260595134347_rgbf000120-resize_1/002057_2014-06-24_21-00-13_260595134347_rgbf000120-resize_1-target.png,125,2.967,8.0,3222,125,feet,jsons/VE125_randls_51_rotated.json,612783,1076955,64,Woman
48,429426,DepthScenes,duration_manipulation_targetAtFixation,jsons/VE125_randls_51_rotated.json,http://54.235.29.9/FacialAge/BNav_EC2/DepthDuration/v2_depth_duration_MTurk/v2_DepthDuration_HTML.html#353,353,1684,803,1685,948,8-30-2022,8-59-17,49,depth_duration_stimuli/001170_2014-06-17_15-43-44_260595134347_rgbf000096-resize_6/001170_2014-06-17_15-43-44_260595134347_rgbf000096-resize-original.jpg,125,1.1909999999999998,0.0,3925,125,feet,jsons/VE125_randls_51_rotated.json,612783,1076955,64,Woman
49,429426,DepthScenes,duration_manipulation_targetAtFixation,jsons/VE125_randls_51_rotated.json,http://54.235.29.9/FacialAge/BNav_EC2/DepthDuration/v2_depth_duration_MTurk/v2_DepthDuration_HTML.html#353,353,1684,803,1685,948,8-30-2022,8-59-17,50,depth_duration_stimuli/000749_2014-06-08_21-55-06_260595134347_rgbf000070-resize_2/000749_2014-06-08_21-55-06_260595134347_rgbf000070-resize_2-target.png,125,2.331,4.0,2528,121,feet,jsons/VE125_randls_51_rotated.json,612783,1076955,64,Woman
50,429426,DepthScenes,duration_manipulation_targetAtFixation,jsons/VE125_randls_51_rotated.json,http://54.235.29.9/FacialAge/BNav_EC2/DepthDuration/v2_depth_duration_MTurk/v2_DepthDuration_HTML.html#353,353,1684,803,1685,948,8-30-2022,8-59-17,51,depth_duration_stimuli/002788_2014-06-22_19-36-03_094959634447_rgbf000088-resize_2/002788_2014-06-22_19-36-03_094959634447_rgbf000088-resize_2-target.png,125,1.6465,5.0,2725,125,feet,jsons/VE125_randls_51_rotated.json,612783,1076955,64,Woman
51,429426,DepthScenes,duration_manipulation_targetAtFixation,jsons/VE125_randls_51_rotated.json,http://54.235.29.9/FacialAge/BNav_EC2/DepthDuration/v2_depth_duration_MTurk/v2_DepthDuration_HTML.html#353,353,1684,803,1685,948,8-30-2022,8-59-17,52,depth_duration_stimuli/001650_2014-06-20_12-09-00_260595134347_rgbf000087-resize_3/001650_2014-06-20_12-09-00_260595134347_rgbf000087-resize_3-target.png,125,1.9505,3.0,2914,139,feet,jsons/VE125_randls_51_rotated.json,612783,1076955,64,Woman
52,429426,DepthScenes,duration_manipulation_targetAtFixation,jsons/VE125_randls_51_rotated.json,http://54.235.29.9/FacialAge/BNav_EC2/DepthDuration/v2_depth_duration_MTurk/v2_DepthDuration_HTML.html#353,353,1684,803,1685,948,8-30-2022,8-59-17,53,depth_duration_stimuli/000682_2014-06-08_23-14-58_260595134347_rgbf000041-resize_5/000682_2014-06-08_23-14-58_260595134347_rgbf000041-resize_5-target.png,125,2.7239999999999998,3.0,1878,123,feet,jsons/VE125_randls_51_rotated.json,612783,1076955,64,Woman
53,429426,DepthScenes,duration_manipulation_targetAtFixation,jsons/VE125_randls_51_rotated.json,http://54.235.29.9/FacialAge/BNav_EC2/DepthDuration/v2_depth_duration_MTurk/v2_DepthDuration_HTML.html#353,353,1684,803,1685,948,8-30-2022,8-59-17,54,depth_duration_stimuli/000502_2014-06-08_23-02-32_260595134347_rgbf000063-resize_4/000502_2014-06-08_23-02-32_260595134347_rgbf000063-resize_4-target.png,125,2.431,5.0,3465,124,feet,jsons/VE125_randls_51_rotated.json,612783,1076955,64,Woman
54,429426,DepthScenes,duration_manipulation_targetAtFixation,jsons/VE125_randls_51_rotated.json,http://54.235.29.9/FacialAge/BNav_EC2/DepthDuration/v2_depth_duration_MTurk/v2_DepthDuration_HTML.html#353,353,1684,803,1685,948,8-30-2022,8-59-17,55,depth_duration_stimuli/001199_2014-06-17_16-03-48_260595134347_rgbf000077-resize_0/001199_2014-06-17_16-03-48_260595134347_rgbf000077-resize_0-target.png,125,3.4375,6.0,2525,124,feet,jsons/VE125_randls_51_rotated.json,612783,1076955,64,Woman
55,429426,DepthScenes,duration_manipulation_targetAtFixation,jsons/VE125_randls_51_rotated.json,http://54.235.29.9/FacialAge/BNav_EC2/DepthDuration/v2_depth_duration_MTurk/v2_DepthDuration_HTML.html#353,353,1684,803,1685,948,8-30-2022,8-59-17,56,depth_duration_stimuli/003423_2014-05-21_10-23-26_094959634447_rgbf002665-resize_2/003423_2014-05-21_10-23-26_094959634447_rgbf002665-resize_2-target.png,125,3.2575,8.0,2516,123,feet,jsons/VE125_randls_51_rotated.json,612783,1076955,64,Woman
56,429426,DepthScenes,duration_manipulation_targetAtFixation,jsons/VE125_randls_51_rotated.json,http://54.235.29.9/FacialAge/BNav_EC2/DepthDuration/v2_depth_duration_MTurk/v2_DepthDuration_HTML.html#353,353,1684,803,1685,948,8-30-2022,8-59-17,57,depth_duration_stimuli/002905_2014-06-03_18-04-43_094959634447_rgbf000151-resize_2/002905_2014-06-03_18-04-43_094959634447_rgbf000151-resize_2-target.png,125,2.0295,5.0,2551,109,feet,jsons/VE125_randls_51_rotated.json,612783,1076955,64,Woman
57,429426,DepthScenes,duration_manipulation_targetAtFixation,jsons/VE125_randls_51_rotated.json,http://54.235.29.9/FacialAge/BNav_EC2/DepthDuration/v2_depth_duration_MTurk/v2_DepthDuration_HTML.html#353,353,1684,803,1685,948,8-30-2022,8-59-17,58,depth_duration_stimuli/003228_2014-05-14_13-42-35_094959634447_rgbf000101-resize_1/003228_2014-05-14_13-42-35_094959634447_rgbf000101-resize_1-target.png,125,1.9680000000000002,3.0,3142,125,feet,jsons/VE125_randls_51_rotated.json,612783,1076955,64,Woman
58,429426,DepthScenes,duration_manipulation_targetAtFixation,jsons/VE125_randls_51_rotated.json,http://54.235.29.9/FacialAge/BNav_EC2/DepthDuration/v2_depth_duration_MTurk/v2_DepthDuration_HTML.html#353,353,1684,803,1685,948,8-30-2022,8-59-17,59,depth_duration_stimuli/002600_2014-06-24_14-27-04_094959634447_rgbf000074-resize_2/002600_2014-06-24_14-27-04_094959634447_rgbf000074-resize_2-target.png,125,2.7575,4.0,6359,126,feet,jsons/VE125_randls_51_rotated.json,612783,1076955,64,Woman
59,429426,DepthScenes,duration_manipulation_targetAtFixation,jsons/VE125_randls_51_rotated.json,http://54.235.29.9/FacialAge/BNav_EC2/DepthDuration/v2_depth_duration_MTurk/v2_DepthDuration_HTML.html#353,353,1684,803,1685,948,8-30-2022,8-59-17,60,depth_duration_stimuli/001235_2014-06-17_16-37-36_260595134347_rgbf000084-resize_4/001235_2014-06-17_16-37-36_260595134347_rgbf000084-resize_4-target.png,125,3.6605,4.0,3896,125,feet,jsons/VE125_randls_51_rotated.json,612783,1076955,64,Woman
60,429426,DepthScenes,duration_manipulation_targetAtFixation,jsons/VE125_randls_51_rotated.json,http://54.235.29.9/FacialAge/BNav_EC2/DepthDuration/v2_depth_duration_MTurk/v2_DepthDuration_HTML.html#353,353,1684,803,1685,948,8-30-2022,8-59-17,61,depth_duration_stimuli/000788_2014-06-08_22-34-36_260595134347_rgbf000131-resize_1/000788_2014-06-08_22-34-36_260595134347_rgbf000131-resize_1-target.png,125,3.359,5.0,2750,124,feet,jsons/VE125_randls_51_rotated.json,612783,1076955,64,Woman
61,429426,DepthScenes,duration_manipulation_targetAtFixation,jsons/VE125_randls_51_rotated.json,http://54.235.29.9/FacialAge/BNav_EC2/DepthDuration/v2_depth_duration_MTurk/v2_DepthDuration_HTML.html#353,353,1684,803,1685,948,8-30-2022,8-59-17,62,depth_duration_stimuli/001100_2014-06-15_17-46-26_260595134347_rgbf000225-resize_2/001100_2014-06-15_17-46-26_260595134347_rgbf000225-resize_2-target.png,125,2.24,3.0,3346,124,feet,jsons/VE125_randls_51_rotated.json,612783,1076955,64,Woman
62,429426,DepthScenes,duration_manipulation_targetAtFixation,jsons/VE125_randls_51_rotated.json,http://54.235.29.9/FacialAge/BNav_EC2/DepthDuration/v2_depth_duration_MTurk/v2_DepthDuration_HTML.html#353,353,1684,803,1685,948,8-30-2022,8-59-17,63,depth_duration_stimuli/002784_2014-06-22_19-26-30_094959634447_rgbf000083-resize_3/002784_2014-06-22_19-26-30_094959634447_rgbf000083-resize_3-target.png,125,1.8046666666667,2.5,4518,125,feet,jsons/VE125_randls_51_rotated.json,612783,1076955,64,Woman
63,429426,DepthScenes,duration_manipulation_targetAtFixation,jsons/VE125_randls_51_rotated.json,http://54.235.29.9/FacialAge/BNav_EC2/DepthDuration/v2_depth_duration_MTurk/v2_DepthDuration_HTML.html#353,353,1684,803,1685,948,8-30-2022,8-59-17,64,depth_duration_stimuli/000943_2014-06-09_19-31-07_260595134347_rgbf000128-resize_1/000943_2014-06-09_19-31-07_260595134347_rgbf000128-resize_1-target.png,125,1.9765,3.0,3803,125,feet,jsons/VE125_randls_51_rotated.json,612783,1076955,64,Woman
64,429426,DepthScenes,duration_manipulation_targetAtFixation,jsons/VE125_randls_51_rotated.json,http://54.235.29.9/FacialAge/BNav_EC2/DepthDuration/v2_depth_duration_MTurk/v2_DepthDuration_HTML.html#353,353,1684,803,1685,948,8-30-2022,8-59-17,65,depth_duration_stimuli/003070_2014-06-15_14-58-27_094959634447_rgbf000150-resize_3/003070_2014-06-15_14-58-27_094959634447_rgbf000150-resize_3-target.png,125,2.9415,4.0,3803,124,feet,jsons/VE125_randls_51_rotated.json,612783,1076955,64,Woman
65,429426,DepthScenes,duration_manipulation_targetAtFixation,jsons/VE125_randls_51_rotated.json,http://54.235.29.9/FacialAge/BNav_EC2/DepthDuration/v2_depth_duration_MTurk/v2_DepthDuration_HTML.html#353,353,1684,803,1685,948,8-30-2022,8-59-17,66,depth_duration_stimuli/001540_2014-06-20_17-01-05_260595134347_rgbf000086-resize_2/001540_2014-06-20_17-01-05_260595134347_rgbf000086-resize-original.jpg,125,1.459,2.0,2955,125,feet,jsons/VE125_randls_51_rotated.json,612783,1076955,64,Woman
66,429426,DepthScenes,duration_manipulation_targetAtFixation,jsons/VE125_randls_51_rotated.json,http://54.235.29.9/FacialAge/BNav_EC2/DepthDuration/v2_depth_duration_MTurk/v2_DepthDuration_HTML.html#353,353,1684,803,1685,948,8-30-2022,8-59-17,67,depth_duration_stimuli/003129_2014-05-12_10-48-10_094959634447_rgbf000100-resize_0/003129_2014-05-12_10-48-10_094959634447_rgbf000100-resize_0-target.png,125,4.9305,4.0,3390,123,feet,jsons/VE125_randls_51_rotated.json,612783,1076955,64,Woman
67,429426,DepthScenes,duration_manipulation_targetAtFixation,jsons/VE125_randls_51_rotated.json,http://54.235.29.9/FacialAge/BNav_EC2/DepthDuration/v2_depth_duration_MTurk/v2_DepthDuration_HTML.html#353,353,1684,803,1685,948,8-30-2022,8-59-17,68,depth_duration_stimuli/000414_2014-06-04_19-49-13_260595134347_rgbf000044-resize_0/000414_2014-06-04_19-49-13_260595134347_rgbf000044-resize_0-target.png,125,4.329,7.0,3212,138,feet,jsons/VE125_randls_51_rotated.json,612783,1076955,64,Woman
68,429426,DepthScenes,duration_manipulation_targetAtFixation,jsons/VE125_randls_51_rotated.json,http://54.235.29.9/FacialAge/BNav_EC2/DepthDuration/v2_depth_duration_MTurk/v2_DepthDuration_HTML.html#353,353,1684,803,1685,948,8-30-2022,8-59-17,69,depth_duration_stimuli/002995_2014-06-15_12-31-26_094959634447_rgbf000150-resize_1/002995_2014-06-15_12-31-26_094959634447_rgbf000150-resize_1-target.png,125,3.8360000000000003,6.0,2792,126,feet,jsons/VE125_randls_51_rotated.json,612783,1076955,64,Woman
69,429426,DepthScenes,duration_manipulation_targetAtFixation,jsons/VE125_randls_51_rotated.json,http://54.235.29.9/FacialAge/BNav_EC2/DepthDuration/v2_depth_duration_MTurk/v2_DepthDuration_HTML.html#353,353,1684,803,1685,948,8-30-2022,8-59-17,70,depth_duration_stimuli/002748_2014-06-22_19-07-22_094959634447_rgbf000078-resize_1/002748_2014-06-22_19-07-22_094959634447_rgbf000078-resize_1-target.png,125,4.6705,7.0,2949,126,feet,jsons/VE125_randls_51_rotated.json,612783,1076955,64,Woman
70,429426,DepthScenes,duration_manipulation_targetAtFixation,jsons/VE125_randls_51_rotated.json,http://54.235.29.9/FacialAge/BNav_EC2/DepthDuration/v2_depth_duration_MTurk/v2_DepthDuration_HTML.html#353,353,1684,803,1685,948,8-30-2022,8-59-17,71,depth_duration_stimuli/000742_2014-06-08_18-48-09_260595134347_rgbf000164-resize_4/000742_2014-06-08_18-48-09_260595134347_rgbf000164-resize_4-target.png,125,4.632,7.0,3166,125,feet,jsons/VE125_randls_51_rotated.json,612783,1076955,64,Woman
71,429426,DepthScenes,duration_manipulation_targetAtFixation,jsons/VE125_randls_51_rotated.json,http://54.235.29.9/FacialAge/BNav_EC2/DepthDuration/v2_depth_duration_MTurk/v2_DepthDuration_HTML.html#353,353,1684,803,1685,948,8-30-2022,8-59-17,72,depth_duration_stimuli/001066_2014-06-08_22-03-20_260595134347_rgbf000066-resize_4/001066_2014-06-08_22-03-20_260595134347_rgbf000066-resize_4-target.png,125,4.2330000000000005,7.0,2250,124,feet,jsons/VE125_randls_51_rotated.json,612783,1076955,64,Woman
72,429426,DepthScenes,duration_manipulation_targetAtFixation,jsons/VE125_randls_51_rotated.json,http://54.235.29.9/FacialAge/BNav_EC2/DepthDuration/v2_depth_duration_MTurk/v2_DepthDuration_HTML.html#353,353,1684,803,1685,948,8-30-2022,8-59-17,73,depth_duration_stimuli/002103_2014-06-25_20-00-40_260595134347_rgbf000049-resize_0/002103_2014-06-25_20-00-40_260595134347_rgbf000049-resize_0-target.png,125,4.105,6.0,2868,124,feet,jsons/VE125_randls_51_rotated.json,612783,1076955,64,Woman
73,429426,DepthScenes,duration_manipulation_targetAtFixation,jsons/VE125_randls_51_rotated.json,http://54.235.29.9/FacialAge/BNav_EC2/DepthDuration/v2_depth_duration_MTurk/v2_DepthDuration_HTML.html#353,353,1684,803,1685,948,8-30-2022,8-59-17,74,depth_duration_stimuli/002039_2014-06-24_20-22-38_260595134347_rgbf000084-resize_1/002039_2014-06-24_20-22-38_260595134347_rgbf000084-resize_1-target.png,125,4.408,7.0,2240,124,feet,jsons/VE125_randls_51_rotated.json,612783,1076955,64,Woman
74,429426,DepthScenes,duration_manipulation_targetAtFixation,jsons/VE125_randls_51_rotated.json,http://54.235.29.9/FacialAge/BNav_EC2/DepthDuration/v2_depth_duration_MTurk/v2_DepthDuration_HTML.html#353,353,1684,803,1685,948,8-30-2022,8-59-17,75,depth_duration_stimuli/000191_2014-05-12_17-07-38_260595134347_rgbf000199-resize_0/000191_2014-05-12_17-07-38_260595134347_rgbf000199-resize_0-target.png,125,3.7995,8.0,2613,124,feet,jsons/VE125_randls_51_rotated.json,612783,1076955,64,Woman
75,429426,DepthScenes,duration_manipulation_targetAtFixation,jsons/VE125_randls_51_rotated.json,http://54.235.29.9/FacialAge/BNav_EC2/DepthDuration/v2_depth_duration_MTurk/v2_DepthDuration_HTML.html#353,353,1684,803,1685,948,8-30-2022,8-59-17,76,depth_duration_stimuli/000493_2014-06-09_21-01-18_260595134347_rgbf000196-resize_3/000493_2014-06-09_21-01-18_260595134347_rgbf000196-resize_3-target.png,125,3.44,6.0,2999,125,feet,jsons/VE125_randls_51_rotated.json,612783,1076955,64,Woman
76,429426,DepthScenes,duration_manipulation_targetAtFixation,jsons/VE125_randls_51_rotated.json,http://54.235.29.9/FacialAge/BNav_EC2/DepthDuration/v2_depth_duration_MTurk/v2_DepthDuration_HTML.html#353,353,1684,803,1685,948,8-30-2022,8-59-17,77,depth_duration_stimuli/002660_2014-06-13_15-44-18_094959634447_rgbf001878-resize_2/002660_2014-06-13_15-44-18_094959634447_rgbf001878-resize_2-target.png,125,3.576,7.0,2277,125,feet,jsons/VE125_randls_51_rotated.json,612783,1076955,64,Woman
77,429426,DepthScenes,duration_manipulation_targetAtFixation,jsons/VE125_randls_51_rotated.json,http://54.235.29.9/FacialAge/BNav_EC2/DepthDuration/v2_depth_duration_MTurk/v2_DepthDuration_HTML.html#353,353,1684,803,1685,948,8-30-2022,8-59-17,78,depth_duration_stimuli/002153_2014-06-25_21-27-18_260595134347_rgbf000038-resize_5/002153_2014-06-25_21-27-18_260595134347_rgbf000038-resize_5-target.png,125,2.505,5.0,2748,124,feet,jsons/VE125_randls_51_rotated.json,612783,1076955,64,Woman
78,429426,DepthScenes,duration_manipulation_targetAtFixation,jsons/VE125_randls_51_rotated.json,http://54.235.29.9/FacialAge/BNav_EC2/DepthDuration/v2_depth_duration_MTurk/v2_DepthDuration_HTML.html#353,353,1684,803,1685,948,8-30-2022,8-59-17,79,depth_duration_stimuli/001815_2014-06-26_20-52-55_260595134347_rgbf000020-resize_0/001815_2014-06-26_20-52-55_260595134347_rgbf000020-resize_0-target.png,125,3.3865,8.0,3175,123,feet,jsons/VE125_randls_51_rotated.json,612783,1076955,64,Woman
79,429426,DepthScenes,duration_manipulation_targetAtFixation,jsons/VE125_randls_51_rotated.json,http://54.235.29.9/FacialAge/BNav_EC2/DepthDuration/v2_depth_duration_MTurk/v2_DepthDuration_HTML.html#353,353,1684,803,1685,948,8-30-2022,8-59-17,80,depth_duration_stimuli/001808_2014-06-26_20-50-58_260595134347_rgbf000029-resize_1/001808_2014-06-26_20-50-58_260595134347_rgbf000029-resize_1-target.png,125,4.249,9.0,2823,124,feet,jsons/VE125_randls_51_rotated.json,612783,1076955,64,Woman
80,429426,DepthScenes,duration_manipulation_targetAtFixation,jsons/VE125_randls_51_rotated.json,http://54.235.29.9/FacialAge/BNav_EC2/DepthDuration/v2_depth_duration_MTurk/v2_DepthDuration_HTML.html#353,353,1684,803,1685,948,8-30-2022,8-59-17,81,depth_duration_stimuli/001136_2014-06-17_15-19-41_260595134347_rgbf000076-resize_3/001136_2014-06-17_15-19-41_260595134347_rgbf000076-resize_3-target.png,125,1.8655,5.0,3261,124,feet,jsons/VE125_randls_51_rotated.json,612783,1076955,64,Woman
81,429426,DepthScenes,duration_manipulation_targetAtFixation,jsons/VE125_randls_51_rotated.json,http://54.235.29.9/FacialAge/BNav_EC2/DepthDuration/v2_depth_duration_MTurk/v2_DepthDuration_HTML.html#353,353,1684,803,1685,948,8-30-2022,8-59-17,82,depth_duration_stimuli/001164_2014-06-17_15-35-46_260595134347_rgbf000085-resize_3/001164_2014-06-17_15-35-46_260595134347_rgbf000085-resize_3-target.png,125,2.354,4.0,2623,124,feet,jsons/VE125_randls_51_rotated.json,612783,1076955,64,Woman
82,429426,DepthScenes,duration_manipulation_targetAtFixation,jsons/VE125_randls_51_rotated.json,http://54.235.29.9/FacialAge/BNav_EC2/DepthDuration/v2_depth_duration_MTurk/v2_DepthDuration_HTML.html#353,353,1684,803,1685,948,8-30-2022,8-59-17,83,depth_duration_stimuli/002758_2014-06-22_19-11-20_094959634447_rgbf000128-resize_1/002758_2014-06-22_19-11-20_094959634447_rgbf000128-resize_1-target.png,125,2.555,4.0,2906,122,feet,jsons/VE125_randls_51_rotated.json,612783,1076955,64,Woman
83,429426,DepthScenes,duration_manipulation_targetAtFixation,jsons/VE125_randls_51_rotated.json,http://54.235.29.9/FacialAge/BNav_EC2/DepthDuration/v2_depth_duration_MTurk/v2_DepthDuration_HTML.html#353,353,1684,803,1685,948,8-30-2022,8-59-17,84,depth_duration_stimuli/002630_2014-06-24_14-47-50_094959634447_rgbf000055-resize_1/002630_2014-06-24_14-47-50_094959634447_rgbf000055-resize_1-target.png,125,3.0095,7.0,2805,123,feet,jsons/VE125_randls_51_rotated.json,612783,1076955,64,Woman
84,429426,DepthScenes,duration_manipulation_targetAtFixation,jsons/VE125_randls_51_rotated.json,http://54.235.29.9/FacialAge/BNav_EC2/DepthDuration/v2_depth_duration_MTurk/v2_DepthDuration_HTML.html#353,353,1684,803,1685,948,8-30-2022,8-59-17,85,depth_duration_stimuli/001447_2014-06-19_17-00-32_260595134347_rgbf000082-resize_5/001447_2014-06-19_17-00-32_260595134347_rgbf000082-resize_5-target.png,125,4.13775,6.0,2442,138,feet,jsons/VE125_randls_51_rotated.json,612783,1076955,64,Woman
85,429426,DepthScenes,duration_manipulation_targetAtFixation,jsons/VE125_randls_51_rotated.json,http://54.235.29.9/FacialAge/BNav_EC2/DepthDuration/v2_depth_duration_MTurk/v2_DepthDuration_HTML.html#353,353,1684,803,1685,948,8-30-2022,8-59-17,86,depth_duration_stimuli/000447_2014-06-08_16-15-46_260595134347_rgbf000130-resize_1/000447_2014-06-08_16-15-46_260595134347_rgbf000130-resize_1-target.png,125,4.479,7.0,2459,122,feet,jsons/VE125_randls_51_rotated.json,612783,1076955,64,Woman
86,429426,DepthScenes,duration_manipulation_targetAtFixation,jsons/VE125_randls_51_rotated.json,http://54.235.29.9/FacialAge/BNav_EC2/DepthDuration/v2_depth_duration_MTurk/v2_DepthDuration_HTML.html#353,353,1684,803,1685,948,8-30-2022,8-59-17,87,depth_duration_stimuli/000109_2014-05-14_23-41-52_260595134347_rgbf000035-resize_9/000109_2014-05-14_23-41-52_260595134347_rgbf000035-resize_9-target.png,125,1.3545,3.5,4133,124,feet,jsons/VE125_randls_51_rotated.json,612783,1076955,64,Woman
87,429426,DepthScenes,duration_manipulation_targetAtFixation,jsons/VE125_randls_51_rotated.json,http://54.235.29.9/FacialAge/BNav_EC2/DepthDuration/v2_depth_duration_MTurk/v2_DepthDuration_HTML.html#353,353,1684,803,1685,948,8-30-2022,8-59-17,88,depth_duration_stimuli/000470_2014-06-09_19-42-40_260595134347_rgbf000094-resize_1/000470_2014-06-09_19-42-40_260595134347_rgbf000094-resize_1-target.png,125,1.831,3.0,2867,125,feet,jsons/VE125_randls_51_rotated.json,612783,1076955,64,Woman
88,429426,DepthScenes,duration_manipulation_targetAtFixation,jsons/VE125_randls_51_rotated.json,http://54.235.29.9/FacialAge/BNav_EC2/DepthDuration/v2_depth_duration_MTurk/v2_DepthDuration_HTML.html#353,353,1684,803,1685,948,8-30-2022,8-59-17,89,depth_duration_stimuli/003081_2014-06-15_15-19-16_094959634447_rgbf000150-resize_1/003081_2014-06-15_15-19-16_094959634447_rgbf000150-resize_1-target.png,125,3.9125,5.0,2899,138,feet,jsons/VE125_randls_51_rotated.json,612783,1076955,64,Woman
89,429426,DepthScenes,duration_manipulation_targetAtFixation,jsons/VE125_randls_51_rotated.json,http://54.235.29.9/FacialAge/BNav_EC2/DepthDuration/v2_depth_duration_MTurk/v2_DepthDuration_HTML.html#353,353,1684,803,1685,948,8-30-2022,8-59-17,90,depth_duration_stimuli/001417_2014-06-19_16-25-36_260595134347_rgbf000115-resize_5/001417_2014-06-19_16-25-36_260595134347_rgbf000115-resize_5-target.png,125,4.6255,7.0,2855,125,feet,jsons/VE125_randls_51_rotated.json,612783,1076955,64,Woman
90,429426,DepthScenes,duration_manipulation_targetAtFixation,jsons/VE125_randls_51_rotated.json,http://54.235.29.9/FacialAge/BNav_EC2/DepthDuration/v2_depth_duration_MTurk/v2_DepthDuration_HTML.html#353,353,1684,803,1685,948,8-30-2022,8-59-17,91,depth_duration_stimuli/001094_2014-06-15_17-36-00_260595134347_rgbf000205-resize_0/001094_2014-06-15_17-36-00_260595134347_rgbf000205-resize_0-target.png,125,4.2175,8.0,2806,139,feet,jsons/VE125_randls_51_rotated.json,612783,1076955,64,Woman
91,429426,DepthScenes,duration_manipulation_targetAtFixation,jsons/VE125_randls_51_rotated.json,http://54.235.29.9/FacialAge/BNav_EC2/DepthDuration/v2_depth_duration_MTurk/v2_DepthDuration_HTML.html#353,353,1684,803,1685,948,8-30-2022,8-59-17,92,depth_duration_stimuli/000692_2014-06-08_13-09-42_260595134347_rgbf000199-resize_2/000692_2014-06-08_13-09-42_260595134347_rgbf000199-resize_2-target.png,125,3.661,8.0,2142,123,feet,jsons/VE125_randls_51_rotated.json,612783,1076955,64,Woman
92,429426,DepthScenes,duration_manipulation_targetAtFixation,jsons/VE125_randls_51_rotated.json,http://54.235.29.9/FacialAge/BNav_EC2/DepthDuration/v2_depth_duration_MTurk/v2_DepthDuration_HTML.html#353,353,1684,803,1685,948,8-30-2022,8-59-17,93,depth_duration_stimuli/002639_2014-06-24_14-51-37_094959634447_rgbf000074-resize_4/002639_2014-06-24_14-51-37_094959634447_rgbf000074-resize_4-target.png,125,4.0375,8.0,2363,123,feet,jsons/VE125_randls_51_rotated.json,612783,1076955,64,Woman
93,429426,DepthScenes,duration_manipulation_targetAtFixation,jsons/VE125_randls_51_rotated.json,http://54.235.29.9/FacialAge/BNav_EC2/DepthDuration/v2_depth_duration_MTurk/v2_DepthDuration_HTML.html#353,353,1684,803,1685,948,8-30-2022,8-59-17,94,depth_duration_stimuli/003292_2014-05-14_21-53-49_094959634447_rgbf000100-resize_2/003292_2014-05-14_21-53-49_094959634447_rgbf000100-resize_2-target.png,125,3.4815,6.0,2866,124,feet,jsons/VE125_randls_51_rotated.json,612783,1076955,64,Woman
94,429426,DepthScenes,duration_manipulation_targetAtFixation,jsons/VE125_randls_51_rotated.json,http://54.235.29.9/FacialAge/BNav_EC2/DepthDuration/v2_depth_duration_MTurk/v2_DepthDuration_HTML.html#353,353,1684,803,1685,948,8-30-2022,8-59-17,95,depth_duration_stimuli/000927_2014-06-09_16-32-30_260595134347_rgbf000123-resize_3/000927_2014-06-09_16-32-30_260595134347_rgbf000123-resize_3-target.png,125,2.6785,8.0,3156,125,feet,jsons/VE125_randls_51_rotated.json,612783,1076955,64,Woman
95,429426,DepthScenes,duration_manipulation_targetAtFixation,jsons/VE125_randls_51_rotated.json,http://54.235.29.9/FacialAge/BNav_EC2/DepthDuration/v2_depth_duration_MTurk/v2_DepthDuration_HTML.html#353,353,1684,803,1685,948,8-30-2022,8-59-17,96,depth_duration_stimuli/001110_2014-06-15_17-25-28_260595134347_rgbf000150-resize_1/001110_2014-06-15_17-25-28_260595134347_rgbf000150-resize_1-target.png,125,1.7115,4.0,2446,124,feet,jsons/VE125_randls_51_rotated.json,612783,1076955,64,Woman
96,429426,DepthScenes,duration_manipulation_targetAtFixation,jsons/VE125_randls_51_rotated.json,http://54.235.29.9/FacialAge/BNav_EC2/DepthDuration/v2_depth_duration_MTurk/v2_DepthDuration_HTML.html#353,353,1684,803,1685,948,8-30-2022,8-59-17,97,depth_duration_stimuli/000549_2014-06-08_22-10-24_260595134347_rgbf000247-resize_3/000549_2014-06-08_22-10-24_260595134347_rgbf000247-resize_3-target.png,125,1.841,3.0,2691,125,feet,jsons/VE125_randls_51_rotated.json,612783,1076955,64,Woman
97,429426,DepthScenes,duration_manipulation_targetAtFixation,jsons/VE125_randls_51_rotated.json,http://54.235.29.9/FacialAge/BNav_EC2/DepthDuration/v2_depth_duration_MTurk/v2_DepthDuration_HTML.html#353,353,1684,803,1685,948,8-30-2022,8-59-17,98,depth_duration_stimuli/001055_2014-06-08_18-45-35_260595134347_rgbf000111-resize_4/001055_2014-06-08_18-45-35_260595134347_rgbf000111-resize_4-target.png,125,2.4290000000000003,5.0,2603,125,feet,jsons/VE125_randls_51_rotated.json,612783,1076955,64,Woman
98,429426,DepthScenes,duration_manipulation_targetAtFixation,jsons/VE125_randls_51_rotated.json,http://54.235.29.9/FacialAge/BNav_EC2/DepthDuration/v2_depth_duration_MTurk/v2_DepthDuration_HTML.html#353,353,1684,803,1685,948,8-30-2022,8-59-17,99,depth_duration_stimuli/001222_2014-06-17_16-24-06_260595134347_rgbf000073-resize_0/001222_2014-06-17_16-24-06_260595134347_rgbf000073-resize-original.jpg,125,1.4385,0.0,3027,123,feet,jsons/VE125_randls_51_rotated.json,612783,1076955,64,Woman
99,429426,DepthScenes,duration_manipulation_targetAtFixation,jsons/VE125_randls_51_rotated.json,http://54.235.29.9/FacialAge/BNav_EC2/DepthDuration/v2_depth_duration_MTurk/v2_DepthDuration_HTML.html#353,353,1684,803,1685,948,8-30-2022,8-59-17,100,depth_duration_stimuli/002949_2014-06-26_15-57-42_094959634447_rgbf000079-resize_1/002949_2014-06-26_15-57-42_094959634447_rgbf000079-resize_1-target.png,125,1.8915,3.5,4320,123,feet,jsons/VE125_randls_51_rotated.json,612783,1076955,64,Woman
100,429426,DepthScenes,duration_manipulation_targetAtFixation,jsons/VE125_randls_51_rotated.json,http://54.235.29.9/FacialAge/BNav_EC2/DepthDuration/v2_depth_duration_MTurk/v2_DepthDuration_HTML.html#353,353,1684,803,1685,948,8-30-2022,8-59-17,101,depth_duration_stimuli/000522_2014-06-08_13-35-06_260595134347_rgbf000244-resize_1/000522_2014-06-08_13-35-06_260595134347_rgbf000244-resize_1-target.png,125,2.3715,2.5,4111,123,feet,jsons/VE125_randls_51_rotated.json,612783,1076955,64,Woman
101,429426,DepthScenes,duration_manipulation_targetAtFixation,jsons/VE125_randls_51_rotated.json,http://54.235.29.9/FacialAge/BNav_EC2/DepthDuration/v2_depth_duration_MTurk/v2_DepthDuration_HTML.html#353,353,1684,803,1685,948,8-30-2022,8-59-17,102,depth_duration_stimuli/000854_2014-06-09_19-43-13_260595134347_rgbf000066-resize_0/000854_2014-06-09_19-43-13_260595134347_rgbf000066-resize_0-target.png,125,3.068,3.0,2962,124,feet,jsons/VE125_randls_51_rotated.json,612783,1076955,64,Woman
102,429426,DepthScenes,duration_manipulation_targetAtFixation,jsons/VE125_randls_51_rotated.json,http://54.235.29.9/FacialAge/BNav_EC2/DepthDuration/v2_depth_duration_MTurk/v2_DepthDuration_HTML.html#353,353,1684,803,1685,948,8-30-2022,8-59-17,103,depth_duration_stimuli/000758_2014-06-08_22-05-08_260595134347_rgbf000085-resize_0/000758_2014-06-08_22-05-08_260595134347_rgbf000085-resize_0-target.png,125,3.3810000000000002,6.0,2843,123,feet,jsons/VE125_randls_51_rotated.json,612783,1076955,64,Woman
103,429426,DepthScenes,duration_manipulation_targetAtFixation,jsons/VE125_randls_51_rotated.json,http://54.235.29.9/FacialAge/BNav_EC2/DepthDuration/v2_depth_duration_MTurk/v2_DepthDuration_HTML.html#353,353,1684,803,1685,948,8-30-2022,8-59-17,104,depth_duration_stimuli/000457_2014-06-08_16-52-43_260595134347_rgbf000199-resize_1/000457_2014-06-08_16-52-43_260595134347_rgbf000199-resize_1-target.png,125,3.6489999999999996,7.0,3348,126,feet,jsons/VE125_randls_51_rotated.json,612783,1076955,64,Woman
104,429426,DepthScenes,duration_manipulation_targetAtFixation,jsons/VE125_randls_51_rotated.json,http://54.235.29.9/FacialAge/BNav_EC2/DepthDuration/v2_depth_duration_MTurk/v2_DepthDuration_HTML.html#353,353,1684,803,1685,948,8-30-2022,8-59-17,105,depth_duration_stimuli/000929_2014-06-09_16-33-19_260595134347_rgbf000139-resize_0/000929_2014-06-09_16-33-19_260595134347_rgbf000139-resize_0-target.png,125,2.8680000000000003,5.0,4603,123,feet,jsons/VE125_randls_51_rotated.json,612783,1076955,64,Woman
105,429426,DepthScenes,duration_manipulation_targetAtFixation,jsons/VE125_randls_51_rotated.json,http://54.235.29.9/FacialAge/BNav_EC2/DepthDuration/v2_depth_duration_MTurk/v2_DepthDuration_HTML.html#353,353,1684,803,1685,948,8-30-2022,8-59-17,106,depth_duration_stimuli/002199_2014-06-28_18-33-56_260595134347_rgbf000074-resize_0/002199_2014-06-28_18-33-56_260595134347_rgbf000074-resize_0-target.png,125,1.996,4.0,2766,123,feet,jsons/VE125_randls_51_rotated.json,612783,1076955,64,Woman
106,429426,DepthScenes,duration_manipulation_targetAtFixation,jsons/VE125_randls_51_rotated.json,http://54.235.29.9/FacialAge/BNav_EC2/DepthDuration/v2_depth_duration_MTurk/v2_DepthDuration_HTML.html#353,353,1684,803,1685,948,8-30-2022,8-59-17,107,depth_duration_stimuli/001056_2014-06-08_18-46-44_260595134347_rgbf000068-resize_0/001056_2014-06-08_18-46-44_260595134347_rgbf000068-resize_0-target.png,125,2.6625,6.0,3468,124,feet,jsons/VE125_randls_51_rotated.json,612783,1076955,64,Woman
107,429426,DepthScenes,duration_manipulation_targetAtFixation,jsons/VE125_randls_51_rotated.json,http://54.235.29.9/FacialAge/BNav_EC2/DepthDuration/v2_depth_duration_MTurk/v2_DepthDuration_HTML.html#353,353,1684,803,1685,948,8-30-2022,8-59-17,108,depth_duration_stimuli/002323_2014-06-28_20-01-54_260595134347_rgbf000051-resize_4/002323_2014-06-28_20-01-54_260595134347_rgbf000051-resize_4-target.png,125,3.7310000000000003,8.0,2686,125,feet,jsons/VE125_randls_51_rotated.json,612783,1076955,64,Woman
108,429426,DepthScenes,duration_manipulation_targetAtFixation,jsons/VE125_randls_51_rotated.json,http://54.235.29.9/FacialAge/BNav_EC2/DepthDuration/v2_depth_duration_MTurk/v2_DepthDuration_HTML.html#353,353,1684,803,1685,948,8-30-2022,8-59-17,109,depth_duration_stimuli/000917_2014-06-09_22-45-29_260595134347_rgbf000149-resize_3/000917_2014-06-09_22-45-29_260595134347_rgbf000149-resize_3-target.png,125,4.1865,9.0,3010,126,feet,jsons/VE125_randls_51_rotated.json,612783,1076955,64,Woman
109,429426,DepthScenes,duration_manipulation_targetAtFixation,jsons/VE125_randls_51_rotated.json,http://54.235.29.9/FacialAge/BNav_EC2/DepthDuration/v2_depth_duration_MTurk/v2_DepthDuration_HTML.html#353,353,1684,803,1685,948,8-30-2022,8-59-17,110,depth_duration_stimuli/002136_2014-06-25_21-18-03_260595134347_rgbf000109-resize_3/002136_2014-06-25_21-18-03_260595134347_rgbf000109-resize_3-target.png,125,1.9569999999999999,5.0,2681,124,feet,jsons/VE125_randls_51_rotated.json,612783,1076955,64,Woman
110,429426,DepthScenes,duration_manipulation_targetAtFixation,jsons/VE125_randls_51_rotated.json,http://54.235.29.9/FacialAge/BNav_EC2/DepthDuration/v2_depth_duration_MTurk/v2_DepthDuration_HTML.html#353,353,1684,803,1685,948,8-30-2022,8-59-17,111,depth_duration_stimuli/002964_2014-06-08_17-46-11_094959634447_rgbf000091-resize_4/002964_2014-06-08_17-46-11_094959634447_rgbf000091-resize_4-target.png,125,1.6909999999999998,4.0,2335,123,feet,jsons/VE125_randls_51_rotated.json,612783,1076955,64,Woman
111,429426,DepthScenes,duration_manipulation_targetAtFixation,jsons/VE125_randls_51_rotated.json,http://54.235.29.9/FacialAge/BNav_EC2/DepthDuration/v2_depth_duration_MTurk/v2_DepthDuration_HTML.html#353,353,1684,803,1685,948,8-30-2022,8-59-17,112,depth_duration_stimuli/001617_2014-06-20_11-35-32_260595134347_rgbf000066-resize_1/001617_2014-06-20_11-35-32_260595134347_rgbf000066-resize_1-target.png,125,3.7910000000000004,7.0,3233,122,feet,jsons/VE125_randls_51_rotated.json,612783,1076955,64,Woman
112,429426,DepthScenes,duration_manipulation_targetAtFixation,jsons/VE125_randls_51_rotated.json,http://54.235.29.9/FacialAge/BNav_EC2/DepthDuration/v2_depth_duration_MTurk/v2_DepthDuration_HTML.html#353,353,1684,803,1685,948,8-30-2022,8-59-17,113,depth_duration_stimuli/001806_2014-06-26_20-50-20_260595134347_rgbf000091-resize_1/001806_2014-06-26_20-50-20_260595134347_rgbf000091-resize_1-target.png,125,2.7305,4.5,4189,125,feet,jsons/VE125_randls_51_rotated.json,612783,1076955,64,Woman
113,429426,DepthScenes,duration_manipulation_targetAtFixation,jsons/VE125_randls_51_rotated.json,http://54.235.29.9/FacialAge/BNav_EC2/DepthDuration/v2_depth_duration_MTurk/v2_DepthDuration_HTML.html#353,353,1684,803,1685,948,8-30-2022,8-59-17,114,depth_duration_stimuli/000691_2014-06-08_13-08-50_260595134347_rgbf000132-resize_3/000691_2014-06-08_13-08-50_260595134347_rgbf000132-resize_3-target.png,125,4.1530000000000005,0.0,4630,139,feet,jsons/VE125_randls_51_rotated.json,612783,1076955,64,Woman
114,429426,DepthScenes,duration_manipulation_targetAtFixation,jsons/VE125_randls_51_rotated.json,http://54.235.29.9/FacialAge/BNav_EC2/DepthDuration/v2_depth_duration_MTurk/v2_DepthDuration_HTML.html#353,353,1684,803,1685,948,8-30-2022,8-59-17,115,depth_duration_stimuli/002213_2014-06-28_18-37-58_260595134347_rgbf000055-resize_1/002213_2014-06-28_18-37-58_260595134347_rgbf000055-resize_1-target.png,125,3.62,8.0,3616,138,feet,jsons/VE125_randls_51_rotated.json,612783,1076955,64,Woman
115,429426,DepthScenes,duration_manipulation_targetAtFixation,jsons/VE125_randls_51_rotated.json,http://54.235.29.9/FacialAge/BNav_EC2/DepthDuration/v2_depth_duration_MTurk/v2_DepthDuration_HTML.html#353,353,1684,803,1685,948,8-30-2022,8-59-17,116,depth_duration_stimuli/002568_2014-06-24_13-59-21_094959634447_rgbf000062-resize_4/002568_2014-06-24_13-59-21_094959634447_rgbf000062-resize_4-target.png,125,3.015,7.0,2835,125,feet,jsons/VE125_randls_51_rotated.json,612783,1076955,64,Woman
116,429426,DepthScenes,duration_manipulation_targetAtFixation,jsons/VE125_randls_51_rotated.json,http://54.235.29.9/FacialAge/BNav_EC2/DepthDuration/v2_depth_duration_MTurk/v2_DepthDuration_HTML.html#353,353,1684,803,1685,948,8-30-2022,8-59-17,117,depth_duration_stimuli/003492_2014-05-21_15-50-55_094959634447_rgbf000828-resize_1/003492_2014-05-21_15-50-55_094959634447_rgbf000828-resize_1-target.png,125,4.06875,9.0,2618,121,feet,jsons/VE125_randls_51_rotated.json,612783,1076955,64,Woman
117,429426,DepthScenes,duration_manipulation_targetAtFixation,jsons/VE125_randls_51_rotated.json,http://54.235.29.9/FacialAge/BNav_EC2/DepthDuration/v2_depth_duration_MTurk/v2_DepthDuration_HTML.html#353,353,1684,803,1685,948,8-30-2022,8-59-17,118,depth_duration_stimuli/003495_2014-05-21_16-01-51_094959634447_rgbf000100-resize_3/003495_2014-05-21_16-01-51_094959634447_rgbf000100-resize_3-target.png,125,1.6255,4.0,2641,122,feet,jsons/VE125_randls_51_rotated.json,612783,1076955,64,Woman
118,429426,DepthScenes,duration_manipulation_targetAtFixation,jsons/VE125_randls_51_rotated.json,http://54.235.29.9/FacialAge/BNav_EC2/DepthDuration/v2_depth_duration_MTurk/v2_DepthDuration_HTML.html#353,353,1684,803,1685,948,8-30-2022,8-59-17,119,depth_duration_stimuli/001244_2014-06-17_16-47-45_260595134347_rgbf000030-resize_4/001244_2014-06-17_16-47-45_260595134347_rgbf000030-resize_4-target.png,125,2.0425,6.0,3016,124,feet,jsons/VE125_randls_51_rotated.json,612783,1076955,64,Woman
119,429426,DepthScenes,duration_manipulation_targetAtFixation,jsons/VE125_randls_51_rotated.json,http://54.235.29.9/FacialAge/BNav_EC2/DepthDuration/v2_depth_duration_MTurk/v2_DepthDuration_HTML.html#353,353,1684,803,1685,948,8-30-2022,8-59-17,120,depth_duration_stimuli/000787_2014-06-08_22-33-53_260595134347_rgbf000175-resize_1/000787_2014-06-08_22-33-53_260595134347_rgbf000175-resize-original.jpg,125,4.784,0.0,3650,123,feet,jsons/VE125_randls_51_rotated.json,612783,1076955,64,Woman
120,429426,DepthScenes,duration_manipulation_targetAtFixation,jsons/VE125_randls_51_rotated.json,http://54.235.29.9/FacialAge/BNav_EC2/DepthDuration/v2_depth_duration_MTurk/v2_DepthDuration_HTML.html#353,353,1684,803,1685,948,8-30-2022,8-59-17,121,depth_duration_stimuli/001516_2014-06-20_16-25-09_260595134347_rgbf000076-resize_2/001516_2014-06-20_16-25-09_260595134347_rgbf000076-resize_2-target.png,125,1.7445,5.0,2994,125,feet,jsons/VE125_randls_51_rotated.json,612783,1076955,64,Woman
121,429426,DepthScenes,duration_manipulation_targetAtFixation,jsons/VE125_randls_51_rotated.json,http://54.235.29.9/FacialAge/BNav_EC2/DepthDuration/v2_depth_duration_MTurk/v2_DepthDuration_HTML.html#353,353,1684,803,1685,948,8-30-2022,8-59-17,122,depth_duration_stimuli/002118_2014-06-25_20-32-08_260595134347_rgbf000078-resize_1/002118_2014-06-25_20-32-08_260595134347_rgbf000078-resize_1-target.png,125,2.6460000000000004,7.0,2872,124,feet,jsons/VE125_randls_51_rotated.json,612783,1076955,64,Woman
122,429426,DepthScenes,duration_manipulation_targetAtFixation,jsons/VE125_randls_51_rotated.json,http://54.235.29.9/FacialAge/BNav_EC2/DepthDuration/v2_depth_duration_MTurk/v2_DepthDuration_HTML.html#353,353,1684,803,1685,948,8-30-2022,8-59-17,123,depth_duration_stimuli/000137_2014-05-20_17-04-49_260595134347_rgbf000120-resize_1/000137_2014-05-20_17-04-49_260595134347_rgbf000120-resize_1-target.png,125,3.786,7.0,2705,125,feet,jsons/VE125_randls_51_rotated.json,612783,1076955,64,Woman
123,429426,DepthScenes,duration_manipulation_targetAtFixation,jsons/VE125_randls_51_rotated.json,http://54.235.29.9/FacialAge/BNav_EC2/DepthDuration/v2_depth_duration_MTurk/v2_DepthDuration_HTML.html#353,353,1684,803,1685,948,8-30-2022,8-59-17,124,depth_duration_stimuli/000736_2014-06-08_18-24-15_260595134347_rgbf000206-resize_3/000736_2014-06-08_18-24-15_260595134347_rgbf000206-resize_3-target.png,125,3.515,6.0,3989,124,feet,jsons/VE125_randls_51_rotated.json,612783,1076955,64,Woman
124,429426,DepthScenes,duration_manipulation_targetAtFixation,jsons/VE125_randls_51_rotated.json,http://54.235.29.9/FacialAge/BNav_EC2/DepthDuration/v2_depth_duration_MTurk/v2_DepthDuration_HTML.html#353,353,1684,803,1685,948,8-30-2022,8-59-17,125,depth_duration_stimuli/001828_2014-06-26_21-40-03_260595134347_rgbf000024-resize_0/001828_2014-06-26_21-40-03_260595134347_rgbf000024-resize_0-target.png,125,4.8260000000000005,8.0,2778,125,feet,jsons/VE125_randls_51_rotated.json,612783,1076955,64,Woman
125,429426,DepthScenes,duration_manipulation_targetAtFixation,jsons/VE125_randls_51_rotated.json,http://54.235.29.9/FacialAge/BNav_EC2/DepthDuration/v2_depth_duration_MTurk/v2_DepthDuration_HTML.html#353,353,1684,803,1685,948,8-30-2022,8-59-17,126,depth_duration_stimuli/000009_2014-05-26_14-32-05_260595134347_rgbf000034-resize_3/000009_2014-05-26_14-32-05_260595134347_rgbf000034-resize_3-target.png,125,3.8715,9.0,3217,125,feet,jsons/VE125_randls_51_rotated.json,612783,1076955,64,Woman
126,429426,DepthScenes,duration_manipulation_targetAtFixation,jsons/VE125_randls_51_rotated.json,http://54.235.29.9/FacialAge/BNav_EC2/DepthDuration/v2_depth_duration_MTurk/v2_DepthDuration_HTML.html#353,353,1684,803,1685,948,8-30-2022,8-59-17,127,depth_duration_stimuli/000677_2014-06-08_23-10-32_260595134347_rgbf000158-resize_6/000677_2014-06-08_23-10-32_260595134347_rgbf000158-resize_6-target.png,125,3.556,5.0,2985,125,feet,jsons/VE125_randls_51_rotated.json,612783,1076955,64,Woman
127,429426,DepthScenes,duration_manipulation_targetAtFixation,jsons/VE125_randls_51_rotated.json,http://54.235.29.9/FacialAge/BNav_EC2/DepthDuration/v2_depth_duration_MTurk/v2_DepthDuration_HTML.html#353,353,1684,803,1685,948,8-30-2022,8-59-17,128,depth_duration_stimuli/001029_2014-06-08_13-17-57_260595134347_rgbf000065-resize_1/001029_2014-06-08_13-17-57_260595134347_rgbf000065-resize_1-target.png,125,3.0835,6.0,2514,123,feet,jsons/VE125_randls_51_rotated.json,612783,1076955,64,Woman
128,429426,DepthScenes,duration_manipulation_targetAtFixation,jsons/VE125_randls_51_rotated.json,http://54.235.29.9/FacialAge/BNav_EC2/DepthDuration/v2_depth_duration_MTurk/v2_DepthDuration_HTML.html#353,353,1684,803,1685,948,8-30-2022,8-59-17,129,depth_duration_stimuli/002875_2014-06-01_15-19-00_094959634447_rgbf000151-resize_1/002875_2014-06-01_15-19-00_094959634447_rgbf000151-resize_1-target.png,125,1.9675,6.0,3152,125,feet,jsons/VE125_randls_51_rotated.json,612783,1076955,64,Woman
129,429426,DepthScenes,duration_manipulation_targetAtFixation,jsons/VE125_randls_51_rotated.json,http://54.235.29.9/FacialAge/BNav_EC2/DepthDuration/v2_depth_duration_MTurk/v2_DepthDuration_HTML.html#353,353,1684,803,1685,948,8-30-2022,8-59-17,130,depth_duration_stimuli/001011_2014-06-08_23-18-54_260595134347_rgbf000044-resize_4/001011_2014-06-08_23-18-54_260595134347_rgbf000044-resize_4-target.png,125,2.4730000000000003,7.0,2360,123,feet,jsons/VE125_randls_51_rotated.json,612783,1076955,64,Woman
130,429426,DepthScenes,duration_manipulation_targetAtFixation,jsons/VE125_randls_51_rotated.json,http://54.235.29.9/FacialAge/BNav_EC2/DepthDuration/v2_depth_duration_MTurk/v2_DepthDuration_HTML.html#353,353,1684,803,1685,948,8-30-2022,8-59-17,131,depth_duration_stimuli/003079_2014-06-15_15-18-20_094959634447_rgbf000152-resize_8/003079_2014-06-15_15-18-20_094959634447_rgbf000152-resize_8-target.png,125,2.8775,8.0,2761,124,feet,jsons/VE125_randls_51_rotated.json,612783,1076955,64,Woman
131,429426,DepthScenes,duration_manipulation_targetAtFixation,jsons/VE125_randls_51_rotated.json,http://54.235.29.9/FacialAge/BNav_EC2/DepthDuration/v2_depth_duration_MTurk/v2_DepthDuration_HTML.html#353,353,1684,803,1685,948,8-30-2022,8-59-17,132,depth_duration_stimuli/000506_2014-06-08_23-21-00_260595134347_rgbf000070-resize_7/000506_2014-06-08_23-21-00_260595134347_rgbf000070-resize_7-target.png,125,4.0585,6.0,2716,123,feet,jsons/VE125_randls_51_rotated.json,612783,1076955,64,Woman
132,429426,DepthScenes,duration_manipulation_targetAtFixation,jsons/VE125_randls_51_rotated.json,http://54.235.29.9/FacialAge/BNav_EC2/DepthDuration/v2_depth_duration_MTurk/v2_DepthDuration_HTML.html#353,353,1684,803,1685,948,8-30-2022,8-59-17,133,depth_duration_stimuli/002414_2014-06-28_20-24-58_260595134347_rgbf000067-resize_4/002414_2014-06-28_20-24-58_260595134347_rgbf000067-resize_4-target.png,125,4.363,8.0,2756,124,feet,jsons/VE125_randls_51_rotated.json,612783,1076955,64,Woman
133,429426,DepthScenes,duration_manipulation_targetAtFixation,jsons/VE125_randls_51_rotated.json,http://54.235.29.9/FacialAge/BNav_EC2/DepthDuration/v2_depth_duration_MTurk/v2_DepthDuration_HTML.html#353,353,1684,803,1685,948,8-30-2022,8-59-17,134,depth_duration_stimuli/000773_2014-06-08_22-24-54_260595134347_rgbf000093-resize_1/000773_2014-06-08_22-24-54_260595134347_rgbf000093-resize_1-target.png,125,4.973,7.0,2426,126,feet,jsons/VE125_randls_51_rotated.json,612783,1076955,64,Woman
134,429426,DepthScenes,duration_manipulation_targetAtFixation,jsons/VE125_randls_51_rotated.json,http://54.235.29.9/FacialAge/BNav_EC2/DepthDuration/v2_depth_duration_MTurk/v2_DepthDuration_HTML.html#353,353,1684,803,1685,948,8-30-2022,8-59-17,135,depth_duration_stimuli/000375_2014-06-08_11-17-29_260595134347_rgbf000133-resize_2/000375_2014-06-08_11-17-29_260595134347_rgbf000133-resize-original.jpg,125,4.718,8.0,5864,124,feet,jsons/VE125_randls_51_rotated.json,612783,1076955,64,Woman
135,429426,DepthScenes,duration_manipulation_targetAtFixation,jsons/VE125_randls_51_rotated.json,http://54.235.29.9/FacialAge/BNav_EC2/DepthDuration/v2_depth_duration_MTurk/v2_DepthDuration_HTML.html#353,353,1684,803,1685,948,8-30-2022,8-59-17,136,depth_duration_stimuli/002657_2014-06-13_15-29-54_094959634447_rgbf000150-resize_1/002657_2014-06-13_15-29-54_094959634447_rgbf000150-resize_1-target.png,125,4.919,8.0,2429,125,feet,jsons/VE125_randls_51_rotated.json,612783,1076955,64,Woman
136,429426,DepthScenes,duration_manipulation_targetAtFixation,jsons/VE125_randls_51_rotated.json,http://54.235.29.9/FacialAge/BNav_EC2/DepthDuration/v2_depth_duration_MTurk/v2_DepthDuration_HTML.html#353,353,1684,803,1685,948,8-30-2022,8-59-17,137,depth_duration_stimuli/002375_2014-06-28_20-13-44_260595134347_rgbf000032-resize_1/002375_2014-06-28_20-13-44_260595134347_rgbf000032-resize_1-target.png,125,4.0175,6.0,2826,139,feet,jsons/VE125_randls_51_rotated.json,612783,1076955,64,Woman
137,429426,DepthScenes,duration_manipulation_targetAtFixation,jsons/VE125_randls_51_rotated.json,http://54.235.29.9/FacialAge/BNav_EC2/DepthDuration/v2_depth_duration_MTurk/v2_DepthDuration_HTML.html#353,353,1684,803,1685,948,8-30-2022,8-59-17,138,depth_duration_stimuli/001052_2014-06-08_18-24-54_260595134347_rgbf000130-resize_1/001052_2014-06-08_18-24-54_260595134347_rgbf000130-resize_1-target.png,125,4.1045,7.0,2558,124,feet,jsons/VE125_randls_51_rotated.json,612783,1076955,64,Woman
138,429426,DepthScenes,duration_manipulation_targetAtFixation,jsons/VE125_randls_51_rotated.json,http://54.235.29.9/FacialAge/BNav_EC2/DepthDuration/v2_depth_duration_MTurk/v2_DepthDuration_HTML.html#353,353,1684,803,1685,948,8-30-2022,8-59-17,139,depth_duration_stimuli/002988_2014-06-15_12-24-20_094959634447_rgbf000150-resize_1/002988_2014-06-15_12-24-20_094959634447_rgbf000150-resize_1-target.png,125,4.7669999999999995,9.0,2785,124,feet,jsons/VE125_randls_51_rotated.json,612783,1076955,64,Woman
139,429426,DepthScenes,duration_manipulation_targetAtFixation,jsons/VE125_randls_51_rotated.json,http://54.235.29.9/FacialAge/BNav_EC2/DepthDuration/v2_depth_duration_MTurk/v2_DepthDuration_HTML.html#353,353,1684,803,1685,948,8-30-2022,8-59-17,140,depth_duration_stimuli/002678_2014-06-13_16-15-32_094959634447_rgbf000151-resize_6/002678_2014-06-13_16-15-32_094959634447_rgbf000151-resize_6-target.png,125,2.1830000000000003,8.0,2752,122,feet,jsons/VE125_randls_51_rotated.json,612783,1076955,64,Woman
140,429426,DepthScenes,duration_manipulation_targetAtFixation,jsons/VE125_randls_51_rotated.json,http://54.235.29.9/FacialAge/BNav_EC2/DepthDuration/v2_depth_duration_MTurk/v2_DepthDuration_HTML.html#353,353,1684,803,1685,948,8-30-2022,8-59-17,141,depth_duration_stimuli/000368_2014-06-09_15-53-01_260595134347_rgbf000155-resize_2/000368_2014-06-09_15-53-01_260595134347_rgbf000155-resize_2-target.png,125,2.4859999999999998,4.0,2535,125,feet,jsons/VE125_randls_51_rotated.json,612783,1076955,64,Woman
141,429426,DepthScenes,duration_manipulation_targetAtFixation,jsons/VE125_randls_51_rotated.json,http://54.235.29.9/FacialAge/BNav_EC2/DepthDuration/v2_depth_duration_MTurk/v2_DepthDuration_HTML.html#353,353,1684,803,1685,948,8-30-2022,8-59-17,142,depth_duration_stimuli/001392_2014-06-19_16-07-59_260595134347_rgbf000046-resize_1/001392_2014-06-19_16-07-59_260595134347_rgbf000046-resize_1-target.png,125,4.135,9.0,2809,123,feet,jsons/VE125_randls_51_rotated.json,612783,1076955,64,Woman
142,429426,DepthScenes,duration_manipulation_targetAtFixation,jsons/VE125_randls_51_rotated.json,http://54.235.29.9/FacialAge/BNav_EC2/DepthDuration/v2_depth_duration_MTurk/v2_DepthDuration_HTML.html#353,353,1684,803,1685,948,8-30-2022,8-59-17,143,depth_duration_stimuli/001570_2014-06-20_17-21-09_260595134347_rgbf000135-resize_4/001570_2014-06-20_17-21-09_260595134347_rgbf000135-resize_4-target.png,125,4.467,9.0,1868,124,feet,jsons/VE125_randls_51_rotated.json,612783,1076955,64,Woman
143,429426,DepthScenes,duration_manipulation_targetAtFixation,jsons/VE125_randls_51_rotated.json,http://54.235.29.9/FacialAge/BNav_EC2/DepthDuration/v2_depth_duration_MTurk/v2_DepthDuration_HTML.html#353,353,1684,803,1685,948,8-30-2022,8-59-17,144,depth_duration_stimuli/003490_2014-05-21_15-50-11_094959634447_rgbf000101-resize_3/003490_2014-05-21_15-50-11_094959634447_rgbf000101-resize_3-target.png,125,3.6445,7.0,4283,140,feet,jsons/VE125_randls_51_rotated.json,612783,1076955,64,Woman
144,429426,DepthScenes,duration_manipulation_targetAtFixation,jsons/VE125_randls_51_rotated.json,http://54.235.29.9/FacialAge/BNav_EC2/DepthDuration/v2_depth_duration_MTurk/v2_DepthDuration_HTML.html#353,353,1684,803,1685,948,8-30-2022,8-59-17,145,depth_duration_stimuli/001175_2014-06-17_15-45-55_260595134347_rgbf000129-resize_4/001175_2014-06-17_15-45-55_260595134347_rgbf000129-resize_4-target.png,125,4.255,8.0,2317,122,feet,jsons/VE125_randls_51_rotated.json,612783,1076955,64,Woman
145,429426,DepthScenes,duration_manipulation_targetAtFixation,jsons/VE125_randls_51_rotated.json,http://54.235.29.9/FacialAge/BNav_EC2/DepthDuration/v2_depth_duration_MTurk/v2_DepthDuration_HTML.html#353,353,1684,803,1685,948,8-30-2022,8-59-17,146,depth_duration_stimuli/000780_2014-06-08_22-28-29_260595134347_rgbf000126-resize_1/000780_2014-06-08_22-28-29_260595134347_rgbf000126-resize_1-target.png,125,3.3825,8.0,2765,124,feet,jsons/VE125_randls_51_rotated.json,612783,1076955,64,Woman
146,429426,DepthScenes,duration_manipulation_targetAtFixation,jsons/VE125_randls_51_rotated.json,http://54.235.29.9/FacialAge/BNav_EC2/DepthDuration/v2_depth_duration_MTurk/v2_DepthDuration_HTML.html#353,353,1684,803,1685,948,8-30-2022,8-59-17,147,depth_duration_stimuli/002445_2014-06-28_20-32-16_260595134347_rgbf000029-resize_4/002445_2014-06-28_20-32-16_260595134347_rgbf000029-resize_4-target.png,125,2.5315,6.0,2923,137,feet,jsons/VE125_randls_51_rotated.json,612783,1076955,64,Woman
147,429426,DepthScenes,duration_manipulation_targetAtFixation,jsons/VE125_randls_51_rotated.json,http://54.235.29.9/FacialAge/BNav_EC2/DepthDuration/v2_depth_duration_MTurk/v2_DepthDuration_HTML.html#353,353,1684,803,1685,948,8-30-2022,8-59-17,148,depth_duration_stimuli/002444_2014-06-28_20-32-08_260595134347_rgbf000027-resize_0/002444_2014-06-28_20-32-08_260595134347_rgbf000027-resize_0-target.png,125,4.388999999999999,7.0,2471,126,feet,jsons/VE125_randls_51_rotated.json,612783,1076955,64,Woman
148,429426,DepthScenes,duration_manipulation_targetAtFixation,jsons/VE125_randls_51_rotated.json,http://54.235.29.9/FacialAge/BNav_EC2/DepthDuration/v2_depth_duration_MTurk/v2_DepthDuration_HTML.html#353,353,1684,803,1685,948,8-30-2022,8-59-17,149,depth_duration_stimuli/000436_2014-06-09_22-25-11_260595134347_rgbf000137-resize_1/000436_2014-06-09_22-25-11_260595134347_rgbf000137-resize_1-target.png,125,4.0705,8.0,2578,123,feet,jsons/VE125_randls_51_rotated.json,612783,1076955,64,Woman
149,429426,DepthScenes,duration_manipulation_targetAtFixation,jsons/VE125_randls_51_rotated.json,http://54.235.29.9/FacialAge/BNav_EC2/DepthDuration/v2_depth_duration_MTurk/v2_DepthDuration_HTML.html#353,353,1684,803,1685,948,8-30-2022,8-59-17,150,depth_duration_stimuli/002750_2014-06-22_19-08-03_094959634447_rgbf000094-resize_4/002750_2014-06-22_19-08-03_094959634447_rgbf000094-resize_4-target.png,125,2.354,8.0,2486,122,feet,jsons/VE125_randls_51_rotated.json,612783,1076955,64,Woman
150,429426,DepthScenes,duration_manipulation_targetAtFixation,jsons/VE125_randls_51_rotated.json,http://54.235.29.9/FacialAge/BNav_EC2/DepthDuration/v2_depth_duration_MTurk/v2_DepthDuration_HTML.html#353,353,1684,803,1685,948,8-30-2022,8-59-17,151,depth_duration_stimuli/002549_2014-06-24_13-41-39_094959634447_rgbf000022-resize_3/002549_2014-06-24_13-41-39_094959634447_rgbf000022-resize_3-target.png,125,1.476,4.0,2883,138,feet,jsons/VE125_randls_51_rotated.json,612783,1076955,64,Woman
151,429426,DepthScenes,duration_manipulation_targetAtFixation,jsons/VE125_randls_51_rotated.json,http://54.235.29.9/FacialAge/BNav_EC2/DepthDuration/v2_depth_duration_MTurk/v2_DepthDuration_HTML.html#353,353,1684,803,1685,948,8-30-2022,8-59-17,152,depth_duration_stimuli/000569_2014-06-09_22-51-47_260595134347_rgbf000141-resize_3/000569_2014-06-09_22-51-47_260595134347_rgbf000141-resize-original.jpg,125,4.512,0.0,6388,123,feet,jsons/VE125_randls_51_rotated.json,612783,1076955,64,Woman
152,429426,DepthScenes,duration_manipulation_targetAtFixation,jsons/VE125_randls_51_rotated.json,http://54.235.29.9/FacialAge/BNav_EC2/DepthDuration/v2_depth_duration_MTurk/v2_DepthDuration_HTML.html#353,353,1684,803,1685,948,8-30-2022,8-59-17,153,depth_duration_stimuli/002805_2014-06-22_19-54-03_094959634447_rgbf000079-resize_1/002805_2014-06-22_19-54-03_094959634447_rgbf000079-resize_1-target.png,125,3.1439999999999997,6.0,3763,122,feet,jsons/VE125_randls_51_rotated.json,612783,1076955,64,Woman
153,429426,DepthScenes,duration_manipulation_targetAtFixation,jsons/VE125_randls_51_rotated.json,http://54.235.29.9/FacialAge/BNav_EC2/DepthDuration/v2_depth_duration_MTurk/v2_DepthDuration_HTML.html#353,353,1684,803,1685,948,8-30-2022,8-59-17,154,depth_duration_stimuli/000906_2014-06-08_13-35-43_260595134347_rgbf000155-resize_1/000906_2014-06-08_13-35-43_260595134347_rgbf000155-resize_1-target.png,125,2.8489999999999998,7.0,2202,125,feet,jsons/VE125_randls_51_rotated.json,612783,1076955,64,Woman
154,429426,DepthScenes,duration_manipulation_targetAtFixation,jsons/VE125_randls_51_rotated.json,http://54.235.29.9/FacialAge/BNav_EC2/DepthDuration/v2_depth_duration_MTurk/v2_DepthDuration_HTML.html#353,353,1684,803,1685,948,8-30-2022,8-59-17,155,depth_duration_stimuli/001132_2014-06-17_14-48-54_260595134347_rgbf000100-resize_2/001132_2014-06-17_14-48-54_260595134347_rgbf000100-resize_2-target.png,125,3.753,7.0,2237,122,feet,jsons/VE125_randls_51_rotated.json,612783,1076955,64,Woman
155,429426,DepthScenes,duration_manipulation_targetAtFixation,jsons/VE125_randls_51_rotated.json,http://54.235.29.9/FacialAge/BNav_EC2/DepthDuration/v2_depth_duration_MTurk/v2_DepthDuration_HTML.html#353,353,1684,803,1685,948,8-30-2022,8-59-17,156,depth_duration_stimuli/001133_2014-06-17_14-49-16_260595134347_rgbf000100-resize_0/001133_2014-06-17_14-49-16_260595134347_rgbf000100-resize_0-target.png,125,4.2115,8.0,2421,122,feet,jsons/VE125_randls_51_rotated.json,612783,1076955,64,Woman
156,429426,DepthScenes,duration_manipulation_targetAtFixation,jsons/VE125_randls_51_rotated.json,http://54.235.29.9/FacialAge/BNav_EC2/DepthDuration/v2_depth_duration_MTurk/v2_DepthDuration_HTML.html#353,353,1684,803,1685,948,8-30-2022,8-59-17,157,depth_duration_stimuli/003083_2014-06-15_15-21-03_094959634447_rgbf000063-resize_1/003083_2014-06-15_15-21-03_094959634447_rgbf000063-resize_1-target.png,125,4.1405,9.0,3324,122,feet,jsons/VE125_randls_51_rotated.json,612783,1076955,64,Woman
157,429426,DepthScenes,duration_manipulation_targetAtFixation,jsons/VE125_randls_51_rotated.json,http://54.235.29.9/FacialAge/BNav_EC2/DepthDuration/v2_depth_duration_MTurk/v2_DepthDuration_HTML.html#353,353,1684,803,1685,948,8-30-2022,8-59-17,158,depth_duration_stimuli/000486_2014-06-09_20-47-20_260595134347_rgbf000143-resize_2/000486_2014-06-09_20-47-20_260595134347_rgbf000143-resize_2-target.png,125,4.8325,8.0,2553,124,feet,jsons/VE125_randls_51_rotated.json,612783,1076955,64,Woman
158,429426,DepthScenes,duration_manipulation_targetAtFixation,jsons/VE125_randls_51_rotated.json,http://54.235.29.9/FacialAge/BNav_EC2/DepthDuration/v2_depth_duration_MTurk/v2_DepthDuration_HTML.html#353,353,1684,803,1685,948,8-30-2022,8-59-17,159,depth_duration_stimuli/003048_2014-06-15_13-49-43_094959634447_rgbf000150-resize_1/003048_2014-06-15_13-49-43_094959634447_rgbf000150-resize_1-target.png,125,4.0035,8.0,2943,124,feet,jsons/VE125_randls_51_rotated.json,612783,1076955,64,Woman
159,429426,DepthScenes,duration_manipulation_targetAtFixation,jsons/VE125_randls_51_rotated.json,http://54.235.29.9/FacialAge/BNav_EC2/DepthDuration/v2_depth_duration_MTurk/v2_DepthDuration_HTML.html#353,353,1684,803,1685,948,8-30-2022,8-59-17,160,depth_duration_stimuli/002043_2014-06-24_20-29-38_260595134347_rgbf000039-resize_4/002043_2014-06-24_20-29-38_260595134347_rgbf000039-resize_4-target.png,125,2.8435,7.0,2750,124,feet,jsons/VE125_randls_51_rotated.json,612783,1076955,64,Woman
160,429426,DepthScenes,duration_manipulation_targetAtFixation,jsons/VE125_randls_51_rotated.json,http://54.235.29.9/FacialAge/BNav_EC2/DepthDuration/v2_depth_duration_MTurk/v2_DepthDuration_HTML.html#353,353,1684,803,1685,948,8-30-2022,8-59-17,161,depth_duration_stimuli/001032_2014-06-08_13-23-17_260595134347_rgbf000021-resize_3/001032_2014-06-08_13-23-17_260595134347_rgbf000021-resize_3-target.png,125,3.2725,6.0,2931,121,feet,jsons/VE125_randls_51_rotated.json,612783,1076955,64,Woman
161,429426,DepthScenes,duration_manipulation_targetAtFixation,jsons/VE125_randls_51_rotated.json,http://54.235.29.9/FacialAge/BNav_EC2/DepthDuration/v2_depth_duration_MTurk/v2_DepthDuration_HTML.html#353,353,1684,803,1685,948,8-30-2022,8-59-17,162,depth_duration_stimuli/001059_2014-06-08_21-53-27_260595134347_rgbf000061-resize_4/001059_2014-06-08_21-53-27_260595134347_rgbf000061-resize_4-target.png,125,2.4185,7.0,3466,115,feet,jsons/VE125_randls_51_rotated.json,612783,1076955,64,Woman
162,429426,DepthScenes,duration_manipulation_targetAtFixation,jsons/VE125_randls_51_rotated.json,http://54.235.29.9/FacialAge/BNav_EC2/DepthDuration/v2_depth_duration_MTurk/v2_DepthDuration_HTML.html#353,353,1684,803,1685,948,8-30-2022,8-59-17,163,depth_duration_stimuli/003010_2014-06-15_12-54-35_094959634447_rgbf000112-resize_0/003010_2014-06-15_12-54-35_094959634447_rgbf000112-resize_0-target.png,125,3.1185,8.0,2626,124,feet,jsons/VE125_randls_51_rotated.json,612783,1076955,64,Woman
163,429426,DepthScenes,duration_manipulation_targetAtFixation,jsons/VE125_randls_51_rotated.json,http://54.235.29.9/FacialAge/BNav_EC2/DepthDuration/v2_depth_duration_MTurk/v2_DepthDuration_HTML.html#353,353,1684,803,1685,948,8-30-2022,8-59-17,164,depth_duration_stimuli/001810_2014-06-26_20-51-35_260595134347_rgbf000040-resize_3/001810_2014-06-26_20-51-35_260595134347_rgbf000040-resize_3-target.png,125,2.2525,4.5,4304,123,feet,jsons/VE125_randls_51_rotated.json,612783,1076955,64,Woman
