,subjID,experimentName,versionName,sequenceName,url,selected_row,windowWidth,windowHeight,screenWidth,screenHeight,startDate,startTime,trial,stimulus,duration,actual_depth,depth_estimate,trial_RT,log_sceneDuration,unitSelection,seq_filepath,experimentTime,totalTime,age,gender
0,432087,DepthScenes,duration_manipulation_targetAtFixation,jsons/v1_VE250_randls_59.json,http://54.235.29.9/FacialAge/BNav_EC2/DepthDuration/v2_depth_duration_MTurk/v2_DepthDuration_HTML.html#1,1,1364,768,1364,768,8-20-2022,11-51-46,1,depth_duration_stimuli/000736_2014-06-08_18-24-15_260595134347_rgbf000206-resize_3/000736_2014-06-08_18-24-15_260595134347_rgbf000206-resize_3-target.png,250,3.515,3,11066,249,feet,jsons/v1_VE250_randls_59.json,1085446,1592588,36,Woman
1,432087,DepthScenes,duration_manipulation_targetAtFixation,jsons/v1_VE250_randls_59.json,http://54.235.29.9/FacialAge/BNav_EC2/DepthDuration/v2_depth_duration_MTurk/v2_DepthDuration_HTML.html#1,1,1364,768,1364,768,8-20-2022,11-51-46,2,depth_duration_stimuli/000137_2014-05-20_17-04-49_260595134347_rgbf000120-resize_1/000137_2014-05-20_17-04-49_260595134347_rgbf000120-resize_1-target.png,250,3.786,4,4523,240,feet,jsons/v1_VE250_randls_59.json,1085446,1592588,36,Woman
2,432087,DepthScenes,duration_manipulation_targetAtFixation,jsons/v1_VE250_randls_59.json,http://54.235.29.9/FacialAge/BNav_EC2/DepthDuration/v2_depth_duration_MTurk/v2_DepthDuration_HTML.html#1,1,1364,768,1364,768,8-20-2022,11-51-46,3,depth_duration_stimuli/003534_2014-05-22_15-06-10_094959634447_rgbf000102-resize_4/003534_2014-05-22_15-06-10_094959634447_rgbf000102-resize_4-target.png,250,1.426,3,7034,250,feet,jsons/v1_VE250_randls_59.json,1085446,1592588,36,Woman
3,432087,DepthScenes,duration_manipulation_targetAtFixation,jsons/v1_VE250_randls_59.json,http://54.235.29.9/FacialAge/BNav_EC2/DepthDuration/v2_depth_duration_MTurk/v2_DepthDuration_HTML.html#1,1,1364,768,1364,768,8-20-2022,11-51-46,4,depth_duration_stimuli/002637_2014-06-24_14-51-13_094959634447_rgbf000066-resize_4/002637_2014-06-24_14-51-13_094959634447_rgbf000066-resize_4-target.png,250,1.9955,4,3268,249,feet,jsons/v1_VE250_randls_59.json,1085446,1592588,36,Woman
4,432087,DepthScenes,duration_manipulation_targetAtFixation,jsons/v1_VE250_randls_59.json,http://54.235.29.9/FacialAge/BNav_EC2/DepthDuration/v2_depth_duration_MTurk/v2_DepthDuration_HTML.html#1,1,1364,768,1364,768,8-20-2022,11-51-46,5,depth_duration_stimuli/000878_2014-06-08_22-52-45_260595134347_rgbf000045-resize_2/000878_2014-06-08_22-52-45_260595134347_rgbf000045-resize_2-target.png,250,2.092,3,6374,249,feet,jsons/v1_VE250_randls_59.json,1085446,1592588,36,Woman
5,432087,DepthScenes,duration_manipulation_targetAtFixation,jsons/v1_VE250_randls_59.json,http://54.235.29.9/FacialAge/BNav_EC2/DepthDuration/v2_depth_duration_MTurk/v2_DepthDuration_HTML.html#1,1,1364,768,1364,768,8-20-2022,11-51-46,6,depth_duration_stimuli/002953_2014-06-08_17-32-18_094959634447_rgbf000059-resize_5/002953_2014-06-08_17-32-18_094959634447_rgbf000059-resize_5-target.png,250,1.551,3,3697,250,feet,jsons/v1_VE250_randls_59.json,1085446,1592588,36,Woman
6,432087,DepthScenes,duration_manipulation_targetAtFixation,jsons/v1_VE250_randls_59.json,http://54.235.29.9/FacialAge/BNav_EC2/DepthDuration/v2_depth_duration_MTurk/v2_DepthDuration_HTML.html#1,1,1364,768,1364,768,8-20-2022,11-51-46,7,depth_duration_stimuli/000436_2014-06-09_22-25-11_260595134347_rgbf000137-resize_1/000436_2014-06-09_22-25-11_260595134347_rgbf000137-resize_1-target.png,250,4.0705,3,6744,250,feet,jsons/v1_VE250_randls_59.json,1085446,1592588,36,Woman
7,432087,DepthScenes,duration_manipulation_targetAtFixation,jsons/v1_VE250_randls_59.json,http://54.235.29.9/FacialAge/BNav_EC2/DepthDuration/v2_depth_duration_MTurk/v2_DepthDuration_HTML.html#1,1,1364,768,1364,768,8-20-2022,11-51-46,8,depth_duration_stimuli/002444_2014-06-28_20-32-08_260595134347_rgbf000027-resize_0/002444_2014-06-28_20-32-08_260595134347_rgbf000027-resize_0-target.png,250,4.388999999999999,4,5394,252,feet,jsons/v1_VE250_randls_59.json,1085446,1592588,36,Woman
8,432087,DepthScenes,duration_manipulation_targetAtFixation,jsons/v1_VE250_randls_59.json,http://54.235.29.9/FacialAge/BNav_EC2/DepthDuration/v2_depth_duration_MTurk/v2_DepthDuration_HTML.html#1,1,1364,768,1364,768,8-20-2022,11-51-46,9,depth_duration_stimuli/001066_2014-06-08_22-03-20_260595134347_rgbf000066-resize_4/001066_2014-06-08_22-03-20_260595134347_rgbf000066-resize_4-target.png,250,4.2330000000000005,3,8811,250,feet,jsons/v1_VE250_randls_59.json,1085446,1592588,36,Woman
9,432087,DepthScenes,duration_manipulation_targetAtFixation,jsons/v1_VE250_randls_59.json,http://54.235.29.9/FacialAge/BNav_EC2/DepthDuration/v2_depth_duration_MTurk/v2_DepthDuration_HTML.html#1,1,1364,768,1364,768,8-20-2022,11-51-46,10,depth_duration_stimuli/000742_2014-06-08_18-48-09_260595134347_rgbf000164-resize_4/000742_2014-06-08_18-48-09_260595134347_rgbf000164-resize_4-target.png,250,4.632,4,5813,250,feet,jsons/v1_VE250_randls_59.json,1085446,1592588,36,Woman
10,432087,DepthScenes,duration_manipulation_targetAtFixation,jsons/v1_VE250_randls_59.json,http://54.235.29.9/FacialAge/BNav_EC2/DepthDuration/v2_depth_duration_MTurk/v2_DepthDuration_HTML.html#1,1,1364,768,1364,768,8-20-2022,11-51-46,11,depth_duration_stimuli/001808_2014-06-26_20-50-58_260595134347_rgbf000029-resize_1/001808_2014-06-26_20-50-58_260595134347_rgbf000029-resize_1-target.png,250,4.249,4,11705,250,feet,jsons/v1_VE250_randls_59.json,1085446,1592588,36,Woman
11,432087,DepthScenes,duration_manipulation_targetAtFixation,jsons/v1_VE250_randls_59.json,http://54.235.29.9/FacialAge/BNav_EC2/DepthDuration/v2_depth_duration_MTurk/v2_DepthDuration_HTML.html#1,1,1364,768,1364,768,8-20-2022,11-51-46,12,depth_duration_stimuli/001815_2014-06-26_20-52-55_260595134347_rgbf000020-resize_0/001815_2014-06-26_20-52-55_260595134347_rgbf000020-resize_0-target.png,250,3.3865,3,4539,249,feet,jsons/v1_VE250_randls_59.json,1085446,1592588,36,Woman
12,432087,DepthScenes,duration_manipulation_targetAtFixation,jsons/v1_VE250_randls_59.json,http://54.235.29.9/FacialAge/BNav_EC2/DepthDuration/v2_depth_duration_MTurk/v2_DepthDuration_HTML.html#1,1,1364,768,1364,768,8-20-2022,11-51-46,13,depth_duration_stimuli/000569_2014-06-09_22-51-47_260595134347_rgbf000141-resize_3/000569_2014-06-09_22-51-47_260595134347_rgbf000141-resize-original.jpg,250,4.512,0,8235,248,feet,jsons/v1_VE250_randls_59.json,1085446,1592588,36,Woman
13,432087,DepthScenes,duration_manipulation_targetAtFixation,jsons/v1_VE250_randls_59.json,http://54.235.29.9/FacialAge/BNav_EC2/DepthDuration/v2_depth_duration_MTurk/v2_DepthDuration_HTML.html#1,1,1364,625,1364,768,8-20-2022,11-51-46,14,depth_duration_stimuli/001016_2014-06-09_16-16-10_260595134347_rgbf000112-resize_5/001016_2014-06-09_16-16-10_260595134347_rgbf000112-resize_5-target.png,250,1.6565,0,120948,251,feet,jsons/v1_VE250_randls_59.json,1085446,1592588,36,Woman
14,432087,DepthScenes,duration_manipulation_targetAtFixation,jsons/v1_VE250_randls_59.json,http://54.235.29.9/FacialAge/BNav_EC2/DepthDuration/v2_depth_duration_MTurk/v2_DepthDuration_HTML.html#1,1,1364,625,1364,768,8-20-2022,11-51-46,15,depth_duration_stimuli/002340_2014-06-28_20-05-46_260595134347_rgbf000113-resize_0/002340_2014-06-28_20-05-46_260595134347_rgbf000113-resize_0-target.png,250,2.4735,3,6112,253,feet,jsons/v1_VE250_randls_59.json,1085446,1592588,36,Woman
15,432087,DepthScenes,duration_manipulation_targetAtFixation,jsons/v1_VE250_randls_59.json,http://54.235.29.9/FacialAge/BNav_EC2/DepthDuration/v2_depth_duration_MTurk/v2_DepthDuration_HTML.html#1,1,1364,625,1364,768,8-20-2022,11-51-46,16,depth_duration_stimuli/002748_2014-06-22_19-07-22_094959634447_rgbf000078-resize_1/002748_2014-06-22_19-07-22_094959634447_rgbf000078-resize_1-target.png,250,4.6705,9,10943,248,feet,jsons/v1_VE250_randls_59.json,1085446,1592588,36,Woman
16,432087,DepthScenes,duration_manipulation_targetAtFixation,jsons/v1_VE250_randls_59.json,http://54.235.29.9/FacialAge/BNav_EC2/DepthDuration/v2_depth_duration_MTurk/v2_DepthDuration_HTML.html#1,1,1364,625,1364,768,8-20-2022,11-51-46,17,depth_duration_stimuli/002995_2014-06-15_12-31-26_094959634447_rgbf000150-resize_1/002995_2014-06-15_12-31-26_094959634447_rgbf000150-resize_1-target.png,250,3.8360000000000003,4,5066,248,feet,jsons/v1_VE250_randls_59.json,1085446,1592588,36,Woman
17,432087,DepthScenes,duration_manipulation_targetAtFixation,jsons/v1_VE250_randls_59.json,http://54.235.29.9/FacialAge/BNav_EC2/DepthDuration/v2_depth_duration_MTurk/v2_DepthDuration_HTML.html#1,1,1364,625,1364,768,8-20-2022,11-51-46,18,depth_duration_stimuli/000682_2014-06-08_23-14-58_260595134347_rgbf000041-resize_5/000682_2014-06-08_23-14-58_260595134347_rgbf000041-resize_5-target.png,250,2.7239999999999998,3,6162,250,feet,jsons/v1_VE250_randls_59.json,1085446,1592588,36,Woman
18,432087,DepthScenes,duration_manipulation_targetAtFixation,jsons/v1_VE250_randls_59.json,http://54.235.29.9/FacialAge/BNav_EC2/DepthDuration/v2_depth_duration_MTurk/v2_DepthDuration_HTML.html#1,1,1364,625,1364,768,8-20-2022,11-51-46,19,depth_duration_stimuli/001650_2014-06-20_12-09-00_260595134347_rgbf000087-resize_3/001650_2014-06-20_12-09-00_260595134347_rgbf000087-resize_3-target.png,250,1.9505,4,3846,251,feet,jsons/v1_VE250_randls_59.json,1085446,1592588,36,Woman
19,432087,DepthScenes,duration_manipulation_targetAtFixation,jsons/v1_VE250_randls_59.json,http://54.235.29.9/FacialAge/BNav_EC2/DepthDuration/v2_depth_duration_MTurk/v2_DepthDuration_HTML.html#1,1,1364,625,1364,768,8-20-2022,11-51-46,20,depth_duration_stimuli/001167_2014-06-17_15-38-07_260595134347_rgbf000108-resize_0/001167_2014-06-17_15-38-07_260595134347_rgbf000108-resize_0-target.png,250,1.8505,3,5263,250,feet,jsons/v1_VE250_randls_59.json,1085446,1592588,36,Woman
20,432087,DepthScenes,duration_manipulation_targetAtFixation,jsons/v1_VE250_randls_59.json,http://54.235.29.9/FacialAge/BNav_EC2/DepthDuration/v2_depth_duration_MTurk/v2_DepthDuration_HTML.html#1,1,1364,625,1364,768,8-20-2022,11-51-46,21,depth_duration_stimuli/003587_2014-05-23_16-48-02_094959634447_rgbf002384-resize_2/003587_2014-05-23_16-48-02_094959634447_rgbf002384-resize_2-target.png,250,1.357,3,3642,249,feet,jsons/v1_VE250_randls_59.json,1085446,1592588,36,Woman
21,432087,DepthScenes,duration_manipulation_targetAtFixation,jsons/v1_VE250_randls_59.json,http://54.235.29.9/FacialAge/BNav_EC2/DepthDuration/v2_depth_duration_MTurk/v2_DepthDuration_HTML.html#1,1,1364,625,1364,768,8-20-2022,11-51-46,22,depth_duration_stimuli/002375_2014-06-28_20-13-44_260595134347_rgbf000032-resize_1/002375_2014-06-28_20-13-44_260595134347_rgbf000032-resize_1-target.png,250,4.0175,4,7828,249,feet,jsons/v1_VE250_randls_59.json,1085446,1592588,36,Woman
22,432087,DepthScenes,duration_manipulation_targetAtFixation,jsons/v1_VE250_randls_59.json,http://54.235.29.9/FacialAge/BNav_EC2/DepthDuration/v2_depth_duration_MTurk/v2_DepthDuration_HTML.html#1,1,1364,625,1364,768,8-20-2022,11-51-46,23,depth_duration_stimuli/002657_2014-06-13_15-29-54_094959634447_rgbf000150-resize_1/002657_2014-06-13_15-29-54_094959634447_rgbf000150-resize_1-target.png,250,4.919,4,5255,251,feet,jsons/v1_VE250_randls_59.json,1085446,1592588,36,Woman
23,432087,DepthScenes,duration_manipulation_targetAtFixation,jsons/v1_VE250_randls_59.json,http://54.235.29.9/FacialAge/BNav_EC2/DepthDuration/v2_depth_duration_MTurk/v2_DepthDuration_HTML.html#1,1,1364,625,1364,768,8-20-2022,11-51-46,24,depth_duration_stimuli/001199_2014-06-17_16-03-48_260595134347_rgbf000077-resize_0/001199_2014-06-17_16-03-48_260595134347_rgbf000077-resize_0-target.png,250,3.4375,4,10829,249,feet,jsons/v1_VE250_randls_59.json,1085446,1592588,36,Woman
24,432087,DepthScenes,duration_manipulation_targetAtFixation,jsons/v1_VE250_randls_59.json,http://54.235.29.9/FacialAge/BNav_EC2/DepthDuration/v2_depth_duration_MTurk/v2_DepthDuration_HTML.html#1,1,1364,625,1364,768,8-20-2022,11-51-46,25,depth_duration_stimuli/000502_2014-06-08_23-02-32_260595134347_rgbf000063-resize_4/000502_2014-06-08_23-02-32_260595134347_rgbf000063-resize_4-target.png,250,2.431,3,13851,250,feet,jsons/v1_VE250_randls_59.json,1085446,1592588,36,Woman
25,432087,DepthScenes,duration_manipulation_targetAtFixation,jsons/v1_VE250_randls_59.json,http://54.235.29.9/FacialAge/BNav_EC2/DepthDuration/v2_depth_duration_MTurk/v2_DepthDuration_HTML.html#1,1,1364,625,1364,768,8-20-2022,11-51-46,26,depth_duration_stimuli/001164_2014-06-17_15-35-46_260595134347_rgbf000085-resize_3/001164_2014-06-17_15-35-46_260595134347_rgbf000085-resize_3-target.png,250,2.354,3,5110,249,feet,jsons/v1_VE250_randls_59.json,1085446,1592588,36,Woman
26,432087,DepthScenes,duration_manipulation_targetAtFixation,jsons/v1_VE250_randls_59.json,http://54.235.29.9/FacialAge/BNav_EC2/DepthDuration/v2_depth_duration_MTurk/v2_DepthDuration_HTML.html#1,1,1364,625,1364,768,8-20-2022,11-51-46,27,depth_duration_stimuli/001136_2014-06-17_15-19-41_260595134347_rgbf000076-resize_3/001136_2014-06-17_15-19-41_260595134347_rgbf000076-resize_3-target.png,250,1.8655,3,3634,250,feet,jsons/v1_VE250_randls_59.json,1085446,1592588,36,Woman
27,432087,DepthScenes,duration_manipulation_targetAtFixation,jsons/v1_VE250_randls_59.json,http://54.235.29.9/FacialAge/BNav_EC2/DepthDuration/v2_depth_duration_MTurk/v2_DepthDuration_HTML.html#1,1,1364,625,1364,768,8-20-2022,11-51-46,28,depth_duration_stimuli/002213_2014-06-28_18-37-58_260595134347_rgbf000055-resize_1/002213_2014-06-28_18-37-58_260595134347_rgbf000055-resize_1-target.png,250,3.62,4,4498,250,feet,jsons/v1_VE250_randls_59.json,1085446,1592588,36,Woman
28,432087,DepthScenes,duration_manipulation_targetAtFixation,jsons/v1_VE250_randls_59.json,http://54.235.29.9/FacialAge/BNav_EC2/DepthDuration/v2_depth_duration_MTurk/v2_DepthDuration_HTML.html#1,1,1364,625,1364,768,8-20-2022,11-51-46,29,depth_duration_stimuli/000691_2014-06-08_13-08-50_260595134347_rgbf000132-resize_3/000691_2014-06-08_13-08-50_260595134347_rgbf000132-resize_3-target.png,250,4.1530000000000005,3,4097,249,feet,jsons/v1_VE250_randls_59.json,1085446,1592588,36,Woman
29,432087,DepthScenes,duration_manipulation_targetAtFixation,jsons/v1_VE250_randls_59.json,http://54.235.29.9/FacialAge/BNav_EC2/DepthDuration/v2_depth_duration_MTurk/v2_DepthDuration_HTML.html#1,1,1364,625,1364,768,8-20-2022,11-51-46,30,depth_duration_stimuli/000375_2014-06-08_11-17-29_260595134347_rgbf000133-resize_2/000375_2014-06-08_11-17-29_260595134347_rgbf000133-resize-original.jpg,250,4.718,0,5593,251,feet,jsons/v1_VE250_randls_59.json,1085446,1592588,36,Woman
30,432087,DepthScenes,duration_manipulation_targetAtFixation,jsons/v1_VE250_randls_59.json,http://54.235.29.9/FacialAge/BNav_EC2/DepthDuration/v2_depth_duration_MTurk/v2_DepthDuration_HTML.html#1,1,1364,625,1364,768,8-20-2022,11-51-46,31,depth_duration_stimuli/001110_2014-06-15_17-25-28_260595134347_rgbf000150-resize_1/001110_2014-06-15_17-25-28_260595134347_rgbf000150-resize_1-target.png,250,1.7115,0,4088,250,feet,jsons/v1_VE250_randls_59.json,1085446,1592588,36,Woman
31,432087,DepthScenes,duration_manipulation_targetAtFixation,jsons/v1_VE250_randls_59.json,http://54.235.29.9/FacialAge/BNav_EC2/DepthDuration/v2_depth_duration_MTurk/v2_DepthDuration_HTML.html#1,1,1364,625,1364,768,8-20-2022,11-51-46,32,depth_duration_stimuli/000927_2014-06-09_16-32-30_260595134347_rgbf000123-resize_3/000927_2014-06-09_16-32-30_260595134347_rgbf000123-resize_3-target.png,250,2.6785,4,3194,229,feet,jsons/v1_VE250_randls_59.json,1085446,1592588,36,Woman
32,432087,DepthScenes,duration_manipulation_targetAtFixation,jsons/v1_VE250_randls_59.json,http://54.235.29.9/FacialAge/BNav_EC2/DepthDuration/v2_depth_duration_MTurk/v2_DepthDuration_HTML.html#1,1,1364,625,1364,768,8-20-2022,11-51-46,33,depth_duration_stimuli/003070_2014-06-15_14-58-27_094959634447_rgbf000150-resize_3/003070_2014-06-15_14-58-27_094959634447_rgbf000150-resize_3-target.png,250,2.9415,4,9510,249,feet,jsons/v1_VE250_randls_59.json,1085446,1592588,36,Woman
33,432087,DepthScenes,duration_manipulation_targetAtFixation,jsons/v1_VE250_randls_59.json,http://54.235.29.9/FacialAge/BNav_EC2/DepthDuration/v2_depth_duration_MTurk/v2_DepthDuration_HTML.html#1,1,1364,625,1364,768,8-20-2022,11-51-46,34,depth_duration_stimuli/000943_2014-06-09_19-31-07_260595134347_rgbf000128-resize_1/000943_2014-06-09_19-31-07_260595134347_rgbf000128-resize_1-target.png,250,1.9765,4,4329,250,feet,jsons/v1_VE250_randls_59.json,1085446,1592588,36,Woman
34,432087,DepthScenes,duration_manipulation_targetAtFixation,jsons/v1_VE250_randls_59.json,http://54.235.29.9/FacialAge/BNav_EC2/DepthDuration/v2_depth_duration_MTurk/v2_DepthDuration_HTML.html#1,1,1364,625,1364,768,8-20-2022,11-51-46,35,depth_duration_stimuli/001449_2014-06-19_17-01-27_260595134347_rgbf000116-resize_2/001449_2014-06-19_17-01-27_260595134347_rgbf000116-resize_2-target.png,250,3.452,4,5667,253,feet,jsons/v1_VE250_randls_59.json,1085446,1592588,36,Woman
35,432087,DepthScenes,duration_manipulation_targetAtFixation,jsons/v1_VE250_randls_59.json,http://54.235.29.9/FacialAge/BNav_EC2/DepthDuration/v2_depth_duration_MTurk/v2_DepthDuration_HTML.html#1,1,1364,625,1364,768,8-20-2022,11-51-46,36,depth_duration_stimuli/001450_2014-06-19_17-02-03_260595134347_rgbf000203-resize_4/001450_2014-06-19_17-02-03_260595134347_rgbf000203-resize_4-target.png,250,4.0106666666667,0,4159,249,feet,jsons/v1_VE250_randls_59.json,1085446,1592588,36,Woman
36,432087,DepthScenes,duration_manipulation_targetAtFixation,jsons/v1_VE250_randls_59.json,http://54.235.29.9/FacialAge/BNav_EC2/DepthDuration/v2_depth_duration_MTurk/v2_DepthDuration_HTML.html#1,1,1364,625,1364,768,8-20-2022,11-51-46,37,depth_duration_stimuli/001150_2014-06-17_15-27-34_260595134347_rgbf000108-resize_2/001150_2014-06-17_15-27-34_260595134347_rgbf000108-resize_2-target.png,250,4.0325,4,5087,250,feet,jsons/v1_VE250_randls_59.json,1085446,1592588,36,Woman
37,432087,DepthScenes,duration_manipulation_targetAtFixation,jsons/v1_VE250_randls_59.json,http://54.235.29.9/FacialAge/BNav_EC2/DepthDuration/v2_depth_duration_MTurk/v2_DepthDuration_HTML.html#1,1,1364,625,1364,768,8-20-2022,11-51-46,38,depth_duration_stimuli/000665_2014-06-09_20-42-35_260595134347_rgbf000110-resize_1/000665_2014-06-09_20-42-35_260595134347_rgbf000110-resize_1-target.png,250,3.057,0,4395,250,feet,jsons/v1_VE250_randls_59.json,1085446,1592588,36,Woman
38,432087,DepthScenes,duration_manipulation_targetAtFixation,jsons/v1_VE250_randls_59.json,http://54.235.29.9/FacialAge/BNav_EC2/DepthDuration/v2_depth_duration_MTurk/v2_DepthDuration_HTML.html#1,1,1364,625,1364,768,8-20-2022,11-51-46,39,depth_duration_stimuli/002905_2014-06-03_18-04-43_094959634447_rgbf000151-resize_2/002905_2014-06-03_18-04-43_094959634447_rgbf000151-resize_2-target.png,250,2.0295,3,6446,248,feet,jsons/v1_VE250_randls_59.json,1085446,1592588,36,Woman
39,432087,DepthScenes,duration_manipulation_targetAtFixation,jsons/v1_VE250_randls_59.json,http://54.235.29.9/FacialAge/BNav_EC2/DepthDuration/v2_depth_duration_MTurk/v2_DepthDuration_HTML.html#1,1,1364,625,1364,768,8-20-2022,11-51-46,40,depth_duration_stimuli/003423_2014-05-21_10-23-26_094959634447_rgbf002665-resize_2/003423_2014-05-21_10-23-26_094959634447_rgbf002665-resize_2-target.png,250,3.2575,4,2896,247,feet,jsons/v1_VE250_randls_59.json,1085446,1592588,36,Woman
40,432087,DepthScenes,duration_manipulation_targetAtFixation,jsons/v1_VE250_randls_59.json,http://54.235.29.9/FacialAge/BNav_EC2/DepthDuration/v2_depth_duration_MTurk/v2_DepthDuration_HTML.html#1,1,1364,625,1364,768,8-20-2022,11-51-46,41,depth_duration_stimuli/002057_2014-06-24_21-00-13_260595134347_rgbf000120-resize_1/002057_2014-06-24_21-00-13_260595134347_rgbf000120-resize_1-target.png,250,2.967,4,4813,246,feet,jsons/v1_VE250_randls_59.json,1085446,1592588,36,Woman
41,432087,DepthScenes,duration_manipulation_targetAtFixation,jsons/v1_VE250_randls_59.json,http://54.235.29.9/FacialAge/BNav_EC2/DepthDuration/v2_depth_duration_MTurk/v2_DepthDuration_HTML.html#1,1,1364,625,1364,768,8-20-2022,11-51-46,42,depth_duration_stimuli/000709_2014-06-08_13-51-55_260595134347_rgbf000068-resize_3/000709_2014-06-08_13-51-55_260595134347_rgbf000068-resize_3-target.png,250,1.8030000000000002,4,3523,250,feet,jsons/v1_VE250_randls_59.json,1085446,1592588,36,Woman
42,432087,DepthScenes,duration_manipulation_targetAtFixation,jsons/v1_VE250_randls_59.json,http://54.235.29.9/FacialAge/BNav_EC2/DepthDuration/v2_depth_duration_MTurk/v2_DepthDuration_HTML.html#1,1,1364,625,1364,768,8-20-2022,11-51-46,43,depth_duration_stimuli/000469_2014-06-09_19-42-10_260595134347_rgbf000081-resize_1/000469_2014-06-09_19-42-10_260595134347_rgbf000081-resize_1-target.png,250,1.652,4,5972,251,feet,jsons/v1_VE250_randls_59.json,1085446,1592588,36,Woman
43,432087,DepthScenes,duration_manipulation_targetAtFixation,jsons/v1_VE250_randls_59.json,http://54.235.29.9/FacialAge/BNav_EC2/DepthDuration/v2_depth_duration_MTurk/v2_DepthDuration_HTML.html#1,1,1364,625,1364,768,8-20-2022,11-51-46,44,depth_duration_stimuli/000483_2014-06-09_20-41-45_260595134347_rgbf000116-resize_4/000483_2014-06-09_20-41-45_260595134347_rgbf000116-resize_4-target.png,250,1.337,4,6899,250,feet,jsons/v1_VE250_randls_59.json,1085446,1592588,36,Woman
44,432087,DepthScenes,duration_manipulation_targetAtFixation,jsons/v1_VE250_randls_59.json,http://54.235.29.9/FacialAge/BNav_EC2/DepthDuration/v2_depth_duration_MTurk/v2_DepthDuration_HTML.html#1,1,1364,625,1364,768,8-20-2022,11-51-46,45,depth_duration_stimuli/000787_2014-06-08_22-33-53_260595134347_rgbf000175-resize_1/000787_2014-06-08_22-33-53_260595134347_rgbf000175-resize-original.jpg,250,4.784,0,5491,249,feet,jsons/v1_VE250_randls_59.json,1085446,1592588,36,Woman
45,432087,DepthScenes,duration_manipulation_targetAtFixation,jsons/v1_VE250_randls_59.json,http://54.235.29.9/FacialAge/BNav_EC2/DepthDuration/v2_depth_duration_MTurk/v2_DepthDuration_HTML.html#1,1,1364,625,1364,768,8-20-2022,11-51-46,46,depth_duration_stimuli/002989_2014-06-15_12-25-03_094959634447_rgbf000150-resize_3/002989_2014-06-15_12-25-03_094959634447_rgbf000150-resize_3-target.png,250,4.1975,0,5830,251,feet,jsons/v1_VE250_randls_59.json,1085446,1592588,36,Woman
46,432087,DepthScenes,duration_manipulation_targetAtFixation,jsons/v1_VE250_randls_59.json,http://54.235.29.9/FacialAge/BNav_EC2/DepthDuration/v2_depth_duration_MTurk/v2_DepthDuration_HTML.html#1,1,1364,625,1364,768,8-20-2022,11-51-46,47,depth_duration_stimuli/000866_2014-06-09_20-45-42_260595134347_rgbf000139-resize_1/000866_2014-06-09_20-45-42_260595134347_rgbf000139-resize_1-target.png,250,3.2155,0,8943,250,feet,jsons/v1_VE250_randls_59.json,1085446,1592588,36,Woman
47,432087,DepthScenes,duration_manipulation_targetAtFixation,jsons/v1_VE250_randls_59.json,http://54.235.29.9/FacialAge/BNav_EC2/DepthDuration/v2_depth_duration_MTurk/v2_DepthDuration_HTML.html#1,1,1364,625,1364,768,8-20-2022,11-51-46,48,depth_duration_stimuli/000906_2014-06-08_13-35-43_260595134347_rgbf000155-resize_1/000906_2014-06-08_13-35-43_260595134347_rgbf000155-resize_1-target.png,250,2.8489999999999998,3,11031,240,feet,jsons/v1_VE250_randls_59.json,1085446,1592588,36,Woman
48,432087,DepthScenes,duration_manipulation_targetAtFixation,jsons/v1_VE250_randls_59.json,http://54.235.29.9/FacialAge/BNav_EC2/DepthDuration/v2_depth_duration_MTurk/v2_DepthDuration_HTML.html#1,1,1364,625,1364,768,8-20-2022,11-51-46,49,depth_duration_stimuli/002805_2014-06-22_19-54-03_094959634447_rgbf000079-resize_1/002805_2014-06-22_19-54-03_094959634447_rgbf000079-resize_1-target.png,250,3.1439999999999997,0,5062,251,feet,jsons/v1_VE250_randls_59.json,1085446,1592588,36,Woman
49,432087,DepthScenes,duration_manipulation_targetAtFixation,jsons/v1_VE250_randls_59.json,http://54.235.29.9/FacialAge/BNav_EC2/DepthDuration/v2_depth_duration_MTurk/v2_DepthDuration_HTML.html#1,1,1364,625,1364,768,8-20-2022,11-51-46,50,depth_duration_stimuli/000506_2014-06-08_23-21-00_260595134347_rgbf000070-resize_7/000506_2014-06-08_23-21-00_260595134347_rgbf000070-resize_7-target.png,250,4.0585,3,4860,249,feet,jsons/v1_VE250_randls_59.json,1085446,1592588,36,Woman
50,432087,DepthScenes,duration_manipulation_targetAtFixation,jsons/v1_VE250_randls_59.json,http://54.235.29.9/FacialAge/BNav_EC2/DepthDuration/v2_depth_duration_MTurk/v2_DepthDuration_HTML.html#1,1,1364,625,1364,768,8-20-2022,11-51-46,51,depth_duration_stimuli/003079_2014-06-15_15-18-20_094959634447_rgbf000152-resize_8/003079_2014-06-15_15-18-20_094959634447_rgbf000152-resize_8-target.png,250,2.8775,0,3395,252,feet,jsons/v1_VE250_randls_59.json,1085446,1592588,36,Woman
51,432087,DepthScenes,duration_manipulation_targetAtFixation,jsons/v1_VE250_randls_59.json,http://54.235.29.9/FacialAge/BNav_EC2/DepthDuration/v2_depth_duration_MTurk/v2_DepthDuration_HTML.html#1,1,1364,625,1364,768,8-20-2022,11-51-46,52,depth_duration_stimuli/002509_2014-06-24_13-19-22_094959634447_rgbf000077-resize_0/002509_2014-06-24_13-19-22_094959634447_rgbf000077-resize_0-target.png,250,1.3065,3,3191,250,feet,jsons/v1_VE250_randls_59.json,1085446,1592588,36,Woman
52,432087,DepthScenes,duration_manipulation_targetAtFixation,jsons/v1_VE250_randls_59.json,http://54.235.29.9/FacialAge/BNav_EC2/DepthDuration/v2_depth_duration_MTurk/v2_DepthDuration_HTML.html#1,1,1364,625,1364,768,8-20-2022,11-51-46,53,depth_duration_stimuli/003338_2014-05-20_11-01-23_094959634447_rgbf000051-resize_6/003338_2014-05-20_11-01-23_094959634447_rgbf000051-resize_6-target.png,250,1.693,0,2853,250,feet,jsons/v1_VE250_randls_59.json,1085446,1592588,36,Woman
53,432087,DepthScenes,duration_manipulation_targetAtFixation,jsons/v1_VE250_randls_59.json,http://54.235.29.9/FacialAge/BNav_EC2/DepthDuration/v2_depth_duration_MTurk/v2_DepthDuration_HTML.html#1,1,1364,625,1364,768,8-20-2022,11-51-46,54,depth_duration_stimuli/001158_2014-06-17_15-32-16_260595134347_rgbf000138-resize_2/001158_2014-06-17_15-32-16_260595134347_rgbf000138-resize_2-target.png,250,4.5315,0,5155,250,feet,jsons/v1_VE250_randls_59.json,1085446,1592588,36,Woman
54,432087,DepthScenes,duration_manipulation_targetAtFixation,jsons/v1_VE250_randls_59.json,http://54.235.29.9/FacialAge/BNav_EC2/DepthDuration/v2_depth_duration_MTurk/v2_DepthDuration_HTML.html#1,1,1364,625,1364,768,8-20-2022,11-51-46,55,depth_duration_stimuli/000556_2014-06-09_22-42-56_260595134347_rgbf000214-resize_1/000556_2014-06-09_22-42-56_260595134347_rgbf000214-resize_1-target.png,250,4.8415,0,9234,250,feet,jsons/v1_VE250_randls_59.json,1085446,1592588,36,Woman
55,432087,DepthScenes,duration_manipulation_targetAtFixation,jsons/v1_VE250_randls_59.json,http://54.235.29.9/FacialAge/BNav_EC2/DepthDuration/v2_depth_duration_MTurk/v2_DepthDuration_HTML.html#1,1,1364,625,1364,768,8-20-2022,11-51-46,56,depth_duration_stimuli/000788_2014-06-08_22-34-36_260595134347_rgbf000131-resize_1/000788_2014-06-08_22-34-36_260595134347_rgbf000131-resize_1-target.png,250,3.359,3,7629,252,feet,jsons/v1_VE250_randls_59.json,1085446,1592588,36,Woman
56,432087,DepthScenes,duration_manipulation_targetAtFixation,jsons/v1_VE250_randls_59.json,http://54.235.29.9/FacialAge/BNav_EC2/DepthDuration/v2_depth_duration_MTurk/v2_DepthDuration_HTML.html#1,1,1364,625,1364,768,8-20-2022,11-51-46,57,depth_duration_stimuli/001235_2014-06-17_16-37-36_260595134347_rgbf000084-resize_4/001235_2014-06-17_16-37-36_260595134347_rgbf000084-resize_4-target.png,250,3.6605,0,3769,249,feet,jsons/v1_VE250_randls_59.json,1085446,1592588,36,Woman
57,432087,DepthScenes,duration_manipulation_targetAtFixation,jsons/v1_VE250_randls_59.json,http://54.235.29.9/FacialAge/BNav_EC2/DepthDuration/v2_depth_duration_MTurk/v2_DepthDuration_HTML.html#1,1,1364,625,1364,768,8-20-2022,11-51-46,58,depth_duration_stimuli/002153_2014-06-25_21-27-18_260595134347_rgbf000038-resize_5/002153_2014-06-25_21-27-18_260595134347_rgbf000038-resize_5-target.png,250,2.505,3,6853,249,feet,jsons/v1_VE250_randls_59.json,1085446,1592588,36,Woman
58,432087,DepthScenes,duration_manipulation_targetAtFixation,jsons/v1_VE250_randls_59.json,http://54.235.29.9/FacialAge/BNav_EC2/DepthDuration/v2_depth_duration_MTurk/v2_DepthDuration_HTML.html#1,1,1364,625,1364,768,8-20-2022,11-51-46,59,depth_duration_stimuli/002660_2014-06-13_15-44-18_094959634447_rgbf001878-resize_2/002660_2014-06-13_15-44-18_094959634447_rgbf001878-resize_2-target.png,250,3.576,0,3379,250,feet,jsons/v1_VE250_randls_59.json,1085446,1592588,36,Woman
59,432087,DepthScenes,duration_manipulation_targetAtFixation,jsons/v1_VE250_randls_59.json,http://54.235.29.9/FacialAge/BNav_EC2/DepthDuration/v2_depth_duration_MTurk/v2_DepthDuration_HTML.html#1,1,1364,625,1364,768,8-20-2022,11-51-46,60,depth_duration_stimuli/000810_2014-06-08_17-20-01_260595134347_rgbf000105-resize_0/000810_2014-06-08_17-20-01_260595134347_rgbf000105-resize_0-target.png,250,1.4865,3,4581,249,feet,jsons/v1_VE250_randls_59.json,1085446,1592588,36,Woman
60,432087,DepthScenes,duration_manipulation_targetAtFixation,jsons/v1_VE250_randls_59.json,http://54.235.29.9/FacialAge/BNav_EC2/DepthDuration/v2_depth_duration_MTurk/v2_DepthDuration_HTML.html#1,1,1364,625,1364,768,8-20-2022,11-51-46,61,depth_duration_stimuli/001214_2014-06-17_16-13-55_260595134347_rgbf000111-resize_0/001214_2014-06-17_16-13-55_260595134347_rgbf000111-resize_0-target.png,250,2.6505,3,2983,247,feet,jsons/v1_VE250_randls_59.json,1085446,1592588,36,Woman
61,432087,DepthScenes,duration_manipulation_targetAtFixation,jsons/v1_VE250_randls_59.json,http://54.235.29.9/FacialAge/BNav_EC2/DepthDuration/v2_depth_duration_MTurk/v2_DepthDuration_HTML.html#1,1,1364,625,1364,768,8-20-2022,11-51-46,62,depth_duration_stimuli/002039_2014-06-24_20-22-38_260595134347_rgbf000084-resize_1/002039_2014-06-24_20-22-38_260595134347_rgbf000084-resize_1-target.png,250,4.408,3,5556,241,feet,jsons/v1_VE250_randls_59.json,1085446,1592588,36,Woman
62,432087,DepthScenes,duration_manipulation_targetAtFixation,jsons/v1_VE250_randls_59.json,http://54.235.29.9/FacialAge/BNav_EC2/DepthDuration/v2_depth_duration_MTurk/v2_DepthDuration_HTML.html#1,1,1364,625,1364,768,8-20-2022,11-51-46,63,depth_duration_stimuli/002103_2014-06-25_20-00-40_260595134347_rgbf000049-resize_0/002103_2014-06-25_20-00-40_260595134347_rgbf000049-resize_0-target.png,250,4.105,0,12045,250,feet,jsons/v1_VE250_randls_59.json,1085446,1592588,36,Woman
63,432087,DepthScenes,duration_manipulation_targetAtFixation,jsons/v1_VE250_randls_59.json,http://54.235.29.9/FacialAge/BNav_EC2/DepthDuration/v2_depth_duration_MTurk/v2_DepthDuration_HTML.html#1,1,1364,625,1364,768,8-20-2022,11-51-46,64,depth_duration_stimuli/003292_2014-05-14_21-53-49_094959634447_rgbf000100-resize_2/003292_2014-05-14_21-53-49_094959634447_rgbf000100-resize_2-target.png,250,3.4815,4,6856,249,feet,jsons/v1_VE250_randls_59.json,1085446,1592588,36,Woman
64,432087,DepthScenes,duration_manipulation_targetAtFixation,jsons/v1_VE250_randls_59.json,http://54.235.29.9/FacialAge/BNav_EC2/DepthDuration/v2_depth_duration_MTurk/v2_DepthDuration_HTML.html#1,1,1364,625,1364,768,8-20-2022,11-51-46,65,depth_duration_stimuli/002639_2014-06-24_14-51-37_094959634447_rgbf000074-resize_4/002639_2014-06-24_14-51-37_094959634447_rgbf000074-resize_4-target.png,250,4.0375,0,4580,252,feet,jsons/v1_VE250_randls_59.json,1085446,1592588,36,Woman
65,432087,DepthScenes,duration_manipulation_targetAtFixation,jsons/v1_VE250_randls_59.json,http://54.235.29.9/FacialAge/BNav_EC2/DepthDuration/v2_depth_duration_MTurk/v2_DepthDuration_HTML.html#1,1,1364,625,1364,768,8-20-2022,11-51-46,66,depth_duration_stimuli/001222_2014-06-17_16-24-06_260595134347_rgbf000073-resize_0/001222_2014-06-17_16-24-06_260595134347_rgbf000073-resize-original.jpg,250,1.4385,0,3923,248,feet,jsons/v1_VE250_randls_59.json,1085446,1592588,36,Woman
66,432087,DepthScenes,duration_manipulation_targetAtFixation,jsons/v1_VE250_randls_59.json,http://54.235.29.9/FacialAge/BNav_EC2/DepthDuration/v2_depth_duration_MTurk/v2_DepthDuration_HTML.html#1,1,1364,625,1364,768,8-20-2022,11-51-46,67,depth_duration_stimuli/003621_2014-05-23_18-06-08_094959634447_rgbf000101-resize_1/003621_2014-05-23_18-06-08_094959634447_rgbf000101-resize_1-target.png,250,3.9835,4,6127,249,feet,jsons/v1_VE250_randls_59.json,1085446,1592588,36,Woman
67,432087,DepthScenes,duration_manipulation_targetAtFixation,jsons/v1_VE250_randls_59.json,http://54.235.29.9/FacialAge/BNav_EC2/DepthDuration/v2_depth_duration_MTurk/v2_DepthDuration_HTML.html#1,1,1364,625,1364,768,8-20-2022,11-51-46,68,depth_duration_stimuli/001584_2014-06-20_11-07-43_260595134347_rgbf000002-resize_1/001584_2014-06-20_11-07-43_260595134347_rgbf000002-resize_1-target.png,250,3.53,3,4091,250,feet,jsons/v1_VE250_randls_59.json,1085446,1592588,36,Woman
68,432087,DepthScenes,duration_manipulation_targetAtFixation,jsons/v1_VE250_randls_59.json,http://54.235.29.9/FacialAge/BNav_EC2/DepthDuration/v2_depth_duration_MTurk/v2_DepthDuration_HTML.html#1,1,1364,625,1364,768,8-20-2022,11-51-46,69,depth_duration_stimuli/000773_2014-06-08_22-24-54_260595134347_rgbf000093-resize_1/000773_2014-06-08_22-24-54_260595134347_rgbf000093-resize_1-target.png,250,4.973,3,3919,250,feet,jsons/v1_VE250_randls_59.json,1085446,1592588,36,Woman
69,432087,DepthScenes,duration_manipulation_targetAtFixation,jsons/v1_VE250_randls_59.json,http://54.235.29.9/FacialAge/BNav_EC2/DepthDuration/v2_depth_duration_MTurk/v2_DepthDuration_HTML.html#1,1,1364,625,1364,768,8-20-2022,11-51-46,70,depth_duration_stimuli/002414_2014-06-28_20-24-58_260595134347_rgbf000067-resize_4/002414_2014-06-28_20-24-58_260595134347_rgbf000067-resize_4-target.png,250,4.363,3,2587,250,feet,jsons/v1_VE250_randls_59.json,1085446,1592588,36,Woman
70,432087,DepthScenes,duration_manipulation_targetAtFixation,jsons/v1_VE250_randls_59.json,http://54.235.29.9/FacialAge/BNav_EC2/DepthDuration/v2_depth_duration_MTurk/v2_DepthDuration_HTML.html#1,1,1364,625,1364,768,8-20-2022,11-51-46,71,depth_duration_stimuli/001806_2014-06-26_20-50-20_260595134347_rgbf000091-resize_1/001806_2014-06-26_20-50-20_260595134347_rgbf000091-resize_1-target.png,250,2.7305,3,3309,250,feet,jsons/v1_VE250_randls_59.json,1085446,1592588,36,Woman
71,432087,DepthScenes,duration_manipulation_targetAtFixation,jsons/v1_VE250_randls_59.json,http://54.235.29.9/FacialAge/BNav_EC2/DepthDuration/v2_depth_duration_MTurk/v2_DepthDuration_HTML.html#1,1,1364,625,1364,768,8-20-2022,11-51-46,72,depth_duration_stimuli/001617_2014-06-20_11-35-32_260595134347_rgbf000066-resize_1/001617_2014-06-20_11-35-32_260595134347_rgbf000066-resize_1-target.png,250,3.7910000000000004,0,2798,239,feet,jsons/v1_VE250_randls_59.json,1085446,1592588,36,Woman
72,432087,DepthScenes,duration_manipulation_targetAtFixation,jsons/v1_VE250_randls_59.json,http://54.235.29.9/FacialAge/BNav_EC2/DepthDuration/v2_depth_duration_MTurk/v2_DepthDuration_HTML.html#1,1,1364,625,1364,768,8-20-2022,11-51-46,73,depth_duration_stimuli/001056_2014-06-08_18-46-44_260595134347_rgbf000068-resize_0/001056_2014-06-08_18-46-44_260595134347_rgbf000068-resize_0-target.png,250,2.6625,4,3559,248,feet,jsons/v1_VE250_randls_59.json,1085446,1592588,36,Woman
73,432087,DepthScenes,duration_manipulation_targetAtFixation,jsons/v1_VE250_randls_59.json,http://54.235.29.9/FacialAge/BNav_EC2/DepthDuration/v2_depth_duration_MTurk/v2_DepthDuration_HTML.html#1,1,1364,625,1364,768,8-20-2022,11-51-46,74,depth_duration_stimuli/002199_2014-06-28_18-33-56_260595134347_rgbf000074-resize_0/002199_2014-06-28_18-33-56_260595134347_rgbf000074-resize_0-target.png,250,1.996,4,3743,250,feet,jsons/v1_VE250_randls_59.json,1085446,1592588,36,Woman
74,432087,DepthScenes,duration_manipulation_targetAtFixation,jsons/v1_VE250_randls_59.json,http://54.235.29.9/FacialAge/BNav_EC2/DepthDuration/v2_depth_duration_MTurk/v2_DepthDuration_HTML.html#1,1,1364,625,1364,768,8-20-2022,11-51-46,75,depth_duration_stimuli/001555_2014-06-20_17-12-10_260595134347_rgbf000065-resize_4/001555_2014-06-20_17-12-10_260595134347_rgbf000065-resize_4-target.png,250,1.633,3,3492,251,feet,jsons/v1_VE250_randls_59.json,1085446,1592588,36,Woman
75,432087,DepthScenes,duration_manipulation_targetAtFixation,jsons/v1_VE250_randls_59.json,http://54.235.29.9/FacialAge/BNav_EC2/DepthDuration/v2_depth_duration_MTurk/v2_DepthDuration_HTML.html#1,1,1364,625,1364,768,8-20-2022,11-51-46,76,depth_duration_stimuli/000103_2014-05-14_22-01-17_260595134347_rgbf000152-resize_5/000103_2014-05-14_22-01-17_260595134347_rgbf000152-resize_5-target.png,250,1.993,8,5304,257,feet,jsons/v1_VE250_randls_59.json,1085446,1592588,36,Woman
76,432087,DepthScenes,duration_manipulation_targetAtFixation,jsons/v1_VE250_randls_59.json,http://54.235.29.9/FacialAge/BNav_EC2/DepthDuration/v2_depth_duration_MTurk/v2_DepthDuration_HTML.html#1,1,1364,625,1364,768,8-20-2022,11-51-46,77,depth_duration_stimuli/000758_2014-06-08_22-05-08_260595134347_rgbf000085-resize_0/000758_2014-06-08_22-05-08_260595134347_rgbf000085-resize_0-target.png,250,3.3810000000000002,4,3309,249,feet,jsons/v1_VE250_randls_59.json,1085446,1592588,36,Woman
77,432087,DepthScenes,duration_manipulation_targetAtFixation,jsons/v1_VE250_randls_59.json,http://54.235.29.9/FacialAge/BNav_EC2/DepthDuration/v2_depth_duration_MTurk/v2_DepthDuration_HTML.html#1,1,1364,625,1364,768,8-20-2022,11-51-46,78,depth_duration_stimuli/000854_2014-06-09_19-43-13_260595134347_rgbf000066-resize_0/000854_2014-06-09_19-43-13_260595134347_rgbf000066-resize_0-target.png,250,3.068,0,6318,238,feet,jsons/v1_VE250_randls_59.json,1085446,1592588,36,Woman
78,432087,DepthScenes,duration_manipulation_targetAtFixation,jsons/v1_VE250_randls_59.json,http://54.235.29.9/FacialAge/BNav_EC2/DepthDuration/v2_depth_duration_MTurk/v2_DepthDuration_HTML.html#1,1,1364,625,1364,768,8-20-2022,11-51-46,79,depth_duration_stimuli/000692_2014-06-08_13-09-42_260595134347_rgbf000199-resize_2/000692_2014-06-08_13-09-42_260595134347_rgbf000199-resize_2-target.png,250,3.661,5,4731,247,feet,jsons/v1_VE250_randls_59.json,1085446,1592588,36,Woman
79,432087,DepthScenes,duration_manipulation_targetAtFixation,jsons/v1_VE250_randls_59.json,http://54.235.29.9/FacialAge/BNav_EC2/DepthDuration/v2_depth_duration_MTurk/v2_DepthDuration_HTML.html#1,1,1364,625,1364,768,8-20-2022,11-51-46,80,depth_duration_stimuli/001094_2014-06-15_17-36-00_260595134347_rgbf000205-resize_0/001094_2014-06-15_17-36-00_260595134347_rgbf000205-resize_0-target.png,250,4.2175,0,3627,250,feet,jsons/v1_VE250_randls_59.json,1085446,1592588,36,Woman
80,432087,DepthScenes,duration_manipulation_targetAtFixation,jsons/v1_VE250_randls_59.json,http://54.235.29.9/FacialAge/BNav_EC2/DepthDuration/v2_depth_duration_MTurk/v2_DepthDuration_HTML.html#1,1,1364,625,1364,768,8-20-2022,11-51-46,81,depth_duration_stimuli/002043_2014-06-24_20-29-38_260595134347_rgbf000039-resize_4/002043_2014-06-24_20-29-38_260595134347_rgbf000039-resize_4-target.png,250,2.8435,4,3781,234,feet,jsons/v1_VE250_randls_59.json,1085446,1592588,36,Woman
81,432087,DepthScenes,duration_manipulation_targetAtFixation,jsons/v1_VE250_randls_59.json,http://54.235.29.9/FacialAge/BNav_EC2/DepthDuration/v2_depth_duration_MTurk/v2_DepthDuration_HTML.html#1,1,1364,625,1364,768,8-20-2022,11-51-46,82,depth_duration_stimuli/003048_2014-06-15_13-49-43_094959634447_rgbf000150-resize_1/003048_2014-06-15_13-49-43_094959634447_rgbf000150-resize_1-target.png,250,4.0035,0,3823,251,feet,jsons/v1_VE250_randls_59.json,1085446,1592588,36,Woman
82,432087,DepthScenes,duration_manipulation_targetAtFixation,jsons/v1_VE250_randls_59.json,http://54.235.29.9/FacialAge/BNav_EC2/DepthDuration/v2_depth_duration_MTurk/v2_DepthDuration_HTML.html#1,1,1364,625,1364,768,8-20-2022,11-51-46,83,depth_duration_stimuli/002964_2014-06-08_17-46-11_094959634447_rgbf000091-resize_4/002964_2014-06-08_17-46-11_094959634447_rgbf000091-resize_4-target.png,250,1.6909999999999998,4,4935,255,feet,jsons/v1_VE250_randls_59.json,1085446,1592588,36,Woman
83,432087,DepthScenes,duration_manipulation_targetAtFixation,jsons/v1_VE250_randls_59.json,http://54.235.29.9/FacialAge/BNav_EC2/DepthDuration/v2_depth_duration_MTurk/v2_DepthDuration_HTML.html#1,1,1364,625,1364,768,8-20-2022,11-51-46,84,depth_duration_stimuli/002136_2014-06-25_21-18-03_260595134347_rgbf000109-resize_3/002136_2014-06-25_21-18-03_260595134347_rgbf000109-resize_3-target.png,250,1.9569999999999999,0,7948,249,feet,jsons/v1_VE250_randls_59.json,1085446,1592588,36,Woman
84,432087,DepthScenes,duration_manipulation_targetAtFixation,jsons/v1_VE250_randls_59.json,http://54.235.29.9/FacialAge/BNav_EC2/DepthDuration/v2_depth_duration_MTurk/v2_DepthDuration_HTML.html#1,1,1364,625,1364,768,8-20-2022,11-51-46,85,depth_duration_stimuli/000447_2014-06-08_16-15-46_260595134347_rgbf000130-resize_1/000447_2014-06-08_16-15-46_260595134347_rgbf000130-resize_1-target.png,250,4.479,4,6171,249,feet,jsons/v1_VE250_randls_59.json,1085446,1592588,36,Woman
85,432087,DepthScenes,duration_manipulation_targetAtFixation,jsons/v1_VE250_randls_59.json,http://54.235.29.9/FacialAge/BNav_EC2/DepthDuration/v2_depth_duration_MTurk/v2_DepthDuration_HTML.html#1,1,1364,625,1364,768,8-20-2022,11-51-46,86,depth_duration_stimuli/001447_2014-06-19_17-00-32_260595134347_rgbf000082-resize_5/001447_2014-06-19_17-00-32_260595134347_rgbf000082-resize_5-target.png,250,4.13775,0,3273,239,feet,jsons/v1_VE250_randls_59.json,1085446,1592588,36,Woman
86,432087,DepthScenes,duration_manipulation_targetAtFixation,jsons/v1_VE250_randls_59.json,http://54.235.29.9/FacialAge/BNav_EC2/DepthDuration/v2_depth_duration_MTurk/v2_DepthDuration_HTML.html#1,1,1364,625,1364,768,8-20-2022,11-51-46,87,depth_duration_stimuli/001059_2014-06-08_21-53-27_260595134347_rgbf000061-resize_4/001059_2014-06-08_21-53-27_260595134347_rgbf000061-resize_4-target.png,250,2.4185,4,3859,247,feet,jsons/v1_VE250_randls_59.json,1085446,1592588,36,Woman
87,432087,DepthScenes,duration_manipulation_targetAtFixation,jsons/v1_VE250_randls_59.json,http://54.235.29.9/FacialAge/BNav_EC2/DepthDuration/v2_depth_duration_MTurk/v2_DepthDuration_HTML.html#1,1,1364,625,1364,768,8-20-2022,11-51-46,88,depth_duration_stimuli/001032_2014-06-08_13-23-17_260595134347_rgbf000021-resize_3/001032_2014-06-08_13-23-17_260595134347_rgbf000021-resize_3-target.png,250,3.2725,0,4321,251,feet,jsons/v1_VE250_randls_59.json,1085446,1592588,36,Woman
88,432087,DepthScenes,duration_manipulation_targetAtFixation,jsons/v1_VE250_randls_59.json,http://54.235.29.9/FacialAge/BNav_EC2/DepthDuration/v2_depth_duration_MTurk/v2_DepthDuration_HTML.html#1,1,1364,625,1364,768,8-20-2022,11-51-46,89,depth_duration_stimuli/001092_2014-06-15_17-34-58_260595134347_rgbf000171-resize_3/001092_2014-06-15_17-34-58_260595134347_rgbf000171-resize_3-target.png,250,2.6935,4,10131,252,feet,jsons/v1_VE250_randls_59.json,1085446,1592588,36,Woman
89,432087,DepthScenes,duration_manipulation_targetAtFixation,jsons/v1_VE250_randls_59.json,http://54.235.29.9/FacialAge/BNav_EC2/DepthDuration/v2_depth_duration_MTurk/v2_DepthDuration_HTML.html#1,1,1364,625,1364,768,8-20-2022,11-51-46,90,depth_duration_stimuli/002545_2014-06-24_13-38-53_094959634447_rgbf000080-resize_4/002545_2014-06-24_13-38-53_094959634447_rgbf000080-resize_4-target.png,250,1.9205,5,3025,251,feet,jsons/v1_VE250_randls_59.json,1085446,1592588,36,Woman
90,432087,DepthScenes,duration_manipulation_targetAtFixation,jsons/v1_VE250_randls_59.json,http://54.235.29.9/FacialAge/BNav_EC2/DepthDuration/v2_depth_duration_MTurk/v2_DepthDuration_HTML.html#1,1,1364,625,1364,768,8-20-2022,11-51-46,91,depth_duration_stimuli/002763_2014-06-22_19-13-10_094959634447_rgbf000075-resize_4/002763_2014-06-22_19-13-10_094959634447_rgbf000075-resize_4-target.png,250,1.68375,5,4840,249,feet,jsons/v1_VE250_randls_59.json,1085446,1592588,36,Woman
91,432087,DepthScenes,duration_manipulation_targetAtFixation,jsons/v1_VE250_randls_59.json,http://54.235.29.9/FacialAge/BNav_EC2/DepthDuration/v2_depth_duration_MTurk/v2_DepthDuration_HTML.html#1,1,1364,625,1364,768,8-20-2022,11-51-46,92,depth_duration_stimuli/002209_2014-06-28_18-36-10_260595134347_rgbf000051-resize_1/002209_2014-06-28_18-36-10_260595134347_rgbf000051-resize_1-target.png,250,2.057,0,6207,239,feet,jsons/v1_VE250_randls_59.json,1085446,1592588,36,Woman
92,432087,DepthScenes,duration_manipulation_targetAtFixation,jsons/v1_VE250_randls_59.json,http://54.235.29.9/FacialAge/BNav_EC2/DepthDuration/v2_depth_duration_MTurk/v2_DepthDuration_HTML.html#1,1,1364,625,1364,768,8-20-2022,11-51-46,93,depth_duration_stimuli/000414_2014-06-04_19-49-13_260595134347_rgbf000044-resize_0/000414_2014-06-04_19-49-13_260595134347_rgbf000044-resize_0-target.png,250,4.329,0,6410,250,feet,jsons/v1_VE250_randls_59.json,1085446,1592588,36,Woman
93,432087,DepthScenes,duration_manipulation_targetAtFixation,jsons/v1_VE250_randls_59.json,http://54.235.29.9/FacialAge/BNav_EC2/DepthDuration/v2_depth_duration_MTurk/v2_DepthDuration_HTML.html#1,1,1364,625,1364,768,8-20-2022,11-51-46,94,depth_duration_stimuli/003129_2014-05-12_10-48-10_094959634447_rgbf000100-resize_0/003129_2014-05-12_10-48-10_094959634447_rgbf000100-resize_0-target.png,250,4.9305,0,4475,246,feet,jsons/v1_VE250_randls_59.json,1085446,1592588,36,Woman
94,432087,DepthScenes,duration_manipulation_targetAtFixation,jsons/v1_VE250_randls_59.json,http://54.235.29.9/FacialAge/BNav_EC2/DepthDuration/v2_depth_duration_MTurk/v2_DepthDuration_HTML.html#1,1,1364,625,1364,768,8-20-2022,11-51-46,95,depth_duration_stimuli/000929_2014-06-09_16-33-19_260595134347_rgbf000139-resize_0/000929_2014-06-09_16-33-19_260595134347_rgbf000139-resize_0-target.png,250,2.8680000000000003,4,5251,247,feet,jsons/v1_VE250_randls_59.json,1085446,1592588,36,Woman
95,432087,DepthScenes,duration_manipulation_targetAtFixation,jsons/v1_VE250_randls_59.json,http://54.235.29.9/FacialAge/BNav_EC2/DepthDuration/v2_depth_duration_MTurk/v2_DepthDuration_HTML.html#1,1,1364,625,1364,768,8-20-2022,11-51-46,96,depth_duration_stimuli/000457_2014-06-08_16-52-43_260595134347_rgbf000199-resize_1/000457_2014-06-08_16-52-43_260595134347_rgbf000199-resize_1-target.png,250,3.6489999999999996,4,3814,250,feet,jsons/v1_VE250_randls_59.json,1085446,1592588,36,Woman
96,432087,DepthScenes,duration_manipulation_targetAtFixation,jsons/v1_VE250_randls_59.json,http://54.235.29.9/FacialAge/BNav_EC2/DepthDuration/v2_depth_duration_MTurk/v2_DepthDuration_HTML.html#1,1,1364,625,1364,768,8-20-2022,11-51-46,97,depth_duration_stimuli/001133_2014-06-17_14-49-16_260595134347_rgbf000100-resize_0/001133_2014-06-17_14-49-16_260595134347_rgbf000100-resize_0-target.png,250,4.2115,5,3453,250,feet,jsons/v1_VE250_randls_59.json,1085446,1592588,36,Woman
97,432087,DepthScenes,duration_manipulation_targetAtFixation,jsons/v1_VE250_randls_59.json,http://54.235.29.9/FacialAge/BNav_EC2/DepthDuration/v2_depth_duration_MTurk/v2_DepthDuration_HTML.html#1,1,1364,625,1364,768,8-20-2022,11-51-46,98,depth_duration_stimuli/001132_2014-06-17_14-48-54_260595134347_rgbf000100-resize_2/001132_2014-06-17_14-48-54_260595134347_rgbf000100-resize_2-target.png,250,3.753,0,3502,250,feet,jsons/v1_VE250_randls_59.json,1085446,1592588,36,Woman
98,432087,DepthScenes,duration_manipulation_targetAtFixation,jsons/v1_VE250_randls_59.json,http://54.235.29.9/FacialAge/BNav_EC2/DepthDuration/v2_depth_duration_MTurk/v2_DepthDuration_HTML.html#1,1,1364,625,1364,768,8-20-2022,11-51-46,99,depth_duration_stimuli/001540_2014-06-20_17-01-05_260595134347_rgbf000086-resize_2/001540_2014-06-20_17-01-05_260595134347_rgbf000086-resize-original.jpg,250,1.459,0,3432,249,feet,jsons/v1_VE250_randls_59.json,1085446,1592588,36,Woman
99,432087,DepthScenes,duration_manipulation_targetAtFixation,jsons/v1_VE250_randls_59.json,http://54.235.29.9/FacialAge/BNav_EC2/DepthDuration/v2_depth_duration_MTurk/v2_DepthDuration_HTML.html#1,1,1364,625,1364,768,8-20-2022,11-51-46,100,depth_duration_stimuli/002570_2014-06-24_13-59-54_094959634447_rgbf000059-resize_0/002570_2014-06-24_13-59-54_094959634447_rgbf000059-resize_0-target.png,250,4.037,4,3435,251,feet,jsons/v1_VE250_randls_59.json,1085446,1592588,36,Woman
100,432087,DepthScenes,duration_manipulation_targetAtFixation,jsons/v1_VE250_randls_59.json,http://54.235.29.9/FacialAge/BNav_EC2/DepthDuration/v2_depth_duration_MTurk/v2_DepthDuration_HTML.html#1,1,1364,625,1364,768,8-20-2022,11-51-46,101,depth_duration_stimuli/002467_2014-06-28_20-38-07_260595134347_rgbf000026-resize_2/002467_2014-06-28_20-38-07_260595134347_rgbf000026-resize_2-target.png,250,4.742,0,5626,249,feet,jsons/v1_VE250_randls_59.json,1085446,1592588,36,Woman
101,432087,DepthScenes,duration_manipulation_targetAtFixation,jsons/v1_VE250_randls_59.json,http://54.235.29.9/FacialAge/BNav_EC2/DepthDuration/v2_depth_duration_MTurk/v2_DepthDuration_HTML.html#1,1,1364,625,1364,768,8-20-2022,11-51-46,102,depth_duration_stimuli/001011_2014-06-08_23-18-54_260595134347_rgbf000044-resize_4/001011_2014-06-08_23-18-54_260595134347_rgbf000044-resize_4-target.png,250,2.4730000000000003,6,6150,236,feet,jsons/v1_VE250_randls_59.json,1085446,1592588,36,Woman
102,432087,DepthScenes,duration_manipulation_targetAtFixation,jsons/v1_VE250_randls_59.json,http://54.235.29.9/FacialAge/BNav_EC2/DepthDuration/v2_depth_duration_MTurk/v2_DepthDuration_HTML.html#1,1,1364,625,1364,768,8-20-2022,11-51-46,103,depth_duration_stimuli/002875_2014-06-01_15-19-00_094959634447_rgbf000151-resize_1/002875_2014-06-01_15-19-00_094959634447_rgbf000151-resize_1-target.png,250,1.9675,0,3273,250,feet,jsons/v1_VE250_randls_59.json,1085446,1592588,36,Woman
103,432087,DepthScenes,duration_manipulation_targetAtFixation,jsons/v1_VE250_randls_59.json,http://54.235.29.9/FacialAge/BNav_EC2/DepthDuration/v2_depth_duration_MTurk/v2_DepthDuration_HTML.html#1,1,1364,625,1364,768,8-20-2022,11-51-46,104,depth_duration_stimuli/002279_2014-06-28_18-55-32_260595134347_rgbf000040-resize_5/002279_2014-06-28_18-55-32_260595134347_rgbf000040-resize_5-target.png,250,1.5043333333333,3,3404,252,feet,jsons/v1_VE250_randls_59.json,1085446,1592588,36,Woman
104,432087,DepthScenes,duration_manipulation_targetAtFixation,jsons/v1_VE250_randls_59.json,http://54.235.29.9/FacialAge/BNav_EC2/DepthDuration/v2_depth_duration_MTurk/v2_DepthDuration_HTML.html#1,1,1364,625,1364,768,8-20-2022,11-51-46,105,depth_duration_stimuli/000635_2014-06-08_16-38-42_260595134347_rgbf000106-resize_1/000635_2014-06-08_16-38-42_260595134347_rgbf000106-resize_1-target.png,250,2.074,0,18782,249,feet,jsons/v1_VE250_randls_59.json,1085446,1592588,36,Woman
105,432087,DepthScenes,duration_manipulation_targetAtFixation,jsons/v1_VE250_randls_59.json,http://54.235.29.9/FacialAge/BNav_EC2/DepthDuration/v2_depth_duration_MTurk/v2_DepthDuration_HTML.html#1,1,1364,625,1364,768,8-20-2022,11-51-46,106,depth_duration_stimuli/002630_2014-06-24_14-47-50_094959634447_rgbf000055-resize_1/002630_2014-06-24_14-47-50_094959634447_rgbf000055-resize_1-target.png,250,3.0095,4,3489,243,feet,jsons/v1_VE250_randls_59.json,1085446,1592588,36,Woman
106,432087,DepthScenes,duration_manipulation_targetAtFixation,jsons/v1_VE250_randls_59.json,http://54.235.29.9/FacialAge/BNav_EC2/DepthDuration/v2_depth_duration_MTurk/v2_DepthDuration_HTML.html#1,1,1364,625,1364,768,8-20-2022,11-51-46,107,depth_duration_stimuli/002758_2014-06-22_19-11-20_094959634447_rgbf000128-resize_1/002758_2014-06-22_19-11-20_094959634447_rgbf000128-resize_1-target.png,250,2.555,0,4571,251,feet,jsons/v1_VE250_randls_59.json,1085446,1592588,36,Woman
107,432087,DepthScenes,duration_manipulation_targetAtFixation,jsons/v1_VE250_randls_59.json,http://54.235.29.9/FacialAge/BNav_EC2/DepthDuration/v2_depth_duration_MTurk/v2_DepthDuration_HTML.html#1,1,1364,625,1364,768,8-20-2022,11-51-46,108,depth_duration_stimuli/000642_2014-06-08_16-59-25_260595134347_rgbf000098-resize_2/000642_2014-06-08_16-59-25_260595134347_rgbf000098-resize_2-target.png,250,2.8815,4,4578,249,feet,jsons/v1_VE250_randls_59.json,1085446,1592588,36,Woman
108,432087,DepthScenes,duration_manipulation_targetAtFixation,jsons/v1_VE250_randls_59.json,http://54.235.29.9/FacialAge/BNav_EC2/DepthDuration/v2_depth_duration_MTurk/v2_DepthDuration_HTML.html#1,1,1364,625,1364,768,8-20-2022,11-51-46,109,depth_duration_stimuli/002425_2014-06-28_20-27-29_260595134347_rgbf000031-resize_8/002425_2014-06-28_20-27-29_260595134347_rgbf000031-resize_8-target.png,250,3.8960000000000004,0,4979,248,feet,jsons/v1_VE250_randls_59.json,1085446,1592588,36,Woman
109,432087,DepthScenes,duration_manipulation_targetAtFixation,jsons/v1_VE250_randls_59.json,http://54.235.29.9/FacialAge/BNav_EC2/DepthDuration/v2_depth_duration_MTurk/v2_DepthDuration_HTML.html#1,1,1364,625,1364,768,8-20-2022,11-51-46,110,depth_duration_stimuli/002118_2014-06-25_20-32-08_260595134347_rgbf000078-resize_1/002118_2014-06-25_20-32-08_260595134347_rgbf000078-resize_1-target.png,250,2.6460000000000004,4,7610,245,feet,jsons/v1_VE250_randls_59.json,1085446,1592588,36,Woman
110,432087,DepthScenes,duration_manipulation_targetAtFixation,jsons/v1_VE250_randls_59.json,http://54.235.29.9/FacialAge/BNav_EC2/DepthDuration/v2_depth_duration_MTurk/v2_DepthDuration_HTML.html#1,1,1364,625,1364,768,8-20-2022,11-51-46,111,depth_duration_stimuli/001516_2014-06-20_16-25-09_260595134347_rgbf000076-resize_2/001516_2014-06-20_16-25-09_260595134347_rgbf000076-resize_2-target.png,250,1.7445,4,7977,248,feet,jsons/v1_VE250_randls_59.json,1085446,1592588,36,Woman
111,432087,DepthScenes,duration_manipulation_targetAtFixation,jsons/v1_VE250_randls_59.json,http://54.235.29.9/FacialAge/BNav_EC2/DepthDuration/v2_depth_duration_MTurk/v2_DepthDuration_HTML.html#1,1,1364,625,1364,768,8-20-2022,11-51-46,112,depth_duration_stimuli/003492_2014-05-21_15-50-55_094959634447_rgbf000828-resize_1/003492_2014-05-21_15-50-55_094959634447_rgbf000828-resize_1-target.png,250,4.06875,4,8065,252,feet,jsons/v1_VE250_randls_59.json,1085446,1592588,36,Woman
112,432087,DepthScenes,duration_manipulation_targetAtFixation,jsons/v1_VE250_randls_59.json,http://54.235.29.9/FacialAge/BNav_EC2/DepthDuration/v2_depth_duration_MTurk/v2_DepthDuration_HTML.html#1,1,1364,625,1364,768,8-20-2022,11-51-46,113,depth_duration_stimuli/002568_2014-06-24_13-59-21_094959634447_rgbf000062-resize_4/002568_2014-06-24_13-59-21_094959634447_rgbf000062-resize_4-target.png,250,3.015,4,4084,252,feet,jsons/v1_VE250_randls_59.json,1085446,1592588,36,Woman
113,432087,DepthScenes,duration_manipulation_targetAtFixation,jsons/v1_VE250_randls_59.json,http://54.235.29.9/FacialAge/BNav_EC2/DepthDuration/v2_depth_duration_MTurk/v2_DepthDuration_HTML.html#1,1,1364,625,1364,768,8-20-2022,11-51-46,114,depth_duration_stimuli/001175_2014-06-17_15-45-55_260595134347_rgbf000129-resize_4/001175_2014-06-17_15-45-55_260595134347_rgbf000129-resize_4-target.png,250,4.255,4,13303,236,feet,jsons/v1_VE250_randls_59.json,1085446,1592588,36,Woman
114,432087,DepthScenes,duration_manipulation_targetAtFixation,jsons/v1_VE250_randls_59.json,http://54.235.29.9/FacialAge/BNav_EC2/DepthDuration/v2_depth_duration_MTurk/v2_DepthDuration_HTML.html#1,1,1364,625,1364,768,8-20-2022,11-51-46,115,depth_duration_stimuli/003490_2014-05-21_15-50-11_094959634447_rgbf000101-resize_3/003490_2014-05-21_15-50-11_094959634447_rgbf000101-resize_3-target.png,250,3.6445,4,6968,252,feet,jsons/v1_VE250_randls_59.json,1085446,1592588,36,Woman
115,432087,DepthScenes,duration_manipulation_targetAtFixation,jsons/v1_VE250_randls_59.json,http://54.235.29.9/FacialAge/BNav_EC2/DepthDuration/v2_depth_duration_MTurk/v2_DepthDuration_HTML.html#1,1,1364,625,1364,768,8-20-2022,11-51-46,116,depth_duration_stimuli/001170_2014-06-17_15-43-44_260595134347_rgbf000096-resize_6/001170_2014-06-17_15-43-44_260595134347_rgbf000096-resize-original.jpg,250,1.1909999999999998,0,4619,253,feet,jsons/v1_VE250_randls_59.json,1085446,1592588,36,Woman
116,432087,DepthScenes,duration_manipulation_targetAtFixation,jsons/v1_VE250_randls_59.json,http://54.235.29.9/FacialAge/BNav_EC2/DepthDuration/v2_depth_duration_MTurk/v2_DepthDuration_HTML.html#1,1,1364,625,1364,768,8-20-2022,11-51-46,117,depth_duration_stimuli/000470_2014-06-09_19-42-40_260595134347_rgbf000094-resize_1/000470_2014-06-09_19-42-40_260595134347_rgbf000094-resize_1-target.png,250,1.831,3,5156,253,feet,jsons/v1_VE250_randls_59.json,1085446,1592588,36,Woman
117,432087,DepthScenes,duration_manipulation_targetAtFixation,jsons/v1_VE250_randls_59.json,http://54.235.29.9/FacialAge/BNav_EC2/DepthDuration/v2_depth_duration_MTurk/v2_DepthDuration_HTML.html#1,1,1364,625,1364,768,8-20-2022,11-51-46,118,depth_duration_stimuli/000109_2014-05-14_23-41-52_260595134347_rgbf000035-resize_9/000109_2014-05-14_23-41-52_260595134347_rgbf000035-resize_9-target.png,250,1.3545,3,7042,250,feet,jsons/v1_VE250_randls_59.json,1085446,1592588,36,Woman
118,432087,DepthScenes,duration_manipulation_targetAtFixation,jsons/v1_VE250_randls_59.json,http://54.235.29.9/FacialAge/BNav_EC2/DepthDuration/v2_depth_duration_MTurk/v2_DepthDuration_HTML.html#1,1,1364,625,1364,768,8-20-2022,11-51-46,119,depth_duration_stimuli/001029_2014-06-08_13-17-57_260595134347_rgbf000065-resize_1/001029_2014-06-08_13-17-57_260595134347_rgbf000065-resize_1-target.png,250,3.0835,4,4836,249,feet,jsons/v1_VE250_randls_59.json,1085446,1592588,36,Woman
119,432087,DepthScenes,duration_manipulation_targetAtFixation,jsons/v1_VE250_randls_59.json,http://54.235.29.9/FacialAge/BNav_EC2/DepthDuration/v2_depth_duration_MTurk/v2_DepthDuration_HTML.html#1,1,1364,625,1364,768,8-20-2022,11-51-46,120,depth_duration_stimuli/000677_2014-06-08_23-10-32_260595134347_rgbf000158-resize_6/000677_2014-06-08_23-10-32_260595134347_rgbf000158-resize_6-target.png,250,3.556,4,6501,247,feet,jsons/v1_VE250_randls_59.json,1085446,1592588,36,Woman
120,432087,DepthScenes,duration_manipulation_targetAtFixation,jsons/v1_VE250_randls_59.json,http://54.235.29.9/FacialAge/BNav_EC2/DepthDuration/v2_depth_duration_MTurk/v2_DepthDuration_HTML.html#1,1,1364,625,1364,768,8-20-2022,11-51-46,121,depth_duration_stimuli/000522_2014-06-08_13-35-06_260595134347_rgbf000244-resize_1/000522_2014-06-08_13-35-06_260595134347_rgbf000244-resize_1-target.png,250,2.3715,3,4006,250,feet,jsons/v1_VE250_randls_59.json,1085446,1592588,36,Woman
121,432087,DepthScenes,duration_manipulation_targetAtFixation,jsons/v1_VE250_randls_59.json,http://54.235.29.9/FacialAge/BNav_EC2/DepthDuration/v2_depth_duration_MTurk/v2_DepthDuration_HTML.html#1,1,1364,625,1364,768,8-20-2022,11-51-46,122,depth_duration_stimuli/002949_2014-06-26_15-57-42_094959634447_rgbf000079-resize_1/002949_2014-06-26_15-57-42_094959634447_rgbf000079-resize_1-target.png,250,1.8915,3,3708,249,feet,jsons/v1_VE250_randls_59.json,1085446,1592588,36,Woman
122,432087,DepthScenes,duration_manipulation_targetAtFixation,jsons/v1_VE250_randls_59.json,http://54.235.29.9/FacialAge/BNav_EC2/DepthDuration/v2_depth_duration_MTurk/v2_DepthDuration_HTML.html#1,1,1364,625,1364,768,8-20-2022,11-51-46,123,depth_duration_stimuli/000917_2014-06-09_22-45-29_260595134347_rgbf000149-resize_3/000917_2014-06-09_22-45-29_260595134347_rgbf000149-resize_3-target.png,250,4.1865,3,4062,249,feet,jsons/v1_VE250_randls_59.json,1085446,1592588,36,Woman
123,432087,DepthScenes,duration_manipulation_targetAtFixation,jsons/v1_VE250_randls_59.json,http://54.235.29.9/FacialAge/BNav_EC2/DepthDuration/v2_depth_duration_MTurk/v2_DepthDuration_HTML.html#1,1,1364,625,1364,768,8-20-2022,11-51-46,124,depth_duration_stimuli/002323_2014-06-28_20-01-54_260595134347_rgbf000051-resize_4/002323_2014-06-28_20-01-54_260595134347_rgbf000051-resize_4-target.png,250,3.7310000000000003,4,10547,251,feet,jsons/v1_VE250_randls_59.json,1085446,1592588,36,Woman
124,432087,DepthScenes,duration_manipulation_targetAtFixation,jsons/v1_VE250_randls_59.json,http://54.235.29.9/FacialAge/BNav_EC2/DepthDuration/v2_depth_duration_MTurk/v2_DepthDuration_HTML.html#1,1,1364,625,1364,768,8-20-2022,11-51-46,125,depth_duration_stimuli/000486_2014-06-09_20-47-20_260595134347_rgbf000143-resize_2/000486_2014-06-09_20-47-20_260595134347_rgbf000143-resize_2-target.png,250,4.8325,4,8177,243,feet,jsons/v1_VE250_randls_59.json,1085446,1592588,36,Woman
125,432087,DepthScenes,duration_manipulation_targetAtFixation,jsons/v1_VE250_randls_59.json,http://54.235.29.9/FacialAge/BNav_EC2/DepthDuration/v2_depth_duration_MTurk/v2_DepthDuration_HTML.html#1,1,1364,625,1364,768,8-20-2022,11-51-46,126,depth_duration_stimuli/003083_2014-06-15_15-21-03_094959634447_rgbf000063-resize_1/003083_2014-06-15_15-21-03_094959634447_rgbf000063-resize_1-target.png,250,4.1405,0,4668,248,feet,jsons/v1_VE250_randls_59.json,1085446,1592588,36,Woman
126,432087,DepthScenes,duration_manipulation_targetAtFixation,jsons/v1_VE250_randls_59.json,http://54.235.29.9/FacialAge/BNav_EC2/DepthDuration/v2_depth_duration_MTurk/v2_DepthDuration_HTML.html#1,1,1364,625,1364,768,8-20-2022,11-51-46,127,depth_duration_stimuli/001810_2014-06-26_20-51-35_260595134347_rgbf000040-resize_3/001810_2014-06-26_20-51-35_260595134347_rgbf000040-resize_3-target.png,250,2.2525,4,4222,250,feet,jsons/v1_VE250_randls_59.json,1085446,1592588,36,Woman
127,432087,DepthScenes,duration_manipulation_targetAtFixation,jsons/v1_VE250_randls_59.json,http://54.235.29.9/FacialAge/BNav_EC2/DepthDuration/v2_depth_duration_MTurk/v2_DepthDuration_HTML.html#1,1,1364,625,1364,768,8-20-2022,11-51-46,128,depth_duration_stimuli/003010_2014-06-15_12-54-35_094959634447_rgbf000112-resize_0/003010_2014-06-15_12-54-35_094959634447_rgbf000112-resize_0-target.png,250,3.1185,0,3104,250,feet,jsons/v1_VE250_randls_59.json,1085446,1592588,36,Woman
128,432087,DepthScenes,duration_manipulation_targetAtFixation,jsons/v1_VE250_randls_59.json,http://54.235.29.9/FacialAge/BNav_EC2/DepthDuration/v2_depth_duration_MTurk/v2_DepthDuration_HTML.html#1,1,1364,625,1364,768,8-20-2022,11-51-46,129,depth_duration_stimuli/002549_2014-06-24_13-41-39_094959634447_rgbf000022-resize_3/002549_2014-06-24_13-41-39_094959634447_rgbf000022-resize_3-target.png,250,1.476,4,3433,248,feet,jsons/v1_VE250_randls_59.json,1085446,1592588,36,Woman
129,432087,DepthScenes,duration_manipulation_targetAtFixation,jsons/v1_VE250_randls_59.json,http://54.235.29.9/FacialAge/BNav_EC2/DepthDuration/v2_depth_duration_MTurk/v2_DepthDuration_HTML.html#1,1,1364,625,1364,768,8-20-2022,11-51-46,130,depth_duration_stimuli/002750_2014-06-22_19-08-03_094959634447_rgbf000094-resize_4/002750_2014-06-22_19-08-03_094959634447_rgbf000094-resize_4-target.png,250,2.354,3,4304,250,feet,jsons/v1_VE250_randls_59.json,1085446,1592588,36,Woman
130,432087,DepthScenes,duration_manipulation_targetAtFixation,jsons/v1_VE250_randls_59.json,http://54.235.29.9/FacialAge/BNav_EC2/DepthDuration/v2_depth_duration_MTurk/v2_DepthDuration_HTML.html#1,1,1364,625,1364,768,8-20-2022,11-51-46,131,depth_duration_stimuli/002784_2014-06-22_19-26-30_094959634447_rgbf000083-resize_3/002784_2014-06-22_19-26-30_094959634447_rgbf000083-resize_3-target.png,250,1.8046666666667,4,6552,247,feet,jsons/v1_VE250_randls_59.json,1085446,1592588,36,Woman
131,432087,DepthScenes,duration_manipulation_targetAtFixation,jsons/v1_VE250_randls_59.json,http://54.235.29.9/FacialAge/BNav_EC2/DepthDuration/v2_depth_duration_MTurk/v2_DepthDuration_HTML.html#1,1,1364,625,1364,768,8-20-2022,11-51-46,132,depth_duration_stimuli/001100_2014-06-15_17-46-26_260595134347_rgbf000225-resize_2/001100_2014-06-15_17-46-26_260595134347_rgbf000225-resize_2-target.png,250,2.24,3,3490,249,feet,jsons/v1_VE250_randls_59.json,1085446,1592588,36,Woman
132,432087,DepthScenes,duration_manipulation_targetAtFixation,jsons/v1_VE250_randls_59.json,http://54.235.29.9/FacialAge/BNav_EC2/DepthDuration/v2_depth_duration_MTurk/v2_DepthDuration_HTML.html#1,1,1364,625,1364,768,8-20-2022,11-51-46,133,depth_duration_stimuli/002725_2014-06-22_11-47-51_094959634447_rgbf000070-resize_1/002725_2014-06-22_11-47-51_094959634447_rgbf000070-resize_1-target.png,250,2.195,4,6868,251,feet,jsons/v1_VE250_randls_59.json,1085446,1592588,36,Woman
133,432087,DepthScenes,duration_manipulation_targetAtFixation,jsons/v1_VE250_randls_59.json,http://54.235.29.9/FacialAge/BNav_EC2/DepthDuration/v2_depth_duration_MTurk/v2_DepthDuration_HTML.html#1,1,1364,625,1364,768,8-20-2022,11-51-46,134,depth_duration_stimuli/002344_2014-06-28_20-06-29_260595134347_rgbf000030-resize_1/002344_2014-06-28_20-06-29_260595134347_rgbf000030-resize_1-target.png,250,1.5795,3,3336,250,feet,jsons/v1_VE250_randls_59.json,1085446,1592588,36,Woman
134,432087,DepthScenes,duration_manipulation_targetAtFixation,jsons/v1_VE250_randls_59.json,http://54.235.29.9/FacialAge/BNav_EC2/DepthDuration/v2_depth_duration_MTurk/v2_DepthDuration_HTML.html#1,1,1364,625,1364,768,8-20-2022,11-51-46,135,depth_duration_stimuli/002072_2014-06-24_21-48-06_260595134347_rgbf000115-resize_0/002072_2014-06-24_21-48-06_260595134347_rgbf000115-resize-original.jpg,250,4.702,0,6658,250,feet,jsons/v1_VE250_randls_59.json,1085446,1592588,36,Woman
135,432087,DepthScenes,duration_manipulation_targetAtFixation,jsons/v1_VE250_randls_59.json,http://54.235.29.9/FacialAge/BNav_EC2/DepthDuration/v2_depth_duration_MTurk/v2_DepthDuration_HTML.html#1,1,1364,625,1364,768,8-20-2022,11-51-46,136,depth_duration_stimuli/001570_2014-06-20_17-21-09_260595134347_rgbf000135-resize_4/001570_2014-06-20_17-21-09_260595134347_rgbf000135-resize_4-target.png,250,4.467,3,6267,247,feet,jsons/v1_VE250_randls_59.json,1085446,1592588,36,Woman
136,432087,DepthScenes,duration_manipulation_targetAtFixation,jsons/v1_VE250_randls_59.json,http://54.235.29.9/FacialAge/BNav_EC2/DepthDuration/v2_depth_duration_MTurk/v2_DepthDuration_HTML.html#1,1,1364,625,1364,768,8-20-2022,11-51-46,137,depth_duration_stimuli/001392_2014-06-19_16-07-59_260595134347_rgbf000046-resize_1/001392_2014-06-19_16-07-59_260595134347_rgbf000046-resize_1-target.png,250,4.135,0,6819,244,feet,jsons/v1_VE250_randls_59.json,1085446,1592588,36,Woman
137,432087,DepthScenes,duration_manipulation_targetAtFixation,jsons/v1_VE250_randls_59.json,http://54.235.29.9/FacialAge/BNav_EC2/DepthDuration/v2_depth_duration_MTurk/v2_DepthDuration_HTML.html#1,1,1364,625,1364,768,8-20-2022,11-51-46,138,depth_duration_stimuli/002663_2014-06-13_15-50-26_094959634447_rgbf000075-resize_1/002663_2014-06-13_15-50-26_094959634447_rgbf000075-resize_1-target.png,250,4.7495,9,4574,249,feet,jsons/v1_VE250_randls_59.json,1085446,1592588,36,Woman
138,432087,DepthScenes,duration_manipulation_targetAtFixation,jsons/v1_VE250_randls_59.json,http://54.235.29.9/FacialAge/BNav_EC2/DepthDuration/v2_depth_duration_MTurk/v2_DepthDuration_HTML.html#1,1,1364,625,1364,768,8-20-2022,11-51-46,139,depth_duration_stimuli/000409_2014-06-04_19-23-33_260595134347_rgbf000067-resize_0/000409_2014-06-04_19-23-33_260595134347_rgbf000067-resize_0-target.png,250,3.7335,4,3049,250,feet,jsons/v1_VE250_randls_59.json,1085446,1592588,36,Woman
139,432087,DepthScenes,duration_manipulation_targetAtFixation,jsons/v1_VE250_randls_59.json,http://54.235.29.9/FacialAge/BNav_EC2/DepthDuration/v2_depth_duration_MTurk/v2_DepthDuration_HTML.html#1,1,1364,625,1364,768,8-20-2022,11-51-46,140,depth_duration_stimuli/000009_2014-05-26_14-32-05_260595134347_rgbf000034-resize_3/000009_2014-05-26_14-32-05_260595134347_rgbf000034-resize_3-target.png,250,3.8715,5,3449,240,feet,jsons/v1_VE250_randls_59.json,1085446,1592588,36,Woman
140,432087,DepthScenes,duration_manipulation_targetAtFixation,jsons/v1_VE250_randls_59.json,http://54.235.29.9/FacialAge/BNav_EC2/DepthDuration/v2_depth_duration_MTurk/v2_DepthDuration_HTML.html#1,1,1364,625,1364,768,8-20-2022,11-51-46,141,depth_duration_stimuli/001828_2014-06-26_21-40-03_260595134347_rgbf000024-resize_0/001828_2014-06-26_21-40-03_260595134347_rgbf000024-resize_0-target.png,250,4.8260000000000005,3,3228,249,feet,jsons/v1_VE250_randls_59.json,1085446,1592588,36,Woman
141,432087,DepthScenes,duration_manipulation_targetAtFixation,jsons/v1_VE250_randls_59.json,http://54.235.29.9/FacialAge/BNav_EC2/DepthDuration/v2_depth_duration_MTurk/v2_DepthDuration_HTML.html#1,1,1364,625,1364,768,8-20-2022,11-51-46,142,depth_duration_stimuli/002272_2014-06-28_18-53-56_260595134347_rgbf000067-resize_2/002272_2014-06-28_18-53-56_260595134347_rgbf000067-resize_2-target.png,250,1.138,3,3539,246,feet,jsons/v1_VE250_randls_59.json,1085446,1592588,36,Woman
142,432087,DepthScenes,duration_manipulation_targetAtFixation,jsons/v1_VE250_randls_59.json,http://54.235.29.9/FacialAge/BNav_EC2/DepthDuration/v2_depth_duration_MTurk/v2_DepthDuration_HTML.html#1,1,1364,625,1364,768,8-20-2022,11-51-46,143,depth_duration_stimuli/001571_2014-06-20_17-21-32_260595134347_rgbf000089-resize_1/001571_2014-06-20_17-21-32_260595134347_rgbf000089-resize_1-target.png,250,1.86,4,2591,221,feet,jsons/v1_VE250_randls_59.json,1085446,1592588,36,Woman
143,432087,DepthScenes,duration_manipulation_targetAtFixation,jsons/v1_VE250_randls_59.json,http://54.235.29.9/FacialAge/BNav_EC2/DepthDuration/v2_depth_duration_MTurk/v2_DepthDuration_HTML.html#1,1,1364,625,1364,768,8-20-2022,11-51-46,144,depth_duration_stimuli/002600_2014-06-24_14-27-04_094959634447_rgbf000074-resize_2/002600_2014-06-24_14-27-04_094959634447_rgbf000074-resize_2-target.png,250,2.7575,4,3818,250,feet,jsons/v1_VE250_randls_59.json,1085446,1592588,36,Woman
144,432087,DepthScenes,duration_manipulation_targetAtFixation,jsons/v1_VE250_randls_59.json,http://54.235.29.9/FacialAge/BNav_EC2/DepthDuration/v2_depth_duration_MTurk/v2_DepthDuration_HTML.html#1,1,1364,625,1364,768,8-20-2022,11-51-46,145,depth_duration_stimuli/003228_2014-05-14_13-42-35_094959634447_rgbf000101-resize_1/003228_2014-05-14_13-42-35_094959634447_rgbf000101-resize_1-target.png,250,1.9680000000000002,4,3033,260,feet,jsons/v1_VE250_randls_59.json,1085446,1592588,36,Woman
145,432087,DepthScenes,duration_manipulation_targetAtFixation,jsons/v1_VE250_randls_59.json,http://54.235.29.9/FacialAge/BNav_EC2/DepthDuration/v2_depth_duration_MTurk/v2_DepthDuration_HTML.html#1,1,1364,625,1364,768,8-20-2022,11-51-46,146,depth_duration_stimuli/001498_2014-06-19_17-45-14_260595134347_rgbf000129-resize_4/001498_2014-06-19_17-45-14_260595134347_rgbf000129-resize-original.jpg,250,1.4075,0,6192,250,feet,jsons/v1_VE250_randls_59.json,1085446,1592588,36,Woman
146,432087,DepthScenes,duration_manipulation_targetAtFixation,jsons/v1_VE250_randls_59.json,http://54.235.29.9/FacialAge/BNav_EC2/DepthDuration/v2_depth_duration_MTurk/v2_DepthDuration_HTML.html#1,1,1364,625,1364,768,8-20-2022,11-51-46,147,depth_duration_stimuli/002445_2014-06-28_20-32-16_260595134347_rgbf000029-resize_4/002445_2014-06-28_20-32-16_260595134347_rgbf000029-resize_4-target.png,250,2.5315,3,3894,249,feet,jsons/v1_VE250_randls_59.json,1085446,1592588,36,Woman
147,432087,DepthScenes,duration_manipulation_targetAtFixation,jsons/v1_VE250_randls_59.json,http://54.235.29.9/FacialAge/BNav_EC2/DepthDuration/v2_depth_duration_MTurk/v2_DepthDuration_HTML.html#1,1,1364,625,1364,768,8-20-2022,11-51-46,148,depth_duration_stimuli/000780_2014-06-08_22-28-29_260595134347_rgbf000126-resize_1/000780_2014-06-08_22-28-29_260595134347_rgbf000126-resize_1-target.png,250,3.3825,0,3388,241,feet,jsons/v1_VE250_randls_59.json,1085446,1592588,36,Woman
148,432087,DepthScenes,duration_manipulation_targetAtFixation,jsons/v1_VE250_randls_59.json,http://54.235.29.9/FacialAge/BNav_EC2/DepthDuration/v2_depth_duration_MTurk/v2_DepthDuration_HTML.html#1,1,1364,625,1364,768,8-20-2022,11-51-46,149,depth_duration_stimuli/001417_2014-06-19_16-25-36_260595134347_rgbf000115-resize_5/001417_2014-06-19_16-25-36_260595134347_rgbf000115-resize_5-target.png,250,4.6255,6,5773,251,feet,jsons/v1_VE250_randls_59.json,1085446,1592588,36,Woman
149,432087,DepthScenes,duration_manipulation_targetAtFixation,jsons/v1_VE250_randls_59.json,http://54.235.29.9/FacialAge/BNav_EC2/DepthDuration/v2_depth_duration_MTurk/v2_DepthDuration_HTML.html#1,1,1364,625,1364,768,8-20-2022,11-51-46,150,depth_duration_stimuli/003081_2014-06-15_15-19-16_094959634447_rgbf000150-resize_1/003081_2014-06-15_15-19-16_094959634447_rgbf000150-resize_1-target.png,250,3.9125,4,2529,252,feet,jsons/v1_VE250_randls_59.json,1085446,1592588,36,Woman
150,432087,DepthScenes,duration_manipulation_targetAtFixation,jsons/v1_VE250_randls_59.json,http://54.235.29.9/FacialAge/BNav_EC2/DepthDuration/v2_depth_duration_MTurk/v2_DepthDuration_HTML.html#1,1,1364,625,1364,768,8-20-2022,11-51-46,151,depth_duration_stimuli/001244_2014-06-17_16-47-45_260595134347_rgbf000030-resize_4/001244_2014-06-17_16-47-45_260595134347_rgbf000030-resize_4-target.png,250,2.0425,4,2956,257,feet,jsons/v1_VE250_randls_59.json,1085446,1592588,36,Woman
151,432087,DepthScenes,duration_manipulation_targetAtFixation,jsons/v1_VE250_randls_59.json,http://54.235.29.9/FacialAge/BNav_EC2/DepthDuration/v2_depth_duration_MTurk/v2_DepthDuration_HTML.html#1,1,1364,625,1364,768,8-20-2022,11-51-46,152,depth_duration_stimuli/003495_2014-05-21_16-01-51_094959634447_rgbf000100-resize_3/003495_2014-05-21_16-01-51_094959634447_rgbf000100-resize_3-target.png,250,1.6255,3,2684,251,feet,jsons/v1_VE250_randls_59.json,1085446,1592588,36,Woman
152,432087,DepthScenes,duration_manipulation_targetAtFixation,jsons/v1_VE250_randls_59.json,http://54.235.29.9/FacialAge/BNav_EC2/DepthDuration/v2_depth_duration_MTurk/v2_DepthDuration_HTML.html#1,1,1364,625,1364,768,8-20-2022,11-51-46,153,depth_duration_stimuli/000368_2014-06-09_15-53-01_260595134347_rgbf000155-resize_2/000368_2014-06-09_15-53-01_260595134347_rgbf000155-resize_2-target.png,250,2.4859999999999998,4,3493,249,feet,jsons/v1_VE250_randls_59.json,1085446,1592588,36,Woman
153,432087,DepthScenes,duration_manipulation_targetAtFixation,jsons/v1_VE250_randls_59.json,http://54.235.29.9/FacialAge/BNav_EC2/DepthDuration/v2_depth_duration_MTurk/v2_DepthDuration_HTML.html#1,1,1364,625,1364,768,8-20-2022,11-51-46,154,depth_duration_stimuli/002678_2014-06-13_16-15-32_094959634447_rgbf000151-resize_6/002678_2014-06-13_16-15-32_094959634447_rgbf000151-resize_6-target.png,250,2.1830000000000003,0,3689,250,feet,jsons/v1_VE250_randls_59.json,1085446,1592588,36,Woman
154,432087,DepthScenes,duration_manipulation_targetAtFixation,jsons/v1_VE250_randls_59.json,http://54.235.29.9/FacialAge/BNav_EC2/DepthDuration/v2_depth_duration_MTurk/v2_DepthDuration_HTML.html#1,1,1364,625,1364,768,8-20-2022,11-51-46,155,depth_duration_stimuli/000493_2014-06-09_21-01-18_260595134347_rgbf000196-resize_3/000493_2014-06-09_21-01-18_260595134347_rgbf000196-resize_3-target.png,250,3.44,4,4117,251,feet,jsons/v1_VE250_randls_59.json,1085446,1592588,36,Woman
155,432087,DepthScenes,duration_manipulation_targetAtFixation,jsons/v1_VE250_randls_59.json,http://54.235.29.9/FacialAge/BNav_EC2/DepthDuration/v2_depth_duration_MTurk/v2_DepthDuration_HTML.html#1,1,1364,625,1364,768,8-20-2022,11-51-46,156,depth_duration_stimuli/000191_2014-05-12_17-07-38_260595134347_rgbf000199-resize_0/000191_2014-05-12_17-07-38_260595134347_rgbf000199-resize_0-target.png,250,3.7995,0,2589,249,feet,jsons/v1_VE250_randls_59.json,1085446,1592588,36,Woman
156,432087,DepthScenes,duration_manipulation_targetAtFixation,jsons/v1_VE250_randls_59.json,http://54.235.29.9/FacialAge/BNav_EC2/DepthDuration/v2_depth_duration_MTurk/v2_DepthDuration_HTML.html#1,1,1364,625,1364,768,8-20-2022,11-51-46,157,depth_duration_stimuli/002988_2014-06-15_12-24-20_094959634447_rgbf000150-resize_1/002988_2014-06-15_12-24-20_094959634447_rgbf000150-resize_1-target.png,250,4.7669999999999995,6,11505,250,feet,jsons/v1_VE250_randls_59.json,1085446,1592588,36,Woman
157,432087,DepthScenes,duration_manipulation_targetAtFixation,jsons/v1_VE250_randls_59.json,http://54.235.29.9/FacialAge/BNav_EC2/DepthDuration/v2_depth_duration_MTurk/v2_DepthDuration_HTML.html#1,1,1364,625,1364,768,8-20-2022,11-51-46,158,depth_duration_stimuli/001052_2014-06-08_18-24-54_260595134347_rgbf000130-resize_1/001052_2014-06-08_18-24-54_260595134347_rgbf000130-resize_1-target.png,250,4.1045,0,6775,248,feet,jsons/v1_VE250_randls_59.json,1085446,1592588,36,Woman
158,432087,DepthScenes,duration_manipulation_targetAtFixation,jsons/v1_VE250_randls_59.json,http://54.235.29.9/FacialAge/BNav_EC2/DepthDuration/v2_depth_duration_MTurk/v2_DepthDuration_HTML.html#1,1,1364,625,1364,768,8-20-2022,11-51-46,159,depth_duration_stimuli/002788_2014-06-22_19-36-03_094959634447_rgbf000088-resize_2/002788_2014-06-22_19-36-03_094959634447_rgbf000088-resize_2-target.png,250,1.6465,4,3927,242,feet,jsons/v1_VE250_randls_59.json,1085446,1592588,36,Woman
159,432087,DepthScenes,duration_manipulation_targetAtFixation,jsons/v1_VE250_randls_59.json,http://54.235.29.9/FacialAge/BNav_EC2/DepthDuration/v2_depth_duration_MTurk/v2_DepthDuration_HTML.html#1,1,1364,625,1364,768,8-20-2022,11-51-46,160,depth_duration_stimuli/000749_2014-06-08_21-55-06_260595134347_rgbf000070-resize_2/000749_2014-06-08_21-55-06_260595134347_rgbf000070-resize_2-target.png,250,2.331,4,5345,239,feet,jsons/v1_VE250_randls_59.json,1085446,1592588,36,Woman
160,432087,DepthScenes,duration_manipulation_targetAtFixation,jsons/v1_VE250_randls_59.json,http://54.235.29.9/FacialAge/BNav_EC2/DepthDuration/v2_depth_duration_MTurk/v2_DepthDuration_HTML.html#1,1,1364,625,1364,768,8-20-2022,11-51-46,161,depth_duration_stimuli/000739_2014-06-08_18-45-58_260595134347_rgbf000068-resize_1/000739_2014-06-08_18-45-58_260595134347_rgbf000068-resize_1-target.png,250,3.534,5,8954,241,feet,jsons/v1_VE250_randls_59.json,1085446,1592588,36,Woman
161,432087,DepthScenes,duration_manipulation_targetAtFixation,jsons/v1_VE250_randls_59.json,http://54.235.29.9/FacialAge/BNav_EC2/DepthDuration/v2_depth_duration_MTurk/v2_DepthDuration_HTML.html#1,1,1364,625,1364,768,8-20-2022,11-51-46,162,depth_duration_stimuli/000734_2014-06-08_17-39-11_260595134347_rgbf000128-resize_2/000734_2014-06-08_17-39-11_260595134347_rgbf000128-resize_2-target.png,250,4.098,0,7660,250,feet,jsons/v1_VE250_randls_59.json,1085446,1592588,36,Woman
162,432087,DepthScenes,duration_manipulation_targetAtFixation,jsons/v1_VE250_randls_59.json,http://54.235.29.9/FacialAge/BNav_EC2/DepthDuration/v2_depth_duration_MTurk/v2_DepthDuration_HTML.html#1,1,1364,625,1364,768,8-20-2022,11-51-46,163,depth_duration_stimuli/001055_2014-06-08_18-45-35_260595134347_rgbf000111-resize_4/001055_2014-06-08_18-45-35_260595134347_rgbf000111-resize_4-target.png,250,2.4290000000000003,4,5213,245,feet,jsons/v1_VE250_randls_59.json,1085446,1592588,36,Woman
163,432087,DepthScenes,duration_manipulation_targetAtFixation,jsons/v1_VE250_randls_59.json,http://54.235.29.9/FacialAge/BNav_EC2/DepthDuration/v2_depth_duration_MTurk/v2_DepthDuration_HTML.html#1,1,1364,625,1364,768,8-20-2022,11-51-46,164,depth_duration_stimuli/000549_2014-06-08_22-10-24_260595134347_rgbf000247-resize_3/000549_2014-06-08_22-10-24_260595134347_rgbf000247-resize_3-target.png,250,1.841,0,2752,247,feet,jsons/v1_VE250_randls_59.json,1085446,1592588,36,Woman
