,subjID,experimentName,versionName,sequenceName,url,selected_row,windowWidth,windowHeight,screenWidth,screenHeight,startDate,startTime,trial,stimulus,duration,actual_depth,depth_estimate,trial_RT,log_sceneDuration,unitSelection,seq_filepath,experimentTime,totalTime,age,gender
0,433234,DepthScenes,duration_manipulation_targetAtFixation,jsons/v1_VE250_randls_64_rotated.json,http://54.235.29.9/FacialAge/BNav_EC2/DepthDuration/v2_depth_duration_MTurk/v2_DepthDuration_HTML.html#6,6,1366,625,1366,768,8-20-2022,10-0-28,1,depth_duration_stimuli/002758_2014-06-22_19-11-20_094959634447_rgbf000128-resize_1/002758_2014-06-22_19-11-20_094959634447_rgbf000128-resize_1-target.png,250,2.555,13,5875,249,feet,jsons/v1_VE250_randls_64_rotated.json,1747985,2114239,35,Woman
1,433234,DepthScenes,duration_manipulation_targetAtFixation,jsons/v1_VE250_randls_64_rotated.json,http://54.235.29.9/FacialAge/BNav_EC2/DepthDuration/v2_depth_duration_MTurk/v2_DepthDuration_HTML.html#6,6,1366,625,1366,768,8-20-2022,10-0-28,2,depth_duration_stimuli/002630_2014-06-24_14-47-50_094959634447_rgbf000055-resize_1/002630_2014-06-24_14-47-50_094959634447_rgbf000055-resize_1-target.png,250,3.0095,13,4548,241,feet,jsons/v1_VE250_randls_64_rotated.json,1747985,2114239,35,Woman
2,433234,DepthScenes,duration_manipulation_targetAtFixation,jsons/v1_VE250_randls_64_rotated.json,http://54.235.29.9/FacialAge/BNav_EC2/DepthDuration/v2_depth_duration_MTurk/v2_DepthDuration_HTML.html#6,6,1366,625,1366,768,8-20-2022,10-0-28,3,depth_duration_stimuli/000556_2014-06-09_22-42-56_260595134347_rgbf000214-resize_1/000556_2014-06-09_22-42-56_260595134347_rgbf000214-resize_1-target.png,250,4.8415,15,5184,241,feet,jsons/v1_VE250_randls_64_rotated.json,1747985,2114239,35,Woman
3,433234,DepthScenes,duration_manipulation_targetAtFixation,jsons/v1_VE250_randls_64_rotated.json,http://54.235.29.9/FacialAge/BNav_EC2/DepthDuration/v2_depth_duration_MTurk/v2_DepthDuration_HTML.html#6,6,1366,625,1366,768,8-20-2022,10-0-28,4,depth_duration_stimuli/001158_2014-06-17_15-32-16_260595134347_rgbf000138-resize_2/001158_2014-06-17_15-32-16_260595134347_rgbf000138-resize_2-target.png,250,4.5315,14,4646,236,feet,jsons/v1_VE250_randls_64_rotated.json,1747985,2114239,35,Woman
4,433234,DepthScenes,duration_manipulation_targetAtFixation,jsons/v1_VE250_randls_64_rotated.json,http://54.235.29.9/FacialAge/BNav_EC2/DepthDuration/v2_depth_duration_MTurk/v2_DepthDuration_HTML.html#6,6,1366,625,1366,768,8-20-2022,10-0-28,5,depth_duration_stimuli/002637_2014-06-24_14-51-13_094959634447_rgbf000066-resize_4/002637_2014-06-24_14-51-13_094959634447_rgbf000066-resize_4-target.png,250,1.9955,15,6779,250,feet,jsons/v1_VE250_randls_64_rotated.json,1747985,2114239,35,Woman
5,433234,DepthScenes,duration_manipulation_targetAtFixation,jsons/v1_VE250_randls_64_rotated.json,http://54.235.29.9/FacialAge/BNav_EC2/DepthDuration/v2_depth_duration_MTurk/v2_DepthDuration_HTML.html#6,6,1366,625,1366,768,8-20-2022,10-0-28,6,depth_duration_stimuli/003534_2014-05-22_15-06-10_094959634447_rgbf000102-resize_4/003534_2014-05-22_15-06-10_094959634447_rgbf000102-resize_4-target.png,250,1.426,16,6308,278,feet,jsons/v1_VE250_randls_64_rotated.json,1747985,2114239,35,Woman
6,433234,DepthScenes,duration_manipulation_targetAtFixation,jsons/v1_VE250_randls_64_rotated.json,http://54.235.29.9/FacialAge/BNav_EC2/DepthDuration/v2_depth_duration_MTurk/v2_DepthDuration_HTML.html#6,6,1366,625,1366,768,8-20-2022,10-0-28,7,depth_duration_stimuli/002444_2014-06-28_20-32-08_260595134347_rgbf000027-resize_0/002444_2014-06-28_20-32-08_260595134347_rgbf000027-resize_0-target.png,250,4.388999999999999,15,7695,254,feet,jsons/v1_VE250_randls_64_rotated.json,1747985,2114239,35,Woman
7,433234,DepthScenes,duration_manipulation_targetAtFixation,jsons/v1_VE250_randls_64_rotated.json,http://54.235.29.9/FacialAge/BNav_EC2/DepthDuration/v2_depth_duration_MTurk/v2_DepthDuration_HTML.html#6,6,1366,625,1366,768,8-20-2022,10-0-28,8,depth_duration_stimuli/000436_2014-06-09_22-25-11_260595134347_rgbf000137-resize_1/000436_2014-06-09_22-25-11_260595134347_rgbf000137-resize_1-target.png,250,4.0705,13,4801,252,feet,jsons/v1_VE250_randls_64_rotated.json,1747985,2114239,35,Woman
8,433234,DepthScenes,duration_manipulation_targetAtFixation,jsons/v1_VE250_randls_64_rotated.json,http://54.235.29.9/FacialAge/BNav_EC2/DepthDuration/v2_depth_duration_MTurk/v2_DepthDuration_HTML.html#6,6,1366,625,1366,768,8-20-2022,10-0-28,9,depth_duration_stimuli/003423_2014-05-21_10-23-26_094959634447_rgbf002665-resize_2/003423_2014-05-21_10-23-26_094959634447_rgbf002665-resize_2-target.png,250,3.2575,14,4975,224,feet,jsons/v1_VE250_randls_64_rotated.json,1747985,2114239,35,Woman
9,433234,DepthScenes,duration_manipulation_targetAtFixation,jsons/v1_VE250_randls_64_rotated.json,http://54.235.29.9/FacialAge/BNav_EC2/DepthDuration/v2_depth_duration_MTurk/v2_DepthDuration_HTML.html#6,6,1366,625,1366,768,8-20-2022,10-0-28,10,depth_duration_stimuli/002905_2014-06-03_18-04-43_094959634447_rgbf000151-resize_2/002905_2014-06-03_18-04-43_094959634447_rgbf000151-resize_2-target.png,250,2.0295,15,5185,247,feet,jsons/v1_VE250_randls_64_rotated.json,1747985,2114239,35,Woman
10,433234,DepthScenes,duration_manipulation_targetAtFixation,jsons/v1_VE250_randls_64_rotated.json,http://54.235.29.9/FacialAge/BNav_EC2/DepthDuration/v2_depth_duration_MTurk/v2_DepthDuration_HTML.html#6,6,1366,625,1366,768,8-20-2022,10-0-28,11,depth_duration_stimuli/002750_2014-06-22_19-08-03_094959634447_rgbf000094-resize_4/002750_2014-06-22_19-08-03_094959634447_rgbf000094-resize_4-target.png,250,2.354,14,4854,250,feet,jsons/v1_VE250_randls_64_rotated.json,1747985,2114239,35,Woman
11,433234,DepthScenes,duration_manipulation_targetAtFixation,jsons/v1_VE250_randls_64_rotated.json,http://54.235.29.9/FacialAge/BNav_EC2/DepthDuration/v2_depth_duration_MTurk/v2_DepthDuration_HTML.html#6,6,1366,625,1366,768,8-20-2022,10-0-28,12,depth_duration_stimuli/002549_2014-06-24_13-41-39_094959634447_rgbf000022-resize_3/002549_2014-06-24_13-41-39_094959634447_rgbf000022-resize_3-target.png,250,1.476,14,4534,249,feet,jsons/v1_VE250_randls_64_rotated.json,1747985,2114239,35,Woman
12,433234,DepthScenes,duration_manipulation_targetAtFixation,jsons/v1_VE250_randls_64_rotated.json,http://54.235.29.9/FacialAge/BNav_EC2/DepthDuration/v2_depth_duration_MTurk/v2_DepthDuration_HTML.html#6,6,1366,625,1366,768,8-20-2022,10-0-28,13,depth_duration_stimuli/002949_2014-06-26_15-57-42_094959634447_rgbf000079-resize_1/002949_2014-06-26_15-57-42_094959634447_rgbf000079-resize_1-target.png,250,1.8915,16,5397,248,feet,jsons/v1_VE250_randls_64_rotated.json,1747985,2114239,35,Woman
13,433234,DepthScenes,duration_manipulation_targetAtFixation,jsons/v1_VE250_randls_64_rotated.json,http://54.235.29.9/FacialAge/BNav_EC2/DepthDuration/v2_depth_duration_MTurk/v2_DepthDuration_HTML.html#6,6,1366,625,1366,768,8-20-2022,10-0-28,14,depth_duration_stimuli/000522_2014-06-08_13-35-06_260595134347_rgbf000244-resize_1/000522_2014-06-08_13-35-06_260595134347_rgbf000244-resize_1-target.png,250,2.3715,16,4733,248,feet,jsons/v1_VE250_randls_64_rotated.json,1747985,2114239,35,Woman
14,433234,DepthScenes,duration_manipulation_targetAtFixation,jsons/v1_VE250_randls_64_rotated.json,http://54.235.29.9/FacialAge/BNav_EC2/DepthDuration/v2_depth_duration_MTurk/v2_DepthDuration_HTML.html#6,6,1366,625,1366,768,8-20-2022,10-0-28,15,depth_duration_stimuli/001132_2014-06-17_14-48-54_260595134347_rgbf000100-resize_2/001132_2014-06-17_14-48-54_260595134347_rgbf000100-resize_2-target.png,250,3.753,15,4949,247,feet,jsons/v1_VE250_randls_64_rotated.json,1747985,2114239,35,Woman
15,433234,DepthScenes,duration_manipulation_targetAtFixation,jsons/v1_VE250_randls_64_rotated.json,http://54.235.29.9/FacialAge/BNav_EC2/DepthDuration/v2_depth_duration_MTurk/v2_DepthDuration_HTML.html#6,6,1366,625,1366,768,8-20-2022,10-0-28,16,depth_duration_stimuli/001133_2014-06-17_14-49-16_260595134347_rgbf000100-resize_0/001133_2014-06-17_14-49-16_260595134347_rgbf000100-resize_0-target.png,250,4.2115,16,6557,249,feet,jsons/v1_VE250_randls_64_rotated.json,1747985,2114239,35,Woman
16,433234,DepthScenes,duration_manipulation_targetAtFixation,jsons/v1_VE250_randls_64_rotated.json,http://54.235.29.9/FacialAge/BNav_EC2/DepthDuration/v2_depth_duration_MTurk/v2_DepthDuration_HTML.html#6,6,1366,625,1366,768,8-20-2022,10-0-28,17,depth_duration_stimuli/000483_2014-06-09_20-41-45_260595134347_rgbf000116-resize_4/000483_2014-06-09_20-41-45_260595134347_rgbf000116-resize_4-target.png,250,1.337,16,5837,257,feet,jsons/v1_VE250_randls_64_rotated.json,1747985,2114239,35,Woman
17,433234,DepthScenes,duration_manipulation_targetAtFixation,jsons/v1_VE250_randls_64_rotated.json,http://54.235.29.9/FacialAge/BNav_EC2/DepthDuration/v2_depth_duration_MTurk/v2_DepthDuration_HTML.html#6,6,1366,625,1366,768,8-20-2022,10-0-28,18,depth_duration_stimuli/000469_2014-06-09_19-42-10_260595134347_rgbf000081-resize_1/000469_2014-06-09_19-42-10_260595134347_rgbf000081-resize_1-target.png,250,1.652,14,4832,239,feet,jsons/v1_VE250_randls_64_rotated.json,1747985,2114239,35,Woman
18,433234,DepthScenes,duration_manipulation_targetAtFixation,jsons/v1_VE250_randls_64_rotated.json,http://54.235.29.9/FacialAge/BNav_EC2/DepthDuration/v2_depth_duration_MTurk/v2_DepthDuration_HTML.html#6,6,1366,625,1366,768,8-20-2022,10-0-28,19,depth_duration_stimuli/001498_2014-06-19_17-45-14_260595134347_rgbf000129-resize_4/001498_2014-06-19_17-45-14_260595134347_rgbf000129-resize-original.jpg,250,1.4075,0,5295,258,feet,jsons/v1_VE250_randls_64_rotated.json,1747985,2114239,35,Woman
19,433234,DepthScenes,duration_manipulation_targetAtFixation,jsons/v1_VE250_randls_64_rotated.json,http://54.235.29.9/FacialAge/BNav_EC2/DepthDuration/v2_depth_duration_MTurk/v2_DepthDuration_HTML.html#6,6,1366,625,1366,768,8-20-2022,10-0-28,20,depth_duration_stimuli/001617_2014-06-20_11-35-32_260595134347_rgbf000066-resize_1/001617_2014-06-20_11-35-32_260595134347_rgbf000066-resize_1-target.png,250,3.7910000000000004,12,4498,261,feet,jsons/v1_VE250_randls_64_rotated.json,1747985,2114239,35,Woman
20,433234,DepthScenes,duration_manipulation_targetAtFixation,jsons/v1_VE250_randls_64_rotated.json,http://54.235.29.9/FacialAge/BNav_EC2/DepthDuration/v2_depth_duration_MTurk/v2_DepthDuration_HTML.html#6,6,1366,625,1366,768,8-20-2022,10-0-28,21,depth_duration_stimuli/001806_2014-06-26_20-50-20_260595134347_rgbf000091-resize_1/001806_2014-06-26_20-50-20_260595134347_rgbf000091-resize_1-target.png,250,2.7305,16,5697,184,feet,jsons/v1_VE250_randls_64_rotated.json,1747985,2114239,35,Woman
21,433234,DepthScenes,duration_manipulation_targetAtFixation,jsons/v1_VE250_randls_64_rotated.json,http://54.235.29.9/FacialAge/BNav_EC2/DepthDuration/v2_depth_duration_MTurk/v2_DepthDuration_HTML.html#6,6,1366,625,1366,768,8-20-2022,10-0-28,22,depth_duration_stimuli/002875_2014-06-01_15-19-00_094959634447_rgbf000151-resize_1/002875_2014-06-01_15-19-00_094959634447_rgbf000151-resize_1-target.png,250,1.9675,12,4976,249,feet,jsons/v1_VE250_randls_64_rotated.json,1747985,2114239,35,Woman
22,433234,DepthScenes,duration_manipulation_targetAtFixation,jsons/v1_VE250_randls_64_rotated.json,http://54.235.29.9/FacialAge/BNav_EC2/DepthDuration/v2_depth_duration_MTurk/v2_DepthDuration_HTML.html#6,6,1366,625,1366,768,8-20-2022,10-0-28,23,depth_duration_stimuli/001011_2014-06-08_23-18-54_260595134347_rgbf000044-resize_4/001011_2014-06-08_23-18-54_260595134347_rgbf000044-resize_4-target.png,250,2.4730000000000003,14,4898,248,feet,jsons/v1_VE250_randls_64_rotated.json,1747985,2114239,35,Woman
23,433234,DepthScenes,duration_manipulation_targetAtFixation,jsons/v1_VE250_randls_64_rotated.json,http://54.235.29.9/FacialAge/BNav_EC2/DepthDuration/v2_depth_duration_MTurk/v2_DepthDuration_HTML.html#6,6,1366,625,1366,768,8-20-2022,10-0-28,24,depth_duration_stimuli/001032_2014-06-08_13-23-17_260595134347_rgbf000021-resize_3/001032_2014-06-08_13-23-17_260595134347_rgbf000021-resize_3-target.png,250,3.2725,15,4945,263,feet,jsons/v1_VE250_randls_64_rotated.json,1747985,2114239,35,Woman
24,433234,DepthScenes,duration_manipulation_targetAtFixation,jsons/v1_VE250_randls_64_rotated.json,http://54.235.29.9/FacialAge/BNav_EC2/DepthDuration/v2_depth_duration_MTurk/v2_DepthDuration_HTML.html#6,6,1366,625,1366,768,8-20-2022,10-0-28,25,depth_duration_stimuli/001059_2014-06-08_21-53-27_260595134347_rgbf000061-resize_4/001059_2014-06-08_21-53-27_260595134347_rgbf000061-resize_4-target.png,250,2.4185,14,4864,255,feet,jsons/v1_VE250_randls_64_rotated.json,1747985,2114239,35,Woman
25,433234,DepthScenes,duration_manipulation_targetAtFixation,jsons/v1_VE250_randls_64_rotated.json,http://54.235.29.9/FacialAge/BNav_EC2/DepthDuration/v2_depth_duration_MTurk/v2_DepthDuration_HTML.html#6,6,1366,625,1366,768,8-20-2022,10-0-28,26,depth_duration_stimuli/002657_2014-06-13_15-29-54_094959634447_rgbf000150-resize_1/002657_2014-06-13_15-29-54_094959634447_rgbf000150-resize_1-target.png,250,4.919,15,5060,245,feet,jsons/v1_VE250_randls_64_rotated.json,1747985,2114239,35,Woman
26,433234,DepthScenes,duration_manipulation_targetAtFixation,jsons/v1_VE250_randls_64_rotated.json,http://54.235.29.9/FacialAge/BNav_EC2/DepthDuration/v2_depth_duration_MTurk/v2_DepthDuration_HTML.html#6,6,1366,625,1366,768,8-20-2022,10-0-28,27,depth_duration_stimuli/002375_2014-06-28_20-13-44_260595134347_rgbf000032-resize_1/002375_2014-06-28_20-13-44_260595134347_rgbf000032-resize_1-target.png,250,4.0175,14,4789,249,feet,jsons/v1_VE250_randls_64_rotated.json,1747985,2114239,35,Woman
27,433234,DepthScenes,duration_manipulation_targetAtFixation,jsons/v1_VE250_randls_64_rotated.json,http://54.235.29.9/FacialAge/BNav_EC2/DepthDuration/v2_depth_duration_MTurk/v2_DepthDuration_HTML.html#6,6,1366,625,1366,768,8-20-2022,10-0-28,28,depth_duration_stimuli/002414_2014-06-28_20-24-58_260595134347_rgbf000067-resize_4/002414_2014-06-28_20-24-58_260595134347_rgbf000067-resize_4-target.png,250,4.363,15,4681,249,feet,jsons/v1_VE250_randls_64_rotated.json,1747985,2114239,35,Woman
28,433234,DepthScenes,duration_manipulation_targetAtFixation,jsons/v1_VE250_randls_64_rotated.json,http://54.235.29.9/FacialAge/BNav_EC2/DepthDuration/v2_depth_duration_MTurk/v2_DepthDuration_HTML.html#6,6,1366,625,1366,768,8-20-2022,10-0-28,29,depth_duration_stimuli/000773_2014-06-08_22-24-54_260595134347_rgbf000093-resize_1/000773_2014-06-08_22-24-54_260595134347_rgbf000093-resize_1-target.png,250,4.973,14,4730,254,feet,jsons/v1_VE250_randls_64_rotated.json,1747985,2114239,35,Woman
29,433234,DepthScenes,duration_manipulation_targetAtFixation,jsons/v1_VE250_randls_64_rotated.json,http://54.235.29.9/FacialAge/BNav_EC2/DepthDuration/v2_depth_duration_MTurk/v2_DepthDuration_HTML.html#6,6,1366,625,1366,768,8-20-2022,10-0-28,30,depth_duration_stimuli/002072_2014-06-24_21-48-06_260595134347_rgbf000115-resize_0/002072_2014-06-24_21-48-06_260595134347_rgbf000115-resize-original.jpg,250,4.702,0,4100,251,feet,jsons/v1_VE250_randls_64_rotated.json,1747985,2114239,35,Woman
30,433234,DepthScenes,duration_manipulation_targetAtFixation,jsons/v1_VE250_randls_64_rotated.json,http://54.235.29.9/FacialAge/BNav_EC2/DepthDuration/v2_depth_duration_MTurk/v2_DepthDuration_HTML.html#6,6,1366,625,1366,768,8-20-2022,10-0-28,31,depth_duration_stimuli/003490_2014-05-21_15-50-11_094959634447_rgbf000101-resize_3/003490_2014-05-21_15-50-11_094959634447_rgbf000101-resize_3-target.png,250,3.6445,12,4328,249,feet,jsons/v1_VE250_randls_64_rotated.json,1747985,2114239,35,Woman
31,433234,DepthScenes,duration_manipulation_targetAtFixation,jsons/v1_VE250_randls_64_rotated.json,http://54.235.29.9/FacialAge/BNav_EC2/DepthDuration/v2_depth_duration_MTurk/v2_DepthDuration_HTML.html#6,6,1366,625,1366,768,8-20-2022,10-0-28,32,depth_duration_stimuli/001175_2014-06-17_15-45-55_260595134347_rgbf000129-resize_4/001175_2014-06-17_15-45-55_260595134347_rgbf000129-resize_4-target.png,250,4.255,11,6194,242,feet,jsons/v1_VE250_randls_64_rotated.json,1747985,2114239,35,Woman
32,433234,DepthScenes,duration_manipulation_targetAtFixation,jsons/v1_VE250_randls_64_rotated.json,http://54.235.29.9/FacialAge/BNav_EC2/DepthDuration/v2_depth_duration_MTurk/v2_DepthDuration_HTML.html#6,6,1366,625,1366,768,8-20-2022,10-0-28,33,depth_duration_stimuli/000665_2014-06-09_20-42-35_260595134347_rgbf000110-resize_1/000665_2014-06-09_20-42-35_260595134347_rgbf000110-resize_1-target.png,250,3.057,15,4919,261,feet,jsons/v1_VE250_randls_64_rotated.json,1747985,2114239,35,Woman
33,433234,DepthScenes,duration_manipulation_targetAtFixation,jsons/v1_VE250_randls_64_rotated.json,http://54.235.29.9/FacialAge/BNav_EC2/DepthDuration/v2_depth_duration_MTurk/v2_DepthDuration_HTML.html#6,6,1366,625,1366,768,8-20-2022,10-0-28,34,depth_duration_stimuli/001150_2014-06-17_15-27-34_260595134347_rgbf000108-resize_2/001150_2014-06-17_15-27-34_260595134347_rgbf000108-resize_2-target.png,250,4.0325,12,3905,247,feet,jsons/v1_VE250_randls_64_rotated.json,1747985,2114239,35,Woman
34,433234,DepthScenes,duration_manipulation_targetAtFixation,jsons/v1_VE250_randls_64_rotated.json,http://54.235.29.9/FacialAge/BNav_EC2/DepthDuration/v2_depth_duration_MTurk/v2_DepthDuration_HTML.html#6,6,1366,625,1366,768,8-20-2022,10-0-28,35,depth_duration_stimuli/003228_2014-05-14_13-42-35_094959634447_rgbf000101-resize_1/003228_2014-05-14_13-42-35_094959634447_rgbf000101-resize_1-target.png,250,1.9680000000000002,15,6587,140,feet,jsons/v1_VE250_randls_64_rotated.json,1747985,2114239,35,Woman
35,433234,DepthScenes,duration_manipulation_targetAtFixation,jsons/v1_VE250_randls_64_rotated.json,http://54.235.29.9/FacialAge/BNav_EC2/DepthDuration/v2_depth_duration_MTurk/v2_DepthDuration_HTML.html#6,6,1366,625,1366,768,8-20-2022,10-0-28,36,depth_duration_stimuli/002600_2014-06-24_14-27-04_094959634447_rgbf000074-resize_2/002600_2014-06-24_14-27-04_094959634447_rgbf000074-resize_2-target.png,250,2.7575,13,30180,249,feet,jsons/v1_VE250_randls_64_rotated.json,1747985,2114239,35,Woman
36,433234,DepthScenes,duration_manipulation_targetAtFixation,jsons/v1_VE250_randls_64_rotated.json,http://54.235.29.9/FacialAge/BNav_EC2/DepthDuration/v2_depth_duration_MTurk/v2_DepthDuration_HTML.html#6,6,1366,625,1366,768,8-20-2022,10-0-28,37,depth_duration_stimuli/002805_2014-06-22_19-54-03_094959634447_rgbf000079-resize_1/002805_2014-06-22_19-54-03_094959634447_rgbf000079-resize_1-target.png,250,3.1439999999999997,14,134281,249,feet,jsons/v1_VE250_randls_64_rotated.json,1747985,2114239,35,Woman
37,433234,DepthScenes,duration_manipulation_targetAtFixation,jsons/v1_VE250_randls_64_rotated.json,http://54.235.29.9/FacialAge/BNav_EC2/DepthDuration/v2_depth_duration_MTurk/v2_DepthDuration_HTML.html#6,6,1366,625,1366,768,8-20-2022,10-0-28,38,depth_duration_stimuli/000906_2014-06-08_13-35-43_260595134347_rgbf000155-resize_1/000906_2014-06-08_13-35-43_260595134347_rgbf000155-resize_1-target.png,250,2.8489999999999998,13,4864,238,feet,jsons/v1_VE250_randls_64_rotated.json,1747985,2114239,35,Woman
38,433234,DepthScenes,duration_manipulation_targetAtFixation,jsons/v1_VE250_randls_64_rotated.json,http://54.235.29.9/FacialAge/BNav_EC2/DepthDuration/v2_depth_duration_MTurk/v2_DepthDuration_HTML.html#6,6,1366,625,1366,768,8-20-2022,10-0-28,39,depth_duration_stimuli/000709_2014-06-08_13-51-55_260595134347_rgbf000068-resize_3/000709_2014-06-08_13-51-55_260595134347_rgbf000068-resize_3-target.png,250,1.8030000000000002,15,6175,204,feet,jsons/v1_VE250_randls_64_rotated.json,1747985,2114239,35,Woman
39,433234,DepthScenes,duration_manipulation_targetAtFixation,jsons/v1_VE250_randls_64_rotated.json,http://54.235.29.9/FacialAge/BNav_EC2/DepthDuration/v2_depth_duration_MTurk/v2_DepthDuration_HTML.html#6,6,1366,625,1366,768,8-20-2022,10-0-28,40,depth_duration_stimuli/002057_2014-06-24_21-00-13_260595134347_rgbf000120-resize_1/002057_2014-06-24_21-00-13_260595134347_rgbf000120-resize_1-target.png,250,2.967,12,4516,298,feet,jsons/v1_VE250_randls_64_rotated.json,1747985,2114239,35,Woman
40,433234,DepthScenes,duration_manipulation_targetAtFixation,jsons/v1_VE250_randls_64_rotated.json,http://54.235.29.9/FacialAge/BNav_EC2/DepthDuration/v2_depth_duration_MTurk/v2_DepthDuration_HTML.html#6,6,1366,625,1366,768,8-20-2022,10-0-28,41,depth_duration_stimuli/003129_2014-05-12_10-48-10_094959634447_rgbf000100-resize_0/003129_2014-05-12_10-48-10_094959634447_rgbf000100-resize_0-target.png,250,4.9305,11,4475,248,feet,jsons/v1_VE250_randls_64_rotated.json,1747985,2114239,35,Woman
41,433234,DepthScenes,duration_manipulation_targetAtFixation,jsons/v1_VE250_randls_64_rotated.json,http://54.235.29.9/FacialAge/BNav_EC2/DepthDuration/v2_depth_duration_MTurk/v2_DepthDuration_HTML.html#6,6,1366,625,1366,768,8-20-2022,10-0-28,42,depth_duration_stimuli/000414_2014-06-04_19-49-13_260595134347_rgbf000044-resize_0/000414_2014-06-04_19-49-13_260595134347_rgbf000044-resize_0-target.png,250,4.329,0,5411,281,feet,jsons/v1_VE250_randls_64_rotated.json,1747985,2114239,35,Woman
42,433234,DepthScenes,duration_manipulation_targetAtFixation,jsons/v1_VE250_randls_64_rotated.json,http://54.235.29.9/FacialAge/BNav_EC2/DepthDuration/v2_depth_duration_MTurk/v2_DepthDuration_HTML.html#6,6,1366,625,1366,768,8-20-2022,10-0-28,43,depth_duration_stimuli/002639_2014-06-24_14-51-37_094959634447_rgbf000074-resize_4/002639_2014-06-24_14-51-37_094959634447_rgbf000074-resize_4-target.png,250,4.0375,12,5852,240,feet,jsons/v1_VE250_randls_64_rotated.json,1747985,2114239,35,Woman
43,433234,DepthScenes,duration_manipulation_targetAtFixation,jsons/v1_VE250_randls_64_rotated.json,http://54.235.29.9/FacialAge/BNav_EC2/DepthDuration/v2_depth_duration_MTurk/v2_DepthDuration_HTML.html#6,6,1366,625,1366,768,8-20-2022,10-0-28,44,depth_duration_stimuli/003292_2014-05-14_21-53-49_094959634447_rgbf000100-resize_2/003292_2014-05-14_21-53-49_094959634447_rgbf000100-resize_2-target.png,250,3.4815,14,5243,250,feet,jsons/v1_VE250_randls_64_rotated.json,1747985,2114239,35,Woman
44,433234,DepthScenes,duration_manipulation_targetAtFixation,jsons/v1_VE250_randls_64_rotated.json,http://54.235.29.9/FacialAge/BNav_EC2/DepthDuration/v2_depth_duration_MTurk/v2_DepthDuration_HTML.html#6,6,1366,625,1366,768,8-20-2022,10-0-28,45,depth_duration_stimuli/000927_2014-06-09_16-32-30_260595134347_rgbf000123-resize_3/000927_2014-06-09_16-32-30_260595134347_rgbf000123-resize_3-target.png,250,2.6785,13,50213,261,feet,jsons/v1_VE250_randls_64_rotated.json,1747985,2114239,35,Woman
45,433234,DepthScenes,duration_manipulation_targetAtFixation,jsons/v1_VE250_randls_64_rotated.json,http://54.235.29.9/FacialAge/BNav_EC2/DepthDuration/v2_depth_duration_MTurk/v2_DepthDuration_HTML.html#6,6,1366,625,1366,768,8-20-2022,10-0-28,46,depth_duration_stimuli/001110_2014-06-15_17-25-28_260595134347_rgbf000150-resize_1/001110_2014-06-15_17-25-28_260595134347_rgbf000150-resize_1-target.png,250,1.7115,15,5354,251,feet,jsons/v1_VE250_randls_64_rotated.json,1747985,2114239,35,Woman
46,433234,DepthScenes,duration_manipulation_targetAtFixation,jsons/v1_VE250_randls_64_rotated.json,http://54.235.29.9/FacialAge/BNav_EC2/DepthDuration/v2_depth_duration_MTurk/v2_DepthDuration_HTML.html#6,6,1366,625,1366,768,8-20-2022,10-0-28,47,depth_duration_stimuli/001516_2014-06-20_16-25-09_260595134347_rgbf000076-resize_2/001516_2014-06-20_16-25-09_260595134347_rgbf000076-resize_2-target.png,250,1.7445,14,17959,246,feet,jsons/v1_VE250_randls_64_rotated.json,1747985,2114239,35,Woman
47,433234,DepthScenes,duration_manipulation_targetAtFixation,jsons/v1_VE250_randls_64_rotated.json,http://54.235.29.9/FacialAge/BNav_EC2/DepthDuration/v2_depth_duration_MTurk/v2_DepthDuration_HTML.html#6,6,1366,625,1366,768,8-20-2022,10-0-28,48,depth_duration_stimuli/002118_2014-06-25_20-32-08_260595134347_rgbf000078-resize_1/002118_2014-06-25_20-32-08_260595134347_rgbf000078-resize_1-target.png,250,2.6460000000000004,15,7389,251,feet,jsons/v1_VE250_randls_64_rotated.json,1747985,2114239,35,Woman
48,433234,DepthScenes,duration_manipulation_targetAtFixation,jsons/v1_VE250_randls_64_rotated.json,http://54.235.29.9/FacialAge/BNav_EC2/DepthDuration/v2_depth_duration_MTurk/v2_DepthDuration_HTML.html#6,6,1366,625,1366,768,8-20-2022,10-0-28,49,depth_duration_stimuli/001170_2014-06-17_15-43-44_260595134347_rgbf000096-resize_6/001170_2014-06-17_15-43-44_260595134347_rgbf000096-resize-original.jpg,250,1.1909999999999998,16,11853,258,feet,jsons/v1_VE250_randls_64_rotated.json,1747985,2114239,35,Woman
49,433234,DepthScenes,duration_manipulation_targetAtFixation,jsons/v1_VE250_randls_64_rotated.json,http://54.235.29.9/FacialAge/BNav_EC2/DepthDuration/v2_depth_duration_MTurk/v2_DepthDuration_HTML.html#6,6,1366,625,1366,768,8-20-2022,10-0-28,50,depth_duration_stimuli/001447_2014-06-19_17-00-32_260595134347_rgbf000082-resize_5/001447_2014-06-19_17-00-32_260595134347_rgbf000082-resize_5-target.png,250,4.13775,15,4026,225,feet,jsons/v1_VE250_randls_64_rotated.json,1747985,2114239,35,Woman
50,433234,DepthScenes,duration_manipulation_targetAtFixation,jsons/v1_VE250_randls_64_rotated.json,http://54.235.29.9/FacialAge/BNav_EC2/DepthDuration/v2_depth_duration_MTurk/v2_DepthDuration_HTML.html#6,6,1366,625,1366,768,8-20-2022,10-0-28,51,depth_duration_stimuli/000447_2014-06-08_16-15-46_260595134347_rgbf000130-resize_1/000447_2014-06-08_16-15-46_260595134347_rgbf000130-resize_1-target.png,250,4.479,14,4876,246,feet,jsons/v1_VE250_randls_64_rotated.json,1747985,2114239,35,Woman
51,433234,DepthScenes,duration_manipulation_targetAtFixation,jsons/v1_VE250_randls_64_rotated.json,http://54.235.29.9/FacialAge/BNav_EC2/DepthDuration/v2_depth_duration_MTurk/v2_DepthDuration_HTML.html#6,6,1366,625,1366,768,8-20-2022,10-0-28,52,depth_duration_stimuli/001828_2014-06-26_21-40-03_260595134347_rgbf000024-resize_0/001828_2014-06-26_21-40-03_260595134347_rgbf000024-resize_0-target.png,250,4.8260000000000005,13,3810,250,feet,jsons/v1_VE250_randls_64_rotated.json,1747985,2114239,35,Woman
52,433234,DepthScenes,duration_manipulation_targetAtFixation,jsons/v1_VE250_randls_64_rotated.json,http://54.235.29.9/FacialAge/BNav_EC2/DepthDuration/v2_depth_duration_MTurk/v2_DepthDuration_HTML.html#6,6,1366,625,1366,768,8-20-2022,10-0-28,53,depth_duration_stimuli/000009_2014-05-26_14-32-05_260595134347_rgbf000034-resize_3/000009_2014-05-26_14-32-05_260595134347_rgbf000034-resize_3-target.png,250,3.8715,11,4762,250,feet,jsons/v1_VE250_randls_64_rotated.json,1747985,2114239,35,Woman
53,433234,DepthScenes,duration_manipulation_targetAtFixation,jsons/v1_VE250_randls_64_rotated.json,http://54.235.29.9/FacialAge/BNav_EC2/DepthDuration/v2_depth_duration_MTurk/v2_DepthDuration_HTML.html#6,6,1366,625,1366,768,8-20-2022,10-0-28,54,depth_duration_stimuli/001450_2014-06-19_17-02-03_260595134347_rgbf000203-resize_4/001450_2014-06-19_17-02-03_260595134347_rgbf000203-resize_4-target.png,250,4.0106666666667,12,9614,249,feet,jsons/v1_VE250_randls_64_rotated.json,1747985,2114239,35,Woman
54,433234,DepthScenes,duration_manipulation_targetAtFixation,jsons/v1_VE250_randls_64_rotated.json,http://54.235.29.9/FacialAge/BNav_EC2/DepthDuration/v2_depth_duration_MTurk/v2_DepthDuration_HTML.html#6,6,1366,625,1366,768,8-20-2022,10-0-28,55,depth_duration_stimuli/001449_2014-06-19_17-01-27_260595134347_rgbf000116-resize_2/001449_2014-06-19_17-01-27_260595134347_rgbf000116-resize_2-target.png,250,3.452,13,5501,251,feet,jsons/v1_VE250_randls_64_rotated.json,1747985,2114239,35,Woman
55,433234,DepthScenes,duration_manipulation_targetAtFixation,jsons/v1_VE250_randls_64_rotated.json,http://54.235.29.9/FacialAge/BNav_EC2/DepthDuration/v2_depth_duration_MTurk/v2_DepthDuration_HTML.html#6,6,1366,625,1366,768,8-20-2022,10-0-28,56,depth_duration_stimuli/000780_2014-06-08_22-28-29_260595134347_rgbf000126-resize_1/000780_2014-06-08_22-28-29_260595134347_rgbf000126-resize_1-target.png,250,3.3825,11,3770,251,feet,jsons/v1_VE250_randls_64_rotated.json,1747985,2114239,35,Woman
56,433234,DepthScenes,duration_manipulation_targetAtFixation,jsons/v1_VE250_randls_64_rotated.json,http://54.235.29.9/FacialAge/BNav_EC2/DepthDuration/v2_depth_duration_MTurk/v2_DepthDuration_HTML.html#6,6,1366,625,1366,768,8-20-2022,10-0-28,57,depth_duration_stimuli/002445_2014-06-28_20-32-16_260595134347_rgbf000029-resize_4/002445_2014-06-28_20-32-16_260595134347_rgbf000029-resize_4-target.png,250,2.5315,12,449879,257,feet,jsons/v1_VE250_randls_64_rotated.json,1747985,2114239,35,Woman
57,433234,DepthScenes,duration_manipulation_targetAtFixation,jsons/v1_VE250_randls_64_rotated.json,http://54.235.29.9/FacialAge/BNav_EC2/DepthDuration/v2_depth_duration_MTurk/v2_DepthDuration_HTML.html#6,6,1366,625,1366,768,8-20-2022,10-0-28,58,depth_duration_stimuli/001392_2014-06-19_16-07-59_260595134347_rgbf000046-resize_1/001392_2014-06-19_16-07-59_260595134347_rgbf000046-resize_1-target.png,250,4.135,11,4887,250,feet,jsons/v1_VE250_randls_64_rotated.json,1747985,2114239,35,Woman
58,433234,DepthScenes,duration_manipulation_targetAtFixation,jsons/v1_VE250_randls_64_rotated.json,http://54.235.29.9/FacialAge/BNav_EC2/DepthDuration/v2_depth_duration_MTurk/v2_DepthDuration_HTML.html#6,6,1366,625,1366,768,8-20-2022,10-0-28,59,depth_duration_stimuli/001570_2014-06-20_17-21-09_260595134347_rgbf000135-resize_4/001570_2014-06-20_17-21-09_260595134347_rgbf000135-resize_4-target.png,250,4.467,12,5698,778,feet,jsons/v1_VE250_randls_64_rotated.json,1747985,2114239,35,Woman
59,433234,DepthScenes,duration_manipulation_targetAtFixation,jsons/v1_VE250_randls_64_rotated.json,http://54.235.29.9/FacialAge/BNav_EC2/DepthDuration/v2_depth_duration_MTurk/v2_DepthDuration_HTML.html#6,6,1366,625,1366,768,8-20-2022,10-0-28,60,depth_duration_stimuli/001100_2014-06-15_17-46-26_260595134347_rgbf000225-resize_2/001100_2014-06-15_17-46-26_260595134347_rgbf000225-resize_2-target.png,250,2.24,11,4031,249,feet,jsons/v1_VE250_randls_64_rotated.json,1747985,2114239,35,Woman
60,433234,DepthScenes,duration_manipulation_targetAtFixation,jsons/v1_VE250_randls_64_rotated.json,http://54.235.29.9/FacialAge/BNav_EC2/DepthDuration/v2_depth_duration_MTurk/v2_DepthDuration_HTML.html#6,6,1366,625,1366,768,8-20-2022,10-0-28,61,depth_duration_stimuli/002784_2014-06-22_19-26-30_094959634447_rgbf000083-resize_3/002784_2014-06-22_19-26-30_094959634447_rgbf000083-resize_3-target.png,250,1.8046666666667,13,2894,250,feet,jsons/v1_VE250_randls_64_rotated.json,1747985,2114239,35,Woman
61,433234,DepthScenes,duration_manipulation_targetAtFixation,jsons/v1_VE250_randls_64_rotated.json,http://54.235.29.9/FacialAge/BNav_EC2/DepthDuration/v2_depth_duration_MTurk/v2_DepthDuration_HTML.html#6,6,1366,625,1366,768,8-20-2022,10-0-28,62,depth_duration_stimuli/002344_2014-06-28_20-06-29_260595134347_rgbf000030-resize_1/002344_2014-06-28_20-06-29_260595134347_rgbf000030-resize_1-target.png,250,1.5795,12,3158,237,feet,jsons/v1_VE250_randls_64_rotated.json,1747985,2114239,35,Woman
62,433234,DepthScenes,duration_manipulation_targetAtFixation,jsons/v1_VE250_randls_64_rotated.json,http://54.235.29.9/FacialAge/BNav_EC2/DepthDuration/v2_depth_duration_MTurk/v2_DepthDuration_HTML.html#6,6,1366,625,1366,768,8-20-2022,10-0-28,63,depth_duration_stimuli/002725_2014-06-22_11-47-51_094959634447_rgbf000070-resize_1/002725_2014-06-22_11-47-51_094959634447_rgbf000070-resize_1-target.png,250,2.195,13,2988,260,feet,jsons/v1_VE250_randls_64_rotated.json,1747985,2114239,35,Woman
63,433234,DepthScenes,duration_manipulation_targetAtFixation,jsons/v1_VE250_randls_64_rotated.json,http://54.235.29.9/FacialAge/BNav_EC2/DepthDuration/v2_depth_duration_MTurk/v2_DepthDuration_HTML.html#6,6,1366,625,1366,768,8-20-2022,10-0-28,64,depth_duration_stimuli/002678_2014-06-13_16-15-32_094959634447_rgbf000151-resize_6/002678_2014-06-13_16-15-32_094959634447_rgbf000151-resize_6-target.png,250,2.1830000000000003,12,3237,233,feet,jsons/v1_VE250_randls_64_rotated.json,1747985,2114239,35,Woman
64,433234,DepthScenes,duration_manipulation_targetAtFixation,jsons/v1_VE250_randls_64_rotated.json,http://54.235.29.9/FacialAge/BNav_EC2/DepthDuration/v2_depth_duration_MTurk/v2_DepthDuration_HTML.html#6,6,1366,625,1366,768,8-20-2022,10-0-28,65,depth_duration_stimuli/000368_2014-06-09_15-53-01_260595134347_rgbf000155-resize_2/000368_2014-06-09_15-53-01_260595134347_rgbf000155-resize_2-target.png,250,2.4859999999999998,13,2857,339,feet,jsons/v1_VE250_randls_64_rotated.json,1747985,2114239,35,Woman
65,433234,DepthScenes,duration_manipulation_targetAtFixation,jsons/v1_VE250_randls_64_rotated.json,http://54.235.29.9/FacialAge/BNav_EC2/DepthDuration/v2_depth_duration_MTurk/v2_DepthDuration_HTML.html#6,6,1366,625,1366,768,8-20-2022,10-0-28,66,depth_duration_stimuli/001540_2014-06-20_17-01-05_260595134347_rgbf000086-resize_2/001540_2014-06-20_17-01-05_260595134347_rgbf000086-resize-original.jpg,250,1.459,13,2792,264,feet,jsons/v1_VE250_randls_64_rotated.json,1747985,2114239,35,Woman
66,433234,DepthScenes,duration_manipulation_targetAtFixation,jsons/v1_VE250_randls_64_rotated.json,http://54.235.29.9/FacialAge/BNav_EC2/DepthDuration/v2_depth_duration_MTurk/v2_DepthDuration_HTML.html#6,6,1366,625,1366,768,8-20-2022,10-0-28,67,depth_duration_stimuli/003083_2014-06-15_15-21-03_094959634447_rgbf000063-resize_1/003083_2014-06-15_15-21-03_094959634447_rgbf000063-resize_1-target.png,250,4.1405,12,2883,249,feet,jsons/v1_VE250_randls_64_rotated.json,1747985,2114239,35,Woman
67,433234,DepthScenes,duration_manipulation_targetAtFixation,jsons/v1_VE250_randls_64_rotated.json,http://54.235.29.9/FacialAge/BNav_EC2/DepthDuration/v2_depth_duration_MTurk/v2_DepthDuration_HTML.html#6,6,1366,625,1366,768,8-20-2022,10-0-28,68,depth_duration_stimuli/000486_2014-06-09_20-47-20_260595134347_rgbf000143-resize_2/000486_2014-06-09_20-47-20_260595134347_rgbf000143-resize_2-target.png,250,4.8325,0,3000,250,feet,jsons/v1_VE250_randls_64_rotated.json,1747985,2114239,35,Woman
68,433234,DepthScenes,duration_manipulation_targetAtFixation,jsons/v1_VE250_randls_64_rotated.json,http://54.235.29.9/FacialAge/BNav_EC2/DepthDuration/v2_depth_duration_MTurk/v2_DepthDuration_HTML.html#6,6,1366,625,1366,768,8-20-2022,10-0-28,69,depth_duration_stimuli/000409_2014-06-04_19-23-33_260595134347_rgbf000067-resize_0/000409_2014-06-04_19-23-33_260595134347_rgbf000067-resize_0-target.png,250,3.7335,13,3700,251,feet,jsons/v1_VE250_randls_64_rotated.json,1747985,2114239,35,Woman
69,433234,DepthScenes,duration_manipulation_targetAtFixation,jsons/v1_VE250_randls_64_rotated.json,http://54.235.29.9/FacialAge/BNav_EC2/DepthDuration/v2_depth_duration_MTurk/v2_DepthDuration_HTML.html#6,6,1366,625,1366,768,8-20-2022,10-0-28,70,depth_duration_stimuli/002663_2014-06-13_15-50-26_094959634447_rgbf000075-resize_1/002663_2014-06-13_15-50-26_094959634447_rgbf000075-resize_1-target.png,250,4.7495,12,2775,249,feet,jsons/v1_VE250_randls_64_rotated.json,1747985,2114239,35,Woman
70,433234,DepthScenes,duration_manipulation_targetAtFixation,jsons/v1_VE250_randls_64_rotated.json,http://54.235.29.9/FacialAge/BNav_EC2/DepthDuration/v2_depth_duration_MTurk/v2_DepthDuration_HTML.html#6,6,1366,625,1366,768,8-20-2022,10-0-28,71,depth_duration_stimuli/000691_2014-06-08_13-08-50_260595134347_rgbf000132-resize_3/000691_2014-06-08_13-08-50_260595134347_rgbf000132-resize_3-target.png,250,4.1530000000000005,13,2554,250,feet,jsons/v1_VE250_randls_64_rotated.json,1747985,2114239,35,Woman
71,433234,DepthScenes,duration_manipulation_targetAtFixation,jsons/v1_VE250_randls_64_rotated.json,http://54.235.29.9/FacialAge/BNav_EC2/DepthDuration/v2_depth_duration_MTurk/v2_DepthDuration_HTML.html#6,6,1366,625,1366,768,8-20-2022,10-0-28,72,depth_duration_stimuli/002213_2014-06-28_18-37-58_260595134347_rgbf000055-resize_1/002213_2014-06-28_18-37-58_260595134347_rgbf000055-resize_1-target.png,250,3.62,14,3397,249,feet,jsons/v1_VE250_randls_64_rotated.json,1747985,2114239,35,Woman
72,433234,DepthScenes,duration_manipulation_targetAtFixation,jsons/v1_VE250_randls_64_rotated.json,http://54.235.29.9/FacialAge/BNav_EC2/DepthDuration/v2_depth_duration_MTurk/v2_DepthDuration_HTML.html#6,6,1366,625,1366,768,8-20-2022,10-0-28,73,depth_duration_stimuli/001235_2014-06-17_16-37-36_260595134347_rgbf000084-resize_4/001235_2014-06-17_16-37-36_260595134347_rgbf000084-resize_4-target.png,250,3.6605,13,3722,345,feet,jsons/v1_VE250_randls_64_rotated.json,1747985,2114239,35,Woman
73,433234,DepthScenes,duration_manipulation_targetAtFixation,jsons/v1_VE250_randls_64_rotated.json,http://54.235.29.9/FacialAge/BNav_EC2/DepthDuration/v2_depth_duration_MTurk/v2_DepthDuration_HTML.html#6,6,1366,625,1366,768,8-20-2022,10-0-28,74,depth_duration_stimuli/000788_2014-06-08_22-34-36_260595134347_rgbf000131-resize_1/000788_2014-06-08_22-34-36_260595134347_rgbf000131-resize_1-target.png,250,3.359,13,2687,252,feet,jsons/v1_VE250_randls_64_rotated.json,1747985,2114239,35,Woman
74,433234,DepthScenes,duration_manipulation_targetAtFixation,jsons/v1_VE250_randls_64_rotated.json,http://54.235.29.9/FacialAge/BNav_EC2/DepthDuration/v2_depth_duration_MTurk/v2_DepthDuration_HTML.html#6,6,1366,625,1366,768,8-20-2022,10-0-28,75,depth_duration_stimuli/002660_2014-06-13_15-44-18_094959634447_rgbf001878-resize_2/002660_2014-06-13_15-44-18_094959634447_rgbf001878-resize_2-target.png,250,3.576,12,2677,226,feet,jsons/v1_VE250_randls_64_rotated.json,1747985,2114239,35,Woman
75,433234,DepthScenes,duration_manipulation_targetAtFixation,jsons/v1_VE250_randls_64_rotated.json,http://54.235.29.9/FacialAge/BNav_EC2/DepthDuration/v2_depth_duration_MTurk/v2_DepthDuration_HTML.html#6,6,1366,625,1366,768,8-20-2022,10-0-28,76,depth_duration_stimuli/002153_2014-06-25_21-27-18_260595134347_rgbf000038-resize_5/002153_2014-06-25_21-27-18_260595134347_rgbf000038-resize_5-target.png,250,2.505,14,2902,261,feet,jsons/v1_VE250_randls_64_rotated.json,1747985,2114239,35,Woman
76,433234,DepthScenes,duration_manipulation_targetAtFixation,jsons/v1_VE250_randls_64_rotated.json,http://54.235.29.9/FacialAge/BNav_EC2/DepthDuration/v2_depth_duration_MTurk/v2_DepthDuration_HTML.html#6,6,1366,625,1366,768,8-20-2022,10-0-28,77,depth_duration_stimuli/001650_2014-06-20_12-09-00_260595134347_rgbf000087-resize_3/001650_2014-06-20_12-09-00_260595134347_rgbf000087-resize_3-target.png,250,1.9505,17,3507,288,feet,jsons/v1_VE250_randls_64_rotated.json,1747985,2114239,35,Woman
77,433234,DepthScenes,duration_manipulation_targetAtFixation,jsons/v1_VE250_randls_64_rotated.json,http://54.235.29.9/FacialAge/BNav_EC2/DepthDuration/v2_depth_duration_MTurk/v2_DepthDuration_HTML.html#6,6,1366,625,1366,768,8-20-2022,10-0-28,78,depth_duration_stimuli/000682_2014-06-08_23-14-58_260595134347_rgbf000041-resize_5/000682_2014-06-08_23-14-58_260595134347_rgbf000041-resize_5-target.png,250,2.7239999999999998,14,3073,249,feet,jsons/v1_VE250_randls_64_rotated.json,1747985,2114239,35,Woman
78,433234,DepthScenes,duration_manipulation_targetAtFixation,jsons/v1_VE250_randls_64_rotated.json,http://54.235.29.9/FacialAge/BNav_EC2/DepthDuration/v2_depth_duration_MTurk/v2_DepthDuration_HTML.html#6,6,1366,625,1366,768,8-20-2022,10-0-28,79,depth_duration_stimuli/002467_2014-06-28_20-38-07_260595134347_rgbf000026-resize_2/002467_2014-06-28_20-38-07_260595134347_rgbf000026-resize_2-target.png,250,4.742,14,3733,257,feet,jsons/v1_VE250_randls_64_rotated.json,1747985,2114239,35,Woman
79,433234,DepthScenes,duration_manipulation_targetAtFixation,jsons/v1_VE250_randls_64_rotated.json,http://54.235.29.9/FacialAge/BNav_EC2/DepthDuration/v2_depth_duration_MTurk/v2_DepthDuration_HTML.html#6,6,1366,625,1366,768,8-20-2022,10-0-28,80,depth_duration_stimuli/002570_2014-06-24_13-59-54_094959634447_rgbf000059-resize_0/002570_2014-06-24_13-59-54_094959634447_rgbf000059-resize_0-target.png,250,4.037,13,3062,249,feet,jsons/v1_VE250_randls_64_rotated.json,1747985,2114239,35,Woman
80,433234,DepthScenes,duration_manipulation_targetAtFixation,jsons/v1_VE250_randls_64_rotated.json,http://54.235.29.9/FacialAge/BNav_EC2/DepthDuration/v2_depth_duration_MTurk/v2_DepthDuration_HTML.html#6,6,1366,625,1366,768,8-20-2022,10-0-28,81,depth_duration_stimuli/001094_2014-06-15_17-36-00_260595134347_rgbf000205-resize_0/001094_2014-06-15_17-36-00_260595134347_rgbf000205-resize_0-target.png,250,4.2175,12,3029,250,feet,jsons/v1_VE250_randls_64_rotated.json,1747985,2114239,35,Woman
81,433234,DepthScenes,duration_manipulation_targetAtFixation,jsons/v1_VE250_randls_64_rotated.json,http://54.235.29.9/FacialAge/BNav_EC2/DepthDuration/v2_depth_duration_MTurk/v2_DepthDuration_HTML.html#6,6,1366,625,1366,768,8-20-2022,10-0-28,82,depth_duration_stimuli/000692_2014-06-08_13-09-42_260595134347_rgbf000199-resize_2/000692_2014-06-08_13-09-42_260595134347_rgbf000199-resize_2-target.png,250,3.661,14,3294,249,feet,jsons/v1_VE250_randls_64_rotated.json,1747985,2114239,35,Woman
82,433234,DepthScenes,duration_manipulation_targetAtFixation,jsons/v1_VE250_randls_64_rotated.json,http://54.235.29.9/FacialAge/BNav_EC2/DepthDuration/v2_depth_duration_MTurk/v2_DepthDuration_HTML.html#6,6,1366,625,1366,768,8-20-2022,10-0-28,83,depth_duration_stimuli/002545_2014-06-24_13-38-53_094959634447_rgbf000080-resize_4/002545_2014-06-24_13-38-53_094959634447_rgbf000080-resize_4-target.png,250,1.9205,0,4601,268,feet,jsons/v1_VE250_randls_64_rotated.json,1747985,2114239,35,Woman
83,433234,DepthScenes,duration_manipulation_targetAtFixation,jsons/v1_VE250_randls_64_rotated.json,http://54.235.29.9/FacialAge/BNav_EC2/DepthDuration/v2_depth_duration_MTurk/v2_DepthDuration_HTML.html#6,6,1366,625,1366,768,8-20-2022,10-0-28,84,depth_duration_stimuli/001092_2014-06-15_17-34-58_260595134347_rgbf000171-resize_3/001092_2014-06-15_17-34-58_260595134347_rgbf000171-resize_3-target.png,250,2.6935,12,3595,262,feet,jsons/v1_VE250_randls_64_rotated.json,1747985,2114239,35,Woman
84,433234,DepthScenes,duration_manipulation_targetAtFixation,jsons/v1_VE250_randls_64_rotated.json,http://54.235.29.9/FacialAge/BNav_EC2/DepthDuration/v2_depth_duration_MTurk/v2_DepthDuration_HTML.html#6,6,1366,625,1366,768,8-20-2022,10-0-28,85,depth_duration_stimuli/001214_2014-06-17_16-13-55_260595134347_rgbf000111-resize_0/001214_2014-06-17_16-13-55_260595134347_rgbf000111-resize_0-target.png,250,2.6505,13,2941,275,feet,jsons/v1_VE250_randls_64_rotated.json,1747985,2114239,35,Woman
85,433234,DepthScenes,duration_manipulation_targetAtFixation,jsons/v1_VE250_randls_64_rotated.json,http://54.235.29.9/FacialAge/BNav_EC2/DepthDuration/v2_depth_duration_MTurk/v2_DepthDuration_HTML.html#6,6,1366,625,1366,768,8-20-2022,10-0-28,86,depth_duration_stimuli/000810_2014-06-08_17-20-01_260595134347_rgbf000105-resize_0/000810_2014-06-08_17-20-01_260595134347_rgbf000105-resize_0-target.png,250,1.4865,12,15869,244,feet,jsons/v1_VE250_randls_64_rotated.json,1747985,2114239,35,Woman
86,433234,DepthScenes,duration_manipulation_targetAtFixation,jsons/v1_VE250_randls_64_rotated.json,http://54.235.29.9/FacialAge/BNav_EC2/DepthDuration/v2_depth_duration_MTurk/v2_DepthDuration_HTML.html#6,6,1366,625,1366,768,8-20-2022,10-0-28,87,depth_duration_stimuli/001136_2014-06-17_15-19-41_260595134347_rgbf000076-resize_3/001136_2014-06-17_15-19-41_260595134347_rgbf000076-resize_3-target.png,250,1.8655,14,2623,253,feet,jsons/v1_VE250_randls_64_rotated.json,1747985,2114239,35,Woman
87,433234,DepthScenes,duration_manipulation_targetAtFixation,jsons/v1_VE250_randls_64_rotated.json,http://54.235.29.9/FacialAge/BNav_EC2/DepthDuration/v2_depth_duration_MTurk/v2_DepthDuration_HTML.html#6,6,1366,625,1366,768,8-20-2022,10-0-28,88,depth_duration_stimuli/001164_2014-06-17_15-35-46_260595134347_rgbf000085-resize_3/001164_2014-06-17_15-35-46_260595134347_rgbf000085-resize_3-target.png,250,2.354,12,2665,249,feet,jsons/v1_VE250_randls_64_rotated.json,1747985,2114239,35,Woman
88,433234,DepthScenes,duration_manipulation_targetAtFixation,jsons/v1_VE250_randls_64_rotated.json,http://54.235.29.9/FacialAge/BNav_EC2/DepthDuration/v2_depth_duration_MTurk/v2_DepthDuration_HTML.html#6,6,1366,625,1366,768,8-20-2022,10-0-28,89,depth_duration_stimuli/000549_2014-06-08_22-10-24_260595134347_rgbf000247-resize_3/000549_2014-06-08_22-10-24_260595134347_rgbf000247-resize_3-target.png,250,1.841,14,2804,284,feet,jsons/v1_VE250_randls_64_rotated.json,1747985,2114239,35,Woman
89,433234,DepthScenes,duration_manipulation_targetAtFixation,jsons/v1_VE250_randls_64_rotated.json,http://54.235.29.9/FacialAge/BNav_EC2/DepthDuration/v2_depth_duration_MTurk/v2_DepthDuration_HTML.html#6,6,1366,625,1366,768,8-20-2022,10-0-28,90,depth_duration_stimuli/001055_2014-06-08_18-45-35_260595134347_rgbf000111-resize_4/001055_2014-06-08_18-45-35_260595134347_rgbf000111-resize_4-target.png,250,2.4290000000000003,12,2724,235,feet,jsons/v1_VE250_randls_64_rotated.json,1747985,2114239,35,Woman
90,433234,DepthScenes,duration_manipulation_targetAtFixation,jsons/v1_VE250_randls_64_rotated.json,http://54.235.29.9/FacialAge/BNav_EC2/DepthDuration/v2_depth_duration_MTurk/v2_DepthDuration_HTML.html#6,6,1366,625,1366,768,8-20-2022,10-0-28,91,depth_duration_stimuli/000742_2014-06-08_18-48-09_260595134347_rgbf000164-resize_4/000742_2014-06-08_18-48-09_260595134347_rgbf000164-resize_4-target.png,250,4.632,13,3291,250,feet,jsons/v1_VE250_randls_64_rotated.json,1747985,2114239,35,Woman
91,433234,DepthScenes,duration_manipulation_targetAtFixation,jsons/v1_VE250_randls_64_rotated.json,http://54.235.29.9/FacialAge/BNav_EC2/DepthDuration/v2_depth_duration_MTurk/v2_DepthDuration_HTML.html#6,6,1366,625,1366,768,8-20-2022,10-0-28,92,depth_duration_stimuli/001066_2014-06-08_22-03-20_260595134347_rgbf000066-resize_4/001066_2014-06-08_22-03-20_260595134347_rgbf000066-resize_4-target.png,250,4.2330000000000005,13,53345,244,feet,jsons/v1_VE250_randls_64_rotated.json,1747985,2114239,35,Woman
92,433234,DepthScenes,duration_manipulation_targetAtFixation,jsons/v1_VE250_randls_64_rotated.json,http://54.235.29.9/FacialAge/BNav_EC2/DepthDuration/v2_depth_duration_MTurk/v2_DepthDuration_HTML.html#6,6,1366,625,1366,768,8-20-2022,10-0-28,93,depth_duration_stimuli/000137_2014-05-20_17-04-49_260595134347_rgbf000120-resize_1/000137_2014-05-20_17-04-49_260595134347_rgbf000120-resize_1-target.png,250,3.786,13,18758,211,feet,jsons/v1_VE250_randls_64_rotated.json,1747985,2114239,35,Woman
93,433234,DepthScenes,duration_manipulation_targetAtFixation,jsons/v1_VE250_randls_64_rotated.json,http://54.235.29.9/FacialAge/BNav_EC2/DepthDuration/v2_depth_duration_MTurk/v2_DepthDuration_HTML.html#6,6,1366,625,1366,768,8-20-2022,10-0-28,94,depth_duration_stimuli/000736_2014-06-08_18-24-15_260595134347_rgbf000206-resize_3/000736_2014-06-08_18-24-15_260595134347_rgbf000206-resize_3-target.png,250,3.515,13,2779,250,feet,jsons/v1_VE250_randls_64_rotated.json,1747985,2114239,35,Woman
94,433234,DepthScenes,duration_manipulation_targetAtFixation,jsons/v1_VE250_randls_64_rotated.json,http://54.235.29.9/FacialAge/BNav_EC2/DepthDuration/v2_depth_duration_MTurk/v2_DepthDuration_HTML.html#6,6,1366,625,1366,768,8-20-2022,10-0-28,95,depth_duration_stimuli/000734_2014-06-08_17-39-11_260595134347_rgbf000128-resize_2/000734_2014-06-08_17-39-11_260595134347_rgbf000128-resize_2-target.png,250,4.098,13,7955,249,feet,jsons/v1_VE250_randls_64_rotated.json,1747985,2114239,35,Woman
95,433234,DepthScenes,duration_manipulation_targetAtFixation,jsons/v1_VE250_randls_64_rotated.json,http://54.235.29.9/FacialAge/BNav_EC2/DepthDuration/v2_depth_duration_MTurk/v2_DepthDuration_HTML.html#6,6,1366,625,1366,768,8-20-2022,10-0-28,96,depth_duration_stimuli/000739_2014-06-08_18-45-58_260595134347_rgbf000068-resize_1/000739_2014-06-08_18-45-58_260595134347_rgbf000068-resize_1-target.png,250,3.534,14,3085,246,feet,jsons/v1_VE250_randls_64_rotated.json,1747985,2114239,35,Woman
96,433234,DepthScenes,duration_manipulation_targetAtFixation,jsons/v1_VE250_randls_64_rotated.json,http://54.235.29.9/FacialAge/BNav_EC2/DepthDuration/v2_depth_duration_MTurk/v2_DepthDuration_HTML.html#6,6,1366,625,1366,768,8-20-2022,10-0-28,97,depth_duration_stimuli/003010_2014-06-15_12-54-35_094959634447_rgbf000112-resize_0/003010_2014-06-15_12-54-35_094959634447_rgbf000112-resize_0-target.png,250,3.1185,13,2556,249,feet,jsons/v1_VE250_randls_64_rotated.json,1747985,2114239,35,Woman
97,433234,DepthScenes,duration_manipulation_targetAtFixation,jsons/v1_VE250_randls_64_rotated.json,http://54.235.29.9/FacialAge/BNav_EC2/DepthDuration/v2_depth_duration_MTurk/v2_DepthDuration_HTML.html#6,6,1366,625,1366,768,8-20-2022,10-0-28,98,depth_duration_stimuli/001810_2014-06-26_20-51-35_260595134347_rgbf000040-resize_3/001810_2014-06-26_20-51-35_260595134347_rgbf000040-resize_3-target.png,250,2.2525,13,2778,247,feet,jsons/v1_VE250_randls_64_rotated.json,1747985,2114239,35,Woman
98,433234,DepthScenes,duration_manipulation_targetAtFixation,jsons/v1_VE250_randls_64_rotated.json,http://54.235.29.9/FacialAge/BNav_EC2/DepthDuration/v2_depth_duration_MTurk/v2_DepthDuration_HTML.html#6,6,1366,625,1366,768,8-20-2022,10-0-28,99,depth_duration_stimuli/001222_2014-06-17_16-24-06_260595134347_rgbf000073-resize_0/001222_2014-06-17_16-24-06_260595134347_rgbf000073-resize-original.jpg,250,1.4385,12,4704,247,feet,jsons/v1_VE250_randls_64_rotated.json,1747985,2114239,35,Woman
99,433234,DepthScenes,duration_manipulation_targetAtFixation,jsons/v1_VE250_randls_64_rotated.json,http://54.235.29.9/FacialAge/BNav_EC2/DepthDuration/v2_depth_duration_MTurk/v2_DepthDuration_HTML.html#6,6,1366,625,1366,768,8-20-2022,10-0-28,100,depth_duration_stimuli/001584_2014-06-20_11-07-43_260595134347_rgbf000002-resize_1/001584_2014-06-20_11-07-43_260595134347_rgbf000002-resize_1-target.png,250,3.53,13,2908,247,feet,jsons/v1_VE250_randls_64_rotated.json,1747985,2114239,35,Woman
100,433234,DepthScenes,duration_manipulation_targetAtFixation,jsons/v1_VE250_randls_64_rotated.json,http://54.235.29.9/FacialAge/BNav_EC2/DepthDuration/v2_depth_duration_MTurk/v2_DepthDuration_HTML.html#6,6,1366,625,1366,768,8-20-2022,10-0-28,101,depth_duration_stimuli/003621_2014-05-23_18-06-08_094959634447_rgbf000101-resize_1/003621_2014-05-23_18-06-08_094959634447_rgbf000101-resize_1-target.png,250,3.9835,12,2513,248,feet,jsons/v1_VE250_randls_64_rotated.json,1747985,2114239,35,Woman
101,433234,DepthScenes,duration_manipulation_targetAtFixation,jsons/v1_VE250_randls_64_rotated.json,http://54.235.29.9/FacialAge/BNav_EC2/DepthDuration/v2_depth_duration_MTurk/v2_DepthDuration_HTML.html#6,6,1366,625,1366,768,8-20-2022,10-0-28,102,depth_duration_stimuli/000109_2014-05-14_23-41-52_260595134347_rgbf000035-resize_9/000109_2014-05-14_23-41-52_260595134347_rgbf000035-resize_9-target.png,250,1.3545,13,6801,248,feet,jsons/v1_VE250_randls_64_rotated.json,1747985,2114239,35,Woman
102,433234,DepthScenes,duration_manipulation_targetAtFixation,jsons/v1_VE250_randls_64_rotated.json,http://54.235.29.9/FacialAge/BNav_EC2/DepthDuration/v2_depth_duration_MTurk/v2_DepthDuration_HTML.html#6,6,1366,625,1366,768,8-20-2022,10-0-28,103,depth_duration_stimuli/000470_2014-06-09_19-42-40_260595134347_rgbf000094-resize_1/000470_2014-06-09_19-42-40_260595134347_rgbf000094-resize_1-target.png,250,1.831,12,32883,243,feet,jsons/v1_VE250_randls_64_rotated.json,1747985,2114239,35,Woman
103,433234,DepthScenes,duration_manipulation_targetAtFixation,jsons/v1_VE250_randls_64_rotated.json,http://54.235.29.9/FacialAge/BNav_EC2/DepthDuration/v2_depth_duration_MTurk/v2_DepthDuration_HTML.html#6,6,1366,625,1366,768,8-20-2022,10-0-28,104,depth_duration_stimuli/003048_2014-06-15_13-49-43_094959634447_rgbf000150-resize_1/003048_2014-06-15_13-49-43_094959634447_rgbf000150-resize_1-target.png,250,4.0035,11,4818,247,feet,jsons/v1_VE250_randls_64_rotated.json,1747985,2114239,35,Woman
104,433234,DepthScenes,duration_manipulation_targetAtFixation,jsons/v1_VE250_randls_64_rotated.json,http://54.235.29.9/FacialAge/BNav_EC2/DepthDuration/v2_depth_duration_MTurk/v2_DepthDuration_HTML.html#6,6,1366,625,1366,768,8-20-2022,10-0-28,105,depth_duration_stimuli/002043_2014-06-24_20-29-38_260595134347_rgbf000039-resize_4/002043_2014-06-24_20-29-38_260595134347_rgbf000039-resize_4-target.png,250,2.8435,12,5449,250,feet,jsons/v1_VE250_randls_64_rotated.json,1747985,2114239,35,Woman
105,433234,DepthScenes,duration_manipulation_targetAtFixation,jsons/v1_VE250_randls_64_rotated.json,http://54.235.29.9/FacialAge/BNav_EC2/DepthDuration/v2_depth_duration_MTurk/v2_DepthDuration_HTML.html#6,6,1366,625,1366,768,8-20-2022,10-0-28,106,depth_duration_stimuli/002209_2014-06-28_18-36-10_260595134347_rgbf000051-resize_1/002209_2014-06-28_18-36-10_260595134347_rgbf000051-resize_1-target.png,250,2.057,13,4322,250,feet,jsons/v1_VE250_randls_64_rotated.json,1747985,2114239,35,Woman
106,433234,DepthScenes,duration_manipulation_targetAtFixation,jsons/v1_VE250_randls_64_rotated.json,http://54.235.29.9/FacialAge/BNav_EC2/DepthDuration/v2_depth_duration_MTurk/v2_DepthDuration_HTML.html#6,6,1366,625,1366,768,8-20-2022,10-0-28,107,depth_duration_stimuli/002763_2014-06-22_19-13-10_094959634447_rgbf000075-resize_4/002763_2014-06-22_19-13-10_094959634447_rgbf000075-resize_4-target.png,250,1.68375,14,12698,249,feet,jsons/v1_VE250_randls_64_rotated.json,1747985,2114239,35,Woman
107,433234,DepthScenes,duration_manipulation_targetAtFixation,jsons/v1_VE250_randls_64_rotated.json,http://54.235.29.9/FacialAge/BNav_EC2/DepthDuration/v2_depth_duration_MTurk/v2_DepthDuration_HTML.html#6,6,1366,625,1366,768,8-20-2022,10-0-28,108,depth_duration_stimuli/003587_2014-05-23_16-48-02_094959634447_rgbf002384-resize_2/003587_2014-05-23_16-48-02_094959634447_rgbf002384-resize_2-target.png,250,1.357,13,5769,252,feet,jsons/v1_VE250_randls_64_rotated.json,1747985,2114239,35,Woman
108,433234,DepthScenes,duration_manipulation_targetAtFixation,jsons/v1_VE250_randls_64_rotated.json,http://54.235.29.9/FacialAge/BNav_EC2/DepthDuration/v2_depth_duration_MTurk/v2_DepthDuration_HTML.html#6,6,1366,625,1366,768,8-20-2022,10-0-28,109,depth_duration_stimuli/001167_2014-06-17_15-38-07_260595134347_rgbf000108-resize_0/001167_2014-06-17_15-38-07_260595134347_rgbf000108-resize_0-target.png,250,1.8505,14,10396,251,feet,jsons/v1_VE250_randls_64_rotated.json,1747985,2114239,35,Woman
109,433234,DepthScenes,duration_manipulation_targetAtFixation,jsons/v1_VE250_randls_64_rotated.json,http://54.235.29.9/FacialAge/BNav_EC2/DepthDuration/v2_depth_duration_MTurk/v2_DepthDuration_HTML.html#6,6,1366,625,1366,768,8-20-2022,10-0-28,110,depth_duration_stimuli/000502_2014-06-08_23-02-32_260595134347_rgbf000063-resize_4/000502_2014-06-08_23-02-32_260595134347_rgbf000063-resize_4-target.png,250,2.431,13,3150,242,feet,jsons/v1_VE250_randls_64_rotated.json,1747985,2114239,35,Woman
110,433234,DepthScenes,duration_manipulation_targetAtFixation,jsons/v1_VE250_randls_64_rotated.json,http://54.235.29.9/FacialAge/BNav_EC2/DepthDuration/v2_depth_duration_MTurk/v2_DepthDuration_HTML.html#6,6,1366,625,1366,768,8-20-2022,10-0-28,111,depth_duration_stimuli/001199_2014-06-17_16-03-48_260595134347_rgbf000077-resize_0/001199_2014-06-17_16-03-48_260595134347_rgbf000077-resize_0-target.png,250,3.4375,12,2768,239,feet,jsons/v1_VE250_randls_64_rotated.json,1747985,2114239,35,Woman
111,433234,DepthScenes,duration_manipulation_targetAtFixation,jsons/v1_VE250_randls_64_rotated.json,http://54.235.29.9/FacialAge/BNav_EC2/DepthDuration/v2_depth_duration_MTurk/v2_DepthDuration_HTML.html#6,6,1366,625,1366,768,8-20-2022,10-0-28,112,depth_duration_stimuli/000103_2014-05-14_22-01-17_260595134347_rgbf000152-resize_5/000103_2014-05-14_22-01-17_260595134347_rgbf000152-resize_5-target.png,250,1.993,14,2647,299,feet,jsons/v1_VE250_randls_64_rotated.json,1747985,2114239,35,Woman
112,433234,DepthScenes,duration_manipulation_targetAtFixation,jsons/v1_VE250_randls_64_rotated.json,http://54.235.29.9/FacialAge/BNav_EC2/DepthDuration/v2_depth_duration_MTurk/v2_DepthDuration_HTML.html#6,6,1366,625,1366,768,8-20-2022,10-0-28,113,depth_duration_stimuli/001555_2014-06-20_17-12-10_260595134347_rgbf000065-resize_4/001555_2014-06-20_17-12-10_260595134347_rgbf000065-resize_4-target.png,250,1.633,14,2809,253,feet,jsons/v1_VE250_randls_64_rotated.json,1747985,2114239,35,Woman
113,433234,DepthScenes,duration_manipulation_targetAtFixation,jsons/v1_VE250_randls_64_rotated.json,http://54.235.29.9/FacialAge/BNav_EC2/DepthDuration/v2_depth_duration_MTurk/v2_DepthDuration_HTML.html#6,6,1366,625,1366,768,8-20-2022,10-0-28,114,depth_duration_stimuli/002340_2014-06-28_20-05-46_260595134347_rgbf000113-resize_0/002340_2014-06-28_20-05-46_260595134347_rgbf000113-resize_0-target.png,250,2.4735,13,4627,246,feet,jsons/v1_VE250_randls_64_rotated.json,1747985,2114239,35,Woman
114,433234,DepthScenes,duration_manipulation_targetAtFixation,jsons/v1_VE250_randls_64_rotated.json,http://54.235.29.9/FacialAge/BNav_EC2/DepthDuration/v2_depth_duration_MTurk/v2_DepthDuration_HTML.html#6,6,1366,625,1366,768,8-20-2022,10-0-28,115,depth_duration_stimuli/001016_2014-06-09_16-16-10_260595134347_rgbf000112-resize_5/001016_2014-06-09_16-16-10_260595134347_rgbf000112-resize_5-target.png,250,1.6565,12,2585,248,feet,jsons/v1_VE250_randls_64_rotated.json,1747985,2114239,35,Woman
115,433234,DepthScenes,duration_manipulation_targetAtFixation,jsons/v1_VE250_randls_64_rotated.json,http://54.235.29.9/FacialAge/BNav_EC2/DepthDuration/v2_depth_duration_MTurk/v2_DepthDuration_HTML.html#6,6,1366,625,1366,768,8-20-2022,10-0-28,116,depth_duration_stimuli/001571_2014-06-20_17-21-32_260595134347_rgbf000089-resize_1/001571_2014-06-20_17-21-32_260595134347_rgbf000089-resize_1-target.png,250,1.86,12,3638,248,feet,jsons/v1_VE250_randls_64_rotated.json,1747985,2114239,35,Woman
116,433234,DepthScenes,duration_manipulation_targetAtFixation,jsons/v1_VE250_randls_64_rotated.json,http://54.235.29.9/FacialAge/BNav_EC2/DepthDuration/v2_depth_duration_MTurk/v2_DepthDuration_HTML.html#6,6,1366,625,1366,768,8-20-2022,10-0-28,117,depth_duration_stimuli/002272_2014-06-28_18-53-56_260595134347_rgbf000067-resize_2/002272_2014-06-28_18-53-56_260595134347_rgbf000067-resize_2-target.png,250,1.138,13,2746,250,feet,jsons/v1_VE250_randls_64_rotated.json,1747985,2114239,35,Woman
117,433234,DepthScenes,duration_manipulation_targetAtFixation,jsons/v1_VE250_randls_64_rotated.json,http://54.235.29.9/FacialAge/BNav_EC2/DepthDuration/v2_depth_duration_MTurk/v2_DepthDuration_HTML.html#6,6,1366,625,1366,768,8-20-2022,10-0-28,118,depth_duration_stimuli/003081_2014-06-15_15-19-16_094959634447_rgbf000150-resize_1/003081_2014-06-15_15-19-16_094959634447_rgbf000150-resize_1-target.png,250,3.9125,13,2561,324,feet,jsons/v1_VE250_randls_64_rotated.json,1747985,2114239,35,Woman
118,433234,DepthScenes,duration_manipulation_targetAtFixation,jsons/v1_VE250_randls_64_rotated.json,http://54.235.29.9/FacialAge/BNav_EC2/DepthDuration/v2_depth_duration_MTurk/v2_DepthDuration_HTML.html#6,6,1366,625,1366,768,8-20-2022,10-0-28,119,depth_duration_stimuli/001417_2014-06-19_16-25-36_260595134347_rgbf000115-resize_5/001417_2014-06-19_16-25-36_260595134347_rgbf000115-resize_5-target.png,250,4.6255,14,2728,249,feet,jsons/v1_VE250_randls_64_rotated.json,1747985,2114239,35,Woman
119,433234,DepthScenes,duration_manipulation_targetAtFixation,jsons/v1_VE250_randls_64_rotated.json,http://54.235.29.9/FacialAge/BNav_EC2/DepthDuration/v2_depth_duration_MTurk/v2_DepthDuration_HTML.html#6,6,1366,625,1366,768,8-20-2022,10-0-28,120,depth_duration_stimuli/000787_2014-06-08_22-33-53_260595134347_rgbf000175-resize_1/000787_2014-06-08_22-33-53_260595134347_rgbf000175-resize-original.jpg,250,4.784,13,2499,163,feet,jsons/v1_VE250_randls_64_rotated.json,1747985,2114239,35,Woman
120,433234,DepthScenes,duration_manipulation_targetAtFixation,jsons/v1_VE250_randls_64_rotated.json,http://54.235.29.9/FacialAge/BNav_EC2/DepthDuration/v2_depth_duration_MTurk/v2_DepthDuration_HTML.html#6,6,1366,625,1366,768,8-20-2022,10-0-28,121,depth_duration_stimuli/002995_2014-06-15_12-31-26_094959634447_rgbf000150-resize_1/002995_2014-06-15_12-31-26_094959634447_rgbf000150-resize_1-target.png,250,3.8360000000000003,13,3103,263,feet,jsons/v1_VE250_randls_64_rotated.json,1747985,2114239,35,Woman
121,433234,DepthScenes,duration_manipulation_targetAtFixation,jsons/v1_VE250_randls_64_rotated.json,http://54.235.29.9/FacialAge/BNav_EC2/DepthDuration/v2_depth_duration_MTurk/v2_DepthDuration_HTML.html#6,6,1366,625,1366,768,8-20-2022,10-0-28,122,depth_duration_stimuli/002748_2014-06-22_19-07-22_094959634447_rgbf000078-resize_1/002748_2014-06-22_19-07-22_094959634447_rgbf000078-resize_1-target.png,250,4.6705,12,2584,256,feet,jsons/v1_VE250_randls_64_rotated.json,1747985,2114239,35,Woman
122,433234,DepthScenes,duration_manipulation_targetAtFixation,jsons/v1_VE250_randls_64_rotated.json,http://54.235.29.9/FacialAge/BNav_EC2/DepthDuration/v2_depth_duration_MTurk/v2_DepthDuration_HTML.html#6,6,1366,625,1366,768,8-20-2022,10-0-28,123,depth_duration_stimuli/000677_2014-06-08_23-10-32_260595134347_rgbf000158-resize_6/000677_2014-06-08_23-10-32_260595134347_rgbf000158-resize_6-target.png,250,3.556,12,2511,263,feet,jsons/v1_VE250_randls_64_rotated.json,1747985,2114239,35,Woman
123,433234,DepthScenes,duration_manipulation_targetAtFixation,jsons/v1_VE250_randls_64_rotated.json,http://54.235.29.9/FacialAge/BNav_EC2/DepthDuration/v2_depth_duration_MTurk/v2_DepthDuration_HTML.html#6,6,1366,625,1366,768,8-20-2022,10-0-28,124,depth_duration_stimuli/001029_2014-06-08_13-17-57_260595134347_rgbf000065-resize_1/001029_2014-06-08_13-17-57_260595134347_rgbf000065-resize_1-target.png,250,3.0835,13,24836,250,feet,jsons/v1_VE250_randls_64_rotated.json,1747985,2114239,35,Woman
124,433234,DepthScenes,duration_manipulation_targetAtFixation,jsons/v1_VE250_randls_64_rotated.json,http://54.235.29.9/FacialAge/BNav_EC2/DepthDuration/v2_depth_duration_MTurk/v2_DepthDuration_HTML.html#6,6,1366,625,1366,768,8-20-2022,10-0-28,125,depth_duration_stimuli/002568_2014-06-24_13-59-21_094959634447_rgbf000062-resize_4/002568_2014-06-24_13-59-21_094959634447_rgbf000062-resize_4-target.png,250,3.015,13,15268,250,feet,jsons/v1_VE250_randls_64_rotated.json,1747985,2114239,35,Woman
125,433234,DepthScenes,duration_manipulation_targetAtFixation,jsons/v1_VE250_randls_64_rotated.json,http://54.235.29.9/FacialAge/BNav_EC2/DepthDuration/v2_depth_duration_MTurk/v2_DepthDuration_HTML.html#6,6,1366,625,1366,768,8-20-2022,10-0-28,126,depth_duration_stimuli/003492_2014-05-21_15-50-55_094959634447_rgbf000828-resize_1/003492_2014-05-21_15-50-55_094959634447_rgbf000828-resize_1-target.png,250,4.06875,13,5931,196,feet,jsons/v1_VE250_randls_64_rotated.json,1747985,2114239,35,Woman
126,433234,DepthScenes,duration_manipulation_targetAtFixation,jsons/v1_VE250_randls_64_rotated.json,http://54.235.29.9/FacialAge/BNav_EC2/DepthDuration/v2_depth_duration_MTurk/v2_DepthDuration_HTML.html#6,6,1366,625,1366,768,8-20-2022,10-0-28,127,depth_duration_stimuli/001815_2014-06-26_20-52-55_260595134347_rgbf000020-resize_0/001815_2014-06-26_20-52-55_260595134347_rgbf000020-resize_0-target.png,250,3.3865,15,6825,247,feet,jsons/v1_VE250_randls_64_rotated.json,1747985,2114239,35,Woman
127,433234,DepthScenes,duration_manipulation_targetAtFixation,jsons/v1_VE250_randls_64_rotated.json,http://54.235.29.9/FacialAge/BNav_EC2/DepthDuration/v2_depth_duration_MTurk/v2_DepthDuration_HTML.html#6,6,1366,625,1366,768,8-20-2022,10-0-28,128,depth_duration_stimuli/001808_2014-06-26_20-50-58_260595134347_rgbf000029-resize_1/001808_2014-06-26_20-50-58_260595134347_rgbf000029-resize_1-target.png,250,4.249,14,4171,263,feet,jsons/v1_VE250_randls_64_rotated.json,1747985,2114239,35,Woman
128,433234,DepthScenes,duration_manipulation_targetAtFixation,jsons/v1_VE250_randls_64_rotated.json,http://54.235.29.9/FacialAge/BNav_EC2/DepthDuration/v2_depth_duration_MTurk/v2_DepthDuration_HTML.html#6,6,1366,625,1366,768,8-20-2022,10-0-28,129,depth_duration_stimuli/000191_2014-05-12_17-07-38_260595134347_rgbf000199-resize_0/000191_2014-05-12_17-07-38_260595134347_rgbf000199-resize_0-target.png,250,3.7995,12,4112,261,feet,jsons/v1_VE250_randls_64_rotated.json,1747985,2114239,35,Woman
129,433234,DepthScenes,duration_manipulation_targetAtFixation,jsons/v1_VE250_randls_64_rotated.json,http://54.235.29.9/FacialAge/BNav_EC2/DepthDuration/v2_depth_duration_MTurk/v2_DepthDuration_HTML.html#6,6,1366,625,1366,768,8-20-2022,10-0-28,130,depth_duration_stimuli/000493_2014-06-09_21-01-18_260595134347_rgbf000196-resize_3/000493_2014-06-09_21-01-18_260595134347_rgbf000196-resize_3-target.png,250,3.44,14,3262,208,feet,jsons/v1_VE250_randls_64_rotated.json,1747985,2114239,35,Woman
130,433234,DepthScenes,duration_manipulation_targetAtFixation,jsons/v1_VE250_randls_64_rotated.json,http://54.235.29.9/FacialAge/BNav_EC2/DepthDuration/v2_depth_duration_MTurk/v2_DepthDuration_HTML.html#6,6,1366,625,1366,768,8-20-2022,10-0-28,131,depth_duration_stimuli/002953_2014-06-08_17-32-18_094959634447_rgbf000059-resize_5/002953_2014-06-08_17-32-18_094959634447_rgbf000059-resize_5-target.png,250,1.551,12,2611,249,feet,jsons/v1_VE250_randls_64_rotated.json,1747985,2114239,35,Woman
131,433234,DepthScenes,duration_manipulation_targetAtFixation,jsons/v1_VE250_randls_64_rotated.json,http://54.235.29.9/FacialAge/BNav_EC2/DepthDuration/v2_depth_duration_MTurk/v2_DepthDuration_HTML.html#6,6,1366,625,1366,768,8-20-2022,10-0-28,132,depth_duration_stimuli/000878_2014-06-08_22-52-45_260595134347_rgbf000045-resize_2/000878_2014-06-08_22-52-45_260595134347_rgbf000045-resize_2-target.png,250,2.092,13,2569,213,feet,jsons/v1_VE250_randls_64_rotated.json,1747985,2114239,35,Woman
132,433234,DepthScenes,duration_manipulation_targetAtFixation,jsons/v1_VE250_randls_64_rotated.json,http://54.235.29.9/FacialAge/BNav_EC2/DepthDuration/v2_depth_duration_MTurk/v2_DepthDuration_HTML.html#6,6,1366,625,1366,768,8-20-2022,10-0-28,133,depth_duration_stimuli/000457_2014-06-08_16-52-43_260595134347_rgbf000199-resize_1/000457_2014-06-08_16-52-43_260595134347_rgbf000199-resize_1-target.png,250,3.6489999999999996,13,2649,249,feet,jsons/v1_VE250_randls_64_rotated.json,1747985,2114239,35,Woman
133,433234,DepthScenes,duration_manipulation_targetAtFixation,jsons/v1_VE250_randls_64_rotated.json,http://54.235.29.9/FacialAge/BNav_EC2/DepthDuration/v2_depth_duration_MTurk/v2_DepthDuration_HTML.html#6,6,1366,625,1366,768,8-20-2022,10-0-28,134,depth_duration_stimuli/000929_2014-06-09_16-33-19_260595134347_rgbf000139-resize_0/000929_2014-06-09_16-33-19_260595134347_rgbf000139-resize_0-target.png,250,2.8680000000000003,14,2705,242,feet,jsons/v1_VE250_randls_64_rotated.json,1747985,2114239,35,Woman
134,433234,DepthScenes,duration_manipulation_targetAtFixation,jsons/v1_VE250_randls_64_rotated.json,http://54.235.29.9/FacialAge/BNav_EC2/DepthDuration/v2_depth_duration_MTurk/v2_DepthDuration_HTML.html#6,6,1366,625,1366,768,8-20-2022,10-0-28,135,depth_duration_stimuli/000375_2014-06-08_11-17-29_260595134347_rgbf000133-resize_2/000375_2014-06-08_11-17-29_260595134347_rgbf000133-resize-original.jpg,250,4.718,13,2677,249,feet,jsons/v1_VE250_randls_64_rotated.json,1747985,2114239,35,Woman
135,433234,DepthScenes,duration_manipulation_targetAtFixation,jsons/v1_VE250_randls_64_rotated.json,http://54.235.29.9/FacialAge/BNav_EC2/DepthDuration/v2_depth_duration_MTurk/v2_DepthDuration_HTML.html#6,6,1366,625,1366,768,8-20-2022,10-0-28,136,depth_duration_stimuli/000943_2014-06-09_19-31-07_260595134347_rgbf000128-resize_1/000943_2014-06-09_19-31-07_260595134347_rgbf000128-resize_1-target.png,250,1.9765,13,2563,249,feet,jsons/v1_VE250_randls_64_rotated.json,1747985,2114239,35,Woman
136,433234,DepthScenes,duration_manipulation_targetAtFixation,jsons/v1_VE250_randls_64_rotated.json,http://54.235.29.9/FacialAge/BNav_EC2/DepthDuration/v2_depth_duration_MTurk/v2_DepthDuration_HTML.html#6,6,1366,625,1366,768,8-20-2022,10-0-28,137,depth_duration_stimuli/003070_2014-06-15_14-58-27_094959634447_rgbf000150-resize_3/003070_2014-06-15_14-58-27_094959634447_rgbf000150-resize_3-target.png,250,2.9415,13,2422,250,feet,jsons/v1_VE250_randls_64_rotated.json,1747985,2114239,35,Woman
137,433234,DepthScenes,duration_manipulation_targetAtFixation,jsons/v1_VE250_randls_64_rotated.json,http://54.235.29.9/FacialAge/BNav_EC2/DepthDuration/v2_depth_duration_MTurk/v2_DepthDuration_HTML.html#6,6,1366,625,1366,768,8-20-2022,10-0-28,138,depth_duration_stimuli/002425_2014-06-28_20-27-29_260595134347_rgbf000031-resize_8/002425_2014-06-28_20-27-29_260595134347_rgbf000031-resize_8-target.png,250,3.8960000000000004,13,6156,249,feet,jsons/v1_VE250_randls_64_rotated.json,1747985,2114239,35,Woman
138,433234,DepthScenes,duration_manipulation_targetAtFixation,jsons/v1_VE250_randls_64_rotated.json,http://54.235.29.9/FacialAge/BNav_EC2/DepthDuration/v2_depth_duration_MTurk/v2_DepthDuration_HTML.html#6,6,1366,625,1366,768,8-20-2022,10-0-28,139,depth_duration_stimuli/000642_2014-06-08_16-59-25_260595134347_rgbf000098-resize_2/000642_2014-06-08_16-59-25_260595134347_rgbf000098-resize_2-target.png,250,2.8815,14,2630,239,feet,jsons/v1_VE250_randls_64_rotated.json,1747985,2114239,35,Woman
139,433234,DepthScenes,duration_manipulation_targetAtFixation,jsons/v1_VE250_randls_64_rotated.json,http://54.235.29.9/FacialAge/BNav_EC2/DepthDuration/v2_depth_duration_MTurk/v2_DepthDuration_HTML.html#6,6,1366,625,1366,768,8-20-2022,10-0-28,140,depth_duration_stimuli/003338_2014-05-20_11-01-23_094959634447_rgbf000051-resize_6/003338_2014-05-20_11-01-23_094959634447_rgbf000051-resize_6-target.png,250,1.693,13,4097,249,feet,jsons/v1_VE250_randls_64_rotated.json,1747985,2114239,35,Woman
140,433234,DepthScenes,duration_manipulation_targetAtFixation,jsons/v1_VE250_randls_64_rotated.json,http://54.235.29.9/FacialAge/BNav_EC2/DepthDuration/v2_depth_duration_MTurk/v2_DepthDuration_HTML.html#6,6,1366,625,1366,768,8-20-2022,10-0-28,141,depth_duration_stimuli/002509_2014-06-24_13-19-22_094959634447_rgbf000077-resize_0/002509_2014-06-24_13-19-22_094959634447_rgbf000077-resize_0-target.png,250,1.3065,14,9104,190,feet,jsons/v1_VE250_randls_64_rotated.json,1747985,2114239,35,Woman
141,433234,DepthScenes,duration_manipulation_targetAtFixation,jsons/v1_VE250_randls_64_rotated.json,http://54.235.29.9/FacialAge/BNav_EC2/DepthDuration/v2_depth_duration_MTurk/v2_DepthDuration_HTML.html#6,6,1366,625,1366,768,8-20-2022,10-0-28,142,depth_duration_stimuli/002199_2014-06-28_18-33-56_260595134347_rgbf000074-resize_0/002199_2014-06-28_18-33-56_260595134347_rgbf000074-resize_0-target.png,250,1.996,13,3857,240,feet,jsons/v1_VE250_randls_64_rotated.json,1747985,2114239,35,Woman
142,433234,DepthScenes,duration_manipulation_targetAtFixation,jsons/v1_VE250_randls_64_rotated.json,http://54.235.29.9/FacialAge/BNav_EC2/DepthDuration/v2_depth_duration_MTurk/v2_DepthDuration_HTML.html#6,6,1366,625,1366,768,8-20-2022,10-0-28,143,depth_duration_stimuli/001056_2014-06-08_18-46-44_260595134347_rgbf000068-resize_0/001056_2014-06-08_18-46-44_260595134347_rgbf000068-resize_0-target.png,250,2.6625,13,2812,248,feet,jsons/v1_VE250_randls_64_rotated.json,1747985,2114239,35,Woman
143,433234,DepthScenes,duration_manipulation_targetAtFixation,jsons/v1_VE250_randls_64_rotated.json,http://54.235.29.9/FacialAge/BNav_EC2/DepthDuration/v2_depth_duration_MTurk/v2_DepthDuration_HTML.html#6,6,1366,625,1366,768,8-20-2022,10-0-28,144,depth_duration_stimuli/003495_2014-05-21_16-01-51_094959634447_rgbf000100-resize_3/003495_2014-05-21_16-01-51_094959634447_rgbf000100-resize_3-target.png,250,1.6255,14,2662,262,feet,jsons/v1_VE250_randls_64_rotated.json,1747985,2114239,35,Woman
144,433234,DepthScenes,duration_manipulation_targetAtFixation,jsons/v1_VE250_randls_64_rotated.json,http://54.235.29.9/FacialAge/BNav_EC2/DepthDuration/v2_depth_duration_MTurk/v2_DepthDuration_HTML.html#6,6,1366,625,1366,768,8-20-2022,10-0-28,145,depth_duration_stimuli/001244_2014-06-17_16-47-45_260595134347_rgbf000030-resize_4/001244_2014-06-17_16-47-45_260595134347_rgbf000030-resize_4-target.png,250,2.0425,13,31373,248,feet,jsons/v1_VE250_randls_64_rotated.json,1747985,2114239,35,Woman
145,433234,DepthScenes,duration_manipulation_targetAtFixation,jsons/v1_VE250_randls_64_rotated.json,http://54.235.29.9/FacialAge/BNav_EC2/DepthDuration/v2_depth_duration_MTurk/v2_DepthDuration_HTML.html#6,6,1366,625,1366,768,8-20-2022,10-0-28,146,depth_duration_stimuli/002103_2014-06-25_20-00-40_260595134347_rgbf000049-resize_0/002103_2014-06-25_20-00-40_260595134347_rgbf000049-resize_0-target.png,250,4.105,14,4660,249,feet,jsons/v1_VE250_randls_64_rotated.json,1747985,2114239,35,Woman
146,433234,DepthScenes,duration_manipulation_targetAtFixation,jsons/v1_VE250_randls_64_rotated.json,http://54.235.29.9/FacialAge/BNav_EC2/DepthDuration/v2_depth_duration_MTurk/v2_DepthDuration_HTML.html#6,6,1366,625,1366,768,8-20-2022,10-0-28,147,depth_duration_stimuli/002039_2014-06-24_20-22-38_260595134347_rgbf000084-resize_1/002039_2014-06-24_20-22-38_260595134347_rgbf000084-resize_1-target.png,250,4.408,14,3394,248,feet,jsons/v1_VE250_randls_64_rotated.json,1747985,2114239,35,Woman
147,433234,DepthScenes,duration_manipulation_targetAtFixation,jsons/v1_VE250_randls_64_rotated.json,http://54.235.29.9/FacialAge/BNav_EC2/DepthDuration/v2_depth_duration_MTurk/v2_DepthDuration_HTML.html#6,6,1366,625,1366,768,8-20-2022,10-0-28,148,depth_duration_stimuli/000866_2014-06-09_20-45-42_260595134347_rgbf000139-resize_1/000866_2014-06-09_20-45-42_260595134347_rgbf000139-resize_1-target.png,250,3.2155,14,4587,248,feet,jsons/v1_VE250_randls_64_rotated.json,1747985,2114239,35,Woman
148,433234,DepthScenes,duration_manipulation_targetAtFixation,jsons/v1_VE250_randls_64_rotated.json,http://54.235.29.9/FacialAge/BNav_EC2/DepthDuration/v2_depth_duration_MTurk/v2_DepthDuration_HTML.html#6,6,1366,625,1366,768,8-20-2022,10-0-28,149,depth_duration_stimuli/002989_2014-06-15_12-25-03_094959634447_rgbf000150-resize_3/002989_2014-06-15_12-25-03_094959634447_rgbf000150-resize_3-target.png,250,4.1975,15,4130,248,feet,jsons/v1_VE250_randls_64_rotated.json,1747985,2114239,35,Woman
149,433234,DepthScenes,duration_manipulation_targetAtFixation,jsons/v1_VE250_randls_64_rotated.json,http://54.235.29.9/FacialAge/BNav_EC2/DepthDuration/v2_depth_duration_MTurk/v2_DepthDuration_HTML.html#6,6,1366,625,1366,768,8-20-2022,10-0-28,150,depth_duration_stimuli/000749_2014-06-08_21-55-06_260595134347_rgbf000070-resize_2/000749_2014-06-08_21-55-06_260595134347_rgbf000070-resize_2-target.png,250,2.331,15,11514,239,feet,jsons/v1_VE250_randls_64_rotated.json,1747985,2114239,35,Woman
150,433234,DepthScenes,duration_manipulation_targetAtFixation,jsons/v1_VE250_randls_64_rotated.json,http://54.235.29.9/FacialAge/BNav_EC2/DepthDuration/v2_depth_duration_MTurk/v2_DepthDuration_HTML.html#6,6,1366,625,1366,768,8-20-2022,10-0-28,151,depth_duration_stimuli/002788_2014-06-22_19-36-03_094959634447_rgbf000088-resize_2/002788_2014-06-22_19-36-03_094959634447_rgbf000088-resize_2-target.png,250,1.6465,14,2758,249,feet,jsons/v1_VE250_randls_64_rotated.json,1747985,2114239,35,Woman
151,433234,DepthScenes,duration_manipulation_targetAtFixation,jsons/v1_VE250_randls_64_rotated.json,http://54.235.29.9/FacialAge/BNav_EC2/DepthDuration/v2_depth_duration_MTurk/v2_DepthDuration_HTML.html#6,6,1366,625,1366,768,8-20-2022,10-0-28,152,depth_duration_stimuli/000569_2014-06-09_22-51-47_260595134347_rgbf000141-resize_3/000569_2014-06-09_22-51-47_260595134347_rgbf000141-resize-original.jpg,250,4.512,14,2474,256,feet,jsons/v1_VE250_randls_64_rotated.json,1747985,2114239,35,Woman
152,433234,DepthScenes,duration_manipulation_targetAtFixation,jsons/v1_VE250_randls_64_rotated.json,http://54.235.29.9/FacialAge/BNav_EC2/DepthDuration/v2_depth_duration_MTurk/v2_DepthDuration_HTML.html#6,6,1366,625,1366,768,8-20-2022,10-0-28,153,depth_duration_stimuli/000854_2014-06-09_19-43-13_260595134347_rgbf000066-resize_0/000854_2014-06-09_19-43-13_260595134347_rgbf000066-resize_0-target.png,250,3.068,12,2920,262,feet,jsons/v1_VE250_randls_64_rotated.json,1747985,2114239,35,Woman
153,433234,DepthScenes,duration_manipulation_targetAtFixation,jsons/v1_VE250_randls_64_rotated.json,http://54.235.29.9/FacialAge/BNav_EC2/DepthDuration/v2_depth_duration_MTurk/v2_DepthDuration_HTML.html#6,6,1366,625,1366,768,8-20-2022,10-0-28,154,depth_duration_stimuli/000758_2014-06-08_22-05-08_260595134347_rgbf000085-resize_0/000758_2014-06-08_22-05-08_260595134347_rgbf000085-resize_0-target.png,250,3.3810000000000002,13,2641,238,feet,jsons/v1_VE250_randls_64_rotated.json,1747985,2114239,35,Woman
154,433234,DepthScenes,duration_manipulation_targetAtFixation,jsons/v1_VE250_randls_64_rotated.json,http://54.235.29.9/FacialAge/BNav_EC2/DepthDuration/v2_depth_duration_MTurk/v2_DepthDuration_HTML.html#6,6,1366,625,1366,768,8-20-2022,10-0-28,155,depth_duration_stimuli/003079_2014-06-15_15-18-20_094959634447_rgbf000152-resize_8/003079_2014-06-15_15-18-20_094959634447_rgbf000152-resize_8-target.png,250,2.8775,14,3018,250,feet,jsons/v1_VE250_randls_64_rotated.json,1747985,2114239,35,Woman
155,433234,DepthScenes,duration_manipulation_targetAtFixation,jsons/v1_VE250_randls_64_rotated.json,http://54.235.29.9/FacialAge/BNav_EC2/DepthDuration/v2_depth_duration_MTurk/v2_DepthDuration_HTML.html#6,6,1366,625,1366,768,8-20-2022,10-0-28,156,depth_duration_stimuli/000506_2014-06-08_23-21-00_260595134347_rgbf000070-resize_7/000506_2014-06-08_23-21-00_260595134347_rgbf000070-resize_7-target.png,250,4.0585,14,11252,251,feet,jsons/v1_VE250_randls_64_rotated.json,1747985,2114239,35,Woman
156,433234,DepthScenes,duration_manipulation_targetAtFixation,jsons/v1_VE250_randls_64_rotated.json,http://54.235.29.9/FacialAge/BNav_EC2/DepthDuration/v2_depth_duration_MTurk/v2_DepthDuration_HTML.html#6,6,1366,625,1366,768,8-20-2022,10-0-28,157,depth_duration_stimuli/000635_2014-06-08_16-38-42_260595134347_rgbf000106-resize_1/000635_2014-06-08_16-38-42_260595134347_rgbf000106-resize_1-target.png,250,2.074,13,2483,249,feet,jsons/v1_VE250_randls_64_rotated.json,1747985,2114239,35,Woman
157,433234,DepthScenes,duration_manipulation_targetAtFixation,jsons/v1_VE250_randls_64_rotated.json,http://54.235.29.9/FacialAge/BNav_EC2/DepthDuration/v2_depth_duration_MTurk/v2_DepthDuration_HTML.html#6,6,1366,625,1366,768,8-20-2022,10-0-28,158,depth_duration_stimuli/002279_2014-06-28_18-55-32_260595134347_rgbf000040-resize_5/002279_2014-06-28_18-55-32_260595134347_rgbf000040-resize_5-target.png,250,1.5043333333333,14,4404,260,feet,jsons/v1_VE250_randls_64_rotated.json,1747985,2114239,35,Woman
158,433234,DepthScenes,duration_manipulation_targetAtFixation,jsons/v1_VE250_randls_64_rotated.json,http://54.235.29.9/FacialAge/BNav_EC2/DepthDuration/v2_depth_duration_MTurk/v2_DepthDuration_HTML.html#6,6,1366,625,1366,768,8-20-2022,10-0-28,159,depth_duration_stimuli/002323_2014-06-28_20-01-54_260595134347_rgbf000051-resize_4/002323_2014-06-28_20-01-54_260595134347_rgbf000051-resize_4-target.png,250,3.7310000000000003,12,34496,252,feet,jsons/v1_VE250_randls_64_rotated.json,1747985,2114239,35,Woman
159,433234,DepthScenes,duration_manipulation_targetAtFixation,jsons/v1_VE250_randls_64_rotated.json,http://54.235.29.9/FacialAge/BNav_EC2/DepthDuration/v2_depth_duration_MTurk/v2_DepthDuration_HTML.html#6,6,1366,625,1366,768,8-20-2022,10-0-28,160,depth_duration_stimuli/000917_2014-06-09_22-45-29_260595134347_rgbf000149-resize_3/000917_2014-06-09_22-45-29_260595134347_rgbf000149-resize_3-target.png,250,4.1865,12,6840,237,feet,jsons/v1_VE250_randls_64_rotated.json,1747985,2114239,35,Woman
160,433234,DepthScenes,duration_manipulation_targetAtFixation,jsons/v1_VE250_randls_64_rotated.json,http://54.235.29.9/FacialAge/BNav_EC2/DepthDuration/v2_depth_duration_MTurk/v2_DepthDuration_HTML.html#6,6,1366,625,1366,768,8-20-2022,10-0-28,161,depth_duration_stimuli/002136_2014-06-25_21-18-03_260595134347_rgbf000109-resize_3/002136_2014-06-25_21-18-03_260595134347_rgbf000109-resize_3-target.png,250,1.9569999999999999,13,28276,248,feet,jsons/v1_VE250_randls_64_rotated.json,1747985,2114239,35,Woman
161,433234,DepthScenes,duration_manipulation_targetAtFixation,jsons/v1_VE250_randls_64_rotated.json,http://54.235.29.9/FacialAge/BNav_EC2/DepthDuration/v2_depth_duration_MTurk/v2_DepthDuration_HTML.html#6,6,1366,625,1366,768,8-20-2022,10-0-28,162,depth_duration_stimuli/002964_2014-06-08_17-46-11_094959634447_rgbf000091-resize_4/002964_2014-06-08_17-46-11_094959634447_rgbf000091-resize_4-target.png,250,1.6909999999999998,14,3785,250,feet,jsons/v1_VE250_randls_64_rotated.json,1747985,2114239,35,Woman
162,433234,DepthScenes,duration_manipulation_targetAtFixation,jsons/v1_VE250_randls_64_rotated.json,http://54.235.29.9/FacialAge/BNav_EC2/DepthDuration/v2_depth_duration_MTurk/v2_DepthDuration_HTML.html#6,6,1366,625,1366,768,8-20-2022,10-0-28,163,depth_duration_stimuli/001052_2014-06-08_18-24-54_260595134347_rgbf000130-resize_1/001052_2014-06-08_18-24-54_260595134347_rgbf000130-resize_1-target.png,250,4.1045,14,2538,248,feet,jsons/v1_VE250_randls_64_rotated.json,1747985,2114239,35,Woman
163,433234,DepthScenes,duration_manipulation_targetAtFixation,jsons/v1_VE250_randls_64_rotated.json,http://54.235.29.9/FacialAge/BNav_EC2/DepthDuration/v2_depth_duration_MTurk/v2_DepthDuration_HTML.html#6,6,1366,625,1366,768,8-20-2022,10-0-28,164,depth_duration_stimuli/002988_2014-06-15_12-24-20_094959634447_rgbf000150-resize_1/002988_2014-06-15_12-24-20_094959634447_rgbf000150-resize_1-target.png,250,4.7669999999999995,13,71951,290,feet,jsons/v1_VE250_randls_64_rotated.json,1747985,2114239,35,Woman
