,subjID,experimentName,versionName,sequenceName,url,selected_row,windowWidth,windowHeight,screenWidth,screenHeight,startDate,startTime,trial,stimulus,duration,actual_depth,depth_estimate,trial_RT,log_sceneDuration,unitSelection,seq_filepath,experimentTime,totalTime,age,gender
0,433557,DepthScenes,duration_manipulation_targetAtFixation,jsons/v1_VE1000_randls_70_rotated.json,http://54.235.29.9/FacialAge/BNav_EC2/DepthDuration/v2_depth_duration_MTurk/v2_DepthDuration_HTML.html#29,29,1364,625,1364,768,8-22-2022,8-23-26,1,depth_duration_stimuli/002953_2014-06-08_17-32-18_094959634447_rgbf000059-resize_5/002953_2014-06-08_17-32-18_094959634447_rgbf000059-resize_5-target.png,1000,1.551,33,5240,996,feet,jsons/v1_VE1000_randls_70_rotated.json,997221,1157309,30,Woman
1,433557,DepthScenes,duration_manipulation_targetAtFixation,jsons/v1_VE1000_randls_70_rotated.json,http://54.235.29.9/FacialAge/BNav_EC2/DepthDuration/v2_depth_duration_MTurk/v2_DepthDuration_HTML.html#29,29,1364,625,1364,768,8-22-2022,8-23-26,2,depth_duration_stimuli/000878_2014-06-08_22-52-45_260595134347_rgbf000045-resize_2/000878_2014-06-08_22-52-45_260595134347_rgbf000045-resize_2-target.png,1000,2.092,5,3332,969,feet,jsons/v1_VE1000_randls_70_rotated.json,997221,1157309,30,Woman
2,433557,DepthScenes,duration_manipulation_targetAtFixation,jsons/v1_VE1000_randls_70_rotated.json,http://54.235.29.9/FacialAge/BNav_EC2/DepthDuration/v2_depth_duration_MTurk/v2_DepthDuration_HTML.html#29,29,1364,625,1364,768,8-22-2022,8-23-26,3,depth_duration_stimuli/001100_2014-06-15_17-46-26_260595134347_rgbf000225-resize_2/001100_2014-06-15_17-46-26_260595134347_rgbf000225-resize_2-target.png,1000,2.24,4,4102,996,feet,jsons/v1_VE1000_randls_70_rotated.json,997221,1157309,30,Woman
3,433557,DepthScenes,duration_manipulation_targetAtFixation,jsons/v1_VE1000_randls_70_rotated.json,http://54.235.29.9/FacialAge/BNav_EC2/DepthDuration/v2_depth_duration_MTurk/v2_DepthDuration_HTML.html#29,29,1364,625,1364,768,8-22-2022,8-23-26,4,depth_duration_stimuli/002784_2014-06-22_19-26-30_094959634447_rgbf000083-resize_3/002784_2014-06-22_19-26-30_094959634447_rgbf000083-resize_3-target.png,1000,1.8046666666667,6,3107,845,feet,jsons/v1_VE1000_randls_70_rotated.json,997221,1157309,30,Woman
4,433557,DepthScenes,duration_manipulation_targetAtFixation,jsons/v1_VE1000_randls_70_rotated.json,http://54.235.29.9/FacialAge/BNav_EC2/DepthDuration/v2_depth_duration_MTurk/v2_DepthDuration_HTML.html#29,29,1364,625,1364,768,8-22-2022,8-23-26,5,depth_duration_stimuli/002444_2014-06-28_20-32-08_260595134347_rgbf000027-resize_0/002444_2014-06-28_20-32-08_260595134347_rgbf000027-resize_0-target.png,1000,4.388999999999999,5,3820,976,feet,jsons/v1_VE1000_randls_70_rotated.json,997221,1157309,30,Woman
5,433557,DepthScenes,duration_manipulation_targetAtFixation,jsons/v1_VE1000_randls_70_rotated.json,http://54.235.29.9/FacialAge/BNav_EC2/DepthDuration/v2_depth_duration_MTurk/v2_DepthDuration_HTML.html#29,29,1364,625,1364,768,8-22-2022,8-23-26,6,depth_duration_stimuli/000436_2014-06-09_22-25-11_260595134347_rgbf000137-resize_1/000436_2014-06-09_22-25-11_260595134347_rgbf000137-resize_1-target.png,1000,4.0705,4,19793,1005,feet,jsons/v1_VE1000_randls_70_rotated.json,997221,1157309,30,Woman
6,433557,DepthScenes,duration_manipulation_targetAtFixation,jsons/v1_VE1000_randls_70_rotated.json,http://54.235.29.9/FacialAge/BNav_EC2/DepthDuration/v2_depth_duration_MTurk/v2_DepthDuration_HTML.html#29,29,1364,625,1364,768,8-22-2022,8-23-26,7,depth_duration_stimuli/001094_2014-06-15_17-36-00_260595134347_rgbf000205-resize_0/001094_2014-06-15_17-36-00_260595134347_rgbf000205-resize_0-target.png,1000,4.2175,5,4773,983,feet,jsons/v1_VE1000_randls_70_rotated.json,997221,1157309,30,Woman
7,433557,DepthScenes,duration_manipulation_targetAtFixation,jsons/v1_VE1000_randls_70_rotated.json,http://54.235.29.9/FacialAge/BNav_EC2/DepthDuration/v2_depth_duration_MTurk/v2_DepthDuration_HTML.html#29,29,1364,625,1364,768,8-22-2022,8-23-26,8,depth_duration_stimuli/000692_2014-06-08_13-09-42_260595134347_rgbf000199-resize_2/000692_2014-06-08_13-09-42_260595134347_rgbf000199-resize_2-target.png,1000,3.661,5,3144,999,feet,jsons/v1_VE1000_randls_70_rotated.json,997221,1157309,30,Woman
8,433557,DepthScenes,duration_manipulation_targetAtFixation,jsons/v1_VE1000_randls_70_rotated.json,http://54.235.29.9/FacialAge/BNav_EC2/DepthDuration/v2_depth_duration_MTurk/v2_DepthDuration_HTML.html#29,29,1364,625,1364,768,8-22-2022,8-23-26,9,depth_duration_stimuli/000103_2014-05-14_22-01-17_260595134347_rgbf000152-resize_5/000103_2014-05-14_22-01-17_260595134347_rgbf000152-resize_5-target.png,1000,1.993,6,3646,984,feet,jsons/v1_VE1000_randls_70_rotated.json,997221,1157309,30,Woman
9,433557,DepthScenes,duration_manipulation_targetAtFixation,jsons/v1_VE1000_randls_70_rotated.json,http://54.235.29.9/FacialAge/BNav_EC2/DepthDuration/v2_depth_duration_MTurk/v2_DepthDuration_HTML.html#29,29,1364,625,1364,768,8-22-2022,8-23-26,10,depth_duration_stimuli/001555_2014-06-20_17-12-10_260595134347_rgbf000065-resize_4/001555_2014-06-20_17-12-10_260595134347_rgbf000065-resize_4-target.png,1000,1.633,3,3038,1025,feet,jsons/v1_VE1000_randls_70_rotated.json,997221,1157309,30,Woman
10,433557,DepthScenes,duration_manipulation_targetAtFixation,jsons/v1_VE1000_randls_70_rotated.json,http://54.235.29.9/FacialAge/BNav_EC2/DepthDuration/v2_depth_duration_MTurk/v2_DepthDuration_HTML.html#29,29,1364,625,1364,768,8-22-2022,8-23-26,11,depth_duration_stimuli/000943_2014-06-09_19-31-07_260595134347_rgbf000128-resize_1/000943_2014-06-09_19-31-07_260595134347_rgbf000128-resize_1-target.png,1000,1.9765,3,4235,998,feet,jsons/v1_VE1000_randls_70_rotated.json,997221,1157309,30,Woman
11,433557,DepthScenes,duration_manipulation_targetAtFixation,jsons/v1_VE1000_randls_70_rotated.json,http://54.235.29.9/FacialAge/BNav_EC2/DepthDuration/v2_depth_duration_MTurk/v2_DepthDuration_HTML.html#29,29,1364,625,1364,768,8-22-2022,8-23-26,12,depth_duration_stimuli/003070_2014-06-15_14-58-27_094959634447_rgbf000150-resize_3/003070_2014-06-15_14-58-27_094959634447_rgbf000150-resize_3-target.png,1000,2.9415,5,7824,1022,feet,jsons/v1_VE1000_randls_70_rotated.json,997221,1157309,30,Woman
12,433557,DepthScenes,duration_manipulation_targetAtFixation,jsons/v1_VE1000_randls_70_rotated.json,http://54.235.29.9/FacialAge/BNav_EC2/DepthDuration/v2_depth_duration_MTurk/v2_DepthDuration_HTML.html#29,29,1364,625,1364,768,8-22-2022,8-23-26,13,depth_duration_stimuli/000137_2014-05-20_17-04-49_260595134347_rgbf000120-resize_1/000137_2014-05-20_17-04-49_260595134347_rgbf000120-resize_1-target.png,1000,3.786,5,4676,999,feet,jsons/v1_VE1000_randls_70_rotated.json,997221,1157309,30,Woman
13,433557,DepthScenes,duration_manipulation_targetAtFixation,jsons/v1_VE1000_randls_70_rotated.json,http://54.235.29.9/FacialAge/BNav_EC2/DepthDuration/v2_depth_duration_MTurk/v2_DepthDuration_HTML.html#29,29,1364,625,1364,768,8-22-2022,8-23-26,14,depth_duration_stimuli/000736_2014-06-08_18-24-15_260595134347_rgbf000206-resize_3/000736_2014-06-08_18-24-15_260595134347_rgbf000206-resize_3-target.png,1000,3.515,3,3008,984,feet,jsons/v1_VE1000_randls_70_rotated.json,997221,1157309,30,Woman
14,433557,DepthScenes,duration_manipulation_targetAtFixation,jsons/v1_VE1000_randls_70_rotated.json,http://54.235.29.9/FacialAge/BNav_EC2/DepthDuration/v2_depth_duration_MTurk/v2_DepthDuration_HTML.html#29,29,1364,625,1364,768,8-22-2022,8-23-26,15,depth_duration_stimuli/001214_2014-06-17_16-13-55_260595134347_rgbf000111-resize_0/001214_2014-06-17_16-13-55_260595134347_rgbf000111-resize_0-target.png,1000,2.6505,3,5700,1006,feet,jsons/v1_VE1000_randls_70_rotated.json,997221,1157309,30,Woman
15,433557,DepthScenes,duration_manipulation_targetAtFixation,jsons/v1_VE1000_randls_70_rotated.json,http://54.235.29.9/FacialAge/BNav_EC2/DepthDuration/v2_depth_duration_MTurk/v2_DepthDuration_HTML.html#29,29,1364,625,1364,768,8-22-2022,8-23-26,16,depth_duration_stimuli/000810_2014-06-08_17-20-01_260595134347_rgbf000105-resize_0/000810_2014-06-08_17-20-01_260595134347_rgbf000105-resize_0-target.png,1000,1.4865,5,3647,2025,feet,jsons/v1_VE1000_randls_70_rotated.json,997221,1157309,30,Woman
16,433557,DepthScenes,duration_manipulation_targetAtFixation,jsons/v1_VE1000_randls_70_rotated.json,http://54.235.29.9/FacialAge/BNav_EC2/DepthDuration/v2_depth_duration_MTurk/v2_DepthDuration_HTML.html#29,29,1364,625,1364,768,8-22-2022,8-23-26,17,depth_duration_stimuli/000854_2014-06-09_19-43-13_260595134347_rgbf000066-resize_0/000854_2014-06-09_19-43-13_260595134347_rgbf000066-resize_0-target.png,1000,3.068,3,3955,965,feet,jsons/v1_VE1000_randls_70_rotated.json,997221,1157309,30,Woman
17,433557,DepthScenes,duration_manipulation_targetAtFixation,jsons/v1_VE1000_randls_70_rotated.json,http://54.235.29.9/FacialAge/BNav_EC2/DepthDuration/v2_depth_duration_MTurk/v2_DepthDuration_HTML.html#29,29,1364,625,1364,768,8-22-2022,8-23-26,18,depth_duration_stimuli/000758_2014-06-08_22-05-08_260595134347_rgbf000085-resize_0/000758_2014-06-08_22-05-08_260595134347_rgbf000085-resize_0-target.png,1000,3.3810000000000002,3,3510,1004,feet,jsons/v1_VE1000_randls_70_rotated.json,997221,1157309,30,Woman
18,433557,DepthScenes,duration_manipulation_targetAtFixation,jsons/v1_VE1000_randls_70_rotated.json,http://54.235.29.9/FacialAge/BNav_EC2/DepthDuration/v2_depth_duration_MTurk/v2_DepthDuration_HTML.html#29,29,1364,625,1364,768,8-22-2022,8-23-26,19,depth_duration_stimuli/001498_2014-06-19_17-45-14_260595134347_rgbf000129-resize_4/001498_2014-06-19_17-45-14_260595134347_rgbf000129-resize-original.jpg,1000,1.4075,0,4236,994,feet,jsons/v1_VE1000_randls_70_rotated.json,997221,1157309,30,Woman
19,433557,DepthScenes,duration_manipulation_targetAtFixation,jsons/v1_VE1000_randls_70_rotated.json,http://54.235.29.9/FacialAge/BNav_EC2/DepthDuration/v2_depth_duration_MTurk/v2_DepthDuration_HTML.html#29,29,1364,625,1364,768,8-22-2022,8-23-26,20,depth_duration_stimuli/003587_2014-05-23_16-48-02_094959634447_rgbf002384-resize_2/003587_2014-05-23_16-48-02_094959634447_rgbf002384-resize_2-target.png,1000,1.357,2,4179,1002,feet,jsons/v1_VE1000_randls_70_rotated.json,997221,1157309,30,Woman
20,433557,DepthScenes,duration_manipulation_targetAtFixation,jsons/v1_VE1000_randls_70_rotated.json,http://54.235.29.9/FacialAge/BNav_EC2/DepthDuration/v2_depth_duration_MTurk/v2_DepthDuration_HTML.html#29,29,1364,625,1364,768,8-22-2022,8-23-26,21,depth_duration_stimuli/001167_2014-06-17_15-38-07_260595134347_rgbf000108-resize_0/001167_2014-06-17_15-38-07_260595134347_rgbf000108-resize_0-target.png,1000,1.8505,3,3548,1005,feet,jsons/v1_VE1000_randls_70_rotated.json,997221,1157309,30,Woman
21,433557,DepthScenes,duration_manipulation_targetAtFixation,jsons/v1_VE1000_randls_70_rotated.json,http://54.235.29.9/FacialAge/BNav_EC2/DepthDuration/v2_depth_duration_MTurk/v2_DepthDuration_HTML.html#29,29,1364,625,1364,768,8-22-2022,8-23-26,22,depth_duration_stimuli/000549_2014-06-08_22-10-24_260595134347_rgbf000247-resize_3/000549_2014-06-08_22-10-24_260595134347_rgbf000247-resize_3-target.png,1000,1.841,3,4914,1011,feet,jsons/v1_VE1000_randls_70_rotated.json,997221,1157309,30,Woman
22,433557,DepthScenes,duration_manipulation_targetAtFixation,jsons/v1_VE1000_randls_70_rotated.json,http://54.235.29.9/FacialAge/BNav_EC2/DepthDuration/v2_depth_duration_MTurk/v2_DepthDuration_HTML.html#29,29,1364,625,1364,768,8-22-2022,8-23-26,23,depth_duration_stimuli/001055_2014-06-08_18-45-35_260595134347_rgbf000111-resize_4/001055_2014-06-08_18-45-35_260595134347_rgbf000111-resize_4-target.png,1000,2.4290000000000003,4,3833,1004,feet,jsons/v1_VE1000_randls_70_rotated.json,997221,1157309,30,Woman
23,433557,DepthScenes,duration_manipulation_targetAtFixation,jsons/v1_VE1000_randls_70_rotated.json,http://54.235.29.9/FacialAge/BNav_EC2/DepthDuration/v2_depth_duration_MTurk/v2_DepthDuration_HTML.html#29,29,1364,625,1364,768,8-22-2022,8-23-26,24,depth_duration_stimuli/002660_2014-06-13_15-44-18_094959634447_rgbf001878-resize_2/002660_2014-06-13_15-44-18_094959634447_rgbf001878-resize_2-target.png,1000,3.576,5,6428,986,feet,jsons/v1_VE1000_randls_70_rotated.json,997221,1157309,30,Woman
24,433557,DepthScenes,duration_manipulation_targetAtFixation,jsons/v1_VE1000_randls_70_rotated.json,http://54.235.29.9/FacialAge/BNav_EC2/DepthDuration/v2_depth_duration_MTurk/v2_DepthDuration_HTML.html#29,29,1364,625,1364,768,8-22-2022,8-23-26,25,depth_duration_stimuli/002153_2014-06-25_21-27-18_260595134347_rgbf000038-resize_5/002153_2014-06-25_21-27-18_260595134347_rgbf000038-resize_5-target.png,1000,2.505,6,44018,990,feet,jsons/v1_VE1000_randls_70_rotated.json,997221,1157309,30,Woman
25,433557,DepthScenes,duration_manipulation_targetAtFixation,jsons/v1_VE1000_randls_70_rotated.json,http://54.235.29.9/FacialAge/BNav_EC2/DepthDuration/v2_depth_duration_MTurk/v2_DepthDuration_HTML.html#29,29,1364,625,1364,768,8-22-2022,8-23-26,26,depth_duration_stimuli/002467_2014-06-28_20-38-07_260595134347_rgbf000026-resize_2/002467_2014-06-28_20-38-07_260595134347_rgbf000026-resize_2-target.png,1000,4.742,5,4543,1001,feet,jsons/v1_VE1000_randls_70_rotated.json,997221,1157309,30,Woman
26,433557,DepthScenes,duration_manipulation_targetAtFixation,jsons/v1_VE1000_randls_70_rotated.json,http://54.235.29.9/FacialAge/BNav_EC2/DepthDuration/v2_depth_duration_MTurk/v2_DepthDuration_HTML.html#29,29,1364,625,1364,768,8-22-2022,8-23-26,27,depth_duration_stimuli/002570_2014-06-24_13-59-54_094959634447_rgbf000059-resize_0/002570_2014-06-24_13-59-54_094959634447_rgbf000059-resize_0-target.png,1000,4.037,5,4051,992,feet,jsons/v1_VE1000_randls_70_rotated.json,997221,1157309,30,Woman
27,433557,DepthScenes,duration_manipulation_targetAtFixation,jsons/v1_VE1000_randls_70_rotated.json,http://54.235.29.9/FacialAge/BNav_EC2/DepthDuration/v2_depth_duration_MTurk/v2_DepthDuration_HTML.html#29,29,1364,625,1364,768,8-22-2022,8-23-26,28,depth_duration_stimuli/000780_2014-06-08_22-28-29_260595134347_rgbf000126-resize_1/000780_2014-06-08_22-28-29_260595134347_rgbf000126-resize_1-target.png,1000,3.3825,6,5198,993,feet,jsons/v1_VE1000_randls_70_rotated.json,997221,1157309,30,Woman
28,433557,DepthScenes,duration_manipulation_targetAtFixation,jsons/v1_VE1000_randls_70_rotated.json,http://54.235.29.9/FacialAge/BNav_EC2/DepthDuration/v2_depth_duration_MTurk/v2_DepthDuration_HTML.html#29,29,1364,625,1364,768,8-22-2022,8-23-26,29,depth_duration_stimuli/002445_2014-06-28_20-32-16_260595134347_rgbf000029-resize_4/002445_2014-06-28_20-32-16_260595134347_rgbf000029-resize_4-target.png,1000,2.5315,0,3690,1005,feet,jsons/v1_VE1000_randls_70_rotated.json,997221,1157309,30,Woman
29,433557,DepthScenes,duration_manipulation_targetAtFixation,jsons/v1_VE1000_randls_70_rotated.json,http://54.235.29.9/FacialAge/BNav_EC2/DepthDuration/v2_depth_duration_MTurk/v2_DepthDuration_HTML.html#29,29,1364,625,1364,768,8-22-2022,8-23-26,30,depth_duration_stimuli/002072_2014-06-24_21-48-06_260595134347_rgbf000115-resize_0/002072_2014-06-24_21-48-06_260595134347_rgbf000115-resize-original.jpg,1000,4.702,0,4903,999,feet,jsons/v1_VE1000_randls_70_rotated.json,997221,1157309,30,Woman
30,433557,DepthScenes,duration_manipulation_targetAtFixation,jsons/v1_VE1000_randls_70_rotated.json,http://54.235.29.9/FacialAge/BNav_EC2/DepthDuration/v2_depth_duration_MTurk/v2_DepthDuration_HTML.html#29,29,1364,625,1364,768,8-22-2022,8-23-26,31,depth_duration_stimuli/002639_2014-06-24_14-51-37_094959634447_rgbf000074-resize_4/002639_2014-06-24_14-51-37_094959634447_rgbf000074-resize_4-target.png,1000,4.0375,3,5613,1042,feet,jsons/v1_VE1000_randls_70_rotated.json,997221,1157309,30,Woman
31,433557,DepthScenes,duration_manipulation_targetAtFixation,jsons/v1_VE1000_randls_70_rotated.json,http://54.235.29.9/FacialAge/BNav_EC2/DepthDuration/v2_depth_duration_MTurk/v2_DepthDuration_HTML.html#29,29,1364,625,1364,768,8-22-2022,8-23-26,32,depth_duration_stimuli/003292_2014-05-14_21-53-49_094959634447_rgbf000100-resize_2/003292_2014-05-14_21-53-49_094959634447_rgbf000100-resize_2-target.png,1000,3.4815,3,3586,970,feet,jsons/v1_VE1000_randls_70_rotated.json,997221,1157309,30,Woman
32,433557,DepthScenes,duration_manipulation_targetAtFixation,jsons/v1_VE1000_randls_70_rotated.json,http://54.235.29.9/FacialAge/BNav_EC2/DepthDuration/v2_depth_duration_MTurk/v2_DepthDuration_HTML.html#29,29,1364,625,1364,768,8-22-2022,8-23-26,33,depth_duration_stimuli/001032_2014-06-08_13-23-17_260595134347_rgbf000021-resize_3/001032_2014-06-08_13-23-17_260595134347_rgbf000021-resize_3-target.png,1000,3.2725,5,3641,1007,feet,jsons/v1_VE1000_randls_70_rotated.json,997221,1157309,30,Woman
33,433557,DepthScenes,duration_manipulation_targetAtFixation,jsons/v1_VE1000_randls_70_rotated.json,http://54.235.29.9/FacialAge/BNav_EC2/DepthDuration/v2_depth_duration_MTurk/v2_DepthDuration_HTML.html#29,29,1364,625,1364,768,8-22-2022,8-23-26,34,depth_duration_stimuli/001059_2014-06-08_21-53-27_260595134347_rgbf000061-resize_4/001059_2014-06-08_21-53-27_260595134347_rgbf000061-resize_4-target.png,1000,2.4185,4,3220,974,feet,jsons/v1_VE1000_randls_70_rotated.json,997221,1157309,30,Woman
34,433557,DepthScenes,duration_manipulation_targetAtFixation,jsons/v1_VE1000_randls_70_rotated.json,http://54.235.29.9/FacialAge/BNav_EC2/DepthDuration/v2_depth_duration_MTurk/v2_DepthDuration_HTML.html#29,29,1364,625,1364,768,8-22-2022,8-23-26,35,depth_duration_stimuli/000109_2014-05-14_23-41-52_260595134347_rgbf000035-resize_9/000109_2014-05-14_23-41-52_260595134347_rgbf000035-resize_9-target.png,1000,1.3545,3,5816,1002,feet,jsons/v1_VE1000_randls_70_rotated.json,997221,1157309,30,Woman
35,433557,DepthScenes,duration_manipulation_targetAtFixation,jsons/v1_VE1000_randls_70_rotated.json,http://54.235.29.9/FacialAge/BNav_EC2/DepthDuration/v2_depth_duration_MTurk/v2_DepthDuration_HTML.html#29,29,1364,625,1364,768,8-22-2022,8-23-26,36,depth_duration_stimuli/000470_2014-06-09_19-42-40_260595134347_rgbf000094-resize_1/000470_2014-06-09_19-42-40_260595134347_rgbf000094-resize_1-target.png,1000,1.831,2,3808,982,feet,jsons/v1_VE1000_randls_70_rotated.json,997221,1157309,30,Woman
36,433557,DepthScenes,duration_manipulation_targetAtFixation,jsons/v1_VE1000_randls_70_rotated.json,http://54.235.29.9/FacialAge/BNav_EC2/DepthDuration/v2_depth_duration_MTurk/v2_DepthDuration_HTML.html#29,29,1364,625,1364,768,8-22-2022,8-23-26,37,depth_duration_stimuli/002425_2014-06-28_20-27-29_260595134347_rgbf000031-resize_8/002425_2014-06-28_20-27-29_260595134347_rgbf000031-resize_8-target.png,1000,3.8960000000000004,5,5292,972,feet,jsons/v1_VE1000_randls_70_rotated.json,997221,1157309,30,Woman
37,433557,DepthScenes,duration_manipulation_targetAtFixation,jsons/v1_VE1000_randls_70_rotated.json,http://54.235.29.9/FacialAge/BNav_EC2/DepthDuration/v2_depth_duration_MTurk/v2_DepthDuration_HTML.html#29,29,1364,625,1364,768,8-22-2022,8-23-26,38,depth_duration_stimuli/000642_2014-06-08_16-59-25_260595134347_rgbf000098-resize_2/000642_2014-06-08_16-59-25_260595134347_rgbf000098-resize_2-target.png,1000,2.8815,3,3463,741,feet,jsons/v1_VE1000_randls_70_rotated.json,997221,1157309,30,Woman
38,433557,DepthScenes,duration_manipulation_targetAtFixation,jsons/v1_VE1000_randls_70_rotated.json,http://54.235.29.9/FacialAge/BNav_EC2/DepthDuration/v2_depth_duration_MTurk/v2_DepthDuration_HTML.html#29,29,1364,625,1364,768,8-22-2022,8-23-26,39,depth_duration_stimuli/002136_2014-06-25_21-18-03_260595134347_rgbf000109-resize_3/002136_2014-06-25_21-18-03_260595134347_rgbf000109-resize_3-target.png,1000,1.9569999999999999,5,4165,998,feet,jsons/v1_VE1000_randls_70_rotated.json,997221,1157309,30,Woman
39,433557,DepthScenes,duration_manipulation_targetAtFixation,jsons/v1_VE1000_randls_70_rotated.json,http://54.235.29.9/FacialAge/BNav_EC2/DepthDuration/v2_depth_duration_MTurk/v2_DepthDuration_HTML.html#29,29,1364,625,1364,768,8-22-2022,8-23-26,40,depth_duration_stimuli/002964_2014-06-08_17-46-11_094959634447_rgbf000091-resize_4/002964_2014-06-08_17-46-11_094959634447_rgbf000091-resize_4-target.png,1000,1.6909999999999998,5,3719,1001,feet,jsons/v1_VE1000_randls_70_rotated.json,997221,1157309,30,Woman
40,433557,DepthScenes,duration_manipulation_targetAtFixation,jsons/v1_VE1000_randls_70_rotated.json,http://54.235.29.9/FacialAge/BNav_EC2/DepthDuration/v2_depth_duration_MTurk/v2_DepthDuration_HTML.html#29,29,1364,625,1364,768,8-22-2022,8-23-26,41,depth_duration_stimuli/002103_2014-06-25_20-00-40_260595134347_rgbf000049-resize_0/002103_2014-06-25_20-00-40_260595134347_rgbf000049-resize_0-target.png,1000,4.105,5,3521,998,feet,jsons/v1_VE1000_randls_70_rotated.json,997221,1157309,30,Woman
41,433557,DepthScenes,duration_manipulation_targetAtFixation,jsons/v1_VE1000_randls_70_rotated.json,http://54.235.29.9/FacialAge/BNav_EC2/DepthDuration/v2_depth_duration_MTurk/v2_DepthDuration_HTML.html#29,29,1364,625,1364,768,8-22-2022,8-23-26,42,depth_duration_stimuli/002039_2014-06-24_20-22-38_260595134347_rgbf000084-resize_1/002039_2014-06-24_20-22-38_260595134347_rgbf000084-resize_1-target.png,1000,4.408,5,3980,999,feet,jsons/v1_VE1000_randls_70_rotated.json,997221,1157309,30,Woman
42,433557,DepthScenes,duration_manipulation_targetAtFixation,jsons/v1_VE1000_randls_70_rotated.json,http://54.235.29.9/FacialAge/BNav_EC2/DepthDuration/v2_depth_duration_MTurk/v2_DepthDuration_HTML.html#29,29,1364,625,1364,768,8-22-2022,8-23-26,43,depth_duration_stimuli/000709_2014-06-08_13-51-55_260595134347_rgbf000068-resize_3/000709_2014-06-08_13-51-55_260595134347_rgbf000068-resize_3-target.png,1000,1.8030000000000002,5,4011,975,feet,jsons/v1_VE1000_randls_70_rotated.json,997221,1157309,30,Woman
43,433557,DepthScenes,duration_manipulation_targetAtFixation,jsons/v1_VE1000_randls_70_rotated.json,http://54.235.29.9/FacialAge/BNav_EC2/DepthDuration/v2_depth_duration_MTurk/v2_DepthDuration_HTML.html#29,29,1364,625,1364,768,8-22-2022,8-23-26,44,depth_duration_stimuli/002057_2014-06-24_21-00-13_260595134347_rgbf000120-resize_1/002057_2014-06-24_21-00-13_260595134347_rgbf000120-resize_1-target.png,1000,2.967,3,4076,1011,feet,jsons/v1_VE1000_randls_70_rotated.json,997221,1157309,30,Woman
44,433557,DepthScenes,duration_manipulation_targetAtFixation,jsons/v1_VE1000_randls_70_rotated.json,http://54.235.29.9/FacialAge/BNav_EC2/DepthDuration/v2_depth_duration_MTurk/v2_DepthDuration_HTML.html#29,29,1364,625,1364,768,8-22-2022,8-23-26,45,depth_duration_stimuli/001516_2014-06-20_16-25-09_260595134347_rgbf000076-resize_2/001516_2014-06-20_16-25-09_260595134347_rgbf000076-resize_2-target.png,1000,1.7445,5,4969,793,feet,jsons/v1_VE1000_randls_70_rotated.json,997221,1157309,30,Woman
45,433557,DepthScenes,duration_manipulation_targetAtFixation,jsons/v1_VE1000_randls_70_rotated.json,http://54.235.29.9/FacialAge/BNav_EC2/DepthDuration/v2_depth_duration_MTurk/v2_DepthDuration_HTML.html#29,29,1364,625,1364,768,8-22-2022,8-23-26,46,depth_duration_stimuli/002118_2014-06-25_20-32-08_260595134347_rgbf000078-resize_1/002118_2014-06-25_20-32-08_260595134347_rgbf000078-resize_1-target.png,1000,2.6460000000000004,0,5363,882,feet,jsons/v1_VE1000_randls_70_rotated.json,997221,1157309,30,Woman
46,433557,DepthScenes,duration_manipulation_targetAtFixation,jsons/v1_VE1000_randls_70_rotated.json,http://54.235.29.9/FacialAge/BNav_EC2/DepthDuration/v2_depth_duration_MTurk/v2_DepthDuration_HTML.html#29,29,1364,625,1364,768,8-22-2022,8-23-26,47,depth_duration_stimuli/002199_2014-06-28_18-33-56_260595134347_rgbf000074-resize_0/002199_2014-06-28_18-33-56_260595134347_rgbf000074-resize_0-target.png,1000,1.996,0,3950,1018,feet,jsons/v1_VE1000_randls_70_rotated.json,997221,1157309,30,Woman
47,433557,DepthScenes,duration_manipulation_targetAtFixation,jsons/v1_VE1000_randls_70_rotated.json,http://54.235.29.9/FacialAge/BNav_EC2/DepthDuration/v2_depth_duration_MTurk/v2_DepthDuration_HTML.html#29,29,1364,625,1364,768,8-22-2022,8-23-26,48,depth_duration_stimuli/001056_2014-06-08_18-46-44_260595134347_rgbf000068-resize_0/001056_2014-06-08_18-46-44_260595134347_rgbf000068-resize_0-target.png,1000,2.6625,0,3674,994,feet,jsons/v1_VE1000_randls_70_rotated.json,997221,1157309,30,Woman
48,433557,DepthScenes,duration_manipulation_targetAtFixation,jsons/v1_VE1000_randls_70_rotated.json,http://54.235.29.9/FacialAge/BNav_EC2/DepthDuration/v2_depth_duration_MTurk/v2_DepthDuration_HTML.html#29,29,1364,625,1364,768,8-22-2022,8-23-26,49,depth_duration_stimuli/001170_2014-06-17_15-43-44_260595134347_rgbf000096-resize_6/001170_2014-06-17_15-43-44_260595134347_rgbf000096-resize-original.jpg,1000,1.1909999999999998,0,3433,1003,feet,jsons/v1_VE1000_randls_70_rotated.json,997221,1157309,30,Woman
49,433557,DepthScenes,duration_manipulation_targetAtFixation,jsons/v1_VE1000_randls_70_rotated.json,http://54.235.29.9/FacialAge/BNav_EC2/DepthDuration/v2_depth_duration_MTurk/v2_DepthDuration_HTML.html#29,29,1364,625,1364,768,8-22-2022,8-23-26,50,depth_duration_stimuli/002340_2014-06-28_20-05-46_260595134347_rgbf000113-resize_0/002340_2014-06-28_20-05-46_260595134347_rgbf000113-resize_0-target.png,1000,2.4735,6,9347,1001,feet,jsons/v1_VE1000_randls_70_rotated.json,997221,1157309,30,Woman
50,433557,DepthScenes,duration_manipulation_targetAtFixation,jsons/v1_VE1000_randls_70_rotated.json,http://54.235.29.9/FacialAge/BNav_EC2/DepthDuration/v2_depth_duration_MTurk/v2_DepthDuration_HTML.html#29,29,1364,625,1364,768,8-22-2022,8-23-26,51,depth_duration_stimuli/001016_2014-06-09_16-16-10_260595134347_rgbf000112-resize_5/001016_2014-06-09_16-16-10_260595134347_rgbf000112-resize_5-target.png,1000,1.6565,5,5266,688,feet,jsons/v1_VE1000_randls_70_rotated.json,997221,1157309,30,Woman
51,433557,DepthScenes,duration_manipulation_targetAtFixation,jsons/v1_VE1000_randls_70_rotated.json,http://54.235.29.9/FacialAge/BNav_EC2/DepthDuration/v2_depth_duration_MTurk/v2_DepthDuration_HTML.html#29,29,1364,625,1364,768,8-22-2022,8-23-26,52,depth_duration_stimuli/003010_2014-06-15_12-54-35_094959634447_rgbf000112-resize_0/003010_2014-06-15_12-54-35_094959634447_rgbf000112-resize_0-target.png,1000,3.1185,5,5473,705,feet,jsons/v1_VE1000_randls_70_rotated.json,997221,1157309,30,Woman
52,433557,DepthScenes,duration_manipulation_targetAtFixation,jsons/v1_VE1000_randls_70_rotated.json,http://54.235.29.9/FacialAge/BNav_EC2/DepthDuration/v2_depth_duration_MTurk/v2_DepthDuration_HTML.html#29,29,1364,625,1364,768,8-22-2022,8-23-26,53,depth_duration_stimuli/001810_2014-06-26_20-51-35_260595134347_rgbf000040-resize_3/001810_2014-06-26_20-51-35_260595134347_rgbf000040-resize_3-target.png,1000,2.2525,5,3958,827,feet,jsons/v1_VE1000_randls_70_rotated.json,997221,1157309,30,Woman
53,433557,DepthScenes,duration_manipulation_targetAtFixation,jsons/v1_VE1000_randls_70_rotated.json,http://54.235.29.9/FacialAge/BNav_EC2/DepthDuration/v2_depth_duration_MTurk/v2_DepthDuration_HTML.html#29,29,1364,625,1364,768,8-22-2022,8-23-26,54,depth_duration_stimuli/002805_2014-06-22_19-54-03_094959634447_rgbf000079-resize_1/002805_2014-06-22_19-54-03_094959634447_rgbf000079-resize_1-target.png,1000,3.1439999999999997,4,4617,999,feet,jsons/v1_VE1000_randls_70_rotated.json,997221,1157309,30,Woman
54,433557,DepthScenes,duration_manipulation_targetAtFixation,jsons/v1_VE1000_randls_70_rotated.json,http://54.235.29.9/FacialAge/BNav_EC2/DepthDuration/v2_depth_duration_MTurk/v2_DepthDuration_HTML.html#29,29,1364,625,1364,768,8-22-2022,8-23-26,55,depth_duration_stimuli/000906_2014-06-08_13-35-43_260595134347_rgbf000155-resize_1/000906_2014-06-08_13-35-43_260595134347_rgbf000155-resize_1-target.png,1000,2.8489999999999998,3,3333,992,feet,jsons/v1_VE1000_randls_70_rotated.json,997221,1157309,30,Woman
55,433557,DepthScenes,duration_manipulation_targetAtFixation,jsons/v1_VE1000_randls_70_rotated.json,http://54.235.29.9/FacialAge/BNav_EC2/DepthDuration/v2_depth_duration_MTurk/v2_DepthDuration_HTML.html#29,29,1364,625,1364,768,8-22-2022,8-23-26,56,depth_duration_stimuli/001828_2014-06-26_21-40-03_260595134347_rgbf000024-resize_0/001828_2014-06-26_21-40-03_260595134347_rgbf000024-resize_0-target.png,1000,4.8260000000000005,3,4283,972,feet,jsons/v1_VE1000_randls_70_rotated.json,997221,1157309,30,Woman
56,433557,DepthScenes,duration_manipulation_targetAtFixation,jsons/v1_VE1000_randls_70_rotated.json,http://54.235.29.9/FacialAge/BNav_EC2/DepthDuration/v2_depth_duration_MTurk/v2_DepthDuration_HTML.html#29,29,1364,625,1364,768,8-22-2022,8-23-26,57,depth_duration_stimuli/000009_2014-05-26_14-32-05_260595134347_rgbf000034-resize_3/000009_2014-05-26_14-32-05_260595134347_rgbf000034-resize_3-target.png,1000,3.8715,5,3165,994,feet,jsons/v1_VE1000_randls_70_rotated.json,997221,1157309,30,Woman
57,433557,DepthScenes,duration_manipulation_targetAtFixation,jsons/v1_VE1000_randls_70_rotated.json,http://54.235.29.9/FacialAge/BNav_EC2/DepthDuration/v2_depth_duration_MTurk/v2_DepthDuration_HTML.html#29,29,1364,625,1364,768,8-22-2022,8-23-26,58,depth_duration_stimuli/003048_2014-06-15_13-49-43_094959634447_rgbf000150-resize_1/003048_2014-06-15_13-49-43_094959634447_rgbf000150-resize_1-target.png,1000,4.0035,6,3993,819,feet,jsons/v1_VE1000_randls_70_rotated.json,997221,1157309,30,Woman
58,433557,DepthScenes,duration_manipulation_targetAtFixation,jsons/v1_VE1000_randls_70_rotated.json,http://54.235.29.9/FacialAge/BNav_EC2/DepthDuration/v2_depth_duration_MTurk/v2_DepthDuration_HTML.html#29,29,1364,625,1364,768,8-22-2022,8-23-26,59,depth_duration_stimuli/002043_2014-06-24_20-29-38_260595134347_rgbf000039-resize_4/002043_2014-06-24_20-29-38_260595134347_rgbf000039-resize_4-target.png,1000,2.8435,4,3316,998,feet,jsons/v1_VE1000_randls_70_rotated.json,997221,1157309,30,Woman
59,433557,DepthScenes,duration_manipulation_targetAtFixation,jsons/v1_VE1000_randls_70_rotated.json,http://54.235.29.9/FacialAge/BNav_EC2/DepthDuration/v2_depth_duration_MTurk/v2_DepthDuration_HTML.html#29,29,1364,625,1364,768,8-22-2022,8-23-26,60,depth_duration_stimuli/001571_2014-06-20_17-21-32_260595134347_rgbf000089-resize_1/001571_2014-06-20_17-21-32_260595134347_rgbf000089-resize_1-target.png,1000,1.86,5,3250,1285,feet,jsons/v1_VE1000_randls_70_rotated.json,997221,1157309,30,Woman
60,433557,DepthScenes,duration_manipulation_targetAtFixation,jsons/v1_VE1000_randls_70_rotated.json,http://54.235.29.9/FacialAge/BNav_EC2/DepthDuration/v2_depth_duration_MTurk/v2_DepthDuration_HTML.html#29,29,1364,625,1364,768,8-22-2022,8-23-26,61,depth_duration_stimuli/002272_2014-06-28_18-53-56_260595134347_rgbf000067-resize_2/002272_2014-06-28_18-53-56_260595134347_rgbf000067-resize_2-target.png,1000,1.138,5,4636,1085,feet,jsons/v1_VE1000_randls_70_rotated.json,997221,1157309,30,Woman
61,433557,DepthScenes,duration_manipulation_targetAtFixation,jsons/v1_VE1000_randls_70_rotated.json,http://54.235.29.9/FacialAge/BNav_EC2/DepthDuration/v2_depth_duration_MTurk/v2_DepthDuration_HTML.html#29,29,1364,625,1364,768,8-22-2022,8-23-26,62,depth_duration_stimuli/002657_2014-06-13_15-29-54_094959634447_rgbf000150-resize_1/002657_2014-06-13_15-29-54_094959634447_rgbf000150-resize_1-target.png,1000,4.919,4,3896,1029,feet,jsons/v1_VE1000_randls_70_rotated.json,997221,1157309,30,Woman
62,433557,DepthScenes,duration_manipulation_targetAtFixation,jsons/v1_VE1000_randls_70_rotated.json,http://54.235.29.9/FacialAge/BNav_EC2/DepthDuration/v2_depth_duration_MTurk/v2_DepthDuration_HTML.html#29,29,1364,625,1364,768,8-22-2022,8-23-26,63,depth_duration_stimuli/002375_2014-06-28_20-13-44_260595134347_rgbf000032-resize_1/002375_2014-06-28_20-13-44_260595134347_rgbf000032-resize_1-target.png,1000,4.0175,5,2916,954,feet,jsons/v1_VE1000_randls_70_rotated.json,997221,1157309,30,Woman
63,433557,DepthScenes,duration_manipulation_targetAtFixation,jsons/v1_VE1000_randls_70_rotated.json,http://54.235.29.9/FacialAge/BNav_EC2/DepthDuration/v2_depth_duration_MTurk/v2_DepthDuration_HTML.html#29,29,1364,625,1364,768,8-22-2022,8-23-26,64,depth_duration_stimuli/003338_2014-05-20_11-01-23_094959634447_rgbf000051-resize_6/003338_2014-05-20_11-01-23_094959634447_rgbf000051-resize_6-target.png,1000,1.693,4,4114,997,feet,jsons/v1_VE1000_randls_70_rotated.json,997221,1157309,30,Woman
64,433557,DepthScenes,duration_manipulation_targetAtFixation,jsons/v1_VE1000_randls_70_rotated.json,http://54.235.29.9/FacialAge/BNav_EC2/DepthDuration/v2_depth_duration_MTurk/v2_DepthDuration_HTML.html#29,29,1364,625,1364,768,8-22-2022,8-23-26,65,depth_duration_stimuli/002509_2014-06-24_13-19-22_094959634447_rgbf000077-resize_0/002509_2014-06-24_13-19-22_094959634447_rgbf000077-resize_0-target.png,1000,1.3065,3,2998,989,feet,jsons/v1_VE1000_randls_70_rotated.json,997221,1157309,30,Woman
65,433557,DepthScenes,duration_manipulation_targetAtFixation,jsons/v1_VE1000_randls_70_rotated.json,http://54.235.29.9/FacialAge/BNav_EC2/DepthDuration/v2_depth_duration_MTurk/v2_DepthDuration_HTML.html#29,29,1364,625,1364,768,8-22-2022,8-23-26,66,depth_duration_stimuli/001540_2014-06-20_17-01-05_260595134347_rgbf000086-resize_2/001540_2014-06-20_17-01-05_260595134347_rgbf000086-resize-original.jpg,1000,1.459,0,3827,1000,feet,jsons/v1_VE1000_randls_70_rotated.json,997221,1157309,30,Woman
66,433557,DepthScenes,duration_manipulation_targetAtFixation,jsons/v1_VE1000_randls_70_rotated.json,http://54.235.29.9/FacialAge/BNav_EC2/DepthDuration/v2_depth_duration_MTurk/v2_DepthDuration_HTML.html#29,29,1364,625,1364,768,8-22-2022,8-23-26,67,depth_duration_stimuli/000483_2014-06-09_20-41-45_260595134347_rgbf000116-resize_4/000483_2014-06-09_20-41-45_260595134347_rgbf000116-resize_4-target.png,1000,1.337,3,4670,1000,feet,jsons/v1_VE1000_randls_70_rotated.json,997221,1157309,30,Woman
67,433557,DepthScenes,duration_manipulation_targetAtFixation,jsons/v1_VE1000_randls_70_rotated.json,http://54.235.29.9/FacialAge/BNav_EC2/DepthDuration/v2_depth_duration_MTurk/v2_DepthDuration_HTML.html#29,29,1364,625,1364,768,8-22-2022,8-23-26,68,depth_duration_stimuli/000469_2014-06-09_19-42-10_260595134347_rgbf000081-resize_1/000469_2014-06-09_19-42-10_260595134347_rgbf000081-resize_1-target.png,1000,1.652,2,2910,981,feet,jsons/v1_VE1000_randls_70_rotated.json,997221,1157309,30,Woman
68,433557,DepthScenes,duration_manipulation_targetAtFixation,jsons/v1_VE1000_randls_70_rotated.json,http://54.235.29.9/FacialAge/BNav_EC2/DepthDuration/v2_depth_duration_MTurk/v2_DepthDuration_HTML.html#29,29,1364,625,1364,768,8-22-2022,8-23-26,69,depth_duration_stimuli/001450_2014-06-19_17-02-03_260595134347_rgbf000203-resize_4/001450_2014-06-19_17-02-03_260595134347_rgbf000203-resize_4-target.png,1000,4.0106666666667,5,4114,994,feet,jsons/v1_VE1000_randls_70_rotated.json,997221,1157309,30,Woman
69,433557,DepthScenes,duration_manipulation_targetAtFixation,jsons/v1_VE1000_randls_70_rotated.json,http://54.235.29.9/FacialAge/BNav_EC2/DepthDuration/v2_depth_duration_MTurk/v2_DepthDuration_HTML.html#29,29,1364,625,1364,768,8-22-2022,8-23-26,70,depth_duration_stimuli/001449_2014-06-19_17-01-27_260595134347_rgbf000116-resize_2/001449_2014-06-19_17-01-27_260595134347_rgbf000116-resize_2-target.png,1000,3.452,5,3226,986,feet,jsons/v1_VE1000_randls_70_rotated.json,997221,1157309,30,Woman
70,433557,DepthScenes,duration_manipulation_targetAtFixation,jsons/v1_VE1000_randls_70_rotated.json,http://54.235.29.9/FacialAge/BNav_EC2/DepthDuration/v2_depth_duration_MTurk/v2_DepthDuration_HTML.html#29,29,1364,625,1364,768,8-22-2022,8-23-26,71,depth_duration_stimuli/001447_2014-06-19_17-00-32_260595134347_rgbf000082-resize_5/001447_2014-06-19_17-00-32_260595134347_rgbf000082-resize_5-target.png,1000,4.13775,3,5110,990,feet,jsons/v1_VE1000_randls_70_rotated.json,997221,1157309,30,Woman
71,433557,DepthScenes,duration_manipulation_targetAtFixation,jsons/v1_VE1000_randls_70_rotated.json,http://54.235.29.9/FacialAge/BNav_EC2/DepthDuration/v2_depth_duration_MTurk/v2_DepthDuration_HTML.html#29,29,1364,625,1364,768,8-22-2022,8-23-26,72,depth_duration_stimuli/000447_2014-06-08_16-15-46_260595134347_rgbf000130-resize_1/000447_2014-06-08_16-15-46_260595134347_rgbf000130-resize_1-target.png,1000,4.479,5,2938,942,feet,jsons/v1_VE1000_randls_70_rotated.json,997221,1157309,30,Woman
72,433557,DepthScenes,duration_manipulation_targetAtFixation,jsons/v1_VE1000_randls_70_rotated.json,http://54.235.29.9/FacialAge/BNav_EC2/DepthDuration/v2_depth_duration_MTurk/v2_DepthDuration_HTML.html#29,29,1364,625,1364,768,8-22-2022,8-23-26,73,depth_duration_stimuli/003081_2014-06-15_15-19-16_094959634447_rgbf000150-resize_1/003081_2014-06-15_15-19-16_094959634447_rgbf000150-resize_1-target.png,1000,3.9125,5,4972,1003,feet,jsons/v1_VE1000_randls_70_rotated.json,997221,1157309,30,Woman
73,433557,DepthScenes,duration_manipulation_targetAtFixation,jsons/v1_VE1000_randls_70_rotated.json,http://54.235.29.9/FacialAge/BNav_EC2/DepthDuration/v2_depth_duration_MTurk/v2_DepthDuration_HTML.html#29,29,1364,625,1364,768,8-22-2022,8-23-26,74,depth_duration_stimuli/001417_2014-06-19_16-25-36_260595134347_rgbf000115-resize_5/001417_2014-06-19_16-25-36_260595134347_rgbf000115-resize_5-target.png,1000,4.6255,4,158787,992,feet,jsons/v1_VE1000_randls_70_rotated.json,997221,1157309,30,Woman
74,433557,DepthScenes,duration_manipulation_targetAtFixation,jsons/v1_VE1000_randls_70_rotated.json,http://54.235.29.9/FacialAge/BNav_EC2/DepthDuration/v2_depth_duration_MTurk/v2_DepthDuration_HTML.html#29,29,1364,625,1364,768,8-22-2022,8-23-26,75,depth_duration_stimuli/002568_2014-06-24_13-59-21_094959634447_rgbf000062-resize_4/002568_2014-06-24_13-59-21_094959634447_rgbf000062-resize_4-target.png,1000,3.015,5,4452,987,feet,jsons/v1_VE1000_randls_70_rotated.json,997221,1157309,30,Woman
75,433557,DepthScenes,duration_manipulation_targetAtFixation,jsons/v1_VE1000_randls_70_rotated.json,http://54.235.29.9/FacialAge/BNav_EC2/DepthDuration/v2_depth_duration_MTurk/v2_DepthDuration_HTML.html#29,29,1364,625,1364,768,8-22-2022,8-23-26,76,depth_duration_stimuli/003492_2014-05-21_15-50-55_094959634447_rgbf000828-resize_1/003492_2014-05-21_15-50-55_094959634447_rgbf000828-resize_1-target.png,1000,4.06875,6,3907,1000,feet,jsons/v1_VE1000_randls_70_rotated.json,997221,1157309,30,Woman
76,433557,DepthScenes,duration_manipulation_targetAtFixation,jsons/v1_VE1000_randls_70_rotated.json,http://54.235.29.9/FacialAge/BNav_EC2/DepthDuration/v2_depth_duration_MTurk/v2_DepthDuration_HTML.html#29,29,1364,625,1364,768,8-22-2022,8-23-26,77,depth_duration_stimuli/001136_2014-06-17_15-19-41_260595134347_rgbf000076-resize_3/001136_2014-06-17_15-19-41_260595134347_rgbf000076-resize_3-target.png,1000,1.8655,5,4192,992,feet,jsons/v1_VE1000_randls_70_rotated.json,997221,1157309,30,Woman
77,433557,DepthScenes,duration_manipulation_targetAtFixation,jsons/v1_VE1000_randls_70_rotated.json,http://54.235.29.9/FacialAge/BNav_EC2/DepthDuration/v2_depth_duration_MTurk/v2_DepthDuration_HTML.html#29,29,1364,625,1364,768,8-22-2022,8-23-26,78,depth_duration_stimuli/001164_2014-06-17_15-35-46_260595134347_rgbf000085-resize_3/001164_2014-06-17_15-35-46_260595134347_rgbf000085-resize_3-target.png,1000,2.354,4,3898,996,feet,jsons/v1_VE1000_randls_70_rotated.json,997221,1157309,30,Woman
78,433557,DepthScenes,duration_manipulation_targetAtFixation,jsons/v1_VE1000_randls_70_rotated.json,http://54.235.29.9/FacialAge/BNav_EC2/DepthDuration/v2_depth_duration_MTurk/v2_DepthDuration_HTML.html#29,29,1364,625,1364,768,8-22-2022,8-23-26,79,depth_duration_stimuli/003228_2014-05-14_13-42-35_094959634447_rgbf000101-resize_1/003228_2014-05-14_13-42-35_094959634447_rgbf000101-resize_1-target.png,1000,1.9680000000000002,3,4404,1001,feet,jsons/v1_VE1000_randls_70_rotated.json,997221,1157309,30,Woman
79,433557,DepthScenes,duration_manipulation_targetAtFixation,jsons/v1_VE1000_randls_70_rotated.json,http://54.235.29.9/FacialAge/BNav_EC2/DepthDuration/v2_depth_duration_MTurk/v2_DepthDuration_HTML.html#29,29,1364,625,1364,768,8-22-2022,8-23-26,80,depth_duration_stimuli/002600_2014-06-24_14-27-04_094959634447_rgbf000074-resize_2/002600_2014-06-24_14-27-04_094959634447_rgbf000074-resize_2-target.png,1000,2.7575,5,2864,1006,feet,jsons/v1_VE1000_randls_70_rotated.json,997221,1157309,30,Woman
80,433557,DepthScenes,duration_manipulation_targetAtFixation,jsons/v1_VE1000_randls_70_rotated.json,http://54.235.29.9/FacialAge/BNav_EC2/DepthDuration/v2_depth_duration_MTurk/v2_DepthDuration_HTML.html#29,29,1364,625,1364,768,8-22-2022,8-23-26,81,depth_duration_stimuli/001132_2014-06-17_14-48-54_260595134347_rgbf000100-resize_2/001132_2014-06-17_14-48-54_260595134347_rgbf000100-resize_2-target.png,1000,3.753,5,4625,986,feet,jsons/v1_VE1000_randls_70_rotated.json,997221,1157309,30,Woman
81,433557,DepthScenes,duration_manipulation_targetAtFixation,jsons/v1_VE1000_randls_70_rotated.json,http://54.235.29.9/FacialAge/BNav_EC2/DepthDuration/v2_depth_duration_MTurk/v2_DepthDuration_HTML.html#29,29,1364,625,1364,768,8-22-2022,8-23-26,82,depth_duration_stimuli/001133_2014-06-17_14-49-16_260595134347_rgbf000100-resize_0/001133_2014-06-17_14-49-16_260595134347_rgbf000100-resize_0-target.png,1000,4.2115,5,8352,1027,feet,jsons/v1_VE1000_randls_70_rotated.json,997221,1157309,30,Woman
82,433557,DepthScenes,duration_manipulation_targetAtFixation,jsons/v1_VE1000_randls_70_rotated.json,http://54.235.29.9/FacialAge/BNav_EC2/DepthDuration/v2_depth_duration_MTurk/v2_DepthDuration_HTML.html#29,29,1364,625,1364,768,8-22-2022,8-23-26,83,depth_duration_stimuli/000191_2014-05-12_17-07-38_260595134347_rgbf000199-resize_0/000191_2014-05-12_17-07-38_260595134347_rgbf000199-resize_0-target.png,1000,3.7995,5,4509,1001,feet,jsons/v1_VE1000_randls_70_rotated.json,997221,1157309,30,Woman
83,433557,DepthScenes,duration_manipulation_targetAtFixation,jsons/v1_VE1000_randls_70_rotated.json,http://54.235.29.9/FacialAge/BNav_EC2/DepthDuration/v2_depth_duration_MTurk/v2_DepthDuration_HTML.html#29,29,1364,625,1364,768,8-22-2022,8-23-26,84,depth_duration_stimuli/000493_2014-06-09_21-01-18_260595134347_rgbf000196-resize_3/000493_2014-06-09_21-01-18_260595134347_rgbf000196-resize_3-target.png,1000,3.44,5,4036,1013,feet,jsons/v1_VE1000_randls_70_rotated.json,997221,1157309,30,Woman
84,433557,DepthScenes,duration_manipulation_targetAtFixation,jsons/v1_VE1000_randls_70_rotated.json,http://54.235.29.9/FacialAge/BNav_EC2/DepthDuration/v2_depth_duration_MTurk/v2_DepthDuration_HTML.html#29,29,1364,625,1364,768,8-22-2022,8-23-26,85,depth_duration_stimuli/000866_2014-06-09_20-45-42_260595134347_rgbf000139-resize_1/000866_2014-06-09_20-45-42_260595134347_rgbf000139-resize_1-target.png,1000,3.2155,2,5187,1270,feet,jsons/v1_VE1000_randls_70_rotated.json,997221,1157309,30,Woman
85,433557,DepthScenes,duration_manipulation_targetAtFixation,jsons/v1_VE1000_randls_70_rotated.json,http://54.235.29.9/FacialAge/BNav_EC2/DepthDuration/v2_depth_duration_MTurk/v2_DepthDuration_HTML.html#29,29,1364,625,1364,768,8-22-2022,8-23-26,86,depth_duration_stimuli/002989_2014-06-15_12-25-03_094959634447_rgbf000150-resize_3/002989_2014-06-15_12-25-03_094959634447_rgbf000150-resize_3-target.png,1000,4.1975,3,4030,971,feet,jsons/v1_VE1000_randls_70_rotated.json,997221,1157309,30,Woman
86,433557,DepthScenes,duration_manipulation_targetAtFixation,jsons/v1_VE1000_randls_70_rotated.json,http://54.235.29.9/FacialAge/BNav_EC2/DepthDuration/v2_depth_duration_MTurk/v2_DepthDuration_HTML.html#29,29,1364,625,1364,768,8-22-2022,8-23-26,87,depth_duration_stimuli/000691_2014-06-08_13-08-50_260595134347_rgbf000132-resize_3/000691_2014-06-08_13-08-50_260595134347_rgbf000132-resize_3-target.png,1000,4.1530000000000005,4,3431,990,feet,jsons/v1_VE1000_randls_70_rotated.json,997221,1157309,30,Woman
87,433557,DepthScenes,duration_manipulation_targetAtFixation,jsons/v1_VE1000_randls_70_rotated.json,http://54.235.29.9/FacialAge/BNav_EC2/DepthDuration/v2_depth_duration_MTurk/v2_DepthDuration_HTML.html#29,29,1364,625,1364,768,8-22-2022,8-23-26,88,depth_duration_stimuli/002213_2014-06-28_18-37-58_260595134347_rgbf000055-resize_1/002213_2014-06-28_18-37-58_260595134347_rgbf000055-resize_1-target.png,1000,3.62,5,3120,985,feet,jsons/v1_VE1000_randls_70_rotated.json,997221,1157309,30,Woman
88,433557,DepthScenes,duration_manipulation_targetAtFixation,jsons/v1_VE1000_randls_70_rotated.json,http://54.235.29.9/FacialAge/BNav_EC2/DepthDuration/v2_depth_duration_MTurk/v2_DepthDuration_HTML.html#29,29,1364,625,1364,768,8-22-2022,8-23-26,89,depth_duration_stimuli/000927_2014-06-09_16-32-30_260595134347_rgbf000123-resize_3/000927_2014-06-09_16-32-30_260595134347_rgbf000123-resize_3-target.png,1000,2.6785,6,3780,994,feet,jsons/v1_VE1000_randls_70_rotated.json,997221,1157309,30,Woman
89,433557,DepthScenes,duration_manipulation_targetAtFixation,jsons/v1_VE1000_randls_70_rotated.json,http://54.235.29.9/FacialAge/BNav_EC2/DepthDuration/v2_depth_duration_MTurk/v2_DepthDuration_HTML.html#29,29,1364,625,1364,768,8-22-2022,8-23-26,90,depth_duration_stimuli/001110_2014-06-15_17-25-28_260595134347_rgbf000150-resize_1/001110_2014-06-15_17-25-28_260595134347_rgbf000150-resize_1-target.png,1000,1.7115,6,3342,839,feet,jsons/v1_VE1000_randls_70_rotated.json,997221,1157309,30,Woman
90,433557,DepthScenes,duration_manipulation_targetAtFixation,jsons/v1_VE1000_randls_70_rotated.json,http://54.235.29.9/FacialAge/BNav_EC2/DepthDuration/v2_depth_duration_MTurk/v2_DepthDuration_HTML.html#29,29,1364,625,1364,768,8-22-2022,8-23-26,91,depth_duration_stimuli/000665_2014-06-09_20-42-35_260595134347_rgbf000110-resize_1/000665_2014-06-09_20-42-35_260595134347_rgbf000110-resize_1-target.png,1000,3.057,5,4430,996,feet,jsons/v1_VE1000_randls_70_rotated.json,997221,1157309,30,Woman
91,433557,DepthScenes,duration_manipulation_targetAtFixation,jsons/v1_VE1000_randls_70_rotated.json,http://54.235.29.9/FacialAge/BNav_EC2/DepthDuration/v2_depth_duration_MTurk/v2_DepthDuration_HTML.html#29,29,1364,625,1364,768,8-22-2022,8-23-26,92,depth_duration_stimuli/001150_2014-06-17_15-27-34_260595134347_rgbf000108-resize_2/001150_2014-06-17_15-27-34_260595134347_rgbf000108-resize_2-target.png,1000,4.0325,5,4505,993,feet,jsons/v1_VE1000_randls_70_rotated.json,997221,1157309,30,Woman
92,433557,DepthScenes,duration_manipulation_targetAtFixation,jsons/v1_VE1000_randls_70_rotated.json,http://54.235.29.9/FacialAge/BNav_EC2/DepthDuration/v2_depth_duration_MTurk/v2_DepthDuration_HTML.html#29,29,1364,625,1364,768,8-22-2022,8-23-26,93,depth_duration_stimuli/000742_2014-06-08_18-48-09_260595134347_rgbf000164-resize_4/000742_2014-06-08_18-48-09_260595134347_rgbf000164-resize_4-target.png,1000,4.632,4,4549,1000,feet,jsons/v1_VE1000_randls_70_rotated.json,997221,1157309,30,Woman
93,433557,DepthScenes,duration_manipulation_targetAtFixation,jsons/v1_VE1000_randls_70_rotated.json,http://54.235.29.9/FacialAge/BNav_EC2/DepthDuration/v2_depth_duration_MTurk/v2_DepthDuration_HTML.html#29,29,1364,625,1364,768,8-22-2022,8-23-26,94,depth_duration_stimuli/001066_2014-06-08_22-03-20_260595134347_rgbf000066-resize_4/001066_2014-06-08_22-03-20_260595134347_rgbf000066-resize_4-target.png,1000,4.2330000000000005,3,3677,990,feet,jsons/v1_VE1000_randls_70_rotated.json,997221,1157309,30,Woman
94,433557,DepthScenes,duration_manipulation_targetAtFixation,jsons/v1_VE1000_randls_70_rotated.json,http://54.235.29.9/FacialAge/BNav_EC2/DepthDuration/v2_depth_duration_MTurk/v2_DepthDuration_HTML.html#29,29,1364,625,1364,768,8-22-2022,8-23-26,95,depth_duration_stimuli/002545_2014-06-24_13-38-53_094959634447_rgbf000080-resize_4/002545_2014-06-24_13-38-53_094959634447_rgbf000080-resize_4-target.png,1000,1.9205,5,6510,998,feet,jsons/v1_VE1000_randls_70_rotated.json,997221,1157309,30,Woman
95,433557,DepthScenes,duration_manipulation_targetAtFixation,jsons/v1_VE1000_randls_70_rotated.json,http://54.235.29.9/FacialAge/BNav_EC2/DepthDuration/v2_depth_duration_MTurk/v2_DepthDuration_HTML.html#29,29,1364,625,1364,768,8-22-2022,8-23-26,96,depth_duration_stimuli/001092_2014-06-15_17-34-58_260595134347_rgbf000171-resize_3/001092_2014-06-15_17-34-58_260595134347_rgbf000171-resize_3-target.png,1000,2.6935,6,4561,1000,feet,jsons/v1_VE1000_randls_70_rotated.json,997221,1157309,30,Woman
96,433557,DepthScenes,duration_manipulation_targetAtFixation,jsons/v1_VE1000_randls_70_rotated.json,http://54.235.29.9/FacialAge/BNav_EC2/DepthDuration/v2_depth_duration_MTurk/v2_DepthDuration_HTML.html#29,29,1364,625,1364,768,8-22-2022,8-23-26,97,depth_duration_stimuli/001235_2014-06-17_16-37-36_260595134347_rgbf000084-resize_4/001235_2014-06-17_16-37-36_260595134347_rgbf000084-resize_4-target.png,1000,3.6605,3,3248,991,feet,jsons/v1_VE1000_randls_70_rotated.json,997221,1157309,30,Woman
97,433557,DepthScenes,duration_manipulation_targetAtFixation,jsons/v1_VE1000_randls_70_rotated.json,http://54.235.29.9/FacialAge/BNav_EC2/DepthDuration/v2_depth_duration_MTurk/v2_DepthDuration_HTML.html#29,29,1364,625,1364,768,8-22-2022,8-23-26,98,depth_duration_stimuli/000788_2014-06-08_22-34-36_260595134347_rgbf000131-resize_1/000788_2014-06-08_22-34-36_260595134347_rgbf000131-resize_1-target.png,1000,3.359,4,3901,1002,feet,jsons/v1_VE1000_randls_70_rotated.json,997221,1157309,30,Woman
98,433557,DepthScenes,duration_manipulation_targetAtFixation,jsons/v1_VE1000_randls_70_rotated.json,http://54.235.29.9/FacialAge/BNav_EC2/DepthDuration/v2_depth_duration_MTurk/v2_DepthDuration_HTML.html#29,29,1364,625,1364,768,8-22-2022,8-23-26,99,depth_duration_stimuli/001222_2014-06-17_16-24-06_260595134347_rgbf000073-resize_0/001222_2014-06-17_16-24-06_260595134347_rgbf000073-resize-original.jpg,1000,1.4385,0,4736,996,feet,jsons/v1_VE1000_randls_70_rotated.json,997221,1157309,30,Woman
99,433557,DepthScenes,duration_manipulation_targetAtFixation,jsons/v1_VE1000_randls_70_rotated.json,http://54.235.29.9/FacialAge/BNav_EC2/DepthDuration/v2_depth_duration_MTurk/v2_DepthDuration_HTML.html#29,29,1364,625,1364,768,8-22-2022,8-23-26,100,depth_duration_stimuli/000409_2014-06-04_19-23-33_260595134347_rgbf000067-resize_0/000409_2014-06-04_19-23-33_260595134347_rgbf000067-resize_0-target.png,1000,3.7335,2,5395,989,feet,jsons/v1_VE1000_randls_70_rotated.json,997221,1157309,30,Woman
100,433557,DepthScenes,duration_manipulation_targetAtFixation,jsons/v1_VE1000_randls_70_rotated.json,http://54.235.29.9/FacialAge/BNav_EC2/DepthDuration/v2_depth_duration_MTurk/v2_DepthDuration_HTML.html#29,29,1364,625,1364,768,8-22-2022,8-23-26,101,depth_duration_stimuli/002663_2014-06-13_15-50-26_094959634447_rgbf000075-resize_1/002663_2014-06-13_15-50-26_094959634447_rgbf000075-resize_1-target.png,1000,4.7495,3,2884,638,feet,jsons/v1_VE1000_randls_70_rotated.json,997221,1157309,30,Woman
101,433557,DepthScenes,duration_manipulation_targetAtFixation,jsons/v1_VE1000_randls_70_rotated.json,http://54.235.29.9/FacialAge/BNav_EC2/DepthDuration/v2_depth_duration_MTurk/v2_DepthDuration_HTML.html#29,29,1364,625,1364,768,8-22-2022,8-23-26,102,depth_duration_stimuli/000677_2014-06-08_23-10-32_260595134347_rgbf000158-resize_6/000677_2014-06-08_23-10-32_260595134347_rgbf000158-resize_6-target.png,1000,3.556,5,3849,1011,feet,jsons/v1_VE1000_randls_70_rotated.json,997221,1157309,30,Woman
102,433557,DepthScenes,duration_manipulation_targetAtFixation,jsons/v1_VE1000_randls_70_rotated.json,http://54.235.29.9/FacialAge/BNav_EC2/DepthDuration/v2_depth_duration_MTurk/v2_DepthDuration_HTML.html#29,29,1364,625,1364,768,8-22-2022,8-23-26,103,depth_duration_stimuli/001029_2014-06-08_13-17-57_260595134347_rgbf000065-resize_1/001029_2014-06-08_13-17-57_260595134347_rgbf000065-resize_1-target.png,1000,3.0835,6,3212,991,feet,jsons/v1_VE1000_randls_70_rotated.json,997221,1157309,30,Woman
103,433557,DepthScenes,duration_manipulation_targetAtFixation,jsons/v1_VE1000_randls_70_rotated.json,http://54.235.29.9/FacialAge/BNav_EC2/DepthDuration/v2_depth_duration_MTurk/v2_DepthDuration_HTML.html#29,29,1364,625,1364,768,8-22-2022,8-23-26,104,depth_duration_stimuli/000635_2014-06-08_16-38-42_260595134347_rgbf000106-resize_1/000635_2014-06-08_16-38-42_260595134347_rgbf000106-resize_1-target.png,1000,2.074,3,3259,1002,feet,jsons/v1_VE1000_randls_70_rotated.json,997221,1157309,30,Woman
104,433557,DepthScenes,duration_manipulation_targetAtFixation,jsons/v1_VE1000_randls_70_rotated.json,http://54.235.29.9/FacialAge/BNav_EC2/DepthDuration/v2_depth_duration_MTurk/v2_DepthDuration_HTML.html#29,29,1364,625,1364,768,8-22-2022,8-23-26,105,depth_duration_stimuli/002279_2014-06-28_18-55-32_260595134347_rgbf000040-resize_5/002279_2014-06-28_18-55-32_260595134347_rgbf000040-resize_5-target.png,1000,1.5043333333333,4,2759,984,feet,jsons/v1_VE1000_randls_70_rotated.json,997221,1157309,30,Woman
105,433557,DepthScenes,duration_manipulation_targetAtFixation,jsons/v1_VE1000_randls_70_rotated.json,http://54.235.29.9/FacialAge/BNav_EC2/DepthDuration/v2_depth_duration_MTurk/v2_DepthDuration_HTML.html#29,29,1364,625,1364,768,8-22-2022,8-23-26,106,depth_duration_stimuli/001617_2014-06-20_11-35-32_260595134347_rgbf000066-resize_1/001617_2014-06-20_11-35-32_260595134347_rgbf000066-resize_1-target.png,1000,3.7910000000000004,2,3481,1033,feet,jsons/v1_VE1000_randls_70_rotated.json,997221,1157309,30,Woman
106,433557,DepthScenes,duration_manipulation_targetAtFixation,jsons/v1_VE1000_randls_70_rotated.json,http://54.235.29.9/FacialAge/BNav_EC2/DepthDuration/v2_depth_duration_MTurk/v2_DepthDuration_HTML.html#29,29,1364,625,1364,768,8-22-2022,8-23-26,107,depth_duration_stimuli/001806_2014-06-26_20-50-20_260595134347_rgbf000091-resize_1/001806_2014-06-26_20-50-20_260595134347_rgbf000091-resize_1-target.png,1000,2.7305,3,5218,928,feet,jsons/v1_VE1000_randls_70_rotated.json,997221,1157309,30,Woman
107,433557,DepthScenes,duration_manipulation_targetAtFixation,jsons/v1_VE1000_randls_70_rotated.json,http://54.235.29.9/FacialAge/BNav_EC2/DepthDuration/v2_depth_duration_MTurk/v2_DepthDuration_HTML.html#29,29,1364,625,1364,768,8-22-2022,8-23-26,108,depth_duration_stimuli/003079_2014-06-15_15-18-20_094959634447_rgbf000152-resize_8/003079_2014-06-15_15-18-20_094959634447_rgbf000152-resize_8-target.png,1000,2.8775,5,4050,999,feet,jsons/v1_VE1000_randls_70_rotated.json,997221,1157309,30,Woman
108,433557,DepthScenes,duration_manipulation_targetAtFixation,jsons/v1_VE1000_randls_70_rotated.json,http://54.235.29.9/FacialAge/BNav_EC2/DepthDuration/v2_depth_duration_MTurk/v2_DepthDuration_HTML.html#29,29,1364,625,1364,768,8-22-2022,8-23-26,109,depth_duration_stimuli/000506_2014-06-08_23-21-00_260595134347_rgbf000070-resize_7/000506_2014-06-08_23-21-00_260595134347_rgbf000070-resize_7-target.png,1000,4.0585,6,3681,997,feet,jsons/v1_VE1000_randls_70_rotated.json,997221,1157309,30,Woman
109,433557,DepthScenes,duration_manipulation_targetAtFixation,jsons/v1_VE1000_randls_70_rotated.json,http://54.235.29.9/FacialAge/BNav_EC2/DepthDuration/v2_depth_duration_MTurk/v2_DepthDuration_HTML.html#29,29,1364,625,1364,768,8-22-2022,8-23-26,110,depth_duration_stimuli/002758_2014-06-22_19-11-20_094959634447_rgbf000128-resize_1/002758_2014-06-22_19-11-20_094959634447_rgbf000128-resize_1-target.png,1000,2.555,5,7861,961,feet,jsons/v1_VE1000_randls_70_rotated.json,997221,1157309,30,Woman
110,433557,DepthScenes,duration_manipulation_targetAtFixation,jsons/v1_VE1000_randls_70_rotated.json,http://54.235.29.9/FacialAge/BNav_EC2/DepthDuration/v2_depth_duration_MTurk/v2_DepthDuration_HTML.html#29,29,1364,625,1364,768,8-22-2022,8-23-26,111,depth_duration_stimuli/002630_2014-06-24_14-47-50_094959634447_rgbf000055-resize_1/002630_2014-06-24_14-47-50_094959634447_rgbf000055-resize_1-target.png,1000,3.0095,5,3025,1012,feet,jsons/v1_VE1000_randls_70_rotated.json,997221,1157309,30,Woman
111,433557,DepthScenes,duration_manipulation_targetAtFixation,jsons/v1_VE1000_randls_70_rotated.json,http://54.235.29.9/FacialAge/BNav_EC2/DepthDuration/v2_depth_duration_MTurk/v2_DepthDuration_HTML.html#29,29,1364,625,1364,768,8-22-2022,8-23-26,112,depth_duration_stimuli/002949_2014-06-26_15-57-42_094959634447_rgbf000079-resize_1/002949_2014-06-26_15-57-42_094959634447_rgbf000079-resize_1-target.png,1000,1.8915,6,6235,1004,feet,jsons/v1_VE1000_randls_70_rotated.json,997221,1157309,30,Woman
112,433557,DepthScenes,duration_manipulation_targetAtFixation,jsons/v1_VE1000_randls_70_rotated.json,http://54.235.29.9/FacialAge/BNav_EC2/DepthDuration/v2_depth_duration_MTurk/v2_DepthDuration_HTML.html#29,29,1364,625,1364,768,8-22-2022,8-23-26,113,depth_duration_stimuli/000522_2014-06-08_13-35-06_260595134347_rgbf000244-resize_1/000522_2014-06-08_13-35-06_260595134347_rgbf000244-resize_1-target.png,1000,2.3715,3,3977,990,feet,jsons/v1_VE1000_randls_70_rotated.json,997221,1157309,30,Woman
113,433557,DepthScenes,duration_manipulation_targetAtFixation,jsons/v1_VE1000_randls_70_rotated.json,http://54.235.29.9/FacialAge/BNav_EC2/DepthDuration/v2_depth_duration_MTurk/v2_DepthDuration_HTML.html#29,29,1364,625,1364,768,8-22-2022,8-23-26,114,depth_duration_stimuli/002637_2014-06-24_14-51-13_094959634447_rgbf000066-resize_4/002637_2014-06-24_14-51-13_094959634447_rgbf000066-resize_4-target.png,1000,1.9955,3,5031,1011,feet,jsons/v1_VE1000_randls_70_rotated.json,997221,1157309,30,Woman
114,433557,DepthScenes,duration_manipulation_targetAtFixation,jsons/v1_VE1000_randls_70_rotated.json,http://54.235.29.9/FacialAge/BNav_EC2/DepthDuration/v2_depth_duration_MTurk/v2_DepthDuration_HTML.html#29,29,1364,625,1364,768,8-22-2022,8-23-26,115,depth_duration_stimuli/003534_2014-05-22_15-06-10_094959634447_rgbf000102-resize_4/003534_2014-05-22_15-06-10_094959634447_rgbf000102-resize_4-target.png,1000,1.426,5,5621,1059,feet,jsons/v1_VE1000_randls_70_rotated.json,997221,1157309,30,Woman
115,433557,DepthScenes,duration_manipulation_targetAtFixation,jsons/v1_VE1000_randls_70_rotated.json,http://54.235.29.9/FacialAge/BNav_EC2/DepthDuration/v2_depth_duration_MTurk/v2_DepthDuration_HTML.html#29,29,1364,625,1364,768,8-22-2022,8-23-26,116,depth_duration_stimuli/002323_2014-06-28_20-01-54_260595134347_rgbf000051-resize_4/002323_2014-06-28_20-01-54_260595134347_rgbf000051-resize_4-target.png,1000,3.7310000000000003,5,6634,993,feet,jsons/v1_VE1000_randls_70_rotated.json,997221,1157309,30,Woman
116,433557,DepthScenes,duration_manipulation_targetAtFixation,jsons/v1_VE1000_randls_70_rotated.json,http://54.235.29.9/FacialAge/BNav_EC2/DepthDuration/v2_depth_duration_MTurk/v2_DepthDuration_HTML.html#29,29,1364,625,1364,768,8-22-2022,8-23-26,117,depth_duration_stimuli/000917_2014-06-09_22-45-29_260595134347_rgbf000149-resize_3/000917_2014-06-09_22-45-29_260595134347_rgbf000149-resize_3-target.png,1000,4.1865,5,3562,1054,feet,jsons/v1_VE1000_randls_70_rotated.json,997221,1157309,30,Woman
117,433557,DepthScenes,duration_manipulation_targetAtFixation,jsons/v1_VE1000_randls_70_rotated.json,http://54.235.29.9/FacialAge/BNav_EC2/DepthDuration/v2_depth_duration_MTurk/v2_DepthDuration_HTML.html#29,29,1364,625,1364,768,8-22-2022,8-23-26,118,depth_duration_stimuli/003490_2014-05-21_15-50-11_094959634447_rgbf000101-resize_3/003490_2014-05-21_15-50-11_094959634447_rgbf000101-resize_3-target.png,1000,3.6445,4,6069,996,feet,jsons/v1_VE1000_randls_70_rotated.json,997221,1157309,30,Woman
118,433557,DepthScenes,duration_manipulation_targetAtFixation,jsons/v1_VE1000_randls_70_rotated.json,http://54.235.29.9/FacialAge/BNav_EC2/DepthDuration/v2_depth_duration_MTurk/v2_DepthDuration_HTML.html#29,29,1364,625,1364,768,8-22-2022,8-23-26,119,depth_duration_stimuli/001175_2014-06-17_15-45-55_260595134347_rgbf000129-resize_4/001175_2014-06-17_15-45-55_260595134347_rgbf000129-resize_4-target.png,1000,4.255,3,4662,1041,feet,jsons/v1_VE1000_randls_70_rotated.json,997221,1157309,30,Woman
119,433557,DepthScenes,duration_manipulation_targetAtFixation,jsons/v1_VE1000_randls_70_rotated.json,http://54.235.29.9/FacialAge/BNav_EC2/DepthDuration/v2_depth_duration_MTurk/v2_DepthDuration_HTML.html#29,29,1364,625,1364,768,8-22-2022,8-23-26,120,depth_duration_stimuli/000787_2014-06-08_22-33-53_260595134347_rgbf000175-resize_1/000787_2014-06-08_22-33-53_260595134347_rgbf000175-resize-original.jpg,1000,4.784,5,4477,893,feet,jsons/v1_VE1000_randls_70_rotated.json,997221,1157309,30,Woman
120,433557,DepthScenes,duration_manipulation_targetAtFixation,jsons/v1_VE1000_randls_70_rotated.json,http://54.235.29.9/FacialAge/BNav_EC2/DepthDuration/v2_depth_duration_MTurk/v2_DepthDuration_HTML.html#29,29,1364,625,1364,768,8-22-2022,8-23-26,121,depth_duration_stimuli/002750_2014-06-22_19-08-03_094959634447_rgbf000094-resize_4/002750_2014-06-22_19-08-03_094959634447_rgbf000094-resize_4-target.png,1000,2.354,5,5424,1001,feet,jsons/v1_VE1000_randls_70_rotated.json,997221,1157309,30,Woman
121,433557,DepthScenes,duration_manipulation_targetAtFixation,jsons/v1_VE1000_randls_70_rotated.json,http://54.235.29.9/FacialAge/BNav_EC2/DepthDuration/v2_depth_duration_MTurk/v2_DepthDuration_HTML.html#29,29,1364,625,1364,768,8-22-2022,8-23-26,122,depth_duration_stimuli/002549_2014-06-24_13-41-39_094959634447_rgbf000022-resize_3/002549_2014-06-24_13-41-39_094959634447_rgbf000022-resize_3-target.png,1000,1.476,5,6142,998,feet,jsons/v1_VE1000_randls_70_rotated.json,997221,1157309,30,Woman
122,433557,DepthScenes,duration_manipulation_targetAtFixation,jsons/v1_VE1000_randls_70_rotated.json,http://54.235.29.9/FacialAge/BNav_EC2/DepthDuration/v2_depth_duration_MTurk/v2_DepthDuration_HTML.html#29,29,1364,625,1364,768,8-22-2022,8-23-26,123,depth_duration_stimuli/001392_2014-06-19_16-07-59_260595134347_rgbf000046-resize_1/001392_2014-06-19_16-07-59_260595134347_rgbf000046-resize_1-target.png,1000,4.135,3,4007,999,feet,jsons/v1_VE1000_randls_70_rotated.json,997221,1157309,30,Woman
123,433557,DepthScenes,duration_manipulation_targetAtFixation,jsons/v1_VE1000_randls_70_rotated.json,http://54.235.29.9/FacialAge/BNav_EC2/DepthDuration/v2_depth_duration_MTurk/v2_DepthDuration_HTML.html#29,29,1364,625,1364,768,8-22-2022,8-23-26,124,depth_duration_stimuli/001570_2014-06-20_17-21-09_260595134347_rgbf000135-resize_4/001570_2014-06-20_17-21-09_260595134347_rgbf000135-resize_4-target.png,1000,4.467,5,4719,847,feet,jsons/v1_VE1000_randls_70_rotated.json,997221,1157309,30,Woman
124,433557,DepthScenes,duration_manipulation_targetAtFixation,jsons/v1_VE1000_randls_70_rotated.json,http://54.235.29.9/FacialAge/BNav_EC2/DepthDuration/v2_depth_duration_MTurk/v2_DepthDuration_HTML.html#29,29,1364,625,1364,768,8-22-2022,8-23-26,125,depth_duration_stimuli/002414_2014-06-28_20-24-58_260595134347_rgbf000067-resize_4/002414_2014-06-28_20-24-58_260595134347_rgbf000067-resize_4-target.png,1000,4.363,5,4865,993,feet,jsons/v1_VE1000_randls_70_rotated.json,997221,1157309,30,Woman
125,433557,DepthScenes,duration_manipulation_targetAtFixation,jsons/v1_VE1000_randls_70_rotated.json,http://54.235.29.9/FacialAge/BNav_EC2/DepthDuration/v2_depth_duration_MTurk/v2_DepthDuration_HTML.html#29,29,1364,625,1364,768,8-22-2022,8-23-26,126,depth_duration_stimuli/000773_2014-06-08_22-24-54_260595134347_rgbf000093-resize_1/000773_2014-06-08_22-24-54_260595134347_rgbf000093-resize_1-target.png,1000,4.973,5,12920,957,feet,jsons/v1_VE1000_randls_70_rotated.json,997221,1157309,30,Woman
126,433557,DepthScenes,duration_manipulation_targetAtFixation,jsons/v1_VE1000_randls_70_rotated.json,http://54.235.29.9/FacialAge/BNav_EC2/DepthDuration/v2_depth_duration_MTurk/v2_DepthDuration_HTML.html#29,29,1364,625,1364,768,8-22-2022,8-23-26,127,depth_duration_stimuli/001052_2014-06-08_18-24-54_260595134347_rgbf000130-resize_1/001052_2014-06-08_18-24-54_260595134347_rgbf000130-resize_1-target.png,1000,4.1045,4,4310,997,feet,jsons/v1_VE1000_randls_70_rotated.json,997221,1157309,30,Woman
127,433557,DepthScenes,duration_manipulation_targetAtFixation,jsons/v1_VE1000_randls_70_rotated.json,http://54.235.29.9/FacialAge/BNav_EC2/DepthDuration/v2_depth_duration_MTurk/v2_DepthDuration_HTML.html#29,29,1364,625,1364,768,8-22-2022,8-23-26,128,depth_duration_stimuli/002988_2014-06-15_12-24-20_094959634447_rgbf000150-resize_1/002988_2014-06-15_12-24-20_094959634447_rgbf000150-resize_1-target.png,1000,4.7669999999999995,5,3785,931,feet,jsons/v1_VE1000_randls_70_rotated.json,997221,1157309,30,Woman
128,433557,DepthScenes,duration_manipulation_targetAtFixation,jsons/v1_VE1000_randls_70_rotated.json,http://54.235.29.9/FacialAge/BNav_EC2/DepthDuration/v2_depth_duration_MTurk/v2_DepthDuration_HTML.html#29,29,1364,625,1364,768,8-22-2022,8-23-26,129,depth_duration_stimuli/000556_2014-06-09_22-42-56_260595134347_rgbf000214-resize_1/000556_2014-06-09_22-42-56_260595134347_rgbf000214-resize_1-target.png,1000,4.8415,4,5562,1303,feet,jsons/v1_VE1000_randls_70_rotated.json,997221,1157309,30,Woman
129,433557,DepthScenes,duration_manipulation_targetAtFixation,jsons/v1_VE1000_randls_70_rotated.json,http://54.235.29.9/FacialAge/BNav_EC2/DepthDuration/v2_depth_duration_MTurk/v2_DepthDuration_HTML.html#29,29,1364,625,1364,768,8-22-2022,8-23-26,130,depth_duration_stimuli/001158_2014-06-17_15-32-16_260595134347_rgbf000138-resize_2/001158_2014-06-17_15-32-16_260595134347_rgbf000138-resize_2-target.png,1000,4.5315,5,3211,999,feet,jsons/v1_VE1000_randls_70_rotated.json,997221,1157309,30,Woman
130,433557,DepthScenes,duration_manipulation_targetAtFixation,jsons/v1_VE1000_randls_70_rotated.json,http://54.235.29.9/FacialAge/BNav_EC2/DepthDuration/v2_depth_duration_MTurk/v2_DepthDuration_HTML.html#29,29,1364,625,1364,768,8-22-2022,8-23-26,131,depth_duration_stimuli/000502_2014-06-08_23-02-32_260595134347_rgbf000063-resize_4/000502_2014-06-08_23-02-32_260595134347_rgbf000063-resize_4-target.png,1000,2.431,6,4051,1028,feet,jsons/v1_VE1000_randls_70_rotated.json,997221,1157309,30,Woman
131,433557,DepthScenes,duration_manipulation_targetAtFixation,jsons/v1_VE1000_randls_70_rotated.json,http://54.235.29.9/FacialAge/BNav_EC2/DepthDuration/v2_depth_duration_MTurk/v2_DepthDuration_HTML.html#29,29,1364,625,1364,768,8-22-2022,8-23-26,132,depth_duration_stimuli/001199_2014-06-17_16-03-48_260595134347_rgbf000077-resize_0/001199_2014-06-17_16-03-48_260595134347_rgbf000077-resize_0-target.png,1000,3.4375,5,3704,955,feet,jsons/v1_VE1000_randls_70_rotated.json,997221,1157309,30,Woman
132,433557,DepthScenes,duration_manipulation_targetAtFixation,jsons/v1_VE1000_randls_70_rotated.json,http://54.235.29.9/FacialAge/BNav_EC2/DepthDuration/v2_depth_duration_MTurk/v2_DepthDuration_HTML.html#29,29,1364,625,1364,768,8-22-2022,8-23-26,133,depth_duration_stimuli/000749_2014-06-08_21-55-06_260595134347_rgbf000070-resize_2/000749_2014-06-08_21-55-06_260595134347_rgbf000070-resize_2-target.png,1000,2.331,4,5126,1498,feet,jsons/v1_VE1000_randls_70_rotated.json,997221,1157309,30,Woman
133,433557,DepthScenes,duration_manipulation_targetAtFixation,jsons/v1_VE1000_randls_70_rotated.json,http://54.235.29.9/FacialAge/BNav_EC2/DepthDuration/v2_depth_duration_MTurk/v2_DepthDuration_HTML.html#29,29,1364,625,1364,768,8-22-2022,8-23-26,134,depth_duration_stimuli/002788_2014-06-22_19-36-03_094959634447_rgbf000088-resize_2/002788_2014-06-22_19-36-03_094959634447_rgbf000088-resize_2-target.png,1000,1.6465,5,4758,1089,feet,jsons/v1_VE1000_randls_70_rotated.json,997221,1157309,30,Woman
134,433557,DepthScenes,duration_manipulation_targetAtFixation,jsons/v1_VE1000_randls_70_rotated.json,http://54.235.29.9/FacialAge/BNav_EC2/DepthDuration/v2_depth_duration_MTurk/v2_DepthDuration_HTML.html#29,29,1364,625,1364,768,8-22-2022,8-23-26,135,depth_duration_stimuli/000375_2014-06-08_11-17-29_260595134347_rgbf000133-resize_2/000375_2014-06-08_11-17-29_260595134347_rgbf000133-resize-original.jpg,1000,4.718,0,3786,981,feet,jsons/v1_VE1000_randls_70_rotated.json,997221,1157309,30,Woman
135,433557,DepthScenes,duration_manipulation_targetAtFixation,jsons/v1_VE1000_randls_70_rotated.json,http://54.235.29.9/FacialAge/BNav_EC2/DepthDuration/v2_depth_duration_MTurk/v2_DepthDuration_HTML.html#29,29,1364,625,1364,768,8-22-2022,8-23-26,136,depth_duration_stimuli/002678_2014-06-13_16-15-32_094959634447_rgbf000151-resize_6/002678_2014-06-13_16-15-32_094959634447_rgbf000151-resize_6-target.png,1000,2.1830000000000003,4,5081,999,feet,jsons/v1_VE1000_randls_70_rotated.json,997221,1157309,30,Woman
136,433557,DepthScenes,duration_manipulation_targetAtFixation,jsons/v1_VE1000_randls_70_rotated.json,http://54.235.29.9/FacialAge/BNav_EC2/DepthDuration/v2_depth_duration_MTurk/v2_DepthDuration_HTML.html#29,29,1364,625,1364,768,8-22-2022,8-23-26,137,depth_duration_stimuli/000368_2014-06-09_15-53-01_260595134347_rgbf000155-resize_2/000368_2014-06-09_15-53-01_260595134347_rgbf000155-resize_2-target.png,1000,2.4859999999999998,5,3776,2034,feet,jsons/v1_VE1000_randls_70_rotated.json,997221,1157309,30,Woman
137,433557,DepthScenes,duration_manipulation_targetAtFixation,jsons/v1_VE1000_randls_70_rotated.json,http://54.235.29.9/FacialAge/BNav_EC2/DepthDuration/v2_depth_duration_MTurk/v2_DepthDuration_HTML.html#29,29,1364,625,1364,768,8-22-2022,8-23-26,138,depth_duration_stimuli/000734_2014-06-08_17-39-11_260595134347_rgbf000128-resize_2/000734_2014-06-08_17-39-11_260595134347_rgbf000128-resize_2-target.png,1000,4.098,2,3057,948,feet,jsons/v1_VE1000_randls_70_rotated.json,997221,1157309,30,Woman
138,433557,DepthScenes,duration_manipulation_targetAtFixation,jsons/v1_VE1000_randls_70_rotated.json,http://54.235.29.9/FacialAge/BNav_EC2/DepthDuration/v2_depth_duration_MTurk/v2_DepthDuration_HTML.html#29,29,1364,625,1364,768,8-22-2022,8-23-26,139,depth_duration_stimuli/000739_2014-06-08_18-45-58_260595134347_rgbf000068-resize_1/000739_2014-06-08_18-45-58_260595134347_rgbf000068-resize_1-target.png,1000,3.534,3,3045,1007,feet,jsons/v1_VE1000_randls_70_rotated.json,997221,1157309,30,Woman
139,433557,DepthScenes,duration_manipulation_targetAtFixation,jsons/v1_VE1000_randls_70_rotated.json,http://54.235.29.9/FacialAge/BNav_EC2/DepthDuration/v2_depth_duration_MTurk/v2_DepthDuration_HTML.html#29,29,1364,625,1364,768,8-22-2022,8-23-26,140,depth_duration_stimuli/001650_2014-06-20_12-09-00_260595134347_rgbf000087-resize_3/001650_2014-06-20_12-09-00_260595134347_rgbf000087-resize_3-target.png,1000,1.9505,2,3780,994,feet,jsons/v1_VE1000_randls_70_rotated.json,997221,1157309,30,Woman
140,433557,DepthScenes,duration_manipulation_targetAtFixation,jsons/v1_VE1000_randls_70_rotated.json,http://54.235.29.9/FacialAge/BNav_EC2/DepthDuration/v2_depth_duration_MTurk/v2_DepthDuration_HTML.html#29,29,1364,625,1364,768,8-22-2022,8-23-26,141,depth_duration_stimuli/000682_2014-06-08_23-14-58_260595134347_rgbf000041-resize_5/000682_2014-06-08_23-14-58_260595134347_rgbf000041-resize_5-target.png,1000,2.7239999999999998,3,3651,1007,feet,jsons/v1_VE1000_randls_70_rotated.json,997221,1157309,30,Woman
141,433557,DepthScenes,duration_manipulation_targetAtFixation,jsons/v1_VE1000_randls_70_rotated.json,http://54.235.29.9/FacialAge/BNav_EC2/DepthDuration/v2_depth_duration_MTurk/v2_DepthDuration_HTML.html#29,29,1364,625,1364,768,8-22-2022,8-23-26,142,depth_duration_stimuli/003495_2014-05-21_16-01-51_094959634447_rgbf000100-resize_3/003495_2014-05-21_16-01-51_094959634447_rgbf000100-resize_3-target.png,1000,1.6255,2,4265,941,feet,jsons/v1_VE1000_randls_70_rotated.json,997221,1157309,30,Woman
142,433557,DepthScenes,duration_manipulation_targetAtFixation,jsons/v1_VE1000_randls_70_rotated.json,http://54.235.29.9/FacialAge/BNav_EC2/DepthDuration/v2_depth_duration_MTurk/v2_DepthDuration_HTML.html#29,29,1364,625,1364,768,8-22-2022,8-23-26,143,depth_duration_stimuli/001244_2014-06-17_16-47-45_260595134347_rgbf000030-resize_4/001244_2014-06-17_16-47-45_260595134347_rgbf000030-resize_4-target.png,1000,2.0425,5,2898,1004,feet,jsons/v1_VE1000_randls_70_rotated.json,997221,1157309,30,Woman
143,433557,DepthScenes,duration_manipulation_targetAtFixation,jsons/v1_VE1000_randls_70_rotated.json,http://54.235.29.9/FacialAge/BNav_EC2/DepthDuration/v2_depth_duration_MTurk/v2_DepthDuration_HTML.html#29,29,1364,625,1364,768,8-22-2022,8-23-26,144,depth_duration_stimuli/000457_2014-06-08_16-52-43_260595134347_rgbf000199-resize_1/000457_2014-06-08_16-52-43_260595134347_rgbf000199-resize_1-target.png,1000,3.6489999999999996,3,3164,1001,feet,jsons/v1_VE1000_randls_70_rotated.json,997221,1157309,30,Woman
144,433557,DepthScenes,duration_manipulation_targetAtFixation,jsons/v1_VE1000_randls_70_rotated.json,http://54.235.29.9/FacialAge/BNav_EC2/DepthDuration/v2_depth_duration_MTurk/v2_DepthDuration_HTML.html#29,29,1364,625,1364,768,8-22-2022,8-23-26,145,depth_duration_stimuli/000929_2014-06-09_16-33-19_260595134347_rgbf000139-resize_0/000929_2014-06-09_16-33-19_260595134347_rgbf000139-resize_0-target.png,1000,2.8680000000000003,3,2975,977,feet,jsons/v1_VE1000_randls_70_rotated.json,997221,1157309,30,Woman
145,433557,DepthScenes,duration_manipulation_targetAtFixation,jsons/v1_VE1000_randls_70_rotated.json,http://54.235.29.9/FacialAge/BNav_EC2/DepthDuration/v2_depth_duration_MTurk/v2_DepthDuration_HTML.html#29,29,1364,625,1364,768,8-22-2022,8-23-26,146,depth_duration_stimuli/003423_2014-05-21_10-23-26_094959634447_rgbf002665-resize_2/003423_2014-05-21_10-23-26_094959634447_rgbf002665-resize_2-target.png,1000,3.2575,5,5566,1002,feet,jsons/v1_VE1000_randls_70_rotated.json,997221,1157309,30,Woman
146,433557,DepthScenes,duration_manipulation_targetAtFixation,jsons/v1_VE1000_randls_70_rotated.json,http://54.235.29.9/FacialAge/BNav_EC2/DepthDuration/v2_depth_duration_MTurk/v2_DepthDuration_HTML.html#29,29,1364,625,1364,768,8-22-2022,8-23-26,147,depth_duration_stimuli/002905_2014-06-03_18-04-43_094959634447_rgbf000151-resize_2/002905_2014-06-03_18-04-43_094959634447_rgbf000151-resize_2-target.png,1000,2.0295,5,3448,999,feet,jsons/v1_VE1000_randls_70_rotated.json,997221,1157309,30,Woman
147,433557,DepthScenes,duration_manipulation_targetAtFixation,jsons/v1_VE1000_randls_70_rotated.json,http://54.235.29.9/FacialAge/BNav_EC2/DepthDuration/v2_depth_duration_MTurk/v2_DepthDuration_HTML.html#29,29,1364,625,1364,768,8-22-2022,8-23-26,148,depth_duration_stimuli/002209_2014-06-28_18-36-10_260595134347_rgbf000051-resize_1/002209_2014-06-28_18-36-10_260595134347_rgbf000051-resize_1-target.png,1000,2.057,4,4427,920,feet,jsons/v1_VE1000_randls_70_rotated.json,997221,1157309,30,Woman
148,433557,DepthScenes,duration_manipulation_targetAtFixation,jsons/v1_VE1000_randls_70_rotated.json,http://54.235.29.9/FacialAge/BNav_EC2/DepthDuration/v2_depth_duration_MTurk/v2_DepthDuration_HTML.html#29,29,1364,625,1364,768,8-22-2022,8-23-26,149,depth_duration_stimuli/002763_2014-06-22_19-13-10_094959634447_rgbf000075-resize_4/002763_2014-06-22_19-13-10_094959634447_rgbf000075-resize_4-target.png,1000,1.68375,3,3411,984,feet,jsons/v1_VE1000_randls_70_rotated.json,997221,1157309,30,Woman
149,433557,DepthScenes,duration_manipulation_targetAtFixation,jsons/v1_VE1000_randls_70_rotated.json,http://54.235.29.9/FacialAge/BNav_EC2/DepthDuration/v2_depth_duration_MTurk/v2_DepthDuration_HTML.html#29,29,1364,625,1364,768,8-22-2022,8-23-26,150,depth_duration_stimuli/002875_2014-06-01_15-19-00_094959634447_rgbf000151-resize_1/002875_2014-06-01_15-19-00_094959634447_rgbf000151-resize_1-target.png,1000,1.9675,5,3759,994,feet,jsons/v1_VE1000_randls_70_rotated.json,997221,1157309,30,Woman
150,433557,DepthScenes,duration_manipulation_targetAtFixation,jsons/v1_VE1000_randls_70_rotated.json,http://54.235.29.9/FacialAge/BNav_EC2/DepthDuration/v2_depth_duration_MTurk/v2_DepthDuration_HTML.html#29,29,1364,625,1364,768,8-22-2022,8-23-26,151,depth_duration_stimuli/001011_2014-06-08_23-18-54_260595134347_rgbf000044-resize_4/001011_2014-06-08_23-18-54_260595134347_rgbf000044-resize_4-target.png,1000,2.4730000000000003,4,3174,1005,feet,jsons/v1_VE1000_randls_70_rotated.json,997221,1157309,30,Woman
151,433557,DepthScenes,duration_manipulation_targetAtFixation,jsons/v1_VE1000_randls_70_rotated.json,http://54.235.29.9/FacialAge/BNav_EC2/DepthDuration/v2_depth_duration_MTurk/v2_DepthDuration_HTML.html#29,29,1364,625,1364,768,8-22-2022,8-23-26,152,depth_duration_stimuli/000569_2014-06-09_22-51-47_260595134347_rgbf000141-resize_3/000569_2014-06-09_22-51-47_260595134347_rgbf000141-resize-original.jpg,1000,4.512,0,3538,983,feet,jsons/v1_VE1000_randls_70_rotated.json,997221,1157309,30,Woman
152,433557,DepthScenes,duration_manipulation_targetAtFixation,jsons/v1_VE1000_randls_70_rotated.json,http://54.235.29.9/FacialAge/BNav_EC2/DepthDuration/v2_depth_duration_MTurk/v2_DepthDuration_HTML.html#29,29,1364,625,1364,768,8-22-2022,8-23-26,153,depth_duration_stimuli/002995_2014-06-15_12-31-26_094959634447_rgbf000150-resize_1/002995_2014-06-15_12-31-26_094959634447_rgbf000150-resize_1-target.png,1000,3.8360000000000003,5,4494,1004,feet,jsons/v1_VE1000_randls_70_rotated.json,997221,1157309,30,Woman
153,433557,DepthScenes,duration_manipulation_targetAtFixation,jsons/v1_VE1000_randls_70_rotated.json,http://54.235.29.9/FacialAge/BNav_EC2/DepthDuration/v2_depth_duration_MTurk/v2_DepthDuration_HTML.html#29,29,1364,625,1364,768,8-22-2022,8-23-26,154,depth_duration_stimuli/002748_2014-06-22_19-07-22_094959634447_rgbf000078-resize_1/002748_2014-06-22_19-07-22_094959634447_rgbf000078-resize_1-target.png,1000,4.6705,7,3832,960,feet,jsons/v1_VE1000_randls_70_rotated.json,997221,1157309,30,Woman
154,433557,DepthScenes,duration_manipulation_targetAtFixation,jsons/v1_VE1000_randls_70_rotated.json,http://54.235.29.9/FacialAge/BNav_EC2/DepthDuration/v2_depth_duration_MTurk/v2_DepthDuration_HTML.html#29,29,1364,625,1364,768,8-22-2022,8-23-26,155,depth_duration_stimuli/001584_2014-06-20_11-07-43_260595134347_rgbf000002-resize_1/001584_2014-06-20_11-07-43_260595134347_rgbf000002-resize_1-target.png,1000,3.53,5,4326,1003,feet,jsons/v1_VE1000_randls_70_rotated.json,997221,1157309,30,Woman
155,433557,DepthScenes,duration_manipulation_targetAtFixation,jsons/v1_VE1000_randls_70_rotated.json,http://54.235.29.9/FacialAge/BNav_EC2/DepthDuration/v2_depth_duration_MTurk/v2_DepthDuration_HTML.html#29,29,1364,625,1364,768,8-22-2022,8-23-26,156,depth_duration_stimuli/003621_2014-05-23_18-06-08_094959634447_rgbf000101-resize_1/003621_2014-05-23_18-06-08_094959634447_rgbf000101-resize_1-target.png,1000,3.9835,5,2840,992,feet,jsons/v1_VE1000_randls_70_rotated.json,997221,1157309,30,Woman
156,433557,DepthScenes,duration_manipulation_targetAtFixation,jsons/v1_VE1000_randls_70_rotated.json,http://54.235.29.9/FacialAge/BNav_EC2/DepthDuration/v2_depth_duration_MTurk/v2_DepthDuration_HTML.html#29,29,1364,625,1364,768,8-22-2022,8-23-26,157,depth_duration_stimuli/003129_2014-05-12_10-48-10_094959634447_rgbf000100-resize_0/003129_2014-05-12_10-48-10_094959634447_rgbf000100-resize_0-target.png,1000,4.9305,5,4151,1021,feet,jsons/v1_VE1000_randls_70_rotated.json,997221,1157309,30,Woman
157,433557,DepthScenes,duration_manipulation_targetAtFixation,jsons/v1_VE1000_randls_70_rotated.json,http://54.235.29.9/FacialAge/BNav_EC2/DepthDuration/v2_depth_duration_MTurk/v2_DepthDuration_HTML.html#29,29,1364,625,1364,768,8-22-2022,8-23-26,158,depth_duration_stimuli/000414_2014-06-04_19-49-13_260595134347_rgbf000044-resize_0/000414_2014-06-04_19-49-13_260595134347_rgbf000044-resize_0-target.png,1000,4.329,3,2808,1003,feet,jsons/v1_VE1000_randls_70_rotated.json,997221,1157309,30,Woman
158,433557,DepthScenes,duration_manipulation_targetAtFixation,jsons/v1_VE1000_randls_70_rotated.json,http://54.235.29.9/FacialAge/BNav_EC2/DepthDuration/v2_depth_duration_MTurk/v2_DepthDuration_HTML.html#29,29,1364,625,1364,768,8-22-2022,8-23-26,159,depth_duration_stimuli/003083_2014-06-15_15-21-03_094959634447_rgbf000063-resize_1/003083_2014-06-15_15-21-03_094959634447_rgbf000063-resize_1-target.png,1000,4.1405,5,4051,999,feet,jsons/v1_VE1000_randls_70_rotated.json,997221,1157309,30,Woman
159,433557,DepthScenes,duration_manipulation_targetAtFixation,jsons/v1_VE1000_randls_70_rotated.json,http://54.235.29.9/FacialAge/BNav_EC2/DepthDuration/v2_depth_duration_MTurk/v2_DepthDuration_HTML.html#29,29,1364,625,1364,768,8-22-2022,8-23-26,160,depth_duration_stimuli/000486_2014-06-09_20-47-20_260595134347_rgbf000143-resize_2/000486_2014-06-09_20-47-20_260595134347_rgbf000143-resize_2-target.png,1000,4.8325,6,3827,978,feet,jsons/v1_VE1000_randls_70_rotated.json,997221,1157309,30,Woman
160,433557,DepthScenes,duration_manipulation_targetAtFixation,jsons/v1_VE1000_randls_70_rotated.json,http://54.235.29.9/FacialAge/BNav_EC2/DepthDuration/v2_depth_duration_MTurk/v2_DepthDuration_HTML.html#29,29,1364,625,1364,768,8-22-2022,8-23-26,161,depth_duration_stimuli/001815_2014-06-26_20-52-55_260595134347_rgbf000020-resize_0/001815_2014-06-26_20-52-55_260595134347_rgbf000020-resize_0-target.png,1000,3.3865,5,4314,1013,feet,jsons/v1_VE1000_randls_70_rotated.json,997221,1157309,30,Woman
161,433557,DepthScenes,duration_manipulation_targetAtFixation,jsons/v1_VE1000_randls_70_rotated.json,http://54.235.29.9/FacialAge/BNav_EC2/DepthDuration/v2_depth_duration_MTurk/v2_DepthDuration_HTML.html#29,29,1364,625,1364,768,8-22-2022,8-23-26,162,depth_duration_stimuli/001808_2014-06-26_20-50-58_260595134347_rgbf000029-resize_1/001808_2014-06-26_20-50-58_260595134347_rgbf000029-resize_1-target.png,1000,4.249,6,3273,1059,feet,jsons/v1_VE1000_randls_70_rotated.json,997221,1157309,30,Woman
162,433557,DepthScenes,duration_manipulation_targetAtFixation,jsons/v1_VE1000_randls_70_rotated.json,http://54.235.29.9/FacialAge/BNav_EC2/DepthDuration/v2_depth_duration_MTurk/v2_DepthDuration_HTML.html#29,29,1364,625,1364,768,8-22-2022,8-23-26,163,depth_duration_stimuli/002344_2014-06-28_20-06-29_260595134347_rgbf000030-resize_1/002344_2014-06-28_20-06-29_260595134347_rgbf000030-resize_1-target.png,1000,1.5795,4,4401,1089,feet,jsons/v1_VE1000_randls_70_rotated.json,997221,1157309,30,Woman
163,433557,DepthScenes,duration_manipulation_targetAtFixation,jsons/v1_VE1000_randls_70_rotated.json,http://54.235.29.9/FacialAge/BNav_EC2/DepthDuration/v2_depth_duration_MTurk/v2_DepthDuration_HTML.html#29,29,1364,625,1364,768,8-22-2022,8-23-26,164,depth_duration_stimuli/002725_2014-06-22_11-47-51_094959634447_rgbf000070-resize_1/002725_2014-06-22_11-47-51_094959634447_rgbf000070-resize_1-target.png,1000,2.195,5,3266,997,feet,jsons/v1_VE1000_randls_70_rotated.json,997221,1157309,30,Woman
