,subjID,experimentName,versionName,sequenceName,url,selected_row,windowWidth,windowHeight,screenWidth,screenHeight,startDate,startTime,trial,stimulus,duration,actual_depth,depth_estimate,trial_RT,log_sceneDuration,unitSelection,seq_filepath,experimentTime,totalTime,age,gender
0,436991,DepthScenes,duration_manipulation_targetAtFixation,jsons/VE125_randls_71_rotated.json,http://54.235.29.9/FacialAge/BNav_EC2/DepthDuration/v2_depth_duration_MTurk/v2_DepthDuration_HTML.html#69,69,1366,768,1366,768,8-21-2022,9-38-45,1,depth_duration_stimuli/003228_2014-05-14_13-42-35_094959634447_rgbf000101-resize_1/003228_2014-05-14_13-42-35_094959634447_rgbf000101-resize_1-target.png,125,1.9680000000000002,5,2967,117,meters,jsons/VE125_randls_71_rotated.json,537743,703359,62,Woman
1,436991,DepthScenes,duration_manipulation_targetAtFixation,jsons/VE125_randls_71_rotated.json,http://54.235.29.9/FacialAge/BNav_EC2/DepthDuration/v2_depth_duration_MTurk/v2_DepthDuration_HTML.html#69,69,1366,768,1366,768,8-21-2022,9-38-45,2,depth_duration_stimuli/002600_2014-06-24_14-27-04_094959634447_rgbf000074-resize_2/002600_2014-06-24_14-27-04_094959634447_rgbf000074-resize_2-target.png,125,2.7575,1,2401,123,meters,jsons/VE125_randls_71_rotated.json,537743,703359,62,Woman
2,436991,DepthScenes,duration_manipulation_targetAtFixation,jsons/VE125_randls_71_rotated.json,http://54.235.29.9/FacialAge/BNav_EC2/DepthDuration/v2_depth_duration_MTurk/v2_DepthDuration_HTML.html#69,69,1366,768,1366,768,8-21-2022,9-38-45,3,depth_duration_stimuli/002805_2014-06-22_19-54-03_094959634447_rgbf000079-resize_1/002805_2014-06-22_19-54-03_094959634447_rgbf000079-resize_1-target.png,125,3.1439999999999997,5,2293,129,meters,jsons/VE125_randls_71_rotated.json,537743,703359,62,Woman
3,436991,DepthScenes,duration_manipulation_targetAtFixation,jsons/VE125_randls_71_rotated.json,http://54.235.29.9/FacialAge/BNav_EC2/DepthDuration/v2_depth_duration_MTurk/v2_DepthDuration_HTML.html#69,69,1366,768,1366,768,8-21-2022,9-38-45,4,depth_duration_stimuli/000906_2014-06-08_13-35-43_260595134347_rgbf000155-resize_1/000906_2014-06-08_13-35-43_260595134347_rgbf000155-resize_1-target.png,125,2.8489999999999998,5,2335,119,meters,jsons/VE125_randls_71_rotated.json,537743,703359,62,Woman
4,436991,DepthScenes,duration_manipulation_targetAtFixation,jsons/VE125_randls_71_rotated.json,http://54.235.29.9/FacialAge/BNav_EC2/DepthDuration/v2_depth_duration_MTurk/v2_DepthDuration_HTML.html#69,69,1366,768,1366,768,8-21-2022,9-38-45,5,depth_duration_stimuli/001052_2014-06-08_18-24-54_260595134347_rgbf000130-resize_1/001052_2014-06-08_18-24-54_260595134347_rgbf000130-resize_1-target.png,125,4.1045,6,4405,153,meters,jsons/VE125_randls_71_rotated.json,537743,703359,62,Woman
5,436991,DepthScenes,duration_manipulation_targetAtFixation,jsons/VE125_randls_71_rotated.json,http://54.235.29.9/FacialAge/BNav_EC2/DepthDuration/v2_depth_duration_MTurk/v2_DepthDuration_HTML.html#69,69,1366,768,1366,768,8-21-2022,9-38-45,6,depth_duration_stimuli/002988_2014-06-15_12-24-20_094959634447_rgbf000150-resize_1/002988_2014-06-15_12-24-20_094959634447_rgbf000150-resize_1-target.png,125,4.7669999999999995,5,2906,118,meters,jsons/VE125_randls_71_rotated.json,537743,703359,62,Woman
6,436991,DepthScenes,duration_manipulation_targetAtFixation,jsons/VE125_randls_71_rotated.json,http://54.235.29.9/FacialAge/BNav_EC2/DepthDuration/v2_depth_duration_MTurk/v2_DepthDuration_HTML.html#69,69,1366,768,1366,768,8-21-2022,9-38-45,7,depth_duration_stimuli/000677_2014-06-08_23-10-32_260595134347_rgbf000158-resize_6/000677_2014-06-08_23-10-32_260595134347_rgbf000158-resize_6-target.png,125,3.556,6,2190,108,meters,jsons/VE125_randls_71_rotated.json,537743,703359,62,Woman
7,436991,DepthScenes,duration_manipulation_targetAtFixation,jsons/VE125_randls_71_rotated.json,http://54.235.29.9/FacialAge/BNav_EC2/DepthDuration/v2_depth_duration_MTurk/v2_DepthDuration_HTML.html#69,69,1366,768,1366,768,8-21-2022,9-38-45,8,depth_duration_stimuli/001029_2014-06-08_13-17-57_260595134347_rgbf000065-resize_1/001029_2014-06-08_13-17-57_260595134347_rgbf000065-resize_1-target.png,125,3.0835,4,2952,124,meters,jsons/VE125_randls_71_rotated.json,537743,703359,62,Woman
8,436991,DepthScenes,duration_manipulation_targetAtFixation,jsons/VE125_randls_71_rotated.json,http://54.235.29.9/FacialAge/BNav_EC2/DepthDuration/v2_depth_duration_MTurk/v2_DepthDuration_HTML.html#69,69,1366,768,1366,768,8-21-2022,9-38-45,9,depth_duration_stimuli/000780_2014-06-08_22-28-29_260595134347_rgbf000126-resize_1/000780_2014-06-08_22-28-29_260595134347_rgbf000126-resize_1-target.png,125,3.3825,5,2467,126,meters,jsons/VE125_randls_71_rotated.json,537743,703359,62,Woman
9,436991,DepthScenes,duration_manipulation_targetAtFixation,jsons/VE125_randls_71_rotated.json,http://54.235.29.9/FacialAge/BNav_EC2/DepthDuration/v2_depth_duration_MTurk/v2_DepthDuration_HTML.html#69,69,1366,768,1366,768,8-21-2022,9-38-45,10,depth_duration_stimuli/002445_2014-06-28_20-32-16_260595134347_rgbf000029-resize_4/002445_2014-06-28_20-32-16_260595134347_rgbf000029-resize_4-target.png,125,2.5315,6,2140,91,meters,jsons/VE125_randls_71_rotated.json,537743,703359,62,Woman
10,436991,DepthScenes,duration_manipulation_targetAtFixation,jsons/VE125_randls_71_rotated.json,http://54.235.29.9/FacialAge/BNav_EC2/DepthDuration/v2_depth_duration_MTurk/v2_DepthDuration_HTML.html#69,69,1366,768,1366,768,8-21-2022,9-38-45,11,depth_duration_stimuli/003048_2014-06-15_13-49-43_094959634447_rgbf000150-resize_1/003048_2014-06-15_13-49-43_094959634447_rgbf000150-resize_1-target.png,125,4.0035,5,2847,124,meters,jsons/VE125_randls_71_rotated.json,537743,703359,62,Woman
11,436991,DepthScenes,duration_manipulation_targetAtFixation,jsons/VE125_randls_71_rotated.json,http://54.235.29.9/FacialAge/BNav_EC2/DepthDuration/v2_depth_duration_MTurk/v2_DepthDuration_HTML.html#69,69,1366,768,1366,768,8-21-2022,9-38-45,12,depth_duration_stimuli/002043_2014-06-24_20-29-38_260595134347_rgbf000039-resize_4/002043_2014-06-24_20-29-38_260595134347_rgbf000039-resize_4-target.png,125,2.8435,5,2032,121,meters,jsons/VE125_randls_71_rotated.json,537743,703359,62,Woman
12,436991,DepthScenes,duration_manipulation_targetAtFixation,jsons/VE125_randls_71_rotated.json,http://54.235.29.9/FacialAge/BNav_EC2/DepthDuration/v2_depth_duration_MTurk/v2_DepthDuration_HTML.html#69,69,1366,768,1366,768,8-21-2022,9-38-45,13,depth_duration_stimuli/002344_2014-06-28_20-06-29_260595134347_rgbf000030-resize_1/002344_2014-06-28_20-06-29_260595134347_rgbf000030-resize_1-target.png,125,1.5795,6,2309,111,meters,jsons/VE125_randls_71_rotated.json,537743,703359,62,Woman
13,436991,DepthScenes,duration_manipulation_targetAtFixation,jsons/VE125_randls_71_rotated.json,http://54.235.29.9/FacialAge/BNav_EC2/DepthDuration/v2_depth_duration_MTurk/v2_DepthDuration_HTML.html#69,69,1366,768,1366,768,8-21-2022,9-38-45,14,depth_duration_stimuli/002725_2014-06-22_11-47-51_094959634447_rgbf000070-resize_1/002725_2014-06-22_11-47-51_094959634447_rgbf000070-resize_1-target.png,125,2.195,4,2734,127,meters,jsons/VE125_randls_71_rotated.json,537743,703359,62,Woman
14,436991,DepthScenes,duration_manipulation_targetAtFixation,jsons/VE125_randls_71_rotated.json,http://54.235.29.9/FacialAge/BNav_EC2/DepthDuration/v2_depth_duration_MTurk/v2_DepthDuration_HTML.html#69,69,1366,768,1366,768,8-21-2022,9-38-45,15,depth_duration_stimuli/000709_2014-06-08_13-51-55_260595134347_rgbf000068-resize_3/000709_2014-06-08_13-51-55_260595134347_rgbf000068-resize_3-target.png,125,1.8030000000000002,6,2387,136,meters,jsons/VE125_randls_71_rotated.json,537743,703359,62,Woman
15,436991,DepthScenes,duration_manipulation_targetAtFixation,jsons/VE125_randls_71_rotated.json,http://54.235.29.9/FacialAge/BNav_EC2/DepthDuration/v2_depth_duration_MTurk/v2_DepthDuration_HTML.html#69,69,1366,768,1366,768,8-21-2022,9-38-45,16,depth_duration_stimuli/002057_2014-06-24_21-00-13_260595134347_rgbf000120-resize_1/002057_2014-06-24_21-00-13_260595134347_rgbf000120-resize_1-target.png,125,2.967,5,2455,129,meters,jsons/VE125_randls_71_rotated.json,537743,703359,62,Woman
16,436991,DepthScenes,duration_manipulation_targetAtFixation,jsons/VE125_randls_71_rotated.json,http://54.235.29.9/FacialAge/BNav_EC2/DepthDuration/v2_depth_duration_MTurk/v2_DepthDuration_HTML.html#69,69,1366,768,1366,768,8-21-2022,9-38-45,17,depth_duration_stimuli/001815_2014-06-26_20-52-55_260595134347_rgbf000020-resize_0/001815_2014-06-26_20-52-55_260595134347_rgbf000020-resize_0-target.png,125,3.3865,5,2144,140,meters,jsons/VE125_randls_71_rotated.json,537743,703359,62,Woman
17,436991,DepthScenes,duration_manipulation_targetAtFixation,jsons/VE125_randls_71_rotated.json,http://54.235.29.9/FacialAge/BNav_EC2/DepthDuration/v2_depth_duration_MTurk/v2_DepthDuration_HTML.html#69,69,1366,768,1366,768,8-21-2022,9-38-45,18,depth_duration_stimuli/001808_2014-06-26_20-50-58_260595134347_rgbf000029-resize_1/001808_2014-06-26_20-50-58_260595134347_rgbf000029-resize_1-target.png,125,4.249,6,2142,125,meters,jsons/VE125_randls_71_rotated.json,537743,703359,62,Woman
18,436991,DepthScenes,duration_manipulation_targetAtFixation,jsons/VE125_randls_71_rotated.json,http://54.235.29.9/FacialAge/BNav_EC2/DepthDuration/v2_depth_duration_MTurk/v2_DepthDuration_HTML.html#69,69,1366,768,1366,768,8-21-2022,9-38-45,19,depth_duration_stimuli/001498_2014-06-19_17-45-14_260595134347_rgbf000129-resize_4/001498_2014-06-19_17-45-14_260595134347_rgbf000129-resize-original.jpg,125,1.4075,0,2222,117,meters,jsons/VE125_randls_71_rotated.json,537743,703359,62,Woman
19,436991,DepthScenes,duration_manipulation_targetAtFixation,jsons/VE125_randls_71_rotated.json,http://54.235.29.9/FacialAge/BNav_EC2/DepthDuration/v2_depth_duration_MTurk/v2_DepthDuration_HTML.html#69,69,1366,768,1366,768,8-21-2022,9-38-45,20,depth_duration_stimuli/003423_2014-05-21_10-23-26_094959634447_rgbf002665-resize_2/003423_2014-05-21_10-23-26_094959634447_rgbf002665-resize_2-target.png,125,3.2575,5,1969,124,meters,jsons/VE125_randls_71_rotated.json,537743,703359,62,Woman
20,436991,DepthScenes,duration_manipulation_targetAtFixation,jsons/VE125_randls_71_rotated.json,http://54.235.29.9/FacialAge/BNav_EC2/DepthDuration/v2_depth_duration_MTurk/v2_DepthDuration_HTML.html#69,69,1366,768,1366,768,8-21-2022,9-38-45,21,depth_duration_stimuli/002905_2014-06-03_18-04-43_094959634447_rgbf000151-resize_2/002905_2014-06-03_18-04-43_094959634447_rgbf000151-resize_2-target.png,125,2.0295,2,3191,128,meters,jsons/VE125_randls_71_rotated.json,537743,703359,62,Woman
21,436991,DepthScenes,duration_manipulation_targetAtFixation,jsons/VE125_randls_71_rotated.json,http://54.235.29.9/FacialAge/BNav_EC2/DepthDuration/v2_depth_duration_MTurk/v2_DepthDuration_HTML.html#69,69,1366,768,1366,768,8-21-2022,9-38-45,22,depth_duration_stimuli/001094_2014-06-15_17-36-00_260595134347_rgbf000205-resize_0/001094_2014-06-15_17-36-00_260595134347_rgbf000205-resize_0-target.png,125,4.2175,4,3253,115,meters,jsons/VE125_randls_71_rotated.json,537743,703359,62,Woman
22,436991,DepthScenes,duration_manipulation_targetAtFixation,jsons/VE125_randls_71_rotated.json,http://54.235.29.9/FacialAge/BNav_EC2/DepthDuration/v2_depth_duration_MTurk/v2_DepthDuration_HTML.html#69,69,1366,768,1366,768,8-21-2022,9-38-45,23,depth_duration_stimuli/000692_2014-06-08_13-09-42_260595134347_rgbf000199-resize_2/000692_2014-06-08_13-09-42_260595134347_rgbf000199-resize_2-target.png,125,3.661,6,2411,129,meters,jsons/VE125_randls_71_rotated.json,537743,703359,62,Woman
23,436991,DepthScenes,duration_manipulation_targetAtFixation,jsons/VE125_randls_71_rotated.json,http://54.235.29.9/FacialAge/BNav_EC2/DepthDuration/v2_depth_duration_MTurk/v2_DepthDuration_HTML.html#69,69,1366,768,1366,768,8-21-2022,9-38-45,24,depth_duration_stimuli/000409_2014-06-04_19-23-33_260595134347_rgbf000067-resize_0/000409_2014-06-04_19-23-33_260595134347_rgbf000067-resize_0-target.png,125,3.7335,5,2326,123,meters,jsons/VE125_randls_71_rotated.json,537743,703359,62,Woman
24,436991,DepthScenes,duration_manipulation_targetAtFixation,jsons/VE125_randls_71_rotated.json,http://54.235.29.9/FacialAge/BNav_EC2/DepthDuration/v2_depth_duration_MTurk/v2_DepthDuration_HTML.html#69,69,1366,768,1366,768,8-21-2022,9-38-45,25,depth_duration_stimuli/002663_2014-06-13_15-50-26_094959634447_rgbf000075-resize_1/002663_2014-06-13_15-50-26_094959634447_rgbf000075-resize_1-target.png,125,4.7495,5,2354,121,meters,jsons/VE125_randls_71_rotated.json,537743,703359,62,Woman
25,436991,DepthScenes,duration_manipulation_targetAtFixation,jsons/VE125_randls_71_rotated.json,http://54.235.29.9/FacialAge/BNav_EC2/DepthDuration/v2_depth_duration_MTurk/v2_DepthDuration_HTML.html#69,69,1366,768,1366,768,8-21-2022,9-38-45,26,depth_duration_stimuli/000749_2014-06-08_21-55-06_260595134347_rgbf000070-resize_2/000749_2014-06-08_21-55-06_260595134347_rgbf000070-resize_2-target.png,125,2.331,4,2799,170,meters,jsons/VE125_randls_71_rotated.json,537743,703359,62,Woman
26,436991,DepthScenes,duration_manipulation_targetAtFixation,jsons/VE125_randls_71_rotated.json,http://54.235.29.9/FacialAge/BNav_EC2/DepthDuration/v2_depth_duration_MTurk/v2_DepthDuration_HTML.html#69,69,1366,768,1366,768,8-21-2022,9-38-45,27,depth_duration_stimuli/002788_2014-06-22_19-36-03_094959634447_rgbf000088-resize_2/002788_2014-06-22_19-36-03_094959634447_rgbf000088-resize_2-target.png,125,1.6465,4,2486,121,meters,jsons/VE125_randls_71_rotated.json,537743,703359,62,Woman
27,436991,DepthScenes,duration_manipulation_targetAtFixation,jsons/VE125_randls_71_rotated.json,http://54.235.29.9/FacialAge/BNav_EC2/DepthDuration/v2_depth_duration_MTurk/v2_DepthDuration_HTML.html#69,69,1366,768,1366,768,8-21-2022,9-38-45,28,depth_duration_stimuli/001617_2014-06-20_11-35-32_260595134347_rgbf000066-resize_1/001617_2014-06-20_11-35-32_260595134347_rgbf000066-resize_1-target.png,125,3.7910000000000004,6,2126,127,meters,jsons/VE125_randls_71_rotated.json,537743,703359,62,Woman
28,436991,DepthScenes,duration_manipulation_targetAtFixation,jsons/VE125_randls_71_rotated.json,http://54.235.29.9/FacialAge/BNav_EC2/DepthDuration/v2_depth_duration_MTurk/v2_DepthDuration_HTML.html#69,69,1366,768,1366,768,8-21-2022,9-38-45,29,depth_duration_stimuli/001806_2014-06-26_20-50-20_260595134347_rgbf000091-resize_1/001806_2014-06-26_20-50-20_260595134347_rgbf000091-resize_1-target.png,125,2.7305,4,2647,128,meters,jsons/VE125_randls_71_rotated.json,537743,703359,62,Woman
29,436991,DepthScenes,duration_manipulation_targetAtFixation,jsons/VE125_randls_71_rotated.json,http://54.235.29.9/FacialAge/BNav_EC2/DepthDuration/v2_depth_duration_MTurk/v2_DepthDuration_HTML.html#69,69,1366,768,1366,768,8-21-2022,9-38-45,30,depth_duration_stimuli/002072_2014-06-24_21-48-06_260595134347_rgbf000115-resize_0/002072_2014-06-24_21-48-06_260595134347_rgbf000115-resize-original.jpg,125,4.702,0,2364,121,meters,jsons/VE125_randls_71_rotated.json,537743,703359,62,Woman
30,436991,DepthScenes,duration_manipulation_targetAtFixation,jsons/VE125_randls_71_rotated.json,http://54.235.29.9/FacialAge/BNav_EC2/DepthDuration/v2_depth_duration_MTurk/v2_DepthDuration_HTML.html#69,69,1366,768,1366,768,8-21-2022,9-38-45,31,depth_duration_stimuli/001214_2014-06-17_16-13-55_260595134347_rgbf000111-resize_0/001214_2014-06-17_16-13-55_260595134347_rgbf000111-resize_0-target.png,125,2.6505,5,2085,123,meters,jsons/VE125_randls_71_rotated.json,537743,703359,62,Woman
31,436991,DepthScenes,duration_manipulation_targetAtFixation,jsons/VE125_randls_71_rotated.json,http://54.235.29.9/FacialAge/BNav_EC2/DepthDuration/v2_depth_duration_MTurk/v2_DepthDuration_HTML.html#69,69,1366,768,1366,768,8-21-2022,9-38-45,32,depth_duration_stimuli/000810_2014-06-08_17-20-01_260595134347_rgbf000105-resize_0/000810_2014-06-08_17-20-01_260595134347_rgbf000105-resize_0-target.png,125,1.4865,6,2186,136,meters,jsons/VE125_randls_71_rotated.json,537743,703359,62,Woman
32,436991,DepthScenes,duration_manipulation_targetAtFixation,jsons/VE125_randls_71_rotated.json,http://54.235.29.9/FacialAge/BNav_EC2/DepthDuration/v2_depth_duration_MTurk/v2_DepthDuration_HTML.html#69,69,1366,768,1366,768,8-21-2022,9-38-45,33,depth_duration_stimuli/003587_2014-05-23_16-48-02_094959634447_rgbf002384-resize_2/003587_2014-05-23_16-48-02_094959634447_rgbf002384-resize_2-target.png,125,1.357,1,2433,103,meters,jsons/VE125_randls_71_rotated.json,537743,703359,62,Woman
33,436991,DepthScenes,duration_manipulation_targetAtFixation,jsons/VE125_randls_71_rotated.json,http://54.235.29.9/FacialAge/BNav_EC2/DepthDuration/v2_depth_duration_MTurk/v2_DepthDuration_HTML.html#69,69,1366,768,1366,768,8-21-2022,9-38-45,34,depth_duration_stimuli/001167_2014-06-17_15-38-07_260595134347_rgbf000108-resize_0/001167_2014-06-17_15-38-07_260595134347_rgbf000108-resize_0-target.png,125,1.8505,1,2169,110,meters,jsons/VE125_randls_71_rotated.json,537743,703359,62,Woman
34,436991,DepthScenes,duration_manipulation_targetAtFixation,jsons/VE125_randls_71_rotated.json,http://54.235.29.9/FacialAge/BNav_EC2/DepthDuration/v2_depth_duration_MTurk/v2_DepthDuration_HTML.html#69,69,1366,768,1366,768,8-21-2022,9-38-45,35,depth_duration_stimuli/001650_2014-06-20_12-09-00_260595134347_rgbf000087-resize_3/001650_2014-06-20_12-09-00_260595134347_rgbf000087-resize_3-target.png,125,1.9505,5,2233,130,meters,jsons/VE125_randls_71_rotated.json,537743,703359,62,Woman
35,436991,DepthScenes,duration_manipulation_targetAtFixation,jsons/VE125_randls_71_rotated.json,http://54.235.29.9/FacialAge/BNav_EC2/DepthDuration/v2_depth_duration_MTurk/v2_DepthDuration_HTML.html#69,69,1366,768,1366,768,8-21-2022,9-38-45,36,depth_duration_stimuli/000682_2014-06-08_23-14-58_260595134347_rgbf000041-resize_5/000682_2014-06-08_23-14-58_260595134347_rgbf000041-resize_5-target.png,125,2.7239999999999998,8,2330,123,meters,jsons/VE125_randls_71_rotated.json,537743,703359,62,Woman
36,436991,DepthScenes,duration_manipulation_targetAtFixation,jsons/VE125_randls_71_rotated.json,http://54.235.29.9/FacialAge/BNav_EC2/DepthDuration/v2_depth_duration_MTurk/v2_DepthDuration_HTML.html#69,69,1366,768,1366,768,8-21-2022,9-38-45,37,depth_duration_stimuli/000742_2014-06-08_18-48-09_260595134347_rgbf000164-resize_4/000742_2014-06-08_18-48-09_260595134347_rgbf000164-resize_4-target.png,125,4.632,8,2436,127,meters,jsons/VE125_randls_71_rotated.json,537743,703359,62,Woman
37,436991,DepthScenes,duration_manipulation_targetAtFixation,jsons/VE125_randls_71_rotated.json,http://54.235.29.9/FacialAge/BNav_EC2/DepthDuration/v2_depth_duration_MTurk/v2_DepthDuration_HTML.html#69,69,1366,768,1366,768,8-21-2022,9-38-45,38,depth_duration_stimuli/001066_2014-06-08_22-03-20_260595134347_rgbf000066-resize_4/001066_2014-06-08_22-03-20_260595134347_rgbf000066-resize_4-target.png,125,4.2330000000000005,5,2884,109,meters,jsons/VE125_randls_71_rotated.json,537743,703359,62,Woman
38,436991,DepthScenes,duration_manipulation_targetAtFixation,jsons/VE125_randls_71_rotated.json,http://54.235.29.9/FacialAge/BNav_EC2/DepthDuration/v2_depth_duration_MTurk/v2_DepthDuration_HTML.html#69,69,1366,768,1366,768,8-21-2022,9-38-45,39,depth_duration_stimuli/001392_2014-06-19_16-07-59_260595134347_rgbf000046-resize_1/001392_2014-06-19_16-07-59_260595134347_rgbf000046-resize_1-target.png,125,4.135,9,2997,112,meters,jsons/VE125_randls_71_rotated.json,537743,703359,62,Woman
39,436991,DepthScenes,duration_manipulation_targetAtFixation,jsons/VE125_randls_71_rotated.json,http://54.235.29.9/FacialAge/BNav_EC2/DepthDuration/v2_depth_duration_MTurk/v2_DepthDuration_HTML.html#69,69,1366,768,1366,768,8-21-2022,9-38-45,40,depth_duration_stimuli/001570_2014-06-20_17-21-09_260595134347_rgbf000135-resize_4/001570_2014-06-20_17-21-09_260595134347_rgbf000135-resize_4-target.png,125,4.467,7,2529,120,meters,jsons/VE125_randls_71_rotated.json,537743,703359,62,Woman
40,436991,DepthScenes,duration_manipulation_targetAtFixation,jsons/VE125_randls_71_rotated.json,http://54.235.29.9/FacialAge/BNav_EC2/DepthDuration/v2_depth_duration_MTurk/v2_DepthDuration_HTML.html#69,69,1366,768,1366,768,8-21-2022,9-38-45,41,depth_duration_stimuli/002678_2014-06-13_16-15-32_094959634447_rgbf000151-resize_6/002678_2014-06-13_16-15-32_094959634447_rgbf000151-resize_6-target.png,125,2.1830000000000003,5,2237,115,meters,jsons/VE125_randls_71_rotated.json,537743,703359,62,Woman
41,436991,DepthScenes,duration_manipulation_targetAtFixation,jsons/VE125_randls_71_rotated.json,http://54.235.29.9/FacialAge/BNav_EC2/DepthDuration/v2_depth_duration_MTurk/v2_DepthDuration_HTML.html#69,69,1366,768,1366,768,8-21-2022,9-38-45,42,depth_duration_stimuli/000368_2014-06-09_15-53-01_260595134347_rgbf000155-resize_2/000368_2014-06-09_15-53-01_260595134347_rgbf000155-resize_2-target.png,125,2.4859999999999998,4,2312,131,meters,jsons/VE125_randls_71_rotated.json,537743,703359,62,Woman
42,436991,DepthScenes,duration_manipulation_targetAtFixation,jsons/VE125_randls_71_rotated.json,http://54.235.29.9/FacialAge/BNav_EC2/DepthDuration/v2_depth_duration_MTurk/v2_DepthDuration_HTML.html#69,69,1366,768,1366,768,8-21-2022,9-38-45,43,depth_duration_stimuli/002953_2014-06-08_17-32-18_094959634447_rgbf000059-resize_5/002953_2014-06-08_17-32-18_094959634447_rgbf000059-resize_5-target.png,125,1.551,5,2587,110,meters,jsons/VE125_randls_71_rotated.json,537743,703359,62,Woman
43,436991,DepthScenes,duration_manipulation_targetAtFixation,jsons/VE125_randls_71_rotated.json,http://54.235.29.9/FacialAge/BNav_EC2/DepthDuration/v2_depth_duration_MTurk/v2_DepthDuration_HTML.html#69,69,1366,768,1366,768,8-21-2022,9-38-45,44,depth_duration_stimuli/000878_2014-06-08_22-52-45_260595134347_rgbf000045-resize_2/000878_2014-06-08_22-52-45_260595134347_rgbf000045-resize_2-target.png,125,2.092,5,6361,127,meters,jsons/VE125_randls_71_rotated.json,537743,703359,62,Woman
44,436991,DepthScenes,duration_manipulation_targetAtFixation,jsons/VE125_randls_71_rotated.json,http://54.235.29.9/FacialAge/BNav_EC2/DepthDuration/v2_depth_duration_MTurk/v2_DepthDuration_HTML.html#69,69,1366,768,1366,768,8-21-2022,9-38-45,45,depth_duration_stimuli/000549_2014-06-08_22-10-24_260595134347_rgbf000247-resize_3/000549_2014-06-08_22-10-24_260595134347_rgbf000247-resize_3-target.png,125,1.841,5,3546,124,meters,jsons/VE125_randls_71_rotated.json,537743,703359,62,Woman
45,436991,DepthScenes,duration_manipulation_targetAtFixation,jsons/VE125_randls_71_rotated.json,http://54.235.29.9/FacialAge/BNav_EC2/DepthDuration/v2_depth_duration_MTurk/v2_DepthDuration_HTML.html#69,69,1366,768,1366,768,8-21-2022,9-38-45,46,depth_duration_stimuli/001055_2014-06-08_18-45-35_260595134347_rgbf000111-resize_4/001055_2014-06-08_18-45-35_260595134347_rgbf000111-resize_4-target.png,125,2.4290000000000003,8,2233,134,meters,jsons/VE125_randls_71_rotated.json,537743,703359,62,Woman
46,436991,DepthScenes,duration_manipulation_targetAtFixation,jsons/VE125_randls_71_rotated.json,http://54.235.29.9/FacialAge/BNav_EC2/DepthDuration/v2_depth_duration_MTurk/v2_DepthDuration_HTML.html#69,69,1366,768,1366,768,8-21-2022,9-38-45,47,depth_duration_stimuli/001447_2014-06-19_17-00-32_260595134347_rgbf000082-resize_5/001447_2014-06-19_17-00-32_260595134347_rgbf000082-resize_5-target.png,125,4.13775,5,1997,127,meters,jsons/VE125_randls_71_rotated.json,537743,703359,62,Woman
47,436991,DepthScenes,duration_manipulation_targetAtFixation,jsons/VE125_randls_71_rotated.json,http://54.235.29.9/FacialAge/BNav_EC2/DepthDuration/v2_depth_duration_MTurk/v2_DepthDuration_HTML.html#69,69,1366,768,1366,768,8-21-2022,9-38-45,48,depth_duration_stimuli/000447_2014-06-08_16-15-46_260595134347_rgbf000130-resize_1/000447_2014-06-08_16-15-46_260595134347_rgbf000130-resize_1-target.png,125,4.479,6,2291,121,meters,jsons/VE125_randls_71_rotated.json,537743,703359,62,Woman
48,436991,DepthScenes,duration_manipulation_targetAtFixation,jsons/VE125_randls_71_rotated.json,http://54.235.29.9/FacialAge/BNav_EC2/DepthDuration/v2_depth_duration_MTurk/v2_DepthDuration_HTML.html#69,69,1366,768,1366,768,8-21-2022,9-38-45,49,depth_duration_stimuli/001170_2014-06-17_15-43-44_260595134347_rgbf000096-resize_6/001170_2014-06-17_15-43-44_260595134347_rgbf000096-resize-original.jpg,125,1.1909999999999998,0,2100,125,meters,jsons/VE125_randls_71_rotated.json,537743,703359,62,Woman
49,436991,DepthScenes,duration_manipulation_targetAtFixation,jsons/VE125_randls_71_rotated.json,http://54.235.29.9/FacialAge/BNav_EC2/DepthDuration/v2_depth_duration_MTurk/v2_DepthDuration_HTML.html#69,69,1366,768,1366,768,8-21-2022,9-38-45,50,depth_duration_stimuli/002425_2014-06-28_20-27-29_260595134347_rgbf000031-resize_8/002425_2014-06-28_20-27-29_260595134347_rgbf000031-resize_8-target.png,125,3.8960000000000004,5,2303,113,meters,jsons/VE125_randls_71_rotated.json,537743,703359,62,Woman
50,436991,DepthScenes,duration_manipulation_targetAtFixation,jsons/VE125_randls_71_rotated.json,http://54.235.29.9/FacialAge/BNav_EC2/DepthDuration/v2_depth_duration_MTurk/v2_DepthDuration_HTML.html#69,69,1366,768,1366,768,8-21-2022,9-38-45,51,depth_duration_stimuli/000642_2014-06-08_16-59-25_260595134347_rgbf000098-resize_2/000642_2014-06-08_16-59-25_260595134347_rgbf000098-resize_2-target.png,125,2.8815,4,2238,126,meters,jsons/VE125_randls_71_rotated.json,537743,703359,62,Woman
51,436991,DepthScenes,duration_manipulation_targetAtFixation,jsons/VE125_randls_71_rotated.json,http://54.235.29.9/FacialAge/BNav_EC2/DepthDuration/v2_depth_duration_MTurk/v2_DepthDuration_HTML.html#69,69,1366,768,1366,768,8-21-2022,9-38-45,52,depth_duration_stimuli/003079_2014-06-15_15-18-20_094959634447_rgbf000152-resize_8/003079_2014-06-15_15-18-20_094959634447_rgbf000152-resize_8-target.png,125,2.8775,6,2134,126,meters,jsons/VE125_randls_71_rotated.json,537743,703359,62,Woman
52,436991,DepthScenes,duration_manipulation_targetAtFixation,jsons/VE125_randls_71_rotated.json,http://54.235.29.9/FacialAge/BNav_EC2/DepthDuration/v2_depth_duration_MTurk/v2_DepthDuration_HTML.html#69,69,1366,768,1366,768,8-21-2022,9-38-45,53,depth_duration_stimuli/000506_2014-06-08_23-21-00_260595134347_rgbf000070-resize_7/000506_2014-06-08_23-21-00_260595134347_rgbf000070-resize_7-target.png,125,4.0585,5,2276,125,meters,jsons/VE125_randls_71_rotated.json,537743,703359,62,Woman
53,436991,DepthScenes,duration_manipulation_targetAtFixation,jsons/VE125_randls_71_rotated.json,http://54.235.29.9/FacialAge/BNav_EC2/DepthDuration/v2_depth_duration_MTurk/v2_DepthDuration_HTML.html#69,69,1366,768,1366,768,8-21-2022,9-38-45,54,depth_duration_stimuli/002136_2014-06-25_21-18-03_260595134347_rgbf000109-resize_3/002136_2014-06-25_21-18-03_260595134347_rgbf000109-resize_3-target.png,125,1.9569999999999999,4,2067,126,meters,jsons/VE125_randls_71_rotated.json,537743,703359,62,Woman
54,436991,DepthScenes,duration_manipulation_targetAtFixation,jsons/VE125_randls_71_rotated.json,http://54.235.29.9/FacialAge/BNav_EC2/DepthDuration/v2_depth_duration_MTurk/v2_DepthDuration_HTML.html#69,69,1366,768,1366,768,8-21-2022,9-38-45,55,depth_duration_stimuli/002964_2014-06-08_17-46-11_094959634447_rgbf000091-resize_4/002964_2014-06-08_17-46-11_094959634447_rgbf000091-resize_4-target.png,125,1.6909999999999998,6,2112,119,meters,jsons/VE125_randls_71_rotated.json,537743,703359,62,Woman
55,436991,DepthScenes,duration_manipulation_targetAtFixation,jsons/VE125_randls_71_rotated.json,http://54.235.29.9/FacialAge/BNav_EC2/DepthDuration/v2_depth_duration_MTurk/v2_DepthDuration_HTML.html#69,69,1366,768,1366,768,8-21-2022,9-38-45,56,depth_duration_stimuli/002467_2014-06-28_20-38-07_260595134347_rgbf000026-resize_2/002467_2014-06-28_20-38-07_260595134347_rgbf000026-resize_2-target.png,125,4.742,5,2328,126,meters,jsons/VE125_randls_71_rotated.json,537743,703359,62,Woman
56,436991,DepthScenes,duration_manipulation_targetAtFixation,jsons/VE125_randls_71_rotated.json,http://54.235.29.9/FacialAge/BNav_EC2/DepthDuration/v2_depth_duration_MTurk/v2_DepthDuration_HTML.html#69,69,1366,768,1366,768,8-21-2022,9-38-45,57,depth_duration_stimuli/002570_2014-06-24_13-59-54_094959634447_rgbf000059-resize_0/002570_2014-06-24_13-59-54_094959634447_rgbf000059-resize_0-target.png,125,4.037,5,2107,114,meters,jsons/VE125_randls_71_rotated.json,537743,703359,62,Woman
57,436991,DepthScenes,duration_manipulation_targetAtFixation,jsons/VE125_randls_71_rotated.json,http://54.235.29.9/FacialAge/BNav_EC2/DepthDuration/v2_depth_duration_MTurk/v2_DepthDuration_HTML.html#69,69,1366,768,1366,768,8-21-2022,9-38-45,58,depth_duration_stimuli/000635_2014-06-08_16-38-42_260595134347_rgbf000106-resize_1/000635_2014-06-08_16-38-42_260595134347_rgbf000106-resize_1-target.png,125,2.074,4,2028,108,meters,jsons/VE125_randls_71_rotated.json,537743,703359,62,Woman
58,436991,DepthScenes,duration_manipulation_targetAtFixation,jsons/VE125_randls_71_rotated.json,http://54.235.29.9/FacialAge/BNav_EC2/DepthDuration/v2_depth_duration_MTurk/v2_DepthDuration_HTML.html#69,69,1366,768,1366,768,8-21-2022,9-38-45,59,depth_duration_stimuli/002279_2014-06-28_18-55-32_260595134347_rgbf000040-resize_5/002279_2014-06-28_18-55-32_260595134347_rgbf000040-resize_5-target.png,125,1.5043333333333,2,2473,123,meters,jsons/VE125_randls_71_rotated.json,537743,703359,62,Woman
59,436991,DepthScenes,duration_manipulation_targetAtFixation,jsons/VE125_randls_71_rotated.json,http://54.235.29.9/FacialAge/BNav_EC2/DepthDuration/v2_depth_duration_MTurk/v2_DepthDuration_HTML.html#69,69,1366,768,1366,768,8-21-2022,9-38-45,60,depth_duration_stimuli/003338_2014-05-20_11-01-23_094959634447_rgbf000051-resize_6/003338_2014-05-20_11-01-23_094959634447_rgbf000051-resize_6-target.png,125,1.693,1,2205,125,meters,jsons/VE125_randls_71_rotated.json,537743,703359,62,Woman
60,436991,DepthScenes,duration_manipulation_targetAtFixation,jsons/VE125_randls_71_rotated.json,http://54.235.29.9/FacialAge/BNav_EC2/DepthDuration/v2_depth_duration_MTurk/v2_DepthDuration_HTML.html#69,69,1366,768,1366,768,8-21-2022,9-38-45,61,depth_duration_stimuli/002509_2014-06-24_13-19-22_094959634447_rgbf000077-resize_0/002509_2014-06-24_13-19-22_094959634447_rgbf000077-resize_0-target.png,125,1.3065,1,2121,123,meters,jsons/VE125_randls_71_rotated.json,537743,703359,62,Woman
61,436991,DepthScenes,duration_manipulation_targetAtFixation,jsons/VE125_randls_71_rotated.json,http://54.235.29.9/FacialAge/BNav_EC2/DepthDuration/v2_depth_duration_MTurk/v2_DepthDuration_HTML.html#69,69,1366,768,1366,768,8-21-2022,9-38-45,62,depth_duration_stimuli/000191_2014-05-12_17-07-38_260595134347_rgbf000199-resize_0/000191_2014-05-12_17-07-38_260595134347_rgbf000199-resize_0-target.png,125,3.7995,8,2538,126,meters,jsons/VE125_randls_71_rotated.json,537743,703359,62,Woman
62,436991,DepthScenes,duration_manipulation_targetAtFixation,jsons/VE125_randls_71_rotated.json,http://54.235.29.9/FacialAge/BNav_EC2/DepthDuration/v2_depth_duration_MTurk/v2_DepthDuration_HTML.html#69,69,1366,768,1366,768,8-21-2022,9-38-45,63,depth_duration_stimuli/000493_2014-06-09_21-01-18_260595134347_rgbf000196-resize_3/000493_2014-06-09_21-01-18_260595134347_rgbf000196-resize_3-target.png,125,3.44,5,1908,79,meters,jsons/VE125_randls_71_rotated.json,537743,703359,62,Woman
63,436991,DepthScenes,duration_manipulation_targetAtFixation,jsons/VE125_randls_71_rotated.json,http://54.235.29.9/FacialAge/BNav_EC2/DepthDuration/v2_depth_duration_MTurk/v2_DepthDuration_HTML.html#69,69,1366,768,1366,768,8-21-2022,9-38-45,64,depth_duration_stimuli/000691_2014-06-08_13-08-50_260595134347_rgbf000132-resize_3/000691_2014-06-08_13-08-50_260595134347_rgbf000132-resize_3-target.png,125,4.1530000000000005,5,2768,114,meters,jsons/VE125_randls_71_rotated.json,537743,703359,62,Woman
64,436991,DepthScenes,duration_manipulation_targetAtFixation,jsons/VE125_randls_71_rotated.json,http://54.235.29.9/FacialAge/BNav_EC2/DepthDuration/v2_depth_duration_MTurk/v2_DepthDuration_HTML.html#69,69,1366,768,1366,768,8-21-2022,9-38-45,65,depth_duration_stimuli/002213_2014-06-28_18-37-58_260595134347_rgbf000055-resize_1/002213_2014-06-28_18-37-58_260595134347_rgbf000055-resize_1-target.png,125,3.62,4,2075,129,meters,jsons/VE125_randls_71_rotated.json,537743,703359,62,Woman
65,436991,DepthScenes,duration_manipulation_targetAtFixation,jsons/VE125_randls_71_rotated.json,http://54.235.29.9/FacialAge/BNav_EC2/DepthDuration/v2_depth_duration_MTurk/v2_DepthDuration_HTML.html#69,69,1366,768,1366,768,8-21-2022,9-38-45,66,depth_duration_stimuli/001540_2014-06-20_17-01-05_260595134347_rgbf000086-resize_2/001540_2014-06-20_17-01-05_260595134347_rgbf000086-resize-original.jpg,125,1.459,0,2135,138,meters,jsons/VE125_randls_71_rotated.json,537743,703359,62,Woman
66,436991,DepthScenes,duration_manipulation_targetAtFixation,jsons/VE125_randls_71_rotated.json,http://54.235.29.9/FacialAge/BNav_EC2/DepthDuration/v2_depth_duration_MTurk/v2_DepthDuration_HTML.html#69,69,1366,768,1366,768,8-21-2022,9-38-45,67,depth_duration_stimuli/000137_2014-05-20_17-04-49_260595134347_rgbf000120-resize_1/000137_2014-05-20_17-04-49_260595134347_rgbf000120-resize_1-target.png,125,3.786,8,2138,125,meters,jsons/VE125_randls_71_rotated.json,537743,703359,62,Woman
67,436991,DepthScenes,duration_manipulation_targetAtFixation,jsons/VE125_randls_71_rotated.json,http://54.235.29.9/FacialAge/BNav_EC2/DepthDuration/v2_depth_duration_MTurk/v2_DepthDuration_HTML.html#69,69,1366,768,1366,768,8-21-2022,9-38-45,68,depth_duration_stimuli/000736_2014-06-08_18-24-15_260595134347_rgbf000206-resize_3/000736_2014-06-08_18-24-15_260595134347_rgbf000206-resize_3-target.png,125,3.515,2,2271,125,meters,jsons/VE125_randls_71_rotated.json,537743,703359,62,Woman
68,436991,DepthScenes,duration_manipulation_targetAtFixation,jsons/VE125_randls_71_rotated.json,http://54.235.29.9/FacialAge/BNav_EC2/DepthDuration/v2_depth_duration_MTurk/v2_DepthDuration_HTML.html#69,69,1366,768,1366,768,8-21-2022,9-38-45,69,depth_duration_stimuli/001100_2014-06-15_17-46-26_260595134347_rgbf000225-resize_2/001100_2014-06-15_17-46-26_260595134347_rgbf000225-resize_2-target.png,125,2.24,2,2131,114,meters,jsons/VE125_randls_71_rotated.json,537743,703359,62,Woman
69,436991,DepthScenes,duration_manipulation_targetAtFixation,jsons/VE125_randls_71_rotated.json,http://54.235.29.9/FacialAge/BNav_EC2/DepthDuration/v2_depth_duration_MTurk/v2_DepthDuration_HTML.html#69,69,1366,768,1366,768,8-21-2022,9-38-45,70,depth_duration_stimuli/002784_2014-06-22_19-26-30_094959634447_rgbf000083-resize_3/002784_2014-06-22_19-26-30_094959634447_rgbf000083-resize_3-target.png,125,1.8046666666667,2,2085,127,meters,jsons/VE125_randls_71_rotated.json,537743,703359,62,Woman
70,436991,DepthScenes,duration_manipulation_targetAtFixation,jsons/VE125_randls_71_rotated.json,http://54.235.29.9/FacialAge/BNav_EC2/DepthDuration/v2_depth_duration_MTurk/v2_DepthDuration_HTML.html#69,69,1366,768,1366,768,8-21-2022,9-38-45,71,depth_duration_stimuli/001032_2014-06-08_13-23-17_260595134347_rgbf000021-resize_3/001032_2014-06-08_13-23-17_260595134347_rgbf000021-resize_3-target.png,125,3.2725,5,2080,121,meters,jsons/VE125_randls_71_rotated.json,537743,703359,62,Woman
71,436991,DepthScenes,duration_manipulation_targetAtFixation,jsons/VE125_randls_71_rotated.json,http://54.235.29.9/FacialAge/BNav_EC2/DepthDuration/v2_depth_duration_MTurk/v2_DepthDuration_HTML.html#69,69,1366,768,1366,768,8-21-2022,9-38-45,72,depth_duration_stimuli/001059_2014-06-08_21-53-27_260595134347_rgbf000061-resize_4/001059_2014-06-08_21-53-27_260595134347_rgbf000061-resize_4-target.png,125,2.4185,3,2256,122,meters,jsons/VE125_randls_71_rotated.json,537743,703359,62,Woman
72,436991,DepthScenes,duration_manipulation_targetAtFixation,jsons/VE125_randls_71_rotated.json,http://54.235.29.9/FacialAge/BNav_EC2/DepthDuration/v2_depth_duration_MTurk/v2_DepthDuration_HTML.html#69,69,1366,768,1366,768,8-21-2022,9-38-45,73,depth_duration_stimuli/002414_2014-06-28_20-24-58_260595134347_rgbf000067-resize_4/002414_2014-06-28_20-24-58_260595134347_rgbf000067-resize_4-target.png,125,4.363,5,3017,128,meters,jsons/VE125_randls_71_rotated.json,537743,703359,62,Woman
73,436991,DepthScenes,duration_manipulation_targetAtFixation,jsons/VE125_randls_71_rotated.json,http://54.235.29.9/FacialAge/BNav_EC2/DepthDuration/v2_depth_duration_MTurk/v2_DepthDuration_HTML.html#69,69,1366,768,1366,768,8-21-2022,9-38-45,74,depth_duration_stimuli/000773_2014-06-08_22-24-54_260595134347_rgbf000093-resize_1/000773_2014-06-08_22-24-54_260595134347_rgbf000093-resize_1-target.png,125,4.973,4,2309,110,meters,jsons/VE125_randls_71_rotated.json,537743,703359,62,Woman
74,436991,DepthScenes,duration_manipulation_targetAtFixation,jsons/VE125_randls_71_rotated.json,http://54.235.29.9/FacialAge/BNav_EC2/DepthDuration/v2_depth_duration_MTurk/v2_DepthDuration_HTML.html#69,69,1366,768,1366,768,8-21-2022,9-38-45,75,depth_duration_stimuli/003081_2014-06-15_15-19-16_094959634447_rgbf000150-resize_1/003081_2014-06-15_15-19-16_094959634447_rgbf000150-resize_1-target.png,125,3.9125,5,2116,132,meters,jsons/VE125_randls_71_rotated.json,537743,703359,62,Woman
75,436991,DepthScenes,duration_manipulation_targetAtFixation,jsons/VE125_randls_71_rotated.json,http://54.235.29.9/FacialAge/BNav_EC2/DepthDuration/v2_depth_duration_MTurk/v2_DepthDuration_HTML.html#69,69,1366,768,1366,768,8-21-2022,9-38-45,76,depth_duration_stimuli/001417_2014-06-19_16-25-36_260595134347_rgbf000115-resize_5/001417_2014-06-19_16-25-36_260595134347_rgbf000115-resize_5-target.png,125,4.6255,5,2172,109,meters,jsons/VE125_randls_71_rotated.json,537743,703359,62,Woman
76,436991,DepthScenes,duration_manipulation_targetAtFixation,jsons/VE125_randls_71_rotated.json,http://54.235.29.9/FacialAge/BNav_EC2/DepthDuration/v2_depth_duration_MTurk/v2_DepthDuration_HTML.html#69,69,1366,768,1366,768,8-21-2022,9-38-45,77,depth_duration_stimuli/000502_2014-06-08_23-02-32_260595134347_rgbf000063-resize_4/000502_2014-06-08_23-02-32_260595134347_rgbf000063-resize_4-target.png,125,2.431,1,2202,134,meters,jsons/VE125_randls_71_rotated.json,537743,703359,62,Woman
77,436991,DepthScenes,duration_manipulation_targetAtFixation,jsons/VE125_randls_71_rotated.json,http://54.235.29.9/FacialAge/BNav_EC2/DepthDuration/v2_depth_duration_MTurk/v2_DepthDuration_HTML.html#69,69,1366,768,1366,768,8-21-2022,9-38-45,78,depth_duration_stimuli/001199_2014-06-17_16-03-48_260595134347_rgbf000077-resize_0/001199_2014-06-17_16-03-48_260595134347_rgbf000077-resize_0-target.png,125,3.4375,5,2032,124,meters,jsons/VE125_randls_71_rotated.json,537743,703359,62,Woman
78,436991,DepthScenes,duration_manipulation_targetAtFixation,jsons/VE125_randls_71_rotated.json,http://54.235.29.9/FacialAge/BNav_EC2/DepthDuration/v2_depth_duration_MTurk/v2_DepthDuration_HTML.html#69,69,1366,768,1366,768,8-21-2022,9-38-45,79,depth_duration_stimuli/003129_2014-05-12_10-48-10_094959634447_rgbf000100-resize_0/003129_2014-05-12_10-48-10_094959634447_rgbf000100-resize_0-target.png,125,4.9305,5,2032,110,meters,jsons/VE125_randls_71_rotated.json,537743,703359,62,Woman
79,436991,DepthScenes,duration_manipulation_targetAtFixation,jsons/VE125_randls_71_rotated.json,http://54.235.29.9/FacialAge/BNav_EC2/DepthDuration/v2_depth_duration_MTurk/v2_DepthDuration_HTML.html#69,69,1366,768,1366,768,8-21-2022,9-38-45,80,depth_duration_stimuli/000414_2014-06-04_19-49-13_260595134347_rgbf000044-resize_0/000414_2014-06-04_19-49-13_260595134347_rgbf000044-resize_0-target.png,125,4.329,6,2489,125,meters,jsons/VE125_randls_71_rotated.json,537743,703359,62,Woman
80,436991,DepthScenes,duration_manipulation_targetAtFixation,jsons/VE125_randls_71_rotated.json,http://54.235.29.9/FacialAge/BNav_EC2/DepthDuration/v2_depth_duration_MTurk/v2_DepthDuration_HTML.html#69,69,1366,768,1366,768,8-21-2022,9-38-45,81,depth_duration_stimuli/001450_2014-06-19_17-02-03_260595134347_rgbf000203-resize_4/001450_2014-06-19_17-02-03_260595134347_rgbf000203-resize_4-target.png,125,4.0106666666667,7,3431,124,meters,jsons/VE125_randls_71_rotated.json,537743,703359,62,Woman
81,436991,DepthScenes,duration_manipulation_targetAtFixation,jsons/VE125_randls_71_rotated.json,http://54.235.29.9/FacialAge/BNav_EC2/DepthDuration/v2_depth_duration_MTurk/v2_DepthDuration_HTML.html#69,69,1366,768,1366,768,8-21-2022,9-38-45,82,depth_duration_stimuli/001449_2014-06-19_17-01-27_260595134347_rgbf000116-resize_2/001449_2014-06-19_17-01-27_260595134347_rgbf000116-resize_2-target.png,125,3.452,5,4412,126,meters,jsons/VE125_randls_71_rotated.json,537743,703359,62,Woman
82,436991,DepthScenes,duration_manipulation_targetAtFixation,jsons/VE125_randls_71_rotated.json,http://54.235.29.9/FacialAge/BNav_EC2/DepthDuration/v2_depth_duration_MTurk/v2_DepthDuration_HTML.html#69,69,1366,768,1366,768,8-21-2022,9-38-45,83,depth_duration_stimuli/002949_2014-06-26_15-57-42_094959634447_rgbf000079-resize_1/002949_2014-06-26_15-57-42_094959634447_rgbf000079-resize_1-target.png,125,1.8915,5,3183,168,meters,jsons/VE125_randls_71_rotated.json,537743,703359,62,Woman
83,436991,DepthScenes,duration_manipulation_targetAtFixation,jsons/VE125_randls_71_rotated.json,http://54.235.29.9/FacialAge/BNav_EC2/DepthDuration/v2_depth_duration_MTurk/v2_DepthDuration_HTML.html#69,69,1366,768,1366,768,8-21-2022,9-38-45,84,depth_duration_stimuli/000522_2014-06-08_13-35-06_260595134347_rgbf000244-resize_1/000522_2014-06-08_13-35-06_260595134347_rgbf000244-resize_1-target.png,125,2.3715,4,3169,123,meters,jsons/VE125_randls_71_rotated.json,537743,703359,62,Woman
84,436991,DepthScenes,duration_manipulation_targetAtFixation,jsons/VE125_randls_71_rotated.json,http://54.235.29.9/FacialAge/BNav_EC2/DepthDuration/v2_depth_duration_MTurk/v2_DepthDuration_HTML.html#69,69,1366,768,1366,768,8-21-2022,9-38-45,85,depth_duration_stimuli/003490_2014-05-21_15-50-11_094959634447_rgbf000101-resize_3/003490_2014-05-21_15-50-11_094959634447_rgbf000101-resize_3-target.png,125,3.6445,5,2961,134,meters,jsons/VE125_randls_71_rotated.json,537743,703359,62,Woman
85,436991,DepthScenes,duration_manipulation_targetAtFixation,jsons/VE125_randls_71_rotated.json,http://54.235.29.9/FacialAge/BNav_EC2/DepthDuration/v2_depth_duration_MTurk/v2_DepthDuration_HTML.html#69,69,1366,768,1366,768,8-21-2022,9-38-45,86,depth_duration_stimuli/001175_2014-06-17_15-45-55_260595134347_rgbf000129-resize_4/001175_2014-06-17_15-45-55_260595134347_rgbf000129-resize_4-target.png,125,4.255,0,3202,121,meters,jsons/VE125_randls_71_rotated.json,537743,703359,62,Woman
86,436991,DepthScenes,duration_manipulation_targetAtFixation,jsons/VE125_randls_71_rotated.json,http://54.235.29.9/FacialAge/BNav_EC2/DepthDuration/v2_depth_duration_MTurk/v2_DepthDuration_HTML.html#69,69,1366,768,1366,768,8-21-2022,9-38-45,87,depth_duration_stimuli/000927_2014-06-09_16-32-30_260595134347_rgbf000123-resize_3/000927_2014-06-09_16-32-30_260595134347_rgbf000123-resize_3-target.png,125,2.6785,5,2218,123,meters,jsons/VE125_randls_71_rotated.json,537743,703359,62,Woman
87,436991,DepthScenes,duration_manipulation_targetAtFixation,jsons/VE125_randls_71_rotated.json,http://54.235.29.9/FacialAge/BNav_EC2/DepthDuration/v2_depth_duration_MTurk/v2_DepthDuration_HTML.html#69,69,1366,768,1366,768,8-21-2022,9-38-45,88,depth_duration_stimuli/001110_2014-06-15_17-25-28_260595134347_rgbf000150-resize_1/001110_2014-06-15_17-25-28_260595134347_rgbf000150-resize_1-target.png,125,1.7115,4,2193,131,meters,jsons/VE125_randls_71_rotated.json,537743,703359,62,Woman
88,436991,DepthScenes,duration_manipulation_targetAtFixation,jsons/VE125_randls_71_rotated.json,http://54.235.29.9/FacialAge/BNav_EC2/DepthDuration/v2_depth_duration_MTurk/v2_DepthDuration_HTML.html#69,69,1366,768,1366,768,8-21-2022,9-38-45,89,depth_duration_stimuli/000109_2014-05-14_23-41-52_260595134347_rgbf000035-resize_9/000109_2014-05-14_23-41-52_260595134347_rgbf000035-resize_9-target.png,125,1.3545,5,2160,124,meters,jsons/VE125_randls_71_rotated.json,537743,703359,62,Woman
89,436991,DepthScenes,duration_manipulation_targetAtFixation,jsons/VE125_randls_71_rotated.json,http://54.235.29.9/FacialAge/BNav_EC2/DepthDuration/v2_depth_duration_MTurk/v2_DepthDuration_HTML.html#69,69,1366,768,1366,768,8-21-2022,9-38-45,90,depth_duration_stimuli/000470_2014-06-09_19-42-40_260595134347_rgbf000094-resize_1/000470_2014-06-09_19-42-40_260595134347_rgbf000094-resize_1-target.png,125,1.831,4,2373,109,meters,jsons/VE125_randls_71_rotated.json,537743,703359,62,Woman
90,436991,DepthScenes,duration_manipulation_targetAtFixation,jsons/VE125_randls_71_rotated.json,http://54.235.29.9/FacialAge/BNav_EC2/DepthDuration/v2_depth_duration_MTurk/v2_DepthDuration_HTML.html#69,69,1366,768,1366,768,8-21-2022,9-38-45,91,depth_duration_stimuli/003495_2014-05-21_16-01-51_094959634447_rgbf000100-resize_3/003495_2014-05-21_16-01-51_094959634447_rgbf000100-resize_3-target.png,125,1.6255,1,2213,128,meters,jsons/VE125_randls_71_rotated.json,537743,703359,62,Woman
91,436991,DepthScenes,duration_manipulation_targetAtFixation,jsons/VE125_randls_71_rotated.json,http://54.235.29.9/FacialAge/BNav_EC2/DepthDuration/v2_depth_duration_MTurk/v2_DepthDuration_HTML.html#69,69,1366,768,1366,768,8-21-2022,9-38-45,92,depth_duration_stimuli/001244_2014-06-17_16-47-45_260595134347_rgbf000030-resize_4/001244_2014-06-17_16-47-45_260595134347_rgbf000030-resize_4-target.png,125,2.0425,5,2570,127,meters,jsons/VE125_randls_71_rotated.json,537743,703359,62,Woman
92,436991,DepthScenes,duration_manipulation_targetAtFixation,jsons/VE125_randls_71_rotated.json,http://54.235.29.9/FacialAge/BNav_EC2/DepthDuration/v2_depth_duration_MTurk/v2_DepthDuration_HTML.html#69,69,1366,768,1366,768,8-21-2022,9-38-45,93,depth_duration_stimuli/002340_2014-06-28_20-05-46_260595134347_rgbf000113-resize_0/002340_2014-06-28_20-05-46_260595134347_rgbf000113-resize_0-target.png,125,2.4735,78,2401,119,meters,jsons/VE125_randls_71_rotated.json,537743,703359,62,Woman
93,436991,DepthScenes,duration_manipulation_targetAtFixation,jsons/VE125_randls_71_rotated.json,http://54.235.29.9/FacialAge/BNav_EC2/DepthDuration/v2_depth_duration_MTurk/v2_DepthDuration_HTML.html#69,69,1366,768,1366,768,8-21-2022,9-38-45,94,depth_duration_stimuli/001016_2014-06-09_16-16-10_260595134347_rgbf000112-resize_5/001016_2014-06-09_16-16-10_260595134347_rgbf000112-resize_5-target.png,125,1.6565,2,2774,121,meters,jsons/VE125_randls_71_rotated.json,537743,703359,62,Woman
94,436991,DepthScenes,duration_manipulation_targetAtFixation,jsons/VE125_randls_71_rotated.json,http://54.235.29.9/FacialAge/BNav_EC2/DepthDuration/v2_depth_duration_MTurk/v2_DepthDuration_HTML.html#69,69,1366,768,1366,768,8-21-2022,9-38-45,95,depth_duration_stimuli/001136_2014-06-17_15-19-41_260595134347_rgbf000076-resize_3/001136_2014-06-17_15-19-41_260595134347_rgbf000076-resize_3-target.png,125,1.8655,5,2957,126,meters,jsons/VE125_randls_71_rotated.json,537743,703359,62,Woman
95,436991,DepthScenes,duration_manipulation_targetAtFixation,jsons/VE125_randls_71_rotated.json,http://54.235.29.9/FacialAge/BNav_EC2/DepthDuration/v2_depth_duration_MTurk/v2_DepthDuration_HTML.html#69,69,1366,768,1366,768,8-21-2022,9-38-45,96,depth_duration_stimuli/001164_2014-06-17_15-35-46_260595134347_rgbf000085-resize_3/001164_2014-06-17_15-35-46_260595134347_rgbf000085-resize_3-target.png,125,2.354,6,2742,112,meters,jsons/VE125_randls_71_rotated.json,537743,703359,62,Woman
96,436991,DepthScenes,duration_manipulation_targetAtFixation,jsons/VE125_randls_71_rotated.json,http://54.235.29.9/FacialAge/BNav_EC2/DepthDuration/v2_depth_duration_MTurk/v2_DepthDuration_HTML.html#69,69,1366,768,1366,768,8-21-2022,9-38-45,97,depth_duration_stimuli/003083_2014-06-15_15-21-03_094959634447_rgbf000063-resize_1/003083_2014-06-15_15-21-03_094959634447_rgbf000063-resize_1-target.png,125,4.1405,4,2251,126,meters,jsons/VE125_randls_71_rotated.json,537743,703359,62,Woman
97,436991,DepthScenes,duration_manipulation_targetAtFixation,jsons/VE125_randls_71_rotated.json,http://54.235.29.9/FacialAge/BNav_EC2/DepthDuration/v2_depth_duration_MTurk/v2_DepthDuration_HTML.html#69,69,1366,768,1366,768,8-21-2022,9-38-45,98,depth_duration_stimuli/000486_2014-06-09_20-47-20_260595134347_rgbf000143-resize_2/000486_2014-06-09_20-47-20_260595134347_rgbf000143-resize_2-target.png,125,4.8325,5,2256,118,meters,jsons/VE125_randls_71_rotated.json,537743,703359,62,Woman
98,436991,DepthScenes,duration_manipulation_targetAtFixation,jsons/VE125_randls_71_rotated.json,http://54.235.29.9/FacialAge/BNav_EC2/DepthDuration/v2_depth_duration_MTurk/v2_DepthDuration_HTML.html#69,69,1366,768,1366,768,8-21-2022,9-38-45,99,depth_duration_stimuli/001222_2014-06-17_16-24-06_260595134347_rgbf000073-resize_0/001222_2014-06-17_16-24-06_260595134347_rgbf000073-resize-original.jpg,125,1.4385,0,2019,125,meters,jsons/VE125_randls_71_rotated.json,537743,703359,62,Woman
99,436991,DepthScenes,duration_manipulation_targetAtFixation,jsons/VE125_randls_71_rotated.json,http://54.235.29.9/FacialAge/BNav_EC2/DepthDuration/v2_depth_duration_MTurk/v2_DepthDuration_HTML.html#69,69,1366,768,1366,768,8-21-2022,9-38-45,100,depth_duration_stimuli/002758_2014-06-22_19-11-20_094959634447_rgbf000128-resize_1/002758_2014-06-22_19-11-20_094959634447_rgbf000128-resize_1-target.png,125,2.555,1,2581,124,meters,jsons/VE125_randls_71_rotated.json,537743,703359,62,Woman
100,436991,DepthScenes,duration_manipulation_targetAtFixation,jsons/VE125_randls_71_rotated.json,http://54.235.29.9/FacialAge/BNav_EC2/DepthDuration/v2_depth_duration_MTurk/v2_DepthDuration_HTML.html#69,69,1366,768,1366,768,8-21-2022,9-38-45,101,depth_duration_stimuli/002630_2014-06-24_14-47-50_094959634447_rgbf000055-resize_1/002630_2014-06-24_14-47-50_094959634447_rgbf000055-resize_1-target.png,125,3.0095,5,2290,122,meters,jsons/VE125_randls_71_rotated.json,537743,703359,62,Woman
101,436991,DepthScenes,duration_manipulation_targetAtFixation,jsons/VE125_randls_71_rotated.json,http://54.235.29.9/FacialAge/BNav_EC2/DepthDuration/v2_depth_duration_MTurk/v2_DepthDuration_HTML.html#69,69,1366,768,1366,768,8-21-2022,9-38-45,102,depth_duration_stimuli/002639_2014-06-24_14-51-37_094959634447_rgbf000074-resize_4/002639_2014-06-24_14-51-37_094959634447_rgbf000074-resize_4-target.png,125,4.0375,6,3499,118,meters,jsons/VE125_randls_71_rotated.json,537743,703359,62,Woman
102,436991,DepthScenes,duration_manipulation_targetAtFixation,jsons/VE125_randls_71_rotated.json,http://54.235.29.9/FacialAge/BNav_EC2/DepthDuration/v2_depth_duration_MTurk/v2_DepthDuration_HTML.html#69,69,1366,768,1366,768,8-21-2022,9-38-45,103,depth_duration_stimuli/003292_2014-05-14_21-53-49_094959634447_rgbf000100-resize_2/003292_2014-05-14_21-53-49_094959634447_rgbf000100-resize_2-target.png,125,3.4815,5,2153,120,meters,jsons/VE125_randls_71_rotated.json,537743,703359,62,Woman
103,436991,DepthScenes,duration_manipulation_targetAtFixation,jsons/VE125_randls_71_rotated.json,http://54.235.29.9/FacialAge/BNav_EC2/DepthDuration/v2_depth_duration_MTurk/v2_DepthDuration_HTML.html#69,69,1366,768,1366,768,8-21-2022,9-38-45,104,depth_duration_stimuli/001235_2014-06-17_16-37-36_260595134347_rgbf000084-resize_4/001235_2014-06-17_16-37-36_260595134347_rgbf000084-resize_4-target.png,125,3.6605,4,2366,130,meters,jsons/VE125_randls_71_rotated.json,537743,703359,62,Woman
104,436991,DepthScenes,duration_manipulation_targetAtFixation,jsons/VE125_randls_71_rotated.json,http://54.235.29.9/FacialAge/BNav_EC2/DepthDuration/v2_depth_duration_MTurk/v2_DepthDuration_HTML.html#69,69,1366,768,1366,768,8-21-2022,9-38-45,105,depth_duration_stimuli/000788_2014-06-08_22-34-36_260595134347_rgbf000131-resize_1/000788_2014-06-08_22-34-36_260595134347_rgbf000131-resize_1-target.png,125,3.359,5,2452,126,meters,jsons/VE125_randls_71_rotated.json,537743,703359,62,Woman
105,436991,DepthScenes,duration_manipulation_targetAtFixation,jsons/VE125_randls_71_rotated.json,http://54.235.29.9/FacialAge/BNav_EC2/DepthDuration/v2_depth_duration_MTurk/v2_DepthDuration_HTML.html#69,69,1366,768,1366,768,8-21-2022,9-38-45,106,depth_duration_stimuli/003010_2014-06-15_12-54-35_094959634447_rgbf000112-resize_0/003010_2014-06-15_12-54-35_094959634447_rgbf000112-resize_0-target.png,125,3.1185,5,2857,128,meters,jsons/VE125_randls_71_rotated.json,537743,703359,62,Woman
106,436991,DepthScenes,duration_manipulation_targetAtFixation,jsons/VE125_randls_71_rotated.json,http://54.235.29.9/FacialAge/BNav_EC2/DepthDuration/v2_depth_duration_MTurk/v2_DepthDuration_HTML.html#69,69,1366,768,1366,768,8-21-2022,9-38-45,107,depth_duration_stimuli/001810_2014-06-26_20-51-35_260595134347_rgbf000040-resize_3/001810_2014-06-26_20-51-35_260595134347_rgbf000040-resize_3-target.png,125,2.2525,0,2462,102,meters,jsons/VE125_randls_71_rotated.json,537743,703359,62,Woman
107,436991,DepthScenes,duration_manipulation_targetAtFixation,jsons/VE125_randls_71_rotated.json,http://54.235.29.9/FacialAge/BNav_EC2/DepthDuration/v2_depth_duration_MTurk/v2_DepthDuration_HTML.html#69,69,1366,768,1366,768,8-21-2022,9-38-45,108,depth_duration_stimuli/002657_2014-06-13_15-29-54_094959634447_rgbf000150-resize_1/002657_2014-06-13_15-29-54_094959634447_rgbf000150-resize_1-target.png,125,4.919,5,2465,119,meters,jsons/VE125_randls_71_rotated.json,537743,703359,62,Woman
108,436991,DepthScenes,duration_manipulation_targetAtFixation,jsons/VE125_randls_71_rotated.json,http://54.235.29.9/FacialAge/BNav_EC2/DepthDuration/v2_depth_duration_MTurk/v2_DepthDuration_HTML.html#69,69,1366,768,1366,768,8-21-2022,9-38-45,109,depth_duration_stimuli/002375_2014-06-28_20-13-44_260595134347_rgbf000032-resize_1/002375_2014-06-28_20-13-44_260595134347_rgbf000032-resize_1-target.png,125,4.0175,6,2444,126,meters,jsons/VE125_randls_71_rotated.json,537743,703359,62,Woman
109,436991,DepthScenes,duration_manipulation_targetAtFixation,jsons/VE125_randls_71_rotated.json,http://54.235.29.9/FacialAge/BNav_EC2/DepthDuration/v2_depth_duration_MTurk/v2_DepthDuration_HTML.html#69,69,1366,768,1366,768,8-21-2022,9-38-45,110,depth_duration_stimuli/002660_2014-06-13_15-44-18_094959634447_rgbf001878-resize_2/002660_2014-06-13_15-44-18_094959634447_rgbf001878-resize_2-target.png,125,3.576,5,2211,124,meters,jsons/VE125_randls_71_rotated.json,537743,703359,62,Woman
110,436991,DepthScenes,duration_manipulation_targetAtFixation,jsons/VE125_randls_71_rotated.json,http://54.235.29.9/FacialAge/BNav_EC2/DepthDuration/v2_depth_duration_MTurk/v2_DepthDuration_HTML.html#69,69,1366,768,1366,768,8-21-2022,9-38-45,111,depth_duration_stimuli/002153_2014-06-25_21-27-18_260595134347_rgbf000038-resize_5/002153_2014-06-25_21-27-18_260595134347_rgbf000038-resize_5-target.png,125,2.505,4,1981,122,meters,jsons/VE125_randls_71_rotated.json,537743,703359,62,Woman
111,436991,DepthScenes,duration_manipulation_targetAtFixation,jsons/VE125_randls_71_rotated.json,http://54.235.29.9/FacialAge/BNav_EC2/DepthDuration/v2_depth_duration_MTurk/v2_DepthDuration_HTML.html#69,69,1366,768,1366,768,8-21-2022,9-38-45,112,depth_duration_stimuli/000556_2014-06-09_22-42-56_260595134347_rgbf000214-resize_1/000556_2014-06-09_22-42-56_260595134347_rgbf000214-resize_1-target.png,125,4.8415,5,2102,119,meters,jsons/VE125_randls_71_rotated.json,537743,703359,62,Woman
112,436991,DepthScenes,duration_manipulation_targetAtFixation,jsons/VE125_randls_71_rotated.json,http://54.235.29.9/FacialAge/BNav_EC2/DepthDuration/v2_depth_duration_MTurk/v2_DepthDuration_HTML.html#69,69,1366,768,1366,768,8-21-2022,9-38-45,113,depth_duration_stimuli/001158_2014-06-17_15-32-16_260595134347_rgbf000138-resize_2/001158_2014-06-17_15-32-16_260595134347_rgbf000138-resize_2-target.png,125,4.5315,6,2858,124,meters,jsons/VE125_randls_71_rotated.json,537743,703359,62,Woman
113,436991,DepthScenes,duration_manipulation_targetAtFixation,jsons/VE125_randls_71_rotated.json,http://54.235.29.9/FacialAge/BNav_EC2/DepthDuration/v2_depth_duration_MTurk/v2_DepthDuration_HTML.html#69,69,1366,768,1366,768,8-21-2022,9-38-45,114,depth_duration_stimuli/001828_2014-06-26_21-40-03_260595134347_rgbf000024-resize_0/001828_2014-06-26_21-40-03_260595134347_rgbf000024-resize_0-target.png,125,4.8260000000000005,6,3227,111,meters,jsons/VE125_randls_71_rotated.json,537743,703359,62,Woman
114,436991,DepthScenes,duration_manipulation_targetAtFixation,jsons/VE125_randls_71_rotated.json,http://54.235.29.9/FacialAge/BNav_EC2/DepthDuration/v2_depth_duration_MTurk/v2_DepthDuration_HTML.html#69,69,1366,768,1366,768,8-21-2022,9-38-45,115,depth_duration_stimuli/000009_2014-05-26_14-32-05_260595134347_rgbf000034-resize_3/000009_2014-05-26_14-32-05_260595134347_rgbf000034-resize_3-target.png,125,3.8715,8,4750,135,meters,jsons/VE125_randls_71_rotated.json,537743,703359,62,Woman
115,436991,DepthScenes,duration_manipulation_targetAtFixation,jsons/VE125_randls_71_rotated.json,http://54.235.29.9/FacialAge/BNav_EC2/DepthDuration/v2_depth_duration_MTurk/v2_DepthDuration_HTML.html#69,69,1366,768,1366,768,8-21-2022,9-38-45,116,depth_duration_stimuli/000943_2014-06-09_19-31-07_260595134347_rgbf000128-resize_1/000943_2014-06-09_19-31-07_260595134347_rgbf000128-resize_1-target.png,125,1.9765,5,22234,131,meters,jsons/VE125_randls_71_rotated.json,537743,703359,62,Woman
116,436991,DepthScenes,duration_manipulation_targetAtFixation,jsons/VE125_randls_71_rotated.json,http://54.235.29.9/FacialAge/BNav_EC2/DepthDuration/v2_depth_duration_MTurk/v2_DepthDuration_HTML.html#69,69,1366,768,1366,768,8-21-2022,9-38-45,117,depth_duration_stimuli/003070_2014-06-15_14-58-27_094959634447_rgbf000150-resize_3/003070_2014-06-15_14-58-27_094959634447_rgbf000150-resize_3-target.png,125,2.9415,5,2679,112,meters,jsons/VE125_randls_71_rotated.json,537743,703359,62,Woman
117,436991,DepthScenes,duration_manipulation_targetAtFixation,jsons/VE125_randls_71_rotated.json,http://54.235.29.9/FacialAge/BNav_EC2/DepthDuration/v2_depth_duration_MTurk/v2_DepthDuration_HTML.html#69,69,1366,768,1366,768,8-21-2022,9-38-45,118,depth_duration_stimuli/002875_2014-06-01_15-19-00_094959634447_rgbf000151-resize_1/002875_2014-06-01_15-19-00_094959634447_rgbf000151-resize_1-target.png,125,1.9675,4,2380,116,meters,jsons/VE125_randls_71_rotated.json,537743,703359,62,Woman
118,436991,DepthScenes,duration_manipulation_targetAtFixation,jsons/VE125_randls_71_rotated.json,http://54.235.29.9/FacialAge/BNav_EC2/DepthDuration/v2_depth_duration_MTurk/v2_DepthDuration_HTML.html#69,69,1366,768,1366,768,8-21-2022,9-38-45,119,depth_duration_stimuli/001011_2014-06-08_23-18-54_260595134347_rgbf000044-resize_4/001011_2014-06-08_23-18-54_260595134347_rgbf000044-resize_4-target.png,125,2.4730000000000003,6,2614,127,meters,jsons/VE125_randls_71_rotated.json,537743,703359,62,Woman
119,436991,DepthScenes,duration_manipulation_targetAtFixation,jsons/VE125_randls_71_rotated.json,http://54.235.29.9/FacialAge/BNav_EC2/DepthDuration/v2_depth_duration_MTurk/v2_DepthDuration_HTML.html#69,69,1366,768,1366,768,8-21-2022,9-38-45,120,depth_duration_stimuli/000787_2014-06-08_22-33-53_260595134347_rgbf000175-resize_1/000787_2014-06-08_22-33-53_260595134347_rgbf000175-resize-original.jpg,125,4.784,0,2242,114,meters,jsons/VE125_randls_71_rotated.json,537743,703359,62,Woman
120,436991,DepthScenes,duration_manipulation_targetAtFixation,jsons/VE125_randls_71_rotated.json,http://54.235.29.9/FacialAge/BNav_EC2/DepthDuration/v2_depth_duration_MTurk/v2_DepthDuration_HTML.html#69,69,1366,768,1366,768,8-21-2022,9-38-45,121,depth_duration_stimuli/002568_2014-06-24_13-59-21_094959634447_rgbf000062-resize_4/002568_2014-06-24_13-59-21_094959634447_rgbf000062-resize_4-target.png,125,3.015,5,4699,126,meters,jsons/VE125_randls_71_rotated.json,537743,703359,62,Woman
121,436991,DepthScenes,duration_manipulation_targetAtFixation,jsons/VE125_randls_71_rotated.json,http://54.235.29.9/FacialAge/BNav_EC2/DepthDuration/v2_depth_duration_MTurk/v2_DepthDuration_HTML.html#69,69,1366,768,1366,768,8-21-2022,9-38-45,122,depth_duration_stimuli/003492_2014-05-21_15-50-55_094959634447_rgbf000828-resize_1/003492_2014-05-21_15-50-55_094959634447_rgbf000828-resize_1-target.png,125,4.06875,8,2924,111,meters,jsons/VE125_randls_71_rotated.json,537743,703359,62,Woman
122,436991,DepthScenes,duration_manipulation_targetAtFixation,jsons/VE125_randls_71_rotated.json,http://54.235.29.9/FacialAge/BNav_EC2/DepthDuration/v2_depth_duration_MTurk/v2_DepthDuration_HTML.html#69,69,1366,768,1366,768,8-21-2022,9-38-45,123,depth_duration_stimuli/001516_2014-06-20_16-25-09_260595134347_rgbf000076-resize_2/001516_2014-06-20_16-25-09_260595134347_rgbf000076-resize_2-target.png,125,1.7445,8,3359,124,meters,jsons/VE125_randls_71_rotated.json,537743,703359,62,Woman
123,436991,DepthScenes,duration_manipulation_targetAtFixation,jsons/VE125_randls_71_rotated.json,http://54.235.29.9/FacialAge/BNav_EC2/DepthDuration/v2_depth_duration_MTurk/v2_DepthDuration_HTML.html#69,69,1366,768,1366,768,8-21-2022,9-38-45,124,depth_duration_stimuli/002118_2014-06-25_20-32-08_260595134347_rgbf000078-resize_1/002118_2014-06-25_20-32-08_260595134347_rgbf000078-resize_1-target.png,125,2.6460000000000004,3,3301,125,meters,jsons/VE125_randls_71_rotated.json,537743,703359,62,Woman
124,436991,DepthScenes,duration_manipulation_targetAtFixation,jsons/VE125_randls_71_rotated.json,http://54.235.29.9/FacialAge/BNav_EC2/DepthDuration/v2_depth_duration_MTurk/v2_DepthDuration_HTML.html#69,69,1366,768,1366,768,8-21-2022,9-38-45,125,depth_duration_stimuli/000457_2014-06-08_16-52-43_260595134347_rgbf000199-resize_1/000457_2014-06-08_16-52-43_260595134347_rgbf000199-resize_1-target.png,125,3.6489999999999996,4,2764,132,meters,jsons/VE125_randls_71_rotated.json,537743,703359,62,Woman
125,436991,DepthScenes,duration_manipulation_targetAtFixation,jsons/VE125_randls_71_rotated.json,http://54.235.29.9/FacialAge/BNav_EC2/DepthDuration/v2_depth_duration_MTurk/v2_DepthDuration_HTML.html#69,69,1366,768,1366,768,8-21-2022,9-38-45,126,depth_duration_stimuli/000929_2014-06-09_16-33-19_260595134347_rgbf000139-resize_0/000929_2014-06-09_16-33-19_260595134347_rgbf000139-resize_0-target.png,125,2.8680000000000003,2,3890,123,meters,jsons/VE125_randls_71_rotated.json,537743,703359,62,Woman
126,436991,DepthScenes,duration_manipulation_targetAtFixation,jsons/VE125_randls_71_rotated.json,http://54.235.29.9/FacialAge/BNav_EC2/DepthDuration/v2_depth_duration_MTurk/v2_DepthDuration_HTML.html#69,69,1366,768,1366,768,8-21-2022,9-38-45,127,depth_duration_stimuli/001132_2014-06-17_14-48-54_260595134347_rgbf000100-resize_2/001132_2014-06-17_14-48-54_260595134347_rgbf000100-resize_2-target.png,125,3.753,5,2701,119,meters,jsons/VE125_randls_71_rotated.json,537743,703359,62,Woman
127,436991,DepthScenes,duration_manipulation_targetAtFixation,jsons/VE125_randls_71_rotated.json,http://54.235.29.9/FacialAge/BNav_EC2/DepthDuration/v2_depth_duration_MTurk/v2_DepthDuration_HTML.html#69,69,1366,768,1366,768,8-21-2022,9-38-45,128,depth_duration_stimuli/001133_2014-06-17_14-49-16_260595134347_rgbf000100-resize_0/001133_2014-06-17_14-49-16_260595134347_rgbf000100-resize_0-target.png,125,4.2115,5,2281,160,meters,jsons/VE125_randls_71_rotated.json,537743,703359,62,Woman
128,436991,DepthScenes,duration_manipulation_targetAtFixation,jsons/VE125_randls_71_rotated.json,http://54.235.29.9/FacialAge/BNav_EC2/DepthDuration/v2_depth_duration_MTurk/v2_DepthDuration_HTML.html#69,69,1366,768,1366,768,8-21-2022,9-38-45,129,depth_duration_stimuli/002444_2014-06-28_20-32-08_260595134347_rgbf000027-resize_0/002444_2014-06-28_20-32-08_260595134347_rgbf000027-resize_0-target.png,125,4.388999999999999,4,2369,127,meters,jsons/VE125_randls_71_rotated.json,537743,703359,62,Woman
129,436991,DepthScenes,duration_manipulation_targetAtFixation,jsons/VE125_randls_71_rotated.json,http://54.235.29.9/FacialAge/BNav_EC2/DepthDuration/v2_depth_duration_MTurk/v2_DepthDuration_HTML.html#69,69,1366,768,1366,768,8-21-2022,9-38-45,130,depth_duration_stimuli/000436_2014-06-09_22-25-11_260595134347_rgbf000137-resize_1/000436_2014-06-09_22-25-11_260595134347_rgbf000137-resize_1-target.png,125,4.0705,6,2178,136,meters,jsons/VE125_randls_71_rotated.json,537743,703359,62,Woman
130,436991,DepthScenes,duration_manipulation_targetAtFixation,jsons/VE125_randls_71_rotated.json,http://54.235.29.9/FacialAge/BNav_EC2/DepthDuration/v2_depth_duration_MTurk/v2_DepthDuration_HTML.html#69,69,1366,768,1366,768,8-21-2022,9-38-45,131,depth_duration_stimuli/002995_2014-06-15_12-31-26_094959634447_rgbf000150-resize_1/002995_2014-06-15_12-31-26_094959634447_rgbf000150-resize_1-target.png,125,3.8360000000000003,6,2381,133,meters,jsons/VE125_randls_71_rotated.json,537743,703359,62,Woman
131,436991,DepthScenes,duration_manipulation_targetAtFixation,jsons/VE125_randls_71_rotated.json,http://54.235.29.9/FacialAge/BNav_EC2/DepthDuration/v2_depth_duration_MTurk/v2_DepthDuration_HTML.html#69,69,1366,768,1366,768,8-21-2022,9-38-45,132,depth_duration_stimuli/002748_2014-06-22_19-07-22_094959634447_rgbf000078-resize_1/002748_2014-06-22_19-07-22_094959634447_rgbf000078-resize_1-target.png,125,4.6705,5,2199,125,meters,jsons/VE125_randls_71_rotated.json,537743,703359,62,Woman
132,436991,DepthScenes,duration_manipulation_targetAtFixation,jsons/VE125_randls_71_rotated.json,http://54.235.29.9/FacialAge/BNav_EC2/DepthDuration/v2_depth_duration_MTurk/v2_DepthDuration_HTML.html#69,69,1366,768,1366,768,8-21-2022,9-38-45,133,depth_duration_stimuli/001571_2014-06-20_17-21-32_260595134347_rgbf000089-resize_1/001571_2014-06-20_17-21-32_260595134347_rgbf000089-resize_1-target.png,125,1.86,4,2165,142,meters,jsons/VE125_randls_71_rotated.json,537743,703359,62,Woman
133,436991,DepthScenes,duration_manipulation_targetAtFixation,jsons/VE125_randls_71_rotated.json,http://54.235.29.9/FacialAge/BNav_EC2/DepthDuration/v2_depth_duration_MTurk/v2_DepthDuration_HTML.html#69,69,1366,768,1366,768,8-21-2022,9-38-45,134,depth_duration_stimuli/002272_2014-06-28_18-53-56_260595134347_rgbf000067-resize_2/002272_2014-06-28_18-53-56_260595134347_rgbf000067-resize_2-target.png,125,1.138,4,2691,112,meters,jsons/VE125_randls_71_rotated.json,537743,703359,62,Woman
134,436991,DepthScenes,duration_manipulation_targetAtFixation,jsons/VE125_randls_71_rotated.json,http://54.235.29.9/FacialAge/BNav_EC2/DepthDuration/v2_depth_duration_MTurk/v2_DepthDuration_HTML.html#69,69,1366,768,1366,768,8-21-2022,9-38-45,135,depth_duration_stimuli/000375_2014-06-08_11-17-29_260595134347_rgbf000133-resize_2/000375_2014-06-08_11-17-29_260595134347_rgbf000133-resize-original.jpg,125,4.718,5,6993,121,meters,jsons/VE125_randls_71_rotated.json,537743,703359,62,Woman
135,436991,DepthScenes,duration_manipulation_targetAtFixation,jsons/VE125_randls_71_rotated.json,http://54.235.29.9/FacialAge/BNav_EC2/DepthDuration/v2_depth_duration_MTurk/v2_DepthDuration_HTML.html#69,69,1366,768,1366,768,8-21-2022,9-38-45,136,depth_duration_stimuli/000866_2014-06-09_20-45-42_260595134347_rgbf000139-resize_1/000866_2014-06-09_20-45-42_260595134347_rgbf000139-resize_1-target.png,125,3.2155,0,2583,134,meters,jsons/VE125_randls_71_rotated.json,537743,703359,62,Woman
136,436991,DepthScenes,duration_manipulation_targetAtFixation,jsons/VE125_randls_71_rotated.json,http://54.235.29.9/FacialAge/BNav_EC2/DepthDuration/v2_depth_duration_MTurk/v2_DepthDuration_HTML.html#69,69,1366,768,1366,768,8-21-2022,9-38-45,137,depth_duration_stimuli/002989_2014-06-15_12-25-03_094959634447_rgbf000150-resize_3/002989_2014-06-15_12-25-03_094959634447_rgbf000150-resize_3-target.png,125,4.1975,2,3492,123,meters,jsons/VE125_randls_71_rotated.json,537743,703359,62,Woman
137,436991,DepthScenes,duration_manipulation_targetAtFixation,jsons/VE125_randls_71_rotated.json,http://54.235.29.9/FacialAge/BNav_EC2/DepthDuration/v2_depth_duration_MTurk/v2_DepthDuration_HTML.html#69,69,1366,768,1366,768,8-21-2022,9-38-45,138,depth_duration_stimuli/002199_2014-06-28_18-33-56_260595134347_rgbf000074-resize_0/002199_2014-06-28_18-33-56_260595134347_rgbf000074-resize_0-target.png,125,1.996,3,4235,118,meters,jsons/VE125_randls_71_rotated.json,537743,703359,62,Woman
138,436991,DepthScenes,duration_manipulation_targetAtFixation,jsons/VE125_randls_71_rotated.json,http://54.235.29.9/FacialAge/BNav_EC2/DepthDuration/v2_depth_duration_MTurk/v2_DepthDuration_HTML.html#69,69,1366,768,1366,768,8-21-2022,9-38-45,139,depth_duration_stimuli/001056_2014-06-08_18-46-44_260595134347_rgbf000068-resize_0/001056_2014-06-08_18-46-44_260595134347_rgbf000068-resize_0-target.png,125,2.6625,5,6142,121,meters,jsons/VE125_randls_71_rotated.json,537743,703359,62,Woman
139,436991,DepthScenes,duration_manipulation_targetAtFixation,jsons/VE125_randls_71_rotated.json,http://54.235.29.9/FacialAge/BNav_EC2/DepthDuration/v2_depth_duration_MTurk/v2_DepthDuration_HTML.html#69,69,1366,768,1366,768,8-21-2022,9-38-45,140,depth_duration_stimuli/002637_2014-06-24_14-51-13_094959634447_rgbf000066-resize_4/002637_2014-06-24_14-51-13_094959634447_rgbf000066-resize_4-target.png,125,1.9955,5,8317,119,meters,jsons/VE125_randls_71_rotated.json,537743,703359,62,Woman
140,436991,DepthScenes,duration_manipulation_targetAtFixation,jsons/VE125_randls_71_rotated.json,http://54.235.29.9/FacialAge/BNav_EC2/DepthDuration/v2_depth_duration_MTurk/v2_DepthDuration_HTML.html#69,69,1366,768,1366,768,8-21-2022,9-38-45,141,depth_duration_stimuli/003534_2014-05-22_15-06-10_094959634447_rgbf000102-resize_4/003534_2014-05-22_15-06-10_094959634447_rgbf000102-resize_4-target.png,125,1.426,2,2357,128,meters,jsons/VE125_randls_71_rotated.json,537743,703359,62,Woman
141,436991,DepthScenes,duration_manipulation_targetAtFixation,jsons/VE125_randls_71_rotated.json,http://54.235.29.9/FacialAge/BNav_EC2/DepthDuration/v2_depth_duration_MTurk/v2_DepthDuration_HTML.html#69,69,1366,768,1366,768,8-21-2022,9-38-45,142,depth_duration_stimuli/000483_2014-06-09_20-41-45_260595134347_rgbf000116-resize_4/000483_2014-06-09_20-41-45_260595134347_rgbf000116-resize_4-target.png,125,1.337,1,2260,126,meters,jsons/VE125_randls_71_rotated.json,537743,703359,62,Woman
142,436991,DepthScenes,duration_manipulation_targetAtFixation,jsons/VE125_randls_71_rotated.json,http://54.235.29.9/FacialAge/BNav_EC2/DepthDuration/v2_depth_duration_MTurk/v2_DepthDuration_HTML.html#69,69,1366,768,1366,768,8-21-2022,9-38-45,143,depth_duration_stimuli/000469_2014-06-09_19-42-10_260595134347_rgbf000081-resize_1/000469_2014-06-09_19-42-10_260595134347_rgbf000081-resize_1-target.png,125,1.652,2,2265,128,meters,jsons/VE125_randls_71_rotated.json,537743,703359,62,Woman
143,436991,DepthScenes,duration_manipulation_targetAtFixation,jsons/VE125_randls_71_rotated.json,http://54.235.29.9/FacialAge/BNav_EC2/DepthDuration/v2_depth_duration_MTurk/v2_DepthDuration_HTML.html#69,69,1366,768,1366,768,8-21-2022,9-38-45,144,depth_duration_stimuli/002209_2014-06-28_18-36-10_260595134347_rgbf000051-resize_1/002209_2014-06-28_18-36-10_260595134347_rgbf000051-resize_1-target.png,125,2.057,3,2578,123,meters,jsons/VE125_randls_71_rotated.json,537743,703359,62,Woman
144,436991,DepthScenes,duration_manipulation_targetAtFixation,jsons/VE125_randls_71_rotated.json,http://54.235.29.9/FacialAge/BNav_EC2/DepthDuration/v2_depth_duration_MTurk/v2_DepthDuration_HTML.html#69,69,1366,768,1366,768,8-21-2022,9-38-45,145,depth_duration_stimuli/002763_2014-06-22_19-13-10_094959634447_rgbf000075-resize_4/002763_2014-06-22_19-13-10_094959634447_rgbf000075-resize_4-target.png,125,1.68375,3,1989,122,meters,jsons/VE125_randls_71_rotated.json,537743,703359,62,Woman
145,436991,DepthScenes,duration_manipulation_targetAtFixation,jsons/VE125_randls_71_rotated.json,http://54.235.29.9/FacialAge/BNav_EC2/DepthDuration/v2_depth_duration_MTurk/v2_DepthDuration_HTML.html#69,69,1366,768,1366,768,8-21-2022,9-38-45,146,depth_duration_stimuli/000103_2014-05-14_22-01-17_260595134347_rgbf000152-resize_5/000103_2014-05-14_22-01-17_260595134347_rgbf000152-resize_5-target.png,125,1.993,5,2190,115,meters,jsons/VE125_randls_71_rotated.json,537743,703359,62,Woman
146,436991,DepthScenes,duration_manipulation_targetAtFixation,jsons/VE125_randls_71_rotated.json,http://54.235.29.9/FacialAge/BNav_EC2/DepthDuration/v2_depth_duration_MTurk/v2_DepthDuration_HTML.html#69,69,1366,768,1366,768,8-21-2022,9-38-45,147,depth_duration_stimuli/001555_2014-06-20_17-12-10_260595134347_rgbf000065-resize_4/001555_2014-06-20_17-12-10_260595134347_rgbf000065-resize_4-target.png,125,1.633,1,2128,126,meters,jsons/VE125_randls_71_rotated.json,537743,703359,62,Woman
147,436991,DepthScenes,duration_manipulation_targetAtFixation,jsons/VE125_randls_71_rotated.json,http://54.235.29.9/FacialAge/BNav_EC2/DepthDuration/v2_depth_duration_MTurk/v2_DepthDuration_HTML.html#69,69,1366,768,1366,768,8-21-2022,9-38-45,148,depth_duration_stimuli/000854_2014-06-09_19-43-13_260595134347_rgbf000066-resize_0/000854_2014-06-09_19-43-13_260595134347_rgbf000066-resize_0-target.png,125,3.068,5,2013,130,meters,jsons/VE125_randls_71_rotated.json,537743,703359,62,Woman
148,436991,DepthScenes,duration_manipulation_targetAtFixation,jsons/VE125_randls_71_rotated.json,http://54.235.29.9/FacialAge/BNav_EC2/DepthDuration/v2_depth_duration_MTurk/v2_DepthDuration_HTML.html#69,69,1366,768,1366,768,8-21-2022,9-38-45,149,depth_duration_stimuli/000758_2014-06-08_22-05-08_260595134347_rgbf000085-resize_0/000758_2014-06-08_22-05-08_260595134347_rgbf000085-resize_0-target.png,125,3.3810000000000002,2,2727,125,meters,jsons/VE125_randls_71_rotated.json,537743,703359,62,Woman
149,436991,DepthScenes,duration_manipulation_targetAtFixation,jsons/VE125_randls_71_rotated.json,http://54.235.29.9/FacialAge/BNav_EC2/DepthDuration/v2_depth_duration_MTurk/v2_DepthDuration_HTML.html#69,69,1366,768,1366,768,8-21-2022,9-38-45,150,depth_duration_stimuli/000734_2014-06-08_17-39-11_260595134347_rgbf000128-resize_2/000734_2014-06-08_17-39-11_260595134347_rgbf000128-resize_2-target.png,125,4.098,5,2588,117,meters,jsons/VE125_randls_71_rotated.json,537743,703359,62,Woman
150,436991,DepthScenes,duration_manipulation_targetAtFixation,jsons/VE125_randls_71_rotated.json,http://54.235.29.9/FacialAge/BNav_EC2/DepthDuration/v2_depth_duration_MTurk/v2_DepthDuration_HTML.html#69,69,1366,768,1366,768,8-21-2022,9-38-45,151,depth_duration_stimuli/000739_2014-06-08_18-45-58_260595134347_rgbf000068-resize_1/000739_2014-06-08_18-45-58_260595134347_rgbf000068-resize_1-target.png,125,3.534,5,2827,119,meters,jsons/VE125_randls_71_rotated.json,537743,703359,62,Woman
151,436991,DepthScenes,duration_manipulation_targetAtFixation,jsons/VE125_randls_71_rotated.json,http://54.235.29.9/FacialAge/BNav_EC2/DepthDuration/v2_depth_duration_MTurk/v2_DepthDuration_HTML.html#69,69,1366,768,1366,768,8-21-2022,9-38-45,152,depth_duration_stimuli/000569_2014-06-09_22-51-47_260595134347_rgbf000141-resize_3/000569_2014-06-09_22-51-47_260595134347_rgbf000141-resize-original.jpg,125,4.512,0,2678,123,meters,jsons/VE125_randls_71_rotated.json,537743,703359,62,Woman
152,436991,DepthScenes,duration_manipulation_targetAtFixation,jsons/VE125_randls_71_rotated.json,http://54.235.29.9/FacialAge/BNav_EC2/DepthDuration/v2_depth_duration_MTurk/v2_DepthDuration_HTML.html#69,69,1366,768,1366,768,8-21-2022,9-38-45,153,depth_duration_stimuli/002103_2014-06-25_20-00-40_260595134347_rgbf000049-resize_0/002103_2014-06-25_20-00-40_260595134347_rgbf000049-resize_0-target.png,125,4.105,5,2316,111,meters,jsons/VE125_randls_71_rotated.json,537743,703359,62,Woman
153,436991,DepthScenes,duration_manipulation_targetAtFixation,jsons/VE125_randls_71_rotated.json,http://54.235.29.9/FacialAge/BNav_EC2/DepthDuration/v2_depth_duration_MTurk/v2_DepthDuration_HTML.html#69,69,1366,768,1366,768,8-21-2022,9-38-45,154,depth_duration_stimuli/002039_2014-06-24_20-22-38_260595134347_rgbf000084-resize_1/002039_2014-06-24_20-22-38_260595134347_rgbf000084-resize_1-target.png,125,4.408,6,2736,111,meters,jsons/VE125_randls_71_rotated.json,537743,703359,62,Woman
154,436991,DepthScenes,duration_manipulation_targetAtFixation,jsons/VE125_randls_71_rotated.json,http://54.235.29.9/FacialAge/BNav_EC2/DepthDuration/v2_depth_duration_MTurk/v2_DepthDuration_HTML.html#69,69,1366,768,1366,768,8-21-2022,9-38-45,155,depth_duration_stimuli/002545_2014-06-24_13-38-53_094959634447_rgbf000080-resize_4/002545_2014-06-24_13-38-53_094959634447_rgbf000080-resize_4-target.png,125,1.9205,4,2893,124,meters,jsons/VE125_randls_71_rotated.json,537743,703359,62,Woman
155,436991,DepthScenes,duration_manipulation_targetAtFixation,jsons/VE125_randls_71_rotated.json,http://54.235.29.9/FacialAge/BNav_EC2/DepthDuration/v2_depth_duration_MTurk/v2_DepthDuration_HTML.html#69,69,1366,768,1366,768,8-21-2022,9-38-45,156,depth_duration_stimuli/001092_2014-06-15_17-34-58_260595134347_rgbf000171-resize_3/001092_2014-06-15_17-34-58_260595134347_rgbf000171-resize_3-target.png,125,2.6935,3,2382,120,meters,jsons/VE125_randls_71_rotated.json,537743,703359,62,Woman
156,436991,DepthScenes,duration_manipulation_targetAtFixation,jsons/VE125_randls_71_rotated.json,http://54.235.29.9/FacialAge/BNav_EC2/DepthDuration/v2_depth_duration_MTurk/v2_DepthDuration_HTML.html#69,69,1366,768,1366,768,8-21-2022,9-38-45,157,depth_duration_stimuli/001584_2014-06-20_11-07-43_260595134347_rgbf000002-resize_1/001584_2014-06-20_11-07-43_260595134347_rgbf000002-resize_1-target.png,125,3.53,4,2527,119,meters,jsons/VE125_randls_71_rotated.json,537743,703359,62,Woman
157,436991,DepthScenes,duration_manipulation_targetAtFixation,jsons/VE125_randls_71_rotated.json,http://54.235.29.9/FacialAge/BNav_EC2/DepthDuration/v2_depth_duration_MTurk/v2_DepthDuration_HTML.html#69,69,1366,768,1366,768,8-21-2022,9-38-45,158,depth_duration_stimuli/003621_2014-05-23_18-06-08_094959634447_rgbf000101-resize_1/003621_2014-05-23_18-06-08_094959634447_rgbf000101-resize_1-target.png,125,3.9835,5,2205,133,meters,jsons/VE125_randls_71_rotated.json,537743,703359,62,Woman
158,436991,DepthScenes,duration_manipulation_targetAtFixation,jsons/VE125_randls_71_rotated.json,http://54.235.29.9/FacialAge/BNav_EC2/DepthDuration/v2_depth_duration_MTurk/v2_DepthDuration_HTML.html#69,69,1366,768,1366,768,8-21-2022,9-38-45,159,depth_duration_stimuli/000665_2014-06-09_20-42-35_260595134347_rgbf000110-resize_1/000665_2014-06-09_20-42-35_260595134347_rgbf000110-resize_1-target.png,125,3.057,2,2330,117,meters,jsons/VE125_randls_71_rotated.json,537743,703359,62,Woman
159,436991,DepthScenes,duration_manipulation_targetAtFixation,jsons/VE125_randls_71_rotated.json,http://54.235.29.9/FacialAge/BNav_EC2/DepthDuration/v2_depth_duration_MTurk/v2_DepthDuration_HTML.html#69,69,1366,768,1366,768,8-21-2022,9-38-45,160,depth_duration_stimuli/001150_2014-06-17_15-27-34_260595134347_rgbf000108-resize_2/001150_2014-06-17_15-27-34_260595134347_rgbf000108-resize_2-target.png,125,4.0325,5,6310,130,meters,jsons/VE125_randls_71_rotated.json,537743,703359,62,Woman
160,436991,DepthScenes,duration_manipulation_targetAtFixation,jsons/VE125_randls_71_rotated.json,http://54.235.29.9/FacialAge/BNav_EC2/DepthDuration/v2_depth_duration_MTurk/v2_DepthDuration_HTML.html#69,69,1366,768,1366,768,8-21-2022,9-38-45,161,depth_duration_stimuli/002323_2014-06-28_20-01-54_260595134347_rgbf000051-resize_4/002323_2014-06-28_20-01-54_260595134347_rgbf000051-resize_4-target.png,125,3.7310000000000003,5,2175,133,meters,jsons/VE125_randls_71_rotated.json,537743,703359,62,Woman
161,436991,DepthScenes,duration_manipulation_targetAtFixation,jsons/VE125_randls_71_rotated.json,http://54.235.29.9/FacialAge/BNav_EC2/DepthDuration/v2_depth_duration_MTurk/v2_DepthDuration_HTML.html#69,69,1366,768,1366,768,8-21-2022,9-38-45,162,depth_duration_stimuli/000917_2014-06-09_22-45-29_260595134347_rgbf000149-resize_3/000917_2014-06-09_22-45-29_260595134347_rgbf000149-resize_3-target.png,125,4.1865,6,2280,111,meters,jsons/VE125_randls_71_rotated.json,537743,703359,62,Woman
162,436991,DepthScenes,duration_manipulation_targetAtFixation,jsons/VE125_randls_71_rotated.json,http://54.235.29.9/FacialAge/BNav_EC2/DepthDuration/v2_depth_duration_MTurk/v2_DepthDuration_HTML.html#69,69,1366,768,1366,768,8-21-2022,9-38-45,163,depth_duration_stimuli/002750_2014-06-22_19-08-03_094959634447_rgbf000094-resize_4/002750_2014-06-22_19-08-03_094959634447_rgbf000094-resize_4-target.png,125,2.354,5,2039,123,meters,jsons/VE125_randls_71_rotated.json,537743,703359,62,Woman
163,436991,DepthScenes,duration_manipulation_targetAtFixation,jsons/VE125_randls_71_rotated.json,http://54.235.29.9/FacialAge/BNav_EC2/DepthDuration/v2_depth_duration_MTurk/v2_DepthDuration_HTML.html#69,69,1366,768,1366,768,8-21-2022,9-38-45,164,depth_duration_stimuli/002549_2014-06-24_13-41-39_094959634447_rgbf000022-resize_3/002549_2014-06-24_13-41-39_094959634447_rgbf000022-resize_3-target.png,125,1.476,5,2032,132,meters,jsons/VE125_randls_71_rotated.json,537743,703359,62,Woman
