,subjID,experimentName,versionName,sequenceName,url,selected_row,windowWidth,windowHeight,screenWidth,screenHeight,startDate,startTime,trial,stimulus,duration,actual_depth,depth_estimate,trial_RT,log_sceneDuration,unitSelection,seq_filepath,experimentTime,totalTime,age,gender
0,441122,DepthScenes,duration_manipulation_targetAtFixation,jsons/v1_VE250_randls_59.json,http://54.235.29.9/FacialAge/BNav_EC2/DepthDuration/v2_depth_duration_MTurk/v2_DepthDuration_HTML.html#1,1,1366,625,1366,768,8-29-2022,10-18-52,1,depth_duration_stimuli/000736_2014-06-08_18-24-15_260595134347_rgbf000206-resize_3/000736_2014-06-08_18-24-15_260595134347_rgbf000206-resize_3-target.png,250,3.515,1,4675,250,meters,jsons/v1_VE250_randls_59.json,1818158,1937216,32,Man
1,441122,DepthScenes,duration_manipulation_targetAtFixation,jsons/v1_VE250_randls_59.json,http://54.235.29.9/FacialAge/BNav_EC2/DepthDuration/v2_depth_duration_MTurk/v2_DepthDuration_HTML.html#1,1,1366,625,1366,768,8-29-2022,10-18-52,2,depth_duration_stimuli/000137_2014-05-20_17-04-49_260595134347_rgbf000120-resize_1/000137_2014-05-20_17-04-49_260595134347_rgbf000120-resize_1-target.png,250,3.786,1,4505,241,meters,jsons/v1_VE250_randls_59.json,1818158,1937216,32,Man
2,441122,DepthScenes,duration_manipulation_targetAtFixation,jsons/v1_VE250_randls_59.json,http://54.235.29.9/FacialAge/BNav_EC2/DepthDuration/v2_depth_duration_MTurk/v2_DepthDuration_HTML.html#1,1,1366,625,1366,768,8-29-2022,10-18-52,3,depth_duration_stimuli/003534_2014-05-22_15-06-10_094959634447_rgbf000102-resize_4/003534_2014-05-22_15-06-10_094959634447_rgbf000102-resize_4-target.png,250,1.426,1,4713,249,meters,jsons/v1_VE250_randls_59.json,1818158,1937216,32,Man
3,441122,DepthScenes,duration_manipulation_targetAtFixation,jsons/v1_VE250_randls_59.json,http://54.235.29.9/FacialAge/BNav_EC2/DepthDuration/v2_depth_duration_MTurk/v2_DepthDuration_HTML.html#1,1,1366,625,1366,768,8-29-2022,10-18-52,4,depth_duration_stimuli/002637_2014-06-24_14-51-13_094959634447_rgbf000066-resize_4/002637_2014-06-24_14-51-13_094959634447_rgbf000066-resize_4-target.png,250,1.9955,1,4138,242,meters,jsons/v1_VE250_randls_59.json,1818158,1937216,32,Man
4,441122,DepthScenes,duration_manipulation_targetAtFixation,jsons/v1_VE250_randls_59.json,http://54.235.29.9/FacialAge/BNav_EC2/DepthDuration/v2_depth_duration_MTurk/v2_DepthDuration_HTML.html#1,1,1366,625,1366,768,8-29-2022,10-18-52,5,depth_duration_stimuli/000878_2014-06-08_22-52-45_260595134347_rgbf000045-resize_2/000878_2014-06-08_22-52-45_260595134347_rgbf000045-resize_2-target.png,250,2.092,1,5741,235,meters,jsons/v1_VE250_randls_59.json,1818158,1937216,32,Man
5,441122,DepthScenes,duration_manipulation_targetAtFixation,jsons/v1_VE250_randls_59.json,http://54.235.29.9/FacialAge/BNav_EC2/DepthDuration/v2_depth_duration_MTurk/v2_DepthDuration_HTML.html#1,1,1366,625,1366,768,8-29-2022,10-18-52,6,depth_duration_stimuli/002953_2014-06-08_17-32-18_094959634447_rgbf000059-resize_5/002953_2014-06-08_17-32-18_094959634447_rgbf000059-resize_5-target.png,250,1.551,1,4867,258,meters,jsons/v1_VE250_randls_59.json,1818158,1937216,32,Man
6,441122,DepthScenes,duration_manipulation_targetAtFixation,jsons/v1_VE250_randls_59.json,http://54.235.29.9/FacialAge/BNav_EC2/DepthDuration/v2_depth_duration_MTurk/v2_DepthDuration_HTML.html#1,1,1366,625,1366,768,8-29-2022,10-18-52,7,depth_duration_stimuli/000436_2014-06-09_22-25-11_260595134347_rgbf000137-resize_1/000436_2014-06-09_22-25-11_260595134347_rgbf000137-resize_1-target.png,250,4.0705,1,6218,250,meters,jsons/v1_VE250_randls_59.json,1818158,1937216,32,Man
7,441122,DepthScenes,duration_manipulation_targetAtFixation,jsons/v1_VE250_randls_59.json,http://54.235.29.9/FacialAge/BNav_EC2/DepthDuration/v2_depth_duration_MTurk/v2_DepthDuration_HTML.html#1,1,1366,625,1366,768,8-29-2022,10-18-52,8,depth_duration_stimuli/002444_2014-06-28_20-32-08_260595134347_rgbf000027-resize_0/002444_2014-06-28_20-32-08_260595134347_rgbf000027-resize_0-target.png,250,4.388999999999999,1,5931,250,meters,jsons/v1_VE250_randls_59.json,1818158,1937216,32,Man
8,441122,DepthScenes,duration_manipulation_targetAtFixation,jsons/v1_VE250_randls_59.json,http://54.235.29.9/FacialAge/BNav_EC2/DepthDuration/v2_depth_duration_MTurk/v2_DepthDuration_HTML.html#1,1,1366,625,1366,768,8-29-2022,10-18-52,9,depth_duration_stimuli/001066_2014-06-08_22-03-20_260595134347_rgbf000066-resize_4/001066_2014-06-08_22-03-20_260595134347_rgbf000066-resize_4-target.png,250,4.2330000000000005,1,4900,251,meters,jsons/v1_VE250_randls_59.json,1818158,1937216,32,Man
9,441122,DepthScenes,duration_manipulation_targetAtFixation,jsons/v1_VE250_randls_59.json,http://54.235.29.9/FacialAge/BNav_EC2/DepthDuration/v2_depth_duration_MTurk/v2_DepthDuration_HTML.html#1,1,1366,625,1366,768,8-29-2022,10-18-52,10,depth_duration_stimuli/000742_2014-06-08_18-48-09_260595134347_rgbf000164-resize_4/000742_2014-06-08_18-48-09_260595134347_rgbf000164-resize_4-target.png,250,4.632,2,4272,250,meters,jsons/v1_VE250_randls_59.json,1818158,1937216,32,Man
10,441122,DepthScenes,duration_manipulation_targetAtFixation,jsons/v1_VE250_randls_59.json,http://54.235.29.9/FacialAge/BNav_EC2/DepthDuration/v2_depth_duration_MTurk/v2_DepthDuration_HTML.html#1,1,1366,625,1366,768,8-29-2022,10-18-52,11,depth_duration_stimuli/001808_2014-06-26_20-50-58_260595134347_rgbf000029-resize_1/001808_2014-06-26_20-50-58_260595134347_rgbf000029-resize_1-target.png,250,4.249,2,5010,259,meters,jsons/v1_VE250_randls_59.json,1818158,1937216,32,Man
11,441122,DepthScenes,duration_manipulation_targetAtFixation,jsons/v1_VE250_randls_59.json,http://54.235.29.9/FacialAge/BNav_EC2/DepthDuration/v2_depth_duration_MTurk/v2_DepthDuration_HTML.html#1,1,1366,625,1366,768,8-29-2022,10-18-52,12,depth_duration_stimuli/001815_2014-06-26_20-52-55_260595134347_rgbf000020-resize_0/001815_2014-06-26_20-52-55_260595134347_rgbf000020-resize_0-target.png,250,3.3865,1,4067,247,meters,jsons/v1_VE250_randls_59.json,1818158,1937216,32,Man
12,441122,DepthScenes,duration_manipulation_targetAtFixation,jsons/v1_VE250_randls_59.json,http://54.235.29.9/FacialAge/BNav_EC2/DepthDuration/v2_depth_duration_MTurk/v2_DepthDuration_HTML.html#1,1,1366,625,1366,768,8-29-2022,10-18-52,13,depth_duration_stimuli/000569_2014-06-09_22-51-47_260595134347_rgbf000141-resize_3/000569_2014-06-09_22-51-47_260595134347_rgbf000141-resize-original.jpg,250,4.512,1,4172,251,meters,jsons/v1_VE250_randls_59.json,1818158,1937216,32,Man
13,441122,DepthScenes,duration_manipulation_targetAtFixation,jsons/v1_VE250_randls_59.json,http://54.235.29.9/FacialAge/BNav_EC2/DepthDuration/v2_depth_duration_MTurk/v2_DepthDuration_HTML.html#1,1,1366,625,1366,768,8-29-2022,10-18-52,14,depth_duration_stimuli/001016_2014-06-09_16-16-10_260595134347_rgbf000112-resize_5/001016_2014-06-09_16-16-10_260595134347_rgbf000112-resize_5-target.png,250,1.6565,2,3679,242,meters,jsons/v1_VE250_randls_59.json,1818158,1937216,32,Man
14,441122,DepthScenes,duration_manipulation_targetAtFixation,jsons/v1_VE250_randls_59.json,http://54.235.29.9/FacialAge/BNav_EC2/DepthDuration/v2_depth_duration_MTurk/v2_DepthDuration_HTML.html#1,1,1366,625,1366,768,8-29-2022,10-18-52,15,depth_duration_stimuli/002340_2014-06-28_20-05-46_260595134347_rgbf000113-resize_0/002340_2014-06-28_20-05-46_260595134347_rgbf000113-resize_0-target.png,250,2.4735,1,4745,248,meters,jsons/v1_VE250_randls_59.json,1818158,1937216,32,Man
15,441122,DepthScenes,duration_manipulation_targetAtFixation,jsons/v1_VE250_randls_59.json,http://54.235.29.9/FacialAge/BNav_EC2/DepthDuration/v2_depth_duration_MTurk/v2_DepthDuration_HTML.html#1,1,1366,625,1366,768,8-29-2022,10-18-52,16,depth_duration_stimuli/002748_2014-06-22_19-07-22_094959634447_rgbf000078-resize_1/002748_2014-06-22_19-07-22_094959634447_rgbf000078-resize_1-target.png,250,4.6705,1,4762,264,meters,jsons/v1_VE250_randls_59.json,1818158,1937216,32,Man
16,441122,DepthScenes,duration_manipulation_targetAtFixation,jsons/v1_VE250_randls_59.json,http://54.235.29.9/FacialAge/BNav_EC2/DepthDuration/v2_depth_duration_MTurk/v2_DepthDuration_HTML.html#1,1,1366,625,1366,768,8-29-2022,10-18-52,17,depth_duration_stimuli/002995_2014-06-15_12-31-26_094959634447_rgbf000150-resize_1/002995_2014-06-15_12-31-26_094959634447_rgbf000150-resize_1-target.png,250,3.8360000000000003,1,3848,249,meters,jsons/v1_VE250_randls_59.json,1818158,1937216,32,Man
17,441122,DepthScenes,duration_manipulation_targetAtFixation,jsons/v1_VE250_randls_59.json,http://54.235.29.9/FacialAge/BNav_EC2/DepthDuration/v2_depth_duration_MTurk/v2_DepthDuration_HTML.html#1,1,1366,625,1366,768,8-29-2022,10-18-52,18,depth_duration_stimuli/000682_2014-06-08_23-14-58_260595134347_rgbf000041-resize_5/000682_2014-06-08_23-14-58_260595134347_rgbf000041-resize_5-target.png,250,2.7239999999999998,1,3953,240,meters,jsons/v1_VE250_randls_59.json,1818158,1937216,32,Man
18,441122,DepthScenes,duration_manipulation_targetAtFixation,jsons/v1_VE250_randls_59.json,http://54.235.29.9/FacialAge/BNav_EC2/DepthDuration/v2_depth_duration_MTurk/v2_DepthDuration_HTML.html#1,1,1366,625,1366,768,8-29-2022,10-18-52,19,depth_duration_stimuli/001650_2014-06-20_12-09-00_260595134347_rgbf000087-resize_3/001650_2014-06-20_12-09-00_260595134347_rgbf000087-resize_3-target.png,250,1.9505,1,3807,246,meters,jsons/v1_VE250_randls_59.json,1818158,1937216,32,Man
19,441122,DepthScenes,duration_manipulation_targetAtFixation,jsons/v1_VE250_randls_59.json,http://54.235.29.9/FacialAge/BNav_EC2/DepthDuration/v2_depth_duration_MTurk/v2_DepthDuration_HTML.html#1,1,1366,625,1366,768,8-29-2022,10-18-52,20,depth_duration_stimuli/001167_2014-06-17_15-38-07_260595134347_rgbf000108-resize_0/001167_2014-06-17_15-38-07_260595134347_rgbf000108-resize_0-target.png,250,1.8505,1,5165,243,meters,jsons/v1_VE250_randls_59.json,1818158,1937216,32,Man
20,441122,DepthScenes,duration_manipulation_targetAtFixation,jsons/v1_VE250_randls_59.json,http://54.235.29.9/FacialAge/BNav_EC2/DepthDuration/v2_depth_duration_MTurk/v2_DepthDuration_HTML.html#1,1,1366,625,1366,768,8-29-2022,10-18-52,21,depth_duration_stimuli/003587_2014-05-23_16-48-02_094959634447_rgbf002384-resize_2/003587_2014-05-23_16-48-02_094959634447_rgbf002384-resize_2-target.png,250,1.357,1,3927,247,meters,jsons/v1_VE250_randls_59.json,1818158,1937216,32,Man
21,441122,DepthScenes,duration_manipulation_targetAtFixation,jsons/v1_VE250_randls_59.json,http://54.235.29.9/FacialAge/BNav_EC2/DepthDuration/v2_depth_duration_MTurk/v2_DepthDuration_HTML.html#1,1,1366,625,1366,768,8-29-2022,10-18-52,22,depth_duration_stimuli/002375_2014-06-28_20-13-44_260595134347_rgbf000032-resize_1/002375_2014-06-28_20-13-44_260595134347_rgbf000032-resize_1-target.png,250,4.0175,1,3447,250,meters,jsons/v1_VE250_randls_59.json,1818158,1937216,32,Man
22,441122,DepthScenes,duration_manipulation_targetAtFixation,jsons/v1_VE250_randls_59.json,http://54.235.29.9/FacialAge/BNav_EC2/DepthDuration/v2_depth_duration_MTurk/v2_DepthDuration_HTML.html#1,1,1366,625,1366,768,8-29-2022,10-18-52,23,depth_duration_stimuli/002657_2014-06-13_15-29-54_094959634447_rgbf000150-resize_1/002657_2014-06-13_15-29-54_094959634447_rgbf000150-resize_1-target.png,250,4.919,2,4736,249,meters,jsons/v1_VE250_randls_59.json,1818158,1937216,32,Man
23,441122,DepthScenes,duration_manipulation_targetAtFixation,jsons/v1_VE250_randls_59.json,http://54.235.29.9/FacialAge/BNav_EC2/DepthDuration/v2_depth_duration_MTurk/v2_DepthDuration_HTML.html#1,1,1366,625,1366,768,8-29-2022,10-18-52,24,depth_duration_stimuli/001199_2014-06-17_16-03-48_260595134347_rgbf000077-resize_0/001199_2014-06-17_16-03-48_260595134347_rgbf000077-resize_0-target.png,250,3.4375,1,4922,242,meters,jsons/v1_VE250_randls_59.json,1818158,1937216,32,Man
24,441122,DepthScenes,duration_manipulation_targetAtFixation,jsons/v1_VE250_randls_59.json,http://54.235.29.9/FacialAge/BNav_EC2/DepthDuration/v2_depth_duration_MTurk/v2_DepthDuration_HTML.html#1,1,1366,625,1366,768,8-29-2022,10-18-52,25,depth_duration_stimuli/000502_2014-06-08_23-02-32_260595134347_rgbf000063-resize_4/000502_2014-06-08_23-02-32_260595134347_rgbf000063-resize_4-target.png,250,2.431,2,5005,250,meters,jsons/v1_VE250_randls_59.json,1818158,1937216,32,Man
25,441122,DepthScenes,duration_manipulation_targetAtFixation,jsons/v1_VE250_randls_59.json,http://54.235.29.9/FacialAge/BNav_EC2/DepthDuration/v2_depth_duration_MTurk/v2_DepthDuration_HTML.html#1,1,1366,625,1366,768,8-29-2022,10-18-52,26,depth_duration_stimuli/001164_2014-06-17_15-35-46_260595134347_rgbf000085-resize_3/001164_2014-06-17_15-35-46_260595134347_rgbf000085-resize_3-target.png,250,2.354,1,4411,251,meters,jsons/v1_VE250_randls_59.json,1818158,1937216,32,Man
26,441122,DepthScenes,duration_manipulation_targetAtFixation,jsons/v1_VE250_randls_59.json,http://54.235.29.9/FacialAge/BNav_EC2/DepthDuration/v2_depth_duration_MTurk/v2_DepthDuration_HTML.html#1,1,1366,625,1366,768,8-29-2022,10-18-52,27,depth_duration_stimuli/001136_2014-06-17_15-19-41_260595134347_rgbf000076-resize_3/001136_2014-06-17_15-19-41_260595134347_rgbf000076-resize_3-target.png,250,1.8655,2,4361,250,meters,jsons/v1_VE250_randls_59.json,1818158,1937216,32,Man
27,441122,DepthScenes,duration_manipulation_targetAtFixation,jsons/v1_VE250_randls_59.json,http://54.235.29.9/FacialAge/BNav_EC2/DepthDuration/v2_depth_duration_MTurk/v2_DepthDuration_HTML.html#1,1,1366,625,1366,768,8-29-2022,10-18-52,28,depth_duration_stimuli/002213_2014-06-28_18-37-58_260595134347_rgbf000055-resize_1/002213_2014-06-28_18-37-58_260595134347_rgbf000055-resize_1-target.png,250,3.62,1,4467,250,meters,jsons/v1_VE250_randls_59.json,1818158,1937216,32,Man
28,441122,DepthScenes,duration_manipulation_targetAtFixation,jsons/v1_VE250_randls_59.json,http://54.235.29.9/FacialAge/BNav_EC2/DepthDuration/v2_depth_duration_MTurk/v2_DepthDuration_HTML.html#1,1,1366,625,1366,768,8-29-2022,10-18-52,29,depth_duration_stimuli/000691_2014-06-08_13-08-50_260595134347_rgbf000132-resize_3/000691_2014-06-08_13-08-50_260595134347_rgbf000132-resize_3-target.png,250,4.1530000000000005,1,4547,249,meters,jsons/v1_VE250_randls_59.json,1818158,1937216,32,Man
29,441122,DepthScenes,duration_manipulation_targetAtFixation,jsons/v1_VE250_randls_59.json,http://54.235.29.9/FacialAge/BNav_EC2/DepthDuration/v2_depth_duration_MTurk/v2_DepthDuration_HTML.html#1,1,1366,625,1366,768,8-29-2022,10-18-52,30,depth_duration_stimuli/000375_2014-06-08_11-17-29_260595134347_rgbf000133-resize_2/000375_2014-06-08_11-17-29_260595134347_rgbf000133-resize-original.jpg,250,4.718,1,4315,250,meters,jsons/v1_VE250_randls_59.json,1818158,1937216,32,Man
30,441122,DepthScenes,duration_manipulation_targetAtFixation,jsons/v1_VE250_randls_59.json,http://54.235.29.9/FacialAge/BNav_EC2/DepthDuration/v2_depth_duration_MTurk/v2_DepthDuration_HTML.html#1,1,1366,625,1366,768,8-29-2022,10-18-52,31,depth_duration_stimuli/001110_2014-06-15_17-25-28_260595134347_rgbf000150-resize_1/001110_2014-06-15_17-25-28_260595134347_rgbf000150-resize_1-target.png,250,1.7115,1,5282,251,meters,jsons/v1_VE250_randls_59.json,1818158,1937216,32,Man
31,441122,DepthScenes,duration_manipulation_targetAtFixation,jsons/v1_VE250_randls_59.json,http://54.235.29.9/FacialAge/BNav_EC2/DepthDuration/v2_depth_duration_MTurk/v2_DepthDuration_HTML.html#1,1,1366,625,1366,768,8-29-2022,10-18-52,32,depth_duration_stimuli/000927_2014-06-09_16-32-30_260595134347_rgbf000123-resize_3/000927_2014-06-09_16-32-30_260595134347_rgbf000123-resize_3-target.png,250,2.6785,2,4937,261,meters,jsons/v1_VE250_randls_59.json,1818158,1937216,32,Man
32,441122,DepthScenes,duration_manipulation_targetAtFixation,jsons/v1_VE250_randls_59.json,http://54.235.29.9/FacialAge/BNav_EC2/DepthDuration/v2_depth_duration_MTurk/v2_DepthDuration_HTML.html#1,1,1366,625,1366,768,8-29-2022,10-18-52,33,depth_duration_stimuli/003070_2014-06-15_14-58-27_094959634447_rgbf000150-resize_3/003070_2014-06-15_14-58-27_094959634447_rgbf000150-resize_3-target.png,250,2.9415,1,4663,242,meters,jsons/v1_VE250_randls_59.json,1818158,1937216,32,Man
33,441122,DepthScenes,duration_manipulation_targetAtFixation,jsons/v1_VE250_randls_59.json,http://54.235.29.9/FacialAge/BNav_EC2/DepthDuration/v2_depth_duration_MTurk/v2_DepthDuration_HTML.html#1,1,1366,625,1366,768,8-29-2022,10-18-52,34,depth_duration_stimuli/000943_2014-06-09_19-31-07_260595134347_rgbf000128-resize_1/000943_2014-06-09_19-31-07_260595134347_rgbf000128-resize_1-target.png,250,1.9765,2,3849,240,meters,jsons/v1_VE250_randls_59.json,1818158,1937216,32,Man
34,441122,DepthScenes,duration_manipulation_targetAtFixation,jsons/v1_VE250_randls_59.json,http://54.235.29.9/FacialAge/BNav_EC2/DepthDuration/v2_depth_duration_MTurk/v2_DepthDuration_HTML.html#1,1,1366,625,1366,768,8-29-2022,10-18-52,35,depth_duration_stimuli/001449_2014-06-19_17-01-27_260595134347_rgbf000116-resize_2/001449_2014-06-19_17-01-27_260595134347_rgbf000116-resize_2-target.png,250,3.452,1,3819,249,meters,jsons/v1_VE250_randls_59.json,1818158,1937216,32,Man
35,441122,DepthScenes,duration_manipulation_targetAtFixation,jsons/v1_VE250_randls_59.json,http://54.235.29.9/FacialAge/BNav_EC2/DepthDuration/v2_depth_duration_MTurk/v2_DepthDuration_HTML.html#1,1,1366,625,1366,768,8-29-2022,10-18-52,36,depth_duration_stimuli/001450_2014-06-19_17-02-03_260595134347_rgbf000203-resize_4/001450_2014-06-19_17-02-03_260595134347_rgbf000203-resize_4-target.png,250,4.0106666666667,0,3740,240,meters,jsons/v1_VE250_randls_59.json,1818158,1937216,32,Man
36,441122,DepthScenes,duration_manipulation_targetAtFixation,jsons/v1_VE250_randls_59.json,http://54.235.29.9/FacialAge/BNav_EC2/DepthDuration/v2_depth_duration_MTurk/v2_DepthDuration_HTML.html#1,1,1366,625,1366,768,8-29-2022,10-18-52,37,depth_duration_stimuli/001150_2014-06-17_15-27-34_260595134347_rgbf000108-resize_2/001150_2014-06-17_15-27-34_260595134347_rgbf000108-resize_2-target.png,250,4.0325,2,5947,250,meters,jsons/v1_VE250_randls_59.json,1818158,1937216,32,Man
37,441122,DepthScenes,duration_manipulation_targetAtFixation,jsons/v1_VE250_randls_59.json,http://54.235.29.9/FacialAge/BNav_EC2/DepthDuration/v2_depth_duration_MTurk/v2_DepthDuration_HTML.html#1,1,1366,625,1366,768,8-29-2022,10-18-52,38,depth_duration_stimuli/000665_2014-06-09_20-42-35_260595134347_rgbf000110-resize_1/000665_2014-06-09_20-42-35_260595134347_rgbf000110-resize_1-target.png,250,3.057,1,4129,263,meters,jsons/v1_VE250_randls_59.json,1818158,1937216,32,Man
38,441122,DepthScenes,duration_manipulation_targetAtFixation,jsons/v1_VE250_randls_59.json,http://54.235.29.9/FacialAge/BNav_EC2/DepthDuration/v2_depth_duration_MTurk/v2_DepthDuration_HTML.html#1,1,1366,625,1366,768,8-29-2022,10-18-52,39,depth_duration_stimuli/002905_2014-06-03_18-04-43_094959634447_rgbf000151-resize_2/002905_2014-06-03_18-04-43_094959634447_rgbf000151-resize_2-target.png,250,2.0295,1,6595,243,meters,jsons/v1_VE250_randls_59.json,1818158,1937216,32,Man
39,441122,DepthScenes,duration_manipulation_targetAtFixation,jsons/v1_VE250_randls_59.json,http://54.235.29.9/FacialAge/BNav_EC2/DepthDuration/v2_depth_duration_MTurk/v2_DepthDuration_HTML.html#1,1,1366,625,1366,768,8-29-2022,10-18-52,40,depth_duration_stimuli/003423_2014-05-21_10-23-26_094959634447_rgbf002665-resize_2/003423_2014-05-21_10-23-26_094959634447_rgbf002665-resize_2-target.png,250,3.2575,1,4371,250,meters,jsons/v1_VE250_randls_59.json,1818158,1937216,32,Man
40,441122,DepthScenes,duration_manipulation_targetAtFixation,jsons/v1_VE250_randls_59.json,http://54.235.29.9/FacialAge/BNav_EC2/DepthDuration/v2_depth_duration_MTurk/v2_DepthDuration_HTML.html#1,1,1366,625,1366,768,8-29-2022,10-18-52,41,depth_duration_stimuli/002057_2014-06-24_21-00-13_260595134347_rgbf000120-resize_1/002057_2014-06-24_21-00-13_260595134347_rgbf000120-resize_1-target.png,250,2.967,1,4464,249,meters,jsons/v1_VE250_randls_59.json,1818158,1937216,32,Man
41,441122,DepthScenes,duration_manipulation_targetAtFixation,jsons/v1_VE250_randls_59.json,http://54.235.29.9/FacialAge/BNav_EC2/DepthDuration/v2_depth_duration_MTurk/v2_DepthDuration_HTML.html#1,1,1366,625,1366,768,8-29-2022,10-18-52,42,depth_duration_stimuli/000709_2014-06-08_13-51-55_260595134347_rgbf000068-resize_3/000709_2014-06-08_13-51-55_260595134347_rgbf000068-resize_3-target.png,250,1.8030000000000002,1,3735,238,meters,jsons/v1_VE250_randls_59.json,1818158,1937216,32,Man
42,441122,DepthScenes,duration_manipulation_targetAtFixation,jsons/v1_VE250_randls_59.json,http://54.235.29.9/FacialAge/BNav_EC2/DepthDuration/v2_depth_duration_MTurk/v2_DepthDuration_HTML.html#1,1,1366,625,1366,768,8-29-2022,10-18-52,43,depth_duration_stimuli/000469_2014-06-09_19-42-10_260595134347_rgbf000081-resize_1/000469_2014-06-09_19-42-10_260595134347_rgbf000081-resize_1-target.png,250,1.652,1,3912,240,meters,jsons/v1_VE250_randls_59.json,1818158,1937216,32,Man
43,441122,DepthScenes,duration_manipulation_targetAtFixation,jsons/v1_VE250_randls_59.json,http://54.235.29.9/FacialAge/BNav_EC2/DepthDuration/v2_depth_duration_MTurk/v2_DepthDuration_HTML.html#1,1,1366,625,1366,768,8-29-2022,10-18-52,44,depth_duration_stimuli/000483_2014-06-09_20-41-45_260595134347_rgbf000116-resize_4/000483_2014-06-09_20-41-45_260595134347_rgbf000116-resize_4-target.png,250,1.337,1,5112,255,meters,jsons/v1_VE250_randls_59.json,1818158,1937216,32,Man
44,441122,DepthScenes,duration_manipulation_targetAtFixation,jsons/v1_VE250_randls_59.json,http://54.235.29.9/FacialAge/BNav_EC2/DepthDuration/v2_depth_duration_MTurk/v2_DepthDuration_HTML.html#1,1,1366,625,1366,768,8-29-2022,10-18-52,45,depth_duration_stimuli/000787_2014-06-08_22-33-53_260595134347_rgbf000175-resize_1/000787_2014-06-08_22-33-53_260595134347_rgbf000175-resize-original.jpg,250,4.784,1,4249,241,meters,jsons/v1_VE250_randls_59.json,1818158,1937216,32,Man
45,441122,DepthScenes,duration_manipulation_targetAtFixation,jsons/v1_VE250_randls_59.json,http://54.235.29.9/FacialAge/BNav_EC2/DepthDuration/v2_depth_duration_MTurk/v2_DepthDuration_HTML.html#1,1,1366,625,1366,768,8-29-2022,10-18-52,46,depth_duration_stimuli/002989_2014-06-15_12-25-03_094959634447_rgbf000150-resize_3/002989_2014-06-15_12-25-03_094959634447_rgbf000150-resize_3-target.png,250,4.1975,1,4159,249,meters,jsons/v1_VE250_randls_59.json,1818158,1937216,32,Man
46,441122,DepthScenes,duration_manipulation_targetAtFixation,jsons/v1_VE250_randls_59.json,http://54.235.29.9/FacialAge/BNav_EC2/DepthDuration/v2_depth_duration_MTurk/v2_DepthDuration_HTML.html#1,1,1366,625,1366,768,8-29-2022,10-18-52,47,depth_duration_stimuli/000866_2014-06-09_20-45-42_260595134347_rgbf000139-resize_1/000866_2014-06-09_20-45-42_260595134347_rgbf000139-resize_1-target.png,250,3.2155,1,5612,250,meters,jsons/v1_VE250_randls_59.json,1818158,1937216,32,Man
47,441122,DepthScenes,duration_manipulation_targetAtFixation,jsons/v1_VE250_randls_59.json,http://54.235.29.9/FacialAge/BNav_EC2/DepthDuration/v2_depth_duration_MTurk/v2_DepthDuration_HTML.html#1,1,1366,625,1366,768,8-29-2022,10-18-52,48,depth_duration_stimuli/000906_2014-06-08_13-35-43_260595134347_rgbf000155-resize_1/000906_2014-06-08_13-35-43_260595134347_rgbf000155-resize_1-target.png,250,2.8489999999999998,1,4527,245,meters,jsons/v1_VE250_randls_59.json,1818158,1937216,32,Man
48,441122,DepthScenes,duration_manipulation_targetAtFixation,jsons/v1_VE250_randls_59.json,http://54.235.29.9/FacialAge/BNav_EC2/DepthDuration/v2_depth_duration_MTurk/v2_DepthDuration_HTML.html#1,1,1366,625,1366,768,8-29-2022,10-18-52,49,depth_duration_stimuli/002805_2014-06-22_19-54-03_094959634447_rgbf000079-resize_1/002805_2014-06-22_19-54-03_094959634447_rgbf000079-resize_1-target.png,250,3.1439999999999997,1,5268,250,meters,jsons/v1_VE250_randls_59.json,1818158,1937216,32,Man
49,441122,DepthScenes,duration_manipulation_targetAtFixation,jsons/v1_VE250_randls_59.json,http://54.235.29.9/FacialAge/BNav_EC2/DepthDuration/v2_depth_duration_MTurk/v2_DepthDuration_HTML.html#1,1,1366,625,1366,768,8-29-2022,10-18-52,50,depth_duration_stimuli/000506_2014-06-08_23-21-00_260595134347_rgbf000070-resize_7/000506_2014-06-08_23-21-00_260595134347_rgbf000070-resize_7-target.png,250,4.0585,1,5713,251,meters,jsons/v1_VE250_randls_59.json,1818158,1937216,32,Man
50,441122,DepthScenes,duration_manipulation_targetAtFixation,jsons/v1_VE250_randls_59.json,http://54.235.29.9/FacialAge/BNav_EC2/DepthDuration/v2_depth_duration_MTurk/v2_DepthDuration_HTML.html#1,1,1366,625,1366,768,8-29-2022,10-18-52,51,depth_duration_stimuli/003079_2014-06-15_15-18-20_094959634447_rgbf000152-resize_8/003079_2014-06-15_15-18-20_094959634447_rgbf000152-resize_8-target.png,250,2.8775,1,5348,250,meters,jsons/v1_VE250_randls_59.json,1818158,1937216,32,Man
51,441122,DepthScenes,duration_manipulation_targetAtFixation,jsons/v1_VE250_randls_59.json,http://54.235.29.9/FacialAge/BNav_EC2/DepthDuration/v2_depth_duration_MTurk/v2_DepthDuration_HTML.html#1,1,1366,625,1366,768,8-29-2022,10-18-52,52,depth_duration_stimuli/002509_2014-06-24_13-19-22_094959634447_rgbf000077-resize_0/002509_2014-06-24_13-19-22_094959634447_rgbf000077-resize_0-target.png,250,1.3065,1,4192,247,meters,jsons/v1_VE250_randls_59.json,1818158,1937216,32,Man
52,441122,DepthScenes,duration_manipulation_targetAtFixation,jsons/v1_VE250_randls_59.json,http://54.235.29.9/FacialAge/BNav_EC2/DepthDuration/v2_depth_duration_MTurk/v2_DepthDuration_HTML.html#1,1,1366,625,1366,768,8-29-2022,10-18-52,53,depth_duration_stimuli/003338_2014-05-20_11-01-23_094959634447_rgbf000051-resize_6/003338_2014-05-20_11-01-23_094959634447_rgbf000051-resize_6-target.png,250,1.693,1,4547,249,meters,jsons/v1_VE250_randls_59.json,1818158,1937216,32,Man
53,441122,DepthScenes,duration_manipulation_targetAtFixation,jsons/v1_VE250_randls_59.json,http://54.235.29.9/FacialAge/BNav_EC2/DepthDuration/v2_depth_duration_MTurk/v2_DepthDuration_HTML.html#1,1,1366,625,1366,768,8-29-2022,10-18-52,54,depth_duration_stimuli/001158_2014-06-17_15-32-16_260595134347_rgbf000138-resize_2/001158_2014-06-17_15-32-16_260595134347_rgbf000138-resize_2-target.png,250,4.5315,1,3931,251,meters,jsons/v1_VE250_randls_59.json,1818158,1937216,32,Man
54,441122,DepthScenes,duration_manipulation_targetAtFixation,jsons/v1_VE250_randls_59.json,http://54.235.29.9/FacialAge/BNav_EC2/DepthDuration/v2_depth_duration_MTurk/v2_DepthDuration_HTML.html#1,1,1366,625,1366,768,8-29-2022,10-18-52,55,depth_duration_stimuli/000556_2014-06-09_22-42-56_260595134347_rgbf000214-resize_1/000556_2014-06-09_22-42-56_260595134347_rgbf000214-resize_1-target.png,250,4.8415,1,3631,247,meters,jsons/v1_VE250_randls_59.json,1818158,1937216,32,Man
55,441122,DepthScenes,duration_manipulation_targetAtFixation,jsons/v1_VE250_randls_59.json,http://54.235.29.9/FacialAge/BNav_EC2/DepthDuration/v2_depth_duration_MTurk/v2_DepthDuration_HTML.html#1,1,1366,625,1366,768,8-29-2022,10-18-52,56,depth_duration_stimuli/000788_2014-06-08_22-34-36_260595134347_rgbf000131-resize_1/000788_2014-06-08_22-34-36_260595134347_rgbf000131-resize_1-target.png,250,3.359,1,3319,257,meters,jsons/v1_VE250_randls_59.json,1818158,1937216,32,Man
56,441122,DepthScenes,duration_manipulation_targetAtFixation,jsons/v1_VE250_randls_59.json,http://54.235.29.9/FacialAge/BNav_EC2/DepthDuration/v2_depth_duration_MTurk/v2_DepthDuration_HTML.html#1,1,1366,625,1366,768,8-29-2022,10-18-52,57,depth_duration_stimuli/001235_2014-06-17_16-37-36_260595134347_rgbf000084-resize_4/001235_2014-06-17_16-37-36_260595134347_rgbf000084-resize_4-target.png,250,3.6605,1,5426,250,meters,jsons/v1_VE250_randls_59.json,1818158,1937216,32,Man
57,441122,DepthScenes,duration_manipulation_targetAtFixation,jsons/v1_VE250_randls_59.json,http://54.235.29.9/FacialAge/BNav_EC2/DepthDuration/v2_depth_duration_MTurk/v2_DepthDuration_HTML.html#1,1,1366,625,1366,768,8-29-2022,10-18-52,58,depth_duration_stimuli/002153_2014-06-25_21-27-18_260595134347_rgbf000038-resize_5/002153_2014-06-25_21-27-18_260595134347_rgbf000038-resize_5-target.png,250,2.505,1,3537,249,meters,jsons/v1_VE250_randls_59.json,1818158,1937216,32,Man
58,441122,DepthScenes,duration_manipulation_targetAtFixation,jsons/v1_VE250_randls_59.json,http://54.235.29.9/FacialAge/BNav_EC2/DepthDuration/v2_depth_duration_MTurk/v2_DepthDuration_HTML.html#1,1,1366,625,1366,768,8-29-2022,10-18-52,59,depth_duration_stimuli/002660_2014-06-13_15-44-18_094959634447_rgbf001878-resize_2/002660_2014-06-13_15-44-18_094959634447_rgbf001878-resize_2-target.png,250,3.576,2,3556,263,meters,jsons/v1_VE250_randls_59.json,1818158,1937216,32,Man
59,441122,DepthScenes,duration_manipulation_targetAtFixation,jsons/v1_VE250_randls_59.json,http://54.235.29.9/FacialAge/BNav_EC2/DepthDuration/v2_depth_duration_MTurk/v2_DepthDuration_HTML.html#1,1,1366,625,1366,768,8-29-2022,10-18-52,60,depth_duration_stimuli/000810_2014-06-08_17-20-01_260595134347_rgbf000105-resize_0/000810_2014-06-08_17-20-01_260595134347_rgbf000105-resize_0-target.png,250,1.4865,3,4215,252,meters,jsons/v1_VE250_randls_59.json,1818158,1937216,32,Man
60,441122,DepthScenes,duration_manipulation_targetAtFixation,jsons/v1_VE250_randls_59.json,http://54.235.29.9/FacialAge/BNav_EC2/DepthDuration/v2_depth_duration_MTurk/v2_DepthDuration_HTML.html#1,1,1366,625,1366,768,8-29-2022,10-18-52,61,depth_duration_stimuli/001214_2014-06-17_16-13-55_260595134347_rgbf000111-resize_0/001214_2014-06-17_16-13-55_260595134347_rgbf000111-resize_0-target.png,250,2.6505,3,3989,250,meters,jsons/v1_VE250_randls_59.json,1818158,1937216,32,Man
61,441122,DepthScenes,duration_manipulation_targetAtFixation,jsons/v1_VE250_randls_59.json,http://54.235.29.9/FacialAge/BNav_EC2/DepthDuration/v2_depth_duration_MTurk/v2_DepthDuration_HTML.html#1,1,1366,625,1366,768,8-29-2022,10-18-52,62,depth_duration_stimuli/002039_2014-06-24_20-22-38_260595134347_rgbf000084-resize_1/002039_2014-06-24_20-22-38_260595134347_rgbf000084-resize_1-target.png,250,4.408,2,4106,251,meters,jsons/v1_VE250_randls_59.json,1818158,1937216,32,Man
62,441122,DepthScenes,duration_manipulation_targetAtFixation,jsons/v1_VE250_randls_59.json,http://54.235.29.9/FacialAge/BNav_EC2/DepthDuration/v2_depth_duration_MTurk/v2_DepthDuration_HTML.html#1,1,1366,625,1366,768,8-29-2022,10-18-52,63,depth_duration_stimuli/002103_2014-06-25_20-00-40_260595134347_rgbf000049-resize_0/002103_2014-06-25_20-00-40_260595134347_rgbf000049-resize_0-target.png,250,4.105,1,4989,252,meters,jsons/v1_VE250_randls_59.json,1818158,1937216,32,Man
63,441122,DepthScenes,duration_manipulation_targetAtFixation,jsons/v1_VE250_randls_59.json,http://54.235.29.9/FacialAge/BNav_EC2/DepthDuration/v2_depth_duration_MTurk/v2_DepthDuration_HTML.html#1,1,1366,625,1366,768,8-29-2022,10-18-52,64,depth_duration_stimuli/003292_2014-05-14_21-53-49_094959634447_rgbf000100-resize_2/003292_2014-05-14_21-53-49_094959634447_rgbf000100-resize_2-target.png,250,3.4815,2,5129,248,meters,jsons/v1_VE250_randls_59.json,1818158,1937216,32,Man
64,441122,DepthScenes,duration_manipulation_targetAtFixation,jsons/v1_VE250_randls_59.json,http://54.235.29.9/FacialAge/BNav_EC2/DepthDuration/v2_depth_duration_MTurk/v2_DepthDuration_HTML.html#1,1,1366,625,1366,768,8-29-2022,10-18-52,65,depth_duration_stimuli/002639_2014-06-24_14-51-37_094959634447_rgbf000074-resize_4/002639_2014-06-24_14-51-37_094959634447_rgbf000074-resize_4-target.png,250,4.0375,1,4386,253,meters,jsons/v1_VE250_randls_59.json,1818158,1937216,32,Man
65,441122,DepthScenes,duration_manipulation_targetAtFixation,jsons/v1_VE250_randls_59.json,http://54.235.29.9/FacialAge/BNav_EC2/DepthDuration/v2_depth_duration_MTurk/v2_DepthDuration_HTML.html#1,1,1366,625,1366,768,8-29-2022,10-18-52,66,depth_duration_stimuli/001222_2014-06-17_16-24-06_260595134347_rgbf000073-resize_0/001222_2014-06-17_16-24-06_260595134347_rgbf000073-resize-original.jpg,250,1.4385,1,4456,260,meters,jsons/v1_VE250_randls_59.json,1818158,1937216,32,Man
66,441122,DepthScenes,duration_manipulation_targetAtFixation,jsons/v1_VE250_randls_59.json,http://54.235.29.9/FacialAge/BNav_EC2/DepthDuration/v2_depth_duration_MTurk/v2_DepthDuration_HTML.html#1,1,1366,625,1366,768,8-29-2022,10-18-52,67,depth_duration_stimuli/003621_2014-05-23_18-06-08_094959634447_rgbf000101-resize_1/003621_2014-05-23_18-06-08_094959634447_rgbf000101-resize_1-target.png,250,3.9835,1,4827,248,meters,jsons/v1_VE250_randls_59.json,1818158,1937216,32,Man
67,441122,DepthScenes,duration_manipulation_targetAtFixation,jsons/v1_VE250_randls_59.json,http://54.235.29.9/FacialAge/BNav_EC2/DepthDuration/v2_depth_duration_MTurk/v2_DepthDuration_HTML.html#1,1,1366,625,1366,768,8-29-2022,10-18-52,68,depth_duration_stimuli/001584_2014-06-20_11-07-43_260595134347_rgbf000002-resize_1/001584_2014-06-20_11-07-43_260595134347_rgbf000002-resize_1-target.png,250,3.53,2,3898,250,meters,jsons/v1_VE250_randls_59.json,1818158,1937216,32,Man
68,441122,DepthScenes,duration_manipulation_targetAtFixation,jsons/v1_VE250_randls_59.json,http://54.235.29.9/FacialAge/BNav_EC2/DepthDuration/v2_depth_duration_MTurk/v2_DepthDuration_HTML.html#1,1,1366,625,1366,768,8-29-2022,10-18-52,69,depth_duration_stimuli/000773_2014-06-08_22-24-54_260595134347_rgbf000093-resize_1/000773_2014-06-08_22-24-54_260595134347_rgbf000093-resize_1-target.png,250,4.973,1,4954,249,meters,jsons/v1_VE250_randls_59.json,1818158,1937216,32,Man
69,441122,DepthScenes,duration_manipulation_targetAtFixation,jsons/v1_VE250_randls_59.json,http://54.235.29.9/FacialAge/BNav_EC2/DepthDuration/v2_depth_duration_MTurk/v2_DepthDuration_HTML.html#1,1,1366,625,1366,768,8-29-2022,10-18-52,70,depth_duration_stimuli/002414_2014-06-28_20-24-58_260595134347_rgbf000067-resize_4/002414_2014-06-28_20-24-58_260595134347_rgbf000067-resize_4-target.png,250,4.363,1,6531,248,meters,jsons/v1_VE250_randls_59.json,1818158,1937216,32,Man
70,441122,DepthScenes,duration_manipulation_targetAtFixation,jsons/v1_VE250_randls_59.json,http://54.235.29.9/FacialAge/BNav_EC2/DepthDuration/v2_depth_duration_MTurk/v2_DepthDuration_HTML.html#1,1,1366,625,1366,768,8-29-2022,10-18-52,71,depth_duration_stimuli/001806_2014-06-26_20-50-20_260595134347_rgbf000091-resize_1/001806_2014-06-26_20-50-20_260595134347_rgbf000091-resize_1-target.png,250,2.7305,2,4185,250,meters,jsons/v1_VE250_randls_59.json,1818158,1937216,32,Man
71,441122,DepthScenes,duration_manipulation_targetAtFixation,jsons/v1_VE250_randls_59.json,http://54.235.29.9/FacialAge/BNav_EC2/DepthDuration/v2_depth_duration_MTurk/v2_DepthDuration_HTML.html#1,1,1366,625,1366,768,8-29-2022,10-18-52,72,depth_duration_stimuli/001617_2014-06-20_11-35-32_260595134347_rgbf000066-resize_1/001617_2014-06-20_11-35-32_260595134347_rgbf000066-resize_1-target.png,250,3.7910000000000004,1,4139,250,meters,jsons/v1_VE250_randls_59.json,1818158,1937216,32,Man
72,441122,DepthScenes,duration_manipulation_targetAtFixation,jsons/v1_VE250_randls_59.json,http://54.235.29.9/FacialAge/BNav_EC2/DepthDuration/v2_depth_duration_MTurk/v2_DepthDuration_HTML.html#1,1,1366,625,1366,768,8-29-2022,10-18-52,73,depth_duration_stimuli/001056_2014-06-08_18-46-44_260595134347_rgbf000068-resize_0/001056_2014-06-08_18-46-44_260595134347_rgbf000068-resize_0-target.png,250,2.6625,1,5233,247,meters,jsons/v1_VE250_randls_59.json,1818158,1937216,32,Man
73,441122,DepthScenes,duration_manipulation_targetAtFixation,jsons/v1_VE250_randls_59.json,http://54.235.29.9/FacialAge/BNav_EC2/DepthDuration/v2_depth_duration_MTurk/v2_DepthDuration_HTML.html#1,1,1366,625,1366,768,8-29-2022,10-18-52,74,depth_duration_stimuli/002199_2014-06-28_18-33-56_260595134347_rgbf000074-resize_0/002199_2014-06-28_18-33-56_260595134347_rgbf000074-resize_0-target.png,250,1.996,2,4101,236,meters,jsons/v1_VE250_randls_59.json,1818158,1937216,32,Man
74,441122,DepthScenes,duration_manipulation_targetAtFixation,jsons/v1_VE250_randls_59.json,http://54.235.29.9/FacialAge/BNav_EC2/DepthDuration/v2_depth_duration_MTurk/v2_DepthDuration_HTML.html#1,1,1366,625,1366,768,8-29-2022,10-18-52,75,depth_duration_stimuli/001555_2014-06-20_17-12-10_260595134347_rgbf000065-resize_4/001555_2014-06-20_17-12-10_260595134347_rgbf000065-resize_4-target.png,250,1.633,1,4684,254,meters,jsons/v1_VE250_randls_59.json,1818158,1937216,32,Man
75,441122,DepthScenes,duration_manipulation_targetAtFixation,jsons/v1_VE250_randls_59.json,http://54.235.29.9/FacialAge/BNav_EC2/DepthDuration/v2_depth_duration_MTurk/v2_DepthDuration_HTML.html#1,1,1366,625,1366,768,8-29-2022,10-18-52,76,depth_duration_stimuli/000103_2014-05-14_22-01-17_260595134347_rgbf000152-resize_5/000103_2014-05-14_22-01-17_260595134347_rgbf000152-resize_5-target.png,250,1.993,1,4916,243,meters,jsons/v1_VE250_randls_59.json,1818158,1937216,32,Man
76,441122,DepthScenes,duration_manipulation_targetAtFixation,jsons/v1_VE250_randls_59.json,http://54.235.29.9/FacialAge/BNav_EC2/DepthDuration/v2_depth_duration_MTurk/v2_DepthDuration_HTML.html#1,1,1366,625,1366,768,8-29-2022,10-18-52,77,depth_duration_stimuli/000758_2014-06-08_22-05-08_260595134347_rgbf000085-resize_0/000758_2014-06-08_22-05-08_260595134347_rgbf000085-resize_0-target.png,250,3.3810000000000002,1,3949,243,meters,jsons/v1_VE250_randls_59.json,1818158,1937216,32,Man
77,441122,DepthScenes,duration_manipulation_targetAtFixation,jsons/v1_VE250_randls_59.json,http://54.235.29.9/FacialAge/BNav_EC2/DepthDuration/v2_depth_duration_MTurk/v2_DepthDuration_HTML.html#1,1,1366,625,1366,768,8-29-2022,10-18-52,78,depth_duration_stimuli/000854_2014-06-09_19-43-13_260595134347_rgbf000066-resize_0/000854_2014-06-09_19-43-13_260595134347_rgbf000066-resize_0-target.png,250,3.068,1,5970,241,meters,jsons/v1_VE250_randls_59.json,1818158,1937216,32,Man
78,441122,DepthScenes,duration_manipulation_targetAtFixation,jsons/v1_VE250_randls_59.json,http://54.235.29.9/FacialAge/BNav_EC2/DepthDuration/v2_depth_duration_MTurk/v2_DepthDuration_HTML.html#1,1,1366,625,1366,768,8-29-2022,10-18-52,79,depth_duration_stimuli/000692_2014-06-08_13-09-42_260595134347_rgbf000199-resize_2/000692_2014-06-08_13-09-42_260595134347_rgbf000199-resize_2-target.png,250,3.661,1,4681,248,meters,jsons/v1_VE250_randls_59.json,1818158,1937216,32,Man
79,441122,DepthScenes,duration_manipulation_targetAtFixation,jsons/v1_VE250_randls_59.json,http://54.235.29.9/FacialAge/BNav_EC2/DepthDuration/v2_depth_duration_MTurk/v2_DepthDuration_HTML.html#1,1,1366,625,1366,768,8-29-2022,10-18-52,80,depth_duration_stimuli/001094_2014-06-15_17-36-00_260595134347_rgbf000205-resize_0/001094_2014-06-15_17-36-00_260595134347_rgbf000205-resize_0-target.png,250,4.2175,1,6181,242,meters,jsons/v1_VE250_randls_59.json,1818158,1937216,32,Man
80,441122,DepthScenes,duration_manipulation_targetAtFixation,jsons/v1_VE250_randls_59.json,http://54.235.29.9/FacialAge/BNav_EC2/DepthDuration/v2_depth_duration_MTurk/v2_DepthDuration_HTML.html#1,1,1366,625,1366,768,8-29-2022,10-18-52,81,depth_duration_stimuli/002043_2014-06-24_20-29-38_260595134347_rgbf000039-resize_4/002043_2014-06-24_20-29-38_260595134347_rgbf000039-resize_4-target.png,250,2.8435,2,143991,262,meters,jsons/v1_VE250_randls_59.json,1818158,1937216,32,Man
81,441122,DepthScenes,duration_manipulation_targetAtFixation,jsons/v1_VE250_randls_59.json,http://54.235.29.9/FacialAge/BNav_EC2/DepthDuration/v2_depth_duration_MTurk/v2_DepthDuration_HTML.html#1,1,1366,625,1366,768,8-29-2022,10-18-52,82,depth_duration_stimuli/003048_2014-06-15_13-49-43_094959634447_rgbf000150-resize_1/003048_2014-06-15_13-49-43_094959634447_rgbf000150-resize_1-target.png,250,4.0035,1,4610,254,meters,jsons/v1_VE250_randls_59.json,1818158,1937216,32,Man
82,441122,DepthScenes,duration_manipulation_targetAtFixation,jsons/v1_VE250_randls_59.json,http://54.235.29.9/FacialAge/BNav_EC2/DepthDuration/v2_depth_duration_MTurk/v2_DepthDuration_HTML.html#1,1,1366,625,1366,768,8-29-2022,10-18-52,83,depth_duration_stimuli/002964_2014-06-08_17-46-11_094959634447_rgbf000091-resize_4/002964_2014-06-08_17-46-11_094959634447_rgbf000091-resize_4-target.png,250,1.6909999999999998,2,2591,246,meters,jsons/v1_VE250_randls_59.json,1818158,1937216,32,Man
83,441122,DepthScenes,duration_manipulation_targetAtFixation,jsons/v1_VE250_randls_59.json,http://54.235.29.9/FacialAge/BNav_EC2/DepthDuration/v2_depth_duration_MTurk/v2_DepthDuration_HTML.html#1,1,1366,625,1366,768,8-29-2022,10-18-52,84,depth_duration_stimuli/002136_2014-06-25_21-18-03_260595134347_rgbf000109-resize_3/002136_2014-06-25_21-18-03_260595134347_rgbf000109-resize_3-target.png,250,1.9569999999999999,1,4275,261,meters,jsons/v1_VE250_randls_59.json,1818158,1937216,32,Man
84,441122,DepthScenes,duration_manipulation_targetAtFixation,jsons/v1_VE250_randls_59.json,http://54.235.29.9/FacialAge/BNav_EC2/DepthDuration/v2_depth_duration_MTurk/v2_DepthDuration_HTML.html#1,1,1366,625,1366,768,8-29-2022,10-18-52,85,depth_duration_stimuli/000447_2014-06-08_16-15-46_260595134347_rgbf000130-resize_1/000447_2014-06-08_16-15-46_260595134347_rgbf000130-resize_1-target.png,250,4.479,1,4427,261,meters,jsons/v1_VE250_randls_59.json,1818158,1937216,32,Man
85,441122,DepthScenes,duration_manipulation_targetAtFixation,jsons/v1_VE250_randls_59.json,http://54.235.29.9/FacialAge/BNav_EC2/DepthDuration/v2_depth_duration_MTurk/v2_DepthDuration_HTML.html#1,1,1366,625,1366,768,8-29-2022,10-18-52,86,depth_duration_stimuli/001447_2014-06-19_17-00-32_260595134347_rgbf000082-resize_5/001447_2014-06-19_17-00-32_260595134347_rgbf000082-resize_5-target.png,250,4.13775,2,4295,248,meters,jsons/v1_VE250_randls_59.json,1818158,1937216,32,Man
86,441122,DepthScenes,duration_manipulation_targetAtFixation,jsons/v1_VE250_randls_59.json,http://54.235.29.9/FacialAge/BNav_EC2/DepthDuration/v2_depth_duration_MTurk/v2_DepthDuration_HTML.html#1,1,1366,625,1366,768,8-29-2022,10-18-52,87,depth_duration_stimuli/001059_2014-06-08_21-53-27_260595134347_rgbf000061-resize_4/001059_2014-06-08_21-53-27_260595134347_rgbf000061-resize_4-target.png,250,2.4185,1,4884,250,meters,jsons/v1_VE250_randls_59.json,1818158,1937216,32,Man
87,441122,DepthScenes,duration_manipulation_targetAtFixation,jsons/v1_VE250_randls_59.json,http://54.235.29.9/FacialAge/BNav_EC2/DepthDuration/v2_depth_duration_MTurk/v2_DepthDuration_HTML.html#1,1,1366,625,1366,768,8-29-2022,10-18-52,88,depth_duration_stimuli/001032_2014-06-08_13-23-17_260595134347_rgbf000021-resize_3/001032_2014-06-08_13-23-17_260595134347_rgbf000021-resize_3-target.png,250,3.2725,2,4042,249,meters,jsons/v1_VE250_randls_59.json,1818158,1937216,32,Man
88,441122,DepthScenes,duration_manipulation_targetAtFixation,jsons/v1_VE250_randls_59.json,http://54.235.29.9/FacialAge/BNav_EC2/DepthDuration/v2_depth_duration_MTurk/v2_DepthDuration_HTML.html#1,1,1366,625,1366,768,8-29-2022,10-18-52,89,depth_duration_stimuli/001092_2014-06-15_17-34-58_260595134347_rgbf000171-resize_3/001092_2014-06-15_17-34-58_260595134347_rgbf000171-resize_3-target.png,250,2.6935,1,4386,249,meters,jsons/v1_VE250_randls_59.json,1818158,1937216,32,Man
89,441122,DepthScenes,duration_manipulation_targetAtFixation,jsons/v1_VE250_randls_59.json,http://54.235.29.9/FacialAge/BNav_EC2/DepthDuration/v2_depth_duration_MTurk/v2_DepthDuration_HTML.html#1,1,1366,625,1366,768,8-29-2022,10-18-52,90,depth_duration_stimuli/002545_2014-06-24_13-38-53_094959634447_rgbf000080-resize_4/002545_2014-06-24_13-38-53_094959634447_rgbf000080-resize_4-target.png,250,1.9205,1,5003,248,meters,jsons/v1_VE250_randls_59.json,1818158,1937216,32,Man
90,441122,DepthScenes,duration_manipulation_targetAtFixation,jsons/v1_VE250_randls_59.json,http://54.235.29.9/FacialAge/BNav_EC2/DepthDuration/v2_depth_duration_MTurk/v2_DepthDuration_HTML.html#1,1,1366,625,1366,768,8-29-2022,10-18-52,91,depth_duration_stimuli/002763_2014-06-22_19-13-10_094959634447_rgbf000075-resize_4/002763_2014-06-22_19-13-10_094959634447_rgbf000075-resize_4-target.png,250,1.68375,1,5610,248,meters,jsons/v1_VE250_randls_59.json,1818158,1937216,32,Man
91,441122,DepthScenes,duration_manipulation_targetAtFixation,jsons/v1_VE250_randls_59.json,http://54.235.29.9/FacialAge/BNav_EC2/DepthDuration/v2_depth_duration_MTurk/v2_DepthDuration_HTML.html#1,1,1366,625,1366,768,8-29-2022,10-18-52,92,depth_duration_stimuli/002209_2014-06-28_18-36-10_260595134347_rgbf000051-resize_1/002209_2014-06-28_18-36-10_260595134347_rgbf000051-resize_1-target.png,250,2.057,1,3788,250,meters,jsons/v1_VE250_randls_59.json,1818158,1937216,32,Man
92,441122,DepthScenes,duration_manipulation_targetAtFixation,jsons/v1_VE250_randls_59.json,http://54.235.29.9/FacialAge/BNav_EC2/DepthDuration/v2_depth_duration_MTurk/v2_DepthDuration_HTML.html#1,1,1366,625,1366,768,8-29-2022,10-18-52,93,depth_duration_stimuli/000414_2014-06-04_19-49-13_260595134347_rgbf000044-resize_0/000414_2014-06-04_19-49-13_260595134347_rgbf000044-resize_0-target.png,250,4.329,2,3979,249,meters,jsons/v1_VE250_randls_59.json,1818158,1937216,32,Man
93,441122,DepthScenes,duration_manipulation_targetAtFixation,jsons/v1_VE250_randls_59.json,http://54.235.29.9/FacialAge/BNav_EC2/DepthDuration/v2_depth_duration_MTurk/v2_DepthDuration_HTML.html#1,1,1366,625,1366,768,8-29-2022,10-18-52,94,depth_duration_stimuli/003129_2014-05-12_10-48-10_094959634447_rgbf000100-resize_0/003129_2014-05-12_10-48-10_094959634447_rgbf000100-resize_0-target.png,250,4.9305,1,3980,249,meters,jsons/v1_VE250_randls_59.json,1818158,1937216,32,Man
94,441122,DepthScenes,duration_manipulation_targetAtFixation,jsons/v1_VE250_randls_59.json,http://54.235.29.9/FacialAge/BNav_EC2/DepthDuration/v2_depth_duration_MTurk/v2_DepthDuration_HTML.html#1,1,1366,625,1366,768,8-29-2022,10-18-52,95,depth_duration_stimuli/000929_2014-06-09_16-33-19_260595134347_rgbf000139-resize_0/000929_2014-06-09_16-33-19_260595134347_rgbf000139-resize_0-target.png,250,2.8680000000000003,2,5126,221,meters,jsons/v1_VE250_randls_59.json,1818158,1937216,32,Man
95,441122,DepthScenes,duration_manipulation_targetAtFixation,jsons/v1_VE250_randls_59.json,http://54.235.29.9/FacialAge/BNav_EC2/DepthDuration/v2_depth_duration_MTurk/v2_DepthDuration_HTML.html#1,1,1366,625,1366,768,8-29-2022,10-18-52,96,depth_duration_stimuli/000457_2014-06-08_16-52-43_260595134347_rgbf000199-resize_1/000457_2014-06-08_16-52-43_260595134347_rgbf000199-resize_1-target.png,250,3.6489999999999996,1,5407,248,meters,jsons/v1_VE250_randls_59.json,1818158,1937216,32,Man
96,441122,DepthScenes,duration_manipulation_targetAtFixation,jsons/v1_VE250_randls_59.json,http://54.235.29.9/FacialAge/BNav_EC2/DepthDuration/v2_depth_duration_MTurk/v2_DepthDuration_HTML.html#1,1,1366,625,1366,768,8-29-2022,10-18-52,97,depth_duration_stimuli/001133_2014-06-17_14-49-16_260595134347_rgbf000100-resize_0/001133_2014-06-17_14-49-16_260595134347_rgbf000100-resize_0-target.png,250,4.2115,2,5146,251,meters,jsons/v1_VE250_randls_59.json,1818158,1937216,32,Man
97,441122,DepthScenes,duration_manipulation_targetAtFixation,jsons/v1_VE250_randls_59.json,http://54.235.29.9/FacialAge/BNav_EC2/DepthDuration/v2_depth_duration_MTurk/v2_DepthDuration_HTML.html#1,1,1366,625,1366,768,8-29-2022,10-18-52,98,depth_duration_stimuli/001132_2014-06-17_14-48-54_260595134347_rgbf000100-resize_2/001132_2014-06-17_14-48-54_260595134347_rgbf000100-resize_2-target.png,250,3.753,1,4306,259,meters,jsons/v1_VE250_randls_59.json,1818158,1937216,32,Man
98,441122,DepthScenes,duration_manipulation_targetAtFixation,jsons/v1_VE250_randls_59.json,http://54.235.29.9/FacialAge/BNav_EC2/DepthDuration/v2_depth_duration_MTurk/v2_DepthDuration_HTML.html#1,1,1366,625,1366,768,8-29-2022,10-18-52,99,depth_duration_stimuli/001540_2014-06-20_17-01-05_260595134347_rgbf000086-resize_2/001540_2014-06-20_17-01-05_260595134347_rgbf000086-resize-original.jpg,250,1.459,2,4210,254,meters,jsons/v1_VE250_randls_59.json,1818158,1937216,32,Man
99,441122,DepthScenes,duration_manipulation_targetAtFixation,jsons/v1_VE250_randls_59.json,http://54.235.29.9/FacialAge/BNav_EC2/DepthDuration/v2_depth_duration_MTurk/v2_DepthDuration_HTML.html#1,1,1366,625,1366,768,8-29-2022,10-18-52,100,depth_duration_stimuli/002570_2014-06-24_13-59-54_094959634447_rgbf000059-resize_0/002570_2014-06-24_13-59-54_094959634447_rgbf000059-resize_0-target.png,250,4.037,1,4102,242,meters,jsons/v1_VE250_randls_59.json,1818158,1937216,32,Man
100,441122,DepthScenes,duration_manipulation_targetAtFixation,jsons/v1_VE250_randls_59.json,http://54.235.29.9/FacialAge/BNav_EC2/DepthDuration/v2_depth_duration_MTurk/v2_DepthDuration_HTML.html#1,1,1366,625,1366,768,8-29-2022,10-18-52,101,depth_duration_stimuli/002467_2014-06-28_20-38-07_260595134347_rgbf000026-resize_2/002467_2014-06-28_20-38-07_260595134347_rgbf000026-resize_2-target.png,250,4.742,2,4575,239,meters,jsons/v1_VE250_randls_59.json,1818158,1937216,32,Man
101,441122,DepthScenes,duration_manipulation_targetAtFixation,jsons/v1_VE250_randls_59.json,http://54.235.29.9/FacialAge/BNav_EC2/DepthDuration/v2_depth_duration_MTurk/v2_DepthDuration_HTML.html#1,1,1366,625,1366,768,8-29-2022,10-18-52,102,depth_duration_stimuli/001011_2014-06-08_23-18-54_260595134347_rgbf000044-resize_4/001011_2014-06-08_23-18-54_260595134347_rgbf000044-resize_4-target.png,250,2.4730000000000003,1,5289,248,meters,jsons/v1_VE250_randls_59.json,1818158,1937216,32,Man
102,441122,DepthScenes,duration_manipulation_targetAtFixation,jsons/v1_VE250_randls_59.json,http://54.235.29.9/FacialAge/BNav_EC2/DepthDuration/v2_depth_duration_MTurk/v2_DepthDuration_HTML.html#1,1,1366,625,1366,768,8-29-2022,10-18-52,103,depth_duration_stimuli/002875_2014-06-01_15-19-00_094959634447_rgbf000151-resize_1/002875_2014-06-01_15-19-00_094959634447_rgbf000151-resize_1-target.png,250,1.9675,2,3593,250,meters,jsons/v1_VE250_randls_59.json,1818158,1937216,32,Man
103,441122,DepthScenes,duration_manipulation_targetAtFixation,jsons/v1_VE250_randls_59.json,http://54.235.29.9/FacialAge/BNav_EC2/DepthDuration/v2_depth_duration_MTurk/v2_DepthDuration_HTML.html#1,1,1366,625,1366,768,8-29-2022,10-18-52,104,depth_duration_stimuli/002279_2014-06-28_18-55-32_260595134347_rgbf000040-resize_5/002279_2014-06-28_18-55-32_260595134347_rgbf000040-resize_5-target.png,250,1.5043333333333,1,4124,267,meters,jsons/v1_VE250_randls_59.json,1818158,1937216,32,Man
104,441122,DepthScenes,duration_manipulation_targetAtFixation,jsons/v1_VE250_randls_59.json,http://54.235.29.9/FacialAge/BNav_EC2/DepthDuration/v2_depth_duration_MTurk/v2_DepthDuration_HTML.html#1,1,1366,625,1366,768,8-29-2022,10-18-52,105,depth_duration_stimuli/000635_2014-06-08_16-38-42_260595134347_rgbf000106-resize_1/000635_2014-06-08_16-38-42_260595134347_rgbf000106-resize_1-target.png,250,2.074,2,4168,246,meters,jsons/v1_VE250_randls_59.json,1818158,1937216,32,Man
105,441122,DepthScenes,duration_manipulation_targetAtFixation,jsons/v1_VE250_randls_59.json,http://54.235.29.9/FacialAge/BNav_EC2/DepthDuration/v2_depth_duration_MTurk/v2_DepthDuration_HTML.html#1,1,1366,625,1366,768,8-29-2022,10-18-52,106,depth_duration_stimuli/002630_2014-06-24_14-47-50_094959634447_rgbf000055-resize_1/002630_2014-06-24_14-47-50_094959634447_rgbf000055-resize_1-target.png,250,3.0095,1,4595,248,meters,jsons/v1_VE250_randls_59.json,1818158,1937216,32,Man
106,441122,DepthScenes,duration_manipulation_targetAtFixation,jsons/v1_VE250_randls_59.json,http://54.235.29.9/FacialAge/BNav_EC2/DepthDuration/v2_depth_duration_MTurk/v2_DepthDuration_HTML.html#1,1,1366,625,1366,768,8-29-2022,10-18-52,107,depth_duration_stimuli/002758_2014-06-22_19-11-20_094959634447_rgbf000128-resize_1/002758_2014-06-22_19-11-20_094959634447_rgbf000128-resize_1-target.png,250,2.555,2,6967,249,meters,jsons/v1_VE250_randls_59.json,1818158,1937216,32,Man
107,441122,DepthScenes,duration_manipulation_targetAtFixation,jsons/v1_VE250_randls_59.json,http://54.235.29.9/FacialAge/BNav_EC2/DepthDuration/v2_depth_duration_MTurk/v2_DepthDuration_HTML.html#1,1,1366,625,1366,768,8-29-2022,10-18-52,108,depth_duration_stimuli/000642_2014-06-08_16-59-25_260595134347_rgbf000098-resize_2/000642_2014-06-08_16-59-25_260595134347_rgbf000098-resize_2-target.png,250,2.8815,1,5131,251,meters,jsons/v1_VE250_randls_59.json,1818158,1937216,32,Man
108,441122,DepthScenes,duration_manipulation_targetAtFixation,jsons/v1_VE250_randls_59.json,http://54.235.29.9/FacialAge/BNav_EC2/DepthDuration/v2_depth_duration_MTurk/v2_DepthDuration_HTML.html#1,1,1366,625,1366,768,8-29-2022,10-18-52,109,depth_duration_stimuli/002425_2014-06-28_20-27-29_260595134347_rgbf000031-resize_8/002425_2014-06-28_20-27-29_260595134347_rgbf000031-resize_8-target.png,250,3.8960000000000004,1,7570,251,meters,jsons/v1_VE250_randls_59.json,1818158,1937216,32,Man
109,441122,DepthScenes,duration_manipulation_targetAtFixation,jsons/v1_VE250_randls_59.json,http://54.235.29.9/FacialAge/BNav_EC2/DepthDuration/v2_depth_duration_MTurk/v2_DepthDuration_HTML.html#1,1,1366,625,1366,768,8-29-2022,10-18-52,110,depth_duration_stimuli/002118_2014-06-25_20-32-08_260595134347_rgbf000078-resize_1/002118_2014-06-25_20-32-08_260595134347_rgbf000078-resize_1-target.png,250,2.6460000000000004,2,5757,249,meters,jsons/v1_VE250_randls_59.json,1818158,1937216,32,Man
110,441122,DepthScenes,duration_manipulation_targetAtFixation,jsons/v1_VE250_randls_59.json,http://54.235.29.9/FacialAge/BNav_EC2/DepthDuration/v2_depth_duration_MTurk/v2_DepthDuration_HTML.html#1,1,1366,625,1366,768,8-29-2022,10-18-52,111,depth_duration_stimuli/001516_2014-06-20_16-25-09_260595134347_rgbf000076-resize_2/001516_2014-06-20_16-25-09_260595134347_rgbf000076-resize_2-target.png,250,1.7445,1,3791,250,meters,jsons/v1_VE250_randls_59.json,1818158,1937216,32,Man
111,441122,DepthScenes,duration_manipulation_targetAtFixation,jsons/v1_VE250_randls_59.json,http://54.235.29.9/FacialAge/BNav_EC2/DepthDuration/v2_depth_duration_MTurk/v2_DepthDuration_HTML.html#1,1,1366,625,1366,768,8-29-2022,10-18-52,112,depth_duration_stimuli/003492_2014-05-21_15-50-55_094959634447_rgbf000828-resize_1/003492_2014-05-21_15-50-55_094959634447_rgbf000828-resize_1-target.png,250,4.06875,1,4706,251,meters,jsons/v1_VE250_randls_59.json,1818158,1937216,32,Man
112,441122,DepthScenes,duration_manipulation_targetAtFixation,jsons/v1_VE250_randls_59.json,http://54.235.29.9/FacialAge/BNav_EC2/DepthDuration/v2_depth_duration_MTurk/v2_DepthDuration_HTML.html#1,1,1366,625,1366,768,8-29-2022,10-18-52,113,depth_duration_stimuli/002568_2014-06-24_13-59-21_094959634447_rgbf000062-resize_4/002568_2014-06-24_13-59-21_094959634447_rgbf000062-resize_4-target.png,250,3.015,1,3563,250,meters,jsons/v1_VE250_randls_59.json,1818158,1937216,32,Man
113,441122,DepthScenes,duration_manipulation_targetAtFixation,jsons/v1_VE250_randls_59.json,http://54.235.29.9/FacialAge/BNav_EC2/DepthDuration/v2_depth_duration_MTurk/v2_DepthDuration_HTML.html#1,1,1366,625,1366,768,8-29-2022,10-18-52,114,depth_duration_stimuli/001175_2014-06-17_15-45-55_260595134347_rgbf000129-resize_4/001175_2014-06-17_15-45-55_260595134347_rgbf000129-resize_4-target.png,250,4.255,2,4475,264,meters,jsons/v1_VE250_randls_59.json,1818158,1937216,32,Man
114,441122,DepthScenes,duration_manipulation_targetAtFixation,jsons/v1_VE250_randls_59.json,http://54.235.29.9/FacialAge/BNav_EC2/DepthDuration/v2_depth_duration_MTurk/v2_DepthDuration_HTML.html#1,1,1366,625,1366,768,8-29-2022,10-18-52,115,depth_duration_stimuli/003490_2014-05-21_15-50-11_094959634447_rgbf000101-resize_3/003490_2014-05-21_15-50-11_094959634447_rgbf000101-resize_3-target.png,250,3.6445,1,4137,250,meters,jsons/v1_VE250_randls_59.json,1818158,1937216,32,Man
115,441122,DepthScenes,duration_manipulation_targetAtFixation,jsons/v1_VE250_randls_59.json,http://54.235.29.9/FacialAge/BNav_EC2/DepthDuration/v2_depth_duration_MTurk/v2_DepthDuration_HTML.html#1,1,1366,625,1366,768,8-29-2022,10-18-52,116,depth_duration_stimuli/001170_2014-06-17_15-43-44_260595134347_rgbf000096-resize_6/001170_2014-06-17_15-43-44_260595134347_rgbf000096-resize-original.jpg,250,1.1909999999999998,2,17476,236,meters,jsons/v1_VE250_randls_59.json,1818158,1937216,32,Man
116,441122,DepthScenes,duration_manipulation_targetAtFixation,jsons/v1_VE250_randls_59.json,http://54.235.29.9/FacialAge/BNav_EC2/DepthDuration/v2_depth_duration_MTurk/v2_DepthDuration_HTML.html#1,1,1366,625,1366,768,8-29-2022,10-18-52,117,depth_duration_stimuli/000470_2014-06-09_19-42-40_260595134347_rgbf000094-resize_1/000470_2014-06-09_19-42-40_260595134347_rgbf000094-resize_1-target.png,250,1.831,1,4113,255,meters,jsons/v1_VE250_randls_59.json,1818158,1937216,32,Man
117,441122,DepthScenes,duration_manipulation_targetAtFixation,jsons/v1_VE250_randls_59.json,http://54.235.29.9/FacialAge/BNav_EC2/DepthDuration/v2_depth_duration_MTurk/v2_DepthDuration_HTML.html#1,1,1366,625,1366,768,8-29-2022,10-18-52,118,depth_duration_stimuli/000109_2014-05-14_23-41-52_260595134347_rgbf000035-resize_9/000109_2014-05-14_23-41-52_260595134347_rgbf000035-resize_9-target.png,250,1.3545,2,4058,249,meters,jsons/v1_VE250_randls_59.json,1818158,1937216,32,Man
118,441122,DepthScenes,duration_manipulation_targetAtFixation,jsons/v1_VE250_randls_59.json,http://54.235.29.9/FacialAge/BNav_EC2/DepthDuration/v2_depth_duration_MTurk/v2_DepthDuration_HTML.html#1,1,1366,625,1366,768,8-29-2022,10-18-52,119,depth_duration_stimuli/001029_2014-06-08_13-17-57_260595134347_rgbf000065-resize_1/001029_2014-06-08_13-17-57_260595134347_rgbf000065-resize_1-target.png,250,3.0835,1,4286,249,meters,jsons/v1_VE250_randls_59.json,1818158,1937216,32,Man
119,441122,DepthScenes,duration_manipulation_targetAtFixation,jsons/v1_VE250_randls_59.json,http://54.235.29.9/FacialAge/BNav_EC2/DepthDuration/v2_depth_duration_MTurk/v2_DepthDuration_HTML.html#1,1,1366,625,1366,768,8-29-2022,10-18-52,120,depth_duration_stimuli/000677_2014-06-08_23-10-32_260595134347_rgbf000158-resize_6/000677_2014-06-08_23-10-32_260595134347_rgbf000158-resize_6-target.png,250,3.556,2,4274,248,meters,jsons/v1_VE250_randls_59.json,1818158,1937216,32,Man
120,441122,DepthScenes,duration_manipulation_targetAtFixation,jsons/v1_VE250_randls_59.json,http://54.235.29.9/FacialAge/BNav_EC2/DepthDuration/v2_depth_duration_MTurk/v2_DepthDuration_HTML.html#1,1,1366,625,1366,768,8-29-2022,10-18-52,121,depth_duration_stimuli/000522_2014-06-08_13-35-06_260595134347_rgbf000244-resize_1/000522_2014-06-08_13-35-06_260595134347_rgbf000244-resize_1-target.png,250,2.3715,3,5289,250,meters,jsons/v1_VE250_randls_59.json,1818158,1937216,32,Man
121,441122,DepthScenes,duration_manipulation_targetAtFixation,jsons/v1_VE250_randls_59.json,http://54.235.29.9/FacialAge/BNav_EC2/DepthDuration/v2_depth_duration_MTurk/v2_DepthDuration_HTML.html#1,1,1366,625,1366,768,8-29-2022,10-18-52,122,depth_duration_stimuli/002949_2014-06-26_15-57-42_094959634447_rgbf000079-resize_1/002949_2014-06-26_15-57-42_094959634447_rgbf000079-resize_1-target.png,250,1.8915,2,3706,255,meters,jsons/v1_VE250_randls_59.json,1818158,1937216,32,Man
122,441122,DepthScenes,duration_manipulation_targetAtFixation,jsons/v1_VE250_randls_59.json,http://54.235.29.9/FacialAge/BNav_EC2/DepthDuration/v2_depth_duration_MTurk/v2_DepthDuration_HTML.html#1,1,1366,625,1366,768,8-29-2022,10-18-52,123,depth_duration_stimuli/000917_2014-06-09_22-45-29_260595134347_rgbf000149-resize_3/000917_2014-06-09_22-45-29_260595134347_rgbf000149-resize_3-target.png,250,4.1865,1,4689,262,meters,jsons/v1_VE250_randls_59.json,1818158,1937216,32,Man
123,441122,DepthScenes,duration_manipulation_targetAtFixation,jsons/v1_VE250_randls_59.json,http://54.235.29.9/FacialAge/BNav_EC2/DepthDuration/v2_depth_duration_MTurk/v2_DepthDuration_HTML.html#1,1,1366,625,1366,768,8-29-2022,10-18-52,124,depth_duration_stimuli/002323_2014-06-28_20-01-54_260595134347_rgbf000051-resize_4/002323_2014-06-28_20-01-54_260595134347_rgbf000051-resize_4-target.png,250,3.7310000000000003,2,4495,248,meters,jsons/v1_VE250_randls_59.json,1818158,1937216,32,Man
124,441122,DepthScenes,duration_manipulation_targetAtFixation,jsons/v1_VE250_randls_59.json,http://54.235.29.9/FacialAge/BNav_EC2/DepthDuration/v2_depth_duration_MTurk/v2_DepthDuration_HTML.html#1,1,1366,625,1366,768,8-29-2022,10-18-52,125,depth_duration_stimuli/000486_2014-06-09_20-47-20_260595134347_rgbf000143-resize_2/000486_2014-06-09_20-47-20_260595134347_rgbf000143-resize_2-target.png,250,4.8325,1,4138,248,meters,jsons/v1_VE250_randls_59.json,1818158,1937216,32,Man
125,441122,DepthScenes,duration_manipulation_targetAtFixation,jsons/v1_VE250_randls_59.json,http://54.235.29.9/FacialAge/BNav_EC2/DepthDuration/v2_depth_duration_MTurk/v2_DepthDuration_HTML.html#1,1,1366,625,1366,768,8-29-2022,10-18-52,126,depth_duration_stimuli/003083_2014-06-15_15-21-03_094959634447_rgbf000063-resize_1/003083_2014-06-15_15-21-03_094959634447_rgbf000063-resize_1-target.png,250,4.1405,2,3850,239,meters,jsons/v1_VE250_randls_59.json,1818158,1937216,32,Man
126,441122,DepthScenes,duration_manipulation_targetAtFixation,jsons/v1_VE250_randls_59.json,http://54.235.29.9/FacialAge/BNav_EC2/DepthDuration/v2_depth_duration_MTurk/v2_DepthDuration_HTML.html#1,1,1366,625,1366,768,8-29-2022,10-18-52,127,depth_duration_stimuli/001810_2014-06-26_20-51-35_260595134347_rgbf000040-resize_3/001810_2014-06-26_20-51-35_260595134347_rgbf000040-resize_3-target.png,250,2.2525,1,4220,250,meters,jsons/v1_VE250_randls_59.json,1818158,1937216,32,Man
127,441122,DepthScenes,duration_manipulation_targetAtFixation,jsons/v1_VE250_randls_59.json,http://54.235.29.9/FacialAge/BNav_EC2/DepthDuration/v2_depth_duration_MTurk/v2_DepthDuration_HTML.html#1,1,1366,625,1366,768,8-29-2022,10-18-52,128,depth_duration_stimuli/003010_2014-06-15_12-54-35_094959634447_rgbf000112-resize_0/003010_2014-06-15_12-54-35_094959634447_rgbf000112-resize_0-target.png,250,3.1185,2,4216,247,meters,jsons/v1_VE250_randls_59.json,1818158,1937216,32,Man
128,441122,DepthScenes,duration_manipulation_targetAtFixation,jsons/v1_VE250_randls_59.json,http://54.235.29.9/FacialAge/BNav_EC2/DepthDuration/v2_depth_duration_MTurk/v2_DepthDuration_HTML.html#1,1,1366,625,1366,768,8-29-2022,10-18-52,129,depth_duration_stimuli/002549_2014-06-24_13-41-39_094959634447_rgbf000022-resize_3/002549_2014-06-24_13-41-39_094959634447_rgbf000022-resize_3-target.png,250,1.476,1,3779,249,meters,jsons/v1_VE250_randls_59.json,1818158,1937216,32,Man
129,441122,DepthScenes,duration_manipulation_targetAtFixation,jsons/v1_VE250_randls_59.json,http://54.235.29.9/FacialAge/BNav_EC2/DepthDuration/v2_depth_duration_MTurk/v2_DepthDuration_HTML.html#1,1,1366,625,1366,768,8-29-2022,10-18-52,130,depth_duration_stimuli/002750_2014-06-22_19-08-03_094959634447_rgbf000094-resize_4/002750_2014-06-22_19-08-03_094959634447_rgbf000094-resize_4-target.png,250,2.354,2,3859,256,meters,jsons/v1_VE250_randls_59.json,1818158,1937216,32,Man
130,441122,DepthScenes,duration_manipulation_targetAtFixation,jsons/v1_VE250_randls_59.json,http://54.235.29.9/FacialAge/BNav_EC2/DepthDuration/v2_depth_duration_MTurk/v2_DepthDuration_HTML.html#1,1,1366,625,1366,768,8-29-2022,10-18-52,131,depth_duration_stimuli/002784_2014-06-22_19-26-30_094959634447_rgbf000083-resize_3/002784_2014-06-22_19-26-30_094959634447_rgbf000083-resize_3-target.png,250,1.8046666666667,1,4020,235,meters,jsons/v1_VE250_randls_59.json,1818158,1937216,32,Man
131,441122,DepthScenes,duration_manipulation_targetAtFixation,jsons/v1_VE250_randls_59.json,http://54.235.29.9/FacialAge/BNav_EC2/DepthDuration/v2_depth_duration_MTurk/v2_DepthDuration_HTML.html#1,1,1366,625,1366,768,8-29-2022,10-18-52,132,depth_duration_stimuli/001100_2014-06-15_17-46-26_260595134347_rgbf000225-resize_2/001100_2014-06-15_17-46-26_260595134347_rgbf000225-resize_2-target.png,250,2.24,2,3980,245,meters,jsons/v1_VE250_randls_59.json,1818158,1937216,32,Man
132,441122,DepthScenes,duration_manipulation_targetAtFixation,jsons/v1_VE250_randls_59.json,http://54.235.29.9/FacialAge/BNav_EC2/DepthDuration/v2_depth_duration_MTurk/v2_DepthDuration_HTML.html#1,1,1366,625,1366,768,8-29-2022,10-18-52,133,depth_duration_stimuli/002725_2014-06-22_11-47-51_094959634447_rgbf000070-resize_1/002725_2014-06-22_11-47-51_094959634447_rgbf000070-resize_1-target.png,250,2.195,1,4025,250,meters,jsons/v1_VE250_randls_59.json,1818158,1937216,32,Man
133,441122,DepthScenes,duration_manipulation_targetAtFixation,jsons/v1_VE250_randls_59.json,http://54.235.29.9/FacialAge/BNav_EC2/DepthDuration/v2_depth_duration_MTurk/v2_DepthDuration_HTML.html#1,1,1366,625,1366,768,8-29-2022,10-18-52,134,depth_duration_stimuli/002344_2014-06-28_20-06-29_260595134347_rgbf000030-resize_1/002344_2014-06-28_20-06-29_260595134347_rgbf000030-resize_1-target.png,250,1.5795,2,4240,246,meters,jsons/v1_VE250_randls_59.json,1818158,1937216,32,Man
134,441122,DepthScenes,duration_manipulation_targetAtFixation,jsons/v1_VE250_randls_59.json,http://54.235.29.9/FacialAge/BNav_EC2/DepthDuration/v2_depth_duration_MTurk/v2_DepthDuration_HTML.html#1,1,1366,625,1366,768,8-29-2022,10-18-52,135,depth_duration_stimuli/002072_2014-06-24_21-48-06_260595134347_rgbf000115-resize_0/002072_2014-06-24_21-48-06_260595134347_rgbf000115-resize-original.jpg,250,4.702,2,878264,242,meters,jsons/v1_VE250_randls_59.json,1818158,1937216,32,Man
135,441122,DepthScenes,duration_manipulation_targetAtFixation,jsons/v1_VE250_randls_59.json,http://54.235.29.9/FacialAge/BNav_EC2/DepthDuration/v2_depth_duration_MTurk/v2_DepthDuration_HTML.html#1,1,1366,625,1366,768,8-29-2022,10-18-52,136,depth_duration_stimuli/001570_2014-06-20_17-21-09_260595134347_rgbf000135-resize_4/001570_2014-06-20_17-21-09_260595134347_rgbf000135-resize_4-target.png,250,4.467,1,4499,250,meters,jsons/v1_VE250_randls_59.json,1818158,1937216,32,Man
136,441122,DepthScenes,duration_manipulation_targetAtFixation,jsons/v1_VE250_randls_59.json,http://54.235.29.9/FacialAge/BNav_EC2/DepthDuration/v2_depth_duration_MTurk/v2_DepthDuration_HTML.html#1,1,1366,625,1366,768,8-29-2022,10-18-52,137,depth_duration_stimuli/001392_2014-06-19_16-07-59_260595134347_rgbf000046-resize_1/001392_2014-06-19_16-07-59_260595134347_rgbf000046-resize_1-target.png,250,4.135,2,3409,249,meters,jsons/v1_VE250_randls_59.json,1818158,1937216,32,Man
137,441122,DepthScenes,duration_manipulation_targetAtFixation,jsons/v1_VE250_randls_59.json,http://54.235.29.9/FacialAge/BNav_EC2/DepthDuration/v2_depth_duration_MTurk/v2_DepthDuration_HTML.html#1,1,1366,625,1366,768,8-29-2022,10-18-52,138,depth_duration_stimuli/002663_2014-06-13_15-50-26_094959634447_rgbf000075-resize_1/002663_2014-06-13_15-50-26_094959634447_rgbf000075-resize_1-target.png,250,4.7495,1,3827,250,meters,jsons/v1_VE250_randls_59.json,1818158,1937216,32,Man
138,441122,DepthScenes,duration_manipulation_targetAtFixation,jsons/v1_VE250_randls_59.json,http://54.235.29.9/FacialAge/BNav_EC2/DepthDuration/v2_depth_duration_MTurk/v2_DepthDuration_HTML.html#1,1,1366,625,1366,768,8-29-2022,10-18-52,139,depth_duration_stimuli/000409_2014-06-04_19-23-33_260595134347_rgbf000067-resize_0/000409_2014-06-04_19-23-33_260595134347_rgbf000067-resize_0-target.png,250,3.7335,2,3316,251,meters,jsons/v1_VE250_randls_59.json,1818158,1937216,32,Man
139,441122,DepthScenes,duration_manipulation_targetAtFixation,jsons/v1_VE250_randls_59.json,http://54.235.29.9/FacialAge/BNav_EC2/DepthDuration/v2_depth_duration_MTurk/v2_DepthDuration_HTML.html#1,1,1366,625,1366,768,8-29-2022,10-18-52,140,depth_duration_stimuli/000009_2014-05-26_14-32-05_260595134347_rgbf000034-resize_3/000009_2014-05-26_14-32-05_260595134347_rgbf000034-resize_3-target.png,250,3.8715,1,2691,265,meters,jsons/v1_VE250_randls_59.json,1818158,1937216,32,Man
140,441122,DepthScenes,duration_manipulation_targetAtFixation,jsons/v1_VE250_randls_59.json,http://54.235.29.9/FacialAge/BNav_EC2/DepthDuration/v2_depth_duration_MTurk/v2_DepthDuration_HTML.html#1,1,1366,625,1366,768,8-29-2022,10-18-52,141,depth_duration_stimuli/001828_2014-06-26_21-40-03_260595134347_rgbf000024-resize_0/001828_2014-06-26_21-40-03_260595134347_rgbf000024-resize_0-target.png,250,4.8260000000000005,2,3021,236,meters,jsons/v1_VE250_randls_59.json,1818158,1937216,32,Man
141,441122,DepthScenes,duration_manipulation_targetAtFixation,jsons/v1_VE250_randls_59.json,http://54.235.29.9/FacialAge/BNav_EC2/DepthDuration/v2_depth_duration_MTurk/v2_DepthDuration_HTML.html#1,1,1366,625,1366,768,8-29-2022,10-18-52,142,depth_duration_stimuli/002272_2014-06-28_18-53-56_260595134347_rgbf000067-resize_2/002272_2014-06-28_18-53-56_260595134347_rgbf000067-resize_2-target.png,250,1.138,1,2713,250,meters,jsons/v1_VE250_randls_59.json,1818158,1937216,32,Man
142,441122,DepthScenes,duration_manipulation_targetAtFixation,jsons/v1_VE250_randls_59.json,http://54.235.29.9/FacialAge/BNav_EC2/DepthDuration/v2_depth_duration_MTurk/v2_DepthDuration_HTML.html#1,1,1366,625,1366,768,8-29-2022,10-18-52,143,depth_duration_stimuli/001571_2014-06-20_17-21-32_260595134347_rgbf000089-resize_1/001571_2014-06-20_17-21-32_260595134347_rgbf000089-resize_1-target.png,250,1.86,2,3387,250,meters,jsons/v1_VE250_randls_59.json,1818158,1937216,32,Man
143,441122,DepthScenes,duration_manipulation_targetAtFixation,jsons/v1_VE250_randls_59.json,http://54.235.29.9/FacialAge/BNav_EC2/DepthDuration/v2_depth_duration_MTurk/v2_DepthDuration_HTML.html#1,1,1366,625,1366,768,8-29-2022,10-18-52,144,depth_duration_stimuli/002600_2014-06-24_14-27-04_094959634447_rgbf000074-resize_2/002600_2014-06-24_14-27-04_094959634447_rgbf000074-resize_2-target.png,250,2.7575,1,2424,257,meters,jsons/v1_VE250_randls_59.json,1818158,1937216,32,Man
144,441122,DepthScenes,duration_manipulation_targetAtFixation,jsons/v1_VE250_randls_59.json,http://54.235.29.9/FacialAge/BNav_EC2/DepthDuration/v2_depth_duration_MTurk/v2_DepthDuration_HTML.html#1,1,1366,625,1366,768,8-29-2022,10-18-52,145,depth_duration_stimuli/003228_2014-05-14_13-42-35_094959634447_rgbf000101-resize_1/003228_2014-05-14_13-42-35_094959634447_rgbf000101-resize_1-target.png,250,1.9680000000000002,1,2522,249,meters,jsons/v1_VE250_randls_59.json,1818158,1937216,32,Man
145,441122,DepthScenes,duration_manipulation_targetAtFixation,jsons/v1_VE250_randls_59.json,http://54.235.29.9/FacialAge/BNav_EC2/DepthDuration/v2_depth_duration_MTurk/v2_DepthDuration_HTML.html#1,1,1366,625,1366,768,8-29-2022,10-18-52,146,depth_duration_stimuli/001498_2014-06-19_17-45-14_260595134347_rgbf000129-resize_4/001498_2014-06-19_17-45-14_260595134347_rgbf000129-resize-original.jpg,250,1.4075,1,2354,250,meters,jsons/v1_VE250_randls_59.json,1818158,1937216,32,Man
146,441122,DepthScenes,duration_manipulation_targetAtFixation,jsons/v1_VE250_randls_59.json,http://54.235.29.9/FacialAge/BNav_EC2/DepthDuration/v2_depth_duration_MTurk/v2_DepthDuration_HTML.html#1,1,1366,625,1366,768,8-29-2022,10-18-52,147,depth_duration_stimuli/002445_2014-06-28_20-32-16_260595134347_rgbf000029-resize_4/002445_2014-06-28_20-32-16_260595134347_rgbf000029-resize_4-target.png,250,2.5315,2,3377,262,meters,jsons/v1_VE250_randls_59.json,1818158,1937216,32,Man
147,441122,DepthScenes,duration_manipulation_targetAtFixation,jsons/v1_VE250_randls_59.json,http://54.235.29.9/FacialAge/BNav_EC2/DepthDuration/v2_depth_duration_MTurk/v2_DepthDuration_HTML.html#1,1,1366,625,1366,768,8-29-2022,10-18-52,148,depth_duration_stimuli/000780_2014-06-08_22-28-29_260595134347_rgbf000126-resize_1/000780_2014-06-08_22-28-29_260595134347_rgbf000126-resize_1-target.png,250,3.3825,1,5651,252,meters,jsons/v1_VE250_randls_59.json,1818158,1937216,32,Man
148,441122,DepthScenes,duration_manipulation_targetAtFixation,jsons/v1_VE250_randls_59.json,http://54.235.29.9/FacialAge/BNav_EC2/DepthDuration/v2_depth_duration_MTurk/v2_DepthDuration_HTML.html#1,1,1366,625,1366,768,8-29-2022,10-18-52,149,depth_duration_stimuli/001417_2014-06-19_16-25-36_260595134347_rgbf000115-resize_5/001417_2014-06-19_16-25-36_260595134347_rgbf000115-resize_5-target.png,250,4.6255,1,3490,250,meters,jsons/v1_VE250_randls_59.json,1818158,1937216,32,Man
149,441122,DepthScenes,duration_manipulation_targetAtFixation,jsons/v1_VE250_randls_59.json,http://54.235.29.9/FacialAge/BNav_EC2/DepthDuration/v2_depth_duration_MTurk/v2_DepthDuration_HTML.html#1,1,1366,625,1366,768,8-29-2022,10-18-52,150,depth_duration_stimuli/003081_2014-06-15_15-19-16_094959634447_rgbf000150-resize_1/003081_2014-06-15_15-19-16_094959634447_rgbf000150-resize_1-target.png,250,3.9125,1,2875,257,meters,jsons/v1_VE250_randls_59.json,1818158,1937216,32,Man
150,441122,DepthScenes,duration_manipulation_targetAtFixation,jsons/v1_VE250_randls_59.json,http://54.235.29.9/FacialAge/BNav_EC2/DepthDuration/v2_depth_duration_MTurk/v2_DepthDuration_HTML.html#1,1,1366,625,1366,768,8-29-2022,10-18-52,151,depth_duration_stimuli/001244_2014-06-17_16-47-45_260595134347_rgbf000030-resize_4/001244_2014-06-17_16-47-45_260595134347_rgbf000030-resize_4-target.png,250,2.0425,2,3346,250,meters,jsons/v1_VE250_randls_59.json,1818158,1937216,32,Man
151,441122,DepthScenes,duration_manipulation_targetAtFixation,jsons/v1_VE250_randls_59.json,http://54.235.29.9/FacialAge/BNav_EC2/DepthDuration/v2_depth_duration_MTurk/v2_DepthDuration_HTML.html#1,1,1366,625,1366,768,8-29-2022,10-18-52,152,depth_duration_stimuli/003495_2014-05-21_16-01-51_094959634447_rgbf000100-resize_3/003495_2014-05-21_16-01-51_094959634447_rgbf000100-resize_3-target.png,250,1.6255,1,3267,250,meters,jsons/v1_VE250_randls_59.json,1818158,1937216,32,Man
152,441122,DepthScenes,duration_manipulation_targetAtFixation,jsons/v1_VE250_randls_59.json,http://54.235.29.9/FacialAge/BNav_EC2/DepthDuration/v2_depth_duration_MTurk/v2_DepthDuration_HTML.html#1,1,1366,625,1366,768,8-29-2022,10-18-52,153,depth_duration_stimuli/000368_2014-06-09_15-53-01_260595134347_rgbf000155-resize_2/000368_2014-06-09_15-53-01_260595134347_rgbf000155-resize_2-target.png,250,2.4859999999999998,1,3510,247,meters,jsons/v1_VE250_randls_59.json,1818158,1937216,32,Man
153,441122,DepthScenes,duration_manipulation_targetAtFixation,jsons/v1_VE250_randls_59.json,http://54.235.29.9/FacialAge/BNav_EC2/DepthDuration/v2_depth_duration_MTurk/v2_DepthDuration_HTML.html#1,1,1366,625,1366,768,8-29-2022,10-18-52,154,depth_duration_stimuli/002678_2014-06-13_16-15-32_094959634447_rgbf000151-resize_6/002678_2014-06-13_16-15-32_094959634447_rgbf000151-resize_6-target.png,250,2.1830000000000003,1,3030,245,meters,jsons/v1_VE250_randls_59.json,1818158,1937216,32,Man
154,441122,DepthScenes,duration_manipulation_targetAtFixation,jsons/v1_VE250_randls_59.json,http://54.235.29.9/FacialAge/BNav_EC2/DepthDuration/v2_depth_duration_MTurk/v2_DepthDuration_HTML.html#1,1,1366,625,1366,768,8-29-2022,10-18-52,155,depth_duration_stimuli/000493_2014-06-09_21-01-18_260595134347_rgbf000196-resize_3/000493_2014-06-09_21-01-18_260595134347_rgbf000196-resize_3-target.png,250,3.44,1,3819,249,meters,jsons/v1_VE250_randls_59.json,1818158,1937216,32,Man
155,441122,DepthScenes,duration_manipulation_targetAtFixation,jsons/v1_VE250_randls_59.json,http://54.235.29.9/FacialAge/BNav_EC2/DepthDuration/v2_depth_duration_MTurk/v2_DepthDuration_HTML.html#1,1,1366,625,1366,768,8-29-2022,10-18-52,156,depth_duration_stimuli/000191_2014-05-12_17-07-38_260595134347_rgbf000199-resize_0/000191_2014-05-12_17-07-38_260595134347_rgbf000199-resize_0-target.png,250,3.7995,1,2715,249,meters,jsons/v1_VE250_randls_59.json,1818158,1937216,32,Man
156,441122,DepthScenes,duration_manipulation_targetAtFixation,jsons/v1_VE250_randls_59.json,http://54.235.29.9/FacialAge/BNav_EC2/DepthDuration/v2_depth_duration_MTurk/v2_DepthDuration_HTML.html#1,1,1366,625,1366,768,8-29-2022,10-18-52,157,depth_duration_stimuli/002988_2014-06-15_12-24-20_094959634447_rgbf000150-resize_1/002988_2014-06-15_12-24-20_094959634447_rgbf000150-resize_1-target.png,250,4.7669999999999995,1,2466,250,meters,jsons/v1_VE250_randls_59.json,1818158,1937216,32,Man
157,441122,DepthScenes,duration_manipulation_targetAtFixation,jsons/v1_VE250_randls_59.json,http://54.235.29.9/FacialAge/BNav_EC2/DepthDuration/v2_depth_duration_MTurk/v2_DepthDuration_HTML.html#1,1,1366,625,1366,768,8-29-2022,10-18-52,158,depth_duration_stimuli/001052_2014-06-08_18-24-54_260595134347_rgbf000130-resize_1/001052_2014-06-08_18-24-54_260595134347_rgbf000130-resize_1-target.png,250,4.1045,2,2649,249,meters,jsons/v1_VE250_randls_59.json,1818158,1937216,32,Man
158,441122,DepthScenes,duration_manipulation_targetAtFixation,jsons/v1_VE250_randls_59.json,http://54.235.29.9/FacialAge/BNav_EC2/DepthDuration/v2_depth_duration_MTurk/v2_DepthDuration_HTML.html#1,1,1366,625,1366,768,8-29-2022,10-18-52,159,depth_duration_stimuli/002788_2014-06-22_19-36-03_094959634447_rgbf000088-resize_2/002788_2014-06-22_19-36-03_094959634447_rgbf000088-resize_2-target.png,250,1.6465,1,3282,249,meters,jsons/v1_VE250_randls_59.json,1818158,1937216,32,Man
159,441122,DepthScenes,duration_manipulation_targetAtFixation,jsons/v1_VE250_randls_59.json,http://54.235.29.9/FacialAge/BNav_EC2/DepthDuration/v2_depth_duration_MTurk/v2_DepthDuration_HTML.html#1,1,1366,625,1366,768,8-29-2022,10-18-52,160,depth_duration_stimuli/000749_2014-06-08_21-55-06_260595134347_rgbf000070-resize_2/000749_2014-06-08_21-55-06_260595134347_rgbf000070-resize_2-target.png,250,2.331,2,2515,250,meters,jsons/v1_VE250_randls_59.json,1818158,1937216,32,Man
160,441122,DepthScenes,duration_manipulation_targetAtFixation,jsons/v1_VE250_randls_59.json,http://54.235.29.9/FacialAge/BNav_EC2/DepthDuration/v2_depth_duration_MTurk/v2_DepthDuration_HTML.html#1,1,1366,625,1366,768,8-29-2022,10-18-52,161,depth_duration_stimuli/000739_2014-06-08_18-45-58_260595134347_rgbf000068-resize_1/000739_2014-06-08_18-45-58_260595134347_rgbf000068-resize_1-target.png,250,3.534,1,3386,249,meters,jsons/v1_VE250_randls_59.json,1818158,1937216,32,Man
161,441122,DepthScenes,duration_manipulation_targetAtFixation,jsons/v1_VE250_randls_59.json,http://54.235.29.9/FacialAge/BNav_EC2/DepthDuration/v2_depth_duration_MTurk/v2_DepthDuration_HTML.html#1,1,1366,625,1366,768,8-29-2022,10-18-52,162,depth_duration_stimuli/000734_2014-06-08_17-39-11_260595134347_rgbf000128-resize_2/000734_2014-06-08_17-39-11_260595134347_rgbf000128-resize_2-target.png,250,4.098,1,3135,238,meters,jsons/v1_VE250_randls_59.json,1818158,1937216,32,Man
162,441122,DepthScenes,duration_manipulation_targetAtFixation,jsons/v1_VE250_randls_59.json,http://54.235.29.9/FacialAge/BNav_EC2/DepthDuration/v2_depth_duration_MTurk/v2_DepthDuration_HTML.html#1,1,1366,625,1366,768,8-29-2022,10-18-52,163,depth_duration_stimuli/001055_2014-06-08_18-45-35_260595134347_rgbf000111-resize_4/001055_2014-06-08_18-45-35_260595134347_rgbf000111-resize_4-target.png,250,2.4290000000000003,1,4009,250,meters,jsons/v1_VE250_randls_59.json,1818158,1937216,32,Man
163,441122,DepthScenes,duration_manipulation_targetAtFixation,jsons/v1_VE250_randls_59.json,http://54.235.29.9/FacialAge/BNav_EC2/DepthDuration/v2_depth_duration_MTurk/v2_DepthDuration_HTML.html#1,1,1366,625,1366,768,8-29-2022,10-18-52,164,depth_duration_stimuli/000549_2014-06-08_22-10-24_260595134347_rgbf000247-resize_3/000549_2014-06-08_22-10-24_260595134347_rgbf000247-resize_3-target.png,250,1.841,2,4722,258,meters,jsons/v1_VE250_randls_59.json,1818158,1937216,32,Man
