,subjID,experimentName,versionName,sequenceName,url,selected_row,windowWidth,windowHeight,screenWidth,screenHeight,startDate,startTime,trial,stimulus,duration,actual_depth,depth_estimate,trial_RT,log_sceneDuration,unitSelection,seq_filepath,experimentTime,totalTime,age,gender
0,442083,DepthScenes,duration_manipulation_targetAtFixation,jsons/v1_VE250_randls_9.json,http://54.235.29.9/FacialAge/BNav_EC2/DepthDuration/v2_depth_duration_MTurk/v2_DepthDuration_HTML.html#23,23,1440,789,1440,900,8-20-2022,11-14-32,1,depth_duration_stimuli/000470_2014-06-09_19-42-40_260595134347_rgbf000094-resize_1/000470_2014-06-09_19-42-40_260595134347_rgbf000094-resize_1-target.png,250,1.831,1,2851,250,feet,jsons/v1_VE250_randls_9.json,614225,1605621,35,Man
1,442083,DepthScenes,duration_manipulation_targetAtFixation,jsons/v1_VE250_randls_9.json,http://54.235.29.9/FacialAge/BNav_EC2/DepthDuration/v2_depth_duration_MTurk/v2_DepthDuration_HTML.html#23,23,1440,789,1440,900,8-20-2022,11-14-32,2,depth_duration_stimuli/000109_2014-05-14_23-41-52_260595134347_rgbf000035-resize_9/000109_2014-05-14_23-41-52_260595134347_rgbf000035-resize_9-target.png,250,1.3545,1,2426,251,feet,jsons/v1_VE250_randls_9.json,614225,1605621,35,Man
2,442083,DepthScenes,duration_manipulation_targetAtFixation,jsons/v1_VE250_randls_9.json,http://54.235.29.9/FacialAge/BNav_EC2/DepthDuration/v2_depth_duration_MTurk/v2_DepthDuration_HTML.html#23,23,1440,789,1440,900,8-20-2022,11-14-32,3,depth_duration_stimuli/000758_2014-06-08_22-05-08_260595134347_rgbf000085-resize_0/000758_2014-06-08_22-05-08_260595134347_rgbf000085-resize_0-target.png,250,3.3810000000000002,1,2560,259,feet,jsons/v1_VE250_randls_9.json,614225,1605621,35,Man
3,442083,DepthScenes,duration_manipulation_targetAtFixation,jsons/v1_VE250_randls_9.json,http://54.235.29.9/FacialAge/BNav_EC2/DepthDuration/v2_depth_duration_MTurk/v2_DepthDuration_HTML.html#23,23,1440,789,1440,900,8-20-2022,11-14-32,4,depth_duration_stimuli/000854_2014-06-09_19-43-13_260595134347_rgbf000066-resize_0/000854_2014-06-09_19-43-13_260595134347_rgbf000066-resize_0-target.png,250,3.068,1,2121,259,feet,jsons/v1_VE250_randls_9.json,614225,1605621,35,Man
4,442083,DepthScenes,duration_manipulation_targetAtFixation,jsons/v1_VE250_randls_9.json,http://54.235.29.9/FacialAge/BNav_EC2/DepthDuration/v2_depth_duration_MTurk/v2_DepthDuration_HTML.html#23,23,1440,789,1440,900,8-20-2022,11-14-32,5,depth_duration_stimuli/002905_2014-06-03_18-04-43_094959634447_rgbf000151-resize_2/002905_2014-06-03_18-04-43_094959634447_rgbf000151-resize_2-target.png,250,2.0295,1,2179,255,feet,jsons/v1_VE250_randls_9.json,614225,1605621,35,Man
5,442083,DepthScenes,duration_manipulation_targetAtFixation,jsons/v1_VE250_randls_9.json,http://54.235.29.9/FacialAge/BNav_EC2/DepthDuration/v2_depth_duration_MTurk/v2_DepthDuration_HTML.html#23,23,1440,789,1440,900,8-20-2022,11-14-32,6,depth_duration_stimuli/003423_2014-05-21_10-23-26_094959634447_rgbf002665-resize_2/003423_2014-05-21_10-23-26_094959634447_rgbf002665-resize_2-target.png,250,3.2575,1,2203,253,feet,jsons/v1_VE250_randls_9.json,614225,1605621,35,Man
6,442083,DepthScenes,duration_manipulation_targetAtFixation,jsons/v1_VE250_randls_9.json,http://54.235.29.9/FacialAge/BNav_EC2/DepthDuration/v2_depth_duration_MTurk/v2_DepthDuration_HTML.html#23,23,1440,789,1440,900,8-20-2022,11-14-32,7,depth_duration_stimuli/002118_2014-06-25_20-32-08_260595134347_rgbf000078-resize_1/002118_2014-06-25_20-32-08_260595134347_rgbf000078-resize_1-target.png,250,2.6460000000000004,1,2509,250,feet,jsons/v1_VE250_randls_9.json,614225,1605621,35,Man
7,442083,DepthScenes,duration_manipulation_targetAtFixation,jsons/v1_VE250_randls_9.json,http://54.235.29.9/FacialAge/BNav_EC2/DepthDuration/v2_depth_duration_MTurk/v2_DepthDuration_HTML.html#23,23,1440,789,1440,900,8-20-2022,11-14-32,8,depth_duration_stimuli/001516_2014-06-20_16-25-09_260595134347_rgbf000076-resize_2/001516_2014-06-20_16-25-09_260595134347_rgbf000076-resize_2-target.png,250,1.7445,1,2265,249,feet,jsons/v1_VE250_randls_9.json,614225,1605621,35,Man
8,442083,DepthScenes,duration_manipulation_targetAtFixation,jsons/v1_VE250_randls_9.json,http://54.235.29.9/FacialAge/BNav_EC2/DepthDuration/v2_depth_duration_MTurk/v2_DepthDuration_HTML.html#23,23,1440,789,1440,900,8-20-2022,11-14-32,9,depth_duration_stimuli/002549_2014-06-24_13-41-39_094959634447_rgbf000022-resize_3/002549_2014-06-24_13-41-39_094959634447_rgbf000022-resize_3-target.png,250,1.476,1,1979,251,feet,jsons/v1_VE250_randls_9.json,614225,1605621,35,Man
9,442083,DepthScenes,duration_manipulation_targetAtFixation,jsons/v1_VE250_randls_9.json,http://54.235.29.9/FacialAge/BNav_EC2/DepthDuration/v2_depth_duration_MTurk/v2_DepthDuration_HTML.html#23,23,1440,789,1440,900,8-20-2022,11-14-32,10,depth_duration_stimuli/002750_2014-06-22_19-08-03_094959634447_rgbf000094-resize_4/002750_2014-06-22_19-08-03_094959634447_rgbf000094-resize_4-target.png,250,2.354,1,1994,251,feet,jsons/v1_VE250_randls_9.json,614225,1605621,35,Man
10,442083,DepthScenes,duration_manipulation_targetAtFixation,jsons/v1_VE250_randls_9.json,http://54.235.29.9/FacialAge/BNav_EC2/DepthDuration/v2_depth_duration_MTurk/v2_DepthDuration_HTML.html#23,23,1440,789,1440,900,8-20-2022,11-14-32,11,depth_duration_stimuli/000469_2014-06-09_19-42-10_260595134347_rgbf000081-resize_1/000469_2014-06-09_19-42-10_260595134347_rgbf000081-resize_1-target.png,250,1.652,1,2089,248,feet,jsons/v1_VE250_randls_9.json,614225,1605621,35,Man
11,442083,DepthScenes,duration_manipulation_targetAtFixation,jsons/v1_VE250_randls_9.json,http://54.235.29.9/FacialAge/BNav_EC2/DepthDuration/v2_depth_duration_MTurk/v2_DepthDuration_HTML.html#23,23,1440,789,1440,900,8-20-2022,11-14-32,12,depth_duration_stimuli/000483_2014-06-09_20-41-45_260595134347_rgbf000116-resize_4/000483_2014-06-09_20-41-45_260595134347_rgbf000116-resize_4-target.png,250,1.337,1,2667,250,feet,jsons/v1_VE250_randls_9.json,614225,1605621,35,Man
12,442083,DepthScenes,duration_manipulation_targetAtFixation,jsons/v1_VE250_randls_9.json,http://54.235.29.9/FacialAge/BNav_EC2/DepthDuration/v2_depth_duration_MTurk/v2_DepthDuration_HTML.html#23,23,1440,789,1440,900,8-20-2022,11-14-32,13,depth_duration_stimuli/000569_2014-06-09_22-51-47_260595134347_rgbf000141-resize_3/000569_2014-06-09_22-51-47_260595134347_rgbf000141-resize-original.jpg,250,4.512,1,2505,249,feet,jsons/v1_VE250_randls_9.json,614225,1605621,35,Man
13,442083,DepthScenes,duration_manipulation_targetAtFixation,jsons/v1_VE250_randls_9.json,http://54.235.29.9/FacialAge/BNav_EC2/DepthDuration/v2_depth_duration_MTurk/v2_DepthDuration_HTML.html#23,23,1440,789,1440,900,8-20-2022,11-14-32,14,depth_duration_stimuli/002663_2014-06-13_15-50-26_094959634447_rgbf000075-resize_1/002663_2014-06-13_15-50-26_094959634447_rgbf000075-resize_1-target.png,250,4.7495,1,2755,254,feet,jsons/v1_VE250_randls_9.json,614225,1605621,35,Man
14,442083,DepthScenes,duration_manipulation_targetAtFixation,jsons/v1_VE250_randls_9.json,http://54.235.29.9/FacialAge/BNav_EC2/DepthDuration/v2_depth_duration_MTurk/v2_DepthDuration_HTML.html#23,23,1440,789,1440,900,8-20-2022,11-14-32,15,depth_duration_stimuli/000409_2014-06-04_19-23-33_260595134347_rgbf000067-resize_0/000409_2014-06-04_19-23-33_260595134347_rgbf000067-resize_0-target.png,250,3.7335,0,2585,249,feet,jsons/v1_VE250_randls_9.json,614225,1605621,35,Man
15,442083,DepthScenes,duration_manipulation_targetAtFixation,jsons/v1_VE250_randls_9.json,http://54.235.29.9/FacialAge/BNav_EC2/DepthDuration/v2_depth_duration_MTurk/v2_DepthDuration_HTML.html#23,23,1440,789,1440,900,8-20-2022,11-14-32,16,depth_duration_stimuli/002964_2014-06-08_17-46-11_094959634447_rgbf000091-resize_4/002964_2014-06-08_17-46-11_094959634447_rgbf000091-resize_4-target.png,250,1.6909999999999998,1,2523,250,feet,jsons/v1_VE250_randls_9.json,614225,1605621,35,Man
16,442083,DepthScenes,duration_manipulation_targetAtFixation,jsons/v1_VE250_randls_9.json,http://54.235.29.9/FacialAge/BNav_EC2/DepthDuration/v2_depth_duration_MTurk/v2_DepthDuration_HTML.html#23,23,1440,789,1440,900,8-20-2022,11-14-32,17,depth_duration_stimuli/002136_2014-06-25_21-18-03_260595134347_rgbf000109-resize_3/002136_2014-06-25_21-18-03_260595134347_rgbf000109-resize_3-target.png,250,1.9569999999999999,1,2116,250,feet,jsons/v1_VE250_randls_9.json,614225,1605621,35,Man
17,442083,DepthScenes,duration_manipulation_targetAtFixation,jsons/v1_VE250_randls_9.json,http://54.235.29.9/FacialAge/BNav_EC2/DepthDuration/v2_depth_duration_MTurk/v2_DepthDuration_HTML.html#23,23,1440,789,1440,900,8-20-2022,11-14-32,18,depth_duration_stimuli/002763_2014-06-22_19-13-10_094959634447_rgbf000075-resize_4/002763_2014-06-22_19-13-10_094959634447_rgbf000075-resize_4-target.png,250,1.68375,1,2217,250,feet,jsons/v1_VE250_randls_9.json,614225,1605621,35,Man
18,442083,DepthScenes,duration_manipulation_targetAtFixation,jsons/v1_VE250_randls_9.json,http://54.235.29.9/FacialAge/BNav_EC2/DepthDuration/v2_depth_duration_MTurk/v2_DepthDuration_HTML.html#23,23,1440,789,1440,900,8-20-2022,11-14-32,19,depth_duration_stimuli/002209_2014-06-28_18-36-10_260595134347_rgbf000051-resize_1/002209_2014-06-28_18-36-10_260595134347_rgbf000051-resize_1-target.png,250,2.057,1,2212,250,feet,jsons/v1_VE250_randls_9.json,614225,1605621,35,Man
19,442083,DepthScenes,duration_manipulation_targetAtFixation,jsons/v1_VE250_randls_9.json,http://54.235.29.9/FacialAge/BNav_EC2/DepthDuration/v2_depth_duration_MTurk/v2_DepthDuration_HTML.html#23,23,1440,789,1440,900,8-20-2022,11-14-32,20,depth_duration_stimuli/003534_2014-05-22_15-06-10_094959634447_rgbf000102-resize_4/003534_2014-05-22_15-06-10_094959634447_rgbf000102-resize_4-target.png,250,1.426,1,2210,249,feet,jsons/v1_VE250_randls_9.json,614225,1605621,35,Man
20,442083,DepthScenes,duration_manipulation_targetAtFixation,jsons/v1_VE250_randls_9.json,http://54.235.29.9/FacialAge/BNav_EC2/DepthDuration/v2_depth_duration_MTurk/v2_DepthDuration_HTML.html#23,23,1440,789,1440,900,8-20-2022,11-14-32,21,depth_duration_stimuli/002637_2014-06-24_14-51-13_094959634447_rgbf000066-resize_4/002637_2014-06-24_14-51-13_094959634447_rgbf000066-resize_4-target.png,250,1.9955,1,20802,250,feet,jsons/v1_VE250_randls_9.json,614225,1605621,35,Man
21,442083,DepthScenes,duration_manipulation_targetAtFixation,jsons/v1_VE250_randls_9.json,http://54.235.29.9/FacialAge/BNav_EC2/DepthDuration/v2_depth_duration_MTurk/v2_DepthDuration_HTML.html#23,23,1440,789,1440,900,8-20-2022,11-14-32,22,depth_duration_stimuli/001167_2014-06-17_15-38-07_260595134347_rgbf000108-resize_0/001167_2014-06-17_15-38-07_260595134347_rgbf000108-resize_0-target.png,250,1.8505,1,2027,251,feet,jsons/v1_VE250_randls_9.json,614225,1605621,35,Man
22,442083,DepthScenes,duration_manipulation_targetAtFixation,jsons/v1_VE250_randls_9.json,http://54.235.29.9/FacialAge/BNav_EC2/DepthDuration/v2_depth_duration_MTurk/v2_DepthDuration_HTML.html#23,23,1440,789,1440,900,8-20-2022,11-14-32,23,depth_duration_stimuli/003587_2014-05-23_16-48-02_094959634447_rgbf002384-resize_2/003587_2014-05-23_16-48-02_094959634447_rgbf002384-resize_2-target.png,250,1.357,1,4682,250,feet,jsons/v1_VE250_randls_9.json,614225,1605621,35,Man
23,442083,DepthScenes,duration_manipulation_targetAtFixation,jsons/v1_VE250_randls_9.json,http://54.235.29.9/FacialAge/BNav_EC2/DepthDuration/v2_depth_duration_MTurk/v2_DepthDuration_HTML.html#23,23,1440,789,1440,900,8-20-2022,11-14-32,24,depth_duration_stimuli/000878_2014-06-08_22-52-45_260595134347_rgbf000045-resize_2/000878_2014-06-08_22-52-45_260595134347_rgbf000045-resize_2-target.png,250,2.092,0,2707,251,feet,jsons/v1_VE250_randls_9.json,614225,1605621,35,Man
24,442083,DepthScenes,duration_manipulation_targetAtFixation,jsons/v1_VE250_randls_9.json,http://54.235.29.9/FacialAge/BNav_EC2/DepthDuration/v2_depth_duration_MTurk/v2_DepthDuration_HTML.html#23,23,1440,789,1440,900,8-20-2022,11-14-32,25,depth_duration_stimuli/002953_2014-06-08_17-32-18_094959634447_rgbf000059-resize_5/002953_2014-06-08_17-32-18_094959634447_rgbf000059-resize_5-target.png,250,1.551,1,2058,251,feet,jsons/v1_VE250_randls_9.json,614225,1605621,35,Man
25,442083,DepthScenes,duration_manipulation_targetAtFixation,jsons/v1_VE250_randls_9.json,http://54.235.29.9/FacialAge/BNav_EC2/DepthDuration/v2_depth_duration_MTurk/v2_DepthDuration_HTML.html#23,23,1440,789,1440,900,8-20-2022,11-14-32,26,depth_duration_stimuli/001417_2014-06-19_16-25-36_260595134347_rgbf000115-resize_5/001417_2014-06-19_16-25-36_260595134347_rgbf000115-resize_5-target.png,250,4.6255,1,1946,249,feet,jsons/v1_VE250_randls_9.json,614225,1605621,35,Man
26,442083,DepthScenes,duration_manipulation_targetAtFixation,jsons/v1_VE250_randls_9.json,http://54.235.29.9/FacialAge/BNav_EC2/DepthDuration/v2_depth_duration_MTurk/v2_DepthDuration_HTML.html#23,23,1440,789,1440,900,8-20-2022,11-14-32,27,depth_duration_stimuli/003081_2014-06-15_15-19-16_094959634447_rgbf000150-resize_1/003081_2014-06-15_15-19-16_094959634447_rgbf000150-resize_1-target.png,250,3.9125,1,2051,250,feet,jsons/v1_VE250_randls_9.json,614225,1605621,35,Man
27,442083,DepthScenes,duration_manipulation_targetAtFixation,jsons/v1_VE250_randls_9.json,http://54.235.29.9/FacialAge/BNav_EC2/DepthDuration/v2_depth_duration_MTurk/v2_DepthDuration_HTML.html#23,23,1440,789,1440,900,8-20-2022,11-14-32,28,depth_duration_stimuli/001092_2014-06-15_17-34-58_260595134347_rgbf000171-resize_3/001092_2014-06-15_17-34-58_260595134347_rgbf000171-resize_3-target.png,250,2.6935,1,4383,247,feet,jsons/v1_VE250_randls_9.json,614225,1605621,35,Man
28,442083,DepthScenes,duration_manipulation_targetAtFixation,jsons/v1_VE250_randls_9.json,http://54.235.29.9/FacialAge/BNav_EC2/DepthDuration/v2_depth_duration_MTurk/v2_DepthDuration_HTML.html#23,23,1440,789,1440,900,8-20-2022,11-14-32,29,depth_duration_stimuli/002545_2014-06-24_13-38-53_094959634447_rgbf000080-resize_4/002545_2014-06-24_13-38-53_094959634447_rgbf000080-resize_4-target.png,250,1.9205,1,2281,250,feet,jsons/v1_VE250_randls_9.json,614225,1605621,35,Man
29,442083,DepthScenes,duration_manipulation_targetAtFixation,jsons/v1_VE250_randls_9.json,http://54.235.29.9/FacialAge/BNav_EC2/DepthDuration/v2_depth_duration_MTurk/v2_DepthDuration_HTML.html#23,23,1440,789,1440,900,8-20-2022,11-14-32,30,depth_duration_stimuli/000375_2014-06-08_11-17-29_260595134347_rgbf000133-resize_2/000375_2014-06-08_11-17-29_260595134347_rgbf000133-resize-original.jpg,250,4.718,1,2546,251,feet,jsons/v1_VE250_randls_9.json,614225,1605621,35,Man
30,442083,DepthScenes,duration_manipulation_targetAtFixation,jsons/v1_VE250_randls_9.json,http://54.235.29.9/FacialAge/BNav_EC2/DepthDuration/v2_depth_duration_MTurk/v2_DepthDuration_HTML.html#23,23,1440,789,1440,900,8-20-2022,11-14-32,31,depth_duration_stimuli/003070_2014-06-15_14-58-27_094959634447_rgbf000150-resize_3/003070_2014-06-15_14-58-27_094959634447_rgbf000150-resize_3-target.png,250,2.9415,1,3188,251,feet,jsons/v1_VE250_randls_9.json,614225,1605621,35,Man
31,442083,DepthScenes,duration_manipulation_targetAtFixation,jsons/v1_VE250_randls_9.json,http://54.235.29.9/FacialAge/BNav_EC2/DepthDuration/v2_depth_duration_MTurk/v2_DepthDuration_HTML.html#23,23,1440,789,1440,900,8-20-2022,11-14-32,32,depth_duration_stimuli/000943_2014-06-09_19-31-07_260595134347_rgbf000128-resize_1/000943_2014-06-09_19-31-07_260595134347_rgbf000128-resize_1-target.png,250,1.9765,1,2866,251,feet,jsons/v1_VE250_randls_9.json,614225,1605621,35,Man
32,442083,DepthScenes,duration_manipulation_targetAtFixation,jsons/v1_VE250_randls_9.json,http://54.235.29.9/FacialAge/BNav_EC2/DepthDuration/v2_depth_duration_MTurk/v2_DepthDuration_HTML.html#23,23,1440,789,1440,900,8-20-2022,11-14-32,33,depth_duration_stimuli/001110_2014-06-15_17-25-28_260595134347_rgbf000150-resize_1/001110_2014-06-15_17-25-28_260595134347_rgbf000150-resize_1-target.png,250,1.7115,1,2091,251,feet,jsons/v1_VE250_randls_9.json,614225,1605621,35,Man
33,442083,DepthScenes,duration_manipulation_targetAtFixation,jsons/v1_VE250_randls_9.json,http://54.235.29.9/FacialAge/BNav_EC2/DepthDuration/v2_depth_duration_MTurk/v2_DepthDuration_HTML.html#23,23,1440,789,1440,900,8-20-2022,11-14-32,34,depth_duration_stimuli/000927_2014-06-09_16-32-30_260595134347_rgbf000123-resize_3/000927_2014-06-09_16-32-30_260595134347_rgbf000123-resize_3-target.png,250,2.6785,1,2603,250,feet,jsons/v1_VE250_randls_9.json,614225,1605621,35,Man
34,442083,DepthScenes,duration_manipulation_targetAtFixation,jsons/v1_VE250_randls_9.json,http://54.235.29.9/FacialAge/BNav_EC2/DepthDuration/v2_depth_duration_MTurk/v2_DepthDuration_HTML.html#23,23,1440,789,1440,900,8-20-2022,11-14-32,35,depth_duration_stimuli/001244_2014-06-17_16-47-45_260595134347_rgbf000030-resize_4/001244_2014-06-17_16-47-45_260595134347_rgbf000030-resize_4-target.png,250,2.0425,1,3059,257,feet,jsons/v1_VE250_randls_9.json,614225,1605621,35,Man
35,442083,DepthScenes,duration_manipulation_targetAtFixation,jsons/v1_VE250_randls_9.json,http://54.235.29.9/FacialAge/BNav_EC2/DepthDuration/v2_depth_duration_MTurk/v2_DepthDuration_HTML.html#23,23,1440,789,1440,900,8-20-2022,11-14-32,36,depth_duration_stimuli/003495_2014-05-21_16-01-51_094959634447_rgbf000100-resize_3/003495_2014-05-21_16-01-51_094959634447_rgbf000100-resize_3-target.png,250,1.6255,1,3370,250,feet,jsons/v1_VE250_randls_9.json,614225,1605621,35,Man
36,442083,DepthScenes,duration_manipulation_targetAtFixation,jsons/v1_VE250_randls_9.json,http://54.235.29.9/FacialAge/BNav_EC2/DepthDuration/v2_depth_duration_MTurk/v2_DepthDuration_HTML.html#23,23,1440,789,1440,900,8-20-2022,11-14-32,37,depth_duration_stimuli/002039_2014-06-24_20-22-38_260595134347_rgbf000084-resize_1/002039_2014-06-24_20-22-38_260595134347_rgbf000084-resize_1-target.png,250,4.408,1,2755,250,feet,jsons/v1_VE250_randls_9.json,614225,1605621,35,Man
37,442083,DepthScenes,duration_manipulation_targetAtFixation,jsons/v1_VE250_randls_9.json,http://54.235.29.9/FacialAge/BNav_EC2/DepthDuration/v2_depth_duration_MTurk/v2_DepthDuration_HTML.html#23,23,1440,789,1440,900,8-20-2022,11-14-32,38,depth_duration_stimuli/002103_2014-06-25_20-00-40_260595134347_rgbf000049-resize_0/002103_2014-06-25_20-00-40_260595134347_rgbf000049-resize_0-target.png,250,4.105,1,14366,245,feet,jsons/v1_VE250_randls_9.json,614225,1605621,35,Man
38,442083,DepthScenes,duration_manipulation_targetAtFixation,jsons/v1_VE250_randls_9.json,http://54.235.29.9/FacialAge/BNav_EC2/DepthDuration/v2_depth_duration_MTurk/v2_DepthDuration_HTML.html#23,23,1440,789,1440,900,8-20-2022,11-14-32,39,depth_duration_stimuli/001133_2014-06-17_14-49-16_260595134347_rgbf000100-resize_0/001133_2014-06-17_14-49-16_260595134347_rgbf000100-resize_0-target.png,250,4.2115,1,2521,249,feet,jsons/v1_VE250_randls_9.json,614225,1605621,35,Man
39,442083,DepthScenes,duration_manipulation_targetAtFixation,jsons/v1_VE250_randls_9.json,http://54.235.29.9/FacialAge/BNav_EC2/DepthDuration/v2_depth_duration_MTurk/v2_DepthDuration_HTML.html#23,23,1440,789,1440,900,8-20-2022,11-14-32,40,depth_duration_stimuli/001132_2014-06-17_14-48-54_260595134347_rgbf000100-resize_2/001132_2014-06-17_14-48-54_260595134347_rgbf000100-resize_2-target.png,250,3.753,1,2259,251,feet,jsons/v1_VE250_randls_9.json,614225,1605621,35,Man
40,442083,DepthScenes,duration_manipulation_targetAtFixation,jsons/v1_VE250_randls_9.json,http://54.235.29.9/FacialAge/BNav_EC2/DepthDuration/v2_depth_duration_MTurk/v2_DepthDuration_HTML.html#23,23,1440,789,1440,900,8-20-2022,11-14-32,41,depth_duration_stimuli/003621_2014-05-23_18-06-08_094959634447_rgbf000101-resize_1/003621_2014-05-23_18-06-08_094959634447_rgbf000101-resize_1-target.png,250,3.9835,1,3082,251,feet,jsons/v1_VE250_randls_9.json,614225,1605621,35,Man
41,442083,DepthScenes,duration_manipulation_targetAtFixation,jsons/v1_VE250_randls_9.json,http://54.235.29.9/FacialAge/BNav_EC2/DepthDuration/v2_depth_duration_MTurk/v2_DepthDuration_HTML.html#23,23,1440,789,1440,900,8-20-2022,11-14-32,42,depth_duration_stimuli/001584_2014-06-20_11-07-43_260595134347_rgbf000002-resize_1/001584_2014-06-20_11-07-43_260595134347_rgbf000002-resize_1-target.png,250,3.53,1,2274,250,feet,jsons/v1_VE250_randls_9.json,614225,1605621,35,Man
42,442083,DepthScenes,duration_manipulation_targetAtFixation,jsons/v1_VE250_randls_9.json,http://54.235.29.9/FacialAge/BNav_EC2/DepthDuration/v2_depth_duration_MTurk/v2_DepthDuration_HTML.html#23,23,1440,789,1440,900,8-20-2022,11-14-32,43,depth_duration_stimuli/001808_2014-06-26_20-50-58_260595134347_rgbf000029-resize_1/001808_2014-06-26_20-50-58_260595134347_rgbf000029-resize_1-target.png,250,4.249,1,2308,250,feet,jsons/v1_VE250_randls_9.json,614225,1605621,35,Man
43,442083,DepthScenes,duration_manipulation_targetAtFixation,jsons/v1_VE250_randls_9.json,http://54.235.29.9/FacialAge/BNav_EC2/DepthDuration/v2_depth_duration_MTurk/v2_DepthDuration_HTML.html#23,23,1440,789,1440,900,8-20-2022,11-14-32,44,depth_duration_stimuli/001815_2014-06-26_20-52-55_260595134347_rgbf000020-resize_0/001815_2014-06-26_20-52-55_260595134347_rgbf000020-resize_0-target.png,250,3.3865,1,2331,250,feet,jsons/v1_VE250_randls_9.json,614225,1605621,35,Man
44,442083,DepthScenes,duration_manipulation_targetAtFixation,jsons/v1_VE250_randls_9.json,http://54.235.29.9/FacialAge/BNav_EC2/DepthDuration/v2_depth_duration_MTurk/v2_DepthDuration_HTML.html#23,23,1440,789,1440,900,8-20-2022,11-14-32,45,depth_duration_stimuli/000787_2014-06-08_22-33-53_260595134347_rgbf000175-resize_1/000787_2014-06-08_22-33-53_260595134347_rgbf000175-resize-original.jpg,250,4.784,0,2091,250,feet,jsons/v1_VE250_randls_9.json,614225,1605621,35,Man
45,442083,DepthScenes,duration_manipulation_targetAtFixation,jsons/v1_VE250_randls_9.json,http://54.235.29.9/FacialAge/BNav_EC2/DepthDuration/v2_depth_duration_MTurk/v2_DepthDuration_HTML.html#23,23,1440,789,1440,900,8-20-2022,11-14-32,46,depth_duration_stimuli/001199_2014-06-17_16-03-48_260595134347_rgbf000077-resize_0/001199_2014-06-17_16-03-48_260595134347_rgbf000077-resize_0-target.png,250,3.4375,1,2090,250,feet,jsons/v1_VE250_randls_9.json,614225,1605621,35,Man
46,442083,DepthScenes,duration_manipulation_targetAtFixation,jsons/v1_VE250_randls_9.json,http://54.235.29.9/FacialAge/BNav_EC2/DepthDuration/v2_depth_duration_MTurk/v2_DepthDuration_HTML.html#23,23,1440,789,1440,900,8-20-2022,11-14-32,47,depth_duration_stimuli/000502_2014-06-08_23-02-32_260595134347_rgbf000063-resize_4/000502_2014-06-08_23-02-32_260595134347_rgbf000063-resize_4-target.png,250,2.431,0,2538,250,feet,jsons/v1_VE250_randls_9.json,614225,1605621,35,Man
47,442083,DepthScenes,duration_manipulation_targetAtFixation,jsons/v1_VE250_randls_9.json,http://54.235.29.9/FacialAge/BNav_EC2/DepthDuration/v2_depth_duration_MTurk/v2_DepthDuration_HTML.html#23,23,1440,789,1440,900,8-20-2022,11-14-32,48,depth_duration_stimuli/000788_2014-06-08_22-34-36_260595134347_rgbf000131-resize_1/000788_2014-06-08_22-34-36_260595134347_rgbf000131-resize_1-target.png,250,3.359,1,2857,250,feet,jsons/v1_VE250_randls_9.json,614225,1605621,35,Man
48,442083,DepthScenes,duration_manipulation_targetAtFixation,jsons/v1_VE250_randls_9.json,http://54.235.29.9/FacialAge/BNav_EC2/DepthDuration/v2_depth_duration_MTurk/v2_DepthDuration_HTML.html#23,23,1440,789,1440,900,8-20-2022,11-14-32,49,depth_duration_stimuli/001235_2014-06-17_16-37-36_260595134347_rgbf000084-resize_4/001235_2014-06-17_16-37-36_260595134347_rgbf000084-resize_4-target.png,250,3.6605,1,2072,256,feet,jsons/v1_VE250_randls_9.json,614225,1605621,35,Man
49,442083,DepthScenes,duration_manipulation_targetAtFixation,jsons/v1_VE250_randls_9.json,http://54.235.29.9/FacialAge/BNav_EC2/DepthDuration/v2_depth_duration_MTurk/v2_DepthDuration_HTML.html#23,23,1440,789,1440,900,8-20-2022,11-14-32,50,depth_duration_stimuli/000493_2014-06-09_21-01-18_260595134347_rgbf000196-resize_3/000493_2014-06-09_21-01-18_260595134347_rgbf000196-resize_3-target.png,250,3.44,1,2970,250,feet,jsons/v1_VE250_randls_9.json,614225,1605621,35,Man
50,442083,DepthScenes,duration_manipulation_targetAtFixation,jsons/v1_VE250_randls_9.json,http://54.235.29.9/FacialAge/BNav_EC2/DepthDuration/v2_depth_duration_MTurk/v2_DepthDuration_HTML.html#23,23,1440,789,1440,900,8-20-2022,11-14-32,51,depth_duration_stimuli/000191_2014-05-12_17-07-38_260595134347_rgbf000199-resize_0/000191_2014-05-12_17-07-38_260595134347_rgbf000199-resize_0-target.png,250,3.7995,1,2187,250,feet,jsons/v1_VE250_randls_9.json,614225,1605621,35,Man
51,442083,DepthScenes,duration_manipulation_targetAtFixation,jsons/v1_VE250_randls_9.json,http://54.235.29.9/FacialAge/BNav_EC2/DepthDuration/v2_depth_duration_MTurk/v2_DepthDuration_HTML.html#23,23,1440,789,1440,900,8-20-2022,11-14-32,52,depth_duration_stimuli/002748_2014-06-22_19-07-22_094959634447_rgbf000078-resize_1/002748_2014-06-22_19-07-22_094959634447_rgbf000078-resize_1-target.png,250,4.6705,1,14426,250,feet,jsons/v1_VE250_randls_9.json,614225,1605621,35,Man
52,442083,DepthScenes,duration_manipulation_targetAtFixation,jsons/v1_VE250_randls_9.json,http://54.235.29.9/FacialAge/BNav_EC2/DepthDuration/v2_depth_duration_MTurk/v2_DepthDuration_HTML.html#23,23,1440,789,1440,900,8-20-2022,11-14-32,53,depth_duration_stimuli/002995_2014-06-15_12-31-26_094959634447_rgbf000150-resize_1/002995_2014-06-15_12-31-26_094959634447_rgbf000150-resize_1-target.png,250,3.8360000000000003,1,2634,251,feet,jsons/v1_VE250_randls_9.json,614225,1605621,35,Man
53,442083,DepthScenes,duration_manipulation_targetAtFixation,jsons/v1_VE250_randls_9.json,http://54.235.29.9/FacialAge/BNav_EC2/DepthDuration/v2_depth_duration_MTurk/v2_DepthDuration_HTML.html#23,23,1440,789,1440,900,8-20-2022,11-14-32,54,depth_duration_stimuli/001059_2014-06-08_21-53-27_260595134347_rgbf000061-resize_4/001059_2014-06-08_21-53-27_260595134347_rgbf000061-resize_4-target.png,250,2.4185,1,4227,251,feet,jsons/v1_VE250_randls_9.json,614225,1605621,35,Man
54,442083,DepthScenes,duration_manipulation_targetAtFixation,jsons/v1_VE250_randls_9.json,http://54.235.29.9/FacialAge/BNav_EC2/DepthDuration/v2_depth_duration_MTurk/v2_DepthDuration_HTML.html#23,23,1440,789,1440,900,8-20-2022,11-14-32,55,depth_duration_stimuli/001032_2014-06-08_13-23-17_260595134347_rgbf000021-resize_3/001032_2014-06-08_13-23-17_260595134347_rgbf000021-resize_3-target.png,250,3.2725,1,2123,250,feet,jsons/v1_VE250_randls_9.json,614225,1605621,35,Man
55,442083,DepthScenes,duration_manipulation_targetAtFixation,jsons/v1_VE250_randls_9.json,http://54.235.29.9/FacialAge/BNav_EC2/DepthDuration/v2_depth_duration_MTurk/v2_DepthDuration_HTML.html#23,23,1440,789,1440,900,8-20-2022,11-14-32,56,depth_duration_stimuli/002600_2014-06-24_14-27-04_094959634447_rgbf000074-resize_2/002600_2014-06-24_14-27-04_094959634447_rgbf000074-resize_2-target.png,250,2.7575,1,2066,251,feet,jsons/v1_VE250_randls_9.json,614225,1605621,35,Man
56,442083,DepthScenes,duration_manipulation_targetAtFixation,jsons/v1_VE250_randls_9.json,http://54.235.29.9/FacialAge/BNav_EC2/DepthDuration/v2_depth_duration_MTurk/v2_DepthDuration_HTML.html#23,23,1440,789,1440,900,8-20-2022,11-14-32,57,depth_duration_stimuli/003228_2014-05-14_13-42-35_094959634447_rgbf000101-resize_1/003228_2014-05-14_13-42-35_094959634447_rgbf000101-resize_1-target.png,250,1.9680000000000002,1,1950,245,feet,jsons/v1_VE250_randls_9.json,614225,1605621,35,Man
57,442083,DepthScenes,duration_manipulation_targetAtFixation,jsons/v1_VE250_randls_9.json,http://54.235.29.9/FacialAge/BNav_EC2/DepthDuration/v2_depth_duration_MTurk/v2_DepthDuration_HTML.html#23,23,1440,789,1440,900,8-20-2022,11-14-32,58,depth_duration_stimuli/001150_2014-06-17_15-27-34_260595134347_rgbf000108-resize_2/001150_2014-06-17_15-27-34_260595134347_rgbf000108-resize_2-target.png,250,4.0325,1,2163,249,feet,jsons/v1_VE250_randls_9.json,614225,1605621,35,Man
58,442083,DepthScenes,duration_manipulation_targetAtFixation,jsons/v1_VE250_randls_9.json,http://54.235.29.9/FacialAge/BNav_EC2/DepthDuration/v2_depth_duration_MTurk/v2_DepthDuration_HTML.html#23,23,1440,789,1440,900,8-20-2022,11-14-32,59,depth_duration_stimuli/000665_2014-06-09_20-42-35_260595134347_rgbf000110-resize_1/000665_2014-06-09_20-42-35_260595134347_rgbf000110-resize_1-target.png,250,3.057,1,2154,249,feet,jsons/v1_VE250_randls_9.json,614225,1605621,35,Man
59,442083,DepthScenes,duration_manipulation_targetAtFixation,jsons/v1_VE250_randls_9.json,http://54.235.29.9/FacialAge/BNav_EC2/DepthDuration/v2_depth_duration_MTurk/v2_DepthDuration_HTML.html#23,23,1440,789,1440,900,8-20-2022,11-14-32,60,depth_duration_stimuli/002445_2014-06-28_20-32-16_260595134347_rgbf000029-resize_4/002445_2014-06-28_20-32-16_260595134347_rgbf000029-resize_4-target.png,250,2.5315,1,2378,250,feet,jsons/v1_VE250_randls_9.json,614225,1605621,35,Man
60,442083,DepthScenes,duration_manipulation_targetAtFixation,jsons/v1_VE250_randls_9.json,http://54.235.29.9/FacialAge/BNav_EC2/DepthDuration/v2_depth_duration_MTurk/v2_DepthDuration_HTML.html#23,23,1440,789,1440,900,8-20-2022,11-14-32,61,depth_duration_stimuli/000780_2014-06-08_22-28-29_260595134347_rgbf000126-resize_1/000780_2014-06-08_22-28-29_260595134347_rgbf000126-resize_1-target.png,250,3.3825,1,2325,251,feet,jsons/v1_VE250_randls_9.json,614225,1605621,35,Man
61,442083,DepthScenes,duration_manipulation_targetAtFixation,jsons/v1_VE250_randls_9.json,http://54.235.29.9/FacialAge/BNav_EC2/DepthDuration/v2_depth_duration_MTurk/v2_DepthDuration_HTML.html#23,23,1440,789,1440,900,8-20-2022,11-14-32,62,depth_duration_stimuli/001164_2014-06-17_15-35-46_260595134347_rgbf000085-resize_3/001164_2014-06-17_15-35-46_260595134347_rgbf000085-resize_3-target.png,250,2.354,1,2201,250,feet,jsons/v1_VE250_randls_9.json,614225,1605621,35,Man
62,442083,DepthScenes,duration_manipulation_targetAtFixation,jsons/v1_VE250_randls_9.json,http://54.235.29.9/FacialAge/BNav_EC2/DepthDuration/v2_depth_duration_MTurk/v2_DepthDuration_HTML.html#23,23,1440,789,1440,900,8-20-2022,11-14-32,63,depth_duration_stimuli/001136_2014-06-17_15-19-41_260595134347_rgbf000076-resize_3/001136_2014-06-17_15-19-41_260595134347_rgbf000076-resize_3-target.png,250,1.8655,1,2317,250,feet,jsons/v1_VE250_randls_9.json,614225,1605621,35,Man
63,442083,DepthScenes,duration_manipulation_targetAtFixation,jsons/v1_VE250_randls_9.json,http://54.235.29.9/FacialAge/BNav_EC2/DepthDuration/v2_depth_duration_MTurk/v2_DepthDuration_HTML.html#23,23,1440,789,1440,900,8-20-2022,11-14-32,64,depth_duration_stimuli/002375_2014-06-28_20-13-44_260595134347_rgbf000032-resize_1/002375_2014-06-28_20-13-44_260595134347_rgbf000032-resize_1-target.png,250,4.0175,1,2186,251,feet,jsons/v1_VE250_randls_9.json,614225,1605621,35,Man
64,442083,DepthScenes,duration_manipulation_targetAtFixation,jsons/v1_VE250_randls_9.json,http://54.235.29.9/FacialAge/BNav_EC2/DepthDuration/v2_depth_duration_MTurk/v2_DepthDuration_HTML.html#23,23,1440,789,1440,900,8-20-2022,11-14-32,65,depth_duration_stimuli/002657_2014-06-13_15-29-54_094959634447_rgbf000150-resize_1/002657_2014-06-13_15-29-54_094959634447_rgbf000150-resize_1-target.png,250,4.919,1,2715,250,feet,jsons/v1_VE250_randls_9.json,614225,1605621,35,Man
65,442083,DepthScenes,duration_manipulation_targetAtFixation,jsons/v1_VE250_randls_9.json,http://54.235.29.9/FacialAge/BNav_EC2/DepthDuration/v2_depth_duration_MTurk/v2_DepthDuration_HTML.html#23,23,1440,789,1440,900,8-20-2022,11-14-32,66,depth_duration_stimuli/001222_2014-06-17_16-24-06_260595134347_rgbf000073-resize_0/001222_2014-06-17_16-24-06_260595134347_rgbf000073-resize-original.jpg,250,1.4385,0,2436,251,feet,jsons/v1_VE250_randls_9.json,614225,1605621,35,Man
66,442083,DepthScenes,duration_manipulation_targetAtFixation,jsons/v1_VE250_randls_9.json,http://54.235.29.9/FacialAge/BNav_EC2/DepthDuration/v2_depth_duration_MTurk/v2_DepthDuration_HTML.html#23,23,1440,789,1440,900,8-20-2022,11-14-32,67,depth_duration_stimuli/000692_2014-06-08_13-09-42_260595134347_rgbf000199-resize_2/000692_2014-06-08_13-09-42_260595134347_rgbf000199-resize_2-target.png,250,3.661,1,2667,251,feet,jsons/v1_VE250_randls_9.json,614225,1605621,35,Man
67,442083,DepthScenes,duration_manipulation_targetAtFixation,jsons/v1_VE250_randls_9.json,http://54.235.29.9/FacialAge/BNav_EC2/DepthDuration/v2_depth_duration_MTurk/v2_DepthDuration_HTML.html#23,23,1440,789,1440,900,8-20-2022,11-14-32,68,depth_duration_stimuli/001094_2014-06-15_17-36-00_260595134347_rgbf000205-resize_0/001094_2014-06-15_17-36-00_260595134347_rgbf000205-resize_0-target.png,250,4.2175,1,2291,251,feet,jsons/v1_VE250_randls_9.json,614225,1605621,35,Man
68,442083,DepthScenes,duration_manipulation_targetAtFixation,jsons/v1_VE250_randls_9.json,http://54.235.29.9/FacialAge/BNav_EC2/DepthDuration/v2_depth_duration_MTurk/v2_DepthDuration_HTML.html#23,23,1440,789,1440,900,8-20-2022,11-14-32,69,depth_duration_stimuli/000486_2014-06-09_20-47-20_260595134347_rgbf000143-resize_2/000486_2014-06-09_20-47-20_260595134347_rgbf000143-resize_2-target.png,250,4.8325,1,6817,250,feet,jsons/v1_VE250_randls_9.json,614225,1605621,35,Man
69,442083,DepthScenes,duration_manipulation_targetAtFixation,jsons/v1_VE250_randls_9.json,http://54.235.29.9/FacialAge/BNav_EC2/DepthDuration/v2_depth_duration_MTurk/v2_DepthDuration_HTML.html#23,23,1440,789,1440,900,8-20-2022,11-14-32,70,depth_duration_stimuli/003083_2014-06-15_15-21-03_094959634447_rgbf000063-resize_1/003083_2014-06-15_15-21-03_094959634447_rgbf000063-resize_1-target.png,250,4.1405,1,5602,250,feet,jsons/v1_VE250_randls_9.json,614225,1605621,35,Man
70,442083,DepthScenes,duration_manipulation_targetAtFixation,jsons/v1_VE250_randls_9.json,http://54.235.29.9/FacialAge/BNav_EC2/DepthDuration/v2_depth_duration_MTurk/v2_DepthDuration_HTML.html#23,23,1440,789,1440,900,8-20-2022,11-14-32,71,depth_duration_stimuli/000522_2014-06-08_13-35-06_260595134347_rgbf000244-resize_1/000522_2014-06-08_13-35-06_260595134347_rgbf000244-resize_1-target.png,250,2.3715,1,2153,250,feet,jsons/v1_VE250_randls_9.json,614225,1605621,35,Man
71,442083,DepthScenes,duration_manipulation_targetAtFixation,jsons/v1_VE250_randls_9.json,http://54.235.29.9/FacialAge/BNav_EC2/DepthDuration/v2_depth_duration_MTurk/v2_DepthDuration_HTML.html#23,23,1440,789,1440,900,8-20-2022,11-14-32,72,depth_duration_stimuli/002949_2014-06-26_15-57-42_094959634447_rgbf000079-resize_1/002949_2014-06-26_15-57-42_094959634447_rgbf000079-resize_1-target.png,250,1.8915,1,2076,249,feet,jsons/v1_VE250_randls_9.json,614225,1605621,35,Man
72,442083,DepthScenes,duration_manipulation_targetAtFixation,jsons/v1_VE250_randls_9.json,http://54.235.29.9/FacialAge/BNav_EC2/DepthDuration/v2_depth_duration_MTurk/v2_DepthDuration_HTML.html#23,23,1440,789,1440,900,8-20-2022,11-14-32,73,depth_duration_stimuli/003492_2014-05-21_15-50-55_094959634447_rgbf000828-resize_1/003492_2014-05-21_15-50-55_094959634447_rgbf000828-resize_1-target.png,250,4.06875,1,2847,246,feet,jsons/v1_VE250_randls_9.json,614225,1605621,35,Man
73,442083,DepthScenes,duration_manipulation_targetAtFixation,jsons/v1_VE250_randls_9.json,http://54.235.29.9/FacialAge/BNav_EC2/DepthDuration/v2_depth_duration_MTurk/v2_DepthDuration_HTML.html#23,23,1440,789,1440,900,8-20-2022,11-14-32,74,depth_duration_stimuli/002568_2014-06-24_13-59-21_094959634447_rgbf000062-resize_4/002568_2014-06-24_13-59-21_094959634447_rgbf000062-resize_4-target.png,250,3.015,1,2315,251,feet,jsons/v1_VE250_randls_9.json,614225,1605621,35,Man
74,442083,DepthScenes,duration_manipulation_targetAtFixation,jsons/v1_VE250_randls_9.json,http://54.235.29.9/FacialAge/BNav_EC2/DepthDuration/v2_depth_duration_MTurk/v2_DepthDuration_HTML.html#23,23,1440,789,1440,900,8-20-2022,11-14-32,75,depth_duration_stimuli/001029_2014-06-08_13-17-57_260595134347_rgbf000065-resize_1/001029_2014-06-08_13-17-57_260595134347_rgbf000065-resize_1-target.png,250,3.0835,1,2347,250,feet,jsons/v1_VE250_randls_9.json,614225,1605621,35,Man
75,442083,DepthScenes,duration_manipulation_targetAtFixation,jsons/v1_VE250_randls_9.json,http://54.235.29.9/FacialAge/BNav_EC2/DepthDuration/v2_depth_duration_MTurk/v2_DepthDuration_HTML.html#23,23,1440,789,1440,900,8-20-2022,11-14-32,76,depth_duration_stimuli/000677_2014-06-08_23-10-32_260595134347_rgbf000158-resize_6/000677_2014-06-08_23-10-32_260595134347_rgbf000158-resize_6-target.png,250,3.556,1,2386,248,feet,jsons/v1_VE250_randls_9.json,614225,1605621,35,Man
76,442083,DepthScenes,duration_manipulation_targetAtFixation,jsons/v1_VE250_randls_9.json,http://54.235.29.9/FacialAge/BNav_EC2/DepthDuration/v2_depth_duration_MTurk/v2_DepthDuration_HTML.html#23,23,1440,789,1440,900,8-20-2022,11-14-32,77,depth_duration_stimuli/002788_2014-06-22_19-36-03_094959634447_rgbf000088-resize_2/002788_2014-06-22_19-36-03_094959634447_rgbf000088-resize_2-target.png,250,1.6465,1,2202,248,feet,jsons/v1_VE250_randls_9.json,614225,1605621,35,Man
77,442083,DepthScenes,duration_manipulation_targetAtFixation,jsons/v1_VE250_randls_9.json,http://54.235.29.9/FacialAge/BNav_EC2/DepthDuration/v2_depth_duration_MTurk/v2_DepthDuration_HTML.html#23,23,1440,789,1440,900,8-20-2022,11-14-32,78,depth_duration_stimuli/000749_2014-06-08_21-55-06_260595134347_rgbf000070-resize_2/000749_2014-06-08_21-55-06_260595134347_rgbf000070-resize_2-target.png,250,2.331,1,2138,249,feet,jsons/v1_VE250_randls_9.json,614225,1605621,35,Man
78,442083,DepthScenes,duration_manipulation_targetAtFixation,jsons/v1_VE250_randls_9.json,http://54.235.29.9/FacialAge/BNav_EC2/DepthDuration/v2_depth_duration_MTurk/v2_DepthDuration_HTML.html#23,23,1440,789,1440,900,8-20-2022,11-14-32,79,depth_duration_stimuli/002272_2014-06-28_18-53-56_260595134347_rgbf000067-resize_2/002272_2014-06-28_18-53-56_260595134347_rgbf000067-resize_2-target.png,250,1.138,1,2402,250,feet,jsons/v1_VE250_randls_9.json,614225,1605621,35,Man
79,442083,DepthScenes,duration_manipulation_targetAtFixation,jsons/v1_VE250_randls_9.json,http://54.235.29.9/FacialAge/BNav_EC2/DepthDuration/v2_depth_duration_MTurk/v2_DepthDuration_HTML.html#23,23,1440,789,1440,900,8-20-2022,11-14-32,80,depth_duration_stimuli/001571_2014-06-20_17-21-32_260595134347_rgbf000089-resize_1/001571_2014-06-20_17-21-32_260595134347_rgbf000089-resize_1-target.png,250,1.86,1,2699,251,feet,jsons/v1_VE250_randls_9.json,614225,1605621,35,Man
80,442083,DepthScenes,duration_manipulation_targetAtFixation,jsons/v1_VE250_randls_9.json,http://54.235.29.9/FacialAge/BNav_EC2/DepthDuration/v2_depth_duration_MTurk/v2_DepthDuration_HTML.html#23,23,1440,789,1440,900,8-20-2022,11-14-32,81,depth_duration_stimuli/001055_2014-06-08_18-45-35_260595134347_rgbf000111-resize_4/001055_2014-06-08_18-45-35_260595134347_rgbf000111-resize_4-target.png,250,2.4290000000000003,1,2466,250,feet,jsons/v1_VE250_randls_9.json,614225,1605621,35,Man
81,442083,DepthScenes,duration_manipulation_targetAtFixation,jsons/v1_VE250_randls_9.json,http://54.235.29.9/FacialAge/BNav_EC2/DepthDuration/v2_depth_duration_MTurk/v2_DepthDuration_HTML.html#23,23,1440,789,1440,900,8-20-2022,11-14-32,82,depth_duration_stimuli/000549_2014-06-08_22-10-24_260595134347_rgbf000247-resize_3/000549_2014-06-08_22-10-24_260595134347_rgbf000247-resize_3-target.png,250,1.841,1,2908,250,feet,jsons/v1_VE250_randls_9.json,614225,1605621,35,Man
82,442083,DepthScenes,duration_manipulation_targetAtFixation,jsons/v1_VE250_randls_9.json,http://54.235.29.9/FacialAge/BNav_EC2/DepthDuration/v2_depth_duration_MTurk/v2_DepthDuration_HTML.html#23,23,1440,789,1440,900,8-20-2022,11-14-32,83,depth_duration_stimuli/002784_2014-06-22_19-26-30_094959634447_rgbf000083-resize_3/002784_2014-06-22_19-26-30_094959634447_rgbf000083-resize_3-target.png,250,1.8046666666667,0,2464,249,feet,jsons/v1_VE250_randls_9.json,614225,1605621,35,Man
83,442083,DepthScenes,duration_manipulation_targetAtFixation,jsons/v1_VE250_randls_9.json,http://54.235.29.9/FacialAge/BNav_EC2/DepthDuration/v2_depth_duration_MTurk/v2_DepthDuration_HTML.html#23,23,1440,789,1440,900,8-20-2022,11-14-32,84,depth_duration_stimuli/001100_2014-06-15_17-46-26_260595134347_rgbf000225-resize_2/001100_2014-06-15_17-46-26_260595134347_rgbf000225-resize_2-target.png,250,2.24,0,3018,249,feet,jsons/v1_VE250_randls_9.json,614225,1605621,35,Man
84,442083,DepthScenes,duration_manipulation_targetAtFixation,jsons/v1_VE250_randls_9.json,http://54.235.29.9/FacialAge/BNav_EC2/DepthDuration/v2_depth_duration_MTurk/v2_DepthDuration_HTML.html#23,23,1440,789,1440,900,8-20-2022,11-14-32,85,depth_duration_stimuli/001016_2014-06-09_16-16-10_260595134347_rgbf000112-resize_5/001016_2014-06-09_16-16-10_260595134347_rgbf000112-resize_5-target.png,250,1.6565,1,3956,251,feet,jsons/v1_VE250_randls_9.json,614225,1605621,35,Man
85,442083,DepthScenes,duration_manipulation_targetAtFixation,jsons/v1_VE250_randls_9.json,http://54.235.29.9/FacialAge/BNav_EC2/DepthDuration/v2_depth_duration_MTurk/v2_DepthDuration_HTML.html#23,23,1440,789,1440,900,8-20-2022,11-14-32,86,depth_duration_stimuli/002340_2014-06-28_20-05-46_260595134347_rgbf000113-resize_0/002340_2014-06-28_20-05-46_260595134347_rgbf000113-resize_0-target.png,250,2.4735,1,9011,246,feet,jsons/v1_VE250_randls_9.json,614225,1605621,35,Man
86,442083,DepthScenes,duration_manipulation_targetAtFixation,jsons/v1_VE250_randls_9.json,http://54.235.29.9/FacialAge/BNav_EC2/DepthDuration/v2_depth_duration_MTurk/v2_DepthDuration_HTML.html#23,23,1440,789,1440,900,8-20-2022,11-14-32,87,depth_duration_stimuli/002043_2014-06-24_20-29-38_260595134347_rgbf000039-resize_4/002043_2014-06-24_20-29-38_260595134347_rgbf000039-resize_4-target.png,250,2.8435,1,2015,248,feet,jsons/v1_VE250_randls_9.json,614225,1605621,35,Man
87,442083,DepthScenes,duration_manipulation_targetAtFixation,jsons/v1_VE250_randls_9.json,http://54.235.29.9/FacialAge/BNav_EC2/DepthDuration/v2_depth_duration_MTurk/v2_DepthDuration_HTML.html#23,23,1440,789,1440,900,8-20-2022,11-14-32,88,depth_duration_stimuli/003048_2014-06-15_13-49-43_094959634447_rgbf000150-resize_1/003048_2014-06-15_13-49-43_094959634447_rgbf000150-resize_1-target.png,250,4.0035,0,2487,246,feet,jsons/v1_VE250_randls_9.json,614225,1605621,35,Man
88,442083,DepthScenes,duration_manipulation_targetAtFixation,jsons/v1_VE250_randls_9.json,http://54.235.29.9/FacialAge/BNav_EC2/DepthDuration/v2_depth_duration_MTurk/v2_DepthDuration_HTML.html#23,23,1440,789,1440,900,8-20-2022,11-14-32,89,depth_duration_stimuli/002570_2014-06-24_13-59-54_094959634447_rgbf000059-resize_0/002570_2014-06-24_13-59-54_094959634447_rgbf000059-resize_0-target.png,250,4.037,1,5369,250,feet,jsons/v1_VE250_randls_9.json,614225,1605621,35,Man
89,442083,DepthScenes,duration_manipulation_targetAtFixation,jsons/v1_VE250_randls_9.json,http://54.235.29.9/FacialAge/BNav_EC2/DepthDuration/v2_depth_duration_MTurk/v2_DepthDuration_HTML.html#23,23,1440,789,1440,900,8-20-2022,11-14-32,90,depth_duration_stimuli/002467_2014-06-28_20-38-07_260595134347_rgbf000026-resize_2/002467_2014-06-28_20-38-07_260595134347_rgbf000026-resize_2-target.png,250,4.742,1,2363,264,feet,jsons/v1_VE250_randls_9.json,614225,1605621,35,Man
90,442083,DepthScenes,duration_manipulation_targetAtFixation,jsons/v1_VE250_randls_9.json,http://54.235.29.9/FacialAge/BNav_EC2/DepthDuration/v2_depth_duration_MTurk/v2_DepthDuration_HTML.html#23,23,1440,789,1440,900,8-20-2022,11-14-32,91,depth_duration_stimuli/000736_2014-06-08_18-24-15_260595134347_rgbf000206-resize_3/000736_2014-06-08_18-24-15_260595134347_rgbf000206-resize_3-target.png,250,3.515,1,2067,252,feet,jsons/v1_VE250_randls_9.json,614225,1605621,35,Man
91,442083,DepthScenes,duration_manipulation_targetAtFixation,jsons/v1_VE250_randls_9.json,http://54.235.29.9/FacialAge/BNav_EC2/DepthDuration/v2_depth_duration_MTurk/v2_DepthDuration_HTML.html#23,23,1440,789,1440,900,8-20-2022,11-14-32,92,depth_duration_stimuli/000137_2014-05-20_17-04-49_260595134347_rgbf000120-resize_1/000137_2014-05-20_17-04-49_260595134347_rgbf000120-resize_1-target.png,250,3.786,1,2347,251,feet,jsons/v1_VE250_randls_9.json,614225,1605621,35,Man
92,442083,DepthScenes,duration_manipulation_targetAtFixation,jsons/v1_VE250_randls_9.json,http://54.235.29.9/FacialAge/BNav_EC2/DepthDuration/v2_depth_duration_MTurk/v2_DepthDuration_HTML.html#23,23,1440,789,1440,900,8-20-2022,11-14-32,93,depth_duration_stimuli/001806_2014-06-26_20-50-20_260595134347_rgbf000091-resize_1/001806_2014-06-26_20-50-20_260595134347_rgbf000091-resize_1-target.png,250,2.7305,1,2355,250,feet,jsons/v1_VE250_randls_9.json,614225,1605621,35,Man
93,442083,DepthScenes,duration_manipulation_targetAtFixation,jsons/v1_VE250_randls_9.json,http://54.235.29.9/FacialAge/BNav_EC2/DepthDuration/v2_depth_duration_MTurk/v2_DepthDuration_HTML.html#23,23,1440,789,1440,900,8-20-2022,11-14-32,94,depth_duration_stimuli/001617_2014-06-20_11-35-32_260595134347_rgbf000066-resize_1/001617_2014-06-20_11-35-32_260595134347_rgbf000066-resize_1-target.png,250,3.7910000000000004,1,2388,250,feet,jsons/v1_VE250_randls_9.json,614225,1605621,35,Man
94,442083,DepthScenes,duration_manipulation_targetAtFixation,jsons/v1_VE250_randls_9.json,http://54.235.29.9/FacialAge/BNav_EC2/DepthDuration/v2_depth_duration_MTurk/v2_DepthDuration_HTML.html#23,23,1440,789,1440,900,8-20-2022,11-14-32,95,depth_duration_stimuli/001810_2014-06-26_20-51-35_260595134347_rgbf000040-resize_3/001810_2014-06-26_20-51-35_260595134347_rgbf000040-resize_3-target.png,250,2.2525,1,2978,265,feet,jsons/v1_VE250_randls_9.json,614225,1605621,35,Man
95,442083,DepthScenes,duration_manipulation_targetAtFixation,jsons/v1_VE250_randls_9.json,http://54.235.29.9/FacialAge/BNav_EC2/DepthDuration/v2_depth_duration_MTurk/v2_DepthDuration_HTML.html#23,23,1440,789,1440,900,8-20-2022,11-14-32,96,depth_duration_stimuli/003010_2014-06-15_12-54-35_094959634447_rgbf000112-resize_0/003010_2014-06-15_12-54-35_094959634447_rgbf000112-resize_0-target.png,250,3.1185,1,2306,251,feet,jsons/v1_VE250_randls_9.json,614225,1605621,35,Man
96,442083,DepthScenes,duration_manipulation_targetAtFixation,jsons/v1_VE250_randls_9.json,http://54.235.29.9/FacialAge/BNav_EC2/DepthDuration/v2_depth_duration_MTurk/v2_DepthDuration_HTML.html#23,23,1440,789,1440,900,8-20-2022,11-14-32,97,depth_duration_stimuli/000009_2014-05-26_14-32-05_260595134347_rgbf000034-resize_3/000009_2014-05-26_14-32-05_260595134347_rgbf000034-resize_3-target.png,250,3.8715,1,3851,250,feet,jsons/v1_VE250_randls_9.json,614225,1605621,35,Man
97,442083,DepthScenes,duration_manipulation_targetAtFixation,jsons/v1_VE250_randls_9.json,http://54.235.29.9/FacialAge/BNav_EC2/DepthDuration/v2_depth_duration_MTurk/v2_DepthDuration_HTML.html#23,23,1440,789,1440,900,8-20-2022,11-14-32,98,depth_duration_stimuli/001828_2014-06-26_21-40-03_260595134347_rgbf000024-resize_0/001828_2014-06-26_21-40-03_260595134347_rgbf000024-resize_0-target.png,250,4.8260000000000005,1,2363,250,feet,jsons/v1_VE250_randls_9.json,614225,1605621,35,Man
98,442083,DepthScenes,duration_manipulation_targetAtFixation,jsons/v1_VE250_randls_9.json,http://54.235.29.9/FacialAge/BNav_EC2/DepthDuration/v2_depth_duration_MTurk/v2_DepthDuration_HTML.html#23,23,1440,789,1440,900,8-20-2022,11-14-32,99,depth_duration_stimuli/001540_2014-06-20_17-01-05_260595134347_rgbf000086-resize_2/001540_2014-06-20_17-01-05_260595134347_rgbf000086-resize-original.jpg,250,1.459,0,3796,250,feet,jsons/v1_VE250_randls_9.json,614225,1605621,35,Man
99,442083,DepthScenes,duration_manipulation_targetAtFixation,jsons/v1_VE250_randls_9.json,http://54.235.29.9/FacialAge/BNav_EC2/DepthDuration/v2_depth_duration_MTurk/v2_DepthDuration_HTML.html#23,23,1440,789,1440,900,8-20-2022,11-14-32,100,depth_duration_stimuli/000917_2014-06-09_22-45-29_260595134347_rgbf000149-resize_3/000917_2014-06-09_22-45-29_260595134347_rgbf000149-resize_3-target.png,250,4.1865,1,3138,263,feet,jsons/v1_VE250_randls_9.json,614225,1605621,35,Man
100,442083,DepthScenes,duration_manipulation_targetAtFixation,jsons/v1_VE250_randls_9.json,http://54.235.29.9/FacialAge/BNav_EC2/DepthDuration/v2_depth_duration_MTurk/v2_DepthDuration_HTML.html#23,23,1440,789,1440,900,8-20-2022,11-14-32,101,depth_duration_stimuli/002323_2014-06-28_20-01-54_260595134347_rgbf000051-resize_4/002323_2014-06-28_20-01-54_260595134347_rgbf000051-resize_4-target.png,250,3.7310000000000003,1,4314,251,feet,jsons/v1_VE250_randls_9.json,614225,1605621,35,Man
101,442083,DepthScenes,duration_manipulation_targetAtFixation,jsons/v1_VE250_randls_9.json,http://54.235.29.9/FacialAge/BNav_EC2/DepthDuration/v2_depth_duration_MTurk/v2_DepthDuration_HTML.html#23,23,1440,789,1440,900,8-20-2022,11-14-32,102,depth_duration_stimuli/002509_2014-06-24_13-19-22_094959634447_rgbf000077-resize_0/002509_2014-06-24_13-19-22_094959634447_rgbf000077-resize_0-target.png,250,1.3065,0,2275,250,feet,jsons/v1_VE250_randls_9.json,614225,1605621,35,Man
102,442083,DepthScenes,duration_manipulation_targetAtFixation,jsons/v1_VE250_randls_9.json,http://54.235.29.9/FacialAge/BNav_EC2/DepthDuration/v2_depth_duration_MTurk/v2_DepthDuration_HTML.html#23,23,1440,789,1440,900,8-20-2022,11-14-32,103,depth_duration_stimuli/003338_2014-05-20_11-01-23_094959634447_rgbf000051-resize_6/003338_2014-05-20_11-01-23_094959634447_rgbf000051-resize_6-target.png,250,1.693,1,2258,248,feet,jsons/v1_VE250_randls_9.json,614225,1605621,35,Man
103,442083,DepthScenes,duration_manipulation_targetAtFixation,jsons/v1_VE250_randls_9.json,http://54.235.29.9/FacialAge/BNav_EC2/DepthDuration/v2_depth_duration_MTurk/v2_DepthDuration_HTML.html#23,23,1440,789,1440,900,8-20-2022,11-14-32,104,depth_duration_stimuli/002988_2014-06-15_12-24-20_094959634447_rgbf000150-resize_1/002988_2014-06-15_12-24-20_094959634447_rgbf000150-resize_1-target.png,250,4.7669999999999995,1,2227,257,feet,jsons/v1_VE250_randls_9.json,614225,1605621,35,Man
104,442083,DepthScenes,duration_manipulation_targetAtFixation,jsons/v1_VE250_randls_9.json,http://54.235.29.9/FacialAge/BNav_EC2/DepthDuration/v2_depth_duration_MTurk/v2_DepthDuration_HTML.html#23,23,1440,789,1440,900,8-20-2022,11-14-32,105,depth_duration_stimuli/001052_2014-06-08_18-24-54_260595134347_rgbf000130-resize_1/001052_2014-06-08_18-24-54_260595134347_rgbf000130-resize_1-target.png,250,4.1045,1,2002,250,feet,jsons/v1_VE250_randls_9.json,614225,1605621,35,Man
105,442083,DepthScenes,duration_manipulation_targetAtFixation,jsons/v1_VE250_randls_9.json,http://54.235.29.9/FacialAge/BNav_EC2/DepthDuration/v2_depth_duration_MTurk/v2_DepthDuration_HTML.html#23,23,1440,789,1440,900,8-20-2022,11-14-32,106,depth_duration_stimuli/001555_2014-06-20_17-12-10_260595134347_rgbf000065-resize_4/001555_2014-06-20_17-12-10_260595134347_rgbf000065-resize_4-target.png,250,1.633,1,2082,250,feet,jsons/v1_VE250_randls_9.json,614225,1605621,35,Man
106,442083,DepthScenes,duration_manipulation_targetAtFixation,jsons/v1_VE250_randls_9.json,http://54.235.29.9/FacialAge/BNav_EC2/DepthDuration/v2_depth_duration_MTurk/v2_DepthDuration_HTML.html#23,23,1440,789,1440,900,8-20-2022,11-14-32,107,depth_duration_stimuli/000103_2014-05-14_22-01-17_260595134347_rgbf000152-resize_5/000103_2014-05-14_22-01-17_260595134347_rgbf000152-resize_5-target.png,250,1.993,1,2323,251,feet,jsons/v1_VE250_randls_9.json,614225,1605621,35,Man
107,442083,DepthScenes,duration_manipulation_targetAtFixation,jsons/v1_VE250_randls_9.json,http://54.235.29.9/FacialAge/BNav_EC2/DepthDuration/v2_depth_duration_MTurk/v2_DepthDuration_HTML.html#23,23,1440,789,1440,900,8-20-2022,11-14-32,108,depth_duration_stimuli/000929_2014-06-09_16-33-19_260595134347_rgbf000139-resize_0/000929_2014-06-09_16-33-19_260595134347_rgbf000139-resize_0-target.png,250,2.8680000000000003,1,2283,252,feet,jsons/v1_VE250_randls_9.json,614225,1605621,35,Man
108,442083,DepthScenes,duration_manipulation_targetAtFixation,jsons/v1_VE250_randls_9.json,http://54.235.29.9/FacialAge/BNav_EC2/DepthDuration/v2_depth_duration_MTurk/v2_DepthDuration_HTML.html#23,23,1440,789,1440,900,8-20-2022,11-14-32,109,depth_duration_stimuli/000457_2014-06-08_16-52-43_260595134347_rgbf000199-resize_1/000457_2014-06-08_16-52-43_260595134347_rgbf000199-resize_1-target.png,250,3.6489999999999996,1,2019,250,feet,jsons/v1_VE250_randls_9.json,614225,1605621,35,Man
109,442083,DepthScenes,duration_manipulation_targetAtFixation,jsons/v1_VE250_randls_9.json,http://54.235.29.9/FacialAge/BNav_EC2/DepthDuration/v2_depth_duration_MTurk/v2_DepthDuration_HTML.html#23,23,1440,789,1440,900,8-20-2022,11-14-32,110,depth_duration_stimuli/002213_2014-06-28_18-37-58_260595134347_rgbf000055-resize_1/002213_2014-06-28_18-37-58_260595134347_rgbf000055-resize_1-target.png,250,3.62,1,3123,259,feet,jsons/v1_VE250_randls_9.json,614225,1605621,35,Man
110,442083,DepthScenes,duration_manipulation_targetAtFixation,jsons/v1_VE250_randls_9.json,http://54.235.29.9/FacialAge/BNav_EC2/DepthDuration/v2_depth_duration_MTurk/v2_DepthDuration_HTML.html#23,23,1440,789,1440,900,8-20-2022,11-14-32,111,depth_duration_stimuli/000691_2014-06-08_13-08-50_260595134347_rgbf000132-resize_3/000691_2014-06-08_13-08-50_260595134347_rgbf000132-resize_3-target.png,250,4.1530000000000005,1,2468,250,feet,jsons/v1_VE250_randls_9.json,614225,1605621,35,Man
111,442083,DepthScenes,duration_manipulation_targetAtFixation,jsons/v1_VE250_randls_9.json,http://54.235.29.9/FacialAge/BNav_EC2/DepthDuration/v2_depth_duration_MTurk/v2_DepthDuration_HTML.html#23,23,1440,789,1440,900,8-20-2022,11-14-32,112,depth_duration_stimuli/002153_2014-06-25_21-27-18_260595134347_rgbf000038-resize_5/002153_2014-06-25_21-27-18_260595134347_rgbf000038-resize_5-target.png,250,2.505,1,4010,249,feet,jsons/v1_VE250_randls_9.json,614225,1605621,35,Man
112,442083,DepthScenes,duration_manipulation_targetAtFixation,jsons/v1_VE250_randls_9.json,http://54.235.29.9/FacialAge/BNav_EC2/DepthDuration/v2_depth_duration_MTurk/v2_DepthDuration_HTML.html#23,23,1440,789,1440,900,8-20-2022,11-14-32,113,depth_duration_stimuli/002660_2014-06-13_15-44-18_094959634447_rgbf001878-resize_2/002660_2014-06-13_15-44-18_094959634447_rgbf001878-resize_2-target.png,250,3.576,1,2041,252,feet,jsons/v1_VE250_randls_9.json,614225,1605621,35,Man
113,442083,DepthScenes,duration_manipulation_targetAtFixation,jsons/v1_VE250_randls_9.json,http://54.235.29.9/FacialAge/BNav_EC2/DepthDuration/v2_depth_duration_MTurk/v2_DepthDuration_HTML.html#23,23,1440,789,1440,900,8-20-2022,11-14-32,114,depth_duration_stimuli/000810_2014-06-08_17-20-01_260595134347_rgbf000105-resize_0/000810_2014-06-08_17-20-01_260595134347_rgbf000105-resize_0-target.png,250,1.4865,1,2195,251,feet,jsons/v1_VE250_randls_9.json,614225,1605621,35,Man
114,442083,DepthScenes,duration_manipulation_targetAtFixation,jsons/v1_VE250_randls_9.json,http://54.235.29.9/FacialAge/BNav_EC2/DepthDuration/v2_depth_duration_MTurk/v2_DepthDuration_HTML.html#23,23,1440,789,1440,900,8-20-2022,11-14-32,115,depth_duration_stimuli/001214_2014-06-17_16-13-55_260595134347_rgbf000111-resize_0/001214_2014-06-17_16-13-55_260595134347_rgbf000111-resize_0-target.png,250,2.6505,1,3746,249,feet,jsons/v1_VE250_randls_9.json,614225,1605621,35,Man
115,442083,DepthScenes,duration_manipulation_targetAtFixation,jsons/v1_VE250_randls_9.json,http://54.235.29.9/FacialAge/BNav_EC2/DepthDuration/v2_depth_duration_MTurk/v2_DepthDuration_HTML.html#23,23,1440,789,1440,900,8-20-2022,11-14-32,116,depth_duration_stimuli/001170_2014-06-17_15-43-44_260595134347_rgbf000096-resize_6/001170_2014-06-17_15-43-44_260595134347_rgbf000096-resize-original.jpg,250,1.1909999999999998,0,2235,250,feet,jsons/v1_VE250_randls_9.json,614225,1605621,35,Man
116,442083,DepthScenes,duration_manipulation_targetAtFixation,jsons/v1_VE250_randls_9.json,http://54.235.29.9/FacialAge/BNav_EC2/DepthDuration/v2_depth_duration_MTurk/v2_DepthDuration_HTML.html#23,23,1440,789,1440,900,8-20-2022,11-14-32,117,depth_duration_stimuli/000642_2014-06-08_16-59-25_260595134347_rgbf000098-resize_2/000642_2014-06-08_16-59-25_260595134347_rgbf000098-resize_2-target.png,250,2.8815,1,2129,250,feet,jsons/v1_VE250_randls_9.json,614225,1605621,35,Man
117,442083,DepthScenes,duration_manipulation_targetAtFixation,jsons/v1_VE250_randls_9.json,http://54.235.29.9/FacialAge/BNav_EC2/DepthDuration/v2_depth_duration_MTurk/v2_DepthDuration_HTML.html#23,23,1440,789,1440,900,8-20-2022,11-14-32,118,depth_duration_stimuli/002425_2014-06-28_20-27-29_260595134347_rgbf000031-resize_8/002425_2014-06-28_20-27-29_260595134347_rgbf000031-resize_8-target.png,250,3.8960000000000004,0,3123,250,feet,jsons/v1_VE250_randls_9.json,614225,1605621,35,Man
118,442083,DepthScenes,duration_manipulation_targetAtFixation,jsons/v1_VE250_randls_9.json,http://54.235.29.9/FacialAge/BNav_EC2/DepthDuration/v2_depth_duration_MTurk/v2_DepthDuration_HTML.html#23,23,1440,789,1440,900,8-20-2022,11-14-32,119,depth_duration_stimuli/002057_2014-06-24_21-00-13_260595134347_rgbf000120-resize_1/002057_2014-06-24_21-00-13_260595134347_rgbf000120-resize_1-target.png,250,2.967,1,2531,249,feet,jsons/v1_VE250_randls_9.json,614225,1605621,35,Man
119,442083,DepthScenes,duration_manipulation_targetAtFixation,jsons/v1_VE250_randls_9.json,http://54.235.29.9/FacialAge/BNav_EC2/DepthDuration/v2_depth_duration_MTurk/v2_DepthDuration_HTML.html#23,23,1440,789,1440,900,8-20-2022,11-14-32,120,depth_duration_stimuli/000709_2014-06-08_13-51-55_260595134347_rgbf000068-resize_3/000709_2014-06-08_13-51-55_260595134347_rgbf000068-resize_3-target.png,250,1.8030000000000002,1,2113,250,feet,jsons/v1_VE250_randls_9.json,614225,1605621,35,Man
120,442083,DepthScenes,duration_manipulation_targetAtFixation,jsons/v1_VE250_randls_9.json,http://54.235.29.9/FacialAge/BNav_EC2/DepthDuration/v2_depth_duration_MTurk/v2_DepthDuration_HTML.html#23,23,1440,789,1440,900,8-20-2022,11-14-32,121,depth_duration_stimuli/001011_2014-06-08_23-18-54_260595134347_rgbf000044-resize_4/001011_2014-06-08_23-18-54_260595134347_rgbf000044-resize_4-target.png,250,2.4730000000000003,1,2452,249,feet,jsons/v1_VE250_randls_9.json,614225,1605621,35,Man
121,442083,DepthScenes,duration_manipulation_targetAtFixation,jsons/v1_VE250_randls_9.json,http://54.235.29.9/FacialAge/BNav_EC2/DepthDuration/v2_depth_duration_MTurk/v2_DepthDuration_HTML.html#23,23,1440,789,1440,900,8-20-2022,11-14-32,122,depth_duration_stimuli/002875_2014-06-01_15-19-00_094959634447_rgbf000151-resize_1/002875_2014-06-01_15-19-00_094959634447_rgbf000151-resize_1-target.png,250,1.9675,1,1930,250,feet,jsons/v1_VE250_randls_9.json,614225,1605621,35,Man
122,442083,DepthScenes,duration_manipulation_targetAtFixation,jsons/v1_VE250_randls_9.json,http://54.235.29.9/FacialAge/BNav_EC2/DepthDuration/v2_depth_duration_MTurk/v2_DepthDuration_HTML.html#23,23,1440,789,1440,900,8-20-2022,11-14-32,123,depth_duration_stimuli/001056_2014-06-08_18-46-44_260595134347_rgbf000068-resize_0/001056_2014-06-08_18-46-44_260595134347_rgbf000068-resize_0-target.png,250,2.6625,1,2131,251,feet,jsons/v1_VE250_randls_9.json,614225,1605621,35,Man
123,442083,DepthScenes,duration_manipulation_targetAtFixation,jsons/v1_VE250_randls_9.json,http://54.235.29.9/FacialAge/BNav_EC2/DepthDuration/v2_depth_duration_MTurk/v2_DepthDuration_HTML.html#23,23,1440,789,1440,900,8-20-2022,11-14-32,124,depth_duration_stimuli/002199_2014-06-28_18-33-56_260595134347_rgbf000074-resize_0/002199_2014-06-28_18-33-56_260595134347_rgbf000074-resize_0-target.png,250,1.996,1,2050,250,feet,jsons/v1_VE250_randls_9.json,614225,1605621,35,Man
124,442083,DepthScenes,duration_manipulation_targetAtFixation,jsons/v1_VE250_randls_9.json,http://54.235.29.9/FacialAge/BNav_EC2/DepthDuration/v2_depth_duration_MTurk/v2_DepthDuration_HTML.html#23,23,1440,789,1440,900,8-20-2022,11-14-32,125,depth_duration_stimuli/000436_2014-06-09_22-25-11_260595134347_rgbf000137-resize_1/000436_2014-06-09_22-25-11_260595134347_rgbf000137-resize_1-target.png,250,4.0705,1,2387,250,feet,jsons/v1_VE250_randls_9.json,614225,1605621,35,Man
125,442083,DepthScenes,duration_manipulation_targetAtFixation,jsons/v1_VE250_randls_9.json,http://54.235.29.9/FacialAge/BNav_EC2/DepthDuration/v2_depth_duration_MTurk/v2_DepthDuration_HTML.html#23,23,1440,789,1440,900,8-20-2022,11-14-32,126,depth_duration_stimuli/002444_2014-06-28_20-32-08_260595134347_rgbf000027-resize_0/002444_2014-06-28_20-32-08_260595134347_rgbf000027-resize_0-target.png,250,4.388999999999999,1,3451,249,feet,jsons/v1_VE250_randls_9.json,614225,1605621,35,Man
126,442083,DepthScenes,duration_manipulation_targetAtFixation,jsons/v1_VE250_randls_9.json,http://54.235.29.9/FacialAge/BNav_EC2/DepthDuration/v2_depth_duration_MTurk/v2_DepthDuration_HTML.html#23,23,1440,789,1440,900,8-20-2022,11-14-32,127,depth_duration_stimuli/000739_2014-06-08_18-45-58_260595134347_rgbf000068-resize_1/000739_2014-06-08_18-45-58_260595134347_rgbf000068-resize_1-target.png,250,3.534,1,5594,248,feet,jsons/v1_VE250_randls_9.json,614225,1605621,35,Man
127,442083,DepthScenes,duration_manipulation_targetAtFixation,jsons/v1_VE250_randls_9.json,http://54.235.29.9/FacialAge/BNav_EC2/DepthDuration/v2_depth_duration_MTurk/v2_DepthDuration_HTML.html#23,23,1440,789,1440,900,8-20-2022,11-14-32,128,depth_duration_stimuli/000734_2014-06-08_17-39-11_260595134347_rgbf000128-resize_2/000734_2014-06-08_17-39-11_260595134347_rgbf000128-resize_2-target.png,250,4.098,1,1929,249,feet,jsons/v1_VE250_randls_9.json,614225,1605621,35,Man
128,442083,DepthScenes,duration_manipulation_targetAtFixation,jsons/v1_VE250_randls_9.json,http://54.235.29.9/FacialAge/BNav_EC2/DepthDuration/v2_depth_duration_MTurk/v2_DepthDuration_HTML.html#23,23,1440,789,1440,900,8-20-2022,11-14-32,129,depth_duration_stimuli/001066_2014-06-08_22-03-20_260595134347_rgbf000066-resize_4/001066_2014-06-08_22-03-20_260595134347_rgbf000066-resize_4-target.png,250,4.2330000000000005,1,2306,248,feet,jsons/v1_VE250_randls_9.json,614225,1605621,35,Man
129,442083,DepthScenes,duration_manipulation_targetAtFixation,jsons/v1_VE250_randls_9.json,http://54.235.29.9/FacialAge/BNav_EC2/DepthDuration/v2_depth_duration_MTurk/v2_DepthDuration_HTML.html#23,23,1440,789,1440,900,8-20-2022,11-14-32,130,depth_duration_stimuli/000742_2014-06-08_18-48-09_260595134347_rgbf000164-resize_4/000742_2014-06-08_18-48-09_260595134347_rgbf000164-resize_4-target.png,250,4.632,0,2962,250,feet,jsons/v1_VE250_randls_9.json,614225,1605621,35,Man
130,442083,DepthScenes,duration_manipulation_targetAtFixation,jsons/v1_VE250_randls_9.json,http://54.235.29.9/FacialAge/BNav_EC2/DepthDuration/v2_depth_duration_MTurk/v2_DepthDuration_HTML.html#23,23,1440,789,1440,900,8-20-2022,11-14-32,131,depth_duration_stimuli/000368_2014-06-09_15-53-01_260595134347_rgbf000155-resize_2/000368_2014-06-09_15-53-01_260595134347_rgbf000155-resize_2-target.png,250,2.4859999999999998,1,2124,250,feet,jsons/v1_VE250_randls_9.json,614225,1605621,35,Man
131,442083,DepthScenes,duration_manipulation_targetAtFixation,jsons/v1_VE250_randls_9.json,http://54.235.29.9/FacialAge/BNav_EC2/DepthDuration/v2_depth_duration_MTurk/v2_DepthDuration_HTML.html#23,23,1440,789,1440,900,8-20-2022,11-14-32,132,depth_duration_stimuli/002678_2014-06-13_16-15-32_094959634447_rgbf000151-resize_6/002678_2014-06-13_16-15-32_094959634447_rgbf000151-resize_6-target.png,250,2.1830000000000003,0,7026,251,feet,jsons/v1_VE250_randls_9.json,614225,1605621,35,Man
132,442083,DepthScenes,duration_manipulation_targetAtFixation,jsons/v1_VE250_randls_9.json,http://54.235.29.9/FacialAge/BNav_EC2/DepthDuration/v2_depth_duration_MTurk/v2_DepthDuration_HTML.html#23,23,1440,789,1440,900,8-20-2022,11-14-32,133,depth_duration_stimuli/000682_2014-06-08_23-14-58_260595134347_rgbf000041-resize_5/000682_2014-06-08_23-14-58_260595134347_rgbf000041-resize_5-target.png,250,2.7239999999999998,1,6756,249,feet,jsons/v1_VE250_randls_9.json,614225,1605621,35,Man
133,442083,DepthScenes,duration_manipulation_targetAtFixation,jsons/v1_VE250_randls_9.json,http://54.235.29.9/FacialAge/BNav_EC2/DepthDuration/v2_depth_duration_MTurk/v2_DepthDuration_HTML.html#23,23,1440,789,1440,900,8-20-2022,11-14-32,134,depth_duration_stimuli/001650_2014-06-20_12-09-00_260595134347_rgbf000087-resize_3/001650_2014-06-20_12-09-00_260595134347_rgbf000087-resize_3-target.png,250,1.9505,1,3355,250,feet,jsons/v1_VE250_randls_9.json,614225,1605621,35,Man
134,442083,DepthScenes,duration_manipulation_targetAtFixation,jsons/v1_VE250_randls_9.json,http://54.235.29.9/FacialAge/BNav_EC2/DepthDuration/v2_depth_duration_MTurk/v2_DepthDuration_HTML.html#23,23,1440,789,1440,900,8-20-2022,11-14-32,135,depth_duration_stimuli/002072_2014-06-24_21-48-06_260595134347_rgbf000115-resize_0/002072_2014-06-24_21-48-06_260595134347_rgbf000115-resize-original.jpg,250,4.702,1,5506,250,feet,jsons/v1_VE250_randls_9.json,614225,1605621,35,Man
135,442083,DepthScenes,duration_manipulation_targetAtFixation,jsons/v1_VE250_randls_9.json,http://54.235.29.9/FacialAge/BNav_EC2/DepthDuration/v2_depth_duration_MTurk/v2_DepthDuration_HTML.html#23,23,1440,789,1440,900,8-20-2022,11-14-32,136,depth_duration_stimuli/001158_2014-06-17_15-32-16_260595134347_rgbf000138-resize_2/001158_2014-06-17_15-32-16_260595134347_rgbf000138-resize_2-target.png,250,4.5315,1,1995,250,feet,jsons/v1_VE250_randls_9.json,614225,1605621,35,Man
136,442083,DepthScenes,duration_manipulation_targetAtFixation,jsons/v1_VE250_randls_9.json,http://54.235.29.9/FacialAge/BNav_EC2/DepthDuration/v2_depth_duration_MTurk/v2_DepthDuration_HTML.html#23,23,1440,789,1440,900,8-20-2022,11-14-32,137,depth_duration_stimuli/000556_2014-06-09_22-42-56_260595134347_rgbf000214-resize_1/000556_2014-06-09_22-42-56_260595134347_rgbf000214-resize_1-target.png,250,4.8415,1,2291,261,feet,jsons/v1_VE250_randls_9.json,614225,1605621,35,Man
137,442083,DepthScenes,duration_manipulation_targetAtFixation,jsons/v1_VE250_randls_9.json,http://54.235.29.9/FacialAge/BNav_EC2/DepthDuration/v2_depth_duration_MTurk/v2_DepthDuration_HTML.html#23,23,1440,789,1440,900,8-20-2022,11-14-32,138,depth_duration_stimuli/002279_2014-06-28_18-55-32_260595134347_rgbf000040-resize_5/002279_2014-06-28_18-55-32_260595134347_rgbf000040-resize_5-target.png,250,1.5043333333333,0,2334,246,feet,jsons/v1_VE250_randls_9.json,614225,1605621,35,Man
138,442083,DepthScenes,duration_manipulation_targetAtFixation,jsons/v1_VE250_randls_9.json,http://54.235.29.9/FacialAge/BNav_EC2/DepthDuration/v2_depth_duration_MTurk/v2_DepthDuration_HTML.html#23,23,1440,789,1440,900,8-20-2022,11-14-32,139,depth_duration_stimuli/000635_2014-06-08_16-38-42_260595134347_rgbf000106-resize_1/000635_2014-06-08_16-38-42_260595134347_rgbf000106-resize_1-target.png,250,2.074,1,4386,249,feet,jsons/v1_VE250_randls_9.json,614225,1605621,35,Man
139,442083,DepthScenes,duration_manipulation_targetAtFixation,jsons/v1_VE250_randls_9.json,http://54.235.29.9/FacialAge/BNav_EC2/DepthDuration/v2_depth_duration_MTurk/v2_DepthDuration_HTML.html#23,23,1440,789,1440,900,8-20-2022,11-14-32,140,depth_duration_stimuli/000906_2014-06-08_13-35-43_260595134347_rgbf000155-resize_1/000906_2014-06-08_13-35-43_260595134347_rgbf000155-resize_1-target.png,250,2.8489999999999998,1,2151,239,feet,jsons/v1_VE250_randls_9.json,614225,1605621,35,Man
140,442083,DepthScenes,duration_manipulation_targetAtFixation,jsons/v1_VE250_randls_9.json,http://54.235.29.9/FacialAge/BNav_EC2/DepthDuration/v2_depth_duration_MTurk/v2_DepthDuration_HTML.html#23,23,1440,789,1440,900,8-20-2022,11-14-32,141,depth_duration_stimuli/002805_2014-06-22_19-54-03_094959634447_rgbf000079-resize_1/002805_2014-06-22_19-54-03_094959634447_rgbf000079-resize_1-target.png,250,3.1439999999999997,0,2178,251,feet,jsons/v1_VE250_randls_9.json,614225,1605621,35,Man
141,442083,DepthScenes,duration_manipulation_targetAtFixation,jsons/v1_VE250_randls_9.json,http://54.235.29.9/FacialAge/BNav_EC2/DepthDuration/v2_depth_duration_MTurk/v2_DepthDuration_HTML.html#23,23,1440,789,1440,900,8-20-2022,11-14-32,142,depth_duration_stimuli/003292_2014-05-14_21-53-49_094959634447_rgbf000100-resize_2/003292_2014-05-14_21-53-49_094959634447_rgbf000100-resize_2-target.png,250,3.4815,1,3875,250,feet,jsons/v1_VE250_randls_9.json,614225,1605621,35,Man
142,442083,DepthScenes,duration_manipulation_targetAtFixation,jsons/v1_VE250_randls_9.json,http://54.235.29.9/FacialAge/BNav_EC2/DepthDuration/v2_depth_duration_MTurk/v2_DepthDuration_HTML.html#23,23,1440,789,1440,900,8-20-2022,11-14-32,143,depth_duration_stimuli/002639_2014-06-24_14-51-37_094959634447_rgbf000074-resize_4/002639_2014-06-24_14-51-37_094959634447_rgbf000074-resize_4-target.png,250,4.0375,1,2789,250,feet,jsons/v1_VE250_randls_9.json,614225,1605621,35,Man
143,442083,DepthScenes,duration_manipulation_targetAtFixation,jsons/v1_VE250_randls_9.json,http://54.235.29.9/FacialAge/BNav_EC2/DepthDuration/v2_depth_duration_MTurk/v2_DepthDuration_HTML.html#23,23,1440,789,1440,900,8-20-2022,11-14-32,144,depth_duration_stimuli/001570_2014-06-20_17-21-09_260595134347_rgbf000135-resize_4/001570_2014-06-20_17-21-09_260595134347_rgbf000135-resize_4-target.png,250,4.467,1,4419,251,feet,jsons/v1_VE250_randls_9.json,614225,1605621,35,Man
144,442083,DepthScenes,duration_manipulation_targetAtFixation,jsons/v1_VE250_randls_9.json,http://54.235.29.9/FacialAge/BNav_EC2/DepthDuration/v2_depth_duration_MTurk/v2_DepthDuration_HTML.html#23,23,1440,789,1440,900,8-20-2022,11-14-32,145,depth_duration_stimuli/001392_2014-06-19_16-07-59_260595134347_rgbf000046-resize_1/001392_2014-06-19_16-07-59_260595134347_rgbf000046-resize_1-target.png,250,4.135,1,43298,251,feet,jsons/v1_VE250_randls_9.json,614225,1605621,35,Man
145,442083,DepthScenes,duration_manipulation_targetAtFixation,jsons/v1_VE250_randls_9.json,http://54.235.29.9/FacialAge/BNav_EC2/DepthDuration/v2_depth_duration_MTurk/v2_DepthDuration_HTML.html#23,23,1440,789,1440,900,8-20-2022,11-14-32,146,depth_duration_stimuli/001498_2014-06-19_17-45-14_260595134347_rgbf000129-resize_4/001498_2014-06-19_17-45-14_260595134347_rgbf000129-resize-original.jpg,250,1.4075,0,2947,251,feet,jsons/v1_VE250_randls_9.json,614225,1605621,35,Man
146,442083,DepthScenes,duration_manipulation_targetAtFixation,jsons/v1_VE250_randls_9.json,http://54.235.29.9/FacialAge/BNav_EC2/DepthDuration/v2_depth_duration_MTurk/v2_DepthDuration_HTML.html#23,23,1440,789,1440,900,8-20-2022,11-14-32,147,depth_duration_stimuli/002989_2014-06-15_12-25-03_094959634447_rgbf000150-resize_3/002989_2014-06-15_12-25-03_094959634447_rgbf000150-resize_3-target.png,250,4.1975,1,1970,256,feet,jsons/v1_VE250_randls_9.json,614225,1605621,35,Man
147,442083,DepthScenes,duration_manipulation_targetAtFixation,jsons/v1_VE250_randls_9.json,http://54.235.29.9/FacialAge/BNav_EC2/DepthDuration/v2_depth_duration_MTurk/v2_DepthDuration_HTML.html#23,23,1440,789,1440,900,8-20-2022,11-14-32,148,depth_duration_stimuli/000866_2014-06-09_20-45-42_260595134347_rgbf000139-resize_1/000866_2014-06-09_20-45-42_260595134347_rgbf000139-resize_1-target.png,250,3.2155,1,1963,249,feet,jsons/v1_VE250_randls_9.json,614225,1605621,35,Man
148,442083,DepthScenes,duration_manipulation_targetAtFixation,jsons/v1_VE250_randls_9.json,http://54.235.29.9/FacialAge/BNav_EC2/DepthDuration/v2_depth_duration_MTurk/v2_DepthDuration_HTML.html#23,23,1440,789,1440,900,8-20-2022,11-14-32,149,depth_duration_stimuli/000506_2014-06-08_23-21-00_260595134347_rgbf000070-resize_7/000506_2014-06-08_23-21-00_260595134347_rgbf000070-resize_7-target.png,250,4.0585,1,1922,249,feet,jsons/v1_VE250_randls_9.json,614225,1605621,35,Man
149,442083,DepthScenes,duration_manipulation_targetAtFixation,jsons/v1_VE250_randls_9.json,http://54.235.29.9/FacialAge/BNav_EC2/DepthDuration/v2_depth_duration_MTurk/v2_DepthDuration_HTML.html#23,23,1440,789,1440,900,8-20-2022,11-14-32,150,depth_duration_stimuli/003079_2014-06-15_15-18-20_094959634447_rgbf000152-resize_8/003079_2014-06-15_15-18-20_094959634447_rgbf000152-resize_8-target.png,250,2.8775,1,1935,246,feet,jsons/v1_VE250_randls_9.json,614225,1605621,35,Man
150,442083,DepthScenes,duration_manipulation_targetAtFixation,jsons/v1_VE250_randls_9.json,http://54.235.29.9/FacialAge/BNav_EC2/DepthDuration/v2_depth_duration_MTurk/v2_DepthDuration_HTML.html#23,23,1440,789,1440,900,8-20-2022,11-14-32,151,depth_duration_stimuli/001449_2014-06-19_17-01-27_260595134347_rgbf000116-resize_2/001449_2014-06-19_17-01-27_260595134347_rgbf000116-resize_2-target.png,250,3.452,1,2345,251,feet,jsons/v1_VE250_randls_9.json,614225,1605621,35,Man
151,442083,DepthScenes,duration_manipulation_targetAtFixation,jsons/v1_VE250_randls_9.json,http://54.235.29.9/FacialAge/BNav_EC2/DepthDuration/v2_depth_duration_MTurk/v2_DepthDuration_HTML.html#23,23,1440,789,1440,900,8-20-2022,11-14-32,152,depth_duration_stimuli/001450_2014-06-19_17-02-03_260595134347_rgbf000203-resize_4/001450_2014-06-19_17-02-03_260595134347_rgbf000203-resize_4-target.png,250,4.0106666666667,1,1931,251,feet,jsons/v1_VE250_randls_9.json,614225,1605621,35,Man
152,442083,DepthScenes,duration_manipulation_targetAtFixation,jsons/v1_VE250_randls_9.json,http://54.235.29.9/FacialAge/BNav_EC2/DepthDuration/v2_depth_duration_MTurk/v2_DepthDuration_HTML.html#23,23,1440,789,1440,900,8-20-2022,11-14-32,153,depth_duration_stimuli/000773_2014-06-08_22-24-54_260595134347_rgbf000093-resize_1/000773_2014-06-08_22-24-54_260595134347_rgbf000093-resize_1-target.png,250,4.973,1,1979,251,feet,jsons/v1_VE250_randls_9.json,614225,1605621,35,Man
153,442083,DepthScenes,duration_manipulation_targetAtFixation,jsons/v1_VE250_randls_9.json,http://54.235.29.9/FacialAge/BNav_EC2/DepthDuration/v2_depth_duration_MTurk/v2_DepthDuration_HTML.html#23,23,1440,789,1440,900,8-20-2022,11-14-32,154,depth_duration_stimuli/002414_2014-06-28_20-24-58_260595134347_rgbf000067-resize_4/002414_2014-06-28_20-24-58_260595134347_rgbf000067-resize_4-target.png,250,4.363,1,2003,249,feet,jsons/v1_VE250_randls_9.json,614225,1605621,35,Man
154,442083,DepthScenes,duration_manipulation_targetAtFixation,jsons/v1_VE250_randls_9.json,http://54.235.29.9/FacialAge/BNav_EC2/DepthDuration/v2_depth_duration_MTurk/v2_DepthDuration_HTML.html#23,23,1440,789,1440,900,8-20-2022,11-14-32,155,depth_duration_stimuli/002630_2014-06-24_14-47-50_094959634447_rgbf000055-resize_1/002630_2014-06-24_14-47-50_094959634447_rgbf000055-resize_1-target.png,250,3.0095,1,5032,249,feet,jsons/v1_VE250_randls_9.json,614225,1605621,35,Man
155,442083,DepthScenes,duration_manipulation_targetAtFixation,jsons/v1_VE250_randls_9.json,http://54.235.29.9/FacialAge/BNav_EC2/DepthDuration/v2_depth_duration_MTurk/v2_DepthDuration_HTML.html#23,23,1440,789,1440,900,8-20-2022,11-14-32,156,depth_duration_stimuli/002758_2014-06-22_19-11-20_094959634447_rgbf000128-resize_1/002758_2014-06-22_19-11-20_094959634447_rgbf000128-resize_1-target.png,250,2.555,1,6164,251,feet,jsons/v1_VE250_randls_9.json,614225,1605621,35,Man
156,442083,DepthScenes,duration_manipulation_targetAtFixation,jsons/v1_VE250_randls_9.json,http://54.235.29.9/FacialAge/BNav_EC2/DepthDuration/v2_depth_duration_MTurk/v2_DepthDuration_HTML.html#23,23,1440,789,1440,900,8-20-2022,11-14-32,157,depth_duration_stimuli/000447_2014-06-08_16-15-46_260595134347_rgbf000130-resize_1/000447_2014-06-08_16-15-46_260595134347_rgbf000130-resize_1-target.png,250,4.479,0,2537,251,feet,jsons/v1_VE250_randls_9.json,614225,1605621,35,Man
157,442083,DepthScenes,duration_manipulation_targetAtFixation,jsons/v1_VE250_randls_9.json,http://54.235.29.9/FacialAge/BNav_EC2/DepthDuration/v2_depth_duration_MTurk/v2_DepthDuration_HTML.html#23,23,1440,789,1440,900,8-20-2022,11-14-32,158,depth_duration_stimuli/001447_2014-06-19_17-00-32_260595134347_rgbf000082-resize_5/001447_2014-06-19_17-00-32_260595134347_rgbf000082-resize_5-target.png,250,4.13775,1,2394,250,feet,jsons/v1_VE250_randls_9.json,614225,1605621,35,Man
158,442083,DepthScenes,duration_manipulation_targetAtFixation,jsons/v1_VE250_randls_9.json,http://54.235.29.9/FacialAge/BNav_EC2/DepthDuration/v2_depth_duration_MTurk/v2_DepthDuration_HTML.html#23,23,1440,789,1440,900,8-20-2022,11-14-32,159,depth_duration_stimuli/000414_2014-06-04_19-49-13_260595134347_rgbf000044-resize_0/000414_2014-06-04_19-49-13_260595134347_rgbf000044-resize_0-target.png,250,4.329,1,2058,250,feet,jsons/v1_VE250_randls_9.json,614225,1605621,35,Man
159,442083,DepthScenes,duration_manipulation_targetAtFixation,jsons/v1_VE250_randls_9.json,http://54.235.29.9/FacialAge/BNav_EC2/DepthDuration/v2_depth_duration_MTurk/v2_DepthDuration_HTML.html#23,23,1440,789,1440,900,8-20-2022,11-14-32,160,depth_duration_stimuli/003129_2014-05-12_10-48-10_094959634447_rgbf000100-resize_0/003129_2014-05-12_10-48-10_094959634447_rgbf000100-resize_0-target.png,250,4.9305,1,1913,250,feet,jsons/v1_VE250_randls_9.json,614225,1605621,35,Man
160,442083,DepthScenes,duration_manipulation_targetAtFixation,jsons/v1_VE250_randls_9.json,http://54.235.29.9/FacialAge/BNav_EC2/DepthDuration/v2_depth_duration_MTurk/v2_DepthDuration_HTML.html#23,23,1440,789,1440,900,8-20-2022,11-14-32,161,depth_duration_stimuli/002725_2014-06-22_11-47-51_094959634447_rgbf000070-resize_1/002725_2014-06-22_11-47-51_094959634447_rgbf000070-resize_1-target.png,250,2.195,1,2275,244,feet,jsons/v1_VE250_randls_9.json,614225,1605621,35,Man
161,442083,DepthScenes,duration_manipulation_targetAtFixation,jsons/v1_VE250_randls_9.json,http://54.235.29.9/FacialAge/BNav_EC2/DepthDuration/v2_depth_duration_MTurk/v2_DepthDuration_HTML.html#23,23,1440,789,1440,900,8-20-2022,11-14-32,162,depth_duration_stimuli/002344_2014-06-28_20-06-29_260595134347_rgbf000030-resize_1/002344_2014-06-28_20-06-29_260595134347_rgbf000030-resize_1-target.png,250,1.5795,1,1964,252,feet,jsons/v1_VE250_randls_9.json,614225,1605621,35,Man
162,442083,DepthScenes,duration_manipulation_targetAtFixation,jsons/v1_VE250_randls_9.json,http://54.235.29.9/FacialAge/BNav_EC2/DepthDuration/v2_depth_duration_MTurk/v2_DepthDuration_HTML.html#23,23,1440,789,1440,900,8-20-2022,11-14-32,163,depth_duration_stimuli/001175_2014-06-17_15-45-55_260595134347_rgbf000129-resize_4/001175_2014-06-17_15-45-55_260595134347_rgbf000129-resize_4-target.png,250,4.255,1,2067,251,feet,jsons/v1_VE250_randls_9.json,614225,1605621,35,Man
163,442083,DepthScenes,duration_manipulation_targetAtFixation,jsons/v1_VE250_randls_9.json,http://54.235.29.9/FacialAge/BNav_EC2/DepthDuration/v2_depth_duration_MTurk/v2_DepthDuration_HTML.html#23,23,1440,789,1440,900,8-20-2022,11-14-32,164,depth_duration_stimuli/003490_2014-05-21_15-50-11_094959634447_rgbf000101-resize_3/003490_2014-05-21_15-50-11_094959634447_rgbf000101-resize_3-target.png,250,3.6445,1,2128,248,feet,jsons/v1_VE250_randls_9.json,614225,1605621,35,Man
