,subjID,experimentName,versionName,sequenceName,url,selected_row,windowWidth,windowHeight,screenWidth,screenHeight,startDate,startTime,trial,stimulus,duration,actual_depth,depth_estimate,trial_RT,log_sceneDuration,unitSelection,seq_filepath,experimentTime,totalTime,age,gender
0,443302,DepthScenes,duration_manipulation_targetAtFixation,jsons/VE125_randls_26_rotated.json,http://54.235.29.9/FacialAge/BNav_EC2/DepthDuration/v2_depth_duration_MTurk/v2_DepthDuration_HTML.html#96,96,1920,937,1920,1080,8-21-2022,9-56-52,1,depth_duration_stimuli/002323_2014-06-28_20-01-54_260595134347_rgbf000051-resize_4/002323_2014-06-28_20-01-54_260595134347_rgbf000051-resize_4-target.png,125,3.7310000000000003,8,2176,123,feet,jsons/VE125_randls_26_rotated.json,419828,605345,41,Man
1,443302,DepthScenes,duration_manipulation_targetAtFixation,jsons/VE125_randls_26_rotated.json,http://54.235.29.9/FacialAge/BNav_EC2/DepthDuration/v2_depth_duration_MTurk/v2_DepthDuration_HTML.html#96,96,1920,937,1920,1080,8-21-2022,9-56-52,2,depth_duration_stimuli/000917_2014-06-09_22-45-29_260595134347_rgbf000149-resize_3/000917_2014-06-09_22-45-29_260595134347_rgbf000149-resize_3-target.png,125,4.1865,6,1701,124,feet,jsons/VE125_randls_26_rotated.json,419828,605345,41,Man
2,443302,DepthScenes,duration_manipulation_targetAtFixation,jsons/VE125_randls_26_rotated.json,http://54.235.29.9/FacialAge/BNav_EC2/DepthDuration/v2_depth_duration_MTurk/v2_DepthDuration_HTML.html#96,96,1920,937,1920,1080,8-21-2022,9-56-52,3,depth_duration_stimuli/002340_2014-06-28_20-05-46_260595134347_rgbf000113-resize_0/002340_2014-06-28_20-05-46_260595134347_rgbf000113-resize_0-target.png,125,2.4735,5,2344,125,feet,jsons/VE125_randls_26_rotated.json,419828,605345,41,Man
3,443302,DepthScenes,duration_manipulation_targetAtFixation,jsons/VE125_randls_26_rotated.json,http://54.235.29.9/FacialAge/BNav_EC2/DepthDuration/v2_depth_duration_MTurk/v2_DepthDuration_HTML.html#96,96,1920,937,1920,1080,8-21-2022,9-56-52,4,depth_duration_stimuli/001016_2014-06-09_16-16-10_260595134347_rgbf000112-resize_5/001016_2014-06-09_16-16-10_260595134347_rgbf000112-resize_5-target.png,125,1.6565,4,1818,126,feet,jsons/VE125_randls_26_rotated.json,419828,605345,41,Man
4,443302,DepthScenes,duration_manipulation_targetAtFixation,jsons/VE125_randls_26_rotated.json,http://54.235.29.9/FacialAge/BNav_EC2/DepthDuration/v2_depth_duration_MTurk/v2_DepthDuration_HTML.html#96,96,1920,937,1920,1080,8-21-2022,9-56-52,5,depth_duration_stimuli/001828_2014-06-26_21-40-03_260595134347_rgbf000024-resize_0/001828_2014-06-26_21-40-03_260595134347_rgbf000024-resize_0-target.png,125,4.8260000000000005,4,2816,125,feet,jsons/VE125_randls_26_rotated.json,419828,605345,41,Man
5,443302,DepthScenes,duration_manipulation_targetAtFixation,jsons/VE125_randls_26_rotated.json,http://54.235.29.9/FacialAge/BNav_EC2/DepthDuration/v2_depth_duration_MTurk/v2_DepthDuration_HTML.html#96,96,1920,937,1920,1080,8-21-2022,9-56-52,6,depth_duration_stimuli/000009_2014-05-26_14-32-05_260595134347_rgbf000034-resize_3/000009_2014-05-26_14-32-05_260595134347_rgbf000034-resize_3-target.png,125,3.8715,10,1950,124,feet,jsons/VE125_randls_26_rotated.json,419828,605345,41,Man
6,443302,DepthScenes,duration_manipulation_targetAtFixation,jsons/VE125_randls_26_rotated.json,http://54.235.29.9/FacialAge/BNav_EC2/DepthDuration/v2_depth_duration_MTurk/v2_DepthDuration_HTML.html#96,96,1920,937,1920,1080,8-21-2022,9-56-52,7,depth_duration_stimuli/002103_2014-06-25_20-00-40_260595134347_rgbf000049-resize_0/002103_2014-06-25_20-00-40_260595134347_rgbf000049-resize_0-target.png,125,4.105,6,1680,124,feet,jsons/VE125_randls_26_rotated.json,419828,605345,41,Man
7,443302,DepthScenes,duration_manipulation_targetAtFixation,jsons/VE125_randls_26_rotated.json,http://54.235.29.9/FacialAge/BNav_EC2/DepthDuration/v2_depth_duration_MTurk/v2_DepthDuration_HTML.html#96,96,1920,937,1920,1080,8-21-2022,9-56-52,8,depth_duration_stimuli/002039_2014-06-24_20-22-38_260595134347_rgbf000084-resize_1/002039_2014-06-24_20-22-38_260595134347_rgbf000084-resize_1-target.png,125,4.408,5,1781,123,feet,jsons/VE125_randls_26_rotated.json,419828,605345,41,Man
8,443302,DepthScenes,duration_manipulation_targetAtFixation,jsons/VE125_randls_26_rotated.json,http://54.235.29.9/FacialAge/BNav_EC2/DepthDuration/v2_depth_duration_MTurk/v2_DepthDuration_HTML.html#96,96,1920,937,1920,1080,8-21-2022,9-56-52,9,depth_duration_stimuli/000635_2014-06-08_16-38-42_260595134347_rgbf000106-resize_1/000635_2014-06-08_16-38-42_260595134347_rgbf000106-resize_1-target.png,125,2.074,8,1963,125,feet,jsons/VE125_randls_26_rotated.json,419828,605345,41,Man
9,443302,DepthScenes,duration_manipulation_targetAtFixation,jsons/VE125_randls_26_rotated.json,http://54.235.29.9/FacialAge/BNav_EC2/DepthDuration/v2_depth_duration_MTurk/v2_DepthDuration_HTML.html#96,96,1920,937,1920,1080,8-21-2022,9-56-52,10,depth_duration_stimuli/002279_2014-06-28_18-55-32_260595134347_rgbf000040-resize_5/002279_2014-06-28_18-55-32_260595134347_rgbf000040-resize_5-target.png,125,1.5043333333333,3,1748,123,feet,jsons/VE125_randls_26_rotated.json,419828,605345,41,Man
10,443302,DepthScenes,duration_manipulation_targetAtFixation,jsons/VE125_randls_26_rotated.json,http://54.235.29.9/FacialAge/BNav_EC2/DepthDuration/v2_depth_duration_MTurk/v2_DepthDuration_HTML.html#96,96,1920,937,1920,1080,8-21-2022,9-56-52,11,depth_duration_stimuli/003338_2014-05-20_11-01-23_094959634447_rgbf000051-resize_6/003338_2014-05-20_11-01-23_094959634447_rgbf000051-resize_6-target.png,125,1.693,6,1635,125,feet,jsons/VE125_randls_26_rotated.json,419828,605345,41,Man
11,443302,DepthScenes,duration_manipulation_targetAtFixation,jsons/VE125_randls_26_rotated.json,http://54.235.29.9/FacialAge/BNav_EC2/DepthDuration/v2_depth_duration_MTurk/v2_DepthDuration_HTML.html#96,96,1920,937,1920,1080,8-21-2022,9-56-52,12,depth_duration_stimuli/002509_2014-06-24_13-19-22_094959634447_rgbf000077-resize_0/002509_2014-06-24_13-19-22_094959634447_rgbf000077-resize_0-target.png,125,1.3065,2,3503,125,feet,jsons/VE125_randls_26_rotated.json,419828,605345,41,Man
12,443302,DepthScenes,duration_manipulation_targetAtFixation,jsons/VE125_randls_26_rotated.json,http://54.235.29.9/FacialAge/BNav_EC2/DepthDuration/v2_depth_duration_MTurk/v2_DepthDuration_HTML.html#96,96,1920,937,1920,1080,8-21-2022,9-56-52,13,depth_duration_stimuli/000854_2014-06-09_19-43-13_260595134347_rgbf000066-resize_0/000854_2014-06-09_19-43-13_260595134347_rgbf000066-resize_0-target.png,125,3.068,3,1974,123,feet,jsons/VE125_randls_26_rotated.json,419828,605345,41,Man
13,443302,DepthScenes,duration_manipulation_targetAtFixation,jsons/VE125_randls_26_rotated.json,http://54.235.29.9/FacialAge/BNav_EC2/DepthDuration/v2_depth_duration_MTurk/v2_DepthDuration_HTML.html#96,96,1920,937,1920,1080,8-21-2022,9-56-52,14,depth_duration_stimuli/000758_2014-06-08_22-05-08_260595134347_rgbf000085-resize_0/000758_2014-06-08_22-05-08_260595134347_rgbf000085-resize_0-target.png,125,3.3810000000000002,6,2162,123,feet,jsons/VE125_randls_26_rotated.json,419828,605345,41,Man
14,443302,DepthScenes,duration_manipulation_targetAtFixation,jsons/VE125_randls_26_rotated.json,http://54.235.29.9/FacialAge/BNav_EC2/DepthDuration/v2_depth_duration_MTurk/v2_DepthDuration_HTML.html#96,96,1920,937,1920,1080,8-21-2022,9-56-52,15,depth_duration_stimuli/001447_2014-06-19_17-00-32_260595134347_rgbf000082-resize_5/001447_2014-06-19_17-00-32_260595134347_rgbf000082-resize_5-target.png,125,4.13775,4,1952,124,feet,jsons/VE125_randls_26_rotated.json,419828,605345,41,Man
15,443302,DepthScenes,duration_manipulation_targetAtFixation,jsons/VE125_randls_26_rotated.json,http://54.235.29.9/FacialAge/BNav_EC2/DepthDuration/v2_depth_duration_MTurk/v2_DepthDuration_HTML.html#96,96,1920,937,1920,1080,8-21-2022,9-56-52,16,depth_duration_stimuli/000447_2014-06-08_16-15-46_260595134347_rgbf000130-resize_1/000447_2014-06-08_16-15-46_260595134347_rgbf000130-resize_1-target.png,125,4.479,9,1861,124,feet,jsons/VE125_randls_26_rotated.json,419828,605345,41,Man
16,443302,DepthScenes,duration_manipulation_targetAtFixation,jsons/VE125_randls_26_rotated.json,http://54.235.29.9/FacialAge/BNav_EC2/DepthDuration/v2_depth_duration_MTurk/v2_DepthDuration_HTML.html#96,96,1920,937,1920,1080,8-21-2022,9-56-52,17,depth_duration_stimuli/001571_2014-06-20_17-21-32_260595134347_rgbf000089-resize_1/001571_2014-06-20_17-21-32_260595134347_rgbf000089-resize_1-target.png,125,1.86,4,2997,124,feet,jsons/VE125_randls_26_rotated.json,419828,605345,41,Man
17,443302,DepthScenes,duration_manipulation_targetAtFixation,jsons/VE125_randls_26_rotated.json,http://54.235.29.9/FacialAge/BNav_EC2/DepthDuration/v2_depth_duration_MTurk/v2_DepthDuration_HTML.html#96,96,1920,937,1920,1080,8-21-2022,9-56-52,18,depth_duration_stimuli/002272_2014-06-28_18-53-56_260595134347_rgbf000067-resize_2/002272_2014-06-28_18-53-56_260595134347_rgbf000067-resize_2-target.png,125,1.138,6,2277,125,feet,jsons/VE125_randls_26_rotated.json,419828,605345,41,Man
18,443302,DepthScenes,duration_manipulation_targetAtFixation,jsons/VE125_randls_26_rotated.json,http://54.235.29.9/FacialAge/BNav_EC2/DepthDuration/v2_depth_duration_MTurk/v2_DepthDuration_HTML.html#96,96,1920,937,1920,1080,8-21-2022,9-56-52,19,depth_duration_stimuli/001498_2014-06-19_17-45-14_260595134347_rgbf000129-resize_4/001498_2014-06-19_17-45-14_260595134347_rgbf000129-resize-original.jpg,125,1.4075,0,1524,125,feet,jsons/VE125_randls_26_rotated.json,419828,605345,41,Man
19,443302,DepthScenes,duration_manipulation_targetAtFixation,jsons/VE125_randls_26_rotated.json,http://54.235.29.9/FacialAge/BNav_EC2/DepthDuration/v2_depth_duration_MTurk/v2_DepthDuration_HTML.html#96,96,1920,937,1920,1080,8-21-2022,9-56-52,20,depth_duration_stimuli/001136_2014-06-17_15-19-41_260595134347_rgbf000076-resize_3/001136_2014-06-17_15-19-41_260595134347_rgbf000076-resize_3-target.png,125,1.8655,4,2050,123,feet,jsons/VE125_randls_26_rotated.json,419828,605345,41,Man
20,443302,DepthScenes,duration_manipulation_targetAtFixation,jsons/VE125_randls_26_rotated.json,http://54.235.29.9/FacialAge/BNav_EC2/DepthDuration/v2_depth_duration_MTurk/v2_DepthDuration_HTML.html#96,96,1920,937,1920,1080,8-21-2022,9-56-52,21,depth_duration_stimuli/001164_2014-06-17_15-35-46_260595134347_rgbf000085-resize_3/001164_2014-06-17_15-35-46_260595134347_rgbf000085-resize_3-target.png,125,2.354,6,2031,125,feet,jsons/VE125_randls_26_rotated.json,419828,605345,41,Man
21,443302,DepthScenes,duration_manipulation_targetAtFixation,jsons/VE125_randls_26_rotated.json,http://54.235.29.9/FacialAge/BNav_EC2/DepthDuration/v2_depth_duration_MTurk/v2_DepthDuration_HTML.html#96,96,1920,937,1920,1080,8-21-2022,9-56-52,22,depth_duration_stimuli/001052_2014-06-08_18-24-54_260595134347_rgbf000130-resize_1/001052_2014-06-08_18-24-54_260595134347_rgbf000130-resize_1-target.png,125,4.1045,9,1828,125,feet,jsons/VE125_randls_26_rotated.json,419828,605345,41,Man
22,443302,DepthScenes,duration_manipulation_targetAtFixation,jsons/VE125_randls_26_rotated.json,http://54.235.29.9/FacialAge/BNav_EC2/DepthDuration/v2_depth_duration_MTurk/v2_DepthDuration_HTML.html#96,96,1920,937,1920,1080,8-21-2022,9-56-52,23,depth_duration_stimuli/002988_2014-06-15_12-24-20_094959634447_rgbf000150-resize_1/002988_2014-06-15_12-24-20_094959634447_rgbf000150-resize_1-target.png,125,4.7669999999999995,12,2153,125,feet,jsons/VE125_randls_26_rotated.json,419828,605345,41,Man
23,443302,DepthScenes,duration_manipulation_targetAtFixation,jsons/VE125_randls_26_rotated.json,http://54.235.29.9/FacialAge/BNav_EC2/DepthDuration/v2_depth_duration_MTurk/v2_DepthDuration_HTML.html#96,96,1920,937,1920,1080,8-21-2022,9-56-52,24,depth_duration_stimuli/003423_2014-05-21_10-23-26_094959634447_rgbf002665-resize_2/003423_2014-05-21_10-23-26_094959634447_rgbf002665-resize_2-target.png,125,3.2575,15,2863,124,feet,jsons/VE125_randls_26_rotated.json,419828,605345,41,Man
24,443302,DepthScenes,duration_manipulation_targetAtFixation,jsons/VE125_randls_26_rotated.json,http://54.235.29.9/FacialAge/BNav_EC2/DepthDuration/v2_depth_duration_MTurk/v2_DepthDuration_HTML.html#96,96,1920,937,1920,1080,8-21-2022,9-56-52,25,depth_duration_stimuli/002905_2014-06-03_18-04-43_094959634447_rgbf000151-resize_2/002905_2014-06-03_18-04-43_094959634447_rgbf000151-resize_2-target.png,125,2.0295,4,1634,124,feet,jsons/VE125_randls_26_rotated.json,419828,605345,41,Man
25,443302,DepthScenes,duration_manipulation_targetAtFixation,jsons/VE125_randls_26_rotated.json,http://54.235.29.9/FacialAge/BNav_EC2/DepthDuration/v2_depth_duration_MTurk/v2_DepthDuration_HTML.html#96,96,1920,937,1920,1080,8-21-2022,9-56-52,26,depth_duration_stimuli/001094_2014-06-15_17-36-00_260595134347_rgbf000205-resize_0/001094_2014-06-15_17-36-00_260595134347_rgbf000205-resize_0-target.png,125,4.2175,8,1987,125,feet,jsons/VE125_randls_26_rotated.json,419828,605345,41,Man
26,443302,DepthScenes,duration_manipulation_targetAtFixation,jsons/VE125_randls_26_rotated.json,http://54.235.29.9/FacialAge/BNav_EC2/DepthDuration/v2_depth_duration_MTurk/v2_DepthDuration_HTML.html#96,96,1920,937,1920,1080,8-21-2022,9-56-52,27,depth_duration_stimuli/000692_2014-06-08_13-09-42_260595134347_rgbf000199-resize_2/000692_2014-06-08_13-09-42_260595134347_rgbf000199-resize_2-target.png,125,3.661,15,2164,123,feet,jsons/VE125_randls_26_rotated.json,419828,605345,41,Man
27,443302,DepthScenes,duration_manipulation_targetAtFixation,jsons/VE125_randls_26_rotated.json,http://54.235.29.9/FacialAge/BNav_EC2/DepthDuration/v2_depth_duration_MTurk/v2_DepthDuration_HTML.html#96,96,1920,937,1920,1080,8-21-2022,9-56-52,28,depth_duration_stimuli/000109_2014-05-14_23-41-52_260595134347_rgbf000035-resize_9/000109_2014-05-14_23-41-52_260595134347_rgbf000035-resize_9-target.png,125,1.3545,3,3482,125,feet,jsons/VE125_randls_26_rotated.json,419828,605345,41,Man
28,443302,DepthScenes,duration_manipulation_targetAtFixation,jsons/VE125_randls_26_rotated.json,http://54.235.29.9/FacialAge/BNav_EC2/DepthDuration/v2_depth_duration_MTurk/v2_DepthDuration_HTML.html#96,96,1920,937,1920,1080,8-21-2022,9-56-52,29,depth_duration_stimuli/000470_2014-06-09_19-42-40_260595134347_rgbf000094-resize_1/000470_2014-06-09_19-42-40_260595134347_rgbf000094-resize_1-target.png,125,1.831,3,1872,123,feet,jsons/VE125_randls_26_rotated.json,419828,605345,41,Man
29,443302,DepthScenes,duration_manipulation_targetAtFixation,jsons/VE125_randls_26_rotated.json,http://54.235.29.9/FacialAge/BNav_EC2/DepthDuration/v2_depth_duration_MTurk/v2_DepthDuration_HTML.html#96,96,1920,937,1920,1080,8-21-2022,9-56-52,30,depth_duration_stimuli/002072_2014-06-24_21-48-06_260595134347_rgbf000115-resize_0/002072_2014-06-24_21-48-06_260595134347_rgbf000115-resize-original.jpg,125,4.702,0,1580,124,feet,jsons/VE125_randls_26_rotated.json,419828,605345,41,Man
30,443302,DepthScenes,duration_manipulation_targetAtFixation,jsons/VE125_randls_26_rotated.json,http://54.235.29.9/FacialAge/BNav_EC2/DepthDuration/v2_depth_duration_MTurk/v2_DepthDuration_HTML.html#96,96,1920,937,1920,1080,8-21-2022,9-56-52,31,depth_duration_stimuli/002660_2014-06-13_15-44-18_094959634447_rgbf001878-resize_2/002660_2014-06-13_15-44-18_094959634447_rgbf001878-resize_2-target.png,125,3.576,7,3019,125,feet,jsons/VE125_randls_26_rotated.json,419828,605345,41,Man
31,443302,DepthScenes,duration_manipulation_targetAtFixation,jsons/VE125_randls_26_rotated.json,http://54.235.29.9/FacialAge/BNav_EC2/DepthDuration/v2_depth_duration_MTurk/v2_DepthDuration_HTML.html#96,96,1920,937,1920,1080,8-21-2022,9-56-52,32,depth_duration_stimuli/002153_2014-06-25_21-27-18_260595134347_rgbf000038-resize_5/002153_2014-06-25_21-27-18_260595134347_rgbf000038-resize_5-target.png,125,2.505,6,1614,125,feet,jsons/VE125_randls_26_rotated.json,419828,605345,41,Man
32,443302,DepthScenes,duration_manipulation_targetAtFixation,jsons/VE125_randls_26_rotated.json,http://54.235.29.9/FacialAge/BNav_EC2/DepthDuration/v2_depth_duration_MTurk/v2_DepthDuration_HTML.html#96,96,1920,937,1920,1080,8-21-2022,9-56-52,33,depth_duration_stimuli/000677_2014-06-08_23-10-32_260595134347_rgbf000158-resize_6/000677_2014-06-08_23-10-32_260595134347_rgbf000158-resize_6-target.png,125,3.556,5,1862,123,feet,jsons/VE125_randls_26_rotated.json,419828,605345,41,Man
33,443302,DepthScenes,duration_manipulation_targetAtFixation,jsons/VE125_randls_26_rotated.json,http://54.235.29.9/FacialAge/BNav_EC2/DepthDuration/v2_depth_duration_MTurk/v2_DepthDuration_HTML.html#96,96,1920,937,1920,1080,8-21-2022,9-56-52,34,depth_duration_stimuli/001029_2014-06-08_13-17-57_260595134347_rgbf000065-resize_1/001029_2014-06-08_13-17-57_260595134347_rgbf000065-resize_1-target.png,125,3.0835,8,2332,123,feet,jsons/VE125_randls_26_rotated.json,419828,605345,41,Man
34,443302,DepthScenes,duration_manipulation_targetAtFixation,jsons/VE125_randls_26_rotated.json,http://54.235.29.9/FacialAge/BNav_EC2/DepthDuration/v2_depth_duration_MTurk/v2_DepthDuration_HTML.html#96,96,1920,937,1920,1080,8-21-2022,9-56-52,35,depth_duration_stimuli/000549_2014-06-08_22-10-24_260595134347_rgbf000247-resize_3/000549_2014-06-08_22-10-24_260595134347_rgbf000247-resize_3-target.png,125,1.841,4,2190,124,feet,jsons/VE125_randls_26_rotated.json,419828,605345,41,Man
35,443302,DepthScenes,duration_manipulation_targetAtFixation,jsons/VE125_randls_26_rotated.json,http://54.235.29.9/FacialAge/BNav_EC2/DepthDuration/v2_depth_duration_MTurk/v2_DepthDuration_HTML.html#96,96,1920,937,1920,1080,8-21-2022,9-56-52,36,depth_duration_stimuli/001055_2014-06-08_18-45-35_260595134347_rgbf000111-resize_4/001055_2014-06-08_18-45-35_260595134347_rgbf000111-resize_4-target.png,125,2.4290000000000003,8,2624,123,feet,jsons/VE125_randls_26_rotated.json,419828,605345,41,Man
36,443302,DepthScenes,duration_manipulation_targetAtFixation,jsons/VE125_randls_26_rotated.json,http://54.235.29.9/FacialAge/BNav_EC2/DepthDuration/v2_depth_duration_MTurk/v2_DepthDuration_HTML.html#96,96,1920,937,1920,1080,8-21-2022,9-56-52,37,depth_duration_stimuli/001450_2014-06-19_17-02-03_260595134347_rgbf000203-resize_4/001450_2014-06-19_17-02-03_260595134347_rgbf000203-resize_4-target.png,125,4.0106666666667,12,3401,124,feet,jsons/VE125_randls_26_rotated.json,419828,605345,41,Man
37,443302,DepthScenes,duration_manipulation_targetAtFixation,jsons/VE125_randls_26_rotated.json,http://54.235.29.9/FacialAge/BNav_EC2/DepthDuration/v2_depth_duration_MTurk/v2_DepthDuration_HTML.html#96,96,1920,937,1920,1080,8-21-2022,9-56-52,38,depth_duration_stimuli/001449_2014-06-19_17-01-27_260595134347_rgbf000116-resize_2/001449_2014-06-19_17-01-27_260595134347_rgbf000116-resize_2-target.png,125,3.452,7,1703,124,feet,jsons/VE125_randls_26_rotated.json,419828,605345,41,Man
38,443302,DepthScenes,duration_manipulation_targetAtFixation,jsons/VE125_randls_26_rotated.json,http://54.235.29.9/FacialAge/BNav_EC2/DepthDuration/v2_depth_duration_MTurk/v2_DepthDuration_HTML.html#96,96,1920,937,1920,1080,8-21-2022,9-56-52,39,depth_duration_stimuli/002467_2014-06-28_20-38-07_260595134347_rgbf000026-resize_2/002467_2014-06-28_20-38-07_260595134347_rgbf000026-resize_2-target.png,125,4.742,15,2085,125,feet,jsons/VE125_randls_26_rotated.json,419828,605345,41,Man
39,443302,DepthScenes,duration_manipulation_targetAtFixation,jsons/VE125_randls_26_rotated.json,http://54.235.29.9/FacialAge/BNav_EC2/DepthDuration/v2_depth_duration_MTurk/v2_DepthDuration_HTML.html#96,96,1920,937,1920,1080,8-21-2022,9-56-52,40,depth_duration_stimuli/002570_2014-06-24_13-59-54_094959634447_rgbf000059-resize_0/002570_2014-06-24_13-59-54_094959634447_rgbf000059-resize_0-target.png,125,4.037,9,2369,125,feet,jsons/VE125_randls_26_rotated.json,419828,605345,41,Man
40,443302,DepthScenes,duration_manipulation_targetAtFixation,jsons/VE125_randls_26_rotated.json,http://54.235.29.9/FacialAge/BNav_EC2/DepthDuration/v2_depth_duration_MTurk/v2_DepthDuration_HTML.html#96,96,1920,937,1920,1080,8-21-2022,9-56-52,41,depth_duration_stimuli/000137_2014-05-20_17-04-49_260595134347_rgbf000120-resize_1/000137_2014-05-20_17-04-49_260595134347_rgbf000120-resize_1-target.png,125,3.786,10,2265,124,feet,jsons/VE125_randls_26_rotated.json,419828,605345,41,Man
41,443302,DepthScenes,duration_manipulation_targetAtFixation,jsons/VE125_randls_26_rotated.json,http://54.235.29.9/FacialAge/BNav_EC2/DepthDuration/v2_depth_duration_MTurk/v2_DepthDuration_HTML.html#96,96,1920,937,1920,1080,8-21-2022,9-56-52,42,depth_duration_stimuli/000736_2014-06-08_18-24-15_260595134347_rgbf000206-resize_3/000736_2014-06-08_18-24-15_260595134347_rgbf000206-resize_3-target.png,125,3.515,7,1953,125,feet,jsons/VE125_randls_26_rotated.json,419828,605345,41,Man
42,443302,DepthScenes,duration_manipulation_targetAtFixation,jsons/VE125_randls_26_rotated.json,http://54.235.29.9/FacialAge/BNav_EC2/DepthDuration/v2_depth_duration_MTurk/v2_DepthDuration_HTML.html#96,96,1920,937,1920,1080,8-21-2022,9-56-52,43,depth_duration_stimuli/002136_2014-06-25_21-18-03_260595134347_rgbf000109-resize_3/002136_2014-06-25_21-18-03_260595134347_rgbf000109-resize_3-target.png,125,1.9569999999999999,6,1849,123,feet,jsons/VE125_randls_26_rotated.json,419828,605345,41,Man
43,443302,DepthScenes,duration_manipulation_targetAtFixation,jsons/VE125_randls_26_rotated.json,http://54.235.29.9/FacialAge/BNav_EC2/DepthDuration/v2_depth_duration_MTurk/v2_DepthDuration_HTML.html#96,96,1920,937,1920,1080,8-21-2022,9-56-52,44,depth_duration_stimuli/002964_2014-06-08_17-46-11_094959634447_rgbf000091-resize_4/002964_2014-06-08_17-46-11_094959634447_rgbf000091-resize_4-target.png,125,1.6909999999999998,6,1896,125,feet,jsons/VE125_randls_26_rotated.json,419828,605345,41,Man
44,443302,DepthScenes,duration_manipulation_targetAtFixation,jsons/VE125_randls_26_rotated.json,http://54.235.29.9/FacialAge/BNav_EC2/DepthDuration/v2_depth_duration_MTurk/v2_DepthDuration_HTML.html#96,96,1920,937,1920,1080,8-21-2022,9-56-52,45,depth_duration_stimuli/003079_2014-06-15_15-18-20_094959634447_rgbf000152-resize_8/003079_2014-06-15_15-18-20_094959634447_rgbf000152-resize_8-target.png,125,2.8775,10,1915,125,feet,jsons/VE125_randls_26_rotated.json,419828,605345,41,Man
45,443302,DepthScenes,duration_manipulation_targetAtFixation,jsons/VE125_randls_26_rotated.json,http://54.235.29.9/FacialAge/BNav_EC2/DepthDuration/v2_depth_duration_MTurk/v2_DepthDuration_HTML.html#96,96,1920,937,1920,1080,8-21-2022,9-56-52,46,depth_duration_stimuli/000506_2014-06-08_23-21-00_260595134347_rgbf000070-resize_7/000506_2014-06-08_23-21-00_260595134347_rgbf000070-resize_7-target.png,125,4.0585,12,1872,125,feet,jsons/VE125_randls_26_rotated.json,419828,605345,41,Man
46,443302,DepthScenes,duration_manipulation_targetAtFixation,jsons/VE125_randls_26_rotated.json,http://54.235.29.9/FacialAge/BNav_EC2/DepthDuration/v2_depth_duration_MTurk/v2_DepthDuration_HTML.html#96,96,1920,937,1920,1080,8-21-2022,9-56-52,47,depth_duration_stimuli/000502_2014-06-08_23-02-32_260595134347_rgbf000063-resize_4/000502_2014-06-08_23-02-32_260595134347_rgbf000063-resize_4-target.png,125,2.431,4,2199,124,feet,jsons/VE125_randls_26_rotated.json,419828,605345,41,Man
47,443302,DepthScenes,duration_manipulation_targetAtFixation,jsons/VE125_randls_26_rotated.json,http://54.235.29.9/FacialAge/BNav_EC2/DepthDuration/v2_depth_duration_MTurk/v2_DepthDuration_HTML.html#96,96,1920,937,1920,1080,8-21-2022,9-56-52,48,depth_duration_stimuli/001199_2014-06-17_16-03-48_260595134347_rgbf000077-resize_0/001199_2014-06-17_16-03-48_260595134347_rgbf000077-resize_0-target.png,125,3.4375,11,3325,124,feet,jsons/VE125_randls_26_rotated.json,419828,605345,41,Man
48,443302,DepthScenes,duration_manipulation_targetAtFixation,jsons/VE125_randls_26_rotated.json,http://54.235.29.9/FacialAge/BNav_EC2/DepthDuration/v2_depth_duration_MTurk/v2_DepthDuration_HTML.html#96,96,1920,937,1920,1080,8-21-2022,9-56-52,49,depth_duration_stimuli/001170_2014-06-17_15-43-44_260595134347_rgbf000096-resize_6/001170_2014-06-17_15-43-44_260595134347_rgbf000096-resize-original.jpg,125,1.1909999999999998,0,1784,124,feet,jsons/VE125_randls_26_rotated.json,419828,605345,41,Man
49,443302,DepthScenes,duration_manipulation_targetAtFixation,jsons/VE125_randls_26_rotated.json,http://54.235.29.9/FacialAge/BNav_EC2/DepthDuration/v2_depth_duration_MTurk/v2_DepthDuration_HTML.html#96,96,1920,937,1920,1080,8-21-2022,9-56-52,50,depth_duration_stimuli/002199_2014-06-28_18-33-56_260595134347_rgbf000074-resize_0/002199_2014-06-28_18-33-56_260595134347_rgbf000074-resize_0-target.png,125,1.996,3,1749,124,feet,jsons/VE125_randls_26_rotated.json,419828,605345,41,Man
50,443302,DepthScenes,duration_manipulation_targetAtFixation,jsons/VE125_randls_26_rotated.json,http://54.235.29.9/FacialAge/BNav_EC2/DepthDuration/v2_depth_duration_MTurk/v2_DepthDuration_HTML.html#96,96,1920,937,1920,1080,8-21-2022,9-56-52,51,depth_duration_stimuli/001056_2014-06-08_18-46-44_260595134347_rgbf000068-resize_0/001056_2014-06-08_18-46-44_260595134347_rgbf000068-resize_0-target.png,125,2.6625,7,1804,125,feet,jsons/VE125_randls_26_rotated.json,419828,605345,41,Man
51,443302,DepthScenes,duration_manipulation_targetAtFixation,jsons/VE125_randls_26_rotated.json,http://54.235.29.9/FacialAge/BNav_EC2/DepthDuration/v2_depth_duration_MTurk/v2_DepthDuration_HTML.html#96,96,1920,937,1920,1080,8-21-2022,9-56-52,52,depth_duration_stimuli/003081_2014-06-15_15-19-16_094959634447_rgbf000150-resize_1/003081_2014-06-15_15-19-16_094959634447_rgbf000150-resize_1-target.png,125,3.9125,10,1761,125,feet,jsons/VE125_randls_26_rotated.json,419828,605345,41,Man
52,443302,DepthScenes,duration_manipulation_targetAtFixation,jsons/VE125_randls_26_rotated.json,http://54.235.29.9/FacialAge/BNav_EC2/DepthDuration/v2_depth_duration_MTurk/v2_DepthDuration_HTML.html#96,96,1920,937,1920,1080,8-21-2022,9-56-52,53,depth_duration_stimuli/001417_2014-06-19_16-25-36_260595134347_rgbf000115-resize_5/001417_2014-06-19_16-25-36_260595134347_rgbf000115-resize_5-target.png,125,4.6255,6,2018,125,feet,jsons/VE125_randls_26_rotated.json,419828,605345,41,Man
53,443302,DepthScenes,duration_manipulation_targetAtFixation,jsons/VE125_randls_26_rotated.json,http://54.235.29.9/FacialAge/BNav_EC2/DepthDuration/v2_depth_duration_MTurk/v2_DepthDuration_HTML.html#96,96,1920,937,1920,1080,8-21-2022,9-56-52,54,depth_duration_stimuli/002209_2014-06-28_18-36-10_260595134347_rgbf000051-resize_1/002209_2014-06-28_18-36-10_260595134347_rgbf000051-resize_1-target.png,125,2.057,4,1715,124,feet,jsons/VE125_randls_26_rotated.json,419828,605345,41,Man
54,443302,DepthScenes,duration_manipulation_targetAtFixation,jsons/VE125_randls_26_rotated.json,http://54.235.29.9/FacialAge/BNav_EC2/DepthDuration/v2_depth_duration_MTurk/v2_DepthDuration_HTML.html#96,96,1920,937,1920,1080,8-21-2022,9-56-52,55,depth_duration_stimuli/002763_2014-06-22_19-13-10_094959634447_rgbf000075-resize_4/002763_2014-06-22_19-13-10_094959634447_rgbf000075-resize_4-target.png,125,1.68375,2,1714,125,feet,jsons/VE125_randls_26_rotated.json,419828,605345,41,Man
55,443302,DepthScenes,duration_manipulation_targetAtFixation,jsons/VE125_randls_26_rotated.json,http://54.235.29.9/FacialAge/BNav_EC2/DepthDuration/v2_depth_duration_MTurk/v2_DepthDuration_HTML.html#96,96,1920,937,1920,1080,8-21-2022,9-56-52,56,depth_duration_stimuli/002995_2014-06-15_12-31-26_094959634447_rgbf000150-resize_1/002995_2014-06-15_12-31-26_094959634447_rgbf000150-resize_1-target.png,125,3.8360000000000003,8,2199,125,feet,jsons/VE125_randls_26_rotated.json,419828,605345,41,Man
56,443302,DepthScenes,duration_manipulation_targetAtFixation,jsons/VE125_randls_26_rotated.json,http://54.235.29.9/FacialAge/BNav_EC2/DepthDuration/v2_depth_duration_MTurk/v2_DepthDuration_HTML.html#96,96,1920,937,1920,1080,8-21-2022,9-56-52,57,depth_duration_stimuli/002748_2014-06-22_19-07-22_094959634447_rgbf000078-resize_1/002748_2014-06-22_19-07-22_094959634447_rgbf000078-resize_1-target.png,125,4.6705,10,2098,124,feet,jsons/VE125_randls_26_rotated.json,419828,605345,41,Man
57,443302,DepthScenes,duration_manipulation_targetAtFixation,jsons/VE125_randls_26_rotated.json,http://54.235.29.9/FacialAge/BNav_EC2/DepthDuration/v2_depth_duration_MTurk/v2_DepthDuration_HTML.html#96,96,1920,937,1920,1080,8-21-2022,9-56-52,58,depth_duration_stimuli/001032_2014-06-08_13-23-17_260595134347_rgbf000021-resize_3/001032_2014-06-08_13-23-17_260595134347_rgbf000021-resize_3-target.png,125,3.2725,4,1637,125,feet,jsons/VE125_randls_26_rotated.json,419828,605345,41,Man
58,443302,DepthScenes,duration_manipulation_targetAtFixation,jsons/VE125_randls_26_rotated.json,http://54.235.29.9/FacialAge/BNav_EC2/DepthDuration/v2_depth_duration_MTurk/v2_DepthDuration_HTML.html#96,96,1920,937,1920,1080,8-21-2022,9-56-52,59,depth_duration_stimuli/001059_2014-06-08_21-53-27_260595134347_rgbf000061-resize_4/001059_2014-06-08_21-53-27_260595134347_rgbf000061-resize_4-target.png,125,2.4185,4,1614,125,feet,jsons/VE125_randls_26_rotated.json,419828,605345,41,Man
59,443302,DepthScenes,duration_manipulation_targetAtFixation,jsons/VE125_randls_26_rotated.json,http://54.235.29.9/FacialAge/BNav_EC2/DepthDuration/v2_depth_duration_MTurk/v2_DepthDuration_HTML.html#96,96,1920,937,1920,1080,8-21-2022,9-56-52,60,depth_duration_stimuli/001584_2014-06-20_11-07-43_260595134347_rgbf000002-resize_1/001584_2014-06-20_11-07-43_260595134347_rgbf000002-resize_1-target.png,125,3.53,10,2174,124,feet,jsons/VE125_randls_26_rotated.json,419828,605345,41,Man
60,443302,DepthScenes,duration_manipulation_targetAtFixation,jsons/VE125_randls_26_rotated.json,http://54.235.29.9/FacialAge/BNav_EC2/DepthDuration/v2_depth_duration_MTurk/v2_DepthDuration_HTML.html#96,96,1920,937,1920,1080,8-21-2022,9-56-52,61,depth_duration_stimuli/003621_2014-05-23_18-06-08_094959634447_rgbf000101-resize_1/003621_2014-05-23_18-06-08_094959634447_rgbf000101-resize_1-target.png,125,3.9835,8,2154,125,feet,jsons/VE125_randls_26_rotated.json,419828,605345,41,Man
61,443302,DepthScenes,duration_manipulation_targetAtFixation,jsons/VE125_randls_26_rotated.json,http://54.235.29.9/FacialAge/BNav_EC2/DepthDuration/v2_depth_duration_MTurk/v2_DepthDuration_HTML.html#96,96,1920,937,1920,1080,8-21-2022,9-56-52,62,depth_duration_stimuli/002568_2014-06-24_13-59-21_094959634447_rgbf000062-resize_4/002568_2014-06-24_13-59-21_094959634447_rgbf000062-resize_4-target.png,125,3.015,6,1804,124,feet,jsons/VE125_randls_26_rotated.json,419828,605345,41,Man
62,443302,DepthScenes,duration_manipulation_targetAtFixation,jsons/VE125_randls_26_rotated.json,http://54.235.29.9/FacialAge/BNav_EC2/DepthDuration/v2_depth_duration_MTurk/v2_DepthDuration_HTML.html#96,96,1920,937,1920,1080,8-21-2022,9-56-52,63,depth_duration_stimuli/003492_2014-05-21_15-50-55_094959634447_rgbf000828-resize_1/003492_2014-05-21_15-50-55_094959634447_rgbf000828-resize_1-target.png,125,4.06875,12,1993,125,feet,jsons/VE125_randls_26_rotated.json,419828,605345,41,Man
63,443302,DepthScenes,duration_manipulation_targetAtFixation,jsons/VE125_randls_26_rotated.json,http://54.235.29.9/FacialAge/BNav_EC2/DepthDuration/v2_depth_duration_MTurk/v2_DepthDuration_HTML.html#96,96,1920,937,1920,1080,8-21-2022,9-56-52,64,depth_duration_stimuli/001815_2014-06-26_20-52-55_260595134347_rgbf000020-resize_0/001815_2014-06-26_20-52-55_260595134347_rgbf000020-resize_0-target.png,125,3.3865,9,5575,124,feet,jsons/VE125_randls_26_rotated.json,419828,605345,41,Man
64,443302,DepthScenes,duration_manipulation_targetAtFixation,jsons/VE125_randls_26_rotated.json,http://54.235.29.9/FacialAge/BNav_EC2/DepthDuration/v2_depth_duration_MTurk/v2_DepthDuration_HTML.html#96,96,1920,937,1920,1080,8-21-2022,9-56-52,65,depth_duration_stimuli/001808_2014-06-26_20-50-58_260595134347_rgbf000029-resize_1/001808_2014-06-26_20-50-58_260595134347_rgbf000029-resize_1-target.png,125,4.249,9,2390,122,feet,jsons/VE125_randls_26_rotated.json,419828,605345,41,Man
65,443302,DepthScenes,duration_manipulation_targetAtFixation,jsons/VE125_randls_26_rotated.json,http://54.235.29.9/FacialAge/BNav_EC2/DepthDuration/v2_depth_duration_MTurk/v2_DepthDuration_HTML.html#96,96,1920,937,1920,1080,8-21-2022,9-56-52,66,depth_duration_stimuli/001540_2014-06-20_17-01-05_260595134347_rgbf000086-resize_2/001540_2014-06-20_17-01-05_260595134347_rgbf000086-resize-original.jpg,125,1.459,0,1611,123,feet,jsons/VE125_randls_26_rotated.json,419828,605345,41,Man
66,443302,DepthScenes,duration_manipulation_targetAtFixation,jsons/VE125_randls_26_rotated.json,http://54.235.29.9/FacialAge/BNav_EC2/DepthDuration/v2_depth_duration_MTurk/v2_DepthDuration_HTML.html#96,96,1920,937,1920,1080,8-21-2022,9-56-52,67,depth_duration_stimuli/003490_2014-05-21_15-50-11_094959634447_rgbf000101-resize_3/003490_2014-05-21_15-50-11_094959634447_rgbf000101-resize_3-target.png,125,3.6445,7,2470,126,feet,jsons/VE125_randls_26_rotated.json,419828,605345,41,Man
67,443302,DepthScenes,duration_manipulation_targetAtFixation,jsons/VE125_randls_26_rotated.json,http://54.235.29.9/FacialAge/BNav_EC2/DepthDuration/v2_depth_duration_MTurk/v2_DepthDuration_HTML.html#96,96,1920,937,1920,1080,8-21-2022,9-56-52,68,depth_duration_stimuli/001175_2014-06-17_15-45-55_260595134347_rgbf000129-resize_4/001175_2014-06-17_15-45-55_260595134347_rgbf000129-resize_4-target.png,125,4.255,15,1872,126,feet,jsons/VE125_randls_26_rotated.json,419828,605345,41,Man
68,443302,DepthScenes,duration_manipulation_targetAtFixation,jsons/VE125_randls_26_rotated.json,http://54.235.29.9/FacialAge/BNav_EC2/DepthDuration/v2_depth_duration_MTurk/v2_DepthDuration_HTML.html#96,96,1920,937,1920,1080,8-21-2022,9-56-52,69,depth_duration_stimuli/003083_2014-06-15_15-21-03_094959634447_rgbf000063-resize_1/003083_2014-06-15_15-21-03_094959634447_rgbf000063-resize_1-target.png,125,4.1405,8,1942,125,feet,jsons/VE125_randls_26_rotated.json,419828,605345,41,Man
69,443302,DepthScenes,duration_manipulation_targetAtFixation,jsons/VE125_randls_26_rotated.json,http://54.235.29.9/FacialAge/BNav_EC2/DepthDuration/v2_depth_duration_MTurk/v2_DepthDuration_HTML.html#96,96,1920,937,1920,1080,8-21-2022,9-56-52,70,depth_duration_stimuli/000486_2014-06-09_20-47-20_260595134347_rgbf000143-resize_2/000486_2014-06-09_20-47-20_260595134347_rgbf000143-resize_2-target.png,125,4.8325,7,2264,125,feet,jsons/VE125_randls_26_rotated.json,419828,605345,41,Man
70,443302,DepthScenes,duration_manipulation_targetAtFixation,jsons/VE125_randls_26_rotated.json,http://54.235.29.9/FacialAge/BNav_EC2/DepthDuration/v2_depth_duration_MTurk/v2_DepthDuration_HTML.html#96,96,1920,937,1920,1080,8-21-2022,9-56-52,71,depth_duration_stimuli/002639_2014-06-24_14-51-37_094959634447_rgbf000074-resize_4/002639_2014-06-24_14-51-37_094959634447_rgbf000074-resize_4-target.png,125,4.0375,12,2592,125,feet,jsons/VE125_randls_26_rotated.json,419828,605345,41,Man
71,443302,DepthScenes,duration_manipulation_targetAtFixation,jsons/VE125_randls_26_rotated.json,http://54.235.29.9/FacialAge/BNav_EC2/DepthDuration/v2_depth_duration_MTurk/v2_DepthDuration_HTML.html#96,96,1920,937,1920,1080,8-21-2022,9-56-52,72,depth_duration_stimuli/003292_2014-05-14_21-53-49_094959634447_rgbf000100-resize_2/003292_2014-05-14_21-53-49_094959634447_rgbf000100-resize_2-target.png,125,3.4815,6,1829,125,feet,jsons/VE125_randls_26_rotated.json,419828,605345,41,Man
72,443302,DepthScenes,duration_manipulation_targetAtFixation,jsons/VE125_randls_26_rotated.json,http://54.235.29.9/FacialAge/BNav_EC2/DepthDuration/v2_depth_duration_MTurk/v2_DepthDuration_HTML.html#96,96,1920,937,1920,1080,8-21-2022,9-56-52,73,depth_duration_stimuli/001650_2014-06-20_12-09-00_260595134347_rgbf000087-resize_3/001650_2014-06-20_12-09-00_260595134347_rgbf000087-resize_3-target.png,125,1.9505,3,1781,125,feet,jsons/VE125_randls_26_rotated.json,419828,605345,41,Man
73,443302,DepthScenes,duration_manipulation_targetAtFixation,jsons/VE125_randls_26_rotated.json,http://54.235.29.9/FacialAge/BNav_EC2/DepthDuration/v2_depth_duration_MTurk/v2_DepthDuration_HTML.html#96,96,1920,937,1920,1080,8-21-2022,9-56-52,74,depth_duration_stimuli/000682_2014-06-08_23-14-58_260595134347_rgbf000041-resize_5/000682_2014-06-08_23-14-58_260595134347_rgbf000041-resize_5-target.png,125,2.7239999999999998,7,3167,124,feet,jsons/VE125_randls_26_rotated.json,419828,605345,41,Man
74,443302,DepthScenes,duration_manipulation_targetAtFixation,jsons/VE125_randls_26_rotated.json,http://54.235.29.9/FacialAge/BNav_EC2/DepthDuration/v2_depth_duration_MTurk/v2_DepthDuration_HTML.html#96,96,1920,937,1920,1080,8-21-2022,9-56-52,75,depth_duration_stimuli/002657_2014-06-13_15-29-54_094959634447_rgbf000150-resize_1/002657_2014-06-13_15-29-54_094959634447_rgbf000150-resize_1-target.png,125,4.919,8,2414,125,feet,jsons/VE125_randls_26_rotated.json,419828,605345,41,Man
75,443302,DepthScenes,duration_manipulation_targetAtFixation,jsons/VE125_randls_26_rotated.json,http://54.235.29.9/FacialAge/BNav_EC2/DepthDuration/v2_depth_duration_MTurk/v2_DepthDuration_HTML.html#96,96,1920,937,1920,1080,8-21-2022,9-56-52,76,depth_duration_stimuli/002375_2014-06-28_20-13-44_260595134347_rgbf000032-resize_1/002375_2014-06-28_20-13-44_260595134347_rgbf000032-resize_1-target.png,125,4.0175,4,2006,125,feet,jsons/VE125_randls_26_rotated.json,419828,605345,41,Man
76,443302,DepthScenes,duration_manipulation_targetAtFixation,jsons/VE125_randls_26_rotated.json,http://54.235.29.9/FacialAge/BNav_EC2/DepthDuration/v2_depth_duration_MTurk/v2_DepthDuration_HTML.html#96,96,1920,937,1920,1080,8-21-2022,9-56-52,77,depth_duration_stimuli/002545_2014-06-24_13-38-53_094959634447_rgbf000080-resize_4/002545_2014-06-24_13-38-53_094959634447_rgbf000080-resize_4-target.png,125,1.9205,3,1860,124,feet,jsons/VE125_randls_26_rotated.json,419828,605345,41,Man
77,443302,DepthScenes,duration_manipulation_targetAtFixation,jsons/VE125_randls_26_rotated.json,http://54.235.29.9/FacialAge/BNav_EC2/DepthDuration/v2_depth_duration_MTurk/v2_DepthDuration_HTML.html#96,96,1920,937,1920,1080,8-21-2022,9-56-52,78,depth_duration_stimuli/001092_2014-06-15_17-34-58_260595134347_rgbf000171-resize_3/001092_2014-06-15_17-34-58_260595134347_rgbf000171-resize_3-target.png,125,2.6935,3,1535,124,feet,jsons/VE125_randls_26_rotated.json,419828,605345,41,Man
78,443302,DepthScenes,duration_manipulation_targetAtFixation,jsons/VE125_randls_26_rotated.json,http://54.235.29.9/FacialAge/BNav_EC2/DepthDuration/v2_depth_duration_MTurk/v2_DepthDuration_HTML.html#96,96,1920,937,1920,1080,8-21-2022,9-56-52,79,depth_duration_stimuli/002875_2014-06-01_15-19-00_094959634447_rgbf000151-resize_1/002875_2014-06-01_15-19-00_094959634447_rgbf000151-resize_1-target.png,125,1.9675,2,1423,125,feet,jsons/VE125_randls_26_rotated.json,419828,605345,41,Man
79,443302,DepthScenes,duration_manipulation_targetAtFixation,jsons/VE125_randls_26_rotated.json,http://54.235.29.9/FacialAge/BNav_EC2/DepthDuration/v2_depth_duration_MTurk/v2_DepthDuration_HTML.html#96,96,1920,937,1920,1080,8-21-2022,9-56-52,80,depth_duration_stimuli/001011_2014-06-08_23-18-54_260595134347_rgbf000044-resize_4/001011_2014-06-08_23-18-54_260595134347_rgbf000044-resize_4-target.png,125,2.4730000000000003,7,1714,123,feet,jsons/VE125_randls_26_rotated.json,419828,605345,41,Man
80,443302,DepthScenes,duration_manipulation_targetAtFixation,jsons/VE125_randls_26_rotated.json,http://54.235.29.9/FacialAge/BNav_EC2/DepthDuration/v2_depth_duration_MTurk/v2_DepthDuration_HTML.html#96,96,1920,937,1920,1080,8-21-2022,9-56-52,81,depth_duration_stimuli/002425_2014-06-28_20-27-29_260595134347_rgbf000031-resize_8/002425_2014-06-28_20-27-29_260595134347_rgbf000031-resize_8-target.png,125,3.8960000000000004,10,2096,123,feet,jsons/VE125_randls_26_rotated.json,419828,605345,41,Man
81,443302,DepthScenes,duration_manipulation_targetAtFixation,jsons/VE125_randls_26_rotated.json,http://54.235.29.9/FacialAge/BNav_EC2/DepthDuration/v2_depth_duration_MTurk/v2_DepthDuration_HTML.html#96,96,1920,937,1920,1080,8-21-2022,9-56-52,82,depth_duration_stimuli/000642_2014-06-08_16-59-25_260595134347_rgbf000098-resize_2/000642_2014-06-08_16-59-25_260595134347_rgbf000098-resize_2-target.png,125,2.8815,6,1770,123,feet,jsons/VE125_randls_26_rotated.json,419828,605345,41,Man
82,443302,DepthScenes,duration_manipulation_targetAtFixation,jsons/VE125_randls_26_rotated.json,http://54.235.29.9/FacialAge/BNav_EC2/DepthDuration/v2_depth_duration_MTurk/v2_DepthDuration_HTML.html#96,96,1920,937,1920,1080,8-21-2022,9-56-52,83,depth_duration_stimuli/002637_2014-06-24_14-51-13_094959634447_rgbf000066-resize_4/002637_2014-06-24_14-51-13_094959634447_rgbf000066-resize_4-target.png,125,1.9955,5,2311,124,feet,jsons/VE125_randls_26_rotated.json,419828,605345,41,Man
83,443302,DepthScenes,duration_manipulation_targetAtFixation,jsons/VE125_randls_26_rotated.json,http://54.235.29.9/FacialAge/BNav_EC2/DepthDuration/v2_depth_duration_MTurk/v2_DepthDuration_HTML.html#96,96,1920,937,1920,1080,8-21-2022,9-56-52,84,depth_duration_stimuli/003534_2014-05-22_15-06-10_094959634447_rgbf000102-resize_4/003534_2014-05-22_15-06-10_094959634447_rgbf000102-resize_4-target.png,125,1.426,4,2480,125,feet,jsons/VE125_randls_26_rotated.json,419828,605345,41,Man
84,443302,DepthScenes,duration_manipulation_targetAtFixation,jsons/VE125_randls_26_rotated.json,http://54.235.29.9/FacialAge/BNav_EC2/DepthDuration/v2_depth_duration_MTurk/v2_DepthDuration_HTML.html#96,96,1920,937,1920,1080,8-21-2022,9-56-52,85,depth_duration_stimuli/000483_2014-06-09_20-41-45_260595134347_rgbf000116-resize_4/000483_2014-06-09_20-41-45_260595134347_rgbf000116-resize_4-target.png,125,1.337,3,1681,124,feet,jsons/VE125_randls_26_rotated.json,419828,605345,41,Man
85,443302,DepthScenes,duration_manipulation_targetAtFixation,jsons/VE125_randls_26_rotated.json,http://54.235.29.9/FacialAge/BNav_EC2/DepthDuration/v2_depth_duration_MTurk/v2_DepthDuration_HTML.html#96,96,1920,937,1920,1080,8-21-2022,9-56-52,86,depth_duration_stimuli/000469_2014-06-09_19-42-10_260595134347_rgbf000081-resize_1/000469_2014-06-09_19-42-10_260595134347_rgbf000081-resize_1-target.png,125,1.652,3,3773,125,feet,jsons/VE125_randls_26_rotated.json,419828,605345,41,Man
86,443302,DepthScenes,duration_manipulation_targetAtFixation,jsons/VE125_randls_26_rotated.json,http://54.235.29.9/FacialAge/BNav_EC2/DepthDuration/v2_depth_duration_MTurk/v2_DepthDuration_HTML.html#96,96,1920,937,1920,1080,8-21-2022,9-56-52,87,depth_duration_stimuli/000734_2014-06-08_17-39-11_260595134347_rgbf000128-resize_2/000734_2014-06-08_17-39-11_260595134347_rgbf000128-resize_2-target.png,125,4.098,8,2141,124,feet,jsons/VE125_randls_26_rotated.json,419828,605345,41,Man
87,443302,DepthScenes,duration_manipulation_targetAtFixation,jsons/VE125_randls_26_rotated.json,http://54.235.29.9/FacialAge/BNav_EC2/DepthDuration/v2_depth_duration_MTurk/v2_DepthDuration_HTML.html#96,96,1920,937,1920,1080,8-21-2022,9-56-52,88,depth_duration_stimuli/000739_2014-06-08_18-45-58_260595134347_rgbf000068-resize_1/000739_2014-06-08_18-45-58_260595134347_rgbf000068-resize_1-target.png,125,3.534,6,1705,125,feet,jsons/VE125_randls_26_rotated.json,419828,605345,41,Man
88,443302,DepthScenes,duration_manipulation_targetAtFixation,jsons/VE125_randls_26_rotated.json,http://54.235.29.9/FacialAge/BNav_EC2/DepthDuration/v2_depth_duration_MTurk/v2_DepthDuration_HTML.html#96,96,1920,937,1920,1080,8-21-2022,9-56-52,89,depth_duration_stimuli/003129_2014-05-12_10-48-10_094959634447_rgbf000100-resize_0/003129_2014-05-12_10-48-10_094959634447_rgbf000100-resize_0-target.png,125,4.9305,10,1647,125,feet,jsons/VE125_randls_26_rotated.json,419828,605345,41,Man
89,443302,DepthScenes,duration_manipulation_targetAtFixation,jsons/VE125_randls_26_rotated.json,http://54.235.29.9/FacialAge/BNav_EC2/DepthDuration/v2_depth_duration_MTurk/v2_DepthDuration_HTML.html#96,96,1920,937,1920,1080,8-21-2022,9-56-52,90,depth_duration_stimuli/000414_2014-06-04_19-49-13_260595134347_rgbf000044-resize_0/000414_2014-06-04_19-49-13_260595134347_rgbf000044-resize_0-target.png,125,4.329,10,1817,123,feet,jsons/VE125_randls_26_rotated.json,419828,605345,41,Man
90,443302,DepthScenes,duration_manipulation_targetAtFixation,jsons/VE125_randls_26_rotated.json,http://54.235.29.9/FacialAge/BNav_EC2/DepthDuration/v2_depth_duration_MTurk/v2_DepthDuration_HTML.html#96,96,1920,937,1920,1080,8-21-2022,9-56-52,91,depth_duration_stimuli/002414_2014-06-28_20-24-58_260595134347_rgbf000067-resize_4/002414_2014-06-28_20-24-58_260595134347_rgbf000067-resize_4-target.png,125,4.363,12,3696,125,feet,jsons/VE125_randls_26_rotated.json,419828,605345,41,Man
91,443302,DepthScenes,duration_manipulation_targetAtFixation,jsons/VE125_randls_26_rotated.json,http://54.235.29.9/FacialAge/BNav_EC2/DepthDuration/v2_depth_duration_MTurk/v2_DepthDuration_HTML.html#96,96,1920,937,1920,1080,8-21-2022,9-56-52,92,depth_duration_stimuli/000773_2014-06-08_22-24-54_260595134347_rgbf000093-resize_1/000773_2014-06-08_22-24-54_260595134347_rgbf000093-resize_1-target.png,125,4.973,15,1794,125,feet,jsons/VE125_randls_26_rotated.json,419828,605345,41,Man
92,443302,DepthScenes,duration_manipulation_targetAtFixation,jsons/VE125_randls_26_rotated.json,http://54.235.29.9/FacialAge/BNav_EC2/DepthDuration/v2_depth_duration_MTurk/v2_DepthDuration_HTML.html#96,96,1920,937,1920,1080,8-21-2022,9-56-52,93,depth_duration_stimuli/003587_2014-05-23_16-48-02_094959634447_rgbf002384-resize_2/003587_2014-05-23_16-48-02_094959634447_rgbf002384-resize_2-target.png,125,1.357,2,3447,125,feet,jsons/VE125_randls_26_rotated.json,419828,605345,41,Man
93,443302,DepthScenes,duration_manipulation_targetAtFixation,jsons/VE125_randls_26_rotated.json,http://54.235.29.9/FacialAge/BNav_EC2/DepthDuration/v2_depth_duration_MTurk/v2_DepthDuration_HTML.html#96,96,1920,937,1920,1080,8-21-2022,9-56-52,94,depth_duration_stimuli/001167_2014-06-17_15-38-07_260595134347_rgbf000108-resize_0/001167_2014-06-17_15-38-07_260595134347_rgbf000108-resize_0-target.png,125,1.8505,2,1658,124,feet,jsons/VE125_randls_26_rotated.json,419828,605345,41,Man
94,443302,DepthScenes,duration_manipulation_targetAtFixation,jsons/VE125_randls_26_rotated.json,http://54.235.29.9/FacialAge/BNav_EC2/DepthDuration/v2_depth_duration_MTurk/v2_DepthDuration_HTML.html#96,96,1920,937,1920,1080,8-21-2022,9-56-52,95,depth_duration_stimuli/002949_2014-06-26_15-57-42_094959634447_rgbf000079-resize_1/002949_2014-06-26_15-57-42_094959634447_rgbf000079-resize_1-target.png,125,1.8915,1,1647,123,feet,jsons/VE125_randls_26_rotated.json,419828,605345,41,Man
95,443302,DepthScenes,duration_manipulation_targetAtFixation,jsons/VE125_randls_26_rotated.json,http://54.235.29.9/FacialAge/BNav_EC2/DepthDuration/v2_depth_duration_MTurk/v2_DepthDuration_HTML.html#96,96,1920,937,1920,1080,8-21-2022,9-56-52,96,depth_duration_stimuli/000522_2014-06-08_13-35-06_260595134347_rgbf000244-resize_1/000522_2014-06-08_13-35-06_260595134347_rgbf000244-resize_1-target.png,125,2.3715,3,1558,125,feet,jsons/VE125_randls_26_rotated.json,419828,605345,41,Man
96,443302,DepthScenes,duration_manipulation_targetAtFixation,jsons/VE125_randls_26_rotated.json,http://54.235.29.9/FacialAge/BNav_EC2/DepthDuration/v2_depth_duration_MTurk/v2_DepthDuration_HTML.html#96,96,1920,937,1920,1080,8-21-2022,9-56-52,97,depth_duration_stimuli/003495_2014-05-21_16-01-51_094959634447_rgbf000100-resize_3/003495_2014-05-21_16-01-51_094959634447_rgbf000100-resize_3-target.png,125,1.6255,3,1656,124,feet,jsons/VE125_randls_26_rotated.json,419828,605345,41,Man
97,443302,DepthScenes,duration_manipulation_targetAtFixation,jsons/VE125_randls_26_rotated.json,http://54.235.29.9/FacialAge/BNav_EC2/DepthDuration/v2_depth_duration_MTurk/v2_DepthDuration_HTML.html#96,96,1920,937,1920,1080,8-21-2022,9-56-52,98,depth_duration_stimuli/001244_2014-06-17_16-47-45_260595134347_rgbf000030-resize_4/001244_2014-06-17_16-47-45_260595134347_rgbf000030-resize_4-target.png,125,2.0425,2,2291,123,feet,jsons/VE125_randls_26_rotated.json,419828,605345,41,Man
98,443302,DepthScenes,duration_manipulation_targetAtFixation,jsons/VE125_randls_26_rotated.json,http://54.235.29.9/FacialAge/BNav_EC2/DepthDuration/v2_depth_duration_MTurk/v2_DepthDuration_HTML.html#96,96,1920,937,1920,1080,8-21-2022,9-56-52,99,depth_duration_stimuli/001222_2014-06-17_16-24-06_260595134347_rgbf000073-resize_0/001222_2014-06-17_16-24-06_260595134347_rgbf000073-resize-original.jpg,125,1.4385,0,1488,126,feet,jsons/VE125_randls_26_rotated.json,419828,605345,41,Man
99,443302,DepthScenes,duration_manipulation_targetAtFixation,jsons/VE125_randls_26_rotated.json,http://54.235.29.9/FacialAge/BNav_EC2/DepthDuration/v2_depth_duration_MTurk/v2_DepthDuration_HTML.html#96,96,1920,937,1920,1080,8-21-2022,9-56-52,100,depth_duration_stimuli/000742_2014-06-08_18-48-09_260595134347_rgbf000164-resize_4/000742_2014-06-08_18-48-09_260595134347_rgbf000164-resize_4-target.png,125,4.632,9,2198,124,feet,jsons/VE125_randls_26_rotated.json,419828,605345,41,Man
100,443302,DepthScenes,duration_manipulation_targetAtFixation,jsons/VE125_randls_26_rotated.json,http://54.235.29.9/FacialAge/BNav_EC2/DepthDuration/v2_depth_duration_MTurk/v2_DepthDuration_HTML.html#96,96,1920,937,1920,1080,8-21-2022,9-56-52,101,depth_duration_stimuli/001066_2014-06-08_22-03-20_260595134347_rgbf000066-resize_4/001066_2014-06-08_22-03-20_260595134347_rgbf000066-resize_4-target.png,125,4.2330000000000005,10,1908,125,feet,jsons/VE125_randls_26_rotated.json,419828,605345,41,Man
101,443302,DepthScenes,duration_manipulation_targetAtFixation,jsons/VE125_randls_26_rotated.json,http://54.235.29.9/FacialAge/BNav_EC2/DepthDuration/v2_depth_duration_MTurk/v2_DepthDuration_HTML.html#96,96,1920,937,1920,1080,8-21-2022,9-56-52,102,depth_duration_stimuli/001617_2014-06-20_11-35-32_260595134347_rgbf000066-resize_1/001617_2014-06-20_11-35-32_260595134347_rgbf000066-resize_1-target.png,125,3.7910000000000004,10,2435,125,feet,jsons/VE125_randls_26_rotated.json,419828,605345,41,Man
102,443302,DepthScenes,duration_manipulation_targetAtFixation,jsons/VE125_randls_26_rotated.json,http://54.235.29.9/FacialAge/BNav_EC2/DepthDuration/v2_depth_duration_MTurk/v2_DepthDuration_HTML.html#96,96,1920,937,1920,1080,8-21-2022,9-56-52,103,depth_duration_stimuli/001806_2014-06-26_20-50-20_260595134347_rgbf000091-resize_1/001806_2014-06-26_20-50-20_260595134347_rgbf000091-resize_1-target.png,125,2.7305,5,2141,125,feet,jsons/VE125_randls_26_rotated.json,419828,605345,41,Man
103,443302,DepthScenes,duration_manipulation_targetAtFixation,jsons/VE125_randls_26_rotated.json,http://54.235.29.9/FacialAge/BNav_EC2/DepthDuration/v2_depth_duration_MTurk/v2_DepthDuration_HTML.html#96,96,1920,937,1920,1080,8-21-2022,9-56-52,104,depth_duration_stimuli/001516_2014-06-20_16-25-09_260595134347_rgbf000076-resize_2/001516_2014-06-20_16-25-09_260595134347_rgbf000076-resize_2-target.png,125,1.7445,4,2478,124,feet,jsons/VE125_randls_26_rotated.json,419828,605345,41,Man
104,443302,DepthScenes,duration_manipulation_targetAtFixation,jsons/VE125_randls_26_rotated.json,http://54.235.29.9/FacialAge/BNav_EC2/DepthDuration/v2_depth_duration_MTurk/v2_DepthDuration_HTML.html#96,96,1920,937,1920,1080,8-21-2022,9-56-52,105,depth_duration_stimuli/002118_2014-06-25_20-32-08_260595134347_rgbf000078-resize_1/002118_2014-06-25_20-32-08_260595134347_rgbf000078-resize_1-target.png,125,2.6460000000000004,6,1555,124,feet,jsons/VE125_randls_26_rotated.json,419828,605345,41,Man
105,443302,DepthScenes,duration_manipulation_targetAtFixation,jsons/VE125_randls_26_rotated.json,http://54.235.29.9/FacialAge/BNav_EC2/DepthDuration/v2_depth_duration_MTurk/v2_DepthDuration_HTML.html#96,96,1920,937,1920,1080,8-21-2022,9-56-52,106,depth_duration_stimuli/001132_2014-06-17_14-48-54_260595134347_rgbf000100-resize_2/001132_2014-06-17_14-48-54_260595134347_rgbf000100-resize_2-target.png,125,3.753,7,1917,123,feet,jsons/VE125_randls_26_rotated.json,419828,605345,41,Man
106,443302,DepthScenes,duration_manipulation_targetAtFixation,jsons/VE125_randls_26_rotated.json,http://54.235.29.9/FacialAge/BNav_EC2/DepthDuration/v2_depth_duration_MTurk/v2_DepthDuration_HTML.html#96,96,1920,937,1920,1080,8-21-2022,9-56-52,107,depth_duration_stimuli/001133_2014-06-17_14-49-16_260595134347_rgbf000100-resize_0/001133_2014-06-17_14-49-16_260595134347_rgbf000100-resize_0-target.png,125,4.2115,8,2953,124,feet,jsons/VE125_randls_26_rotated.json,419828,605345,41,Man
107,443302,DepthScenes,duration_manipulation_targetAtFixation,jsons/VE125_randls_26_rotated.json,http://54.235.29.9/FacialAge/BNav_EC2/DepthDuration/v2_depth_duration_MTurk/v2_DepthDuration_HTML.html#96,96,1920,937,1920,1080,8-21-2022,9-56-52,108,depth_duration_stimuli/001392_2014-06-19_16-07-59_260595134347_rgbf000046-resize_1/001392_2014-06-19_16-07-59_260595134347_rgbf000046-resize_1-target.png,125,4.135,10,1984,125,feet,jsons/VE125_randls_26_rotated.json,419828,605345,41,Man
108,443302,DepthScenes,duration_manipulation_targetAtFixation,jsons/VE125_randls_26_rotated.json,http://54.235.29.9/FacialAge/BNav_EC2/DepthDuration/v2_depth_duration_MTurk/v2_DepthDuration_HTML.html#96,96,1920,937,1920,1080,8-21-2022,9-56-52,109,depth_duration_stimuli/001570_2014-06-20_17-21-09_260595134347_rgbf000135-resize_4/001570_2014-06-20_17-21-09_260595134347_rgbf000135-resize_4-target.png,125,4.467,7,2897,126,feet,jsons/VE125_randls_26_rotated.json,419828,605345,41,Man
109,443302,DepthScenes,duration_manipulation_targetAtFixation,jsons/VE125_randls_26_rotated.json,http://54.235.29.9/FacialAge/BNav_EC2/DepthDuration/v2_depth_duration_MTurk/v2_DepthDuration_HTML.html#96,96,1920,937,1920,1080,8-21-2022,9-56-52,110,depth_duration_stimuli/003010_2014-06-15_12-54-35_094959634447_rgbf000112-resize_0/003010_2014-06-15_12-54-35_094959634447_rgbf000112-resize_0-target.png,125,3.1185,10,2099,125,feet,jsons/VE125_randls_26_rotated.json,419828,605345,41,Man
110,443302,DepthScenes,duration_manipulation_targetAtFixation,jsons/VE125_randls_26_rotated.json,http://54.235.29.9/FacialAge/BNav_EC2/DepthDuration/v2_depth_duration_MTurk/v2_DepthDuration_HTML.html#96,96,1920,937,1920,1080,8-21-2022,9-56-52,111,depth_duration_stimuli/001810_2014-06-26_20-51-35_260595134347_rgbf000040-resize_3/001810_2014-06-26_20-51-35_260595134347_rgbf000040-resize_3-target.png,125,2.2525,6,1816,124,feet,jsons/VE125_randls_26_rotated.json,419828,605345,41,Man
111,443302,DepthScenes,duration_manipulation_targetAtFixation,jsons/VE125_randls_26_rotated.json,http://54.235.29.9/FacialAge/BNav_EC2/DepthDuration/v2_depth_duration_MTurk/v2_DepthDuration_HTML.html#96,96,1920,937,1920,1080,8-21-2022,9-56-52,112,depth_duration_stimuli/001235_2014-06-17_16-37-36_260595134347_rgbf000084-resize_4/001235_2014-06-17_16-37-36_260595134347_rgbf000084-resize_4-target.png,125,3.6605,5,2582,125,feet,jsons/VE125_randls_26_rotated.json,419828,605345,41,Man
112,443302,DepthScenes,duration_manipulation_targetAtFixation,jsons/VE125_randls_26_rotated.json,http://54.235.29.9/FacialAge/BNav_EC2/DepthDuration/v2_depth_duration_MTurk/v2_DepthDuration_HTML.html#96,96,1920,937,1920,1080,8-21-2022,9-56-52,113,depth_duration_stimuli/000788_2014-06-08_22-34-36_260595134347_rgbf000131-resize_1/000788_2014-06-08_22-34-36_260595134347_rgbf000131-resize_1-target.png,125,3.359,4,1874,125,feet,jsons/VE125_randls_26_rotated.json,419828,605345,41,Man
113,443302,DepthScenes,duration_manipulation_targetAtFixation,jsons/VE125_randls_26_rotated.json,http://54.235.29.9/FacialAge/BNav_EC2/DepthDuration/v2_depth_duration_MTurk/v2_DepthDuration_HTML.html#96,96,1920,937,1920,1080,8-21-2022,9-56-52,114,depth_duration_stimuli/000409_2014-06-04_19-23-33_260595134347_rgbf000067-resize_0/000409_2014-06-04_19-23-33_260595134347_rgbf000067-resize_0-target.png,125,3.7335,6,1793,124,feet,jsons/VE125_randls_26_rotated.json,419828,605345,41,Man
114,443302,DepthScenes,duration_manipulation_targetAtFixation,jsons/VE125_randls_26_rotated.json,http://54.235.29.9/FacialAge/BNav_EC2/DepthDuration/v2_depth_duration_MTurk/v2_DepthDuration_HTML.html#96,96,1920,937,1920,1080,8-21-2022,9-56-52,115,depth_duration_stimuli/002663_2014-06-13_15-50-26_094959634447_rgbf000075-resize_1/002663_2014-06-13_15-50-26_094959634447_rgbf000075-resize_1-target.png,125,4.7495,7,1725,125,feet,jsons/VE125_randls_26_rotated.json,419828,605345,41,Man
115,443302,DepthScenes,duration_manipulation_targetAtFixation,jsons/VE125_randls_26_rotated.json,http://54.235.29.9/FacialAge/BNav_EC2/DepthDuration/v2_depth_duration_MTurk/v2_DepthDuration_HTML.html#96,96,1920,937,1920,1080,8-21-2022,9-56-52,116,depth_duration_stimuli/003228_2014-05-14_13-42-35_094959634447_rgbf000101-resize_1/003228_2014-05-14_13-42-35_094959634447_rgbf000101-resize_1-target.png,125,1.9680000000000002,3,1592,125,feet,jsons/VE125_randls_26_rotated.json,419828,605345,41,Man
116,443302,DepthScenes,duration_manipulation_targetAtFixation,jsons/VE125_randls_26_rotated.json,http://54.235.29.9/FacialAge/BNav_EC2/DepthDuration/v2_depth_duration_MTurk/v2_DepthDuration_HTML.html#96,96,1920,937,1920,1080,8-21-2022,9-56-52,117,depth_duration_stimuli/002600_2014-06-24_14-27-04_094959634447_rgbf000074-resize_2/002600_2014-06-24_14-27-04_094959634447_rgbf000074-resize_2-target.png,125,2.7575,4,1648,126,feet,jsons/VE125_randls_26_rotated.json,419828,605345,41,Man
117,443302,DepthScenes,duration_manipulation_targetAtFixation,jsons/VE125_randls_26_rotated.json,http://54.235.29.9/FacialAge/BNav_EC2/DepthDuration/v2_depth_duration_MTurk/v2_DepthDuration_HTML.html#96,96,1920,937,1920,1080,8-21-2022,9-56-52,118,depth_duration_stimuli/000103_2014-05-14_22-01-17_260595134347_rgbf000152-resize_5/000103_2014-05-14_22-01-17_260595134347_rgbf000152-resize_5-target.png,125,1.993,0,1647,126,feet,jsons/VE125_randls_26_rotated.json,419828,605345,41,Man
118,443302,DepthScenes,duration_manipulation_targetAtFixation,jsons/VE125_randls_26_rotated.json,http://54.235.29.9/FacialAge/BNav_EC2/DepthDuration/v2_depth_duration_MTurk/v2_DepthDuration_HTML.html#96,96,1920,937,1920,1080,8-21-2022,9-56-52,119,depth_duration_stimuli/001555_2014-06-20_17-12-10_260595134347_rgbf000065-resize_4/001555_2014-06-20_17-12-10_260595134347_rgbf000065-resize_4-target.png,125,1.633,1,1548,124,feet,jsons/VE125_randls_26_rotated.json,419828,605345,41,Man
119,443302,DepthScenes,duration_manipulation_targetAtFixation,jsons/VE125_randls_26_rotated.json,http://54.235.29.9/FacialAge/BNav_EC2/DepthDuration/v2_depth_duration_MTurk/v2_DepthDuration_HTML.html#96,96,1920,937,1920,1080,8-21-2022,9-56-52,120,depth_duration_stimuli/000787_2014-06-08_22-33-53_260595134347_rgbf000175-resize_1/000787_2014-06-08_22-33-53_260595134347_rgbf000175-resize-original.jpg,125,4.784,0,1480,126,feet,jsons/VE125_randls_26_rotated.json,419828,605345,41,Man
120,443302,DepthScenes,duration_manipulation_targetAtFixation,jsons/VE125_randls_26_rotated.json,http://54.235.29.9/FacialAge/BNav_EC2/DepthDuration/v2_depth_duration_MTurk/v2_DepthDuration_HTML.html#96,96,1920,937,1920,1080,8-21-2022,9-56-52,121,depth_duration_stimuli/000943_2014-06-09_19-31-07_260595134347_rgbf000128-resize_1/000943_2014-06-09_19-31-07_260595134347_rgbf000128-resize_1-target.png,125,1.9765,3,1963,126,feet,jsons/VE125_randls_26_rotated.json,419828,605345,41,Man
121,443302,DepthScenes,duration_manipulation_targetAtFixation,jsons/VE125_randls_26_rotated.json,http://54.235.29.9/FacialAge/BNav_EC2/DepthDuration/v2_depth_duration_MTurk/v2_DepthDuration_HTML.html#96,96,1920,937,1920,1080,8-21-2022,9-56-52,122,depth_duration_stimuli/003070_2014-06-15_14-58-27_094959634447_rgbf000150-resize_3/003070_2014-06-15_14-58-27_094959634447_rgbf000150-resize_3-target.png,125,2.9415,6,1714,123,feet,jsons/VE125_randls_26_rotated.json,419828,605345,41,Man
122,443302,DepthScenes,duration_manipulation_targetAtFixation,jsons/VE125_randls_26_rotated.json,http://54.235.29.9/FacialAge/BNav_EC2/DepthDuration/v2_depth_duration_MTurk/v2_DepthDuration_HTML.html#96,96,1920,937,1920,1080,8-21-2022,9-56-52,123,depth_duration_stimuli/002750_2014-06-22_19-08-03_094959634447_rgbf000094-resize_4/002750_2014-06-22_19-08-03_094959634447_rgbf000094-resize_4-target.png,125,2.354,4,1635,123,feet,jsons/VE125_randls_26_rotated.json,419828,605345,41,Man
123,443302,DepthScenes,duration_manipulation_targetAtFixation,jsons/VE125_randls_26_rotated.json,http://54.235.29.9/FacialAge/BNav_EC2/DepthDuration/v2_depth_duration_MTurk/v2_DepthDuration_HTML.html#96,96,1920,937,1920,1080,8-21-2022,9-56-52,124,depth_duration_stimuli/002549_2014-06-24_13-41-39_094959634447_rgbf000022-resize_3/002549_2014-06-24_13-41-39_094959634447_rgbf000022-resize_3-target.png,125,1.476,2,1659,125,feet,jsons/VE125_randls_26_rotated.json,419828,605345,41,Man
124,443302,DepthScenes,duration_manipulation_targetAtFixation,jsons/VE125_randls_26_rotated.json,http://54.235.29.9/FacialAge/BNav_EC2/DepthDuration/v2_depth_duration_MTurk/v2_DepthDuration_HTML.html#96,96,1920,937,1920,1080,8-21-2022,9-56-52,125,depth_duration_stimuli/002344_2014-06-28_20-06-29_260595134347_rgbf000030-resize_1/002344_2014-06-28_20-06-29_260595134347_rgbf000030-resize_1-target.png,125,1.5795,2,1477,125,feet,jsons/VE125_randls_26_rotated.json,419828,605345,41,Man
125,443302,DepthScenes,duration_manipulation_targetAtFixation,jsons/VE125_randls_26_rotated.json,http://54.235.29.9/FacialAge/BNav_EC2/DepthDuration/v2_depth_duration_MTurk/v2_DepthDuration_HTML.html#96,96,1920,937,1920,1080,8-21-2022,9-56-52,126,depth_duration_stimuli/002725_2014-06-22_11-47-51_094959634447_rgbf000070-resize_1/002725_2014-06-22_11-47-51_094959634447_rgbf000070-resize_1-target.png,125,2.195,7,1862,125,feet,jsons/VE125_randls_26_rotated.json,419828,605345,41,Man
126,443302,DepthScenes,duration_manipulation_targetAtFixation,jsons/VE125_randls_26_rotated.json,http://54.235.29.9/FacialAge/BNav_EC2/DepthDuration/v2_depth_duration_MTurk/v2_DepthDuration_HTML.html#96,96,1920,937,1920,1080,8-21-2022,9-56-52,127,depth_duration_stimuli/002805_2014-06-22_19-54-03_094959634447_rgbf000079-resize_1/002805_2014-06-22_19-54-03_094959634447_rgbf000079-resize_1-target.png,125,3.1439999999999997,6,1735,123,feet,jsons/VE125_randls_26_rotated.json,419828,605345,41,Man
127,443302,DepthScenes,duration_manipulation_targetAtFixation,jsons/VE125_randls_26_rotated.json,http://54.235.29.9/FacialAge/BNav_EC2/DepthDuration/v2_depth_duration_MTurk/v2_DepthDuration_HTML.html#96,96,1920,937,1920,1080,8-21-2022,9-56-52,128,depth_duration_stimuli/000906_2014-06-08_13-35-43_260595134347_rgbf000155-resize_1/000906_2014-06-08_13-35-43_260595134347_rgbf000155-resize_1-target.png,125,2.8489999999999998,10,1784,125,feet,jsons/VE125_randls_26_rotated.json,419828,605345,41,Man
128,443302,DepthScenes,duration_manipulation_targetAtFixation,jsons/VE125_randls_26_rotated.json,http://54.235.29.9/FacialAge/BNav_EC2/DepthDuration/v2_depth_duration_MTurk/v2_DepthDuration_HTML.html#96,96,1920,937,1920,1080,8-21-2022,9-56-52,129,depth_duration_stimuli/000709_2014-06-08_13-51-55_260595134347_rgbf000068-resize_3/000709_2014-06-08_13-51-55_260595134347_rgbf000068-resize_3-target.png,125,1.8030000000000002,5,2377,124,feet,jsons/VE125_randls_26_rotated.json,419828,605345,41,Man
129,443302,DepthScenes,duration_manipulation_targetAtFixation,jsons/VE125_randls_26_rotated.json,http://54.235.29.9/FacialAge/BNav_EC2/DepthDuration/v2_depth_duration_MTurk/v2_DepthDuration_HTML.html#96,96,1920,937,1920,1080,8-21-2022,9-56-52,130,depth_duration_stimuli/002057_2014-06-24_21-00-13_260595134347_rgbf000120-resize_1/002057_2014-06-24_21-00-13_260595134347_rgbf000120-resize_1-target.png,125,2.967,8,1985,125,feet,jsons/VE125_randls_26_rotated.json,419828,605345,41,Man
130,443302,DepthScenes,duration_manipulation_targetAtFixation,jsons/VE125_randls_26_rotated.json,http://54.235.29.9/FacialAge/BNav_EC2/DepthDuration/v2_depth_duration_MTurk/v2_DepthDuration_HTML.html#96,96,1920,937,1920,1080,8-21-2022,9-56-52,131,depth_duration_stimuli/000749_2014-06-08_21-55-06_260595134347_rgbf000070-resize_2/000749_2014-06-08_21-55-06_260595134347_rgbf000070-resize_2-target.png,125,2.331,6,1749,125,feet,jsons/VE125_randls_26_rotated.json,419828,605345,41,Man
131,443302,DepthScenes,duration_manipulation_targetAtFixation,jsons/VE125_randls_26_rotated.json,http://54.235.29.9/FacialAge/BNav_EC2/DepthDuration/v2_depth_duration_MTurk/v2_DepthDuration_HTML.html#96,96,1920,937,1920,1080,8-21-2022,9-56-52,132,depth_duration_stimuli/002788_2014-06-22_19-36-03_094959634447_rgbf000088-resize_2/002788_2014-06-22_19-36-03_094959634447_rgbf000088-resize_2-target.png,125,1.6465,4,2198,123,feet,jsons/VE125_randls_26_rotated.json,419828,605345,41,Man
132,443302,DepthScenes,duration_manipulation_targetAtFixation,jsons/VE125_randls_26_rotated.json,http://54.235.29.9/FacialAge/BNav_EC2/DepthDuration/v2_depth_duration_MTurk/v2_DepthDuration_HTML.html#96,96,1920,937,1920,1080,8-21-2022,9-56-52,133,depth_duration_stimuli/000780_2014-06-08_22-28-29_260595134347_rgbf000126-resize_1/000780_2014-06-08_22-28-29_260595134347_rgbf000126-resize_1-target.png,125,3.3825,6,1579,124,feet,jsons/VE125_randls_26_rotated.json,419828,605345,41,Man
133,443302,DepthScenes,duration_manipulation_targetAtFixation,jsons/VE125_randls_26_rotated.json,http://54.235.29.9/FacialAge/BNav_EC2/DepthDuration/v2_depth_duration_MTurk/v2_DepthDuration_HTML.html#96,96,1920,937,1920,1080,8-21-2022,9-56-52,134,depth_duration_stimuli/002445_2014-06-28_20-32-16_260595134347_rgbf000029-resize_4/002445_2014-06-28_20-32-16_260595134347_rgbf000029-resize_4-target.png,125,2.5315,5,3933,126,feet,jsons/VE125_randls_26_rotated.json,419828,605345,41,Man
134,443302,DepthScenes,duration_manipulation_targetAtFixation,jsons/VE125_randls_26_rotated.json,http://54.235.29.9/FacialAge/BNav_EC2/DepthDuration/v2_depth_duration_MTurk/v2_DepthDuration_HTML.html#96,96,1920,937,1920,1080,8-21-2022,9-56-52,135,depth_duration_stimuli/000375_2014-06-08_11-17-29_260595134347_rgbf000133-resize_2/000375_2014-06-08_11-17-29_260595134347_rgbf000133-resize-original.jpg,125,4.718,0,1476,124,feet,jsons/VE125_randls_26_rotated.json,419828,605345,41,Man
135,443302,DepthScenes,duration_manipulation_targetAtFixation,jsons/VE125_randls_26_rotated.json,http://54.235.29.9/FacialAge/BNav_EC2/DepthDuration/v2_depth_duration_MTurk/v2_DepthDuration_HTML.html#96,96,1920,937,1920,1080,8-21-2022,9-56-52,136,depth_duration_stimuli/000556_2014-06-09_22-42-56_260595134347_rgbf000214-resize_1/000556_2014-06-09_22-42-56_260595134347_rgbf000214-resize_1-target.png,125,4.8415,10,1996,125,feet,jsons/VE125_randls_26_rotated.json,419828,605345,41,Man
136,443302,DepthScenes,duration_manipulation_targetAtFixation,jsons/VE125_randls_26_rotated.json,http://54.235.29.9/FacialAge/BNav_EC2/DepthDuration/v2_depth_duration_MTurk/v2_DepthDuration_HTML.html#96,96,1920,937,1920,1080,8-21-2022,9-56-52,137,depth_duration_stimuli/001158_2014-06-17_15-32-16_260595134347_rgbf000138-resize_2/001158_2014-06-17_15-32-16_260595134347_rgbf000138-resize_2-target.png,125,4.5315,8,1693,124,feet,jsons/VE125_randls_26_rotated.json,419828,605345,41,Man
137,443302,DepthScenes,duration_manipulation_targetAtFixation,jsons/VE125_randls_26_rotated.json,http://54.235.29.9/FacialAge/BNav_EC2/DepthDuration/v2_depth_duration_MTurk/v2_DepthDuration_HTML.html#96,96,1920,937,1920,1080,8-21-2022,9-56-52,138,depth_duration_stimuli/000665_2014-06-09_20-42-35_260595134347_rgbf000110-resize_1/000665_2014-06-09_20-42-35_260595134347_rgbf000110-resize_1-target.png,125,3.057,6,1625,125,feet,jsons/VE125_randls_26_rotated.json,419828,605345,41,Man
138,443302,DepthScenes,duration_manipulation_targetAtFixation,jsons/VE125_randls_26_rotated.json,http://54.235.29.9/FacialAge/BNav_EC2/DepthDuration/v2_depth_duration_MTurk/v2_DepthDuration_HTML.html#96,96,1920,937,1920,1080,8-21-2022,9-56-52,139,depth_duration_stimuli/001150_2014-06-17_15-27-34_260595134347_rgbf000108-resize_2/001150_2014-06-17_15-27-34_260595134347_rgbf000108-resize_2-target.png,125,4.0325,7,2153,124,feet,jsons/VE125_randls_26_rotated.json,419828,605345,41,Man
139,443302,DepthScenes,duration_manipulation_targetAtFixation,jsons/VE125_randls_26_rotated.json,http://54.235.29.9/FacialAge/BNav_EC2/DepthDuration/v2_depth_duration_MTurk/v2_DepthDuration_HTML.html#96,96,1920,937,1920,1080,8-21-2022,9-56-52,140,depth_duration_stimuli/001100_2014-06-15_17-46-26_260595134347_rgbf000225-resize_2/001100_2014-06-15_17-46-26_260595134347_rgbf000225-resize_2-target.png,125,2.24,3,2232,124,feet,jsons/VE125_randls_26_rotated.json,419828,605345,41,Man
140,443302,DepthScenes,duration_manipulation_targetAtFixation,jsons/VE125_randls_26_rotated.json,http://54.235.29.9/FacialAge/BNav_EC2/DepthDuration/v2_depth_duration_MTurk/v2_DepthDuration_HTML.html#96,96,1920,937,1920,1080,8-21-2022,9-56-52,141,depth_duration_stimuli/002784_2014-06-22_19-26-30_094959634447_rgbf000083-resize_3/002784_2014-06-22_19-26-30_094959634447_rgbf000083-resize_3-target.png,125,1.8046666666667,2,1466,123,feet,jsons/VE125_randls_26_rotated.json,419828,605345,41,Man
141,443302,DepthScenes,duration_manipulation_targetAtFixation,jsons/VE125_randls_26_rotated.json,http://54.235.29.9/FacialAge/BNav_EC2/DepthDuration/v2_depth_duration_MTurk/v2_DepthDuration_HTML.html#96,96,1920,937,1920,1080,8-21-2022,9-56-52,142,depth_duration_stimuli/002678_2014-06-13_16-15-32_094959634447_rgbf000151-resize_6/002678_2014-06-13_16-15-32_094959634447_rgbf000151-resize_6-target.png,125,2.1830000000000003,5,1509,123,feet,jsons/VE125_randls_26_rotated.json,419828,605345,41,Man
142,443302,DepthScenes,duration_manipulation_targetAtFixation,jsons/VE125_randls_26_rotated.json,http://54.235.29.9/FacialAge/BNav_EC2/DepthDuration/v2_depth_duration_MTurk/v2_DepthDuration_HTML.html#96,96,1920,937,1920,1080,8-21-2022,9-56-52,143,depth_duration_stimuli/000368_2014-06-09_15-53-01_260595134347_rgbf000155-resize_2/000368_2014-06-09_15-53-01_260595134347_rgbf000155-resize_2-target.png,125,2.4859999999999998,2,1707,126,feet,jsons/VE125_randls_26_rotated.json,419828,605345,41,Man
143,443302,DepthScenes,duration_manipulation_targetAtFixation,jsons/VE125_randls_26_rotated.json,http://54.235.29.9/FacialAge/BNav_EC2/DepthDuration/v2_depth_duration_MTurk/v2_DepthDuration_HTML.html#96,96,1920,937,1920,1080,8-21-2022,9-56-52,144,depth_duration_stimuli/002758_2014-06-22_19-11-20_094959634447_rgbf000128-resize_1/002758_2014-06-22_19-11-20_094959634447_rgbf000128-resize_1-target.png,125,2.555,3,1523,125,feet,jsons/VE125_randls_26_rotated.json,419828,605345,41,Man
144,443302,DepthScenes,duration_manipulation_targetAtFixation,jsons/VE125_randls_26_rotated.json,http://54.235.29.9/FacialAge/BNav_EC2/DepthDuration/v2_depth_duration_MTurk/v2_DepthDuration_HTML.html#96,96,1920,937,1920,1080,8-21-2022,9-56-52,145,depth_duration_stimuli/002630_2014-06-24_14-47-50_094959634447_rgbf000055-resize_1/002630_2014-06-24_14-47-50_094959634447_rgbf000055-resize_1-target.png,125,3.0095,5,1804,123,feet,jsons/VE125_randls_26_rotated.json,419828,605345,41,Man
145,443302,DepthScenes,duration_manipulation_targetAtFixation,jsons/VE125_randls_26_rotated.json,http://54.235.29.9/FacialAge/BNav_EC2/DepthDuration/v2_depth_duration_MTurk/v2_DepthDuration_HTML.html#96,96,1920,937,1920,1080,8-21-2022,9-56-52,146,depth_duration_stimuli/000457_2014-06-08_16-52-43_260595134347_rgbf000199-resize_1/000457_2014-06-08_16-52-43_260595134347_rgbf000199-resize_1-target.png,125,3.6489999999999996,5,1850,125,feet,jsons/VE125_randls_26_rotated.json,419828,605345,41,Man
146,443302,DepthScenes,duration_manipulation_targetAtFixation,jsons/VE125_randls_26_rotated.json,http://54.235.29.9/FacialAge/BNav_EC2/DepthDuration/v2_depth_duration_MTurk/v2_DepthDuration_HTML.html#96,96,1920,937,1920,1080,8-21-2022,9-56-52,147,depth_duration_stimuli/000929_2014-06-09_16-33-19_260595134347_rgbf000139-resize_0/000929_2014-06-09_16-33-19_260595134347_rgbf000139-resize_0-target.png,125,2.8680000000000003,8,2041,125,feet,jsons/VE125_randls_26_rotated.json,419828,605345,41,Man
147,443302,DepthScenes,duration_manipulation_targetAtFixation,jsons/VE125_randls_26_rotated.json,http://54.235.29.9/FacialAge/BNav_EC2/DepthDuration/v2_depth_duration_MTurk/v2_DepthDuration_HTML.html#96,96,1920,937,1920,1080,8-21-2022,9-56-52,148,depth_duration_stimuli/002953_2014-06-08_17-32-18_094959634447_rgbf000059-resize_5/002953_2014-06-08_17-32-18_094959634447_rgbf000059-resize_5-target.png,125,1.551,3,1625,126,feet,jsons/VE125_randls_26_rotated.json,419828,605345,41,Man
148,443302,DepthScenes,duration_manipulation_targetAtFixation,jsons/VE125_randls_26_rotated.json,http://54.235.29.9/FacialAge/BNav_EC2/DepthDuration/v2_depth_duration_MTurk/v2_DepthDuration_HTML.html#96,96,1920,937,1920,1080,8-21-2022,9-56-52,149,depth_duration_stimuli/000878_2014-06-08_22-52-45_260595134347_rgbf000045-resize_2/000878_2014-06-08_22-52-45_260595134347_rgbf000045-resize_2-target.png,125,2.092,3,2108,125,feet,jsons/VE125_randls_26_rotated.json,419828,605345,41,Man
149,443302,DepthScenes,duration_manipulation_targetAtFixation,jsons/VE125_randls_26_rotated.json,http://54.235.29.9/FacialAge/BNav_EC2/DepthDuration/v2_depth_duration_MTurk/v2_DepthDuration_HTML.html#96,96,1920,937,1920,1080,8-21-2022,9-56-52,150,depth_duration_stimuli/000191_2014-05-12_17-07-38_260595134347_rgbf000199-resize_0/000191_2014-05-12_17-07-38_260595134347_rgbf000199-resize_0-target.png,125,3.7995,10,1683,125,feet,jsons/VE125_randls_26_rotated.json,419828,605345,41,Man
150,443302,DepthScenes,duration_manipulation_targetAtFixation,jsons/VE125_randls_26_rotated.json,http://54.235.29.9/FacialAge/BNav_EC2/DepthDuration/v2_depth_duration_MTurk/v2_DepthDuration_HTML.html#96,96,1920,937,1920,1080,8-21-2022,9-56-52,151,depth_duration_stimuli/000493_2014-06-09_21-01-18_260595134347_rgbf000196-resize_3/000493_2014-06-09_21-01-18_260595134347_rgbf000196-resize_3-target.png,125,3.44,6,1693,125,feet,jsons/VE125_randls_26_rotated.json,419828,605345,41,Man
151,443302,DepthScenes,duration_manipulation_targetAtFixation,jsons/VE125_randls_26_rotated.json,http://54.235.29.9/FacialAge/BNav_EC2/DepthDuration/v2_depth_duration_MTurk/v2_DepthDuration_HTML.html#96,96,1920,937,1920,1080,8-21-2022,9-56-52,152,depth_duration_stimuli/000569_2014-06-09_22-51-47_260595134347_rgbf000141-resize_3/000569_2014-06-09_22-51-47_260595134347_rgbf000141-resize-original.jpg,125,4.512,0,1524,125,feet,jsons/VE125_randls_26_rotated.json,419828,605345,41,Man
152,443302,DepthScenes,duration_manipulation_targetAtFixation,jsons/VE125_randls_26_rotated.json,http://54.235.29.9/FacialAge/BNav_EC2/DepthDuration/v2_depth_duration_MTurk/v2_DepthDuration_HTML.html#96,96,1920,937,1920,1080,8-21-2022,9-56-52,153,depth_duration_stimuli/002444_2014-06-28_20-32-08_260595134347_rgbf000027-resize_0/002444_2014-06-28_20-32-08_260595134347_rgbf000027-resize_0-target.png,125,4.388999999999999,11,2861,125,feet,jsons/VE125_randls_26_rotated.json,419828,605345,41,Man
153,443302,DepthScenes,duration_manipulation_targetAtFixation,jsons/VE125_randls_26_rotated.json,http://54.235.29.9/FacialAge/BNav_EC2/DepthDuration/v2_depth_duration_MTurk/v2_DepthDuration_HTML.html#96,96,1920,937,1920,1080,8-21-2022,9-56-52,154,depth_duration_stimuli/000436_2014-06-09_22-25-11_260595134347_rgbf000137-resize_1/000436_2014-06-09_22-25-11_260595134347_rgbf000137-resize_1-target.png,125,4.0705,8,1772,126,feet,jsons/VE125_randls_26_rotated.json,419828,605345,41,Man
154,443302,DepthScenes,duration_manipulation_targetAtFixation,jsons/VE125_randls_26_rotated.json,http://54.235.29.9/FacialAge/BNav_EC2/DepthDuration/v2_depth_duration_MTurk/v2_DepthDuration_HTML.html#96,96,1920,937,1920,1080,8-21-2022,9-56-52,155,depth_duration_stimuli/000927_2014-06-09_16-32-30_260595134347_rgbf000123-resize_3/000927_2014-06-09_16-32-30_260595134347_rgbf000123-resize_3-target.png,125,2.6785,8,1625,125,feet,jsons/VE125_randls_26_rotated.json,419828,605345,41,Man
155,443302,DepthScenes,duration_manipulation_targetAtFixation,jsons/VE125_randls_26_rotated.json,http://54.235.29.9/FacialAge/BNav_EC2/DepthDuration/v2_depth_duration_MTurk/v2_DepthDuration_HTML.html#96,96,1920,937,1920,1080,8-21-2022,9-56-52,156,depth_duration_stimuli/001110_2014-06-15_17-25-28_260595134347_rgbf000150-resize_1/001110_2014-06-15_17-25-28_260595134347_rgbf000150-resize_1-target.png,125,1.7115,6,1635,124,feet,jsons/VE125_randls_26_rotated.json,419828,605345,41,Man
156,443302,DepthScenes,duration_manipulation_targetAtFixation,jsons/VE125_randls_26_rotated.json,http://54.235.29.9/FacialAge/BNav_EC2/DepthDuration/v2_depth_duration_MTurk/v2_DepthDuration_HTML.html#96,96,1920,937,1920,1080,8-21-2022,9-56-52,157,depth_duration_stimuli/003048_2014-06-15_13-49-43_094959634447_rgbf000150-resize_1/003048_2014-06-15_13-49-43_094959634447_rgbf000150-resize_1-target.png,125,4.0035,10,2313,125,feet,jsons/VE125_randls_26_rotated.json,419828,605345,41,Man
157,443302,DepthScenes,duration_manipulation_targetAtFixation,jsons/VE125_randls_26_rotated.json,http://54.235.29.9/FacialAge/BNav_EC2/DepthDuration/v2_depth_duration_MTurk/v2_DepthDuration_HTML.html#96,96,1920,937,1920,1080,8-21-2022,9-56-52,158,depth_duration_stimuli/002043_2014-06-24_20-29-38_260595134347_rgbf000039-resize_4/002043_2014-06-24_20-29-38_260595134347_rgbf000039-resize_4-target.png,125,2.8435,8,1736,124,feet,jsons/VE125_randls_26_rotated.json,419828,605345,41,Man
158,443302,DepthScenes,duration_manipulation_targetAtFixation,jsons/VE125_randls_26_rotated.json,http://54.235.29.9/FacialAge/BNav_EC2/DepthDuration/v2_depth_duration_MTurk/v2_DepthDuration_HTML.html#96,96,1920,937,1920,1080,8-21-2022,9-56-52,159,depth_duration_stimuli/000866_2014-06-09_20-45-42_260595134347_rgbf000139-resize_1/000866_2014-06-09_20-45-42_260595134347_rgbf000139-resize_1-target.png,125,3.2155,6,2235,125,feet,jsons/VE125_randls_26_rotated.json,419828,605345,41,Man
159,443302,DepthScenes,duration_manipulation_targetAtFixation,jsons/VE125_randls_26_rotated.json,http://54.235.29.9/FacialAge/BNav_EC2/DepthDuration/v2_depth_duration_MTurk/v2_DepthDuration_HTML.html#96,96,1920,937,1920,1080,8-21-2022,9-56-52,160,depth_duration_stimuli/002989_2014-06-15_12-25-03_094959634447_rgbf000150-resize_3/002989_2014-06-15_12-25-03_094959634447_rgbf000150-resize_3-target.png,125,4.1975,10,2985,125,feet,jsons/VE125_randls_26_rotated.json,419828,605345,41,Man
160,443302,DepthScenes,duration_manipulation_targetAtFixation,jsons/VE125_randls_26_rotated.json,http://54.235.29.9/FacialAge/BNav_EC2/DepthDuration/v2_depth_duration_MTurk/v2_DepthDuration_HTML.html#96,96,1920,937,1920,1080,8-21-2022,9-56-52,161,depth_duration_stimuli/000691_2014-06-08_13-08-50_260595134347_rgbf000132-resize_3/000691_2014-06-08_13-08-50_260595134347_rgbf000132-resize_3-target.png,125,4.1530000000000005,8,1927,124,feet,jsons/VE125_randls_26_rotated.json,419828,605345,41,Man
161,443302,DepthScenes,duration_manipulation_targetAtFixation,jsons/VE125_randls_26_rotated.json,http://54.235.29.9/FacialAge/BNav_EC2/DepthDuration/v2_depth_duration_MTurk/v2_DepthDuration_HTML.html#96,96,1920,937,1920,1080,8-21-2022,9-56-52,162,depth_duration_stimuli/002213_2014-06-28_18-37-58_260595134347_rgbf000055-resize_1/002213_2014-06-28_18-37-58_260595134347_rgbf000055-resize_1-target.png,125,3.62,8,1603,125,feet,jsons/VE125_randls_26_rotated.json,419828,605345,41,Man
162,443302,DepthScenes,duration_manipulation_targetAtFixation,jsons/VE125_randls_26_rotated.json,http://54.235.29.9/FacialAge/BNav_EC2/DepthDuration/v2_depth_duration_MTurk/v2_DepthDuration_HTML.html#96,96,1920,937,1920,1080,8-21-2022,9-56-52,163,depth_duration_stimuli/001214_2014-06-17_16-13-55_260595134347_rgbf000111-resize_0/001214_2014-06-17_16-13-55_260595134347_rgbf000111-resize_0-target.png,125,2.6505,3,1602,125,feet,jsons/VE125_randls_26_rotated.json,419828,605345,41,Man
163,443302,DepthScenes,duration_manipulation_targetAtFixation,jsons/VE125_randls_26_rotated.json,http://54.235.29.9/FacialAge/BNav_EC2/DepthDuration/v2_depth_duration_MTurk/v2_DepthDuration_HTML.html#96,96,1920,937,1920,1080,8-21-2022,9-56-52,164,depth_duration_stimuli/000810_2014-06-08_17-20-01_260595134347_rgbf000105-resize_0/000810_2014-06-08_17-20-01_260595134347_rgbf000105-resize_0-target.png,125,1.4865,4,2356,124,feet,jsons/VE125_randls_26_rotated.json,419828,605345,41,Man
