,subjID,experimentName,versionName,sequenceName,url,selected_row,windowWidth,windowHeight,screenWidth,screenHeight,startDate,startTime,trial,stimulus,duration,actual_depth,depth_estimate,trial_RT,log_sceneDuration,unitSelection,seq_filepath,experimentTime,totalTime,age,gender
0,444976,DepthScenes,duration_manipulation_targetAtFixation,jsons/VE83_randls_5_rotated.json,http://54.235.29.9/FacialAge/BNav_EC2/DepthDuration/v2_depth_duration_MTurk/v2_DepthDuration_HTML.html#10,10,1366,651,1366,768,8-29-2023,9-35-0,1,depth_duration_stimuli/000483_2014-06-09_20-41-45_260595134347_rgbf000116-resize_4/000483_2014-06-09_20-41-45_260595134347_rgbf000116-resize_4-target.png,83,1.337,0,3722,84,meters,jsons/VE83_randls_5_rotated.json,1476765,1734460,33,Woman
1,444976,DepthScenes,duration_manipulation_targetAtFixation,jsons/VE83_randls_5_rotated.json,http://54.235.29.9/FacialAge/BNav_EC2/DepthDuration/v2_depth_duration_MTurk/v2_DepthDuration_HTML.html#10,10,1366,651,1366,768,8-29-2023,9-35-0,2,depth_duration_stimuli/000469_2014-06-09_19-42-10_260595134347_rgbf000081-resize_1/000469_2014-06-09_19-42-10_260595134347_rgbf000081-resize_1-target.png,83,1.652,0,3322,82,meters,jsons/VE83_randls_5_rotated.json,1476765,1734460,33,Woman
2,444976,DepthScenes,duration_manipulation_targetAtFixation,jsons/VE83_randls_5_rotated.json,http://54.235.29.9/FacialAge/BNav_EC2/DepthDuration/v2_depth_duration_MTurk/v2_DepthDuration_HTML.html#10,10,1366,651,1366,768,8-29-2023,9-35-0,3,depth_duration_stimuli/001136_2014-06-17_15-19-41_260595134347_rgbf000076-resize_3/001136_2014-06-17_15-19-41_260595134347_rgbf000076-resize_3-target.png,83,1.8655,0,3308,83,meters,jsons/VE83_randls_5_rotated.json,1476765,1734460,33,Woman
3,444976,DepthScenes,duration_manipulation_targetAtFixation,jsons/VE83_randls_5_rotated.json,http://54.235.29.9/FacialAge/BNav_EC2/DepthDuration/v2_depth_duration_MTurk/v2_DepthDuration_HTML.html#10,10,1366,651,1366,768,8-29-2023,9-35-0,4,depth_duration_stimuli/001164_2014-06-17_15-35-46_260595134347_rgbf000085-resize_3/001164_2014-06-17_15-35-46_260595134347_rgbf000085-resize_3-target.png,83,2.354,0,3962,83,meters,jsons/VE83_randls_5_rotated.json,1476765,1734460,33,Woman
4,444976,DepthScenes,duration_manipulation_targetAtFixation,jsons/VE83_randls_5_rotated.json,http://54.235.29.9/FacialAge/BNav_EC2/DepthDuration/v2_depth_duration_MTurk/v2_DepthDuration_HTML.html#10,10,1366,651,1366,768,8-29-2023,9-35-0,5,depth_duration_stimuli/002953_2014-06-08_17-32-18_094959634447_rgbf000059-resize_5/002953_2014-06-08_17-32-18_094959634447_rgbf000059-resize_5-target.png,83,1.551,0,3808,83,meters,jsons/VE83_randls_5_rotated.json,1476765,1734460,33,Woman
5,444976,DepthScenes,duration_manipulation_targetAtFixation,jsons/VE83_randls_5_rotated.json,http://54.235.29.9/FacialAge/BNav_EC2/DepthDuration/v2_depth_duration_MTurk/v2_DepthDuration_HTML.html#10,10,1366,651,1366,768,8-29-2023,9-35-0,6,depth_duration_stimuli/000878_2014-06-08_22-52-45_260595134347_rgbf000045-resize_2/000878_2014-06-08_22-52-45_260595134347_rgbf000045-resize_2-target.png,83,2.092,0,3010,82,meters,jsons/VE83_randls_5_rotated.json,1476765,1734460,33,Woman
6,444976,DepthScenes,duration_manipulation_targetAtFixation,jsons/VE83_randls_5_rotated.json,http://54.235.29.9/FacialAge/BNav_EC2/DepthDuration/v2_depth_duration_MTurk/v2_DepthDuration_HTML.html#10,10,1366,651,1366,768,8-29-2023,9-35-0,7,depth_duration_stimuli/001828_2014-06-26_21-40-03_260595134347_rgbf000024-resize_0/001828_2014-06-26_21-40-03_260595134347_rgbf000024-resize_0-target.png,83,4.8260000000000005,0,3011,83,meters,jsons/VE83_randls_5_rotated.json,1476765,1734460,33,Woman
7,444976,DepthScenes,duration_manipulation_targetAtFixation,jsons/VE83_randls_5_rotated.json,http://54.235.29.9/FacialAge/BNav_EC2/DepthDuration/v2_depth_duration_MTurk/v2_DepthDuration_HTML.html#10,10,1366,651,1366,768,8-29-2023,9-35-0,8,depth_duration_stimuli/000009_2014-05-26_14-32-05_260595134347_rgbf000034-resize_3/000009_2014-05-26_14-32-05_260595134347_rgbf000034-resize_3-target.png,83,3.8715,0,3194,82,meters,jsons/VE83_randls_5_rotated.json,1476765,1734460,33,Woman
8,444976,DepthScenes,duration_manipulation_targetAtFixation,jsons/VE83_randls_5_rotated.json,http://54.235.29.9/FacialAge/BNav_EC2/DepthDuration/v2_depth_duration_MTurk/v2_DepthDuration_HTML.html#10,10,1366,651,1366,768,8-29-2023,9-35-0,9,depth_duration_stimuli/000409_2014-06-04_19-23-33_260595134347_rgbf000067-resize_0/000409_2014-06-04_19-23-33_260595134347_rgbf000067-resize_0-target.png,83,3.7335,0,3378,83,meters,jsons/VE83_randls_5_rotated.json,1476765,1734460,33,Woman
9,444976,DepthScenes,duration_manipulation_targetAtFixation,jsons/VE83_randls_5_rotated.json,http://54.235.29.9/FacialAge/BNav_EC2/DepthDuration/v2_depth_duration_MTurk/v2_DepthDuration_HTML.html#10,10,1366,651,1366,768,8-29-2023,9-35-0,10,depth_duration_stimuli/002663_2014-06-13_15-50-26_094959634447_rgbf000075-resize_1/002663_2014-06-13_15-50-26_094959634447_rgbf000075-resize_1-target.png,83,4.7495,0,3507,84,meters,jsons/VE83_randls_5_rotated.json,1476765,1734460,33,Woman
10,444976,DepthScenes,duration_manipulation_targetAtFixation,jsons/VE83_randls_5_rotated.json,http://54.235.29.9/FacialAge/BNav_EC2/DepthDuration/v2_depth_duration_MTurk/v2_DepthDuration_HTML.html#10,10,1366,651,1366,768,8-29-2023,9-35-0,11,depth_duration_stimuli/001052_2014-06-08_18-24-54_260595134347_rgbf000130-resize_1/001052_2014-06-08_18-24-54_260595134347_rgbf000130-resize_1-target.png,83,4.1045,0,3035,83,meters,jsons/VE83_randls_5_rotated.json,1476765,1734460,33,Woman
11,444976,DepthScenes,duration_manipulation_targetAtFixation,jsons/VE83_randls_5_rotated.json,http://54.235.29.9/FacialAge/BNav_EC2/DepthDuration/v2_depth_duration_MTurk/v2_DepthDuration_HTML.html#10,10,1366,651,1366,768,8-29-2023,9-35-0,12,depth_duration_stimuli/002988_2014-06-15_12-24-20_094959634447_rgbf000150-resize_1/002988_2014-06-15_12-24-20_094959634447_rgbf000150-resize_1-target.png,83,4.7669999999999995,0,3068,82,meters,jsons/VE83_randls_5_rotated.json,1476765,1734460,33,Woman
12,444976,DepthScenes,duration_manipulation_targetAtFixation,jsons/VE83_randls_5_rotated.json,http://54.235.29.9/FacialAge/BNav_EC2/DepthDuration/v2_depth_duration_MTurk/v2_DepthDuration_HTML.html#10,10,1366,651,1366,768,8-29-2023,9-35-0,13,depth_duration_stimuli/003048_2014-06-15_13-49-43_094959634447_rgbf000150-resize_1/003048_2014-06-15_13-49-43_094959634447_rgbf000150-resize_1-target.png,83,4.0035,0,3012,84,meters,jsons/VE83_randls_5_rotated.json,1476765,1734460,33,Woman
13,444976,DepthScenes,duration_manipulation_targetAtFixation,jsons/VE83_randls_5_rotated.json,http://54.235.29.9/FacialAge/BNav_EC2/DepthDuration/v2_depth_duration_MTurk/v2_DepthDuration_HTML.html#10,10,1366,651,1366,768,8-29-2023,9-35-0,14,depth_duration_stimuli/002043_2014-06-24_20-29-38_260595134347_rgbf000039-resize_4/002043_2014-06-24_20-29-38_260595134347_rgbf000039-resize_4-target.png,83,2.8435,0,3107,84,meters,jsons/VE83_randls_5_rotated.json,1476765,1734460,33,Woman
14,444976,DepthScenes,duration_manipulation_targetAtFixation,jsons/VE83_randls_5_rotated.json,http://54.235.29.9/FacialAge/BNav_EC2/DepthDuration/v2_depth_duration_MTurk/v2_DepthDuration_HTML.html#10,10,1366,651,1366,768,8-29-2023,9-35-0,15,depth_duration_stimuli/000665_2014-06-09_20-42-35_260595134347_rgbf000110-resize_1/000665_2014-06-09_20-42-35_260595134347_rgbf000110-resize_1-target.png,83,3.057,0,5898,84,meters,jsons/VE83_randls_5_rotated.json,1476765,1734460,33,Woman
15,444976,DepthScenes,duration_manipulation_targetAtFixation,jsons/VE83_randls_5_rotated.json,http://54.235.29.9/FacialAge/BNav_EC2/DepthDuration/v2_depth_duration_MTurk/v2_DepthDuration_HTML.html#10,10,1366,651,1366,768,8-29-2023,9-35-0,16,depth_duration_stimuli/001150_2014-06-17_15-27-34_260595134347_rgbf000108-resize_2/001150_2014-06-17_15-27-34_260595134347_rgbf000108-resize_2-target.png,83,4.0325,0,3075,83,meters,jsons/VE83_randls_5_rotated.json,1476765,1734460,33,Woman
16,444976,DepthScenes,duration_manipulation_targetAtFixation,jsons/VE83_randls_5_rotated.json,http://54.235.29.9/FacialAge/BNav_EC2/DepthDuration/v2_depth_duration_MTurk/v2_DepthDuration_HTML.html#10,10,1366,651,1366,768,8-29-2023,9-35-0,17,depth_duration_stimuli/002875_2014-06-01_15-19-00_094959634447_rgbf000151-resize_1/002875_2014-06-01_15-19-00_094959634447_rgbf000151-resize_1-target.png,83,1.9675,0,4316,83,meters,jsons/VE83_randls_5_rotated.json,1476765,1734460,33,Woman
17,444976,DepthScenes,duration_manipulation_targetAtFixation,jsons/VE83_randls_5_rotated.json,http://54.235.29.9/FacialAge/BNav_EC2/DepthDuration/v2_depth_duration_MTurk/v2_DepthDuration_HTML.html#10,10,1366,651,1366,768,8-29-2023,9-35-0,18,depth_duration_stimuli/001011_2014-06-08_23-18-54_260595134347_rgbf000044-resize_4/001011_2014-06-08_23-18-54_260595134347_rgbf000044-resize_4-target.png,83,2.4730000000000003,0,7267,83,meters,jsons/VE83_randls_5_rotated.json,1476765,1734460,33,Woman
18,444976,DepthScenes,duration_manipulation_targetAtFixation,jsons/VE83_randls_5_rotated.json,http://54.235.29.9/FacialAge/BNav_EC2/DepthDuration/v2_depth_duration_MTurk/v2_DepthDuration_HTML.html#10,10,1366,651,1366,768,8-29-2023,9-35-0,19,depth_duration_stimuli/001498_2014-06-19_17-45-14_260595134347_rgbf000129-resize_4/001498_2014-06-19_17-45-14_260595134347_rgbf000129-resize-original.jpg,83,1.4075,0,2819,82,meters,jsons/VE83_randls_5_rotated.json,1476765,1734460,33,Woman
19,444976,DepthScenes,duration_manipulation_targetAtFixation,jsons/VE83_randls_5_rotated.json,http://54.235.29.9/FacialAge/BNav_EC2/DepthDuration/v2_depth_duration_MTurk/v2_DepthDuration_HTML.html#10,10,1366,651,1366,768,8-29-2023,9-35-0,20,depth_duration_stimuli/000927_2014-06-09_16-32-30_260595134347_rgbf000123-resize_3/000927_2014-06-09_16-32-30_260595134347_rgbf000123-resize_3-target.png,83,2.6785,0,2995,83,meters,jsons/VE83_randls_5_rotated.json,1476765,1734460,33,Woman
20,444976,DepthScenes,duration_manipulation_targetAtFixation,jsons/VE83_randls_5_rotated.json,http://54.235.29.9/FacialAge/BNav_EC2/DepthDuration/v2_depth_duration_MTurk/v2_DepthDuration_HTML.html#10,10,1366,651,1366,768,8-29-2023,9-35-0,21,depth_duration_stimuli/001110_2014-06-15_17-25-28_260595134347_rgbf000150-resize_1/001110_2014-06-15_17-25-28_260595134347_rgbf000150-resize_1-target.png,83,1.7115,0,3386,83,meters,jsons/VE83_randls_5_rotated.json,1476765,1734460,33,Woman
21,444976,DepthScenes,duration_manipulation_targetAtFixation,jsons/VE83_randls_5_rotated.json,http://54.235.29.9/FacialAge/BNav_EC2/DepthDuration/v2_depth_duration_MTurk/v2_DepthDuration_HTML.html#10,10,1366,651,1366,768,8-29-2023,9-35-0,22,depth_duration_stimuli/003338_2014-05-20_11-01-23_094959634447_rgbf000051-resize_6/003338_2014-05-20_11-01-23_094959634447_rgbf000051-resize_6-target.png,83,1.693,0,3164,84,meters,jsons/VE83_randls_5_rotated.json,1476765,1734460,33,Woman
22,444976,DepthScenes,duration_manipulation_targetAtFixation,jsons/VE83_randls_5_rotated.json,http://54.235.29.9/FacialAge/BNav_EC2/DepthDuration/v2_depth_duration_MTurk/v2_DepthDuration_HTML.html#10,10,1366,651,1366,768,8-29-2023,9-35-0,23,depth_duration_stimuli/002509_2014-06-24_13-19-22_094959634447_rgbf000077-resize_0/002509_2014-06-24_13-19-22_094959634447_rgbf000077-resize_0-target.png,83,1.3065,0,2641,83,meters,jsons/VE83_randls_5_rotated.json,1476765,1734460,33,Woman
23,444976,DepthScenes,duration_manipulation_targetAtFixation,jsons/VE83_randls_5_rotated.json,http://54.235.29.9/FacialAge/BNav_EC2/DepthDuration/v2_depth_duration_MTurk/v2_DepthDuration_HTML.html#10,10,1366,651,1366,768,8-29-2023,9-35-0,24,depth_duration_stimuli/002103_2014-06-25_20-00-40_260595134347_rgbf000049-resize_0/002103_2014-06-25_20-00-40_260595134347_rgbf000049-resize_0-target.png,83,4.105,0,2850,82,meters,jsons/VE83_randls_5_rotated.json,1476765,1734460,33,Woman
24,444976,DepthScenes,duration_manipulation_targetAtFixation,jsons/VE83_randls_5_rotated.json,http://54.235.29.9/FacialAge/BNav_EC2/DepthDuration/v2_depth_duration_MTurk/v2_DepthDuration_HTML.html#10,10,1366,651,1366,768,8-29-2023,9-35-0,25,depth_duration_stimuli/002039_2014-06-24_20-22-38_260595134347_rgbf000084-resize_1/002039_2014-06-24_20-22-38_260595134347_rgbf000084-resize_1-target.png,83,4.408,0,135133,83,meters,jsons/VE83_randls_5_rotated.json,1476765,1734460,33,Woman
25,444976,DepthScenes,duration_manipulation_targetAtFixation,jsons/VE83_randls_5_rotated.json,http://54.235.29.9/FacialAge/BNav_EC2/DepthDuration/v2_depth_duration_MTurk/v2_DepthDuration_HTML.html#10,10,1366,651,1366,768,8-29-2023,9-35-0,26,depth_duration_stimuli/002750_2014-06-22_19-08-03_094959634447_rgbf000094-resize_4/002750_2014-06-22_19-08-03_094959634447_rgbf000094-resize_4-target.png,83,2.354,0,2844,84,meters,jsons/VE83_randls_5_rotated.json,1476765,1734460,33,Woman
26,444976,DepthScenes,duration_manipulation_targetAtFixation,jsons/VE83_randls_5_rotated.json,http://54.235.29.9/FacialAge/BNav_EC2/DepthDuration/v2_depth_duration_MTurk/v2_DepthDuration_HTML.html#10,10,1366,651,1366,768,8-29-2023,9-35-0,27,depth_duration_stimuli/002549_2014-06-24_13-41-39_094959634447_rgbf000022-resize_3/002549_2014-06-24_13-41-39_094959634447_rgbf000022-resize_3-target.png,83,1.476,0,3122,83,meters,jsons/VE83_randls_5_rotated.json,1476765,1734460,33,Woman
27,444976,DepthScenes,duration_manipulation_targetAtFixation,jsons/VE83_randls_5_rotated.json,http://54.235.29.9/FacialAge/BNav_EC2/DepthDuration/v2_depth_duration_MTurk/v2_DepthDuration_HTML.html#10,10,1366,651,1366,768,8-29-2023,9-35-0,28,depth_duration_stimuli/000677_2014-06-08_23-10-32_260595134347_rgbf000158-resize_6/000677_2014-06-08_23-10-32_260595134347_rgbf000158-resize_6-target.png,83,3.556,0,3906,84,meters,jsons/VE83_randls_5_rotated.json,1476765,1734460,33,Woman
28,444976,DepthScenes,duration_manipulation_targetAtFixation,jsons/VE83_randls_5_rotated.json,http://54.235.29.9/FacialAge/BNav_EC2/DepthDuration/v2_depth_duration_MTurk/v2_DepthDuration_HTML.html#10,10,1366,651,1366,768,8-29-2023,9-35-0,29,depth_duration_stimuli/001029_2014-06-08_13-17-57_260595134347_rgbf000065-resize_1/001029_2014-06-08_13-17-57_260595134347_rgbf000065-resize_1-target.png,83,3.0835,0,2741,83,meters,jsons/VE83_randls_5_rotated.json,1476765,1734460,33,Woman
29,444976,DepthScenes,duration_manipulation_targetAtFixation,jsons/VE83_randls_5_rotated.json,http://54.235.29.9/FacialAge/BNav_EC2/DepthDuration/v2_depth_duration_MTurk/v2_DepthDuration_HTML.html#10,10,1366,651,1366,768,8-29-2023,9-35-0,30,depth_duration_stimuli/002072_2014-06-24_21-48-06_260595134347_rgbf000115-resize_0/002072_2014-06-24_21-48-06_260595134347_rgbf000115-resize-original.jpg,83,4.702,0,3122,84,meters,jsons/VE83_randls_5_rotated.json,1476765,1734460,33,Woman
30,444976,DepthScenes,duration_manipulation_targetAtFixation,jsons/VE83_randls_5_rotated.json,http://54.235.29.9/FacialAge/BNav_EC2/DepthDuration/v2_depth_duration_MTurk/v2_DepthDuration_HTML.html#10,10,1366,651,1366,768,8-29-2023,9-35-0,31,depth_duration_stimuli/001100_2014-06-15_17-46-26_260595134347_rgbf000225-resize_2/001100_2014-06-15_17-46-26_260595134347_rgbf000225-resize_2-target.png,83,2.24,0,2875,83,meters,jsons/VE83_randls_5_rotated.json,1476765,1734460,33,Woman
31,444976,DepthScenes,duration_manipulation_targetAtFixation,jsons/VE83_randls_5_rotated.json,http://54.235.29.9/FacialAge/BNav_EC2/DepthDuration/v2_depth_duration_MTurk/v2_DepthDuration_HTML.html#10,10,1366,651,1366,768,8-29-2023,9-35-0,32,depth_duration_stimuli/002784_2014-06-22_19-26-30_094959634447_rgbf000083-resize_3/002784_2014-06-22_19-26-30_094959634447_rgbf000083-resize_3-target.png,83,1.8046666666667,0,2724,84,meters,jsons/VE83_randls_5_rotated.json,1476765,1734460,33,Woman
32,444976,DepthScenes,duration_manipulation_targetAtFixation,jsons/VE83_randls_5_rotated.json,http://54.235.29.9/FacialAge/BNav_EC2/DepthDuration/v2_depth_duration_MTurk/v2_DepthDuration_HTML.html#10,10,1366,651,1366,768,8-29-2023,9-35-0,33,depth_duration_stimuli/000742_2014-06-08_18-48-09_260595134347_rgbf000164-resize_4/000742_2014-06-08_18-48-09_260595134347_rgbf000164-resize_4-target.png,83,4.632,0,3033,82,meters,jsons/VE83_randls_5_rotated.json,1476765,1734460,33,Woman
33,444976,DepthScenes,duration_manipulation_targetAtFixation,jsons/VE83_randls_5_rotated.json,http://54.235.29.9/FacialAge/BNav_EC2/DepthDuration/v2_depth_duration_MTurk/v2_DepthDuration_HTML.html#10,10,1366,651,1366,768,8-29-2023,9-35-0,34,depth_duration_stimuli/001066_2014-06-08_22-03-20_260595134347_rgbf000066-resize_4/001066_2014-06-08_22-03-20_260595134347_rgbf000066-resize_4-target.png,83,4.2330000000000005,0,2946,83,meters,jsons/VE83_randls_5_rotated.json,1476765,1734460,33,Woman
34,444976,DepthScenes,duration_manipulation_targetAtFixation,jsons/VE83_randls_5_rotated.json,http://54.235.29.9/FacialAge/BNav_EC2/DepthDuration/v2_depth_duration_MTurk/v2_DepthDuration_HTML.html#10,10,1366,651,1366,768,8-29-2023,9-35-0,35,depth_duration_stimuli/002995_2014-06-15_12-31-26_094959634447_rgbf000150-resize_1/002995_2014-06-15_12-31-26_094959634447_rgbf000150-resize_1-target.png,83,3.8360000000000003,0,3193,82,meters,jsons/VE83_randls_5_rotated.json,1476765,1734460,33,Woman
35,444976,DepthScenes,duration_manipulation_targetAtFixation,jsons/VE83_randls_5_rotated.json,http://54.235.29.9/FacialAge/BNav_EC2/DepthDuration/v2_depth_duration_MTurk/v2_DepthDuration_HTML.html#10,10,1366,651,1366,768,8-29-2023,9-35-0,36,depth_duration_stimuli/002748_2014-06-22_19-07-22_094959634447_rgbf000078-resize_1/002748_2014-06-22_19-07-22_094959634447_rgbf000078-resize_1-target.png,83,4.6705,0,2629,83,meters,jsons/VE83_randls_5_rotated.json,1476765,1734460,33,Woman
36,444976,DepthScenes,duration_manipulation_targetAtFixation,jsons/VE83_randls_5_rotated.json,http://54.235.29.9/FacialAge/BNav_EC2/DepthDuration/v2_depth_duration_MTurk/v2_DepthDuration_HTML.html#10,10,1366,651,1366,768,8-29-2023,9-35-0,37,depth_duration_stimuli/000943_2014-06-09_19-31-07_260595134347_rgbf000128-resize_1/000943_2014-06-09_19-31-07_260595134347_rgbf000128-resize_1-target.png,83,1.9765,0,2914,82,meters,jsons/VE83_randls_5_rotated.json,1476765,1734460,33,Woman
37,444976,DepthScenes,duration_manipulation_targetAtFixation,jsons/VE83_randls_5_rotated.json,http://54.235.29.9/FacialAge/BNav_EC2/DepthDuration/v2_depth_duration_MTurk/v2_DepthDuration_HTML.html#10,10,1366,651,1366,768,8-29-2023,9-35-0,38,depth_duration_stimuli/003070_2014-06-15_14-58-27_094959634447_rgbf000150-resize_3/003070_2014-06-15_14-58-27_094959634447_rgbf000150-resize_3-target.png,83,2.9415,0,14549,82,meters,jsons/VE83_randls_5_rotated.json,1476765,1734460,33,Woman
38,444976,DepthScenes,duration_manipulation_targetAtFixation,jsons/VE83_randls_5_rotated.json,http://54.235.29.9/FacialAge/BNav_EC2/DepthDuration/v2_depth_duration_MTurk/v2_DepthDuration_HTML.html#10,10,1366,651,1366,768,8-29-2023,9-35-0,39,depth_duration_stimuli/000780_2014-06-08_22-28-29_260595134347_rgbf000126-resize_1/000780_2014-06-08_22-28-29_260595134347_rgbf000126-resize_1-target.png,83,3.3825,0,5233,81,meters,jsons/VE83_randls_5_rotated.json,1476765,1734460,33,Woman
39,444976,DepthScenes,duration_manipulation_targetAtFixation,jsons/VE83_randls_5_rotated.json,http://54.235.29.9/FacialAge/BNav_EC2/DepthDuration/v2_depth_duration_MTurk/v2_DepthDuration_HTML.html#10,10,1366,651,1366,768,8-29-2023,9-35-0,40,depth_duration_stimuli/002445_2014-06-28_20-32-16_260595134347_rgbf000029-resize_4/002445_2014-06-28_20-32-16_260595134347_rgbf000029-resize_4-target.png,83,2.5315,0,3164,83,meters,jsons/VE83_randls_5_rotated.json,1476765,1734460,33,Woman
40,444976,DepthScenes,duration_manipulation_targetAtFixation,jsons/VE83_randls_5_rotated.json,http://54.235.29.9/FacialAge/BNav_EC2/DepthDuration/v2_depth_duration_MTurk/v2_DepthDuration_HTML.html#10,10,1366,651,1366,768,8-29-2023,9-35-0,41,depth_duration_stimuli/002949_2014-06-26_15-57-42_094959634447_rgbf000079-resize_1/002949_2014-06-26_15-57-42_094959634447_rgbf000079-resize_1-target.png,83,1.8915,0,3386,84,meters,jsons/VE83_randls_5_rotated.json,1476765,1734460,33,Woman
41,444976,DepthScenes,duration_manipulation_targetAtFixation,jsons/VE83_randls_5_rotated.json,http://54.235.29.9/FacialAge/BNav_EC2/DepthDuration/v2_depth_duration_MTurk/v2_DepthDuration_HTML.html#10,10,1366,651,1366,768,8-29-2023,9-35-0,42,depth_duration_stimuli/000522_2014-06-08_13-35-06_260595134347_rgbf000244-resize_1/000522_2014-06-08_13-35-06_260595134347_rgbf000244-resize_1-target.png,83,2.3715,0,2786,81,meters,jsons/VE83_randls_5_rotated.json,1476765,1734460,33,Woman
42,444976,DepthScenes,duration_manipulation_targetAtFixation,jsons/VE83_randls_5_rotated.json,http://54.235.29.9/FacialAge/BNav_EC2/DepthDuration/v2_depth_duration_MTurk/v2_DepthDuration_HTML.html#10,10,1366,651,1366,768,8-29-2023,9-35-0,43,depth_duration_stimuli/000866_2014-06-09_20-45-42_260595134347_rgbf000139-resize_1/000866_2014-06-09_20-45-42_260595134347_rgbf000139-resize_1-target.png,83,3.2155,0,3178,84,meters,jsons/VE83_randls_5_rotated.json,1476765,1734460,33,Woman
43,444976,DepthScenes,duration_manipulation_targetAtFixation,jsons/VE83_randls_5_rotated.json,http://54.235.29.9/FacialAge/BNav_EC2/DepthDuration/v2_depth_duration_MTurk/v2_DepthDuration_HTML.html#10,10,1366,651,1366,768,8-29-2023,9-35-0,44,depth_duration_stimuli/002989_2014-06-15_12-25-03_094959634447_rgbf000150-resize_3/002989_2014-06-15_12-25-03_094959634447_rgbf000150-resize_3-target.png,83,4.1975,0,2739,84,meters,jsons/VE83_randls_5_rotated.json,1476765,1734460,33,Woman
44,444976,DepthScenes,duration_manipulation_targetAtFixation,jsons/VE83_randls_5_rotated.json,http://54.235.29.9/FacialAge/BNav_EC2/DepthDuration/v2_depth_duration_MTurk/v2_DepthDuration_HTML.html#10,10,1366,651,1366,768,8-29-2023,9-35-0,45,depth_duration_stimuli/002414_2014-06-28_20-24-58_260595134347_rgbf000067-resize_4/002414_2014-06-28_20-24-58_260595134347_rgbf000067-resize_4-target.png,83,4.363,0,3081,81,meters,jsons/VE83_randls_5_rotated.json,1476765,1734460,33,Woman
45,444976,DepthScenes,duration_manipulation_targetAtFixation,jsons/VE83_randls_5_rotated.json,http://54.235.29.9/FacialAge/BNav_EC2/DepthDuration/v2_depth_duration_MTurk/v2_DepthDuration_HTML.html#10,10,1366,651,1366,768,8-29-2023,9-35-0,46,depth_duration_stimuli/000773_2014-06-08_22-24-54_260595134347_rgbf000093-resize_1/000773_2014-06-08_22-24-54_260595134347_rgbf000093-resize_1-target.png,83,4.973,0,2947,83,meters,jsons/VE83_randls_5_rotated.json,1476765,1734460,33,Woman
46,444976,DepthScenes,duration_manipulation_targetAtFixation,jsons/VE83_randls_5_rotated.json,http://54.235.29.9/FacialAge/BNav_EC2/DepthDuration/v2_depth_duration_MTurk/v2_DepthDuration_HTML.html#10,10,1366,651,1366,768,8-29-2023,9-35-0,47,depth_duration_stimuli/000749_2014-06-08_21-55-06_260595134347_rgbf000070-resize_2/000749_2014-06-08_21-55-06_260595134347_rgbf000070-resize_2-target.png,83,2.331,0,3107,82,meters,jsons/VE83_randls_5_rotated.json,1476765,1734460,33,Woman
47,444976,DepthScenes,duration_manipulation_targetAtFixation,jsons/VE83_randls_5_rotated.json,http://54.235.29.9/FacialAge/BNav_EC2/DepthDuration/v2_depth_duration_MTurk/v2_DepthDuration_HTML.html#10,10,1366,651,1366,768,8-29-2023,9-35-0,48,depth_duration_stimuli/002788_2014-06-22_19-36-03_094959634447_rgbf000088-resize_2/002788_2014-06-22_19-36-03_094959634447_rgbf000088-resize_2-target.png,83,1.6465,0,2812,84,meters,jsons/VE83_randls_5_rotated.json,1476765,1734460,33,Woman
48,444976,DepthScenes,duration_manipulation_targetAtFixation,jsons/VE83_randls_5_rotated.json,http://54.235.29.9/FacialAge/BNav_EC2/DepthDuration/v2_depth_duration_MTurk/v2_DepthDuration_HTML.html#10,10,1366,651,1366,768,8-29-2023,9-35-0,49,depth_duration_stimuli/001170_2014-06-17_15-43-44_260595134347_rgbf000096-resize_6/001170_2014-06-17_15-43-44_260595134347_rgbf000096-resize-original.jpg,83,1.1909999999999998,0,2891,82,meters,jsons/VE83_randls_5_rotated.json,1476765,1734460,33,Woman
49,444976,DepthScenes,duration_manipulation_targetAtFixation,jsons/VE83_randls_5_rotated.json,http://54.235.29.9/FacialAge/BNav_EC2/DepthDuration/v2_depth_duration_MTurk/v2_DepthDuration_HTML.html#10,10,1366,651,1366,768,8-29-2023,9-35-0,50,depth_duration_stimuli/002209_2014-06-28_18-36-10_260595134347_rgbf000051-resize_1/002209_2014-06-28_18-36-10_260595134347_rgbf000051-resize_1-target.png,83,2.057,0,2961,83,meters,jsons/VE83_randls_5_rotated.json,1476765,1734460,33,Woman
50,444976,DepthScenes,duration_manipulation_targetAtFixation,jsons/VE83_randls_5_rotated.json,http://54.235.29.9/FacialAge/BNav_EC2/DepthDuration/v2_depth_duration_MTurk/v2_DepthDuration_HTML.html#10,10,1366,651,1366,768,8-29-2023,9-35-0,51,depth_duration_stimuli/002763_2014-06-22_19-13-10_094959634447_rgbf000075-resize_4/002763_2014-06-22_19-13-10_094959634447_rgbf000075-resize_4-target.png,83,1.68375,0,2659,83,meters,jsons/VE83_randls_5_rotated.json,1476765,1734460,33,Woman
51,444976,DepthScenes,duration_manipulation_targetAtFixation,jsons/VE83_randls_5_rotated.json,http://54.235.29.9/FacialAge/BNav_EC2/DepthDuration/v2_depth_duration_MTurk/v2_DepthDuration_HTML.html#10,10,1366,651,1366,768,8-29-2023,9-35-0,52,depth_duration_stimuli/002657_2014-06-13_15-29-54_094959634447_rgbf000150-resize_1/002657_2014-06-13_15-29-54_094959634447_rgbf000150-resize_1-target.png,83,4.919,0,3067,84,meters,jsons/VE83_randls_5_rotated.json,1476765,1734460,33,Woman
52,444976,DepthScenes,duration_manipulation_targetAtFixation,jsons/VE83_randls_5_rotated.json,http://54.235.29.9/FacialAge/BNav_EC2/DepthDuration/v2_depth_duration_MTurk/v2_DepthDuration_HTML.html#10,10,1366,651,1366,768,8-29-2023,9-35-0,53,depth_duration_stimuli/002375_2014-06-28_20-13-44_260595134347_rgbf000032-resize_1/002375_2014-06-28_20-13-44_260595134347_rgbf000032-resize_1-target.png,83,4.0175,0,2803,83,meters,jsons/VE83_randls_5_rotated.json,1476765,1734460,33,Woman
53,444976,DepthScenes,duration_manipulation_targetAtFixation,jsons/VE83_randls_5_rotated.json,http://54.235.29.9/FacialAge/BNav_EC2/DepthDuration/v2_depth_duration_MTurk/v2_DepthDuration_HTML.html#10,10,1366,651,1366,768,8-29-2023,9-35-0,54,depth_duration_stimuli/000191_2014-05-12_17-07-38_260595134347_rgbf000199-resize_0/000191_2014-05-12_17-07-38_260595134347_rgbf000199-resize_0-target.png,83,3.7995,0,3066,83,meters,jsons/VE83_randls_5_rotated.json,1476765,1734460,33,Woman
54,444976,DepthScenes,duration_manipulation_targetAtFixation,jsons/VE83_randls_5_rotated.json,http://54.235.29.9/FacialAge/BNav_EC2/DepthDuration/v2_depth_duration_MTurk/v2_DepthDuration_HTML.html#10,10,1366,651,1366,768,8-29-2023,9-35-0,55,depth_duration_stimuli/000493_2014-06-09_21-01-18_260595134347_rgbf000196-resize_3/000493_2014-06-09_21-01-18_260595134347_rgbf000196-resize_3-target.png,83,3.44,0,2614,82,meters,jsons/VE83_randls_5_rotated.json,1476765,1734460,33,Woman
55,444976,DepthScenes,duration_manipulation_targetAtFixation,jsons/VE83_randls_5_rotated.json,http://54.235.29.9/FacialAge/BNav_EC2/DepthDuration/v2_depth_duration_MTurk/v2_DepthDuration_HTML.html#10,10,1366,651,1366,768,8-29-2023,9-35-0,56,depth_duration_stimuli/003129_2014-05-12_10-48-10_094959634447_rgbf000100-resize_0/003129_2014-05-12_10-48-10_094959634447_rgbf000100-resize_0-target.png,83,4.9305,0,3155,83,meters,jsons/VE83_randls_5_rotated.json,1476765,1734460,33,Woman
56,444976,DepthScenes,duration_manipulation_targetAtFixation,jsons/VE83_randls_5_rotated.json,http://54.235.29.9/FacialAge/BNav_EC2/DepthDuration/v2_depth_duration_MTurk/v2_DepthDuration_HTML.html#10,10,1366,651,1366,768,8-29-2023,9-35-0,57,depth_duration_stimuli/000414_2014-06-04_19-49-13_260595134347_rgbf000044-resize_0/000414_2014-06-04_19-49-13_260595134347_rgbf000044-resize_0-target.png,83,4.329,0,3780,83,meters,jsons/VE83_randls_5_rotated.json,1476765,1734460,33,Woman
57,444976,DepthScenes,duration_manipulation_targetAtFixation,jsons/VE83_randls_5_rotated.json,http://54.235.29.9/FacialAge/BNav_EC2/DepthDuration/v2_depth_duration_MTurk/v2_DepthDuration_HTML.html#10,10,1366,651,1366,768,8-29-2023,9-35-0,58,depth_duration_stimuli/002444_2014-06-28_20-32-08_260595134347_rgbf000027-resize_0/002444_2014-06-28_20-32-08_260595134347_rgbf000027-resize_0-target.png,83,4.388999999999999,0,3139,84,meters,jsons/VE83_randls_5_rotated.json,1476765,1734460,33,Woman
58,444976,DepthScenes,duration_manipulation_targetAtFixation,jsons/VE83_randls_5_rotated.json,http://54.235.29.9/FacialAge/BNav_EC2/DepthDuration/v2_depth_duration_MTurk/v2_DepthDuration_HTML.html#10,10,1366,651,1366,768,8-29-2023,9-35-0,59,depth_duration_stimuli/000436_2014-06-09_22-25-11_260595134347_rgbf000137-resize_1/000436_2014-06-09_22-25-11_260595134347_rgbf000137-resize_1-target.png,83,4.0705,0,2754,84,meters,jsons/VE83_randls_5_rotated.json,1476765,1734460,33,Woman
59,444976,DepthScenes,duration_manipulation_targetAtFixation,jsons/VE83_randls_5_rotated.json,http://54.235.29.9/FacialAge/BNav_EC2/DepthDuration/v2_depth_duration_MTurk/v2_DepthDuration_HTML.html#10,10,1366,651,1366,768,8-29-2023,9-35-0,60,depth_duration_stimuli/002678_2014-06-13_16-15-32_094959634447_rgbf000151-resize_6/002678_2014-06-13_16-15-32_094959634447_rgbf000151-resize_6-target.png,83,2.1830000000000003,0,2746,82,meters,jsons/VE83_randls_5_rotated.json,1476765,1734460,33,Woman
60,444976,DepthScenes,duration_manipulation_targetAtFixation,jsons/VE83_randls_5_rotated.json,http://54.235.29.9/FacialAge/BNav_EC2/DepthDuration/v2_depth_duration_MTurk/v2_DepthDuration_HTML.html#10,10,1366,651,1366,768,8-29-2023,9-35-0,61,depth_duration_stimuli/000368_2014-06-09_15-53-01_260595134347_rgbf000155-resize_2/000368_2014-06-09_15-53-01_260595134347_rgbf000155-resize_2-target.png,83,2.4859999999999998,0,2621,83,meters,jsons/VE83_randls_5_rotated.json,1476765,1734460,33,Woman
61,444976,DepthScenes,duration_manipulation_targetAtFixation,jsons/VE83_randls_5_rotated.json,http://54.235.29.9/FacialAge/BNav_EC2/DepthDuration/v2_depth_duration_MTurk/v2_DepthDuration_HTML.html#10,10,1366,651,1366,768,8-29-2023,9-35-0,62,depth_duration_stimuli/002545_2014-06-24_13-38-53_094959634447_rgbf000080-resize_4/002545_2014-06-24_13-38-53_094959634447_rgbf000080-resize_4-target.png,83,1.9205,0,3419,83,meters,jsons/VE83_randls_5_rotated.json,1476765,1734460,33,Woman
62,444976,DepthScenes,duration_manipulation_targetAtFixation,jsons/VE83_randls_5_rotated.json,http://54.235.29.9/FacialAge/BNav_EC2/DepthDuration/v2_depth_duration_MTurk/v2_DepthDuration_HTML.html#10,10,1366,651,1366,768,8-29-2023,9-35-0,63,depth_duration_stimuli/001092_2014-06-15_17-34-58_260595134347_rgbf000171-resize_3/001092_2014-06-15_17-34-58_260595134347_rgbf000171-resize_3-target.png,83,2.6935,0,2578,84,meters,jsons/VE83_randls_5_rotated.json,1476765,1734460,33,Woman
63,444976,DepthScenes,duration_manipulation_targetAtFixation,jsons/VE83_randls_5_rotated.json,http://54.235.29.9/FacialAge/BNav_EC2/DepthDuration/v2_depth_duration_MTurk/v2_DepthDuration_HTML.html#10,10,1366,651,1366,768,8-29-2023,9-35-0,64,depth_duration_stimuli/002805_2014-06-22_19-54-03_094959634447_rgbf000079-resize_1/002805_2014-06-22_19-54-03_094959634447_rgbf000079-resize_1-target.png,83,3.1439999999999997,0,2707,83,meters,jsons/VE83_randls_5_rotated.json,1476765,1734460,33,Woman
64,444976,DepthScenes,duration_manipulation_targetAtFixation,jsons/VE83_randls_5_rotated.json,http://54.235.29.9/FacialAge/BNav_EC2/DepthDuration/v2_depth_duration_MTurk/v2_DepthDuration_HTML.html#10,10,1366,651,1366,768,8-29-2023,9-35-0,65,depth_duration_stimuli/000906_2014-06-08_13-35-43_260595134347_rgbf000155-resize_1/000906_2014-06-08_13-35-43_260595134347_rgbf000155-resize_1-target.png,83,2.8489999999999998,0,2906,83,meters,jsons/VE83_randls_5_rotated.json,1476765,1734460,33,Woman
65,444976,DepthScenes,duration_manipulation_targetAtFixation,jsons/VE83_randls_5_rotated.json,http://54.235.29.9/FacialAge/BNav_EC2/DepthDuration/v2_depth_duration_MTurk/v2_DepthDuration_HTML.html#10,10,1366,651,1366,768,8-29-2023,9-35-0,66,depth_duration_stimuli/001540_2014-06-20_17-01-05_260595134347_rgbf000086-resize_2/001540_2014-06-20_17-01-05_260595134347_rgbf000086-resize-original.jpg,83,1.459,0,3051,84,meters,jsons/VE83_randls_5_rotated.json,1476765,1734460,33,Woman
66,444976,DepthScenes,duration_manipulation_targetAtFixation,jsons/VE83_randls_5_rotated.json,http://54.235.29.9/FacialAge/BNav_EC2/DepthDuration/v2_depth_duration_MTurk/v2_DepthDuration_HTML.html#10,10,1366,651,1366,768,8-29-2023,9-35-0,67,depth_duration_stimuli/001571_2014-06-20_17-21-32_260595134347_rgbf000089-resize_1/001571_2014-06-20_17-21-32_260595134347_rgbf000089-resize_1-target.png,83,1.86,0,3066,83,meters,jsons/VE83_randls_5_rotated.json,1476765,1734460,33,Woman
67,444976,DepthScenes,duration_manipulation_targetAtFixation,jsons/VE83_randls_5_rotated.json,http://54.235.29.9/FacialAge/BNav_EC2/DepthDuration/v2_depth_duration_MTurk/v2_DepthDuration_HTML.html#10,10,1366,651,1366,768,8-29-2023,9-35-0,68,depth_duration_stimuli/002272_2014-06-28_18-53-56_260595134347_rgbf000067-resize_2/002272_2014-06-28_18-53-56_260595134347_rgbf000067-resize_2-target.png,83,1.138,0,2827,84,meters,jsons/VE83_randls_5_rotated.json,1476765,1734460,33,Woman
68,444976,DepthScenes,duration_manipulation_targetAtFixation,jsons/VE83_randls_5_rotated.json,http://54.235.29.9/FacialAge/BNav_EC2/DepthDuration/v2_depth_duration_MTurk/v2_DepthDuration_HTML.html#10,10,1366,651,1366,768,8-29-2023,9-35-0,69,depth_duration_stimuli/002758_2014-06-22_19-11-20_094959634447_rgbf000128-resize_1/002758_2014-06-22_19-11-20_094959634447_rgbf000128-resize_1-target.png,83,2.555,0,3211,84,meters,jsons/VE83_randls_5_rotated.json,1476765,1734460,33,Woman
69,444976,DepthScenes,duration_manipulation_targetAtFixation,jsons/VE83_randls_5_rotated.json,http://54.235.29.9/FacialAge/BNav_EC2/DepthDuration/v2_depth_duration_MTurk/v2_DepthDuration_HTML.html#10,10,1366,651,1366,768,8-29-2023,9-35-0,70,depth_duration_stimuli/002630_2014-06-24_14-47-50_094959634447_rgbf000055-resize_1/002630_2014-06-24_14-47-50_094959634447_rgbf000055-resize_1-target.png,83,3.0095,0,2819,84,meters,jsons/VE83_randls_5_rotated.json,1476765,1734460,33,Woman
70,444976,DepthScenes,duration_manipulation_targetAtFixation,jsons/VE83_randls_5_rotated.json,http://54.235.29.9/FacialAge/BNav_EC2/DepthDuration/v2_depth_duration_MTurk/v2_DepthDuration_HTML.html#10,10,1366,651,1366,768,8-29-2023,9-35-0,71,depth_duration_stimuli/003081_2014-06-15_15-19-16_094959634447_rgbf000150-resize_1/003081_2014-06-15_15-19-16_094959634447_rgbf000150-resize_1-target.png,83,3.9125,0,3226,83,meters,jsons/VE83_randls_5_rotated.json,1476765,1734460,33,Woman
71,444976,DepthScenes,duration_manipulation_targetAtFixation,jsons/VE83_randls_5_rotated.json,http://54.235.29.9/FacialAge/BNav_EC2/DepthDuration/v2_depth_duration_MTurk/v2_DepthDuration_HTML.html#10,10,1366,651,1366,768,8-29-2023,9-35-0,72,depth_duration_stimuli/001417_2014-06-19_16-25-36_260595134347_rgbf000115-resize_5/001417_2014-06-19_16-25-36_260595134347_rgbf000115-resize_5-target.png,83,4.6255,0,2973,84,meters,jsons/VE83_randls_5_rotated.json,1476765,1734460,33,Woman
72,444976,DepthScenes,duration_manipulation_targetAtFixation,jsons/VE83_randls_5_rotated.json,http://54.235.29.9/FacialAge/BNav_EC2/DepthDuration/v2_depth_duration_MTurk/v2_DepthDuration_HTML.html#10,10,1366,651,1366,768,8-29-2023,9-35-0,73,depth_duration_stimuli/002467_2014-06-28_20-38-07_260595134347_rgbf000026-resize_2/002467_2014-06-28_20-38-07_260595134347_rgbf000026-resize_2-target.png,83,4.742,0,3228,84,meters,jsons/VE83_randls_5_rotated.json,1476765,1734460,33,Woman
73,444976,DepthScenes,duration_manipulation_targetAtFixation,jsons/VE83_randls_5_rotated.json,http://54.235.29.9/FacialAge/BNav_EC2/DepthDuration/v2_depth_duration_MTurk/v2_DepthDuration_HTML.html#10,10,1366,651,1366,768,8-29-2023,9-35-0,74,depth_duration_stimuli/002570_2014-06-24_13-59-54_094959634447_rgbf000059-resize_0/002570_2014-06-24_13-59-54_094959634447_rgbf000059-resize_0-target.png,83,4.037,0,2650,84,meters,jsons/VE83_randls_5_rotated.json,1476765,1734460,33,Woman
74,444976,DepthScenes,duration_manipulation_targetAtFixation,jsons/VE83_randls_5_rotated.json,http://54.235.29.9/FacialAge/BNav_EC2/DepthDuration/v2_depth_duration_MTurk/v2_DepthDuration_HTML.html#10,10,1366,651,1366,768,8-29-2023,9-35-0,75,depth_duration_stimuli/000457_2014-06-08_16-52-43_260595134347_rgbf000199-resize_1/000457_2014-06-08_16-52-43_260595134347_rgbf000199-resize_1-target.png,83,3.6489999999999996,0,3011,84,meters,jsons/VE83_randls_5_rotated.json,1476765,1734460,33,Woman
75,444976,DepthScenes,duration_manipulation_targetAtFixation,jsons/VE83_randls_5_rotated.json,http://54.235.29.9/FacialAge/BNav_EC2/DepthDuration/v2_depth_duration_MTurk/v2_DepthDuration_HTML.html#10,10,1366,651,1366,768,8-29-2023,9-35-0,76,depth_duration_stimuli/000929_2014-06-09_16-33-19_260595134347_rgbf000139-resize_0/000929_2014-06-09_16-33-19_260595134347_rgbf000139-resize_0-target.png,83,2.8680000000000003,0,2506,83,meters,jsons/VE83_randls_5_rotated.json,1476765,1734460,33,Woman
76,444976,DepthScenes,duration_manipulation_targetAtFixation,jsons/VE83_randls_5_rotated.json,http://54.235.29.9/FacialAge/BNav_EC2/DepthDuration/v2_depth_duration_MTurk/v2_DepthDuration_HTML.html#10,10,1366,651,1366,768,8-29-2023,9-35-0,77,depth_duration_stimuli/002639_2014-06-24_14-51-37_094959634447_rgbf000074-resize_4/002639_2014-06-24_14-51-37_094959634447_rgbf000074-resize_4-target.png,83,4.0375,0,2899,83,meters,jsons/VE83_randls_5_rotated.json,1476765,1734460,33,Woman
77,444976,DepthScenes,duration_manipulation_targetAtFixation,jsons/VE83_randls_5_rotated.json,http://54.235.29.9/FacialAge/BNav_EC2/DepthDuration/v2_depth_duration_MTurk/v2_DepthDuration_HTML.html#10,10,1366,651,1366,768,8-29-2023,9-35-0,78,depth_duration_stimuli/003292_2014-05-14_21-53-49_094959634447_rgbf000100-resize_2/003292_2014-05-14_21-53-49_094959634447_rgbf000100-resize_2-target.png,83,3.4815,0,542930,84,meters,jsons/VE83_randls_5_rotated.json,1476765,1734460,33,Woman
78,444976,DepthScenes,duration_manipulation_targetAtFixation,jsons/VE83_randls_5_rotated.json,http://54.235.29.9/FacialAge/BNav_EC2/DepthDuration/v2_depth_duration_MTurk/v2_DepthDuration_HTML.html#10,10,1366,651,1366,768,8-29-2023,9-35-0,79,depth_duration_stimuli/002637_2014-06-24_14-51-13_094959634447_rgbf000066-resize_4/002637_2014-06-24_14-51-13_094959634447_rgbf000066-resize_4-target.png,83,1.9955,1,11867,83,meters,jsons/VE83_randls_5_rotated.json,1476765,1734460,33,Woman
79,444976,DepthScenes,duration_manipulation_targetAtFixation,jsons/VE83_randls_5_rotated.json,http://54.235.29.9/FacialAge/BNav_EC2/DepthDuration/v2_depth_duration_MTurk/v2_DepthDuration_HTML.html#10,10,1366,651,1366,768,8-29-2023,9-35-0,80,depth_duration_stimuli/003534_2014-05-22_15-06-10_094959634447_rgbf000102-resize_4/003534_2014-05-22_15-06-10_094959634447_rgbf000102-resize_4-target.png,83,1.426,1,7754,84,meters,jsons/VE83_randls_5_rotated.json,1476765,1734460,33,Woman
80,444976,DepthScenes,duration_manipulation_targetAtFixation,jsons/VE83_randls_5_rotated.json,http://54.235.29.9/FacialAge/BNav_EC2/DepthDuration/v2_depth_duration_MTurk/v2_DepthDuration_HTML.html#10,10,1366,651,1366,768,8-29-2023,9-35-0,81,depth_duration_stimuli/000137_2014-05-20_17-04-49_260595134347_rgbf000120-resize_1/000137_2014-05-20_17-04-49_260595134347_rgbf000120-resize_1-target.png,83,3.786,2,4611,84,meters,jsons/VE83_randls_5_rotated.json,1476765,1734460,33,Woman
81,444976,DepthScenes,duration_manipulation_targetAtFixation,jsons/VE83_randls_5_rotated.json,http://54.235.29.9/FacialAge/BNav_EC2/DepthDuration/v2_depth_duration_MTurk/v2_DepthDuration_HTML.html#10,10,1366,651,1366,768,8-29-2023,9-35-0,82,depth_duration_stimuli/000736_2014-06-08_18-24-15_260595134347_rgbf000206-resize_3/000736_2014-06-08_18-24-15_260595134347_rgbf000206-resize_3-target.png,83,3.515,2,6042,83,meters,jsons/VE83_randls_5_rotated.json,1476765,1734460,33,Woman
82,444976,DepthScenes,duration_manipulation_targetAtFixation,jsons/VE83_randls_5_rotated.json,http://54.235.29.9/FacialAge/BNav_EC2/DepthDuration/v2_depth_duration_MTurk/v2_DepthDuration_HTML.html#10,10,1366,651,1366,768,8-29-2023,9-35-0,83,depth_duration_stimuli/002199_2014-06-28_18-33-56_260595134347_rgbf000074-resize_0/002199_2014-06-28_18-33-56_260595134347_rgbf000074-resize_0-target.png,83,1.996,1,7987,83,meters,jsons/VE83_randls_5_rotated.json,1476765,1734460,33,Woman
83,444976,DepthScenes,duration_manipulation_targetAtFixation,jsons/VE83_randls_5_rotated.json,http://54.235.29.9/FacialAge/BNav_EC2/DepthDuration/v2_depth_duration_MTurk/v2_DepthDuration_HTML.html#10,10,1366,651,1366,768,8-29-2023,9-35-0,84,depth_duration_stimuli/001056_2014-06-08_18-46-44_260595134347_rgbf000068-resize_0/001056_2014-06-08_18-46-44_260595134347_rgbf000068-resize_0-target.png,83,2.6625,3,11966,83,meters,jsons/VE83_randls_5_rotated.json,1476765,1734460,33,Woman
84,444976,DepthScenes,duration_manipulation_targetAtFixation,jsons/VE83_randls_5_rotated.json,http://54.235.29.9/FacialAge/BNav_EC2/DepthDuration/v2_depth_duration_MTurk/v2_DepthDuration_HTML.html#10,10,1366,651,1366,768,8-29-2023,9-35-0,85,depth_duration_stimuli/001032_2014-06-08_13-23-17_260595134347_rgbf000021-resize_3/001032_2014-06-08_13-23-17_260595134347_rgbf000021-resize_3-target.png,83,3.2725,2,6402,83,meters,jsons/VE83_randls_5_rotated.json,1476765,1734460,33,Woman
85,444976,DepthScenes,duration_manipulation_targetAtFixation,jsons/VE83_randls_5_rotated.json,http://54.235.29.9/FacialAge/BNav_EC2/DepthDuration/v2_depth_duration_MTurk/v2_DepthDuration_HTML.html#10,10,1366,651,1366,768,8-29-2023,9-35-0,86,depth_duration_stimuli/001059_2014-06-08_21-53-27_260595134347_rgbf000061-resize_4/001059_2014-06-08_21-53-27_260595134347_rgbf000061-resize_4-target.png,83,2.4185,4,12770,84,meters,jsons/VE83_randls_5_rotated.json,1476765,1734460,33,Woman
86,444976,DepthScenes,duration_manipulation_targetAtFixation,jsons/VE83_randls_5_rotated.json,http://54.235.29.9/FacialAge/BNav_EC2/DepthDuration/v2_depth_duration_MTurk/v2_DepthDuration_HTML.html#10,10,1366,651,1366,768,8-29-2023,9-35-0,87,depth_duration_stimuli/001815_2014-06-26_20-52-55_260595134347_rgbf000020-resize_0/001815_2014-06-26_20-52-55_260595134347_rgbf000020-resize_0-target.png,83,3.3865,1,5802,84,meters,jsons/VE83_randls_5_rotated.json,1476765,1734460,33,Woman
87,444976,DepthScenes,duration_manipulation_targetAtFixation,jsons/VE83_randls_5_rotated.json,http://54.235.29.9/FacialAge/BNav_EC2/DepthDuration/v2_depth_duration_MTurk/v2_DepthDuration_HTML.html#10,10,1366,651,1366,768,8-29-2023,9-35-0,88,depth_duration_stimuli/001808_2014-06-26_20-50-58_260595134347_rgbf000029-resize_1/001808_2014-06-26_20-50-58_260595134347_rgbf000029-resize_1-target.png,83,4.249,3,5883,84,meters,jsons/VE83_randls_5_rotated.json,1476765,1734460,33,Woman
88,444976,DepthScenes,duration_manipulation_targetAtFixation,jsons/VE83_randls_5_rotated.json,http://54.235.29.9/FacialAge/BNav_EC2/DepthDuration/v2_depth_duration_MTurk/v2_DepthDuration_HTML.html#10,10,1366,651,1366,768,8-29-2023,9-35-0,89,depth_duration_stimuli/002136_2014-06-25_21-18-03_260595134347_rgbf000109-resize_3/002136_2014-06-25_21-18-03_260595134347_rgbf000109-resize_3-target.png,83,1.9569999999999999,2,5626,83,meters,jsons/VE83_randls_5_rotated.json,1476765,1734460,33,Woman
89,444976,DepthScenes,duration_manipulation_targetAtFixation,jsons/VE83_randls_5_rotated.json,http://54.235.29.9/FacialAge/BNav_EC2/DepthDuration/v2_depth_duration_MTurk/v2_DepthDuration_HTML.html#10,10,1366,651,1366,768,8-29-2023,9-35-0,90,depth_duration_stimuli/002964_2014-06-08_17-46-11_094959634447_rgbf000091-resize_4/002964_2014-06-08_17-46-11_094959634447_rgbf000091-resize_4-target.png,83,1.6909999999999998,3,7243,84,meters,jsons/VE83_randls_5_rotated.json,1476765,1734460,33,Woman
90,444976,DepthScenes,duration_manipulation_targetAtFixation,jsons/VE83_randls_5_rotated.json,http://54.235.29.9/FacialAge/BNav_EC2/DepthDuration/v2_depth_duration_MTurk/v2_DepthDuration_HTML.html#10,10,1366,651,1366,768,8-29-2023,9-35-0,91,depth_duration_stimuli/000691_2014-06-08_13-08-50_260595134347_rgbf000132-resize_3/000691_2014-06-08_13-08-50_260595134347_rgbf000132-resize_3-target.png,83,4.1530000000000005,4,10948,84,meters,jsons/VE83_randls_5_rotated.json,1476765,1734460,33,Woman
91,444976,DepthScenes,duration_manipulation_targetAtFixation,jsons/VE83_randls_5_rotated.json,http://54.235.29.9/FacialAge/BNav_EC2/DepthDuration/v2_depth_duration_MTurk/v2_DepthDuration_HTML.html#10,10,1366,651,1366,768,8-29-2023,9-35-0,92,depth_duration_stimuli/002213_2014-06-28_18-37-58_260595134347_rgbf000055-resize_1/002213_2014-06-28_18-37-58_260595134347_rgbf000055-resize_1-target.png,83,3.62,2,6603,81,meters,jsons/VE83_randls_5_rotated.json,1476765,1734460,33,Woman
92,444976,DepthScenes,duration_manipulation_targetAtFixation,jsons/VE83_randls_5_rotated.json,http://54.235.29.9/FacialAge/BNav_EC2/DepthDuration/v2_depth_duration_MTurk/v2_DepthDuration_HTML.html#10,10,1366,651,1366,768,8-29-2023,9-35-0,93,depth_duration_stimuli/002344_2014-06-28_20-06-29_260595134347_rgbf000030-resize_1/002344_2014-06-28_20-06-29_260595134347_rgbf000030-resize_1-target.png,83,1.5795,1,5570,82,meters,jsons/VE83_randls_5_rotated.json,1476765,1734460,33,Woman
93,444976,DepthScenes,duration_manipulation_targetAtFixation,jsons/VE83_randls_5_rotated.json,http://54.235.29.9/FacialAge/BNav_EC2/DepthDuration/v2_depth_duration_MTurk/v2_DepthDuration_HTML.html#10,10,1366,651,1366,768,8-29-2023,9-35-0,94,depth_duration_stimuli/002725_2014-06-22_11-47-51_094959634447_rgbf000070-resize_1/002725_2014-06-22_11-47-51_094959634447_rgbf000070-resize_1-target.png,83,2.195,3,4721,82,meters,jsons/VE83_randls_5_rotated.json,1476765,1734460,33,Woman
94,444976,DepthScenes,duration_manipulation_targetAtFixation,jsons/VE83_randls_5_rotated.json,http://54.235.29.9/FacialAge/BNav_EC2/DepthDuration/v2_depth_duration_MTurk/v2_DepthDuration_HTML.html#10,10,1366,651,1366,768,8-29-2023,9-35-0,95,depth_duration_stimuli/002660_2014-06-13_15-44-18_094959634447_rgbf001878-resize_2/002660_2014-06-13_15-44-18_094959634447_rgbf001878-resize_2-target.png,83,3.576,3,8763,84,meters,jsons/VE83_randls_5_rotated.json,1476765,1734460,33,Woman
95,444976,DepthScenes,duration_manipulation_targetAtFixation,jsons/VE83_randls_5_rotated.json,http://54.235.29.9/FacialAge/BNav_EC2/DepthDuration/v2_depth_duration_MTurk/v2_DepthDuration_HTML.html#10,10,1366,651,1366,768,8-29-2023,9-35-0,96,depth_duration_stimuli/002153_2014-06-25_21-27-18_260595134347_rgbf000038-resize_5/002153_2014-06-25_21-27-18_260595134347_rgbf000038-resize_5-target.png,83,2.505,3,5098,83,meters,jsons/VE83_randls_5_rotated.json,1476765,1734460,33,Woman
96,444976,DepthScenes,duration_manipulation_targetAtFixation,jsons/VE83_randls_5_rotated.json,http://54.235.29.9/FacialAge/BNav_EC2/DepthDuration/v2_depth_duration_MTurk/v2_DepthDuration_HTML.html#10,10,1366,651,1366,768,8-29-2023,9-35-0,97,depth_duration_stimuli/000854_2014-06-09_19-43-13_260595134347_rgbf000066-resize_0/000854_2014-06-09_19-43-13_260595134347_rgbf000066-resize_0-target.png,83,3.068,2,4658,83,meters,jsons/VE83_randls_5_rotated.json,1476765,1734460,33,Woman
97,444976,DepthScenes,duration_manipulation_targetAtFixation,jsons/VE83_randls_5_rotated.json,http://54.235.29.9/FacialAge/BNav_EC2/DepthDuration/v2_depth_duration_MTurk/v2_DepthDuration_HTML.html#10,10,1366,651,1366,768,8-29-2023,9-35-0,98,depth_duration_stimuli/000758_2014-06-08_22-05-08_260595134347_rgbf000085-resize_0/000758_2014-06-08_22-05-08_260595134347_rgbf000085-resize_0-target.png,83,3.3810000000000002,2,6252,82,meters,jsons/VE83_randls_5_rotated.json,1476765,1734460,33,Woman
98,444976,DepthScenes,duration_manipulation_targetAtFixation,jsons/VE83_randls_5_rotated.json,http://54.235.29.9/FacialAge/BNav_EC2/DepthDuration/v2_depth_duration_MTurk/v2_DepthDuration_HTML.html#10,10,1366,651,1366,768,8-29-2023,9-35-0,99,depth_duration_stimuli/001222_2014-06-17_16-24-06_260595134347_rgbf000073-resize_0/001222_2014-06-17_16-24-06_260595134347_rgbf000073-resize-original.jpg,83,1.4385,0,9371,83,meters,jsons/VE83_randls_5_rotated.json,1476765,1734460,33,Woman
99,444976,DepthScenes,duration_manipulation_targetAtFixation,jsons/VE83_randls_5_rotated.json,http://54.235.29.9/FacialAge/BNav_EC2/DepthDuration/v2_depth_duration_MTurk/v2_DepthDuration_HTML.html#10,10,1366,651,1366,768,8-29-2023,9-35-0,100,depth_duration_stimuli/001450_2014-06-19_17-02-03_260595134347_rgbf000203-resize_4/001450_2014-06-19_17-02-03_260595134347_rgbf000203-resize_4-target.png,83,4.0106666666667,3,5291,82,meters,jsons/VE83_randls_5_rotated.json,1476765,1734460,33,Woman
100,444976,DepthScenes,duration_manipulation_targetAtFixation,jsons/VE83_randls_5_rotated.json,http://54.235.29.9/FacialAge/BNav_EC2/DepthDuration/v2_depth_duration_MTurk/v2_DepthDuration_HTML.html#10,10,1366,651,1366,768,8-29-2023,9-35-0,101,depth_duration_stimuli/001449_2014-06-19_17-01-27_260595134347_rgbf000116-resize_2/001449_2014-06-19_17-01-27_260595134347_rgbf000116-resize_2-target.png,83,3.452,4,4189,83,meters,jsons/VE83_randls_5_rotated.json,1476765,1734460,33,Woman
101,444976,DepthScenes,duration_manipulation_targetAtFixation,jsons/VE83_randls_5_rotated.json,http://54.235.29.9/FacialAge/BNav_EC2/DepthDuration/v2_depth_duration_MTurk/v2_DepthDuration_HTML.html#10,10,1366,651,1366,768,8-29-2023,9-35-0,102,depth_duration_stimuli/001214_2014-06-17_16-13-55_260595134347_rgbf000111-resize_0/001214_2014-06-17_16-13-55_260595134347_rgbf000111-resize_0-target.png,83,2.6505,4,5404,83,meters,jsons/VE83_randls_5_rotated.json,1476765,1734460,33,Woman
102,444976,DepthScenes,duration_manipulation_targetAtFixation,jsons/VE83_randls_5_rotated.json,http://54.235.29.9/FacialAge/BNav_EC2/DepthDuration/v2_depth_duration_MTurk/v2_DepthDuration_HTML.html#10,10,1366,651,1366,768,8-29-2023,9-35-0,103,depth_duration_stimuli/000810_2014-06-08_17-20-01_260595134347_rgbf000105-resize_0/000810_2014-06-08_17-20-01_260595134347_rgbf000105-resize_0-target.png,83,1.4865,4,8331,83,meters,jsons/VE83_randls_5_rotated.json,1476765,1734460,33,Woman
103,444976,DepthScenes,duration_manipulation_targetAtFixation,jsons/VE83_randls_5_rotated.json,http://54.235.29.9/FacialAge/BNav_EC2/DepthDuration/v2_depth_duration_MTurk/v2_DepthDuration_HTML.html#10,10,1366,651,1366,768,8-29-2023,9-35-0,104,depth_duration_stimuli/001447_2014-06-19_17-00-32_260595134347_rgbf000082-resize_5/001447_2014-06-19_17-00-32_260595134347_rgbf000082-resize_5-target.png,83,4.13775,3,10953,84,meters,jsons/VE83_randls_5_rotated.json,1476765,1734460,33,Woman
104,444976,DepthScenes,duration_manipulation_targetAtFixation,jsons/VE83_randls_5_rotated.json,http://54.235.29.9/FacialAge/BNav_EC2/DepthDuration/v2_depth_duration_MTurk/v2_DepthDuration_HTML.html#10,10,1366,651,1366,768,8-29-2023,9-35-0,105,depth_duration_stimuli/000447_2014-06-08_16-15-46_260595134347_rgbf000130-resize_1/000447_2014-06-08_16-15-46_260595134347_rgbf000130-resize_1-target.png,83,4.479,0,12707,84,meters,jsons/VE83_randls_5_rotated.json,1476765,1734460,33,Woman
105,444976,DepthScenes,duration_manipulation_targetAtFixation,jsons/VE83_randls_5_rotated.json,http://54.235.29.9/FacialAge/BNav_EC2/DepthDuration/v2_depth_duration_MTurk/v2_DepthDuration_HTML.html#10,10,1366,651,1366,768,8-29-2023,9-35-0,106,depth_duration_stimuli/000635_2014-06-08_16-38-42_260595134347_rgbf000106-resize_1/000635_2014-06-08_16-38-42_260595134347_rgbf000106-resize_1-target.png,83,2.074,3,4764,83,meters,jsons/VE83_randls_5_rotated.json,1476765,1734460,33,Woman
106,444976,DepthScenes,duration_manipulation_targetAtFixation,jsons/VE83_randls_5_rotated.json,http://54.235.29.9/FacialAge/BNav_EC2/DepthDuration/v2_depth_duration_MTurk/v2_DepthDuration_HTML.html#10,10,1366,651,1366,768,8-29-2023,9-35-0,107,depth_duration_stimuli/002279_2014-06-28_18-55-32_260595134347_rgbf000040-resize_5/002279_2014-06-28_18-55-32_260595134347_rgbf000040-resize_5-target.png,83,1.5043333333333,5,3833,83,meters,jsons/VE83_randls_5_rotated.json,1476765,1734460,33,Woman
107,444976,DepthScenes,duration_manipulation_targetAtFixation,jsons/VE83_randls_5_rotated.json,http://54.235.29.9/FacialAge/BNav_EC2/DepthDuration/v2_depth_duration_MTurk/v2_DepthDuration_HTML.html#10,10,1366,651,1366,768,8-29-2023,9-35-0,108,depth_duration_stimuli/000502_2014-06-08_23-02-32_260595134347_rgbf000063-resize_4/000502_2014-06-08_23-02-32_260595134347_rgbf000063-resize_4-target.png,83,2.431,3,13294,83,meters,jsons/VE83_randls_5_rotated.json,1476765,1734460,33,Woman
108,444976,DepthScenes,duration_manipulation_targetAtFixation,jsons/VE83_randls_5_rotated.json,http://54.235.29.9/FacialAge/BNav_EC2/DepthDuration/v2_depth_duration_MTurk/v2_DepthDuration_HTML.html#10,10,1366,651,1366,768,8-29-2023,9-35-0,109,depth_duration_stimuli/001199_2014-06-17_16-03-48_260595134347_rgbf000077-resize_0/001199_2014-06-17_16-03-48_260595134347_rgbf000077-resize_0-target.png,83,3.4375,0,3770,83,meters,jsons/VE83_randls_5_rotated.json,1476765,1734460,33,Woman
109,444976,DepthScenes,duration_manipulation_targetAtFixation,jsons/VE83_randls_5_rotated.json,http://54.235.29.9/FacialAge/BNav_EC2/DepthDuration/v2_depth_duration_MTurk/v2_DepthDuration_HTML.html#10,10,1366,651,1366,768,8-29-2023,9-35-0,110,depth_duration_stimuli/001392_2014-06-19_16-07-59_260595134347_rgbf000046-resize_1/001392_2014-06-19_16-07-59_260595134347_rgbf000046-resize_1-target.png,83,4.135,6,4548,83,meters,jsons/VE83_randls_5_rotated.json,1476765,1734460,33,Woman
110,444976,DepthScenes,duration_manipulation_targetAtFixation,jsons/VE83_randls_5_rotated.json,http://54.235.29.9/FacialAge/BNav_EC2/DepthDuration/v2_depth_duration_MTurk/v2_DepthDuration_HTML.html#10,10,1366,651,1366,768,8-29-2023,9-35-0,111,depth_duration_stimuli/001570_2014-06-20_17-21-09_260595134347_rgbf000135-resize_4/001570_2014-06-20_17-21-09_260595134347_rgbf000135-resize_4-target.png,83,4.467,4,4571,84,meters,jsons/VE83_randls_5_rotated.json,1476765,1734460,33,Woman
111,444976,DepthScenes,duration_manipulation_targetAtFixation,jsons/VE83_randls_5_rotated.json,http://54.235.29.9/FacialAge/BNav_EC2/DepthDuration/v2_depth_duration_MTurk/v2_DepthDuration_HTML.html#10,10,1366,651,1366,768,8-29-2023,9-35-0,112,depth_duration_stimuli/003083_2014-06-15_15-21-03_094959634447_rgbf000063-resize_1/003083_2014-06-15_15-21-03_094959634447_rgbf000063-resize_1-target.png,83,4.1405,5,4594,82,meters,jsons/VE83_randls_5_rotated.json,1476765,1734460,33,Woman
112,444976,DepthScenes,duration_manipulation_targetAtFixation,jsons/VE83_randls_5_rotated.json,http://54.235.29.9/FacialAge/BNav_EC2/DepthDuration/v2_depth_duration_MTurk/v2_DepthDuration_HTML.html#10,10,1366,651,1366,768,8-29-2023,9-35-0,113,depth_duration_stimuli/000486_2014-06-09_20-47-20_260595134347_rgbf000143-resize_2/000486_2014-06-09_20-47-20_260595134347_rgbf000143-resize_2-target.png,83,4.8325,3,5856,82,meters,jsons/VE83_randls_5_rotated.json,1476765,1734460,33,Woman
113,444976,DepthScenes,duration_manipulation_targetAtFixation,jsons/VE83_randls_5_rotated.json,http://54.235.29.9/FacialAge/BNav_EC2/DepthDuration/v2_depth_duration_MTurk/v2_DepthDuration_HTML.html#10,10,1366,651,1366,768,8-29-2023,9-35-0,114,depth_duration_stimuli/003490_2014-05-21_15-50-11_094959634447_rgbf000101-resize_3/003490_2014-05-21_15-50-11_094959634447_rgbf000101-resize_3-target.png,83,3.6445,5,4683,81,meters,jsons/VE83_randls_5_rotated.json,1476765,1734460,33,Woman
114,444976,DepthScenes,duration_manipulation_targetAtFixation,jsons/VE83_randls_5_rotated.json,http://54.235.29.9/FacialAge/BNav_EC2/DepthDuration/v2_depth_duration_MTurk/v2_DepthDuration_HTML.html#10,10,1366,651,1366,768,8-29-2023,9-35-0,115,depth_duration_stimuli/001175_2014-06-17_15-45-55_260595134347_rgbf000129-resize_4/001175_2014-06-17_15-45-55_260595134347_rgbf000129-resize_4-target.png,83,4.255,0,3987,84,meters,jsons/VE83_randls_5_rotated.json,1476765,1734460,33,Woman
115,444976,DepthScenes,duration_manipulation_targetAtFixation,jsons/VE83_randls_5_rotated.json,http://54.235.29.9/FacialAge/BNav_EC2/DepthDuration/v2_depth_duration_MTurk/v2_DepthDuration_HTML.html#10,10,1366,651,1366,768,8-29-2023,9-35-0,116,depth_duration_stimuli/000556_2014-06-09_22-42-56_260595134347_rgbf000214-resize_1/000556_2014-06-09_22-42-56_260595134347_rgbf000214-resize_1-target.png,83,4.8415,3,6547,82,meters,jsons/VE83_randls_5_rotated.json,1476765,1734460,33,Woman
116,444976,DepthScenes,duration_manipulation_targetAtFixation,jsons/VE83_randls_5_rotated.json,http://54.235.29.9/FacialAge/BNav_EC2/DepthDuration/v2_depth_duration_MTurk/v2_DepthDuration_HTML.html#10,10,1366,651,1366,768,8-29-2023,9-35-0,117,depth_duration_stimuli/001158_2014-06-17_15-32-16_260595134347_rgbf000138-resize_2/001158_2014-06-17_15-32-16_260595134347_rgbf000138-resize_2-target.png,83,4.5315,3,3938,84,meters,jsons/VE83_randls_5_rotated.json,1476765,1734460,33,Woman
117,444976,DepthScenes,duration_manipulation_targetAtFixation,jsons/VE83_randls_5_rotated.json,http://54.235.29.9/FacialAge/BNav_EC2/DepthDuration/v2_depth_duration_MTurk/v2_DepthDuration_HTML.html#10,10,1366,651,1366,768,8-29-2023,9-35-0,118,depth_duration_stimuli/001617_2014-06-20_11-35-32_260595134347_rgbf000066-resize_1/001617_2014-06-20_11-35-32_260595134347_rgbf000066-resize_1-target.png,83,3.7910000000000004,2,3906,82,meters,jsons/VE83_randls_5_rotated.json,1476765,1734460,33,Woman
118,444976,DepthScenes,duration_manipulation_targetAtFixation,jsons/VE83_randls_5_rotated.json,http://54.235.29.9/FacialAge/BNav_EC2/DepthDuration/v2_depth_duration_MTurk/v2_DepthDuration_HTML.html#10,10,1366,651,1366,768,8-29-2023,9-35-0,119,depth_duration_stimuli/001806_2014-06-26_20-50-20_260595134347_rgbf000091-resize_1/001806_2014-06-26_20-50-20_260595134347_rgbf000091-resize_1-target.png,83,2.7305,3,3197,83,meters,jsons/VE83_randls_5_rotated.json,1476765,1734460,33,Woman
119,444976,DepthScenes,duration_manipulation_targetAtFixation,jsons/VE83_randls_5_rotated.json,http://54.235.29.9/FacialAge/BNav_EC2/DepthDuration/v2_depth_duration_MTurk/v2_DepthDuration_HTML.html#10,10,1366,651,1366,768,8-29-2023,9-35-0,120,depth_duration_stimuli/000787_2014-06-08_22-33-53_260595134347_rgbf000175-resize_1/000787_2014-06-08_22-33-53_260595134347_rgbf000175-resize-original.jpg,83,4.784,0,4061,84,meters,jsons/VE83_randls_5_rotated.json,1476765,1734460,33,Woman
120,444976,DepthScenes,duration_manipulation_targetAtFixation,jsons/VE83_randls_5_rotated.json,http://54.235.29.9/FacialAge/BNav_EC2/DepthDuration/v2_depth_duration_MTurk/v2_DepthDuration_HTML.html#10,10,1366,651,1366,768,8-29-2023,9-35-0,121,depth_duration_stimuli/001650_2014-06-20_12-09-00_260595134347_rgbf000087-resize_3/001650_2014-06-20_12-09-00_260595134347_rgbf000087-resize_3-target.png,83,1.9505,1,3690,84,meters,jsons/VE83_randls_5_rotated.json,1476765,1734460,33,Woman
121,444976,DepthScenes,duration_manipulation_targetAtFixation,jsons/VE83_randls_5_rotated.json,http://54.235.29.9/FacialAge/BNav_EC2/DepthDuration/v2_depth_duration_MTurk/v2_DepthDuration_HTML.html#10,10,1366,651,1366,768,8-29-2023,9-35-0,122,depth_duration_stimuli/000682_2014-06-08_23-14-58_260595134347_rgbf000041-resize_5/000682_2014-06-08_23-14-58_260595134347_rgbf000041-resize_5-target.png,83,2.7239999999999998,3,3836,83,meters,jsons/VE83_randls_5_rotated.json,1476765,1734460,33,Woman
122,444976,DepthScenes,duration_manipulation_targetAtFixation,jsons/VE83_randls_5_rotated.json,http://54.235.29.9/FacialAge/BNav_EC2/DepthDuration/v2_depth_duration_MTurk/v2_DepthDuration_HTML.html#10,10,1366,651,1366,768,8-29-2023,9-35-0,123,depth_duration_stimuli/001132_2014-06-17_14-48-54_260595134347_rgbf000100-resize_2/001132_2014-06-17_14-48-54_260595134347_rgbf000100-resize_2-target.png,83,3.753,3,3899,83,meters,jsons/VE83_randls_5_rotated.json,1476765,1734460,33,Woman
123,444976,DepthScenes,duration_manipulation_targetAtFixation,jsons/VE83_randls_5_rotated.json,http://54.235.29.9/FacialAge/BNav_EC2/DepthDuration/v2_depth_duration_MTurk/v2_DepthDuration_HTML.html#10,10,1366,651,1366,768,8-29-2023,9-35-0,124,depth_duration_stimuli/001133_2014-06-17_14-49-16_260595134347_rgbf000100-resize_0/001133_2014-06-17_14-49-16_260595134347_rgbf000100-resize_0-target.png,83,4.2115,6,4425,81,meters,jsons/VE83_randls_5_rotated.json,1476765,1734460,33,Woman
124,444976,DepthScenes,duration_manipulation_targetAtFixation,jsons/VE83_randls_5_rotated.json,http://54.235.29.9/FacialAge/BNav_EC2/DepthDuration/v2_depth_duration_MTurk/v2_DepthDuration_HTML.html#10,10,1366,651,1366,768,8-29-2023,9-35-0,125,depth_duration_stimuli/001584_2014-06-20_11-07-43_260595134347_rgbf000002-resize_1/001584_2014-06-20_11-07-43_260595134347_rgbf000002-resize_1-target.png,83,3.53,4,3579,83,meters,jsons/VE83_randls_5_rotated.json,1476765,1734460,33,Woman
125,444976,DepthScenes,duration_manipulation_targetAtFixation,jsons/VE83_randls_5_rotated.json,http://54.235.29.9/FacialAge/BNav_EC2/DepthDuration/v2_depth_duration_MTurk/v2_DepthDuration_HTML.html#10,10,1366,651,1366,768,8-29-2023,9-35-0,126,depth_duration_stimuli/003621_2014-05-23_18-06-08_094959634447_rgbf000101-resize_1/003621_2014-05-23_18-06-08_094959634447_rgbf000101-resize_1-target.png,83,3.9835,4,3731,84,meters,jsons/VE83_randls_5_rotated.json,1476765,1734460,33,Woman
126,444976,DepthScenes,duration_manipulation_targetAtFixation,jsons/VE83_randls_5_rotated.json,http://54.235.29.9/FacialAge/BNav_EC2/DepthDuration/v2_depth_duration_MTurk/v2_DepthDuration_HTML.html#10,10,1366,651,1366,768,8-29-2023,9-35-0,127,depth_duration_stimuli/002340_2014-06-28_20-05-46_260595134347_rgbf000113-resize_0/002340_2014-06-28_20-05-46_260595134347_rgbf000113-resize_0-target.png,83,2.4735,3,4580,83,meters,jsons/VE83_randls_5_rotated.json,1476765,1734460,33,Woman
127,444976,DepthScenes,duration_manipulation_targetAtFixation,jsons/VE83_randls_5_rotated.json,http://54.235.29.9/FacialAge/BNav_EC2/DepthDuration/v2_depth_duration_MTurk/v2_DepthDuration_HTML.html#10,10,1366,651,1366,768,8-29-2023,9-35-0,128,depth_duration_stimuli/001016_2014-06-09_16-16-10_260595134347_rgbf000112-resize_5/001016_2014-06-09_16-16-10_260595134347_rgbf000112-resize_5-target.png,83,1.6565,2,4562,83,meters,jsons/VE83_randls_5_rotated.json,1476765,1734460,33,Woman
128,444976,DepthScenes,duration_manipulation_targetAtFixation,jsons/VE83_randls_5_rotated.json,http://54.235.29.9/FacialAge/BNav_EC2/DepthDuration/v2_depth_duration_MTurk/v2_DepthDuration_HTML.html#10,10,1366,651,1366,768,8-29-2023,9-35-0,129,depth_duration_stimuli/003010_2014-06-15_12-54-35_094959634447_rgbf000112-resize_0/003010_2014-06-15_12-54-35_094959634447_rgbf000112-resize_0-target.png,83,3.1185,5,3716,84,meters,jsons/VE83_randls_5_rotated.json,1476765,1734460,33,Woman
129,444976,DepthScenes,duration_manipulation_targetAtFixation,jsons/VE83_randls_5_rotated.json,http://54.235.29.9/FacialAge/BNav_EC2/DepthDuration/v2_depth_duration_MTurk/v2_DepthDuration_HTML.html#10,10,1366,651,1366,768,8-29-2023,9-35-0,130,depth_duration_stimuli/001810_2014-06-26_20-51-35_260595134347_rgbf000040-resize_3/001810_2014-06-26_20-51-35_260595134347_rgbf000040-resize_3-target.png,83,2.2525,4,6100,84,meters,jsons/VE83_randls_5_rotated.json,1476765,1734460,33,Woman
130,444976,DepthScenes,duration_manipulation_targetAtFixation,jsons/VE83_randls_5_rotated.json,http://54.235.29.9/FacialAge/BNav_EC2/DepthDuration/v2_depth_duration_MTurk/v2_DepthDuration_HTML.html#10,10,1366,651,1366,768,8-29-2023,9-35-0,131,depth_duration_stimuli/002425_2014-06-28_20-27-29_260595134347_rgbf000031-resize_8/002425_2014-06-28_20-27-29_260595134347_rgbf000031-resize_8-target.png,83,3.8960000000000004,1,6066,82,meters,jsons/VE83_randls_5_rotated.json,1476765,1734460,33,Woman
131,444976,DepthScenes,duration_manipulation_targetAtFixation,jsons/VE83_randls_5_rotated.json,http://54.235.29.9/FacialAge/BNav_EC2/DepthDuration/v2_depth_duration_MTurk/v2_DepthDuration_HTML.html#10,10,1366,651,1366,768,8-29-2023,9-35-0,132,depth_duration_stimuli/000642_2014-06-08_16-59-25_260595134347_rgbf000098-resize_2/000642_2014-06-08_16-59-25_260595134347_rgbf000098-resize_2-target.png,83,2.8815,3,4476,83,meters,jsons/VE83_randls_5_rotated.json,1476765,1734460,33,Woman
132,444976,DepthScenes,duration_manipulation_targetAtFixation,jsons/VE83_randls_5_rotated.json,http://54.235.29.9/FacialAge/BNav_EC2/DepthDuration/v2_depth_duration_MTurk/v2_DepthDuration_HTML.html#10,10,1366,651,1366,768,8-29-2023,9-35-0,133,depth_duration_stimuli/000734_2014-06-08_17-39-11_260595134347_rgbf000128-resize_2/000734_2014-06-08_17-39-11_260595134347_rgbf000128-resize_2-target.png,83,4.098,2,3586,84,meters,jsons/VE83_randls_5_rotated.json,1476765,1734460,33,Woman
133,444976,DepthScenes,duration_manipulation_targetAtFixation,jsons/VE83_randls_5_rotated.json,http://54.235.29.9/FacialAge/BNav_EC2/DepthDuration/v2_depth_duration_MTurk/v2_DepthDuration_HTML.html#10,10,1366,651,1366,768,8-29-2023,9-35-0,134,depth_duration_stimuli/000739_2014-06-08_18-45-58_260595134347_rgbf000068-resize_1/000739_2014-06-08_18-45-58_260595134347_rgbf000068-resize_1-target.png,83,3.534,3,3267,83,meters,jsons/VE83_randls_5_rotated.json,1476765,1734460,33,Woman
134,444976,DepthScenes,duration_manipulation_targetAtFixation,jsons/VE83_randls_5_rotated.json,http://54.235.29.9/FacialAge/BNav_EC2/DepthDuration/v2_depth_duration_MTurk/v2_DepthDuration_HTML.html#10,10,1366,651,1366,768,8-29-2023,9-35-0,135,depth_duration_stimuli/000375_2014-06-08_11-17-29_260595134347_rgbf000133-resize_2/000375_2014-06-08_11-17-29_260595134347_rgbf000133-resize-original.jpg,83,4.718,0,3419,83,meters,jsons/VE83_randls_5_rotated.json,1476765,1734460,33,Woman
135,444976,DepthScenes,duration_manipulation_targetAtFixation,jsons/VE83_randls_5_rotated.json,http://54.235.29.9/FacialAge/BNav_EC2/DepthDuration/v2_depth_duration_MTurk/v2_DepthDuration_HTML.html#10,10,1366,651,1366,768,8-29-2023,9-35-0,136,depth_duration_stimuli/000549_2014-06-08_22-10-24_260595134347_rgbf000247-resize_3/000549_2014-06-08_22-10-24_260595134347_rgbf000247-resize_3-target.png,83,1.841,1,3747,84,meters,jsons/VE83_randls_5_rotated.json,1476765,1734460,33,Woman
136,444976,DepthScenes,duration_manipulation_targetAtFixation,jsons/VE83_randls_5_rotated.json,http://54.235.29.9/FacialAge/BNav_EC2/DepthDuration/v2_depth_duration_MTurk/v2_DepthDuration_HTML.html#10,10,1366,651,1366,768,8-29-2023,9-35-0,137,depth_duration_stimuli/001055_2014-06-08_18-45-35_260595134347_rgbf000111-resize_4/001055_2014-06-08_18-45-35_260595134347_rgbf000111-resize_4-target.png,83,2.4290000000000003,6,3835,84,meters,jsons/VE83_randls_5_rotated.json,1476765,1734460,33,Woman
137,444976,DepthScenes,duration_manipulation_targetAtFixation,jsons/VE83_randls_5_rotated.json,http://54.235.29.9/FacialAge/BNav_EC2/DepthDuration/v2_depth_duration_MTurk/v2_DepthDuration_HTML.html#10,10,1366,651,1366,768,8-29-2023,9-35-0,138,depth_duration_stimuli/003587_2014-05-23_16-48-02_094959634447_rgbf002384-resize_2/003587_2014-05-23_16-48-02_094959634447_rgbf002384-resize_2-target.png,83,1.357,1,3739,83,meters,jsons/VE83_randls_5_rotated.json,1476765,1734460,33,Woman
138,444976,DepthScenes,duration_manipulation_targetAtFixation,jsons/VE83_randls_5_rotated.json,http://54.235.29.9/FacialAge/BNav_EC2/DepthDuration/v2_depth_duration_MTurk/v2_DepthDuration_HTML.html#10,10,1366,651,1366,768,8-29-2023,9-35-0,139,depth_duration_stimuli/001167_2014-06-17_15-38-07_260595134347_rgbf000108-resize_0/001167_2014-06-17_15-38-07_260595134347_rgbf000108-resize_0-target.png,83,1.8505,2,3131,83,meters,jsons/VE83_randls_5_rotated.json,1476765,1734460,33,Woman
139,444976,DepthScenes,duration_manipulation_targetAtFixation,jsons/VE83_randls_5_rotated.json,http://54.235.29.9/FacialAge/BNav_EC2/DepthDuration/v2_depth_duration_MTurk/v2_DepthDuration_HTML.html#10,10,1366,651,1366,768,8-29-2023,9-35-0,140,depth_duration_stimuli/003079_2014-06-15_15-18-20_094959634447_rgbf000152-resize_8/003079_2014-06-15_15-18-20_094959634447_rgbf000152-resize_8-target.png,83,2.8775,3,3747,84,meters,jsons/VE83_randls_5_rotated.json,1476765,1734460,33,Woman
140,444976,DepthScenes,duration_manipulation_targetAtFixation,jsons/VE83_randls_5_rotated.json,http://54.235.29.9/FacialAge/BNav_EC2/DepthDuration/v2_depth_duration_MTurk/v2_DepthDuration_HTML.html#10,10,1366,651,1366,768,8-29-2023,9-35-0,141,depth_duration_stimuli/000506_2014-06-08_23-21-00_260595134347_rgbf000070-resize_7/000506_2014-06-08_23-21-00_260595134347_rgbf000070-resize_7-target.png,83,4.0585,3,3835,82,meters,jsons/VE83_randls_5_rotated.json,1476765,1734460,33,Woman
141,444976,DepthScenes,duration_manipulation_targetAtFixation,jsons/VE83_randls_5_rotated.json,http://54.235.29.9/FacialAge/BNav_EC2/DepthDuration/v2_depth_duration_MTurk/v2_DepthDuration_HTML.html#10,10,1366,651,1366,768,8-29-2023,9-35-0,142,depth_duration_stimuli/000109_2014-05-14_23-41-52_260595134347_rgbf000035-resize_9/000109_2014-05-14_23-41-52_260595134347_rgbf000035-resize_9-target.png,83,1.3545,2,3744,83,meters,jsons/VE83_randls_5_rotated.json,1476765,1734460,33,Woman
142,444976,DepthScenes,duration_manipulation_targetAtFixation,jsons/VE83_randls_5_rotated.json,http://54.235.29.9/FacialAge/BNav_EC2/DepthDuration/v2_depth_duration_MTurk/v2_DepthDuration_HTML.html#10,10,1366,651,1366,768,8-29-2023,9-35-0,143,depth_duration_stimuli/000470_2014-06-09_19-42-40_260595134347_rgbf000094-resize_1/000470_2014-06-09_19-42-40_260595134347_rgbf000094-resize_1-target.png,83,1.831,4,4906,84,meters,jsons/VE83_randls_5_rotated.json,1476765,1734460,33,Woman
143,444976,DepthScenes,duration_manipulation_targetAtFixation,jsons/VE83_randls_5_rotated.json,http://54.235.29.9/FacialAge/BNav_EC2/DepthDuration/v2_depth_duration_MTurk/v2_DepthDuration_HTML.html#10,10,1366,651,1366,768,8-29-2023,9-35-0,144,depth_duration_stimuli/003228_2014-05-14_13-42-35_094959634447_rgbf000101-resize_1/003228_2014-05-14_13-42-35_094959634447_rgbf000101-resize_1-target.png,83,1.9680000000000002,1,4564,84,meters,jsons/VE83_randls_5_rotated.json,1476765,1734460,33,Woman
144,444976,DepthScenes,duration_manipulation_targetAtFixation,jsons/VE83_randls_5_rotated.json,http://54.235.29.9/FacialAge/BNav_EC2/DepthDuration/v2_depth_duration_MTurk/v2_DepthDuration_HTML.html#10,10,1366,651,1366,768,8-29-2023,9-35-0,145,depth_duration_stimuli/002600_2014-06-24_14-27-04_094959634447_rgbf000074-resize_2/002600_2014-06-24_14-27-04_094959634447_rgbf000074-resize_2-target.png,83,2.7575,2,4253,83,meters,jsons/VE83_randls_5_rotated.json,1476765,1734460,33,Woman
145,444976,DepthScenes,duration_manipulation_targetAtFixation,jsons/VE83_randls_5_rotated.json,http://54.235.29.9/FacialAge/BNav_EC2/DepthDuration/v2_depth_duration_MTurk/v2_DepthDuration_HTML.html#10,10,1366,651,1366,768,8-29-2023,9-35-0,146,depth_duration_stimuli/001516_2014-06-20_16-25-09_260595134347_rgbf000076-resize_2/001516_2014-06-20_16-25-09_260595134347_rgbf000076-resize_2-target.png,83,1.7445,3,3930,84,meters,jsons/VE83_randls_5_rotated.json,1476765,1734460,33,Woman
146,444976,DepthScenes,duration_manipulation_targetAtFixation,jsons/VE83_randls_5_rotated.json,http://54.235.29.9/FacialAge/BNav_EC2/DepthDuration/v2_depth_duration_MTurk/v2_DepthDuration_HTML.html#10,10,1366,651,1366,768,8-29-2023,9-35-0,147,depth_duration_stimuli/002118_2014-06-25_20-32-08_260595134347_rgbf000078-resize_1/002118_2014-06-25_20-32-08_260595134347_rgbf000078-resize_1-target.png,83,2.6460000000000004,4,4387,84,meters,jsons/VE83_randls_5_rotated.json,1476765,1734460,33,Woman
147,444976,DepthScenes,duration_manipulation_targetAtFixation,jsons/VE83_randls_5_rotated.json,http://54.235.29.9/FacialAge/BNav_EC2/DepthDuration/v2_depth_duration_MTurk/v2_DepthDuration_HTML.html#10,10,1366,651,1366,768,8-29-2023,9-35-0,148,depth_duration_stimuli/002323_2014-06-28_20-01-54_260595134347_rgbf000051-resize_4/002323_2014-06-28_20-01-54_260595134347_rgbf000051-resize_4-target.png,83,3.7310000000000003,3,4666,83,meters,jsons/VE83_randls_5_rotated.json,1476765,1734460,33,Woman
148,444976,DepthScenes,duration_manipulation_targetAtFixation,jsons/VE83_randls_5_rotated.json,http://54.235.29.9/FacialAge/BNav_EC2/DepthDuration/v2_depth_duration_MTurk/v2_DepthDuration_HTML.html#10,10,1366,651,1366,768,8-29-2023,9-35-0,149,depth_duration_stimuli/000917_2014-06-09_22-45-29_260595134347_rgbf000149-resize_3/000917_2014-06-09_22-45-29_260595134347_rgbf000149-resize_3-target.png,83,4.1865,4,4187,84,meters,jsons/VE83_randls_5_rotated.json,1476765,1734460,33,Woman
149,444976,DepthScenes,duration_manipulation_targetAtFixation,jsons/VE83_randls_5_rotated.json,http://54.235.29.9/FacialAge/BNav_EC2/DepthDuration/v2_depth_duration_MTurk/v2_DepthDuration_HTML.html#10,10,1366,651,1366,768,8-29-2023,9-35-0,150,depth_duration_stimuli/003423_2014-05-21_10-23-26_094959634447_rgbf002665-resize_2/003423_2014-05-21_10-23-26_094959634447_rgbf002665-resize_2-target.png,83,3.2575,3,4323,81,meters,jsons/VE83_randls_5_rotated.json,1476765,1734460,33,Woman
150,444976,DepthScenes,duration_manipulation_targetAtFixation,jsons/VE83_randls_5_rotated.json,http://54.235.29.9/FacialAge/BNav_EC2/DepthDuration/v2_depth_duration_MTurk/v2_DepthDuration_HTML.html#10,10,1366,651,1366,768,8-29-2023,9-35-0,151,depth_duration_stimuli/002905_2014-06-03_18-04-43_094959634447_rgbf000151-resize_2/002905_2014-06-03_18-04-43_094959634447_rgbf000151-resize_2-target.png,83,2.0295,2,3402,84,meters,jsons/VE83_randls_5_rotated.json,1476765,1734460,33,Woman
151,444976,DepthScenes,duration_manipulation_targetAtFixation,jsons/VE83_randls_5_rotated.json,http://54.235.29.9/FacialAge/BNav_EC2/DepthDuration/v2_depth_duration_MTurk/v2_DepthDuration_HTML.html#10,10,1366,651,1366,768,8-29-2023,9-35-0,152,depth_duration_stimuli/000569_2014-06-09_22-51-47_260595134347_rgbf000141-resize_3/000569_2014-06-09_22-51-47_260595134347_rgbf000141-resize-original.jpg,83,4.512,0,3554,84,meters,jsons/VE83_randls_5_rotated.json,1476765,1734460,33,Woman
152,444976,DepthScenes,duration_manipulation_targetAtFixation,jsons/VE83_randls_5_rotated.json,http://54.235.29.9/FacialAge/BNav_EC2/DepthDuration/v2_depth_duration_MTurk/v2_DepthDuration_HTML.html#10,10,1366,651,1366,768,8-29-2023,9-35-0,153,depth_duration_stimuli/000103_2014-05-14_22-01-17_260595134347_rgbf000152-resize_5/000103_2014-05-14_22-01-17_260595134347_rgbf000152-resize_5-target.png,83,1.993,3,4187,83,meters,jsons/VE83_randls_5_rotated.json,1476765,1734460,33,Woman
153,444976,DepthScenes,duration_manipulation_targetAtFixation,jsons/VE83_randls_5_rotated.json,http://54.235.29.9/FacialAge/BNav_EC2/DepthDuration/v2_depth_duration_MTurk/v2_DepthDuration_HTML.html#10,10,1366,651,1366,768,8-29-2023,9-35-0,154,depth_duration_stimuli/001555_2014-06-20_17-12-10_260595134347_rgbf000065-resize_4/001555_2014-06-20_17-12-10_260595134347_rgbf000065-resize_4-target.png,83,1.633,2,3665,83,meters,jsons/VE83_randls_5_rotated.json,1476765,1734460,33,Woman
154,444976,DepthScenes,duration_manipulation_targetAtFixation,jsons/VE83_randls_5_rotated.json,http://54.235.29.9/FacialAge/BNav_EC2/DepthDuration/v2_depth_duration_MTurk/v2_DepthDuration_HTML.html#10,10,1366,651,1366,768,8-29-2023,9-35-0,155,depth_duration_stimuli/002568_2014-06-24_13-59-21_094959634447_rgbf000062-resize_4/002568_2014-06-24_13-59-21_094959634447_rgbf000062-resize_4-target.png,83,3.015,3,3995,83,meters,jsons/VE83_randls_5_rotated.json,1476765,1734460,33,Woman
155,444976,DepthScenes,duration_manipulation_targetAtFixation,jsons/VE83_randls_5_rotated.json,http://54.235.29.9/FacialAge/BNav_EC2/DepthDuration/v2_depth_duration_MTurk/v2_DepthDuration_HTML.html#10,10,1366,651,1366,768,8-29-2023,9-35-0,156,depth_duration_stimuli/003492_2014-05-21_15-50-55_094959634447_rgbf000828-resize_1/003492_2014-05-21_15-50-55_094959634447_rgbf000828-resize_1-target.png,83,4.06875,2,5236,84,meters,jsons/VE83_randls_5_rotated.json,1476765,1734460,33,Woman
156,444976,DepthScenes,duration_manipulation_targetAtFixation,jsons/VE83_randls_5_rotated.json,http://54.235.29.9/FacialAge/BNav_EC2/DepthDuration/v2_depth_duration_MTurk/v2_DepthDuration_HTML.html#10,10,1366,651,1366,768,8-29-2023,9-35-0,157,depth_duration_stimuli/003495_2014-05-21_16-01-51_094959634447_rgbf000100-resize_3/003495_2014-05-21_16-01-51_094959634447_rgbf000100-resize_3-target.png,83,1.6255,1,3771,82,meters,jsons/VE83_randls_5_rotated.json,1476765,1734460,33,Woman
157,444976,DepthScenes,duration_manipulation_targetAtFixation,jsons/VE83_randls_5_rotated.json,http://54.235.29.9/FacialAge/BNav_EC2/DepthDuration/v2_depth_duration_MTurk/v2_DepthDuration_HTML.html#10,10,1366,651,1366,768,8-29-2023,9-35-0,158,depth_duration_stimuli/001244_2014-06-17_16-47-45_260595134347_rgbf000030-resize_4/001244_2014-06-17_16-47-45_260595134347_rgbf000030-resize_4-target.png,83,2.0425,4,3716,84,meters,jsons/VE83_randls_5_rotated.json,1476765,1734460,33,Woman
158,444976,DepthScenes,duration_manipulation_targetAtFixation,jsons/VE83_randls_5_rotated.json,http://54.235.29.9/FacialAge/BNav_EC2/DepthDuration/v2_depth_duration_MTurk/v2_DepthDuration_HTML.html#10,10,1366,651,1366,768,8-29-2023,9-35-0,159,depth_duration_stimuli/001235_2014-06-17_16-37-36_260595134347_rgbf000084-resize_4/001235_2014-06-17_16-37-36_260595134347_rgbf000084-resize_4-target.png,83,3.6605,4,4955,84,meters,jsons/VE83_randls_5_rotated.json,1476765,1734460,33,Woman
159,444976,DepthScenes,duration_manipulation_targetAtFixation,jsons/VE83_randls_5_rotated.json,http://54.235.29.9/FacialAge/BNav_EC2/DepthDuration/v2_depth_duration_MTurk/v2_DepthDuration_HTML.html#10,10,1366,651,1366,768,8-29-2023,9-35-0,160,depth_duration_stimuli/000788_2014-06-08_22-34-36_260595134347_rgbf000131-resize_1/000788_2014-06-08_22-34-36_260595134347_rgbf000131-resize_1-target.png,83,3.359,3,4635,83,meters,jsons/VE83_randls_5_rotated.json,1476765,1734460,33,Woman
160,444976,DepthScenes,duration_manipulation_targetAtFixation,jsons/VE83_randls_5_rotated.json,http://54.235.29.9/FacialAge/BNav_EC2/DepthDuration/v2_depth_duration_MTurk/v2_DepthDuration_HTML.html#10,10,1366,651,1366,768,8-29-2023,9-35-0,161,depth_duration_stimuli/001094_2014-06-15_17-36-00_260595134347_rgbf000205-resize_0/001094_2014-06-15_17-36-00_260595134347_rgbf000205-resize_0-target.png,83,4.2175,4,4828,84,meters,jsons/VE83_randls_5_rotated.json,1476765,1734460,33,Woman
161,444976,DepthScenes,duration_manipulation_targetAtFixation,jsons/VE83_randls_5_rotated.json,http://54.235.29.9/FacialAge/BNav_EC2/DepthDuration/v2_depth_duration_MTurk/v2_DepthDuration_HTML.html#10,10,1366,651,1366,768,8-29-2023,9-35-0,162,depth_duration_stimuli/000692_2014-06-08_13-09-42_260595134347_rgbf000199-resize_2/000692_2014-06-08_13-09-42_260595134347_rgbf000199-resize_2-target.png,83,3.661,5,4122,83,meters,jsons/VE83_randls_5_rotated.json,1476765,1734460,33,Woman
162,444976,DepthScenes,duration_manipulation_targetAtFixation,jsons/VE83_randls_5_rotated.json,http://54.235.29.9/FacialAge/BNav_EC2/DepthDuration/v2_depth_duration_MTurk/v2_DepthDuration_HTML.html#10,10,1366,651,1366,768,8-29-2023,9-35-0,163,depth_duration_stimuli/000709_2014-06-08_13-51-55_260595134347_rgbf000068-resize_3/000709_2014-06-08_13-51-55_260595134347_rgbf000068-resize_3-target.png,83,1.8030000000000002,3,5162,82,meters,jsons/VE83_randls_5_rotated.json,1476765,1734460,33,Woman
163,444976,DepthScenes,duration_manipulation_targetAtFixation,jsons/VE83_randls_5_rotated.json,http://54.235.29.9/FacialAge/BNav_EC2/DepthDuration/v2_depth_duration_MTurk/v2_DepthDuration_HTML.html#10,10,1366,651,1366,768,8-29-2023,9-35-0,164,depth_duration_stimuli/002057_2014-06-24_21-00-13_260595134347_rgbf000120-resize_1/002057_2014-06-24_21-00-13_260595134347_rgbf000120-resize_1-target.png,83,2.967,4,5769,83,meters,jsons/VE83_randls_5_rotated.json,1476765,1734460,33,Woman
