,subjID,experimentName,versionName,sequenceName,url,selected_row,windowWidth,windowHeight,screenWidth,screenHeight,startDate,startTime,trial,stimulus,duration,actual_depth,depth_estimate,trial_RT,log_sceneDuration,unitSelection,seq_filepath,experimentTime,totalTime,age,gender
0,449930,DepthScenes,duration_manipulation_targetAtFixation,jsons/VE125_randls_34_rotated.json,http://54.235.29.9/FacialAge/BNav_EC2/DepthDuration/v2_depth_duration_MTurk/v2_DepthDuration_HTML.html#256,256,2233,1070,2240,1260,9-3-2022,9-46-17,1,depth_duration_stimuli/000103_2014-05-14_22-01-17_260595134347_rgbf000152-resize_5/000103_2014-05-14_22-01-17_260595134347_rgbf000152-resize_5-target.png,125,1.993,5.0,5493,125,feet,jsons/VE125_randls_34_rotated.json,833668,1834131,54,Woman
1,449930,DepthScenes,duration_manipulation_targetAtFixation,jsons/VE125_randls_34_rotated.json,http://54.235.29.9/FacialAge/BNav_EC2/DepthDuration/v2_depth_duration_MTurk/v2_DepthDuration_HTML.html#256,256,2233,1070,2240,1260,9-3-2022,9-46-17,2,depth_duration_stimuli/001555_2014-06-20_17-12-10_260595134347_rgbf000065-resize_4/001555_2014-06-20_17-12-10_260595134347_rgbf000065-resize_4-target.png,125,1.633,2.5,4259,120,feet,jsons/VE125_randls_34_rotated.json,833668,1834131,54,Woman
2,449930,DepthScenes,duration_manipulation_targetAtFixation,jsons/VE125_randls_34_rotated.json,http://54.235.29.9/FacialAge/BNav_EC2/DepthDuration/v2_depth_duration_MTurk/v2_DepthDuration_HTML.html#256,256,2233,1070,2240,1260,9-3-2022,9-46-17,3,depth_duration_stimuli/001617_2014-06-20_11-35-32_260595134347_rgbf000066-resize_1/001617_2014-06-20_11-35-32_260595134347_rgbf000066-resize_1-target.png,125,3.7910000000000004,5.0,6830,122,feet,jsons/VE125_randls_34_rotated.json,833668,1834131,54,Woman
3,449930,DepthScenes,duration_manipulation_targetAtFixation,jsons/VE125_randls_34_rotated.json,http://54.235.29.9/FacialAge/BNav_EC2/DepthDuration/v2_depth_duration_MTurk/v2_DepthDuration_HTML.html#256,256,2233,1070,2240,1260,9-3-2022,9-46-17,4,depth_duration_stimuli/001806_2014-06-26_20-50-20_260595134347_rgbf000091-resize_1/001806_2014-06-26_20-50-20_260595134347_rgbf000091-resize_1-target.png,125,2.7305,3.5,5345,121,feet,jsons/VE125_randls_34_rotated.json,833668,1834131,54,Woman
4,449930,DepthScenes,duration_manipulation_targetAtFixation,jsons/VE125_randls_34_rotated.json,http://54.235.29.9/FacialAge/BNav_EC2/DepthDuration/v2_depth_duration_MTurk/v2_DepthDuration_HTML.html#256,256,2233,1070,2240,1260,9-3-2022,9-46-17,5,depth_duration_stimuli/003228_2014-05-14_13-42-35_094959634447_rgbf000101-resize_1/003228_2014-05-14_13-42-35_094959634447_rgbf000101-resize_1-target.png,125,1.9680000000000002,2.5,4944,123,feet,jsons/VE125_randls_34_rotated.json,833668,1834131,54,Woman
5,449930,DepthScenes,duration_manipulation_targetAtFixation,jsons/VE125_randls_34_rotated.json,http://54.235.29.9/FacialAge/BNav_EC2/DepthDuration/v2_depth_duration_MTurk/v2_DepthDuration_HTML.html#256,256,2233,1070,2240,1260,9-3-2022,9-46-17,6,depth_duration_stimuli/002600_2014-06-24_14-27-04_094959634447_rgbf000074-resize_2/002600_2014-06-24_14-27-04_094959634447_rgbf000074-resize_2-target.png,125,2.7575,6.0,4328,126,feet,jsons/VE125_randls_34_rotated.json,833668,1834131,54,Woman
6,449930,DepthScenes,duration_manipulation_targetAtFixation,jsons/VE125_randls_34_rotated.json,http://54.235.29.9/FacialAge/BNav_EC2/DepthDuration/v2_depth_duration_MTurk/v2_DepthDuration_HTML.html#256,256,2233,1070,2240,1260,9-3-2022,9-46-17,7,depth_duration_stimuli/001032_2014-06-08_13-23-17_260595134347_rgbf000021-resize_3/001032_2014-06-08_13-23-17_260595134347_rgbf000021-resize_3-target.png,125,3.2725,5.0,4861,123,feet,jsons/VE125_randls_34_rotated.json,833668,1834131,54,Woman
7,449930,DepthScenes,duration_manipulation_targetAtFixation,jsons/VE125_randls_34_rotated.json,http://54.235.29.9/FacialAge/BNav_EC2/DepthDuration/v2_depth_duration_MTurk/v2_DepthDuration_HTML.html#256,256,2233,1070,2240,1260,9-3-2022,9-46-17,8,depth_duration_stimuli/001059_2014-06-08_21-53-27_260595134347_rgbf000061-resize_4/001059_2014-06-08_21-53-27_260595134347_rgbf000061-resize_4-target.png,125,2.4185,5.0,6447,125,feet,jsons/VE125_randls_34_rotated.json,833668,1834131,54,Woman
8,449930,DepthScenes,duration_manipulation_targetAtFixation,jsons/VE125_randls_34_rotated.json,http://54.235.29.9/FacialAge/BNav_EC2/DepthDuration/v2_depth_duration_MTurk/v2_DepthDuration_HTML.html#256,256,2233,1070,2240,1260,9-3-2022,9-46-17,9,depth_duration_stimuli/003495_2014-05-21_16-01-51_094959634447_rgbf000100-resize_3/003495_2014-05-21_16-01-51_094959634447_rgbf000100-resize_3-target.png,125,1.6255,4.0,6061,123,feet,jsons/VE125_randls_34_rotated.json,833668,1834131,54,Woman
9,449930,DepthScenes,duration_manipulation_targetAtFixation,jsons/VE125_randls_34_rotated.json,http://54.235.29.9/FacialAge/BNav_EC2/DepthDuration/v2_depth_duration_MTurk/v2_DepthDuration_HTML.html#256,256,2233,1070,2240,1260,9-3-2022,9-46-17,10,depth_duration_stimuli/001244_2014-06-17_16-47-45_260595134347_rgbf000030-resize_4/001244_2014-06-17_16-47-45_260595134347_rgbf000030-resize_4-target.png,125,2.0425,5.0,6694,120,feet,jsons/VE125_randls_34_rotated.json,833668,1834131,54,Woman
10,449930,DepthScenes,duration_manipulation_targetAtFixation,jsons/VE125_randls_34_rotated.json,http://54.235.29.9/FacialAge/BNav_EC2/DepthDuration/v2_depth_duration_MTurk/v2_DepthDuration_HTML.html#256,256,2233,1070,2240,1260,9-3-2022,9-46-17,11,depth_duration_stimuli/002425_2014-06-28_20-27-29_260595134347_rgbf000031-resize_8/002425_2014-06-28_20-27-29_260595134347_rgbf000031-resize_8-target.png,125,3.8960000000000004,7.0,5865,126,feet,jsons/VE125_randls_34_rotated.json,833668,1834131,54,Woman
11,449930,DepthScenes,duration_manipulation_targetAtFixation,jsons/VE125_randls_34_rotated.json,http://54.235.29.9/FacialAge/BNav_EC2/DepthDuration/v2_depth_duration_MTurk/v2_DepthDuration_HTML.html#256,256,2233,1070,2240,1260,9-3-2022,9-46-17,12,depth_duration_stimuli/000642_2014-06-08_16-59-25_260595134347_rgbf000098-resize_2/000642_2014-06-08_16-59-25_260595134347_rgbf000098-resize_2-target.png,125,2.8815,5.0,3680,126,feet,jsons/VE125_randls_34_rotated.json,833668,1834131,54,Woman
12,449930,DepthScenes,duration_manipulation_targetAtFixation,jsons/VE125_randls_34_rotated.json,http://54.235.29.9/FacialAge/BNav_EC2/DepthDuration/v2_depth_duration_MTurk/v2_DepthDuration_HTML.html#256,256,2233,1070,2240,1260,9-3-2022,9-46-17,13,depth_duration_stimuli/001571_2014-06-20_17-21-32_260595134347_rgbf000089-resize_1/001571_2014-06-20_17-21-32_260595134347_rgbf000089-resize_1-target.png,125,1.86,4.5,18848,124,feet,jsons/VE125_randls_34_rotated.json,833668,1834131,54,Woman
13,449930,DepthScenes,duration_manipulation_targetAtFixation,jsons/VE125_randls_34_rotated.json,http://54.235.29.9/FacialAge/BNav_EC2/DepthDuration/v2_depth_duration_MTurk/v2_DepthDuration_HTML.html#256,256,2233,1070,2240,1260,9-3-2022,9-46-17,14,depth_duration_stimuli/002272_2014-06-28_18-53-56_260595134347_rgbf000067-resize_2/002272_2014-06-28_18-53-56_260595134347_rgbf000067-resize_2-target.png,125,1.138,1.5,7061,124,feet,jsons/VE125_randls_34_rotated.json,833668,1834131,54,Woman
14,449930,DepthScenes,duration_manipulation_targetAtFixation,jsons/VE125_randls_34_rotated.json,http://54.235.29.9/FacialAge/BNav_EC2/DepthDuration/v2_depth_duration_MTurk/v2_DepthDuration_HTML.html#256,256,2233,1070,2240,1260,9-3-2022,9-46-17,15,depth_duration_stimuli/003048_2014-06-15_13-49-43_094959634447_rgbf000150-resize_1/003048_2014-06-15_13-49-43_094959634447_rgbf000150-resize_1-target.png,125,4.0035,9.0,6394,123,feet,jsons/VE125_randls_34_rotated.json,833668,1834131,54,Woman
15,449930,DepthScenes,duration_manipulation_targetAtFixation,jsons/VE125_randls_34_rotated.json,http://54.235.29.9/FacialAge/BNav_EC2/DepthDuration/v2_depth_duration_MTurk/v2_DepthDuration_HTML.html#256,256,2233,1070,2240,1260,9-3-2022,9-46-17,16,depth_duration_stimuli/002043_2014-06-24_20-29-38_260595134347_rgbf000039-resize_4/002043_2014-06-24_20-29-38_260595134347_rgbf000039-resize_4-target.png,125,2.8435,5.0,8709,124,feet,jsons/VE125_randls_34_rotated.json,833668,1834131,54,Woman
16,449930,DepthScenes,duration_manipulation_targetAtFixation,jsons/VE125_randls_34_rotated.json,http://54.235.29.9/FacialAge/BNav_EC2/DepthDuration/v2_depth_duration_MTurk/v2_DepthDuration_HTML.html#256,256,2233,1070,2240,1260,9-3-2022,9-46-17,17,depth_duration_stimuli/001214_2014-06-17_16-13-55_260595134347_rgbf000111-resize_0/001214_2014-06-17_16-13-55_260595134347_rgbf000111-resize_0-target.png,125,2.6505,4.0,4945,122,feet,jsons/VE125_randls_34_rotated.json,833668,1834131,54,Woman
17,449930,DepthScenes,duration_manipulation_targetAtFixation,jsons/VE125_randls_34_rotated.json,http://54.235.29.9/FacialAge/BNav_EC2/DepthDuration/v2_depth_duration_MTurk/v2_DepthDuration_HTML.html#256,256,2233,1070,2240,1260,9-3-2022,9-46-17,18,depth_duration_stimuli/000810_2014-06-08_17-20-01_260595134347_rgbf000105-resize_0/000810_2014-06-08_17-20-01_260595134347_rgbf000105-resize_0-target.png,125,1.4865,5.0,4727,123,feet,jsons/VE125_randls_34_rotated.json,833668,1834131,54,Woman
18,449930,DepthScenes,duration_manipulation_targetAtFixation,jsons/VE125_randls_34_rotated.json,http://54.235.29.9/FacialAge/BNav_EC2/DepthDuration/v2_depth_duration_MTurk/v2_DepthDuration_HTML.html#256,256,2233,1070,2240,1260,9-3-2022,9-46-17,19,depth_duration_stimuli/001498_2014-06-19_17-45-14_260595134347_rgbf000129-resize_4/001498_2014-06-19_17-45-14_260595134347_rgbf000129-resize-original.jpg,125,1.4075,0.0,3161,124,feet,jsons/VE125_randls_34_rotated.json,833668,1834131,54,Woman
19,449930,DepthScenes,duration_manipulation_targetAtFixation,jsons/VE125_randls_34_rotated.json,http://54.235.29.9/FacialAge/BNav_EC2/DepthDuration/v2_depth_duration_MTurk/v2_DepthDuration_HTML.html#256,256,2233,1070,2240,1260,9-3-2022,9-46-17,20,depth_duration_stimuli/002444_2014-06-28_20-32-08_260595134347_rgbf000027-resize_0/002444_2014-06-28_20-32-08_260595134347_rgbf000027-resize_0-target.png,125,4.388999999999999,9.0,4226,124,feet,jsons/VE125_randls_34_rotated.json,833668,1834131,54,Woman
20,449930,DepthScenes,duration_manipulation_targetAtFixation,jsons/VE125_randls_34_rotated.json,http://54.235.29.9/FacialAge/BNav_EC2/DepthDuration/v2_depth_duration_MTurk/v2_DepthDuration_HTML.html#256,256,2233,1070,2240,1260,9-3-2022,9-46-17,21,depth_duration_stimuli/000436_2014-06-09_22-25-11_260595134347_rgbf000137-resize_1/000436_2014-06-09_22-25-11_260595134347_rgbf000137-resize_1-target.png,125,4.0705,10.5,4898,125,feet,jsons/VE125_randls_34_rotated.json,833668,1834131,54,Woman
21,449930,DepthScenes,duration_manipulation_targetAtFixation,jsons/VE125_randls_34_rotated.json,http://54.235.29.9/FacialAge/BNav_EC2/DepthDuration/v2_depth_duration_MTurk/v2_DepthDuration_HTML.html#256,256,2233,1070,2240,1260,9-3-2022,9-46-17,22,depth_duration_stimuli/002637_2014-06-24_14-51-13_094959634447_rgbf000066-resize_4/002637_2014-06-24_14-51-13_094959634447_rgbf000066-resize_4-target.png,125,1.9955,5.5,6276,121,feet,jsons/VE125_randls_34_rotated.json,833668,1834131,54,Woman
22,449930,DepthScenes,duration_manipulation_targetAtFixation,jsons/VE125_randls_34_rotated.json,http://54.235.29.9/FacialAge/BNav_EC2/DepthDuration/v2_depth_duration_MTurk/v2_DepthDuration_HTML.html#256,256,2233,1070,2240,1260,9-3-2022,9-46-17,23,depth_duration_stimuli/003534_2014-05-22_15-06-10_094959634447_rgbf000102-resize_4/003534_2014-05-22_15-06-10_094959634447_rgbf000102-resize_4-target.png,125,1.426,2.0,4065,127,feet,jsons/VE125_randls_34_rotated.json,833668,1834131,54,Woman
23,449930,DepthScenes,duration_manipulation_targetAtFixation,jsons/VE125_randls_34_rotated.json,http://54.235.29.9/FacialAge/BNav_EC2/DepthDuration/v2_depth_duration_MTurk/v2_DepthDuration_HTML.html#256,256,2233,1070,2240,1260,9-3-2022,9-46-17,24,depth_duration_stimuli/001447_2014-06-19_17-00-32_260595134347_rgbf000082-resize_5/001447_2014-06-19_17-00-32_260595134347_rgbf000082-resize_5-target.png,125,4.13775,4.0,7027,124,feet,jsons/VE125_randls_34_rotated.json,833668,1834131,54,Woman
24,449930,DepthScenes,duration_manipulation_targetAtFixation,jsons/VE125_randls_34_rotated.json,http://54.235.29.9/FacialAge/BNav_EC2/DepthDuration/v2_depth_duration_MTurk/v2_DepthDuration_HTML.html#256,256,2233,1070,2240,1260,9-3-2022,9-46-17,25,depth_duration_stimuli/000447_2014-06-08_16-15-46_260595134347_rgbf000130-resize_1/000447_2014-06-08_16-15-46_260595134347_rgbf000130-resize_1-target.png,125,4.479,11.0,6844,123,feet,jsons/VE125_randls_34_rotated.json,833668,1834131,54,Woman
25,449930,DepthScenes,duration_manipulation_targetAtFixation,jsons/VE125_randls_34_rotated.json,http://54.235.29.9/FacialAge/BNav_EC2/DepthDuration/v2_depth_duration_MTurk/v2_DepthDuration_HTML.html#256,256,2233,1070,2240,1260,9-3-2022,9-46-17,26,depth_duration_stimuli/000854_2014-06-09_19-43-13_260595134347_rgbf000066-resize_0/000854_2014-06-09_19-43-13_260595134347_rgbf000066-resize_0-target.png,125,3.068,4.5,5527,120,feet,jsons/VE125_randls_34_rotated.json,833668,1834131,54,Woman
26,449930,DepthScenes,duration_manipulation_targetAtFixation,jsons/VE125_randls_34_rotated.json,http://54.235.29.9/FacialAge/BNav_EC2/DepthDuration/v2_depth_duration_MTurk/v2_DepthDuration_HTML.html#256,256,2233,1070,2240,1260,9-3-2022,9-46-17,27,depth_duration_stimuli/000758_2014-06-08_22-05-08_260595134347_rgbf000085-resize_0/000758_2014-06-08_22-05-08_260595134347_rgbf000085-resize_0-target.png,125,3.3810000000000002,8.0,4483,129,feet,jsons/VE125_randls_34_rotated.json,833668,1834131,54,Woman
27,449930,DepthScenes,duration_manipulation_targetAtFixation,jsons/VE125_randls_34_rotated.json,http://54.235.29.9/FacialAge/BNav_EC2/DepthDuration/v2_depth_duration_MTurk/v2_DepthDuration_HTML.html#256,256,2233,1070,2240,1260,9-3-2022,9-46-17,28,depth_duration_stimuli/001052_2014-06-08_18-24-54_260595134347_rgbf000130-resize_1/001052_2014-06-08_18-24-54_260595134347_rgbf000130-resize_1-target.png,125,4.1045,9.0,4213,124,feet,jsons/VE125_randls_34_rotated.json,833668,1834131,54,Woman
28,449930,DepthScenes,duration_manipulation_targetAtFixation,jsons/VE125_randls_34_rotated.json,http://54.235.29.9/FacialAge/BNav_EC2/DepthDuration/v2_depth_duration_MTurk/v2_DepthDuration_HTML.html#256,256,2233,1070,2240,1260,9-3-2022,9-46-17,29,depth_duration_stimuli/002988_2014-06-15_12-24-20_094959634447_rgbf000150-resize_1/002988_2014-06-15_12-24-20_094959634447_rgbf000150-resize_1-target.png,125,4.7669999999999995,11.0,6177,123,feet,jsons/VE125_randls_34_rotated.json,833668,1834131,54,Woman
29,449930,DepthScenes,duration_manipulation_targetAtFixation,jsons/VE125_randls_34_rotated.json,http://54.235.29.9/FacialAge/BNav_EC2/DepthDuration/v2_depth_duration_MTurk/v2_DepthDuration_HTML.html#256,256,2233,1070,2240,1260,9-3-2022,9-46-17,30,depth_duration_stimuli/002072_2014-06-24_21-48-06_260595134347_rgbf000115-resize_0/002072_2014-06-24_21-48-06_260595134347_rgbf000115-resize-original.jpg,125,4.702,0.0,3794,120,feet,jsons/VE125_randls_34_rotated.json,833668,1834131,54,Woman
30,449930,DepthScenes,duration_manipulation_targetAtFixation,jsons/VE125_randls_34_rotated.json,http://54.235.29.9/FacialAge/BNav_EC2/DepthDuration/v2_depth_duration_MTurk/v2_DepthDuration_HTML.html#256,256,2233,1070,2240,1260,9-3-2022,9-46-17,31,depth_duration_stimuli/002209_2014-06-28_18-36-10_260595134347_rgbf000051-resize_1/002209_2014-06-28_18-36-10_260595134347_rgbf000051-resize_1-target.png,125,2.057,3.0,3611,124,feet,jsons/VE125_randls_34_rotated.json,833668,1834131,54,Woman
31,449930,DepthScenes,duration_manipulation_targetAtFixation,jsons/VE125_randls_34_rotated.json,http://54.235.29.9/FacialAge/BNav_EC2/DepthDuration/v2_depth_duration_MTurk/v2_DepthDuration_HTML.html#256,256,2233,1070,2240,1260,9-3-2022,9-46-17,32,depth_duration_stimuli/002763_2014-06-22_19-13-10_094959634447_rgbf000075-resize_4/002763_2014-06-22_19-13-10_094959634447_rgbf000075-resize_4-target.png,125,1.68375,2.5,3846,124,feet,jsons/VE125_randls_34_rotated.json,833668,1834131,54,Woman
32,449930,DepthScenes,duration_manipulation_targetAtFixation,jsons/VE125_randls_34_rotated.json,http://54.235.29.9/FacialAge/BNav_EC2/DepthDuration/v2_depth_duration_MTurk/v2_DepthDuration_HTML.html#256,256,2233,1070,2240,1260,9-3-2022,9-46-17,33,depth_duration_stimuli/002758_2014-06-22_19-11-20_094959634447_rgbf000128-resize_1/002758_2014-06-22_19-11-20_094959634447_rgbf000128-resize_1-target.png,125,2.555,3.0,5528,122,feet,jsons/VE125_randls_34_rotated.json,833668,1834131,54,Woman
33,449930,DepthScenes,duration_manipulation_targetAtFixation,jsons/VE125_randls_34_rotated.json,http://54.235.29.9/FacialAge/BNav_EC2/DepthDuration/v2_depth_duration_MTurk/v2_DepthDuration_HTML.html#256,256,2233,1070,2240,1260,9-3-2022,9-46-17,34,depth_duration_stimuli/002630_2014-06-24_14-47-50_094959634447_rgbf000055-resize_1/002630_2014-06-24_14-47-50_094959634447_rgbf000055-resize_1-target.png,125,3.0095,6.0,4845,122,feet,jsons/VE125_randls_34_rotated.json,833668,1834131,54,Woman
34,449930,DepthScenes,duration_manipulation_targetAtFixation,jsons/VE125_randls_34_rotated.json,http://54.235.29.9/FacialAge/BNav_EC2/DepthDuration/v2_depth_duration_MTurk/v2_DepthDuration_HTML.html#256,256,2233,1070,2240,1260,9-3-2022,9-46-17,35,depth_duration_stimuli/002344_2014-06-28_20-06-29_260595134347_rgbf000030-resize_1/002344_2014-06-28_20-06-29_260595134347_rgbf000030-resize_1-target.png,125,1.5795,1.5,4781,128,feet,jsons/VE125_randls_34_rotated.json,833668,1834131,54,Woman
35,449930,DepthScenes,duration_manipulation_targetAtFixation,jsons/VE125_randls_34_rotated.json,http://54.235.29.9/FacialAge/BNav_EC2/DepthDuration/v2_depth_duration_MTurk/v2_DepthDuration_HTML.html#256,256,2233,1070,2240,1260,9-3-2022,9-46-17,36,depth_duration_stimuli/002725_2014-06-22_11-47-51_094959634447_rgbf000070-resize_1/002725_2014-06-22_11-47-51_094959634447_rgbf000070-resize_1-target.png,125,2.195,5.0,4044,121,feet,jsons/VE125_randls_34_rotated.json,833668,1834131,54,Woman
36,449930,DepthScenes,duration_manipulation_targetAtFixation,jsons/VE125_randls_34_rotated.json,http://54.235.29.9/FacialAge/BNav_EC2/DepthDuration/v2_depth_duration_MTurk/v2_DepthDuration_HTML.html#256,256,2233,1070,2240,1260,9-3-2022,9-46-17,37,depth_duration_stimuli/003081_2014-06-15_15-19-16_094959634447_rgbf000150-resize_1/003081_2014-06-15_15-19-16_094959634447_rgbf000150-resize_1-target.png,125,3.9125,6.0,3544,121,feet,jsons/VE125_randls_34_rotated.json,833668,1834131,54,Woman
37,449930,DepthScenes,duration_manipulation_targetAtFixation,jsons/VE125_randls_34_rotated.json,http://54.235.29.9/FacialAge/BNav_EC2/DepthDuration/v2_depth_duration_MTurk/v2_DepthDuration_HTML.html#256,256,2233,1070,2240,1260,9-3-2022,9-46-17,38,depth_duration_stimuli/001417_2014-06-19_16-25-36_260595134347_rgbf000115-resize_5/001417_2014-06-19_16-25-36_260595134347_rgbf000115-resize_5-target.png,125,4.6255,5.0,4064,130,feet,jsons/VE125_randls_34_rotated.json,833668,1834131,54,Woman
38,449930,DepthScenes,duration_manipulation_targetAtFixation,jsons/VE125_randls_34_rotated.json,http://54.235.29.9/FacialAge/BNav_EC2/DepthDuration/v2_depth_duration_MTurk/v2_DepthDuration_HTML.html#256,256,2233,1070,2240,1260,9-3-2022,9-46-17,39,depth_duration_stimuli/000457_2014-06-08_16-52-43_260595134347_rgbf000199-resize_1/000457_2014-06-08_16-52-43_260595134347_rgbf000199-resize_1-target.png,125,3.6489999999999996,5.5,4912,127,feet,jsons/VE125_randls_34_rotated.json,833668,1834131,54,Woman
39,449930,DepthScenes,duration_manipulation_targetAtFixation,jsons/VE125_randls_34_rotated.json,http://54.235.29.9/FacialAge/BNav_EC2/DepthDuration/v2_depth_duration_MTurk/v2_DepthDuration_HTML.html#256,256,2233,1070,2240,1260,9-3-2022,9-46-17,40,depth_duration_stimuli/000929_2014-06-09_16-33-19_260595134347_rgbf000139-resize_0/000929_2014-06-09_16-33-19_260595134347_rgbf000139-resize_0-target.png,125,2.8680000000000003,4.0,4299,126,feet,jsons/VE125_randls_34_rotated.json,833668,1834131,54,Woman
40,449930,DepthScenes,duration_manipulation_targetAtFixation,jsons/VE125_randls_34_rotated.json,http://54.235.29.9/FacialAge/BNav_EC2/DepthDuration/v2_depth_duration_MTurk/v2_DepthDuration_HTML.html#256,256,2233,1070,2240,1260,9-3-2022,9-46-17,41,depth_duration_stimuli/002953_2014-06-08_17-32-18_094959634447_rgbf000059-resize_5/002953_2014-06-08_17-32-18_094959634447_rgbf000059-resize_5-target.png,125,1.551,2.0,6547,122,feet,jsons/VE125_randls_34_rotated.json,833668,1834131,54,Woman
41,449930,DepthScenes,duration_manipulation_targetAtFixation,jsons/VE125_randls_34_rotated.json,http://54.235.29.9/FacialAge/BNav_EC2/DepthDuration/v2_depth_duration_MTurk/v2_DepthDuration_HTML.html#256,256,2233,1070,2240,1260,9-3-2022,9-46-17,42,depth_duration_stimuli/000878_2014-06-08_22-52-45_260595134347_rgbf000045-resize_2/000878_2014-06-08_22-52-45_260595134347_rgbf000045-resize_2-target.png,125,2.092,3.5,3882,128,feet,jsons/VE125_randls_34_rotated.json,833668,1834131,54,Woman
42,449930,DepthScenes,duration_manipulation_targetAtFixation,jsons/VE125_randls_34_rotated.json,http://54.235.29.9/FacialAge/BNav_EC2/DepthDuration/v2_depth_duration_MTurk/v2_DepthDuration_HTML.html#256,256,2233,1070,2240,1260,9-3-2022,9-46-17,43,depth_duration_stimuli/000677_2014-06-08_23-10-32_260595134347_rgbf000158-resize_6/000677_2014-06-08_23-10-32_260595134347_rgbf000158-resize_6-target.png,125,3.556,4.5,4146,126,feet,jsons/VE125_randls_34_rotated.json,833668,1834131,54,Woman
43,449930,DepthScenes,duration_manipulation_targetAtFixation,jsons/VE125_randls_34_rotated.json,http://54.235.29.9/FacialAge/BNav_EC2/DepthDuration/v2_depth_duration_MTurk/v2_DepthDuration_HTML.html#256,256,2233,1070,2240,1260,9-3-2022,9-46-17,44,depth_duration_stimuli/001029_2014-06-08_13-17-57_260595134347_rgbf000065-resize_1/001029_2014-06-08_13-17-57_260595134347_rgbf000065-resize_1-target.png,125,3.0835,5.5,8163,123,feet,jsons/VE125_randls_34_rotated.json,833668,1834131,54,Woman
44,449930,DepthScenes,duration_manipulation_targetAtFixation,jsons/VE125_randls_34_rotated.json,http://54.235.29.9/FacialAge/BNav_EC2/DepthDuration/v2_depth_duration_MTurk/v2_DepthDuration_HTML.html#256,256,2233,1070,2240,1260,9-3-2022,9-46-17,45,depth_duration_stimuli/001094_2014-06-15_17-36-00_260595134347_rgbf000205-resize_0/001094_2014-06-15_17-36-00_260595134347_rgbf000205-resize_0-target.png,125,4.2175,6.0,3312,125,feet,jsons/VE125_randls_34_rotated.json,833668,1834131,54,Woman
45,449930,DepthScenes,duration_manipulation_targetAtFixation,jsons/VE125_randls_34_rotated.json,http://54.235.29.9/FacialAge/BNav_EC2/DepthDuration/v2_depth_duration_MTurk/v2_DepthDuration_HTML.html#256,256,2233,1070,2240,1260,9-3-2022,9-46-17,46,depth_duration_stimuli/000692_2014-06-08_13-09-42_260595134347_rgbf000199-resize_2/000692_2014-06-08_13-09-42_260595134347_rgbf000199-resize_2-target.png,125,3.661,10.0,5281,125,feet,jsons/VE125_randls_34_rotated.json,833668,1834131,54,Woman
46,449930,DepthScenes,duration_manipulation_targetAtFixation,jsons/VE125_randls_34_rotated.json,http://54.235.29.9/FacialAge/BNav_EC2/DepthDuration/v2_depth_duration_MTurk/v2_DepthDuration_HTML.html#256,256,2233,1070,2240,1260,9-3-2022,9-46-17,47,depth_duration_stimuli/000665_2014-06-09_20-42-35_260595134347_rgbf000110-resize_1/000665_2014-06-09_20-42-35_260595134347_rgbf000110-resize_1-target.png,125,3.057,5.0,3697,128,feet,jsons/VE125_randls_34_rotated.json,833668,1834131,54,Woman
47,449930,DepthScenes,duration_manipulation_targetAtFixation,jsons/VE125_randls_34_rotated.json,http://54.235.29.9/FacialAge/BNav_EC2/DepthDuration/v2_depth_duration_MTurk/v2_DepthDuration_HTML.html#256,256,2233,1070,2240,1260,9-3-2022,9-46-17,48,depth_duration_stimuli/001150_2014-06-17_15-27-34_260595134347_rgbf000108-resize_2/001150_2014-06-17_15-27-34_260595134347_rgbf000108-resize_2-target.png,125,4.0325,7.0,3129,123,feet,jsons/VE125_randls_34_rotated.json,833668,1834131,54,Woman
48,449930,DepthScenes,duration_manipulation_targetAtFixation,jsons/VE125_randls_34_rotated.json,http://54.235.29.9/FacialAge/BNav_EC2/DepthDuration/v2_depth_duration_MTurk/v2_DepthDuration_HTML.html#256,256,2233,1070,2240,1260,9-3-2022,9-46-17,49,depth_duration_stimuli/001170_2014-06-17_15-43-44_260595134347_rgbf000096-resize_6/001170_2014-06-17_15-43-44_260595134347_rgbf000096-resize-original.jpg,125,1.1909999999999998,0.0,3663,125,feet,jsons/VE125_randls_34_rotated.json,833668,1834131,54,Woman
49,449930,DepthScenes,duration_manipulation_targetAtFixation,jsons/VE125_randls_34_rotated.json,http://54.235.29.9/FacialAge/BNav_EC2/DepthDuration/v2_depth_duration_MTurk/v2_DepthDuration_HTML.html#256,256,2233,1070,2240,1260,9-3-2022,9-46-17,50,depth_duration_stimuli/001136_2014-06-17_15-19-41_260595134347_rgbf000076-resize_3/001136_2014-06-17_15-19-41_260595134347_rgbf000076-resize_3-target.png,125,1.8655,4.0,5777,124,feet,jsons/VE125_randls_34_rotated.json,833668,1834131,54,Woman
50,449930,DepthScenes,duration_manipulation_targetAtFixation,jsons/VE125_randls_34_rotated.json,http://54.235.29.9/FacialAge/BNav_EC2/DepthDuration/v2_depth_duration_MTurk/v2_DepthDuration_HTML.html#256,256,2233,1070,2240,1260,9-3-2022,9-46-17,51,depth_duration_stimuli/001164_2014-06-17_15-35-46_260595134347_rgbf000085-resize_3/001164_2014-06-17_15-35-46_260595134347_rgbf000085-resize_3-target.png,125,2.354,3.5,5279,128,feet,jsons/VE125_randls_34_rotated.json,833668,1834131,54,Woman
51,449930,DepthScenes,duration_manipulation_targetAtFixation,jsons/VE125_randls_34_rotated.json,http://54.235.29.9/FacialAge/BNav_EC2/DepthDuration/v2_depth_duration_MTurk/v2_DepthDuration_HTML.html#256,256,2233,1070,2240,1260,9-3-2022,9-46-17,52,depth_duration_stimuli/002136_2014-06-25_21-18-03_260595134347_rgbf000109-resize_3/002136_2014-06-25_21-18-03_260595134347_rgbf000109-resize_3-target.png,125,1.9569999999999999,3.0,12362,123,feet,jsons/VE125_randls_34_rotated.json,833668,1834131,54,Woman
52,449930,DepthScenes,duration_manipulation_targetAtFixation,jsons/VE125_randls_34_rotated.json,http://54.235.29.9/FacialAge/BNav_EC2/DepthDuration/v2_depth_duration_MTurk/v2_DepthDuration_HTML.html#256,256,2233,1070,2240,1260,9-3-2022,9-46-17,53,depth_duration_stimuli/002964_2014-06-08_17-46-11_094959634447_rgbf000091-resize_4/002964_2014-06-08_17-46-11_094959634447_rgbf000091-resize_4-target.png,125,1.6909999999999998,2.0,2959,120,feet,jsons/VE125_randls_34_rotated.json,833668,1834131,54,Woman
53,449930,DepthScenes,duration_manipulation_targetAtFixation,jsons/VE125_randls_34_rotated.json,http://54.235.29.9/FacialAge/BNav_EC2/DepthDuration/v2_depth_duration_MTurk/v2_DepthDuration_HTML.html#256,256,2233,1070,2240,1260,9-3-2022,9-46-17,54,depth_duration_stimuli/000137_2014-05-20_17-04-49_260595134347_rgbf000120-resize_1/000137_2014-05-20_17-04-49_260595134347_rgbf000120-resize_1-target.png,125,3.786,6.0,6859,123,feet,jsons/VE125_randls_34_rotated.json,833668,1834131,54,Woman
54,449930,DepthScenes,duration_manipulation_targetAtFixation,jsons/VE125_randls_34_rotated.json,http://54.235.29.9/FacialAge/BNav_EC2/DepthDuration/v2_depth_duration_MTurk/v2_DepthDuration_HTML.html#256,256,2233,1070,2240,1260,9-3-2022,9-46-17,55,depth_duration_stimuli/000736_2014-06-08_18-24-15_260595134347_rgbf000206-resize_3/000736_2014-06-08_18-24-15_260595134347_rgbf000206-resize_3-target.png,125,3.515,5.0,2779,122,feet,jsons/VE125_randls_34_rotated.json,833668,1834131,54,Woman
55,449930,DepthScenes,duration_manipulation_targetAtFixation,jsons/VE125_randls_34_rotated.json,http://54.235.29.9/FacialAge/BNav_EC2/DepthDuration/v2_depth_duration_MTurk/v2_DepthDuration_HTML.html#256,256,2233,1070,2240,1260,9-3-2022,9-46-17,56,depth_duration_stimuli/002750_2014-06-22_19-08-03_094959634447_rgbf000094-resize_4/002750_2014-06-22_19-08-03_094959634447_rgbf000094-resize_4-target.png,125,2.354,6.0,3332,129,feet,jsons/VE125_randls_34_rotated.json,833668,1834131,54,Woman
56,449930,DepthScenes,duration_manipulation_targetAtFixation,jsons/VE125_randls_34_rotated.json,http://54.235.29.9/FacialAge/BNav_EC2/DepthDuration/v2_depth_duration_MTurk/v2_DepthDuration_HTML.html#256,256,2233,1070,2240,1260,9-3-2022,9-46-17,57,depth_duration_stimuli/002549_2014-06-24_13-41-39_094959634447_rgbf000022-resize_3/002549_2014-06-24_13-41-39_094959634447_rgbf000022-resize_3-target.png,125,1.476,3.0,2944,124,feet,jsons/VE125_randls_34_rotated.json,833668,1834131,54,Woman
57,449930,DepthScenes,duration_manipulation_targetAtFixation,jsons/VE125_randls_34_rotated.json,http://54.235.29.9/FacialAge/BNav_EC2/DepthDuration/v2_depth_duration_MTurk/v2_DepthDuration_HTML.html#256,256,2233,1070,2240,1260,9-3-2022,9-46-17,58,depth_duration_stimuli/000927_2014-06-09_16-32-30_260595134347_rgbf000123-resize_3/000927_2014-06-09_16-32-30_260595134347_rgbf000123-resize_3-target.png,125,2.6785,4.5,6530,126,feet,jsons/VE125_randls_34_rotated.json,833668,1834131,54,Woman
58,449930,DepthScenes,duration_manipulation_targetAtFixation,jsons/VE125_randls_34_rotated.json,http://54.235.29.9/FacialAge/BNav_EC2/DepthDuration/v2_depth_duration_MTurk/v2_DepthDuration_HTML.html#256,256,2233,1070,2240,1260,9-3-2022,9-46-17,59,depth_duration_stimuli/001110_2014-06-15_17-25-28_260595134347_rgbf000150-resize_1/001110_2014-06-15_17-25-28_260595134347_rgbf000150-resize_1-target.png,125,1.7115,3.5,3612,126,feet,jsons/VE125_randls_34_rotated.json,833668,1834131,54,Woman
59,449930,DepthScenes,duration_manipulation_targetAtFixation,jsons/VE125_randls_34_rotated.json,http://54.235.29.9/FacialAge/BNav_EC2/DepthDuration/v2_depth_duration_MTurk/v2_DepthDuration_HTML.html#256,256,2233,1070,2240,1260,9-3-2022,9-46-17,60,depth_duration_stimuli/003010_2014-06-15_12-54-35_094959634447_rgbf000112-resize_0/003010_2014-06-15_12-54-35_094959634447_rgbf000112-resize_0-target.png,125,3.1185,11.0,4113,122,feet,jsons/VE125_randls_34_rotated.json,833668,1834131,54,Woman
60,449930,DepthScenes,duration_manipulation_targetAtFixation,jsons/VE125_randls_34_rotated.json,http://54.235.29.9/FacialAge/BNav_EC2/DepthDuration/v2_depth_duration_MTurk/v2_DepthDuration_HTML.html#256,256,2233,1070,2240,1260,9-3-2022,9-46-17,61,depth_duration_stimuli/001810_2014-06-26_20-51-35_260595134347_rgbf000040-resize_3/001810_2014-06-26_20-51-35_260595134347_rgbf000040-resize_3-target.png,125,2.2525,4.0,6716,128,feet,jsons/VE125_randls_34_rotated.json,833668,1834131,54,Woman
61,449930,DepthScenes,duration_manipulation_targetAtFixation,jsons/VE125_randls_34_rotated.json,http://54.235.29.9/FacialAge/BNav_EC2/DepthDuration/v2_depth_duration_MTurk/v2_DepthDuration_HTML.html#256,256,2233,1070,2240,1260,9-3-2022,9-46-17,62,depth_duration_stimuli/002995_2014-06-15_12-31-26_094959634447_rgbf000150-resize_1/002995_2014-06-15_12-31-26_094959634447_rgbf000150-resize_1-target.png,125,3.8360000000000003,9.0,3410,121,feet,jsons/VE125_randls_34_rotated.json,833668,1834131,54,Woman
62,449930,DepthScenes,duration_manipulation_targetAtFixation,jsons/VE125_randls_34_rotated.json,http://54.235.29.9/FacialAge/BNav_EC2/DepthDuration/v2_depth_duration_MTurk/v2_DepthDuration_HTML.html#256,256,2233,1070,2240,1260,9-3-2022,9-46-17,63,depth_duration_stimuli/002748_2014-06-22_19-07-22_094959634447_rgbf000078-resize_1/002748_2014-06-22_19-07-22_094959634447_rgbf000078-resize_1-target.png,125,4.6705,15.0,3846,119,feet,jsons/VE125_randls_34_rotated.json,833668,1834131,54,Woman
63,449930,DepthScenes,duration_manipulation_targetAtFixation,jsons/VE125_randls_34_rotated.json,http://54.235.29.9/FacialAge/BNav_EC2/DepthDuration/v2_depth_duration_MTurk/v2_DepthDuration_HTML.html#256,256,2233,1070,2240,1260,9-3-2022,9-46-17,64,depth_duration_stimuli/002103_2014-06-25_20-00-40_260595134347_rgbf000049-resize_0/002103_2014-06-25_20-00-40_260595134347_rgbf000049-resize_0-target.png,125,4.105,6.0,3462,125,feet,jsons/VE125_randls_34_rotated.json,833668,1834131,54,Woman
64,449930,DepthScenes,duration_manipulation_targetAtFixation,jsons/VE125_randls_34_rotated.json,http://54.235.29.9/FacialAge/BNav_EC2/DepthDuration/v2_depth_duration_MTurk/v2_DepthDuration_HTML.html#256,256,2233,1070,2240,1260,9-3-2022,9-46-17,65,depth_duration_stimuli/002039_2014-06-24_20-22-38_260595134347_rgbf000084-resize_1/002039_2014-06-24_20-22-38_260595134347_rgbf000084-resize_1-target.png,125,4.408,8.0,6361,124,feet,jsons/VE125_randls_34_rotated.json,833668,1834131,54,Woman
65,449930,DepthScenes,duration_manipulation_targetAtFixation,jsons/VE125_randls_34_rotated.json,http://54.235.29.9/FacialAge/BNav_EC2/DepthDuration/v2_depth_duration_MTurk/v2_DepthDuration_HTML.html#256,256,2233,1070,2240,1260,9-3-2022,9-46-17,66,depth_duration_stimuli/001540_2014-06-20_17-01-05_260595134347_rgbf000086-resize_2/001540_2014-06-20_17-01-05_260595134347_rgbf000086-resize-original.jpg,125,1.459,0.0,4345,122,feet,jsons/VE125_randls_34_rotated.json,833668,1834131,54,Woman
66,449930,DepthScenes,duration_manipulation_targetAtFixation,jsons/VE125_randls_34_rotated.json,http://54.235.29.9/FacialAge/BNav_EC2/DepthDuration/v2_depth_duration_MTurk/v2_DepthDuration_HTML.html#256,256,2233,1070,2240,1260,9-3-2022,9-46-17,67,depth_duration_stimuli/000742_2014-06-08_18-48-09_260595134347_rgbf000164-resize_4/000742_2014-06-08_18-48-09_260595134347_rgbf000164-resize_4-target.png,125,4.632,6.0,2964,129,feet,jsons/VE125_randls_34_rotated.json,833668,1834131,54,Woman
67,449930,DepthScenes,duration_manipulation_targetAtFixation,jsons/VE125_randls_34_rotated.json,http://54.235.29.9/FacialAge/BNav_EC2/DepthDuration/v2_depth_duration_MTurk/v2_DepthDuration_HTML.html#256,256,2233,1070,2240,1260,9-3-2022,9-46-17,68,depth_duration_stimuli/001066_2014-06-08_22-03-20_260595134347_rgbf000066-resize_4/001066_2014-06-08_22-03-20_260595134347_rgbf000066-resize_4-target.png,125,4.2330000000000005,9.0,2995,121,feet,jsons/VE125_randls_34_rotated.json,833668,1834131,54,Woman
68,449930,DepthScenes,duration_manipulation_targetAtFixation,jsons/VE125_randls_34_rotated.json,http://54.235.29.9/FacialAge/BNav_EC2/DepthDuration/v2_depth_duration_MTurk/v2_DepthDuration_HTML.html#256,256,2233,1070,2240,1260,9-3-2022,9-46-17,69,depth_duration_stimuli/002199_2014-06-28_18-33-56_260595134347_rgbf000074-resize_0/002199_2014-06-28_18-33-56_260595134347_rgbf000074-resize_0-target.png,125,1.996,2.0,2660,124,feet,jsons/VE125_randls_34_rotated.json,833668,1834131,54,Woman
69,449930,DepthScenes,duration_manipulation_targetAtFixation,jsons/VE125_randls_34_rotated.json,http://54.235.29.9/FacialAge/BNav_EC2/DepthDuration/v2_depth_duration_MTurk/v2_DepthDuration_HTML.html#256,256,2233,1070,2240,1260,9-3-2022,9-46-17,70,depth_duration_stimuli/001056_2014-06-08_18-46-44_260595134347_rgbf000068-resize_0/001056_2014-06-08_18-46-44_260595134347_rgbf000068-resize_0-target.png,125,2.6625,6.0,5245,122,feet,jsons/VE125_randls_34_rotated.json,833668,1834131,54,Woman
70,449930,DepthScenes,duration_manipulation_targetAtFixation,jsons/VE125_randls_34_rotated.json,http://54.235.29.9/FacialAge/BNav_EC2/DepthDuration/v2_depth_duration_MTurk/v2_DepthDuration_HTML.html#256,256,2233,1070,2240,1260,9-3-2022,9-46-17,71,depth_duration_stimuli/002805_2014-06-22_19-54-03_094959634447_rgbf000079-resize_1/002805_2014-06-22_19-54-03_094959634447_rgbf000079-resize_1-target.png,125,3.1439999999999997,9.0,5098,125,feet,jsons/VE125_randls_34_rotated.json,833668,1834131,54,Woman
71,449930,DepthScenes,duration_manipulation_targetAtFixation,jsons/VE125_randls_34_rotated.json,http://54.235.29.9/FacialAge/BNav_EC2/DepthDuration/v2_depth_duration_MTurk/v2_DepthDuration_HTML.html#256,256,2233,1070,2240,1260,9-3-2022,9-46-17,72,depth_duration_stimuli/000906_2014-06-08_13-35-43_260595134347_rgbf000155-resize_1/000906_2014-06-08_13-35-43_260595134347_rgbf000155-resize_1-target.png,125,2.8489999999999998,8.0,3112,125,feet,jsons/VE125_randls_34_rotated.json,833668,1834131,54,Woman
72,449930,DepthScenes,duration_manipulation_targetAtFixation,jsons/VE125_randls_34_rotated.json,http://54.235.29.9/FacialAge/BNav_EC2/DepthDuration/v2_depth_duration_MTurk/v2_DepthDuration_HTML.html#256,256,2233,1070,2240,1260,9-3-2022,9-46-17,73,depth_duration_stimuli/003338_2014-05-20_11-01-23_094959634447_rgbf000051-resize_6/003338_2014-05-20_11-01-23_094959634447_rgbf000051-resize_6-target.png,125,1.693,4.0,5381,123,feet,jsons/VE125_randls_34_rotated.json,833668,1834131,54,Woman
73,449930,DepthScenes,duration_manipulation_targetAtFixation,jsons/VE125_randls_34_rotated.json,http://54.235.29.9/FacialAge/BNav_EC2/DepthDuration/v2_depth_duration_MTurk/v2_DepthDuration_HTML.html#256,256,2233,1070,2240,1260,9-3-2022,9-46-17,74,depth_duration_stimuli/002509_2014-06-24_13-19-22_094959634447_rgbf000077-resize_0/002509_2014-06-24_13-19-22_094959634447_rgbf000077-resize_0-target.png,125,1.3065,2.5,3412,127,feet,jsons/VE125_randls_34_rotated.json,833668,1834131,54,Woman
74,449930,DepthScenes,duration_manipulation_targetAtFixation,jsons/VE125_randls_34_rotated.json,http://54.235.29.9/FacialAge/BNav_EC2/DepthDuration/v2_depth_duration_MTurk/v2_DepthDuration_HTML.html#256,256,2233,1070,2240,1260,9-3-2022,9-46-17,75,depth_duration_stimuli/003490_2014-05-21_15-50-11_094959634447_rgbf000101-resize_3/003490_2014-05-21_15-50-11_094959634447_rgbf000101-resize_3-target.png,125,3.6445,6.5,5729,122,feet,jsons/VE125_randls_34_rotated.json,833668,1834131,54,Woman
75,449930,DepthScenes,duration_manipulation_targetAtFixation,jsons/VE125_randls_34_rotated.json,http://54.235.29.9/FacialAge/BNav_EC2/DepthDuration/v2_depth_duration_MTurk/v2_DepthDuration_HTML.html#256,256,2233,1070,2240,1260,9-3-2022,9-46-17,76,depth_duration_stimuli/001175_2014-06-17_15-45-55_260595134347_rgbf000129-resize_4/001175_2014-06-17_15-45-55_260595134347_rgbf000129-resize_4-target.png,125,4.255,16.0,8278,121,feet,jsons/VE125_randls_34_rotated.json,833668,1834131,54,Woman
76,449930,DepthScenes,duration_manipulation_targetAtFixation,jsons/VE125_randls_34_rotated.json,http://54.235.29.9/FacialAge/BNav_EC2/DepthDuration/v2_depth_duration_MTurk/v2_DepthDuration_HTML.html#256,256,2233,1070,2240,1260,9-3-2022,9-46-17,77,depth_duration_stimuli/003423_2014-05-21_10-23-26_094959634447_rgbf002665-resize_2/003423_2014-05-21_10-23-26_094959634447_rgbf002665-resize_2-target.png,125,3.2575,10.0,3443,123,feet,jsons/VE125_randls_34_rotated.json,833668,1834131,54,Woman
77,449930,DepthScenes,duration_manipulation_targetAtFixation,jsons/VE125_randls_34_rotated.json,http://54.235.29.9/FacialAge/BNav_EC2/DepthDuration/v2_depth_duration_MTurk/v2_DepthDuration_HTML.html#256,256,2233,1070,2240,1260,9-3-2022,9-46-17,78,depth_duration_stimuli/002905_2014-06-03_18-04-43_094959634447_rgbf000151-resize_2/002905_2014-06-03_18-04-43_094959634447_rgbf000151-resize_2-target.png,125,2.0295,7.0,4812,123,feet,jsons/VE125_randls_34_rotated.json,833668,1834131,54,Woman
78,449930,DepthScenes,duration_manipulation_targetAtFixation,jsons/VE125_randls_34_rotated.json,http://54.235.29.9/FacialAge/BNav_EC2/DepthDuration/v2_depth_duration_MTurk/v2_DepthDuration_HTML.html#256,256,2233,1070,2240,1260,9-3-2022,9-46-17,79,depth_duration_stimuli/000635_2014-06-08_16-38-42_260595134347_rgbf000106-resize_1/000635_2014-06-08_16-38-42_260595134347_rgbf000106-resize_1-target.png,125,2.074,6.0,3394,123,feet,jsons/VE125_randls_34_rotated.json,833668,1834131,54,Woman
79,449930,DepthScenes,duration_manipulation_targetAtFixation,jsons/VE125_randls_34_rotated.json,http://54.235.29.9/FacialAge/BNav_EC2/DepthDuration/v2_depth_duration_MTurk/v2_DepthDuration_HTML.html#256,256,2233,1070,2240,1260,9-3-2022,9-46-17,80,depth_duration_stimuli/002279_2014-06-28_18-55-32_260595134347_rgbf000040-resize_5/002279_2014-06-28_18-55-32_260595134347_rgbf000040-resize_5-target.png,125,1.5043333333333,4.0,2694,124,feet,jsons/VE125_randls_34_rotated.json,833668,1834131,54,Woman
80,449930,DepthScenes,duration_manipulation_targetAtFixation,jsons/VE125_randls_34_rotated.json,http://54.235.29.9/FacialAge/BNav_EC2/DepthDuration/v2_depth_duration_MTurk/v2_DepthDuration_HTML.html#256,256,2233,1070,2240,1260,9-3-2022,9-46-17,81,depth_duration_stimuli/001828_2014-06-26_21-40-03_260595134347_rgbf000024-resize_0/001828_2014-06-26_21-40-03_260595134347_rgbf000024-resize_0-target.png,125,4.8260000000000005,7.0,3759,123,feet,jsons/VE125_randls_34_rotated.json,833668,1834131,54,Woman
81,449930,DepthScenes,duration_manipulation_targetAtFixation,jsons/VE125_randls_34_rotated.json,http://54.235.29.9/FacialAge/BNav_EC2/DepthDuration/v2_depth_duration_MTurk/v2_DepthDuration_HTML.html#256,256,2233,1070,2240,1260,9-3-2022,9-46-17,82,depth_duration_stimuli/000009_2014-05-26_14-32-05_260595134347_rgbf000034-resize_3/000009_2014-05-26_14-32-05_260595134347_rgbf000034-resize_3-target.png,125,3.8715,13.0,8447,124,feet,jsons/VE125_randls_34_rotated.json,833668,1834131,54,Woman
82,449930,DepthScenes,duration_manipulation_targetAtFixation,jsons/VE125_randls_34_rotated.json,http://54.235.29.9/FacialAge/BNav_EC2/DepthDuration/v2_depth_duration_MTurk/v2_DepthDuration_HTML.html#256,256,2233,1070,2240,1260,9-3-2022,9-46-17,83,depth_duration_stimuli/001584_2014-06-20_11-07-43_260595134347_rgbf000002-resize_1/001584_2014-06-20_11-07-43_260595134347_rgbf000002-resize_1-target.png,125,3.53,8.0,3045,121,feet,jsons/VE125_randls_34_rotated.json,833668,1834131,54,Woman
83,449930,DepthScenes,duration_manipulation_targetAtFixation,jsons/VE125_randls_34_rotated.json,http://54.235.29.9/FacialAge/BNav_EC2/DepthDuration/v2_depth_duration_MTurk/v2_DepthDuration_HTML.html#256,256,2233,1070,2240,1260,9-3-2022,9-46-17,84,depth_duration_stimuli/003621_2014-05-23_18-06-08_094959634447_rgbf000101-resize_1/003621_2014-05-23_18-06-08_094959634447_rgbf000101-resize_1-target.png,125,3.9835,12.0,3561,122,feet,jsons/VE125_randls_34_rotated.json,833668,1834131,54,Woman
84,449930,DepthScenes,duration_manipulation_targetAtFixation,jsons/VE125_randls_34_rotated.json,http://54.235.29.9/FacialAge/BNav_EC2/DepthDuration/v2_depth_duration_MTurk/v2_DepthDuration_HTML.html#256,256,2233,1070,2240,1260,9-3-2022,9-46-17,85,depth_duration_stimuli/001650_2014-06-20_12-09-00_260595134347_rgbf000087-resize_3/001650_2014-06-20_12-09-00_260595134347_rgbf000087-resize_3-target.png,125,1.9505,2.0,2926,124,feet,jsons/VE125_randls_34_rotated.json,833668,1834131,54,Woman
85,449930,DepthScenes,duration_manipulation_targetAtFixation,jsons/VE125_randls_34_rotated.json,http://54.235.29.9/FacialAge/BNav_EC2/DepthDuration/v2_depth_duration_MTurk/v2_DepthDuration_HTML.html#256,256,2233,1070,2240,1260,9-3-2022,9-46-17,86,depth_duration_stimuli/000682_2014-06-08_23-14-58_260595134347_rgbf000041-resize_5/000682_2014-06-08_23-14-58_260595134347_rgbf000041-resize_5-target.png,125,2.7239999999999998,5.0,3195,123,feet,jsons/VE125_randls_34_rotated.json,833668,1834131,54,Woman
86,449930,DepthScenes,duration_manipulation_targetAtFixation,jsons/VE125_randls_34_rotated.json,http://54.235.29.9/FacialAge/BNav_EC2/DepthDuration/v2_depth_duration_MTurk/v2_DepthDuration_HTML.html#256,256,2233,1070,2240,1260,9-3-2022,9-46-17,87,depth_duration_stimuli/002660_2014-06-13_15-44-18_094959634447_rgbf001878-resize_2/002660_2014-06-13_15-44-18_094959634447_rgbf001878-resize_2-target.png,125,3.576,7.0,3582,124,feet,jsons/VE125_randls_34_rotated.json,833668,1834131,54,Woman
87,449930,DepthScenes,duration_manipulation_targetAtFixation,jsons/VE125_randls_34_rotated.json,http://54.235.29.9/FacialAge/BNav_EC2/DepthDuration/v2_depth_duration_MTurk/v2_DepthDuration_HTML.html#256,256,2233,1070,2240,1260,9-3-2022,9-46-17,88,depth_duration_stimuli/002153_2014-06-25_21-27-18_260595134347_rgbf000038-resize_5/002153_2014-06-25_21-27-18_260595134347_rgbf000038-resize_5-target.png,125,2.505,5.0,4027,123,feet,jsons/VE125_randls_34_rotated.json,833668,1834131,54,Woman
88,449930,DepthScenes,duration_manipulation_targetAtFixation,jsons/VE125_randls_34_rotated.json,http://54.235.29.9/FacialAge/BNav_EC2/DepthDuration/v2_depth_duration_MTurk/v2_DepthDuration_HTML.html#256,256,2233,1070,2240,1260,9-3-2022,9-46-17,89,depth_duration_stimuli/000780_2014-06-08_22-28-29_260595134347_rgbf000126-resize_1/000780_2014-06-08_22-28-29_260595134347_rgbf000126-resize_1-target.png,125,3.3825,7.0,4777,122,feet,jsons/VE125_randls_34_rotated.json,833668,1834131,54,Woman
89,449930,DepthScenes,duration_manipulation_targetAtFixation,jsons/VE125_randls_34_rotated.json,http://54.235.29.9/FacialAge/BNav_EC2/DepthDuration/v2_depth_duration_MTurk/v2_DepthDuration_HTML.html#256,256,2233,1070,2240,1260,9-3-2022,9-46-17,90,depth_duration_stimuli/002445_2014-06-28_20-32-16_260595134347_rgbf000029-resize_4/002445_2014-06-28_20-32-16_260595134347_rgbf000029-resize_4-target.png,125,2.5315,5.0,3011,124,feet,jsons/VE125_randls_34_rotated.json,833668,1834131,54,Woman
90,449930,DepthScenes,duration_manipulation_targetAtFixation,jsons/VE125_randls_34_rotated.json,http://54.235.29.9/FacialAge/BNav_EC2/DepthDuration/v2_depth_duration_MTurk/v2_DepthDuration_HTML.html#256,256,2233,1070,2240,1260,9-3-2022,9-46-17,91,depth_duration_stimuli/002678_2014-06-13_16-15-32_094959634447_rgbf000151-resize_6/002678_2014-06-13_16-15-32_094959634447_rgbf000151-resize_6-target.png,125,2.1830000000000003,9.0,6214,123,feet,jsons/VE125_randls_34_rotated.json,833668,1834131,54,Woman
91,449930,DepthScenes,duration_manipulation_targetAtFixation,jsons/VE125_randls_34_rotated.json,http://54.235.29.9/FacialAge/BNav_EC2/DepthDuration/v2_depth_duration_MTurk/v2_DepthDuration_HTML.html#256,256,2233,1070,2240,1260,9-3-2022,9-46-17,92,depth_duration_stimuli/000368_2014-06-09_15-53-01_260595134347_rgbf000155-resize_2/000368_2014-06-09_15-53-01_260595134347_rgbf000155-resize_2-target.png,125,2.4859999999999998,5.0,3109,121,feet,jsons/VE125_randls_34_rotated.json,833668,1834131,54,Woman
92,449930,DepthScenes,duration_manipulation_targetAtFixation,jsons/VE125_randls_34_rotated.json,http://54.235.29.9/FacialAge/BNav_EC2/DepthDuration/v2_depth_duration_MTurk/v2_DepthDuration_HTML.html#256,256,2233,1070,2240,1260,9-3-2022,9-46-17,93,depth_duration_stimuli/003079_2014-06-15_15-18-20_094959634447_rgbf000152-resize_8/003079_2014-06-15_15-18-20_094959634447_rgbf000152-resize_8-target.png,125,2.8775,10.0,3347,124,feet,jsons/VE125_randls_34_rotated.json,833668,1834131,54,Woman
93,449930,DepthScenes,duration_manipulation_targetAtFixation,jsons/VE125_randls_34_rotated.json,http://54.235.29.9/FacialAge/BNav_EC2/DepthDuration/v2_depth_duration_MTurk/v2_DepthDuration_HTML.html#256,256,2233,1070,2240,1260,9-3-2022,9-46-17,94,depth_duration_stimuli/000506_2014-06-08_23-21-00_260595134347_rgbf000070-resize_7/000506_2014-06-08_23-21-00_260595134347_rgbf000070-resize_7-target.png,125,4.0585,9.0,4360,122,feet,jsons/VE125_randls_34_rotated.json,833668,1834131,54,Woman
94,449930,DepthScenes,duration_manipulation_targetAtFixation,jsons/VE125_randls_34_rotated.json,http://54.235.29.9/FacialAge/BNav_EC2/DepthDuration/v2_depth_duration_MTurk/v2_DepthDuration_HTML.html#256,256,2233,1070,2240,1260,9-3-2022,9-46-17,95,depth_duration_stimuli/000549_2014-06-08_22-10-24_260595134347_rgbf000247-resize_3/000549_2014-06-08_22-10-24_260595134347_rgbf000247-resize_3-target.png,125,1.841,2.0,3763,122,feet,jsons/VE125_randls_34_rotated.json,833668,1834131,54,Woman
95,449930,DepthScenes,duration_manipulation_targetAtFixation,jsons/VE125_randls_34_rotated.json,http://54.235.29.9/FacialAge/BNav_EC2/DepthDuration/v2_depth_duration_MTurk/v2_DepthDuration_HTML.html#256,256,2233,1070,2240,1260,9-3-2022,9-46-17,96,depth_duration_stimuli/001055_2014-06-08_18-45-35_260595134347_rgbf000111-resize_4/001055_2014-06-08_18-45-35_260595134347_rgbf000111-resize_4-target.png,125,2.4290000000000003,8.5,4564,124,feet,jsons/VE125_randls_34_rotated.json,833668,1834131,54,Woman
96,449930,DepthScenes,duration_manipulation_targetAtFixation,jsons/VE125_randls_34_rotated.json,http://54.235.29.9/FacialAge/BNav_EC2/DepthDuration/v2_depth_duration_MTurk/v2_DepthDuration_HTML.html#256,256,2233,1070,2240,1260,9-3-2022,9-46-17,97,depth_duration_stimuli/000749_2014-06-08_21-55-06_260595134347_rgbf000070-resize_2/000749_2014-06-08_21-55-06_260595134347_rgbf000070-resize_2-target.png,125,2.331,6.0,4611,123,feet,jsons/VE125_randls_34_rotated.json,833668,1834131,54,Woman
97,449930,DepthScenes,duration_manipulation_targetAtFixation,jsons/VE125_randls_34_rotated.json,http://54.235.29.9/FacialAge/BNav_EC2/DepthDuration/v2_depth_duration_MTurk/v2_DepthDuration_HTML.html#256,256,2233,1070,2240,1260,9-3-2022,9-46-17,98,depth_duration_stimuli/002788_2014-06-22_19-36-03_094959634447_rgbf000088-resize_2/002788_2014-06-22_19-36-03_094959634447_rgbf000088-resize_2-target.png,125,1.6465,5.0,3015,129,feet,jsons/VE125_randls_34_rotated.json,833668,1834131,54,Woman
98,449930,DepthScenes,duration_manipulation_targetAtFixation,jsons/VE125_randls_34_rotated.json,http://54.235.29.9/FacialAge/BNav_EC2/DepthDuration/v2_depth_duration_MTurk/v2_DepthDuration_HTML.html#256,256,2233,1070,2240,1260,9-3-2022,9-46-17,99,depth_duration_stimuli/001222_2014-06-17_16-24-06_260595134347_rgbf000073-resize_0/001222_2014-06-17_16-24-06_260595134347_rgbf000073-resize-original.jpg,125,1.4385,0.0,3361,125,feet,jsons/VE125_randls_34_rotated.json,833668,1834131,54,Woman
99,449930,DepthScenes,duration_manipulation_targetAtFixation,jsons/VE125_randls_34_rotated.json,http://54.235.29.9/FacialAge/BNav_EC2/DepthDuration/v2_depth_duration_MTurk/v2_DepthDuration_HTML.html#256,256,2233,1070,2240,1260,9-3-2022,9-46-17,100,depth_duration_stimuli/000502_2014-06-08_23-02-32_260595134347_rgbf000063-resize_4/000502_2014-06-08_23-02-32_260595134347_rgbf000063-resize_4-target.png,125,2.431,6.0,3295,124,feet,jsons/VE125_randls_34_rotated.json,833668,1834131,54,Woman
100,449930,DepthScenes,duration_manipulation_targetAtFixation,jsons/VE125_randls_34_rotated.json,http://54.235.29.9/FacialAge/BNav_EC2/DepthDuration/v2_depth_duration_MTurk/v2_DepthDuration_HTML.html#256,256,2233,1070,2240,1260,9-3-2022,9-46-17,101,depth_duration_stimuli/001199_2014-06-17_16-03-48_260595134347_rgbf000077-resize_0/001199_2014-06-17_16-03-48_260595134347_rgbf000077-resize_0-target.png,125,3.4375,7.0,3546,124,feet,jsons/VE125_randls_34_rotated.json,833668,1834131,54,Woman
101,449930,DepthScenes,duration_manipulation_targetAtFixation,jsons/VE125_randls_34_rotated.json,http://54.235.29.9/FacialAge/BNav_EC2/DepthDuration/v2_depth_duration_MTurk/v2_DepthDuration_HTML.html#256,256,2233,1070,2240,1260,9-3-2022,9-46-17,102,depth_duration_stimuli/002545_2014-06-24_13-38-53_094959634447_rgbf000080-resize_4/002545_2014-06-24_13-38-53_094959634447_rgbf000080-resize_4-target.png,125,1.9205,9.0,3711,122,feet,jsons/VE125_randls_34_rotated.json,833668,1834131,54,Woman
102,449930,DepthScenes,duration_manipulation_targetAtFixation,jsons/VE125_randls_34_rotated.json,http://54.235.29.9/FacialAge/BNav_EC2/DepthDuration/v2_depth_duration_MTurk/v2_DepthDuration_HTML.html#256,256,2233,1070,2240,1260,9-3-2022,9-46-17,103,depth_duration_stimuli/001092_2014-06-15_17-34-58_260595134347_rgbf000171-resize_3/001092_2014-06-15_17-34-58_260595134347_rgbf000171-resize_3-target.png,125,2.6935,6.0,3179,120,feet,jsons/VE125_randls_34_rotated.json,833668,1834131,54,Woman
103,449930,DepthScenes,duration_manipulation_targetAtFixation,jsons/VE125_randls_34_rotated.json,http://54.235.29.9/FacialAge/BNav_EC2/DepthDuration/v2_depth_duration_MTurk/v2_DepthDuration_HTML.html#256,256,2233,1070,2240,1260,9-3-2022,9-46-17,104,depth_duration_stimuli/001815_2014-06-26_20-52-55_260595134347_rgbf000020-resize_0/001815_2014-06-26_20-52-55_260595134347_rgbf000020-resize_0-target.png,125,3.3865,11.0,3943,123,feet,jsons/VE125_randls_34_rotated.json,833668,1834131,54,Woman
104,449930,DepthScenes,duration_manipulation_targetAtFixation,jsons/VE125_randls_34_rotated.json,http://54.235.29.9/FacialAge/BNav_EC2/DepthDuration/v2_depth_duration_MTurk/v2_DepthDuration_HTML.html#256,256,2233,1070,2240,1260,9-3-2022,9-46-17,105,depth_duration_stimuli/001808_2014-06-26_20-50-58_260595134347_rgbf000029-resize_1/001808_2014-06-26_20-50-58_260595134347_rgbf000029-resize_1-target.png,125,4.249,10.0,3663,123,feet,jsons/VE125_randls_34_rotated.json,833668,1834131,54,Woman
105,449930,DepthScenes,duration_manipulation_targetAtFixation,jsons/VE125_randls_34_rotated.json,http://54.235.29.9/FacialAge/BNav_EC2/DepthDuration/v2_depth_duration_MTurk/v2_DepthDuration_HTML.html#256,256,2233,1070,2240,1260,9-3-2022,9-46-17,106,depth_duration_stimuli/002340_2014-06-28_20-05-46_260595134347_rgbf000113-resize_0/002340_2014-06-28_20-05-46_260595134347_rgbf000113-resize_0-target.png,125,2.4735,10.0,5544,120,feet,jsons/VE125_randls_34_rotated.json,833668,1834131,54,Woman
106,449930,DepthScenes,duration_manipulation_targetAtFixation,jsons/VE125_randls_34_rotated.json,http://54.235.29.9/FacialAge/BNav_EC2/DepthDuration/v2_depth_duration_MTurk/v2_DepthDuration_HTML.html#256,256,2233,1070,2240,1260,9-3-2022,9-46-17,107,depth_duration_stimuli/001016_2014-06-09_16-16-10_260595134347_rgbf000112-resize_5/001016_2014-06-09_16-16-10_260595134347_rgbf000112-resize_5-target.png,125,1.6565,5.0,3109,123,feet,jsons/VE125_randls_34_rotated.json,833668,1834131,54,Woman
107,449930,DepthScenes,duration_manipulation_targetAtFixation,jsons/VE125_randls_34_rotated.json,http://54.235.29.9/FacialAge/BNav_EC2/DepthDuration/v2_depth_duration_MTurk/v2_DepthDuration_HTML.html#256,256,2233,1070,2240,1260,9-3-2022,9-46-17,108,depth_duration_stimuli/002875_2014-06-01_15-19-00_094959634447_rgbf000151-resize_1/002875_2014-06-01_15-19-00_094959634447_rgbf000151-resize_1-target.png,125,1.9675,4.5,6845,121,feet,jsons/VE125_randls_34_rotated.json,833668,1834131,54,Woman
108,449930,DepthScenes,duration_manipulation_targetAtFixation,jsons/VE125_randls_34_rotated.json,http://54.235.29.9/FacialAge/BNav_EC2/DepthDuration/v2_depth_duration_MTurk/v2_DepthDuration_HTML.html#256,256,2233,1070,2240,1260,9-3-2022,9-46-17,109,depth_duration_stimuli/001011_2014-06-08_23-18-54_260595134347_rgbf000044-resize_4/001011_2014-06-08_23-18-54_260595134347_rgbf000044-resize_4-target.png,125,2.4730000000000003,6.0,5145,125,feet,jsons/VE125_randls_34_rotated.json,833668,1834131,54,Woman
109,449930,DepthScenes,duration_manipulation_targetAtFixation,jsons/VE125_randls_34_rotated.json,http://54.235.29.9/FacialAge/BNav_EC2/DepthDuration/v2_depth_duration_MTurk/v2_DepthDuration_HTML.html#256,256,2233,1070,2240,1260,9-3-2022,9-46-17,110,depth_duration_stimuli/002568_2014-06-24_13-59-21_094959634447_rgbf000062-resize_4/002568_2014-06-24_13-59-21_094959634447_rgbf000062-resize_4-target.png,125,3.015,8.0,3631,126,feet,jsons/VE125_randls_34_rotated.json,833668,1834131,54,Woman
110,449930,DepthScenes,duration_manipulation_targetAtFixation,jsons/VE125_randls_34_rotated.json,http://54.235.29.9/FacialAge/BNav_EC2/DepthDuration/v2_depth_duration_MTurk/v2_DepthDuration_HTML.html#256,256,2233,1070,2240,1260,9-3-2022,9-46-17,111,depth_duration_stimuli/003492_2014-05-21_15-50-55_094959634447_rgbf000828-resize_1/003492_2014-05-21_15-50-55_094959634447_rgbf000828-resize_1-target.png,125,4.06875,9.5,5645,122,feet,jsons/VE125_randls_34_rotated.json,833668,1834131,54,Woman
111,449930,DepthScenes,duration_manipulation_targetAtFixation,jsons/VE125_randls_34_rotated.json,http://54.235.29.9/FacialAge/BNav_EC2/DepthDuration/v2_depth_duration_MTurk/v2_DepthDuration_HTML.html#256,256,2233,1070,2240,1260,9-3-2022,9-46-17,112,depth_duration_stimuli/002323_2014-06-28_20-01-54_260595134347_rgbf000051-resize_4/002323_2014-06-28_20-01-54_260595134347_rgbf000051-resize_4-target.png,125,3.7310000000000003,11.0,3214,125,feet,jsons/VE125_randls_34_rotated.json,833668,1834131,54,Woman
112,449930,DepthScenes,duration_manipulation_targetAtFixation,jsons/VE125_randls_34_rotated.json,http://54.235.29.9/FacialAge/BNav_EC2/DepthDuration/v2_depth_duration_MTurk/v2_DepthDuration_HTML.html#256,256,2233,1070,2240,1260,9-3-2022,9-46-17,113,depth_duration_stimuli/000917_2014-06-09_22-45-29_260595134347_rgbf000149-resize_3/000917_2014-06-09_22-45-29_260595134347_rgbf000149-resize_3-target.png,125,4.1865,10.0,2978,123,feet,jsons/VE125_randls_34_rotated.json,833668,1834131,54,Woman
113,449930,DepthScenes,duration_manipulation_targetAtFixation,jsons/VE125_randls_34_rotated.json,http://54.235.29.9/FacialAge/BNav_EC2/DepthDuration/v2_depth_duration_MTurk/v2_DepthDuration_HTML.html#256,256,2233,1070,2240,1260,9-3-2022,9-46-17,114,depth_duration_stimuli/002467_2014-06-28_20-38-07_260595134347_rgbf000026-resize_2/002467_2014-06-28_20-38-07_260595134347_rgbf000026-resize_2-target.png,125,4.742,9.0,3060,123,feet,jsons/VE125_randls_34_rotated.json,833668,1834131,54,Woman
114,449930,DepthScenes,duration_manipulation_targetAtFixation,jsons/VE125_randls_34_rotated.json,http://54.235.29.9/FacialAge/BNav_EC2/DepthDuration/v2_depth_duration_MTurk/v2_DepthDuration_HTML.html#256,256,2233,1070,2240,1260,9-3-2022,9-46-17,115,depth_duration_stimuli/002570_2014-06-24_13-59-54_094959634447_rgbf000059-resize_0/002570_2014-06-24_13-59-54_094959634447_rgbf000059-resize_0-target.png,125,4.037,9.5,4778,120,feet,jsons/VE125_randls_34_rotated.json,833668,1834131,54,Woman
115,449930,DepthScenes,duration_manipulation_targetAtFixation,jsons/VE125_randls_34_rotated.json,http://54.235.29.9/FacialAge/BNav_EC2/DepthDuration/v2_depth_duration_MTurk/v2_DepthDuration_HTML.html#256,256,2233,1070,2240,1260,9-3-2022,9-46-17,116,depth_duration_stimuli/002639_2014-06-24_14-51-37_094959634447_rgbf000074-resize_4/002639_2014-06-24_14-51-37_094959634447_rgbf000074-resize_4-target.png,125,4.0375,10.0,5249,129,feet,jsons/VE125_randls_34_rotated.json,833668,1834131,54,Woman
116,449930,DepthScenes,duration_manipulation_targetAtFixation,jsons/VE125_randls_34_rotated.json,http://54.235.29.9/FacialAge/BNav_EC2/DepthDuration/v2_depth_duration_MTurk/v2_DepthDuration_HTML.html#256,256,2233,1070,2240,1260,9-3-2022,9-46-17,117,depth_duration_stimuli/003292_2014-05-14_21-53-49_094959634447_rgbf000100-resize_2/003292_2014-05-14_21-53-49_094959634447_rgbf000100-resize_2-target.png,125,3.4815,8.0,2964,126,feet,jsons/VE125_randls_34_rotated.json,833668,1834131,54,Woman
117,449930,DepthScenes,duration_manipulation_targetAtFixation,jsons/VE125_randls_34_rotated.json,http://54.235.29.9/FacialAge/BNav_EC2/DepthDuration/v2_depth_duration_MTurk/v2_DepthDuration_HTML.html#256,256,2233,1070,2240,1260,9-3-2022,9-46-17,118,depth_duration_stimuli/000943_2014-06-09_19-31-07_260595134347_rgbf000128-resize_1/000943_2014-06-09_19-31-07_260595134347_rgbf000128-resize_1-target.png,125,1.9765,4.0,6060,123,feet,jsons/VE125_randls_34_rotated.json,833668,1834131,54,Woman
118,449930,DepthScenes,duration_manipulation_targetAtFixation,jsons/VE125_randls_34_rotated.json,http://54.235.29.9/FacialAge/BNav_EC2/DepthDuration/v2_depth_duration_MTurk/v2_DepthDuration_HTML.html#256,256,2233,1070,2240,1260,9-3-2022,9-46-17,119,depth_duration_stimuli/003070_2014-06-15_14-58-27_094959634447_rgbf000150-resize_3/003070_2014-06-15_14-58-27_094959634447_rgbf000150-resize_3-target.png,125,2.9415,4.5,8133,129,feet,jsons/VE125_randls_34_rotated.json,833668,1834131,54,Woman
119,449930,DepthScenes,duration_manipulation_targetAtFixation,jsons/VE125_randls_34_rotated.json,http://54.235.29.9/FacialAge/BNav_EC2/DepthDuration/v2_depth_duration_MTurk/v2_DepthDuration_HTML.html#256,256,2233,1070,2240,1260,9-3-2022,9-46-17,120,depth_duration_stimuli/000787_2014-06-08_22-33-53_260595134347_rgbf000175-resize_1/000787_2014-06-08_22-33-53_260595134347_rgbf000175-resize-original.jpg,125,4.784,0.0,3413,127,feet,jsons/VE125_randls_34_rotated.json,833668,1834131,54,Woman
120,449930,DepthScenes,duration_manipulation_targetAtFixation,jsons/VE125_randls_34_rotated.json,http://54.235.29.9/FacialAge/BNav_EC2/DepthDuration/v2_depth_duration_MTurk/v2_DepthDuration_HTML.html#256,256,2233,1070,2240,1260,9-3-2022,9-46-17,121,depth_duration_stimuli/000866_2014-06-09_20-45-42_260595134347_rgbf000139-resize_1/000866_2014-06-09_20-45-42_260595134347_rgbf000139-resize_1-target.png,125,3.2155,4.0,3879,123,feet,jsons/VE125_randls_34_rotated.json,833668,1834131,54,Woman
121,449930,DepthScenes,duration_manipulation_targetAtFixation,jsons/VE125_randls_34_rotated.json,http://54.235.29.9/FacialAge/BNav_EC2/DepthDuration/v2_depth_duration_MTurk/v2_DepthDuration_HTML.html#256,256,2233,1070,2240,1260,9-3-2022,9-46-17,122,depth_duration_stimuli/002989_2014-06-15_12-25-03_094959634447_rgbf000150-resize_3/002989_2014-06-15_12-25-03_094959634447_rgbf000150-resize_3-target.png,125,4.1975,10.5,3714,123,feet,jsons/VE125_randls_34_rotated.json,833668,1834131,54,Woman
122,449930,DepthScenes,duration_manipulation_targetAtFixation,jsons/VE125_randls_34_rotated.json,http://54.235.29.9/FacialAge/BNav_EC2/DepthDuration/v2_depth_duration_MTurk/v2_DepthDuration_HTML.html#256,256,2233,1070,2240,1260,9-3-2022,9-46-17,123,depth_duration_stimuli/001100_2014-06-15_17-46-26_260595134347_rgbf000225-resize_2/001100_2014-06-15_17-46-26_260595134347_rgbf000225-resize_2-target.png,125,2.24,3.5,6175,123,feet,jsons/VE125_randls_34_rotated.json,833668,1834131,54,Woman
123,449930,DepthScenes,duration_manipulation_targetAtFixation,jsons/VE125_randls_34_rotated.json,http://54.235.29.9/FacialAge/BNav_EC2/DepthDuration/v2_depth_duration_MTurk/v2_DepthDuration_HTML.html#256,256,2233,1070,2240,1260,9-3-2022,9-46-17,124,depth_duration_stimuli/002784_2014-06-22_19-26-30_094959634447_rgbf000083-resize_3/002784_2014-06-22_19-26-30_094959634447_rgbf000083-resize_3-target.png,125,1.8046666666667,2.0,5494,123,feet,jsons/VE125_randls_34_rotated.json,833668,1834131,54,Woman
124,449930,DepthScenes,duration_manipulation_targetAtFixation,jsons/VE125_randls_34_rotated.json,http://54.235.29.9/FacialAge/BNav_EC2/DepthDuration/v2_depth_duration_MTurk/v2_DepthDuration_HTML.html#256,256,2233,1070,2240,1260,9-3-2022,9-46-17,125,depth_duration_stimuli/000483_2014-06-09_20-41-45_260595134347_rgbf000116-resize_4/000483_2014-06-09_20-41-45_260595134347_rgbf000116-resize_4-target.png,125,1.337,3.0,8345,123,feet,jsons/VE125_randls_34_rotated.json,833668,1834131,54,Woman
125,449930,DepthScenes,duration_manipulation_targetAtFixation,jsons/VE125_randls_34_rotated.json,http://54.235.29.9/FacialAge/BNav_EC2/DepthDuration/v2_depth_duration_MTurk/v2_DepthDuration_HTML.html#256,256,2233,1070,2240,1260,9-3-2022,9-46-17,126,depth_duration_stimuli/000469_2014-06-09_19-42-10_260595134347_rgbf000081-resize_1/000469_2014-06-09_19-42-10_260595134347_rgbf000081-resize_1-target.png,125,1.652,2.5,3494,121,feet,jsons/VE125_randls_34_rotated.json,833668,1834131,54,Woman
126,449930,DepthScenes,duration_manipulation_targetAtFixation,jsons/VE125_randls_34_rotated.json,http://54.235.29.9/FacialAge/BNav_EC2/DepthDuration/v2_depth_duration_MTurk/v2_DepthDuration_HTML.html#256,256,2233,1070,2240,1260,9-3-2022,9-46-17,127,depth_duration_stimuli/000109_2014-05-14_23-41-52_260595134347_rgbf000035-resize_9/000109_2014-05-14_23-41-52_260595134347_rgbf000035-resize_9-target.png,125,1.3545,2.0,2726,122,feet,jsons/VE125_randls_34_rotated.json,833668,1834131,54,Woman
127,449930,DepthScenes,duration_manipulation_targetAtFixation,jsons/VE125_randls_34_rotated.json,http://54.235.29.9/FacialAge/BNav_EC2/DepthDuration/v2_depth_duration_MTurk/v2_DepthDuration_HTML.html#256,256,2233,1070,2240,1260,9-3-2022,9-46-17,128,depth_duration_stimuli/000470_2014-06-09_19-42-40_260595134347_rgbf000094-resize_1/000470_2014-06-09_19-42-40_260595134347_rgbf000094-resize_1-target.png,125,1.831,3.0,3195,123,feet,jsons/VE125_randls_34_rotated.json,833668,1834131,54,Woman
128,449930,DepthScenes,duration_manipulation_targetAtFixation,jsons/VE125_randls_34_rotated.json,http://54.235.29.9/FacialAge/BNav_EC2/DepthDuration/v2_depth_duration_MTurk/v2_DepthDuration_HTML.html#256,256,2233,1070,2240,1260,9-3-2022,9-46-17,129,depth_duration_stimuli/001132_2014-06-17_14-48-54_260595134347_rgbf000100-resize_2/001132_2014-06-17_14-48-54_260595134347_rgbf000100-resize_2-target.png,125,3.753,5.5,4249,126,feet,jsons/VE125_randls_34_rotated.json,833668,1834131,54,Woman
129,449930,DepthScenes,duration_manipulation_targetAtFixation,jsons/VE125_randls_34_rotated.json,http://54.235.29.9/FacialAge/BNav_EC2/DepthDuration/v2_depth_duration_MTurk/v2_DepthDuration_HTML.html#256,256,2233,1070,2240,1260,9-3-2022,9-46-17,130,depth_duration_stimuli/001133_2014-06-17_14-49-16_260595134347_rgbf000100-resize_0/001133_2014-06-17_14-49-16_260595134347_rgbf000100-resize_0-target.png,125,4.2115,7.5,5094,123,feet,jsons/VE125_randls_34_rotated.json,833668,1834131,54,Woman
130,449930,DepthScenes,duration_manipulation_targetAtFixation,jsons/VE125_randls_34_rotated.json,http://54.235.29.9/FacialAge/BNav_EC2/DepthDuration/v2_depth_duration_MTurk/v2_DepthDuration_HTML.html#256,256,2233,1070,2240,1260,9-3-2022,9-46-17,131,depth_duration_stimuli/001450_2014-06-19_17-02-03_260595134347_rgbf000203-resize_4/001450_2014-06-19_17-02-03_260595134347_rgbf000203-resize_4-target.png,125,4.0106666666667,9.0,4150,129,feet,jsons/VE125_randls_34_rotated.json,833668,1834131,54,Woman
131,449930,DepthScenes,duration_manipulation_targetAtFixation,jsons/VE125_randls_34_rotated.json,http://54.235.29.9/FacialAge/BNav_EC2/DepthDuration/v2_depth_duration_MTurk/v2_DepthDuration_HTML.html#256,256,2233,1070,2240,1260,9-3-2022,9-46-17,132,depth_duration_stimuli/001449_2014-06-19_17-01-27_260595134347_rgbf000116-resize_2/001449_2014-06-19_17-01-27_260595134347_rgbf000116-resize_2-target.png,125,3.452,7.0,2847,124,feet,jsons/VE125_randls_34_rotated.json,833668,1834131,54,Woman
132,449930,DepthScenes,duration_manipulation_targetAtFixation,jsons/VE125_randls_34_rotated.json,http://54.235.29.9/FacialAge/BNav_EC2/DepthDuration/v2_depth_duration_MTurk/v2_DepthDuration_HTML.html#256,256,2233,1070,2240,1260,9-3-2022,9-46-17,133,depth_duration_stimuli/003129_2014-05-12_10-48-10_094959634447_rgbf000100-resize_0/003129_2014-05-12_10-48-10_094959634447_rgbf000100-resize_0-target.png,125,4.9305,11.0,2913,122,feet,jsons/VE125_randls_34_rotated.json,833668,1834131,54,Woman
133,449930,DepthScenes,duration_manipulation_targetAtFixation,jsons/VE125_randls_34_rotated.json,http://54.235.29.9/FacialAge/BNav_EC2/DepthDuration/v2_depth_duration_MTurk/v2_DepthDuration_HTML.html#256,256,2233,1070,2240,1260,9-3-2022,9-46-17,134,depth_duration_stimuli/000414_2014-06-04_19-49-13_260595134347_rgbf000044-resize_0/000414_2014-06-04_19-49-13_260595134347_rgbf000044-resize_0-target.png,125,4.329,10.5,5996,123,feet,jsons/VE125_randls_34_rotated.json,833668,1834131,54,Woman
134,449930,DepthScenes,duration_manipulation_targetAtFixation,jsons/VE125_randls_34_rotated.json,http://54.235.29.9/FacialAge/BNav_EC2/DepthDuration/v2_depth_duration_MTurk/v2_DepthDuration_HTML.html#256,256,2233,1070,2240,1260,9-3-2022,9-46-17,135,depth_duration_stimuli/000375_2014-06-08_11-17-29_260595134347_rgbf000133-resize_2/000375_2014-06-08_11-17-29_260595134347_rgbf000133-resize-original.jpg,125,4.718,0.0,5581,128,feet,jsons/VE125_randls_34_rotated.json,833668,1834131,54,Woman
135,449930,DepthScenes,duration_manipulation_targetAtFixation,jsons/VE125_randls_34_rotated.json,http://54.235.29.9/FacialAge/BNav_EC2/DepthDuration/v2_depth_duration_MTurk/v2_DepthDuration_HTML.html#256,256,2233,1070,2240,1260,9-3-2022,9-46-17,136,depth_duration_stimuli/003587_2014-05-23_16-48-02_094959634447_rgbf002384-resize_2/003587_2014-05-23_16-48-02_094959634447_rgbf002384-resize_2-target.png,125,1.357,2.5,5244,123,feet,jsons/VE125_randls_34_rotated.json,833668,1834131,54,Woman
136,449930,DepthScenes,duration_manipulation_targetAtFixation,jsons/VE125_randls_34_rotated.json,http://54.235.29.9/FacialAge/BNav_EC2/DepthDuration/v2_depth_duration_MTurk/v2_DepthDuration_HTML.html#256,256,2233,1070,2240,1260,9-3-2022,9-46-17,137,depth_duration_stimuli/001167_2014-06-17_15-38-07_260595134347_rgbf000108-resize_0/001167_2014-06-17_15-38-07_260595134347_rgbf000108-resize_0-target.png,125,1.8505,3.5,3296,123,feet,jsons/VE125_randls_34_rotated.json,833668,1834131,54,Woman
137,449930,DepthScenes,duration_manipulation_targetAtFixation,jsons/VE125_randls_34_rotated.json,http://54.235.29.9/FacialAge/BNav_EC2/DepthDuration/v2_depth_duration_MTurk/v2_DepthDuration_HTML.html#256,256,2233,1070,2240,1260,9-3-2022,9-46-17,138,depth_duration_stimuli/000709_2014-06-08_13-51-55_260595134347_rgbf000068-resize_3/000709_2014-06-08_13-51-55_260595134347_rgbf000068-resize_3-target.png,125,1.8030000000000002,4.0,3215,125,feet,jsons/VE125_randls_34_rotated.json,833668,1834131,54,Woman
138,449930,DepthScenes,duration_manipulation_targetAtFixation,jsons/VE125_randls_34_rotated.json,http://54.235.29.9/FacialAge/BNav_EC2/DepthDuration/v2_depth_duration_MTurk/v2_DepthDuration_HTML.html#256,256,2233,1070,2240,1260,9-3-2022,9-46-17,139,depth_duration_stimuli/002057_2014-06-24_21-00-13_260595134347_rgbf000120-resize_1/002057_2014-06-24_21-00-13_260595134347_rgbf000120-resize_1-target.png,125,2.967,10.0,4731,128,feet,jsons/VE125_randls_34_rotated.json,833668,1834131,54,Woman
139,449930,DepthScenes,duration_manipulation_targetAtFixation,jsons/VE125_randls_34_rotated.json,http://54.235.29.9/FacialAge/BNav_EC2/DepthDuration/v2_depth_duration_MTurk/v2_DepthDuration_HTML.html#256,256,2233,1070,2240,1260,9-3-2022,9-46-17,140,depth_duration_stimuli/002657_2014-06-13_15-29-54_094959634447_rgbf000150-resize_1/002657_2014-06-13_15-29-54_094959634447_rgbf000150-resize_1-target.png,125,4.919,8.0,2895,121,feet,jsons/VE125_randls_34_rotated.json,833668,1834131,54,Woman
140,449930,DepthScenes,duration_manipulation_targetAtFixation,jsons/VE125_randls_34_rotated.json,http://54.235.29.9/FacialAge/BNav_EC2/DepthDuration/v2_depth_duration_MTurk/v2_DepthDuration_HTML.html#256,256,2233,1070,2240,1260,9-3-2022,9-46-17,141,depth_duration_stimuli/002375_2014-06-28_20-13-44_260595134347_rgbf000032-resize_1/002375_2014-06-28_20-13-44_260595134347_rgbf000032-resize_1-target.png,125,4.0175,9.5,7166,124,feet,jsons/VE125_randls_34_rotated.json,833668,1834131,54,Woman
141,449930,DepthScenes,duration_manipulation_targetAtFixation,jsons/VE125_randls_34_rotated.json,http://54.235.29.9/FacialAge/BNav_EC2/DepthDuration/v2_depth_duration_MTurk/v2_DepthDuration_HTML.html#256,256,2233,1070,2240,1260,9-3-2022,9-46-17,142,depth_duration_stimuli/002414_2014-06-28_20-24-58_260595134347_rgbf000067-resize_4/002414_2014-06-28_20-24-58_260595134347_rgbf000067-resize_4-target.png,125,4.363,8.0,2993,124,feet,jsons/VE125_randls_34_rotated.json,833668,1834131,54,Woman
142,449930,DepthScenes,duration_manipulation_targetAtFixation,jsons/VE125_randls_34_rotated.json,http://54.235.29.9/FacialAge/BNav_EC2/DepthDuration/v2_depth_duration_MTurk/v2_DepthDuration_HTML.html#256,256,2233,1070,2240,1260,9-3-2022,9-46-17,143,depth_duration_stimuli/000773_2014-06-08_22-24-54_260595134347_rgbf000093-resize_1/000773_2014-06-08_22-24-54_260595134347_rgbf000093-resize_1-target.png,125,4.973,10.0,3814,123,feet,jsons/VE125_randls_34_rotated.json,833668,1834131,54,Woman
143,449930,DepthScenes,duration_manipulation_targetAtFixation,jsons/VE125_randls_34_rotated.json,http://54.235.29.9/FacialAge/BNav_EC2/DepthDuration/v2_depth_duration_MTurk/v2_DepthDuration_HTML.html#256,256,2233,1070,2240,1260,9-3-2022,9-46-17,144,depth_duration_stimuli/001516_2014-06-20_16-25-09_260595134347_rgbf000076-resize_2/001516_2014-06-20_16-25-09_260595134347_rgbf000076-resize_2-target.png,125,1.7445,5.0,3011,124,feet,jsons/VE125_randls_34_rotated.json,833668,1834131,54,Woman
144,449930,DepthScenes,duration_manipulation_targetAtFixation,jsons/VE125_randls_34_rotated.json,http://54.235.29.9/FacialAge/BNav_EC2/DepthDuration/v2_depth_duration_MTurk/v2_DepthDuration_HTML.html#256,256,2233,1070,2240,1260,9-3-2022,9-46-17,145,depth_duration_stimuli/002118_2014-06-25_20-32-08_260595134347_rgbf000078-resize_1/002118_2014-06-25_20-32-08_260595134347_rgbf000078-resize_1-target.png,125,2.6460000000000004,6.5,4611,122,feet,jsons/VE125_randls_34_rotated.json,833668,1834131,54,Woman
145,449930,DepthScenes,duration_manipulation_targetAtFixation,jsons/VE125_randls_34_rotated.json,http://54.235.29.9/FacialAge/BNav_EC2/DepthDuration/v2_depth_duration_MTurk/v2_DepthDuration_HTML.html#256,256,2233,1070,2240,1260,9-3-2022,9-46-17,146,depth_duration_stimuli/000556_2014-06-09_22-42-56_260595134347_rgbf000214-resize_1/000556_2014-06-09_22-42-56_260595134347_rgbf000214-resize_1-target.png,125,4.8415,11.0,4780,123,feet,jsons/VE125_randls_34_rotated.json,833668,1834131,54,Woman
146,449930,DepthScenes,duration_manipulation_targetAtFixation,jsons/VE125_randls_34_rotated.json,http://54.235.29.9/FacialAge/BNav_EC2/DepthDuration/v2_depth_duration_MTurk/v2_DepthDuration_HTML.html#256,256,2233,1070,2240,1260,9-3-2022,9-46-17,147,depth_duration_stimuli/001158_2014-06-17_15-32-16_260595134347_rgbf000138-resize_2/001158_2014-06-17_15-32-16_260595134347_rgbf000138-resize_2-target.png,125,4.5315,10.0,3048,130,feet,jsons/VE125_randls_34_rotated.json,833668,1834131,54,Woman
147,449930,DepthScenes,duration_manipulation_targetAtFixation,jsons/VE125_randls_34_rotated.json,http://54.235.29.9/FacialAge/BNav_EC2/DepthDuration/v2_depth_duration_MTurk/v2_DepthDuration_HTML.html#256,256,2233,1070,2240,1260,9-3-2022,9-46-17,148,depth_duration_stimuli/001392_2014-06-19_16-07-59_260595134347_rgbf000046-resize_1/001392_2014-06-19_16-07-59_260595134347_rgbf000046-resize_1-target.png,125,4.135,12.0,3363,126,feet,jsons/VE125_randls_34_rotated.json,833668,1834131,54,Woman
148,449930,DepthScenes,duration_manipulation_targetAtFixation,jsons/VE125_randls_34_rotated.json,http://54.235.29.9/FacialAge/BNav_EC2/DepthDuration/v2_depth_duration_MTurk/v2_DepthDuration_HTML.html#256,256,2233,1070,2240,1260,9-3-2022,9-46-17,149,depth_duration_stimuli/001570_2014-06-20_17-21-09_260595134347_rgbf000135-resize_4/001570_2014-06-20_17-21-09_260595134347_rgbf000135-resize_4-target.png,125,4.467,11.0,5282,125,feet,jsons/VE125_randls_34_rotated.json,833668,1834131,54,Woman
149,449930,DepthScenes,duration_manipulation_targetAtFixation,jsons/VE125_randls_34_rotated.json,http://54.235.29.9/FacialAge/BNav_EC2/DepthDuration/v2_depth_duration_MTurk/v2_DepthDuration_HTML.html#256,256,2233,1070,2240,1260,9-3-2022,9-46-17,150,depth_duration_stimuli/002949_2014-06-26_15-57-42_094959634447_rgbf000079-resize_1/002949_2014-06-26_15-57-42_094959634447_rgbf000079-resize_1-target.png,125,1.8915,3.5,4193,125,feet,jsons/VE125_randls_34_rotated.json,833668,1834131,54,Woman
150,449930,DepthScenes,duration_manipulation_targetAtFixation,jsons/VE125_randls_34_rotated.json,http://54.235.29.9/FacialAge/BNav_EC2/DepthDuration/v2_depth_duration_MTurk/v2_DepthDuration_HTML.html#256,256,2233,1070,2240,1260,9-3-2022,9-46-17,151,depth_duration_stimuli/000522_2014-06-08_13-35-06_260595134347_rgbf000244-resize_1/000522_2014-06-08_13-35-06_260595134347_rgbf000244-resize_1-target.png,125,2.3715,2.5,3178,123,feet,jsons/VE125_randls_34_rotated.json,833668,1834131,54,Woman
151,449930,DepthScenes,duration_manipulation_targetAtFixation,jsons/VE125_randls_34_rotated.json,http://54.235.29.9/FacialAge/BNav_EC2/DepthDuration/v2_depth_duration_MTurk/v2_DepthDuration_HTML.html#256,256,2233,1070,2240,1260,9-3-2022,9-46-17,152,depth_duration_stimuli/000569_2014-06-09_22-51-47_260595134347_rgbf000141-resize_3/000569_2014-06-09_22-51-47_260595134347_rgbf000141-resize-original.jpg,125,4.512,0.0,2962,122,feet,jsons/VE125_randls_34_rotated.json,833668,1834131,54,Woman
152,449930,DepthScenes,duration_manipulation_targetAtFixation,jsons/VE125_randls_34_rotated.json,http://54.235.29.9/FacialAge/BNav_EC2/DepthDuration/v2_depth_duration_MTurk/v2_DepthDuration_HTML.html#256,256,2233,1070,2240,1260,9-3-2022,9-46-17,153,depth_duration_stimuli/003083_2014-06-15_15-21-03_094959634447_rgbf000063-resize_1/003083_2014-06-15_15-21-03_094959634447_rgbf000063-resize_1-target.png,125,4.1405,9.0,3079,123,feet,jsons/VE125_randls_34_rotated.json,833668,1834131,54,Woman
153,449930,DepthScenes,duration_manipulation_targetAtFixation,jsons/VE125_randls_34_rotated.json,http://54.235.29.9/FacialAge/BNav_EC2/DepthDuration/v2_depth_duration_MTurk/v2_DepthDuration_HTML.html#256,256,2233,1070,2240,1260,9-3-2022,9-46-17,154,depth_duration_stimuli/000486_2014-06-09_20-47-20_260595134347_rgbf000143-resize_2/000486_2014-06-09_20-47-20_260595134347_rgbf000143-resize_2-target.png,125,4.8325,10.0,5266,129,feet,jsons/VE125_randls_34_rotated.json,833668,1834131,54,Woman
154,449930,DepthScenes,duration_manipulation_targetAtFixation,jsons/VE125_randls_34_rotated.json,http://54.235.29.9/FacialAge/BNav_EC2/DepthDuration/v2_depth_duration_MTurk/v2_DepthDuration_HTML.html#256,256,2233,1070,2240,1260,9-3-2022,9-46-17,155,depth_duration_stimuli/000409_2014-06-04_19-23-33_260595134347_rgbf000067-resize_0/000409_2014-06-04_19-23-33_260595134347_rgbf000067-resize_0-target.png,125,3.7335,11.0,4714,129,feet,jsons/VE125_randls_34_rotated.json,833668,1834131,54,Woman
155,449930,DepthScenes,duration_manipulation_targetAtFixation,jsons/VE125_randls_34_rotated.json,http://54.235.29.9/FacialAge/BNav_EC2/DepthDuration/v2_depth_duration_MTurk/v2_DepthDuration_HTML.html#256,256,2233,1070,2240,1260,9-3-2022,9-46-17,156,depth_duration_stimuli/002663_2014-06-13_15-50-26_094959634447_rgbf000075-resize_1/002663_2014-06-13_15-50-26_094959634447_rgbf000075-resize_1-target.png,125,4.7495,13.0,3049,126,feet,jsons/VE125_randls_34_rotated.json,833668,1834131,54,Woman
156,449930,DepthScenes,duration_manipulation_targetAtFixation,jsons/VE125_randls_34_rotated.json,http://54.235.29.9/FacialAge/BNav_EC2/DepthDuration/v2_depth_duration_MTurk/v2_DepthDuration_HTML.html#256,256,2233,1070,2240,1260,9-3-2022,9-46-17,157,depth_duration_stimuli/000691_2014-06-08_13-08-50_260595134347_rgbf000132-resize_3/000691_2014-06-08_13-08-50_260595134347_rgbf000132-resize_3-target.png,125,4.1530000000000005,9.0,3033,126,feet,jsons/VE125_randls_34_rotated.json,833668,1834131,54,Woman
157,449930,DepthScenes,duration_manipulation_targetAtFixation,jsons/VE125_randls_34_rotated.json,http://54.235.29.9/FacialAge/BNav_EC2/DepthDuration/v2_depth_duration_MTurk/v2_DepthDuration_HTML.html#256,256,2233,1070,2240,1260,9-3-2022,9-46-17,158,depth_duration_stimuli/002213_2014-06-28_18-37-58_260595134347_rgbf000055-resize_1/002213_2014-06-28_18-37-58_260595134347_rgbf000055-resize_1-target.png,125,3.62,12.0,3259,124,feet,jsons/VE125_randls_34_rotated.json,833668,1834131,54,Woman
158,449930,DepthScenes,duration_manipulation_targetAtFixation,jsons/VE125_randls_34_rotated.json,http://54.235.29.9/FacialAge/BNav_EC2/DepthDuration/v2_depth_duration_MTurk/v2_DepthDuration_HTML.html#256,256,2233,1070,2240,1260,9-3-2022,9-46-17,159,depth_duration_stimuli/000191_2014-05-12_17-07-38_260595134347_rgbf000199-resize_0/000191_2014-05-12_17-07-38_260595134347_rgbf000199-resize_0-target.png,125,3.7995,11.0,3066,128,feet,jsons/VE125_randls_34_rotated.json,833668,1834131,54,Woman
159,449930,DepthScenes,duration_manipulation_targetAtFixation,jsons/VE125_randls_34_rotated.json,http://54.235.29.9/FacialAge/BNav_EC2/DepthDuration/v2_depth_duration_MTurk/v2_DepthDuration_HTML.html#256,256,2233,1070,2240,1260,9-3-2022,9-46-17,160,depth_duration_stimuli/000493_2014-06-09_21-01-18_260595134347_rgbf000196-resize_3/000493_2014-06-09_21-01-18_260595134347_rgbf000196-resize_3-target.png,125,3.44,9.0,3063,127,feet,jsons/VE125_randls_34_rotated.json,833668,1834131,54,Woman
160,449930,DepthScenes,duration_manipulation_targetAtFixation,jsons/VE125_randls_34_rotated.json,http://54.235.29.9/FacialAge/BNav_EC2/DepthDuration/v2_depth_duration_MTurk/v2_DepthDuration_HTML.html#256,256,2233,1070,2240,1260,9-3-2022,9-46-17,161,depth_duration_stimuli/001235_2014-06-17_16-37-36_260595134347_rgbf000084-resize_4/001235_2014-06-17_16-37-36_260595134347_rgbf000084-resize_4-target.png,125,3.6605,8.0,2911,121,feet,jsons/VE125_randls_34_rotated.json,833668,1834131,54,Woman
161,449930,DepthScenes,duration_manipulation_targetAtFixation,jsons/VE125_randls_34_rotated.json,http://54.235.29.9/FacialAge/BNav_EC2/DepthDuration/v2_depth_duration_MTurk/v2_DepthDuration_HTML.html#256,256,2233,1070,2240,1260,9-3-2022,9-46-17,162,depth_duration_stimuli/000788_2014-06-08_22-34-36_260595134347_rgbf000131-resize_1/000788_2014-06-08_22-34-36_260595134347_rgbf000131-resize_1-target.png,125,3.359,6.0,3197,125,feet,jsons/VE125_randls_34_rotated.json,833668,1834131,54,Woman
162,449930,DepthScenes,duration_manipulation_targetAtFixation,jsons/VE125_randls_34_rotated.json,http://54.235.29.9/FacialAge/BNav_EC2/DepthDuration/v2_depth_duration_MTurk/v2_DepthDuration_HTML.html#256,256,2233,1070,2240,1260,9-3-2022,9-46-17,163,depth_duration_stimuli/000734_2014-06-08_17-39-11_260595134347_rgbf000128-resize_2/000734_2014-06-08_17-39-11_260595134347_rgbf000128-resize_2-target.png,125,4.098,8.0,3584,130,feet,jsons/VE125_randls_34_rotated.json,833668,1834131,54,Woman
163,449930,DepthScenes,duration_manipulation_targetAtFixation,jsons/VE125_randls_34_rotated.json,http://54.235.29.9/FacialAge/BNav_EC2/DepthDuration/v2_depth_duration_MTurk/v2_DepthDuration_HTML.html#256,256,2233,1070,2240,1260,9-3-2022,9-46-17,164,depth_duration_stimuli/000739_2014-06-08_18-45-58_260595134347_rgbf000068-resize_1/000739_2014-06-08_18-45-58_260595134347_rgbf000068-resize_1-target.png,125,3.534,7.0,3927,123,feet,jsons/VE125_randls_34_rotated.json,833668,1834131,54,Woman
