,subjID,experimentName,versionName,sequenceName,url,selected_row,windowWidth,windowHeight,screenWidth,screenHeight,startDate,startTime,trial,stimulus,duration,actual_depth,depth_estimate,trial_RT,log_sceneDuration,unitSelection,seq_filepath,experimentTime,totalTime,age,gender
0,452742,DepthScenes,duration_manipulation_targetAtFixation,jsons/v1_VE250_randls_39.json,http://54.235.29.9/FacialAge/BNav_EC2/DepthDuration/v2_depth_duration_MTurk/v2_DepthDuration_HTML.html#31,31,1600,881,1600,1024,8-20-2022,11-24-28,1,depth_duration_stimuli/002763_2014-06-22_19-13-10_094959634447_rgbf000075-resize_4/002763_2014-06-22_19-13-10_094959634447_rgbf000075-resize_4-target.png,250,1.68375,4,1860,243,feet,jsons/v1_VE250_randls_39.json,459632,979834,29,Woman
1,452742,DepthScenes,duration_manipulation_targetAtFixation,jsons/v1_VE250_randls_39.json,http://54.235.29.9/FacialAge/BNav_EC2/DepthDuration/v2_depth_duration_MTurk/v2_DepthDuration_HTML.html#31,31,1600,881,1600,1024,8-20-2022,11-24-28,2,depth_duration_stimuli/002209_2014-06-28_18-36-10_260595134347_rgbf000051-resize_1/002209_2014-06-28_18-36-10_260595134347_rgbf000051-resize_1-target.png,250,2.057,4,1607,249,feet,jsons/v1_VE250_randls_39.json,459632,979834,29,Woman
2,452742,DepthScenes,duration_manipulation_targetAtFixation,jsons/v1_VE250_randls_39.json,http://54.235.29.9/FacialAge/BNav_EC2/DepthDuration/v2_depth_duration_MTurk/v2_DepthDuration_HTML.html#31,31,1600,881,1600,1024,8-20-2022,11-24-28,3,depth_duration_stimuli/001806_2014-06-26_20-50-20_260595134347_rgbf000091-resize_1/001806_2014-06-26_20-50-20_260595134347_rgbf000091-resize_1-target.png,250,2.7305,6,1753,258,feet,jsons/v1_VE250_randls_39.json,459632,979834,29,Woman
3,452742,DepthScenes,duration_manipulation_targetAtFixation,jsons/v1_VE250_randls_39.json,http://54.235.29.9/FacialAge/BNav_EC2/DepthDuration/v2_depth_duration_MTurk/v2_DepthDuration_HTML.html#31,31,1600,881,1600,1024,8-20-2022,11-24-28,4,depth_duration_stimuli/001617_2014-06-20_11-35-32_260595134347_rgbf000066-resize_1/001617_2014-06-20_11-35-32_260595134347_rgbf000066-resize_1-target.png,250,3.7910000000000004,8,2301,249,feet,jsons/v1_VE250_randls_39.json,459632,979834,29,Woman
4,452742,DepthScenes,duration_manipulation_targetAtFixation,jsons/v1_VE250_randls_39.json,http://54.235.29.9/FacialAge/BNav_EC2/DepthDuration/v2_depth_duration_MTurk/v2_DepthDuration_HTML.html#31,31,1600,881,1600,1024,8-20-2022,11-24-28,5,depth_duration_stimuli/001158_2014-06-17_15-32-16_260595134347_rgbf000138-resize_2/001158_2014-06-17_15-32-16_260595134347_rgbf000138-resize_2-target.png,250,4.5315,12,1743,249,feet,jsons/v1_VE250_randls_39.json,459632,979834,29,Woman
5,452742,DepthScenes,duration_manipulation_targetAtFixation,jsons/v1_VE250_randls_39.json,http://54.235.29.9/FacialAge/BNav_EC2/DepthDuration/v2_depth_duration_MTurk/v2_DepthDuration_HTML.html#31,31,1600,881,1600,1024,8-20-2022,11-24-28,6,depth_duration_stimuli/000556_2014-06-09_22-42-56_260595134347_rgbf000214-resize_1/000556_2014-06-09_22-42-56_260595134347_rgbf000214-resize_1-target.png,250,4.8415,11,2994,250,feet,jsons/v1_VE250_randls_39.json,459632,979834,29,Woman
6,452742,DepthScenes,duration_manipulation_targetAtFixation,jsons/v1_VE250_randls_39.json,http://54.235.29.9/FacialAge/BNav_EC2/DepthDuration/v2_depth_duration_MTurk/v2_DepthDuration_HTML.html#31,31,1600,881,1600,1024,8-20-2022,11-24-28,7,depth_duration_stimuli/002725_2014-06-22_11-47-51_094959634447_rgbf000070-resize_1/002725_2014-06-22_11-47-51_094959634447_rgbf000070-resize_1-target.png,250,2.195,5,1755,249,feet,jsons/v1_VE250_randls_39.json,459632,979834,29,Woman
7,452742,DepthScenes,duration_manipulation_targetAtFixation,jsons/v1_VE250_randls_39.json,http://54.235.29.9/FacialAge/BNav_EC2/DepthDuration/v2_depth_duration_MTurk/v2_DepthDuration_HTML.html#31,31,1600,881,1600,1024,8-20-2022,11-24-28,8,depth_duration_stimuli/002344_2014-06-28_20-06-29_260595134347_rgbf000030-resize_1/002344_2014-06-28_20-06-29_260595134347_rgbf000030-resize_1-target.png,250,1.5795,5,1895,250,feet,jsons/v1_VE250_randls_39.json,459632,979834,29,Woman
8,452742,DepthScenes,duration_manipulation_targetAtFixation,jsons/v1_VE250_randls_39.json,http://54.235.29.9/FacialAge/BNav_EC2/DepthDuration/v2_depth_duration_MTurk/v2_DepthDuration_HTML.html#31,31,1600,881,1600,1024,8-20-2022,11-24-28,9,depth_duration_stimuli/000436_2014-06-09_22-25-11_260595134347_rgbf000137-resize_1/000436_2014-06-09_22-25-11_260595134347_rgbf000137-resize_1-target.png,250,4.0705,9,2233,249,feet,jsons/v1_VE250_randls_39.json,459632,979834,29,Woman
9,452742,DepthScenes,duration_manipulation_targetAtFixation,jsons/v1_VE250_randls_39.json,http://54.235.29.9/FacialAge/BNav_EC2/DepthDuration/v2_depth_duration_MTurk/v2_DepthDuration_HTML.html#31,31,1600,881,1600,1024,8-20-2022,11-24-28,10,depth_duration_stimuli/002444_2014-06-28_20-32-08_260595134347_rgbf000027-resize_0/002444_2014-06-28_20-32-08_260595134347_rgbf000027-resize_0-target.png,250,4.388999999999999,10,2291,238,feet,jsons/v1_VE250_randls_39.json,459632,979834,29,Woman
10,452742,DepthScenes,duration_manipulation_targetAtFixation,jsons/v1_VE250_randls_39.json,http://54.235.29.9/FacialAge/BNav_EC2/DepthDuration/v2_depth_duration_MTurk/v2_DepthDuration_HTML.html#31,31,1600,881,1600,1024,8-20-2022,11-24-28,11,depth_duration_stimuli/001059_2014-06-08_21-53-27_260595134347_rgbf000061-resize_4/001059_2014-06-08_21-53-27_260595134347_rgbf000061-resize_4-target.png,250,2.4185,8,2121,243,feet,jsons/v1_VE250_randls_39.json,459632,979834,29,Woman
11,452742,DepthScenes,duration_manipulation_targetAtFixation,jsons/v1_VE250_randls_39.json,http://54.235.29.9/FacialAge/BNav_EC2/DepthDuration/v2_depth_duration_MTurk/v2_DepthDuration_HTML.html#31,31,1600,881,1600,1024,8-20-2022,11-24-28,12,depth_duration_stimuli/001032_2014-06-08_13-23-17_260595134347_rgbf000021-resize_3/001032_2014-06-08_13-23-17_260595134347_rgbf000021-resize_3-target.png,250,3.2725,10,3152,248,feet,jsons/v1_VE250_randls_39.json,459632,979834,29,Woman
12,452742,DepthScenes,duration_manipulation_targetAtFixation,jsons/v1_VE250_randls_39.json,http://54.235.29.9/FacialAge/BNav_EC2/DepthDuration/v2_depth_duration_MTurk/v2_DepthDuration_HTML.html#31,31,1600,881,1600,1024,8-20-2022,11-24-28,13,depth_duration_stimuli/000569_2014-06-09_22-51-47_260595134347_rgbf000141-resize_3/000569_2014-06-09_22-51-47_260595134347_rgbf000141-resize-original.jpg,250,4.512,0,2187,249,feet,jsons/v1_VE250_randls_39.json,459632,979834,29,Woman
13,452742,DepthScenes,duration_manipulation_targetAtFixation,jsons/v1_VE250_randls_39.json,http://54.235.29.9/FacialAge/BNav_EC2/DepthDuration/v2_depth_duration_MTurk/v2_DepthDuration_HTML.html#31,31,1600,881,1600,1024,8-20-2022,11-24-28,14,depth_duration_stimuli/003070_2014-06-15_14-58-27_094959634447_rgbf000150-resize_3/003070_2014-06-15_14-58-27_094959634447_rgbf000150-resize_3-target.png,250,2.9415,6,2158,261,feet,jsons/v1_VE250_randls_39.json,459632,979834,29,Woman
14,452742,DepthScenes,duration_manipulation_targetAtFixation,jsons/v1_VE250_randls_39.json,http://54.235.29.9/FacialAge/BNav_EC2/DepthDuration/v2_depth_duration_MTurk/v2_DepthDuration_HTML.html#31,31,1600,881,1600,1024,8-20-2022,11-24-28,15,depth_duration_stimuli/000943_2014-06-09_19-31-07_260595134347_rgbf000128-resize_1/000943_2014-06-09_19-31-07_260595134347_rgbf000128-resize_1-target.png,250,1.9765,4,1547,260,feet,jsons/v1_VE250_randls_39.json,459632,979834,29,Woman
15,452742,DepthScenes,duration_manipulation_targetAtFixation,jsons/v1_VE250_randls_39.json,http://54.235.29.9/FacialAge/BNav_EC2/DepthDuration/v2_depth_duration_MTurk/v2_DepthDuration_HTML.html#31,31,1600,881,1600,1024,8-20-2022,11-24-28,16,depth_duration_stimuli/001175_2014-06-17_15-45-55_260595134347_rgbf000129-resize_4/001175_2014-06-17_15-45-55_260595134347_rgbf000129-resize_4-target.png,250,4.255,9,2683,237,feet,jsons/v1_VE250_randls_39.json,459632,979834,29,Woman
16,452742,DepthScenes,duration_manipulation_targetAtFixation,jsons/v1_VE250_randls_39.json,http://54.235.29.9/FacialAge/BNav_EC2/DepthDuration/v2_depth_duration_MTurk/v2_DepthDuration_HTML.html#31,31,1600,881,1600,1024,8-20-2022,11-24-28,17,depth_duration_stimuli/003490_2014-05-21_15-50-11_094959634447_rgbf000101-resize_3/003490_2014-05-21_15-50-11_094959634447_rgbf000101-resize_3-target.png,250,3.6445,7,2049,251,feet,jsons/v1_VE250_randls_39.json,459632,979834,29,Woman
17,452742,DepthScenes,duration_manipulation_targetAtFixation,jsons/v1_VE250_randls_39.json,http://54.235.29.9/FacialAge/BNav_EC2/DepthDuration/v2_depth_duration_MTurk/v2_DepthDuration_HTML.html#31,31,1600,881,1600,1024,8-20-2022,11-24-28,18,depth_duration_stimuli/000447_2014-06-08_16-15-46_260595134347_rgbf000130-resize_1/000447_2014-06-08_16-15-46_260595134347_rgbf000130-resize_1-target.png,250,4.479,12,1963,250,feet,jsons/v1_VE250_randls_39.json,459632,979834,29,Woman
18,452742,DepthScenes,duration_manipulation_targetAtFixation,jsons/v1_VE250_randls_39.json,http://54.235.29.9/FacialAge/BNav_EC2/DepthDuration/v2_depth_duration_MTurk/v2_DepthDuration_HTML.html#31,31,1600,881,1600,1024,8-20-2022,11-24-28,19,depth_duration_stimuli/001447_2014-06-19_17-00-32_260595134347_rgbf000082-resize_5/001447_2014-06-19_17-00-32_260595134347_rgbf000082-resize_5-target.png,250,4.13775,7,3626,249,feet,jsons/v1_VE250_randls_39.json,459632,979834,29,Woman
19,452742,DepthScenes,duration_manipulation_targetAtFixation,jsons/v1_VE250_randls_39.json,http://54.235.29.9/FacialAge/BNav_EC2/DepthDuration/v2_depth_duration_MTurk/v2_DepthDuration_HTML.html#31,31,1600,881,1600,1024,8-20-2022,11-24-28,20,depth_duration_stimuli/001011_2014-06-08_23-18-54_260595134347_rgbf000044-resize_4/001011_2014-06-08_23-18-54_260595134347_rgbf000044-resize_4-target.png,250,2.4730000000000003,6,1890,251,feet,jsons/v1_VE250_randls_39.json,459632,979834,29,Woman
20,452742,DepthScenes,duration_manipulation_targetAtFixation,jsons/v1_VE250_randls_39.json,http://54.235.29.9/FacialAge/BNav_EC2/DepthDuration/v2_depth_duration_MTurk/v2_DepthDuration_HTML.html#31,31,1600,881,1600,1024,8-20-2022,11-24-28,21,depth_duration_stimuli/002875_2014-06-01_15-19-00_094959634447_rgbf000151-resize_1/002875_2014-06-01_15-19-00_094959634447_rgbf000151-resize_1-target.png,250,1.9675,6,1926,248,feet,jsons/v1_VE250_randls_39.json,459632,979834,29,Woman
21,452742,DepthScenes,duration_manipulation_targetAtFixation,jsons/v1_VE250_randls_39.json,http://54.235.29.9/FacialAge/BNav_EC2/DepthDuration/v2_depth_duration_MTurk/v2_DepthDuration_HTML.html#31,31,1600,881,1600,1024,8-20-2022,11-24-28,22,depth_duration_stimuli/000009_2014-05-26_14-32-05_260595134347_rgbf000034-resize_3/000009_2014-05-26_14-32-05_260595134347_rgbf000034-resize_3-target.png,250,3.8715,13,1906,261,feet,jsons/v1_VE250_randls_39.json,459632,979834,29,Woman
22,452742,DepthScenes,duration_manipulation_targetAtFixation,jsons/v1_VE250_randls_39.json,http://54.235.29.9/FacialAge/BNav_EC2/DepthDuration/v2_depth_duration_MTurk/v2_DepthDuration_HTML.html#31,31,1600,881,1600,1024,8-20-2022,11-24-28,23,depth_duration_stimuli/001828_2014-06-26_21-40-03_260595134347_rgbf000024-resize_0/001828_2014-06-26_21-40-03_260595134347_rgbf000024-resize_0-target.png,250,4.8260000000000005,11,2005,255,feet,jsons/v1_VE250_randls_39.json,459632,979834,29,Woman
23,452742,DepthScenes,duration_manipulation_targetAtFixation,jsons/v1_VE250_randls_39.json,http://54.235.29.9/FacialAge/BNav_EC2/DepthDuration/v2_depth_duration_MTurk/v2_DepthDuration_HTML.html#31,31,1600,881,1600,1024,8-20-2022,11-24-28,24,depth_duration_stimuli/001092_2014-06-15_17-34-58_260595134347_rgbf000171-resize_3/001092_2014-06-15_17-34-58_260595134347_rgbf000171-resize_3-target.png,250,2.6935,5,2596,257,feet,jsons/v1_VE250_randls_39.json,459632,979834,29,Woman
24,452742,DepthScenes,duration_manipulation_targetAtFixation,jsons/v1_VE250_randls_39.json,http://54.235.29.9/FacialAge/BNav_EC2/DepthDuration/v2_depth_duration_MTurk/v2_DepthDuration_HTML.html#31,31,1600,881,1600,1024,8-20-2022,11-24-28,25,depth_duration_stimuli/002545_2014-06-24_13-38-53_094959634447_rgbf000080-resize_4/002545_2014-06-24_13-38-53_094959634447_rgbf000080-resize_4-target.png,250,1.9205,8,1926,251,feet,jsons/v1_VE250_randls_39.json,459632,979834,29,Woman
25,452742,DepthScenes,duration_manipulation_targetAtFixation,jsons/v1_VE250_randls_39.json,http://54.235.29.9/FacialAge/BNav_EC2/DepthDuration/v2_depth_duration_MTurk/v2_DepthDuration_HTML.html#31,31,1600,881,1600,1024,8-20-2022,11-24-28,26,depth_duration_stimuli/000810_2014-06-08_17-20-01_260595134347_rgbf000105-resize_0/000810_2014-06-08_17-20-01_260595134347_rgbf000105-resize_0-target.png,250,1.4865,4,5404,246,feet,jsons/v1_VE250_randls_39.json,459632,979834,29,Woman
26,452742,DepthScenes,duration_manipulation_targetAtFixation,jsons/v1_VE250_randls_39.json,http://54.235.29.9/FacialAge/BNav_EC2/DepthDuration/v2_depth_duration_MTurk/v2_DepthDuration_HTML.html#31,31,1600,881,1600,1024,8-20-2022,11-24-28,27,depth_duration_stimuli/001214_2014-06-17_16-13-55_260595134347_rgbf000111-resize_0/001214_2014-06-17_16-13-55_260595134347_rgbf000111-resize_0-target.png,250,2.6505,5,1889,248,feet,jsons/v1_VE250_randls_39.json,459632,979834,29,Woman
27,452742,DepthScenes,duration_manipulation_targetAtFixation,jsons/v1_VE250_randls_39.json,http://54.235.29.9/FacialAge/BNav_EC2/DepthDuration/v2_depth_duration_MTurk/v2_DepthDuration_HTML.html#31,31,1600,881,1600,1024,8-20-2022,11-24-28,28,depth_duration_stimuli/000917_2014-06-09_22-45-29_260595134347_rgbf000149-resize_3/000917_2014-06-09_22-45-29_260595134347_rgbf000149-resize_3-target.png,250,4.1865,8,2782,249,feet,jsons/v1_VE250_randls_39.json,459632,979834,29,Woman
28,452742,DepthScenes,duration_manipulation_targetAtFixation,jsons/v1_VE250_randls_39.json,http://54.235.29.9/FacialAge/BNav_EC2/DepthDuration/v2_depth_duration_MTurk/v2_DepthDuration_HTML.html#31,31,1600,881,1600,1024,8-20-2022,11-24-28,29,depth_duration_stimuli/002323_2014-06-28_20-01-54_260595134347_rgbf000051-resize_4/002323_2014-06-28_20-01-54_260595134347_rgbf000051-resize_4-target.png,250,3.7310000000000003,10,2462,248,feet,jsons/v1_VE250_randls_39.json,459632,979834,29,Woman
29,452742,DepthScenes,duration_manipulation_targetAtFixation,jsons/v1_VE250_randls_39.json,http://54.235.29.9/FacialAge/BNav_EC2/DepthDuration/v2_depth_duration_MTurk/v2_DepthDuration_HTML.html#31,31,1600,881,1600,1024,8-20-2022,11-24-28,30,depth_duration_stimuli/000375_2014-06-08_11-17-29_260595134347_rgbf000133-resize_2/000375_2014-06-08_11-17-29_260595134347_rgbf000133-resize-original.jpg,250,4.718,0,2532,263,feet,jsons/v1_VE250_randls_39.json,459632,979834,29,Woman
30,452742,DepthScenes,duration_manipulation_targetAtFixation,jsons/v1_VE250_randls_39.json,http://54.235.29.9/FacialAge/BNav_EC2/DepthDuration/v2_depth_duration_MTurk/v2_DepthDuration_HTML.html#31,31,1600,881,1600,1024,8-20-2022,11-24-28,31,depth_duration_stimuli/000368_2014-06-09_15-53-01_260595134347_rgbf000155-resize_2/000368_2014-06-09_15-53-01_260595134347_rgbf000155-resize_2-target.png,250,2.4859999999999998,4,1581,236,feet,jsons/v1_VE250_randls_39.json,459632,979834,29,Woman
31,452742,DepthScenes,duration_manipulation_targetAtFixation,jsons/v1_VE250_randls_39.json,http://54.235.29.9/FacialAge/BNav_EC2/DepthDuration/v2_depth_duration_MTurk/v2_DepthDuration_HTML.html#31,31,1600,881,1600,1024,8-20-2022,11-24-28,32,depth_duration_stimuli/002678_2014-06-13_16-15-32_094959634447_rgbf000151-resize_6/002678_2014-06-13_16-15-32_094959634447_rgbf000151-resize_6-target.png,250,2.1830000000000003,6,1848,250,feet,jsons/v1_VE250_randls_39.json,459632,979834,29,Woman
32,452742,DepthScenes,duration_manipulation_targetAtFixation,jsons/v1_VE250_randls_39.json,http://54.235.29.9/FacialAge/BNav_EC2/DepthDuration/v2_depth_duration_MTurk/v2_DepthDuration_HTML.html#31,31,1600,881,1600,1024,8-20-2022,11-24-28,33,depth_duration_stimuli/001570_2014-06-20_17-21-09_260595134347_rgbf000135-resize_4/001570_2014-06-20_17-21-09_260595134347_rgbf000135-resize_4-target.png,250,4.467,9,2379,248,feet,jsons/v1_VE250_randls_39.json,459632,979834,29,Woman
33,452742,DepthScenes,duration_manipulation_targetAtFixation,jsons/v1_VE250_randls_39.json,http://54.235.29.9/FacialAge/BNav_EC2/DepthDuration/v2_depth_duration_MTurk/v2_DepthDuration_HTML.html#31,31,1600,881,1600,1024,8-20-2022,11-24-28,34,depth_duration_stimuli/001392_2014-06-19_16-07-59_260595134347_rgbf000046-resize_1/001392_2014-06-19_16-07-59_260595134347_rgbf000046-resize_1-target.png,250,4.135,10,3300,266,feet,jsons/v1_VE250_randls_39.json,459632,979834,29,Woman
34,452742,DepthScenes,duration_manipulation_targetAtFixation,jsons/v1_VE250_randls_39.json,http://54.235.29.9/FacialAge/BNav_EC2/DepthDuration/v2_depth_duration_MTurk/v2_DepthDuration_HTML.html#31,31,1600,881,1600,1024,8-20-2022,11-24-28,35,depth_duration_stimuli/001055_2014-06-08_18-45-35_260595134347_rgbf000111-resize_4/001055_2014-06-08_18-45-35_260595134347_rgbf000111-resize_4-target.png,250,2.4290000000000003,9,4617,250,feet,jsons/v1_VE250_randls_39.json,459632,979834,29,Woman
35,452742,DepthScenes,duration_manipulation_targetAtFixation,jsons/v1_VE250_randls_39.json,http://54.235.29.9/FacialAge/BNav_EC2/DepthDuration/v2_depth_duration_MTurk/v2_DepthDuration_HTML.html#31,31,1600,881,1600,1024,8-20-2022,11-24-28,36,depth_duration_stimuli/000549_2014-06-08_22-10-24_260595134347_rgbf000247-resize_3/000549_2014-06-08_22-10-24_260595134347_rgbf000247-resize_3-target.png,250,1.841,4,1553,250,feet,jsons/v1_VE250_randls_39.json,459632,979834,29,Woman
36,452742,DepthScenes,duration_manipulation_targetAtFixation,jsons/v1_VE250_randls_39.json,http://54.235.29.9/FacialAge/BNav_EC2/DepthDuration/v2_depth_duration_MTurk/v2_DepthDuration_HTML.html#31,31,1600,881,1600,1024,8-20-2022,11-24-28,37,depth_duration_stimuli/000414_2014-06-04_19-49-13_260595134347_rgbf000044-resize_0/000414_2014-06-04_19-49-13_260595134347_rgbf000044-resize_0-target.png,250,4.329,9,2493,246,feet,jsons/v1_VE250_randls_39.json,459632,979834,29,Woman
37,452742,DepthScenes,duration_manipulation_targetAtFixation,jsons/v1_VE250_randls_39.json,http://54.235.29.9/FacialAge/BNav_EC2/DepthDuration/v2_depth_duration_MTurk/v2_DepthDuration_HTML.html#31,31,1600,881,1600,1024,8-20-2022,11-24-28,38,depth_duration_stimuli/003129_2014-05-12_10-48-10_094959634447_rgbf000100-resize_0/003129_2014-05-12_10-48-10_094959634447_rgbf000100-resize_0-target.png,250,4.9305,8,7007,249,feet,jsons/v1_VE250_randls_39.json,459632,979834,29,Woman
38,452742,DepthScenes,duration_manipulation_targetAtFixation,jsons/v1_VE250_randls_39.json,http://54.235.29.9/FacialAge/BNav_EC2/DepthDuration/v2_depth_duration_MTurk/v2_DepthDuration_HTML.html#31,31,1600,881,1600,1024,8-20-2022,11-24-28,39,depth_duration_stimuli/002784_2014-06-22_19-26-30_094959634447_rgbf000083-resize_3/002784_2014-06-22_19-26-30_094959634447_rgbf000083-resize_3-target.png,250,1.8046666666667,4,1601,243,feet,jsons/v1_VE250_randls_39.json,459632,979834,29,Woman
39,452742,DepthScenes,duration_manipulation_targetAtFixation,jsons/v1_VE250_randls_39.json,http://54.235.29.9/FacialAge/BNav_EC2/DepthDuration/v2_depth_duration_MTurk/v2_DepthDuration_HTML.html#31,31,1600,881,1600,1024,8-20-2022,11-24-28,40,depth_duration_stimuli/001100_2014-06-15_17-46-26_260595134347_rgbf000225-resize_2/001100_2014-06-15_17-46-26_260595134347_rgbf000225-resize_2-target.png,250,2.24,3,2577,256,feet,jsons/v1_VE250_randls_39.json,459632,979834,29,Woman
40,452742,DepthScenes,duration_manipulation_targetAtFixation,jsons/v1_VE250_randls_39.json,http://54.235.29.9/FacialAge/BNav_EC2/DepthDuration/v2_depth_duration_MTurk/v2_DepthDuration_HTML.html#31,31,1600,881,1600,1024,8-20-2022,11-24-28,41,depth_duration_stimuli/001555_2014-06-20_17-12-10_260595134347_rgbf000065-resize_4/001555_2014-06-20_17-12-10_260595134347_rgbf000065-resize_4-target.png,250,1.633,3,1927,249,feet,jsons/v1_VE250_randls_39.json,459632,979834,29,Woman
41,452742,DepthScenes,duration_manipulation_targetAtFixation,jsons/v1_VE250_randls_39.json,http://54.235.29.9/FacialAge/BNav_EC2/DepthDuration/v2_depth_duration_MTurk/v2_DepthDuration_HTML.html#31,31,1600,881,1600,1024,8-20-2022,11-24-28,42,depth_duration_stimuli/000103_2014-05-14_22-01-17_260595134347_rgbf000152-resize_5/000103_2014-05-14_22-01-17_260595134347_rgbf000152-resize_5-target.png,250,1.993,5,3380,248,feet,jsons/v1_VE250_randls_39.json,459632,979834,29,Woman
42,452742,DepthScenes,duration_manipulation_targetAtFixation,jsons/v1_VE250_randls_39.json,http://54.235.29.9/FacialAge/BNav_EC2/DepthDuration/v2_depth_duration_MTurk/v2_DepthDuration_HTML.html#31,31,1600,881,1600,1024,8-20-2022,11-24-28,43,depth_duration_stimuli/001110_2014-06-15_17-25-28_260595134347_rgbf000150-resize_1/001110_2014-06-15_17-25-28_260595134347_rgbf000150-resize_1-target.png,250,1.7115,7,2166,251,feet,jsons/v1_VE250_randls_39.json,459632,979834,29,Woman
43,452742,DepthScenes,duration_manipulation_targetAtFixation,jsons/v1_VE250_randls_39.json,http://54.235.29.9/FacialAge/BNav_EC2/DepthDuration/v2_depth_duration_MTurk/v2_DepthDuration_HTML.html#31,31,1600,881,1600,1024,8-20-2022,11-24-28,44,depth_duration_stimuli/000927_2014-06-09_16-32-30_260595134347_rgbf000123-resize_3/000927_2014-06-09_16-32-30_260595134347_rgbf000123-resize_3-target.png,250,2.6785,6,6243,239,feet,jsons/v1_VE250_randls_39.json,459632,979834,29,Woman
44,452742,DepthScenes,duration_manipulation_targetAtFixation,jsons/v1_VE250_randls_39.json,http://54.235.29.9/FacialAge/BNav_EC2/DepthDuration/v2_depth_duration_MTurk/v2_DepthDuration_HTML.html#31,31,1600,881,1600,1024,8-20-2022,11-24-28,45,depth_duration_stimuli/000787_2014-06-08_22-33-53_260595134347_rgbf000175-resize_1/000787_2014-06-08_22-33-53_260595134347_rgbf000175-resize-original.jpg,250,4.784,0,2766,250,feet,jsons/v1_VE250_randls_39.json,459632,979834,29,Woman
45,452742,DepthScenes,duration_manipulation_targetAtFixation,jsons/v1_VE250_randls_39.json,http://54.235.29.9/FacialAge/BNav_EC2/DepthDuration/v2_depth_duration_MTurk/v2_DepthDuration_HTML.html#31,31,1600,881,1600,1024,8-20-2022,11-24-28,46,depth_duration_stimuli/000493_2014-06-09_21-01-18_260595134347_rgbf000196-resize_3/000493_2014-06-09_21-01-18_260595134347_rgbf000196-resize_3-target.png,250,3.44,7,3101,239,feet,jsons/v1_VE250_randls_39.json,459632,979834,29,Woman
46,452742,DepthScenes,duration_manipulation_targetAtFixation,jsons/v1_VE250_randls_39.json,http://54.235.29.9/FacialAge/BNav_EC2/DepthDuration/v2_depth_duration_MTurk/v2_DepthDuration_HTML.html#31,31,1600,881,1600,1024,8-20-2022,11-24-28,47,depth_duration_stimuli/000191_2014-05-12_17-07-38_260595134347_rgbf000199-resize_0/000191_2014-05-12_17-07-38_260595134347_rgbf000199-resize_0-target.png,250,3.7995,8,3553,251,feet,jsons/v1_VE250_randls_39.json,459632,979834,29,Woman
47,452742,DepthScenes,duration_manipulation_targetAtFixation,jsons/v1_VE250_randls_39.json,http://54.235.29.9/FacialAge/BNav_EC2/DepthDuration/v2_depth_duration_MTurk/v2_DepthDuration_HTML.html#31,31,1600,881,1600,1024,8-20-2022,11-24-28,48,depth_duration_stimuli/000773_2014-06-08_22-24-54_260595134347_rgbf000093-resize_1/000773_2014-06-08_22-24-54_260595134347_rgbf000093-resize_1-target.png,250,4.973,8,3488,251,feet,jsons/v1_VE250_randls_39.json,459632,979834,29,Woman
48,452742,DepthScenes,duration_manipulation_targetAtFixation,jsons/v1_VE250_randls_39.json,http://54.235.29.9/FacialAge/BNav_EC2/DepthDuration/v2_depth_duration_MTurk/v2_DepthDuration_HTML.html#31,31,1600,881,1600,1024,8-20-2022,11-24-28,49,depth_duration_stimuli/002414_2014-06-28_20-24-58_260595134347_rgbf000067-resize_4/002414_2014-06-28_20-24-58_260595134347_rgbf000067-resize_4-target.png,250,4.363,10,2955,242,feet,jsons/v1_VE250_randls_39.json,459632,979834,29,Woman
49,452742,DepthScenes,duration_manipulation_targetAtFixation,jsons/v1_VE250_randls_39.json,http://54.235.29.9/FacialAge/BNav_EC2/DepthDuration/v2_depth_duration_MTurk/v2_DepthDuration_HTML.html#31,31,1600,881,1600,1024,8-20-2022,11-24-28,50,depth_duration_stimuli/002057_2014-06-24_21-00-13_260595134347_rgbf000120-resize_1/002057_2014-06-24_21-00-13_260595134347_rgbf000120-resize_1-target.png,250,2.967,12,5912,254,feet,jsons/v1_VE250_randls_39.json,459632,979834,29,Woman
50,452742,DepthScenes,duration_manipulation_targetAtFixation,jsons/v1_VE250_randls_39.json,http://54.235.29.9/FacialAge/BNav_EC2/DepthDuration/v2_depth_duration_MTurk/v2_DepthDuration_HTML.html#31,31,1600,881,1600,1024,8-20-2022,11-24-28,51,depth_duration_stimuli/000709_2014-06-08_13-51-55_260595134347_rgbf000068-resize_3/000709_2014-06-08_13-51-55_260595134347_rgbf000068-resize_3-target.png,250,1.8030000000000002,5,2283,251,feet,jsons/v1_VE250_randls_39.json,459632,979834,29,Woman
51,452742,DepthScenes,duration_manipulation_targetAtFixation,jsons/v1_VE250_randls_39.json,http://54.235.29.9/FacialAge/BNav_EC2/DepthDuration/v2_depth_duration_MTurk/v2_DepthDuration_HTML.html#31,31,1600,881,1600,1024,8-20-2022,11-24-28,52,depth_duration_stimuli/000682_2014-06-08_23-14-58_260595134347_rgbf000041-resize_5/000682_2014-06-08_23-14-58_260595134347_rgbf000041-resize_5-target.png,250,2.7239999999999998,7,2391,250,feet,jsons/v1_VE250_randls_39.json,459632,979834,29,Woman
52,452742,DepthScenes,duration_manipulation_targetAtFixation,jsons/v1_VE250_randls_39.json,http://54.235.29.9/FacialAge/BNav_EC2/DepthDuration/v2_depth_duration_MTurk/v2_DepthDuration_HTML.html#31,31,1600,881,1600,1024,8-20-2022,11-24-28,53,depth_duration_stimuli/001650_2014-06-20_12-09-00_260595134347_rgbf000087-resize_3/001650_2014-06-20_12-09-00_260595134347_rgbf000087-resize_3-target.png,250,1.9505,3,1669,250,feet,jsons/v1_VE250_randls_39.json,459632,979834,29,Woman
53,452742,DepthScenes,duration_manipulation_targetAtFixation,jsons/v1_VE250_randls_39.json,http://54.235.29.9/FacialAge/BNav_EC2/DepthDuration/v2_depth_duration_MTurk/v2_DepthDuration_HTML.html#31,31,1600,881,1600,1024,8-20-2022,11-24-28,54,depth_duration_stimuli/001167_2014-06-17_15-38-07_260595134347_rgbf000108-resize_0/001167_2014-06-17_15-38-07_260595134347_rgbf000108-resize_0-target.png,250,1.8505,5,1618,251,feet,jsons/v1_VE250_randls_39.json,459632,979834,29,Woman
54,452742,DepthScenes,duration_manipulation_targetAtFixation,jsons/v1_VE250_randls_39.json,http://54.235.29.9/FacialAge/BNav_EC2/DepthDuration/v2_depth_duration_MTurk/v2_DepthDuration_HTML.html#31,31,1600,881,1600,1024,8-20-2022,11-24-28,55,depth_duration_stimuli/003587_2014-05-23_16-48-02_094959634447_rgbf002384-resize_2/003587_2014-05-23_16-48-02_094959634447_rgbf002384-resize_2-target.png,250,1.357,4,1661,251,feet,jsons/v1_VE250_randls_39.json,459632,979834,29,Woman
55,452742,DepthScenes,duration_manipulation_targetAtFixation,jsons/v1_VE250_randls_39.json,http://54.235.29.9/FacialAge/BNav_EC2/DepthDuration/v2_depth_duration_MTurk/v2_DepthDuration_HTML.html#31,31,1600,881,1600,1024,8-20-2022,11-24-28,56,depth_duration_stimuli/002272_2014-06-28_18-53-56_260595134347_rgbf000067-resize_2/002272_2014-06-28_18-53-56_260595134347_rgbf000067-resize_2-target.png,250,1.138,3,1698,260,feet,jsons/v1_VE250_randls_39.json,459632,979834,29,Woman
56,452742,DepthScenes,duration_manipulation_targetAtFixation,jsons/v1_VE250_randls_39.json,http://54.235.29.9/FacialAge/BNav_EC2/DepthDuration/v2_depth_duration_MTurk/v2_DepthDuration_HTML.html#31,31,1600,881,1600,1024,8-20-2022,11-24-28,57,depth_duration_stimuli/001571_2014-06-20_17-21-32_260595134347_rgbf000089-resize_1/001571_2014-06-20_17-21-32_260595134347_rgbf000089-resize_1-target.png,250,1.86,5,2505,252,feet,jsons/v1_VE250_randls_39.json,459632,979834,29,Woman
57,452742,DepthScenes,duration_manipulation_targetAtFixation,jsons/v1_VE250_randls_39.json,http://54.235.29.9/FacialAge/BNav_EC2/DepthDuration/v2_depth_duration_MTurk/v2_DepthDuration_HTML.html#31,31,1600,881,1600,1024,8-20-2022,11-24-28,58,depth_duration_stimuli/001417_2014-06-19_16-25-36_260595134347_rgbf000115-resize_5/001417_2014-06-19_16-25-36_260595134347_rgbf000115-resize_5-target.png,250,4.6255,7,2580,248,feet,jsons/v1_VE250_randls_39.json,459632,979834,29,Woman
58,452742,DepthScenes,duration_manipulation_targetAtFixation,jsons/v1_VE250_randls_39.json,http://54.235.29.9/FacialAge/BNav_EC2/DepthDuration/v2_depth_duration_MTurk/v2_DepthDuration_HTML.html#31,31,1600,881,1600,1024,8-20-2022,11-24-28,59,depth_duration_stimuli/003081_2014-06-15_15-19-16_094959634447_rgbf000150-resize_1/003081_2014-06-15_15-19-16_094959634447_rgbf000150-resize_1-target.png,250,3.9125,6,3911,235,feet,jsons/v1_VE250_randls_39.json,459632,979834,29,Woman
59,452742,DepthScenes,duration_manipulation_targetAtFixation,jsons/v1_VE250_randls_39.json,http://54.235.29.9/FacialAge/BNav_EC2/DepthDuration/v2_depth_duration_MTurk/v2_DepthDuration_HTML.html#31,31,1600,881,1600,1024,8-20-2022,11-24-28,60,depth_duration_stimuli/000906_2014-06-08_13-35-43_260595134347_rgbf000155-resize_1/000906_2014-06-08_13-35-43_260595134347_rgbf000155-resize_1-target.png,250,2.8489999999999998,5,2708,248,feet,jsons/v1_VE250_randls_39.json,459632,979834,29,Woman
60,452742,DepthScenes,duration_manipulation_targetAtFixation,jsons/v1_VE250_randls_39.json,http://54.235.29.9/FacialAge/BNav_EC2/DepthDuration/v2_depth_duration_MTurk/v2_DepthDuration_HTML.html#31,31,1600,881,1600,1024,8-20-2022,11-24-28,61,depth_duration_stimuli/002805_2014-06-22_19-54-03_094959634447_rgbf000079-resize_1/002805_2014-06-22_19-54-03_094959634447_rgbf000079-resize_1-target.png,250,3.1439999999999997,7,2049,250,feet,jsons/v1_VE250_randls_39.json,459632,979834,29,Woman
61,452742,DepthScenes,duration_manipulation_targetAtFixation,jsons/v1_VE250_randls_39.json,http://54.235.29.9/FacialAge/BNav_EC2/DepthDuration/v2_depth_duration_MTurk/v2_DepthDuration_HTML.html#31,31,1600,881,1600,1024,8-20-2022,11-24-28,62,depth_duration_stimuli/002570_2014-06-24_13-59-54_094959634447_rgbf000059-resize_0/002570_2014-06-24_13-59-54_094959634447_rgbf000059-resize_0-target.png,250,4.037,4,2027,250,feet,jsons/v1_VE250_randls_39.json,459632,979834,29,Woman
62,452742,DepthScenes,duration_manipulation_targetAtFixation,jsons/v1_VE250_randls_39.json,http://54.235.29.9/FacialAge/BNav_EC2/DepthDuration/v2_depth_duration_MTurk/v2_DepthDuration_HTML.html#31,31,1600,881,1600,1024,8-20-2022,11-24-28,63,depth_duration_stimuli/002467_2014-06-28_20-38-07_260595134347_rgbf000026-resize_2/002467_2014-06-28_20-38-07_260595134347_rgbf000026-resize_2-target.png,250,4.742,6,2101,237,feet,jsons/v1_VE250_randls_39.json,459632,979834,29,Woman
63,452742,DepthScenes,duration_manipulation_targetAtFixation,jsons/v1_VE250_randls_39.json,http://54.235.29.9/FacialAge/BNav_EC2/DepthDuration/v2_depth_duration_MTurk/v2_DepthDuration_HTML.html#31,31,1600,881,1600,1024,8-20-2022,11-24-28,64,depth_duration_stimuli/000692_2014-06-08_13-09-42_260595134347_rgbf000199-resize_2/000692_2014-06-08_13-09-42_260595134347_rgbf000199-resize_2-target.png,250,3.661,7,2252,249,feet,jsons/v1_VE250_randls_39.json,459632,979834,29,Woman
64,452742,DepthScenes,duration_manipulation_targetAtFixation,jsons/v1_VE250_randls_39.json,http://54.235.29.9/FacialAge/BNav_EC2/DepthDuration/v2_depth_duration_MTurk/v2_DepthDuration_HTML.html#31,31,1600,881,1600,1024,8-20-2022,11-24-28,65,depth_duration_stimuli/001094_2014-06-15_17-36-00_260595134347_rgbf000205-resize_0/001094_2014-06-15_17-36-00_260595134347_rgbf000205-resize_0-target.png,250,4.2175,9,2112,261,feet,jsons/v1_VE250_randls_39.json,459632,979834,29,Woman
65,452742,DepthScenes,duration_manipulation_targetAtFixation,jsons/v1_VE250_randls_39.json,http://54.235.29.9/FacialAge/BNav_EC2/DepthDuration/v2_depth_duration_MTurk/v2_DepthDuration_HTML.html#31,31,1600,881,1600,1024,8-20-2022,11-24-28,66,depth_duration_stimuli/001222_2014-06-17_16-24-06_260595134347_rgbf000073-resize_0/001222_2014-06-17_16-24-06_260595134347_rgbf000073-resize-original.jpg,250,1.4385,0,2330,244,feet,jsons/v1_VE250_randls_39.json,459632,979834,29,Woman
66,452742,DepthScenes,duration_manipulation_targetAtFixation,jsons/v1_VE250_randls_39.json,http://54.235.29.9/FacialAge/BNav_EC2/DepthDuration/v2_depth_duration_MTurk/v2_DepthDuration_HTML.html#31,31,1600,881,1600,1024,8-20-2022,11-24-28,67,depth_duration_stimuli/001133_2014-06-17_14-49-16_260595134347_rgbf000100-resize_0/001133_2014-06-17_14-49-16_260595134347_rgbf000100-resize_0-target.png,250,4.2115,7,1973,249,feet,jsons/v1_VE250_randls_39.json,459632,979834,29,Woman
67,452742,DepthScenes,duration_manipulation_targetAtFixation,jsons/v1_VE250_randls_39.json,http://54.235.29.9/FacialAge/BNav_EC2/DepthDuration/v2_depth_duration_MTurk/v2_DepthDuration_HTML.html#31,31,1600,881,1600,1024,8-20-2022,11-24-28,68,depth_duration_stimuli/001132_2014-06-17_14-48-54_260595134347_rgbf000100-resize_2/001132_2014-06-17_14-48-54_260595134347_rgbf000100-resize_2-target.png,250,3.753,6,3370,255,feet,jsons/v1_VE250_randls_39.json,459632,979834,29,Woman
68,452742,DepthScenes,duration_manipulation_targetAtFixation,jsons/v1_VE250_randls_39.json,http://54.235.29.9/FacialAge/BNav_EC2/DepthDuration/v2_depth_duration_MTurk/v2_DepthDuration_HTML.html#31,31,1600,881,1600,1024,8-20-2022,11-24-28,69,depth_duration_stimuli/000878_2014-06-08_22-52-45_260595134347_rgbf000045-resize_2/000878_2014-06-08_22-52-45_260595134347_rgbf000045-resize_2-target.png,250,2.092,5,1822,244,feet,jsons/v1_VE250_randls_39.json,459632,979834,29,Woman
69,452742,DepthScenes,duration_manipulation_targetAtFixation,jsons/v1_VE250_randls_39.json,http://54.235.29.9/FacialAge/BNav_EC2/DepthDuration/v2_depth_duration_MTurk/v2_DepthDuration_HTML.html#31,31,1600,881,1600,1024,8-20-2022,11-24-28,70,depth_duration_stimuli/002953_2014-06-08_17-32-18_094959634447_rgbf000059-resize_5/002953_2014-06-08_17-32-18_094959634447_rgbf000059-resize_5-target.png,250,1.551,4,1752,251,feet,jsons/v1_VE250_randls_39.json,459632,979834,29,Woman
70,452742,DepthScenes,duration_manipulation_targetAtFixation,jsons/v1_VE250_randls_39.json,http://54.235.29.9/FacialAge/BNav_EC2/DepthDuration/v2_depth_duration_MTurk/v2_DepthDuration_HTML.html#31,31,1600,881,1600,1024,8-20-2022,11-24-28,71,depth_duration_stimuli/001029_2014-06-08_13-17-57_260595134347_rgbf000065-resize_1/001029_2014-06-08_13-17-57_260595134347_rgbf000065-resize_1-target.png,250,3.0835,6,1803,251,feet,jsons/v1_VE250_randls_39.json,459632,979834,29,Woman
71,452742,DepthScenes,duration_manipulation_targetAtFixation,jsons/v1_VE250_randls_39.json,http://54.235.29.9/FacialAge/BNav_EC2/DepthDuration/v2_depth_duration_MTurk/v2_DepthDuration_HTML.html#31,31,1600,881,1600,1024,8-20-2022,11-24-28,72,depth_duration_stimuli/000677_2014-06-08_23-10-32_260595134347_rgbf000158-resize_6/000677_2014-06-08_23-10-32_260595134347_rgbf000158-resize_6-target.png,250,3.556,8,2395,260,feet,jsons/v1_VE250_randls_39.json,459632,979834,29,Woman
72,452742,DepthScenes,duration_manipulation_targetAtFixation,jsons/v1_VE250_randls_39.json,http://54.235.29.9/FacialAge/BNav_EC2/DepthDuration/v2_depth_duration_MTurk/v2_DepthDuration_HTML.html#31,31,1600,881,1600,1024,8-20-2022,11-24-28,73,depth_duration_stimuli/000470_2014-06-09_19-42-40_260595134347_rgbf000094-resize_1/000470_2014-06-09_19-42-40_260595134347_rgbf000094-resize_1-target.png,250,1.831,4,1590,263,feet,jsons/v1_VE250_randls_39.json,459632,979834,29,Woman
73,452742,DepthScenes,duration_manipulation_targetAtFixation,jsons/v1_VE250_randls_39.json,http://54.235.29.9/FacialAge/BNav_EC2/DepthDuration/v2_depth_duration_MTurk/v2_DepthDuration_HTML.html#31,31,1600,881,1600,1024,8-20-2022,11-24-28,74,depth_duration_stimuli/000109_2014-05-14_23-41-52_260595134347_rgbf000035-resize_9/000109_2014-05-14_23-41-52_260595134347_rgbf000035-resize_9-target.png,250,1.3545,6,2854,246,feet,jsons/v1_VE250_randls_39.json,459632,979834,29,Woman
74,452742,DepthScenes,duration_manipulation_targetAtFixation,jsons/v1_VE250_randls_39.json,http://54.235.29.9/FacialAge/BNav_EC2/DepthDuration/v2_depth_duration_MTurk/v2_DepthDuration_HTML.html#31,31,1600,881,1600,1024,8-20-2022,11-24-28,75,depth_duration_stimuli/000469_2014-06-09_19-42-10_260595134347_rgbf000081-resize_1/000469_2014-06-09_19-42-10_260595134347_rgbf000081-resize_1-target.png,250,1.652,3,1832,250,feet,jsons/v1_VE250_randls_39.json,459632,979834,29,Woman
75,452742,DepthScenes,duration_manipulation_targetAtFixation,jsons/v1_VE250_randls_39.json,http://54.235.29.9/FacialAge/BNav_EC2/DepthDuration/v2_depth_duration_MTurk/v2_DepthDuration_HTML.html#31,31,1600,881,1600,1024,8-20-2022,11-24-28,76,depth_duration_stimuli/000483_2014-06-09_20-41-45_260595134347_rgbf000116-resize_4/000483_2014-06-09_20-41-45_260595134347_rgbf000116-resize_4-target.png,250,1.337,3,1650,250,feet,jsons/v1_VE250_randls_39.json,459632,979834,29,Woman
76,452742,DepthScenes,duration_manipulation_targetAtFixation,jsons/v1_VE250_randls_39.json,http://54.235.29.9/FacialAge/BNav_EC2/DepthDuration/v2_depth_duration_MTurk/v2_DepthDuration_HTML.html#31,31,1600,881,1600,1024,8-20-2022,11-24-28,77,depth_duration_stimuli/001199_2014-06-17_16-03-48_260595134347_rgbf000077-resize_0/001199_2014-06-17_16-03-48_260595134347_rgbf000077-resize_0-target.png,250,3.4375,8,2185,253,feet,jsons/v1_VE250_randls_39.json,459632,979834,29,Woman
77,452742,DepthScenes,duration_manipulation_targetAtFixation,jsons/v1_VE250_randls_39.json,http://54.235.29.9/FacialAge/BNav_EC2/DepthDuration/v2_depth_duration_MTurk/v2_DepthDuration_HTML.html#31,31,1600,881,1600,1024,8-20-2022,11-24-28,78,depth_duration_stimuli/000502_2014-06-08_23-02-32_260595134347_rgbf000063-resize_4/000502_2014-06-08_23-02-32_260595134347_rgbf000063-resize_4-target.png,250,2.431,5,1583,263,feet,jsons/v1_VE250_randls_39.json,459632,979834,29,Woman
78,452742,DepthScenes,duration_manipulation_targetAtFixation,jsons/v1_VE250_randls_39.json,http://54.235.29.9/FacialAge/BNav_EC2/DepthDuration/v2_depth_duration_MTurk/v2_DepthDuration_HTML.html#31,31,1600,881,1600,1024,8-20-2022,11-24-28,79,depth_duration_stimuli/002905_2014-06-03_18-04-43_094959634447_rgbf000151-resize_2/002905_2014-06-03_18-04-43_094959634447_rgbf000151-resize_2-target.png,250,2.0295,4,1741,256,feet,jsons/v1_VE250_randls_39.json,459632,979834,29,Woman
79,452742,DepthScenes,duration_manipulation_targetAtFixation,jsons/v1_VE250_randls_39.json,http://54.235.29.9/FacialAge/BNav_EC2/DepthDuration/v2_depth_duration_MTurk/v2_DepthDuration_HTML.html#31,31,1600,881,1600,1024,8-20-2022,11-24-28,80,depth_duration_stimuli/003423_2014-05-21_10-23-26_094959634447_rgbf002665-resize_2/003423_2014-05-21_10-23-26_094959634447_rgbf002665-resize_2-target.png,250,3.2575,8,2117,263,feet,jsons/v1_VE250_randls_39.json,459632,979834,29,Woman
80,452742,DepthScenes,duration_manipulation_targetAtFixation,jsons/v1_VE250_randls_39.json,http://54.235.29.9/FacialAge/BNav_EC2/DepthDuration/v2_depth_duration_MTurk/v2_DepthDuration_HTML.html#31,31,1600,881,1600,1024,8-20-2022,11-24-28,81,depth_duration_stimuli/000758_2014-06-08_22-05-08_260595134347_rgbf000085-resize_0/000758_2014-06-08_22-05-08_260595134347_rgbf000085-resize_0-target.png,250,3.3810000000000002,6,4309,236,feet,jsons/v1_VE250_randls_39.json,459632,979834,29,Woman
81,452742,DepthScenes,duration_manipulation_targetAtFixation,jsons/v1_VE250_randls_39.json,http://54.235.29.9/FacialAge/BNav_EC2/DepthDuration/v2_depth_duration_MTurk/v2_DepthDuration_HTML.html#31,31,1600,881,1600,1024,8-20-2022,11-24-28,82,depth_duration_stimuli/000854_2014-06-09_19-43-13_260595134347_rgbf000066-resize_0/000854_2014-06-09_19-43-13_260595134347_rgbf000066-resize_0-target.png,250,3.068,4,1464,237,feet,jsons/v1_VE250_randls_39.json,459632,979834,29,Woman
82,452742,DepthScenes,duration_manipulation_targetAtFixation,jsons/v1_VE250_randls_39.json,http://54.235.29.9/FacialAge/BNav_EC2/DepthDuration/v2_depth_duration_MTurk/v2_DepthDuration_HTML.html#31,31,1600,881,1600,1024,8-20-2022,11-24-28,83,depth_duration_stimuli/002279_2014-06-28_18-55-32_260595134347_rgbf000040-resize_5/002279_2014-06-28_18-55-32_260595134347_rgbf000040-resize_5-target.png,250,1.5043333333333,4,1505,249,feet,jsons/v1_VE250_randls_39.json,459632,979834,29,Woman
83,452742,DepthScenes,duration_manipulation_targetAtFixation,jsons/v1_VE250_randls_39.json,http://54.235.29.9/FacialAge/BNav_EC2/DepthDuration/v2_depth_duration_MTurk/v2_DepthDuration_HTML.html#31,31,1600,881,1600,1024,8-20-2022,11-24-28,84,depth_duration_stimuli/000635_2014-06-08_16-38-42_260595134347_rgbf000106-resize_1/000635_2014-06-08_16-38-42_260595134347_rgbf000106-resize_1-target.png,250,2.074,6,1592,250,feet,jsons/v1_VE250_randls_39.json,459632,979834,29,Woman
84,452742,DepthScenes,duration_manipulation_targetAtFixation,jsons/v1_VE250_randls_39.json,http://54.235.29.9/FacialAge/BNav_EC2/DepthDuration/v2_depth_duration_MTurk/v2_DepthDuration_HTML.html#31,31,1600,881,1600,1024,8-20-2022,11-24-28,85,depth_duration_stimuli/002445_2014-06-28_20-32-16_260595134347_rgbf000029-resize_4/002445_2014-06-28_20-32-16_260595134347_rgbf000029-resize_4-target.png,250,2.5315,6,2974,249,feet,jsons/v1_VE250_randls_39.json,459632,979834,29,Woman
85,452742,DepthScenes,duration_manipulation_targetAtFixation,jsons/v1_VE250_randls_39.json,http://54.235.29.9/FacialAge/BNav_EC2/DepthDuration/v2_depth_duration_MTurk/v2_DepthDuration_HTML.html#31,31,1600,881,1600,1024,8-20-2022,11-24-28,86,depth_duration_stimuli/000780_2014-06-08_22-28-29_260595134347_rgbf000126-resize_1/000780_2014-06-08_22-28-29_260595134347_rgbf000126-resize_1-target.png,250,3.3825,8,2006,250,feet,jsons/v1_VE250_randls_39.json,459632,979834,29,Woman
86,452742,DepthScenes,duration_manipulation_targetAtFixation,jsons/v1_VE250_randls_39.json,http://54.235.29.9/FacialAge/BNav_EC2/DepthDuration/v2_depth_duration_MTurk/v2_DepthDuration_HTML.html#31,31,1600,881,1600,1024,8-20-2022,11-24-28,87,depth_duration_stimuli/001449_2014-06-19_17-01-27_260595134347_rgbf000116-resize_2/001449_2014-06-19_17-01-27_260595134347_rgbf000116-resize_2-target.png,250,3.452,6,2023,248,feet,jsons/v1_VE250_randls_39.json,459632,979834,29,Woman
87,452742,DepthScenes,duration_manipulation_targetAtFixation,jsons/v1_VE250_randls_39.json,http://54.235.29.9/FacialAge/BNav_EC2/DepthDuration/v2_depth_duration_MTurk/v2_DepthDuration_HTML.html#31,31,1600,881,1600,1024,8-20-2022,11-24-28,88,depth_duration_stimuli/001450_2014-06-19_17-02-03_260595134347_rgbf000203-resize_4/001450_2014-06-19_17-02-03_260595134347_rgbf000203-resize_4-target.png,250,4.0106666666667,7,2189,258,feet,jsons/v1_VE250_randls_39.json,459632,979834,29,Woman
88,452742,DepthScenes,duration_manipulation_targetAtFixation,jsons/v1_VE250_randls_39.json,http://54.235.29.9/FacialAge/BNav_EC2/DepthDuration/v2_depth_duration_MTurk/v2_DepthDuration_HTML.html#31,31,1600,881,1600,1024,8-20-2022,11-24-28,89,depth_duration_stimuli/000642_2014-06-08_16-59-25_260595134347_rgbf000098-resize_2/000642_2014-06-08_16-59-25_260595134347_rgbf000098-resize_2-target.png,250,2.8815,6,2288,266,feet,jsons/v1_VE250_randls_39.json,459632,979834,29,Woman
89,452742,DepthScenes,duration_manipulation_targetAtFixation,jsons/v1_VE250_randls_39.json,http://54.235.29.9/FacialAge/BNav_EC2/DepthDuration/v2_depth_duration_MTurk/v2_DepthDuration_HTML.html#31,31,1600,881,1600,1024,8-20-2022,11-24-28,90,depth_duration_stimuli/002425_2014-06-28_20-27-29_260595134347_rgbf000031-resize_8/002425_2014-06-28_20-27-29_260595134347_rgbf000031-resize_8-target.png,250,3.8960000000000004,10,2980,250,feet,jsons/v1_VE250_randls_39.json,459632,979834,29,Woman
90,452742,DepthScenes,duration_manipulation_targetAtFixation,jsons/v1_VE250_randls_39.json,http://54.235.29.9/FacialAge/BNav_EC2/DepthDuration/v2_depth_duration_MTurk/v2_DepthDuration_HTML.html#31,31,1600,881,1600,1024,8-20-2022,11-24-28,91,depth_duration_stimuli/001808_2014-06-26_20-50-58_260595134347_rgbf000029-resize_1/001808_2014-06-26_20-50-58_260595134347_rgbf000029-resize_1-target.png,250,4.249,9,2269,248,feet,jsons/v1_VE250_randls_39.json,459632,979834,29,Woman
91,452742,DepthScenes,duration_manipulation_targetAtFixation,jsons/v1_VE250_randls_39.json,http://54.235.29.9/FacialAge/BNav_EC2/DepthDuration/v2_depth_duration_MTurk/v2_DepthDuration_HTML.html#31,31,1600,881,1600,1024,8-20-2022,11-24-28,92,depth_duration_stimuli/001815_2014-06-26_20-52-55_260595134347_rgbf000020-resize_0/001815_2014-06-26_20-52-55_260595134347_rgbf000020-resize_0-target.png,250,3.3865,8,2425,245,feet,jsons/v1_VE250_randls_39.json,459632,979834,29,Woman
92,452742,DepthScenes,duration_manipulation_targetAtFixation,jsons/v1_VE250_randls_39.json,http://54.235.29.9/FacialAge/BNav_EC2/DepthDuration/v2_depth_duration_MTurk/v2_DepthDuration_HTML.html#31,31,1600,881,1600,1024,8-20-2022,11-24-28,93,depth_duration_stimuli/001056_2014-06-08_18-46-44_260595134347_rgbf000068-resize_0/001056_2014-06-08_18-46-44_260595134347_rgbf000068-resize_0-target.png,250,2.6625,7,1625,246,feet,jsons/v1_VE250_randls_39.json,459632,979834,29,Woman
93,452742,DepthScenes,duration_manipulation_targetAtFixation,jsons/v1_VE250_randls_39.json,http://54.235.29.9/FacialAge/BNav_EC2/DepthDuration/v2_depth_duration_MTurk/v2_DepthDuration_HTML.html#31,31,1600,881,1600,1024,8-20-2022,11-24-28,94,depth_duration_stimuli/002199_2014-06-28_18-33-56_260595134347_rgbf000074-resize_0/002199_2014-06-28_18-33-56_260595134347_rgbf000074-resize_0-target.png,250,1.996,3,1816,250,feet,jsons/v1_VE250_randls_39.json,459632,979834,29,Woman
94,452742,DepthScenes,duration_manipulation_targetAtFixation,jsons/v1_VE250_randls_39.json,http://54.235.29.9/FacialAge/BNav_EC2/DepthDuration/v2_depth_duration_MTurk/v2_DepthDuration_HTML.html#31,31,1600,881,1600,1024,8-20-2022,11-24-28,95,depth_duration_stimuli/003292_2014-05-14_21-53-49_094959634447_rgbf000100-resize_2/003292_2014-05-14_21-53-49_094959634447_rgbf000100-resize_2-target.png,250,3.4815,6,1713,252,feet,jsons/v1_VE250_randls_39.json,459632,979834,29,Woman
95,452742,DepthScenes,duration_manipulation_targetAtFixation,jsons/v1_VE250_randls_39.json,http://54.235.29.9/FacialAge/BNav_EC2/DepthDuration/v2_depth_duration_MTurk/v2_DepthDuration_HTML.html#31,31,1600,881,1600,1024,8-20-2022,11-24-28,96,depth_duration_stimuli/002639_2014-06-24_14-51-37_094959634447_rgbf000074-resize_4/002639_2014-06-24_14-51-37_094959634447_rgbf000074-resize_4-target.png,250,4.0375,10,2356,249,feet,jsons/v1_VE250_randls_39.json,459632,979834,29,Woman
96,452742,DepthScenes,duration_manipulation_targetAtFixation,jsons/v1_VE250_randls_39.json,http://54.235.29.9/FacialAge/BNav_EC2/DepthDuration/v2_depth_duration_MTurk/v2_DepthDuration_HTML.html#31,31,1600,881,1600,1024,8-20-2022,11-24-28,97,depth_duration_stimuli/001244_2014-06-17_16-47-45_260595134347_rgbf000030-resize_4/001244_2014-06-17_16-47-45_260595134347_rgbf000030-resize_4-target.png,250,2.0425,8,2136,246,feet,jsons/v1_VE250_randls_39.json,459632,979834,29,Woman
97,452742,DepthScenes,duration_manipulation_targetAtFixation,jsons/v1_VE250_randls_39.json,http://54.235.29.9/FacialAge/BNav_EC2/DepthDuration/v2_depth_duration_MTurk/v2_DepthDuration_HTML.html#31,31,1600,881,1600,1024,8-20-2022,11-24-28,98,depth_duration_stimuli/003495_2014-05-21_16-01-51_094959634447_rgbf000100-resize_3/003495_2014-05-21_16-01-51_094959634447_rgbf000100-resize_3-target.png,250,1.6255,3,1670,247,feet,jsons/v1_VE250_randls_39.json,459632,979834,29,Woman
98,452742,DepthScenes,duration_manipulation_targetAtFixation,jsons/v1_VE250_randls_39.json,http://54.235.29.9/FacialAge/BNav_EC2/DepthDuration/v2_depth_duration_MTurk/v2_DepthDuration_HTML.html#31,31,1600,881,1600,1024,8-20-2022,11-24-28,99,depth_duration_stimuli/001540_2014-06-20_17-01-05_260595134347_rgbf000086-resize_2/001540_2014-06-20_17-01-05_260595134347_rgbf000086-resize-original.jpg,250,1.459,0,2062,235,feet,jsons/v1_VE250_randls_39.json,459632,979834,29,Woman
99,452742,DepthScenes,duration_manipulation_targetAtFixation,jsons/v1_VE250_randls_39.json,http://54.235.29.9/FacialAge/BNav_EC2/DepthDuration/v2_depth_duration_MTurk/v2_DepthDuration_HTML.html#31,31,1600,881,1600,1024,8-20-2022,11-24-28,100,depth_duration_stimuli/001150_2014-06-17_15-27-34_260595134347_rgbf000108-resize_2/001150_2014-06-17_15-27-34_260595134347_rgbf000108-resize_2-target.png,250,4.0325,9,2088,247,feet,jsons/v1_VE250_randls_39.json,459632,979834,29,Woman
100,452742,DepthScenes,duration_manipulation_targetAtFixation,jsons/v1_VE250_randls_39.json,http://54.235.29.9/FacialAge/BNav_EC2/DepthDuration/v2_depth_duration_MTurk/v2_DepthDuration_HTML.html#31,31,1600,881,1600,1024,8-20-2022,11-24-28,101,depth_duration_stimuli/000665_2014-06-09_20-42-35_260595134347_rgbf000110-resize_1/000665_2014-06-09_20-42-35_260595134347_rgbf000110-resize_1-target.png,250,3.057,6,1580,249,feet,jsons/v1_VE250_randls_39.json,459632,979834,29,Woman
101,452742,DepthScenes,duration_manipulation_targetAtFixation,jsons/v1_VE250_randls_39.json,http://54.235.29.9/FacialAge/BNav_EC2/DepthDuration/v2_depth_duration_MTurk/v2_DepthDuration_HTML.html#31,31,1600,881,1600,1024,8-20-2022,11-24-28,102,depth_duration_stimuli/002600_2014-06-24_14-27-04_094959634447_rgbf000074-resize_2/002600_2014-06-24_14-27-04_094959634447_rgbf000074-resize_2-target.png,250,2.7575,6,2954,250,feet,jsons/v1_VE250_randls_39.json,459632,979834,29,Woman
102,452742,DepthScenes,duration_manipulation_targetAtFixation,jsons/v1_VE250_randls_39.json,http://54.235.29.9/FacialAge/BNav_EC2/DepthDuration/v2_depth_duration_MTurk/v2_DepthDuration_HTML.html#31,31,1600,881,1600,1024,8-20-2022,11-24-28,103,depth_duration_stimuli/003228_2014-05-14_13-42-35_094959634447_rgbf000101-resize_1/003228_2014-05-14_13-42-35_094959634447_rgbf000101-resize_1-target.png,250,1.9680000000000002,4,1509,250,feet,jsons/v1_VE250_randls_39.json,459632,979834,29,Woman
103,452742,DepthScenes,duration_manipulation_targetAtFixation,jsons/v1_VE250_randls_39.json,http://54.235.29.9/FacialAge/BNav_EC2/DepthDuration/v2_depth_duration_MTurk/v2_DepthDuration_HTML.html#31,31,1600,881,1600,1024,8-20-2022,11-24-28,104,depth_duration_stimuli/002549_2014-06-24_13-41-39_094959634447_rgbf000022-resize_3/002549_2014-06-24_13-41-39_094959634447_rgbf000022-resize_3-target.png,250,1.476,3,1918,249,feet,jsons/v1_VE250_randls_39.json,459632,979834,29,Woman
104,452742,DepthScenes,duration_manipulation_targetAtFixation,jsons/v1_VE250_randls_39.json,http://54.235.29.9/FacialAge/BNav_EC2/DepthDuration/v2_depth_duration_MTurk/v2_DepthDuration_HTML.html#31,31,1600,881,1600,1024,8-20-2022,11-24-28,105,depth_duration_stimuli/002750_2014-06-22_19-08-03_094959634447_rgbf000094-resize_4/002750_2014-06-22_19-08-03_094959634447_rgbf000094-resize_4-target.png,250,2.354,6,1753,252,feet,jsons/v1_VE250_randls_39.json,459632,979834,29,Woman
105,452742,DepthScenes,duration_manipulation_targetAtFixation,jsons/v1_VE250_randls_39.json,http://54.235.29.9/FacialAge/BNav_EC2/DepthDuration/v2_depth_duration_MTurk/v2_DepthDuration_HTML.html#31,31,1600,881,1600,1024,8-20-2022,11-24-28,106,depth_duration_stimuli/000739_2014-06-08_18-45-58_260595134347_rgbf000068-resize_1/000739_2014-06-08_18-45-58_260595134347_rgbf000068-resize_1-target.png,250,3.534,9,1679,254,feet,jsons/v1_VE250_randls_39.json,459632,979834,29,Woman
106,452742,DepthScenes,duration_manipulation_targetAtFixation,jsons/v1_VE250_randls_39.json,http://54.235.29.9/FacialAge/BNav_EC2/DepthDuration/v2_depth_duration_MTurk/v2_DepthDuration_HTML.html#31,31,1600,881,1600,1024,8-20-2022,11-24-28,107,depth_duration_stimuli/000734_2014-06-08_17-39-11_260595134347_rgbf000128-resize_2/000734_2014-06-08_17-39-11_260595134347_rgbf000128-resize_2-target.png,250,4.098,7,3088,237,feet,jsons/v1_VE250_randls_39.json,459632,979834,29,Woman
107,452742,DepthScenes,duration_manipulation_targetAtFixation,jsons/v1_VE250_randls_39.json,http://54.235.29.9/FacialAge/BNav_EC2/DepthDuration/v2_depth_duration_MTurk/v2_DepthDuration_HTML.html#31,31,1600,881,1600,1024,8-20-2022,11-24-28,108,depth_duration_stimuli/002509_2014-06-24_13-19-22_094959634447_rgbf000077-resize_0/002509_2014-06-24_13-19-22_094959634447_rgbf000077-resize_0-target.png,250,1.3065,3,1512,250,feet,jsons/v1_VE250_randls_39.json,459632,979834,29,Woman
108,452742,DepthScenes,duration_manipulation_targetAtFixation,jsons/v1_VE250_randls_39.json,http://54.235.29.9/FacialAge/BNav_EC2/DepthDuration/v2_depth_duration_MTurk/v2_DepthDuration_HTML.html#31,31,1600,881,1600,1024,8-20-2022,11-24-28,109,depth_duration_stimuli/003338_2014-05-20_11-01-23_094959634447_rgbf000051-resize_6/003338_2014-05-20_11-01-23_094959634447_rgbf000051-resize_6-target.png,250,1.693,4,1494,252,feet,jsons/v1_VE250_randls_39.json,459632,979834,29,Woman
109,452742,DepthScenes,duration_manipulation_targetAtFixation,jsons/v1_VE250_randls_39.json,http://54.235.29.9/FacialAge/BNav_EC2/DepthDuration/v2_depth_duration_MTurk/v2_DepthDuration_HTML.html#31,31,1600,881,1600,1024,8-20-2022,11-24-28,110,depth_duration_stimuli/001016_2014-06-09_16-16-10_260595134347_rgbf000112-resize_5/001016_2014-06-09_16-16-10_260595134347_rgbf000112-resize_5-target.png,250,1.6565,6,1586,250,feet,jsons/v1_VE250_randls_39.json,459632,979834,29,Woman
110,452742,DepthScenes,duration_manipulation_targetAtFixation,jsons/v1_VE250_randls_39.json,http://54.235.29.9/FacialAge/BNav_EC2/DepthDuration/v2_depth_duration_MTurk/v2_DepthDuration_HTML.html#31,31,1600,881,1600,1024,8-20-2022,11-24-28,111,depth_duration_stimuli/002340_2014-06-28_20-05-46_260595134347_rgbf000113-resize_0/002340_2014-06-28_20-05-46_260595134347_rgbf000113-resize_0-target.png,250,2.4735,8,1980,250,feet,jsons/v1_VE250_randls_39.json,459632,979834,29,Woman
111,452742,DepthScenes,duration_manipulation_targetAtFixation,jsons/v1_VE250_randls_39.json,http://54.235.29.9/FacialAge/BNav_EC2/DepthDuration/v2_depth_duration_MTurk/v2_DepthDuration_HTML.html#31,31,1600,881,1600,1024,8-20-2022,11-24-28,112,depth_duration_stimuli/002039_2014-06-24_20-22-38_260595134347_rgbf000084-resize_1/002039_2014-06-24_20-22-38_260595134347_rgbf000084-resize_1-target.png,250,4.408,12,1925,249,feet,jsons/v1_VE250_randls_39.json,459632,979834,29,Woman
112,452742,DepthScenes,duration_manipulation_targetAtFixation,jsons/v1_VE250_randls_39.json,http://54.235.29.9/FacialAge/BNav_EC2/DepthDuration/v2_depth_duration_MTurk/v2_DepthDuration_HTML.html#31,31,1600,881,1600,1024,8-20-2022,11-24-28,113,depth_duration_stimuli/002103_2014-06-25_20-00-40_260595134347_rgbf000049-resize_0/002103_2014-06-25_20-00-40_260595134347_rgbf000049-resize_0-target.png,250,4.105,10,2376,237,feet,jsons/v1_VE250_randls_39.json,459632,979834,29,Woman
113,452742,DepthScenes,duration_manipulation_targetAtFixation,jsons/v1_VE250_randls_39.json,http://54.235.29.9/FacialAge/BNav_EC2/DepthDuration/v2_depth_duration_MTurk/v2_DepthDuration_HTML.html#31,31,1600,881,1600,1024,8-20-2022,11-24-28,114,depth_duration_stimuli/002748_2014-06-22_19-07-22_094959634447_rgbf000078-resize_1/002748_2014-06-22_19-07-22_094959634447_rgbf000078-resize_1-target.png,250,4.6705,13,2885,243,feet,jsons/v1_VE250_randls_39.json,459632,979834,29,Woman
114,452742,DepthScenes,duration_manipulation_targetAtFixation,jsons/v1_VE250_randls_39.json,http://54.235.29.9/FacialAge/BNav_EC2/DepthDuration/v2_depth_duration_MTurk/v2_DepthDuration_HTML.html#31,31,1600,881,1600,1024,8-20-2022,11-24-28,115,depth_duration_stimuli/002995_2014-06-15_12-31-26_094959634447_rgbf000150-resize_1/002995_2014-06-15_12-31-26_094959634447_rgbf000150-resize_1-target.png,250,3.8360000000000003,9,2493,249,feet,jsons/v1_VE250_randls_39.json,459632,979834,29,Woman
115,452742,DepthScenes,duration_manipulation_targetAtFixation,jsons/v1_VE250_randls_39.json,http://54.235.29.9/FacialAge/BNav_EC2/DepthDuration/v2_depth_duration_MTurk/v2_DepthDuration_HTML.html#31,31,1600,881,1600,1024,8-20-2022,11-24-28,116,depth_duration_stimuli/001170_2014-06-17_15-43-44_260595134347_rgbf000096-resize_6/001170_2014-06-17_15-43-44_260595134347_rgbf000096-resize-original.jpg,250,1.1909999999999998,0,2150,248,feet,jsons/v1_VE250_randls_39.json,459632,979834,29,Woman
116,452742,DepthScenes,duration_manipulation_targetAtFixation,jsons/v1_VE250_randls_39.json,http://54.235.29.9/FacialAge/BNav_EC2/DepthDuration/v2_depth_duration_MTurk/v2_DepthDuration_HTML.html#31,31,1600,881,1600,1024,8-20-2022,11-24-28,117,depth_duration_stimuli/001810_2014-06-26_20-51-35_260595134347_rgbf000040-resize_3/001810_2014-06-26_20-51-35_260595134347_rgbf000040-resize_3-target.png,250,2.2525,6,2034,259,feet,jsons/v1_VE250_randls_39.json,459632,979834,29,Woman
117,452742,DepthScenes,duration_manipulation_targetAtFixation,jsons/v1_VE250_randls_39.json,http://54.235.29.9/FacialAge/BNav_EC2/DepthDuration/v2_depth_duration_MTurk/v2_DepthDuration_HTML.html#31,31,1600,881,1600,1024,8-20-2022,11-24-28,118,depth_duration_stimuli/003010_2014-06-15_12-54-35_094959634447_rgbf000112-resize_0/003010_2014-06-15_12-54-35_094959634447_rgbf000112-resize_0-target.png,250,3.1185,7,2077,258,feet,jsons/v1_VE250_randls_39.json,459632,979834,29,Woman
118,452742,DepthScenes,duration_manipulation_targetAtFixation,jsons/v1_VE250_randls_39.json,http://54.235.29.9/FacialAge/BNav_EC2/DepthDuration/v2_depth_duration_MTurk/v2_DepthDuration_HTML.html#31,31,1600,881,1600,1024,8-20-2022,11-24-28,119,depth_duration_stimuli/000486_2014-06-09_20-47-20_260595134347_rgbf000143-resize_2/000486_2014-06-09_20-47-20_260595134347_rgbf000143-resize_2-target.png,250,4.8325,10,2425,248,feet,jsons/v1_VE250_randls_39.json,459632,979834,29,Woman
119,452742,DepthScenes,duration_manipulation_targetAtFixation,jsons/v1_VE250_randls_39.json,http://54.235.29.9/FacialAge/BNav_EC2/DepthDuration/v2_depth_duration_MTurk/v2_DepthDuration_HTML.html#31,31,1600,881,1600,1024,8-20-2022,11-24-28,120,depth_duration_stimuli/003083_2014-06-15_15-21-03_094959634447_rgbf000063-resize_1/003083_2014-06-15_15-21-03_094959634447_rgbf000063-resize_1-target.png,250,4.1405,15,2106,247,feet,jsons/v1_VE250_randls_39.json,459632,979834,29,Woman
120,452742,DepthScenes,duration_manipulation_targetAtFixation,jsons/v1_VE250_randls_39.json,http://54.235.29.9/FacialAge/BNav_EC2/DepthDuration/v2_depth_duration_MTurk/v2_DepthDuration_HTML.html#31,31,1600,881,1600,1024,8-20-2022,11-24-28,121,depth_duration_stimuli/002153_2014-06-25_21-27-18_260595134347_rgbf000038-resize_5/002153_2014-06-25_21-27-18_260595134347_rgbf000038-resize_5-target.png,250,2.505,9,2384,250,feet,jsons/v1_VE250_randls_39.json,459632,979834,29,Woman
121,452742,DepthScenes,duration_manipulation_targetAtFixation,jsons/v1_VE250_randls_39.json,http://54.235.29.9/FacialAge/BNav_EC2/DepthDuration/v2_depth_duration_MTurk/v2_DepthDuration_HTML.html#31,31,1600,881,1600,1024,8-20-2022,11-24-28,122,depth_duration_stimuli/002660_2014-06-13_15-44-18_094959634447_rgbf001878-resize_2/002660_2014-06-13_15-44-18_094959634447_rgbf001878-resize_2-target.png,250,3.576,10,2766,250,feet,jsons/v1_VE250_randls_39.json,459632,979834,29,Woman
122,452742,DepthScenes,duration_manipulation_targetAtFixation,jsons/v1_VE250_randls_39.json,http://54.235.29.9/FacialAge/BNav_EC2/DepthDuration/v2_depth_duration_MTurk/v2_DepthDuration_HTML.html#31,31,1600,881,1600,1024,8-20-2022,11-24-28,123,depth_duration_stimuli/001066_2014-06-08_22-03-20_260595134347_rgbf000066-resize_4/001066_2014-06-08_22-03-20_260595134347_rgbf000066-resize_4-target.png,250,4.2330000000000005,13,2172,241,feet,jsons/v1_VE250_randls_39.json,459632,979834,29,Woman
123,452742,DepthScenes,duration_manipulation_targetAtFixation,jsons/v1_VE250_randls_39.json,http://54.235.29.9/FacialAge/BNav_EC2/DepthDuration/v2_depth_duration_MTurk/v2_DepthDuration_HTML.html#31,31,1600,881,1600,1024,8-20-2022,11-24-28,124,depth_duration_stimuli/000742_2014-06-08_18-48-09_260595134347_rgbf000164-resize_4/000742_2014-06-08_18-48-09_260595134347_rgbf000164-resize_4-target.png,250,4.632,8,2184,259,feet,jsons/v1_VE250_randls_39.json,459632,979834,29,Woman
124,452742,DepthScenes,duration_manipulation_targetAtFixation,jsons/v1_VE250_randls_39.json,http://54.235.29.9/FacialAge/BNav_EC2/DepthDuration/v2_depth_duration_MTurk/v2_DepthDuration_HTML.html#31,31,1600,881,1600,1024,8-20-2022,11-24-28,125,depth_duration_stimuli/003621_2014-05-23_18-06-08_094959634447_rgbf000101-resize_1/003621_2014-05-23_18-06-08_094959634447_rgbf000101-resize_1-target.png,250,3.9835,8,3472,250,feet,jsons/v1_VE250_randls_39.json,459632,979834,29,Woman
125,452742,DepthScenes,duration_manipulation_targetAtFixation,jsons/v1_VE250_randls_39.json,http://54.235.29.9/FacialAge/BNav_EC2/DepthDuration/v2_depth_duration_MTurk/v2_DepthDuration_HTML.html#31,31,1600,881,1600,1024,8-20-2022,11-24-28,126,depth_duration_stimuli/001584_2014-06-20_11-07-43_260595134347_rgbf000002-resize_1/001584_2014-06-20_11-07-43_260595134347_rgbf000002-resize_1-target.png,250,3.53,7,2175,250,feet,jsons/v1_VE250_randls_39.json,459632,979834,29,Woman
126,452742,DepthScenes,duration_manipulation_targetAtFixation,jsons/v1_VE250_randls_39.json,http://54.235.29.9/FacialAge/BNav_EC2/DepthDuration/v2_depth_duration_MTurk/v2_DepthDuration_HTML.html#31,31,1600,881,1600,1024,8-20-2022,11-24-28,127,depth_duration_stimuli/002788_2014-06-22_19-36-03_094959634447_rgbf000088-resize_2/002788_2014-06-22_19-36-03_094959634447_rgbf000088-resize_2-target.png,250,1.6465,8,3091,253,feet,jsons/v1_VE250_randls_39.json,459632,979834,29,Woman
127,452742,DepthScenes,duration_manipulation_targetAtFixation,jsons/v1_VE250_randls_39.json,http://54.235.29.9/FacialAge/BNav_EC2/DepthDuration/v2_depth_duration_MTurk/v2_DepthDuration_HTML.html#31,31,1600,881,1600,1024,8-20-2022,11-24-28,128,depth_duration_stimuli/000749_2014-06-08_21-55-06_260595134347_rgbf000070-resize_2/000749_2014-06-08_21-55-06_260595134347_rgbf000070-resize_2-target.png,250,2.331,7,2899,251,feet,jsons/v1_VE250_randls_39.json,459632,979834,29,Woman
128,452742,DepthScenes,duration_manipulation_targetAtFixation,jsons/v1_VE250_randls_39.json,http://54.235.29.9/FacialAge/BNav_EC2/DepthDuration/v2_depth_duration_MTurk/v2_DepthDuration_HTML.html#31,31,1600,881,1600,1024,8-20-2022,11-24-28,129,depth_duration_stimuli/002043_2014-06-24_20-29-38_260595134347_rgbf000039-resize_4/002043_2014-06-24_20-29-38_260595134347_rgbf000039-resize_4-target.png,250,2.8435,10,2624,255,feet,jsons/v1_VE250_randls_39.json,459632,979834,29,Woman
129,452742,DepthScenes,duration_manipulation_targetAtFixation,jsons/v1_VE250_randls_39.json,http://54.235.29.9/FacialAge/BNav_EC2/DepthDuration/v2_depth_duration_MTurk/v2_DepthDuration_HTML.html#31,31,1600,881,1600,1024,8-20-2022,11-24-28,130,depth_duration_stimuli/003048_2014-06-15_13-49-43_094959634447_rgbf000150-resize_1/003048_2014-06-15_13-49-43_094959634447_rgbf000150-resize_1-target.png,250,4.0035,8,2260,256,feet,jsons/v1_VE250_randls_39.json,459632,979834,29,Woman
130,452742,DepthScenes,duration_manipulation_targetAtFixation,jsons/v1_VE250_randls_39.json,http://54.235.29.9/FacialAge/BNav_EC2/DepthDuration/v2_depth_duration_MTurk/v2_DepthDuration_HTML.html#31,31,1600,881,1600,1024,8-20-2022,11-24-28,131,depth_duration_stimuli/002375_2014-06-28_20-13-44_260595134347_rgbf000032-resize_1/002375_2014-06-28_20-13-44_260595134347_rgbf000032-resize_1-target.png,250,4.0175,9,2415,252,feet,jsons/v1_VE250_randls_39.json,459632,979834,29,Woman
131,452742,DepthScenes,duration_manipulation_targetAtFixation,jsons/v1_VE250_randls_39.json,http://54.235.29.9/FacialAge/BNav_EC2/DepthDuration/v2_depth_duration_MTurk/v2_DepthDuration_HTML.html#31,31,1600,881,1600,1024,8-20-2022,11-24-28,132,depth_duration_stimuli/002657_2014-06-13_15-29-54_094959634447_rgbf000150-resize_1/002657_2014-06-13_15-29-54_094959634447_rgbf000150-resize_1-target.png,250,4.919,12,1950,246,feet,jsons/v1_VE250_randls_39.json,459632,979834,29,Woman
132,452742,DepthScenes,duration_manipulation_targetAtFixation,jsons/v1_VE250_randls_39.json,http://54.235.29.9/FacialAge/BNav_EC2/DepthDuration/v2_depth_duration_MTurk/v2_DepthDuration_HTML.html#31,31,1600,881,1600,1024,8-20-2022,11-24-28,133,depth_duration_stimuli/002213_2014-06-28_18-37-58_260595134347_rgbf000055-resize_1/002213_2014-06-28_18-37-58_260595134347_rgbf000055-resize_1-target.png,250,3.62,9,2313,246,feet,jsons/v1_VE250_randls_39.json,459632,979834,29,Woman
133,452742,DepthScenes,duration_manipulation_targetAtFixation,jsons/v1_VE250_randls_39.json,http://54.235.29.9/FacialAge/BNav_EC2/DepthDuration/v2_depth_duration_MTurk/v2_DepthDuration_HTML.html#31,31,1600,881,1600,1024,8-20-2022,11-24-28,134,depth_duration_stimuli/000691_2014-06-08_13-08-50_260595134347_rgbf000132-resize_3/000691_2014-06-08_13-08-50_260595134347_rgbf000132-resize_3-target.png,250,4.1530000000000005,10,2265,250,feet,jsons/v1_VE250_randls_39.json,459632,979834,29,Woman
134,452742,DepthScenes,duration_manipulation_targetAtFixation,jsons/v1_VE250_randls_39.json,http://54.235.29.9/FacialAge/BNav_EC2/DepthDuration/v2_depth_duration_MTurk/v2_DepthDuration_HTML.html#31,31,1600,881,1600,1024,8-20-2022,11-24-28,135,depth_duration_stimuli/002072_2014-06-24_21-48-06_260595134347_rgbf000115-resize_0/002072_2014-06-24_21-48-06_260595134347_rgbf000115-resize-original.jpg,250,4.702,0,2006,234,feet,jsons/v1_VE250_randls_39.json,459632,979834,29,Woman
135,452742,DepthScenes,duration_manipulation_targetAtFixation,jsons/v1_VE250_randls_39.json,http://54.235.29.9/FacialAge/BNav_EC2/DepthDuration/v2_depth_duration_MTurk/v2_DepthDuration_HTML.html#31,31,1600,881,1600,1024,8-20-2022,11-24-28,136,depth_duration_stimuli/002964_2014-06-08_17-46-11_094959634447_rgbf000091-resize_4/002964_2014-06-08_17-46-11_094959634447_rgbf000091-resize_4-target.png,250,1.6909999999999998,3,1505,247,feet,jsons/v1_VE250_randls_39.json,459632,979834,29,Woman
136,452742,DepthScenes,duration_manipulation_targetAtFixation,jsons/v1_VE250_randls_39.json,http://54.235.29.9/FacialAge/BNav_EC2/DepthDuration/v2_depth_duration_MTurk/v2_DepthDuration_HTML.html#31,31,1600,881,1600,1024,8-20-2022,11-24-28,137,depth_duration_stimuli/002136_2014-06-25_21-18-03_260595134347_rgbf000109-resize_3/002136_2014-06-25_21-18-03_260595134347_rgbf000109-resize_3-target.png,250,1.9569999999999999,5,1453,259,feet,jsons/v1_VE250_randls_39.json,459632,979834,29,Woman
137,452742,DepthScenes,duration_manipulation_targetAtFixation,jsons/v1_VE250_randls_39.json,http://54.235.29.9/FacialAge/BNav_EC2/DepthDuration/v2_depth_duration_MTurk/v2_DepthDuration_HTML.html#31,31,1600,881,1600,1024,8-20-2022,11-24-28,138,depth_duration_stimuli/002118_2014-06-25_20-32-08_260595134347_rgbf000078-resize_1/002118_2014-06-25_20-32-08_260595134347_rgbf000078-resize_1-target.png,250,2.6460000000000004,8,1942,245,feet,jsons/v1_VE250_randls_39.json,459632,979834,29,Woman
138,452742,DepthScenes,duration_manipulation_targetAtFixation,jsons/v1_VE250_randls_39.json,http://54.235.29.9/FacialAge/BNav_EC2/DepthDuration/v2_depth_duration_MTurk/v2_DepthDuration_HTML.html#31,31,1600,881,1600,1024,8-20-2022,11-24-28,139,depth_duration_stimuli/001516_2014-06-20_16-25-09_260595134347_rgbf000076-resize_2/001516_2014-06-20_16-25-09_260595134347_rgbf000076-resize_2-target.png,250,1.7445,4,1477,236,feet,jsons/v1_VE250_randls_39.json,459632,979834,29,Woman
139,452742,DepthScenes,duration_manipulation_targetAtFixation,jsons/v1_VE250_randls_39.json,http://54.235.29.9/FacialAge/BNav_EC2/DepthDuration/v2_depth_duration_MTurk/v2_DepthDuration_HTML.html#31,31,1600,881,1600,1024,8-20-2022,11-24-28,140,depth_duration_stimuli/003534_2014-05-22_15-06-10_094959634447_rgbf000102-resize_4/003534_2014-05-22_15-06-10_094959634447_rgbf000102-resize_4-target.png,250,1.426,4,1460,249,feet,jsons/v1_VE250_randls_39.json,459632,979834,29,Woman
140,452742,DepthScenes,duration_manipulation_targetAtFixation,jsons/v1_VE250_randls_39.json,http://54.235.29.9/FacialAge/BNav_EC2/DepthDuration/v2_depth_duration_MTurk/v2_DepthDuration_HTML.html#31,31,1600,881,1600,1024,8-20-2022,11-24-28,141,depth_duration_stimuli/002637_2014-06-24_14-51-13_094959634447_rgbf000066-resize_4/002637_2014-06-24_14-51-13_094959634447_rgbf000066-resize_4-target.png,250,1.9955,7,1926,251,feet,jsons/v1_VE250_randls_39.json,459632,979834,29,Woman
141,452742,DepthScenes,duration_manipulation_targetAtFixation,jsons/v1_VE250_randls_39.json,http://54.235.29.9/FacialAge/BNav_EC2/DepthDuration/v2_depth_duration_MTurk/v2_DepthDuration_HTML.html#31,31,1600,881,1600,1024,8-20-2022,11-24-28,142,depth_duration_stimuli/000506_2014-06-08_23-21-00_260595134347_rgbf000070-resize_7/000506_2014-06-08_23-21-00_260595134347_rgbf000070-resize_7-target.png,250,4.0585,9,1943,251,feet,jsons/v1_VE250_randls_39.json,459632,979834,29,Woman
142,452742,DepthScenes,duration_manipulation_targetAtFixation,jsons/v1_VE250_randls_39.json,http://54.235.29.9/FacialAge/BNav_EC2/DepthDuration/v2_depth_duration_MTurk/v2_DepthDuration_HTML.html#31,31,1600,881,1600,1024,8-20-2022,11-24-28,143,depth_duration_stimuli/003079_2014-06-15_15-18-20_094959634447_rgbf000152-resize_8/003079_2014-06-15_15-18-20_094959634447_rgbf000152-resize_8-target.png,250,2.8775,10,2051,251,feet,jsons/v1_VE250_randls_39.json,459632,979834,29,Woman
143,452742,DepthScenes,duration_manipulation_targetAtFixation,jsons/v1_VE250_randls_39.json,http://54.235.29.9/FacialAge/BNav_EC2/DepthDuration/v2_depth_duration_MTurk/v2_DepthDuration_HTML.html#31,31,1600,881,1600,1024,8-20-2022,11-24-28,144,depth_duration_stimuli/002630_2014-06-24_14-47-50_094959634447_rgbf000055-resize_1/002630_2014-06-24_14-47-50_094959634447_rgbf000055-resize_1-target.png,250,3.0095,8,2461,245,feet,jsons/v1_VE250_randls_39.json,459632,979834,29,Woman
144,452742,DepthScenes,duration_manipulation_targetAtFixation,jsons/v1_VE250_randls_39.json,http://54.235.29.9/FacialAge/BNav_EC2/DepthDuration/v2_depth_duration_MTurk/v2_DepthDuration_HTML.html#31,31,1600,881,1600,1024,8-20-2022,11-24-28,145,depth_duration_stimuli/002758_2014-06-22_19-11-20_094959634447_rgbf000128-resize_1/002758_2014-06-22_19-11-20_094959634447_rgbf000128-resize_1-target.png,250,2.555,5,1868,256,feet,jsons/v1_VE250_randls_39.json,459632,979834,29,Woman
145,452742,DepthScenes,duration_manipulation_targetAtFixation,jsons/v1_VE250_randls_39.json,http://54.235.29.9/FacialAge/BNav_EC2/DepthDuration/v2_depth_duration_MTurk/v2_DepthDuration_HTML.html#31,31,1600,881,1600,1024,8-20-2022,11-24-28,146,depth_duration_stimuli/001498_2014-06-19_17-45-14_260595134347_rgbf000129-resize_4/001498_2014-06-19_17-45-14_260595134347_rgbf000129-resize-original.jpg,250,1.4075,0,1993,244,feet,jsons/v1_VE250_randls_39.json,459632,979834,29,Woman
146,452742,DepthScenes,duration_manipulation_targetAtFixation,jsons/v1_VE250_randls_39.json,http://54.235.29.9/FacialAge/BNav_EC2/DepthDuration/v2_depth_duration_MTurk/v2_DepthDuration_HTML.html#31,31,1600,881,1600,1024,8-20-2022,11-24-28,147,depth_duration_stimuli/000736_2014-06-08_18-24-15_260595134347_rgbf000206-resize_3/000736_2014-06-08_18-24-15_260595134347_rgbf000206-resize_3-target.png,250,3.515,6,2534,253,feet,jsons/v1_VE250_randls_39.json,459632,979834,29,Woman
147,452742,DepthScenes,duration_manipulation_targetAtFixation,jsons/v1_VE250_randls_39.json,http://54.235.29.9/FacialAge/BNav_EC2/DepthDuration/v2_depth_duration_MTurk/v2_DepthDuration_HTML.html#31,31,1600,881,1600,1024,8-20-2022,11-24-28,148,depth_duration_stimuli/000137_2014-05-20_17-04-49_260595134347_rgbf000120-resize_1/000137_2014-05-20_17-04-49_260595134347_rgbf000120-resize_1-target.png,250,3.786,7,2077,238,feet,jsons/v1_VE250_randls_39.json,459632,979834,29,Woman
148,452742,DepthScenes,duration_manipulation_targetAtFixation,jsons/v1_VE250_randls_39.json,http://54.235.29.9/FacialAge/BNav_EC2/DepthDuration/v2_depth_duration_MTurk/v2_DepthDuration_HTML.html#31,31,1600,881,1600,1024,8-20-2022,11-24-28,149,depth_duration_stimuli/000788_2014-06-08_22-34-36_260595134347_rgbf000131-resize_1/000788_2014-06-08_22-34-36_260595134347_rgbf000131-resize_1-target.png,250,3.359,8,1542,241,feet,jsons/v1_VE250_randls_39.json,459632,979834,29,Woman
149,452742,DepthScenes,duration_manipulation_targetAtFixation,jsons/v1_VE250_randls_39.json,http://54.235.29.9/FacialAge/BNav_EC2/DepthDuration/v2_depth_duration_MTurk/v2_DepthDuration_HTML.html#31,31,1600,881,1600,1024,8-20-2022,11-24-28,150,depth_duration_stimuli/001235_2014-06-17_16-37-36_260595134347_rgbf000084-resize_4/001235_2014-06-17_16-37-36_260595134347_rgbf000084-resize_4-target.png,250,3.6605,7,1453,247,feet,jsons/v1_VE250_randls_39.json,459632,979834,29,Woman
150,452742,DepthScenes,duration_manipulation_targetAtFixation,jsons/v1_VE250_randls_39.json,http://54.235.29.9/FacialAge/BNav_EC2/DepthDuration/v2_depth_duration_MTurk/v2_DepthDuration_HTML.html#31,31,1600,881,1600,1024,8-20-2022,11-24-28,151,depth_duration_stimuli/003492_2014-05-21_15-50-55_094959634447_rgbf000828-resize_1/003492_2014-05-21_15-50-55_094959634447_rgbf000828-resize_1-target.png,250,4.06875,7,1388,251,feet,jsons/v1_VE250_randls_39.json,459632,979834,29,Woman
151,452742,DepthScenes,duration_manipulation_targetAtFixation,jsons/v1_VE250_randls_39.json,http://54.235.29.9/FacialAge/BNav_EC2/DepthDuration/v2_depth_duration_MTurk/v2_DepthDuration_HTML.html#31,31,1600,881,1600,1024,8-20-2022,11-24-28,152,depth_duration_stimuli/002568_2014-06-24_13-59-21_094959634447_rgbf000062-resize_4/002568_2014-06-24_13-59-21_094959634447_rgbf000062-resize_4-target.png,250,3.015,7,1530,236,feet,jsons/v1_VE250_randls_39.json,459632,979834,29,Woman
152,452742,DepthScenes,duration_manipulation_targetAtFixation,jsons/v1_VE250_randls_39.json,http://54.235.29.9/FacialAge/BNav_EC2/DepthDuration/v2_depth_duration_MTurk/v2_DepthDuration_HTML.html#31,31,1600,881,1600,1024,8-20-2022,11-24-28,153,depth_duration_stimuli/002989_2014-06-15_12-25-03_094959634447_rgbf000150-resize_3/002989_2014-06-15_12-25-03_094959634447_rgbf000150-resize_3-target.png,250,4.1975,10,2326,244,feet,jsons/v1_VE250_randls_39.json,459632,979834,29,Woman
153,452742,DepthScenes,duration_manipulation_targetAtFixation,jsons/v1_VE250_randls_39.json,http://54.235.29.9/FacialAge/BNav_EC2/DepthDuration/v2_depth_duration_MTurk/v2_DepthDuration_HTML.html#31,31,1600,881,1600,1024,8-20-2022,11-24-28,154,depth_duration_stimuli/000866_2014-06-09_20-45-42_260595134347_rgbf000139-resize_1/000866_2014-06-09_20-45-42_260595134347_rgbf000139-resize_1-target.png,250,3.2155,5,1581,251,feet,jsons/v1_VE250_randls_39.json,459632,979834,29,Woman
154,452742,DepthScenes,duration_manipulation_targetAtFixation,jsons/v1_VE250_randls_39.json,http://54.235.29.9/FacialAge/BNav_EC2/DepthDuration/v2_depth_duration_MTurk/v2_DepthDuration_HTML.html#31,31,1600,881,1600,1024,8-20-2022,11-24-28,155,depth_duration_stimuli/001164_2014-06-17_15-35-46_260595134347_rgbf000085-resize_3/001164_2014-06-17_15-35-46_260595134347_rgbf000085-resize_3-target.png,250,2.354,5,1525,251,feet,jsons/v1_VE250_randls_39.json,459632,979834,29,Woman
155,452742,DepthScenes,duration_manipulation_targetAtFixation,jsons/v1_VE250_randls_39.json,http://54.235.29.9/FacialAge/BNav_EC2/DepthDuration/v2_depth_duration_MTurk/v2_DepthDuration_HTML.html#31,31,1600,881,1600,1024,8-20-2022,11-24-28,156,depth_duration_stimuli/001136_2014-06-17_15-19-41_260595134347_rgbf000076-resize_3/001136_2014-06-17_15-19-41_260595134347_rgbf000076-resize_3-target.png,250,1.8655,4,1458,244,feet,jsons/v1_VE250_randls_39.json,459632,979834,29,Woman
156,452742,DepthScenes,duration_manipulation_targetAtFixation,jsons/v1_VE250_randls_39.json,http://54.235.29.9/FacialAge/BNav_EC2/DepthDuration/v2_depth_duration_MTurk/v2_DepthDuration_HTML.html#31,31,1600,881,1600,1024,8-20-2022,11-24-28,157,depth_duration_stimuli/000522_2014-06-08_13-35-06_260595134347_rgbf000244-resize_1/000522_2014-06-08_13-35-06_260595134347_rgbf000244-resize_1-target.png,250,2.3715,3,1446,260,feet,jsons/v1_VE250_randls_39.json,459632,979834,29,Woman
157,452742,DepthScenes,duration_manipulation_targetAtFixation,jsons/v1_VE250_randls_39.json,http://54.235.29.9/FacialAge/BNav_EC2/DepthDuration/v2_depth_duration_MTurk/v2_DepthDuration_HTML.html#31,31,1600,881,1600,1024,8-20-2022,11-24-28,158,depth_duration_stimuli/002949_2014-06-26_15-57-42_094959634447_rgbf000079-resize_1/002949_2014-06-26_15-57-42_094959634447_rgbf000079-resize_1-target.png,250,1.8915,4,1446,256,feet,jsons/v1_VE250_randls_39.json,459632,979834,29,Woman
158,452742,DepthScenes,duration_manipulation_targetAtFixation,jsons/v1_VE250_randls_39.json,http://54.235.29.9/FacialAge/BNav_EC2/DepthDuration/v2_depth_duration_MTurk/v2_DepthDuration_HTML.html#31,31,1600,881,1600,1024,8-20-2022,11-24-28,159,depth_duration_stimuli/000929_2014-06-09_16-33-19_260595134347_rgbf000139-resize_0/000929_2014-06-09_16-33-19_260595134347_rgbf000139-resize_0-target.png,250,2.8680000000000003,7,1551,250,feet,jsons/v1_VE250_randls_39.json,459632,979834,29,Woman
159,452742,DepthScenes,duration_manipulation_targetAtFixation,jsons/v1_VE250_randls_39.json,http://54.235.29.9/FacialAge/BNav_EC2/DepthDuration/v2_depth_duration_MTurk/v2_DepthDuration_HTML.html#31,31,1600,881,1600,1024,8-20-2022,11-24-28,160,depth_duration_stimuli/000457_2014-06-08_16-52-43_260595134347_rgbf000199-resize_1/000457_2014-06-08_16-52-43_260595134347_rgbf000199-resize_1-target.png,250,3.6489999999999996,7,2790,258,feet,jsons/v1_VE250_randls_39.json,459632,979834,29,Woman
160,452742,DepthScenes,duration_manipulation_targetAtFixation,jsons/v1_VE250_randls_39.json,http://54.235.29.9/FacialAge/BNav_EC2/DepthDuration/v2_depth_duration_MTurk/v2_DepthDuration_HTML.html#31,31,1600,881,1600,1024,8-20-2022,11-24-28,161,depth_duration_stimuli/002663_2014-06-13_15-50-26_094959634447_rgbf000075-resize_1/002663_2014-06-13_15-50-26_094959634447_rgbf000075-resize_1-target.png,250,4.7495,10,2080,247,feet,jsons/v1_VE250_randls_39.json,459632,979834,29,Woman
161,452742,DepthScenes,duration_manipulation_targetAtFixation,jsons/v1_VE250_randls_39.json,http://54.235.29.9/FacialAge/BNav_EC2/DepthDuration/v2_depth_duration_MTurk/v2_DepthDuration_HTML.html#31,31,1600,881,1600,1024,8-20-2022,11-24-28,162,depth_duration_stimuli/000409_2014-06-04_19-23-33_260595134347_rgbf000067-resize_0/000409_2014-06-04_19-23-33_260595134347_rgbf000067-resize_0-target.png,250,3.7335,7,2308,249,feet,jsons/v1_VE250_randls_39.json,459632,979834,29,Woman
162,452742,DepthScenes,duration_manipulation_targetAtFixation,jsons/v1_VE250_randls_39.json,http://54.235.29.9/FacialAge/BNav_EC2/DepthDuration/v2_depth_duration_MTurk/v2_DepthDuration_HTML.html#31,31,1600,881,1600,1024,8-20-2022,11-24-28,163,depth_duration_stimuli/002988_2014-06-15_12-24-20_094959634447_rgbf000150-resize_1/002988_2014-06-15_12-24-20_094959634447_rgbf000150-resize_1-target.png,250,4.7669999999999995,8,2341,250,feet,jsons/v1_VE250_randls_39.json,459632,979834,29,Woman
163,452742,DepthScenes,duration_manipulation_targetAtFixation,jsons/v1_VE250_randls_39.json,http://54.235.29.9/FacialAge/BNav_EC2/DepthDuration/v2_depth_duration_MTurk/v2_DepthDuration_HTML.html#31,31,1600,881,1600,1024,8-20-2022,11-24-28,164,depth_duration_stimuli/001052_2014-06-08_18-24-54_260595134347_rgbf000130-resize_1/001052_2014-06-08_18-24-54_260595134347_rgbf000130-resize_1-target.png,250,4.1045,9,5042,257,feet,jsons/v1_VE250_randls_39.json,459632,979834,29,Woman
