,subjID,experimentName,versionName,sequenceName,url,selected_row,windowWidth,windowHeight,screenWidth,screenHeight,startDate,startTime,trial,stimulus,duration,actual_depth,depth_estimate,trial_RT,log_sceneDuration,unitSelection,seq_filepath,experimentTime,totalTime,age,gender
0,453024,DepthScenes,duration_manipulation_targetAtFixation,jsons/VE125_randls_73.json,http://54.235.29.9/FacialAge/BNav_EC2/DepthDuration/v2_depth_duration_MTurk/v2_DepthDuration_HTML.html#238,238,1366,768,1366,768,8-29-2022,11-28-15,1,depth_duration_stimuli/001011_2014-06-08_23-18-54_260595134347_rgbf000044-resize_4/001011_2014-06-08_23-18-54_260595134347_rgbf000044-resize_4-target.png,125,2.4730000000000003,1,6371,127,feet,jsons/VE125_randls_73.json,1362344,2450184,29,Man
1,453024,DepthScenes,duration_manipulation_targetAtFixation,jsons/VE125_randls_73.json,http://54.235.29.9/FacialAge/BNav_EC2/DepthDuration/v2_depth_duration_MTurk/v2_DepthDuration_HTML.html#238,238,1366,768,1366,768,8-29-2022,11-28-15,2,depth_duration_stimuli/002875_2014-06-01_15-19-00_094959634447_rgbf000151-resize_1/002875_2014-06-01_15-19-00_094959634447_rgbf000151-resize_1-target.png,125,1.9675,1,4387,140,feet,jsons/VE125_randls_73.json,1362344,2450184,29,Man
2,453024,DepthScenes,duration_manipulation_targetAtFixation,jsons/VE125_randls_73.json,http://54.235.29.9/FacialAge/BNav_EC2/DepthDuration/v2_depth_duration_MTurk/v2_DepthDuration_HTML.html#238,238,1366,768,1366,768,8-29-2022,11-28-15,3,depth_duration_stimuli/000810_2014-06-08_17-20-01_260595134347_rgbf000105-resize_0/000810_2014-06-08_17-20-01_260595134347_rgbf000105-resize_0-target.png,125,1.4865,1,4691,121,feet,jsons/VE125_randls_73.json,1362344,2450184,29,Man
3,453024,DepthScenes,duration_manipulation_targetAtFixation,jsons/VE125_randls_73.json,http://54.235.29.9/FacialAge/BNav_EC2/DepthDuration/v2_depth_duration_MTurk/v2_DepthDuration_HTML.html#238,238,1366,768,1366,768,8-29-2022,11-28-15,4,depth_duration_stimuli/001214_2014-06-17_16-13-55_260595134347_rgbf000111-resize_0/001214_2014-06-17_16-13-55_260595134347_rgbf000111-resize_0-target.png,125,2.6505,2,3717,123,feet,jsons/VE125_randls_73.json,1362344,2450184,29,Man
4,453024,DepthScenes,duration_manipulation_targetAtFixation,jsons/VE125_randls_73.json,http://54.235.29.9/FacialAge/BNav_EC2/DepthDuration/v2_depth_duration_MTurk/v2_DepthDuration_HTML.html#238,238,1366,768,1366,768,8-29-2022,11-28-15,5,depth_duration_stimuli/003292_2014-05-14_21-53-49_094959634447_rgbf000100-resize_2/003292_2014-05-14_21-53-49_094959634447_rgbf000100-resize_2-target.png,125,3.4815,2,2946,123,feet,jsons/VE125_randls_73.json,1362344,2450184,29,Man
5,453024,DepthScenes,duration_manipulation_targetAtFixation,jsons/VE125_randls_73.json,http://54.235.29.9/FacialAge/BNav_EC2/DepthDuration/v2_depth_duration_MTurk/v2_DepthDuration_HTML.html#238,238,1366,768,1366,768,8-29-2022,11-28-15,6,depth_duration_stimuli/002639_2014-06-24_14-51-37_094959634447_rgbf000074-resize_4/002639_2014-06-24_14-51-37_094959634447_rgbf000074-resize_4-target.png,125,4.0375,2,4180,121,feet,jsons/VE125_randls_73.json,1362344,2450184,29,Man
6,453024,DepthScenes,duration_manipulation_targetAtFixation,jsons/VE125_randls_73.json,http://54.235.29.9/FacialAge/BNav_EC2/DepthDuration/v2_depth_duration_MTurk/v2_DepthDuration_HTML.html#238,238,1366,768,1366,768,8-29-2022,11-28-15,7,depth_duration_stimuli/001066_2014-06-08_22-03-20_260595134347_rgbf000066-resize_4/001066_2014-06-08_22-03-20_260595134347_rgbf000066-resize_4-target.png,125,4.2330000000000005,1,2803,140,feet,jsons/VE125_randls_73.json,1362344,2450184,29,Man
7,453024,DepthScenes,duration_manipulation_targetAtFixation,jsons/VE125_randls_73.json,http://54.235.29.9/FacialAge/BNav_EC2/DepthDuration/v2_depth_duration_MTurk/v2_DepthDuration_HTML.html#238,238,1366,768,1366,768,8-29-2022,11-28-15,8,depth_duration_stimuli/000742_2014-06-08_18-48-09_260595134347_rgbf000164-resize_4/000742_2014-06-08_18-48-09_260595134347_rgbf000164-resize_4-target.png,125,4.632,1,3404,122,feet,jsons/VE125_randls_73.json,1362344,2450184,29,Man
8,453024,DepthScenes,duration_manipulation_targetAtFixation,jsons/VE125_randls_73.json,http://54.235.29.9/FacialAge/BNav_EC2/DepthDuration/v2_depth_duration_MTurk/v2_DepthDuration_HTML.html#238,238,1366,768,1366,768,8-29-2022,11-28-15,9,depth_duration_stimuli/001555_2014-06-20_17-12-10_260595134347_rgbf000065-resize_4/001555_2014-06-20_17-12-10_260595134347_rgbf000065-resize_4-target.png,125,1.633,2,2977,140,feet,jsons/VE125_randls_73.json,1362344,2450184,29,Man
9,453024,DepthScenes,duration_manipulation_targetAtFixation,jsons/VE125_randls_73.json,http://54.235.29.9/FacialAge/BNav_EC2/DepthDuration/v2_depth_duration_MTurk/v2_DepthDuration_HTML.html#238,238,1366,768,1366,768,8-29-2022,11-28-15,10,depth_duration_stimuli/000103_2014-05-14_22-01-17_260595134347_rgbf000152-resize_5/000103_2014-05-14_22-01-17_260595134347_rgbf000152-resize_5-target.png,125,1.993,2,2717,122,feet,jsons/VE125_randls_73.json,1362344,2450184,29,Man
10,453024,DepthScenes,duration_manipulation_targetAtFixation,jsons/VE125_randls_73.json,http://54.235.29.9/FacialAge/BNav_EC2/DepthDuration/v2_depth_duration_MTurk/v2_DepthDuration_HTML.html#238,238,1366,768,1366,768,8-29-2022,11-28-15,11,depth_duration_stimuli/000682_2014-06-08_23-14-58_260595134347_rgbf000041-resize_5/000682_2014-06-08_23-14-58_260595134347_rgbf000041-resize_5-target.png,125,2.7239999999999998,2,2626,123,feet,jsons/VE125_randls_73.json,1362344,2450184,29,Man
11,453024,DepthScenes,duration_manipulation_targetAtFixation,jsons/VE125_randls_73.json,http://54.235.29.9/FacialAge/BNav_EC2/DepthDuration/v2_depth_duration_MTurk/v2_DepthDuration_HTML.html#238,238,1366,768,1366,768,8-29-2022,11-28-15,12,depth_duration_stimuli/001650_2014-06-20_12-09-00_260595134347_rgbf000087-resize_3/001650_2014-06-20_12-09-00_260595134347_rgbf000087-resize_3-target.png,125,1.9505,2,2904,124,feet,jsons/VE125_randls_73.json,1362344,2450184,29,Man
12,453024,DepthScenes,duration_manipulation_targetAtFixation,jsons/VE125_randls_73.json,http://54.235.29.9/FacialAge/BNav_EC2/DepthDuration/v2_depth_duration_MTurk/v2_DepthDuration_HTML.html#238,238,1366,768,1366,768,8-29-2022,11-28-15,13,depth_duration_stimuli/000569_2014-06-09_22-51-47_260595134347_rgbf000141-resize_3/000569_2014-06-09_22-51-47_260595134347_rgbf000141-resize-original.jpg,125,4.512,2,3645,123,feet,jsons/VE125_randls_73.json,1362344,2450184,29,Man
13,453024,DepthScenes,duration_manipulation_targetAtFixation,jsons/VE125_randls_73.json,http://54.235.29.9/FacialAge/BNav_EC2/DepthDuration/v2_depth_duration_MTurk/v2_DepthDuration_HTML.html#238,238,1366,768,1366,768,8-29-2022,11-28-15,14,depth_duration_stimuli/000368_2014-06-09_15-53-01_260595134347_rgbf000155-resize_2/000368_2014-06-09_15-53-01_260595134347_rgbf000155-resize_2-target.png,125,2.4859999999999998,2,12000,124,feet,jsons/VE125_randls_73.json,1362344,2450184,29,Man
14,453024,DepthScenes,duration_manipulation_targetAtFixation,jsons/VE125_randls_73.json,http://54.235.29.9/FacialAge/BNav_EC2/DepthDuration/v2_depth_duration_MTurk/v2_DepthDuration_HTML.html#238,238,1366,768,1366,768,8-29-2022,11-28-15,15,depth_duration_stimuli/002678_2014-06-13_16-15-32_094959634447_rgbf000151-resize_6/002678_2014-06-13_16-15-32_094959634447_rgbf000151-resize_6-target.png,125,2.1830000000000003,2,4773,123,feet,jsons/VE125_randls_73.json,1362344,2450184,29,Man
15,453024,DepthScenes,duration_manipulation_targetAtFixation,jsons/VE125_randls_73.json,http://54.235.29.9/FacialAge/BNav_EC2/DepthDuration/v2_depth_duration_MTurk/v2_DepthDuration_HTML.html#238,238,1366,768,1366,768,8-29-2022,11-28-15,16,depth_duration_stimuli/000009_2014-05-26_14-32-05_260595134347_rgbf000034-resize_3/000009_2014-05-26_14-32-05_260595134347_rgbf000034-resize_3-target.png,125,3.8715,2,3762,125,feet,jsons/VE125_randls_73.json,1362344,2450184,29,Man
16,453024,DepthScenes,duration_manipulation_targetAtFixation,jsons/VE125_randls_73.json,http://54.235.29.9/FacialAge/BNav_EC2/DepthDuration/v2_depth_duration_MTurk/v2_DepthDuration_HTML.html#238,238,1366,768,1366,768,8-29-2022,11-28-15,17,depth_duration_stimuli/001828_2014-06-26_21-40-03_260595134347_rgbf000024-resize_0/001828_2014-06-26_21-40-03_260595134347_rgbf000024-resize_0-target.png,125,4.8260000000000005,2,3202,140,feet,jsons/VE125_randls_73.json,1362344,2450184,29,Man
17,453024,DepthScenes,duration_manipulation_targetAtFixation,jsons/VE125_randls_73.json,http://54.235.29.9/FacialAge/BNav_EC2/DepthDuration/v2_depth_duration_MTurk/v2_DepthDuration_HTML.html#238,238,1366,768,1366,768,8-29-2022,11-28-15,18,depth_duration_stimuli/002663_2014-06-13_15-50-26_094959634447_rgbf000075-resize_1/002663_2014-06-13_15-50-26_094959634447_rgbf000075-resize_1-target.png,125,4.7495,2,3490,123,feet,jsons/VE125_randls_73.json,1362344,2450184,29,Man
18,453024,DepthScenes,duration_manipulation_targetAtFixation,jsons/VE125_randls_73.json,http://54.235.29.9/FacialAge/BNav_EC2/DepthDuration/v2_depth_duration_MTurk/v2_DepthDuration_HTML.html#238,238,1366,768,1366,768,8-29-2022,11-28-15,19,depth_duration_stimuli/000409_2014-06-04_19-23-33_260595134347_rgbf000067-resize_0/000409_2014-06-04_19-23-33_260595134347_rgbf000067-resize_0-target.png,125,3.7335,2,3703,122,feet,jsons/VE125_randls_73.json,1362344,2450184,29,Man
19,453024,DepthScenes,duration_manipulation_targetAtFixation,jsons/VE125_randls_73.json,http://54.235.29.9/FacialAge/BNav_EC2/DepthDuration/v2_depth_duration_MTurk/v2_DepthDuration_HTML.html#238,238,1366,768,1366,768,8-29-2022,11-28-15,20,depth_duration_stimuli/000736_2014-06-08_18-24-15_260595134347_rgbf000206-resize_3/000736_2014-06-08_18-24-15_260595134347_rgbf000206-resize_3-target.png,125,3.515,2,3233,126,feet,jsons/VE125_randls_73.json,1362344,2450184,29,Man
20,453024,DepthScenes,duration_manipulation_targetAtFixation,jsons/VE125_randls_73.json,http://54.235.29.9/FacialAge/BNav_EC2/DepthDuration/v2_depth_duration_MTurk/v2_DepthDuration_HTML.html#238,238,1366,768,1366,768,8-29-2022,11-28-15,21,depth_duration_stimuli/000137_2014-05-20_17-04-49_260595134347_rgbf000120-resize_1/000137_2014-05-20_17-04-49_260595134347_rgbf000120-resize_1-target.png,125,3.786,2,8733,124,feet,jsons/VE125_randls_73.json,1362344,2450184,29,Man
21,453024,DepthScenes,duration_manipulation_targetAtFixation,jsons/VE125_randls_73.json,http://54.235.29.9/FacialAge/BNav_EC2/DepthDuration/v2_depth_duration_MTurk/v2_DepthDuration_HTML.html#238,238,1366,768,1366,768,8-29-2022,11-28-15,22,depth_duration_stimuli/000447_2014-06-08_16-15-46_260595134347_rgbf000130-resize_1/000447_2014-06-08_16-15-46_260595134347_rgbf000130-resize_1-target.png,125,4.479,2,7233,124,feet,jsons/VE125_randls_73.json,1362344,2450184,29,Man
22,453024,DepthScenes,duration_manipulation_targetAtFixation,jsons/VE125_randls_73.json,http://54.235.29.9/FacialAge/BNav_EC2/DepthDuration/v2_depth_duration_MTurk/v2_DepthDuration_HTML.html#238,238,1366,768,1366,768,8-29-2022,11-28-15,23,depth_duration_stimuli/001447_2014-06-19_17-00-32_260595134347_rgbf000082-resize_5/001447_2014-06-19_17-00-32_260595134347_rgbf000082-resize_5-target.png,125,4.13775,2,2767,123,feet,jsons/VE125_randls_73.json,1362344,2450184,29,Man
23,453024,DepthScenes,duration_manipulation_targetAtFixation,jsons/VE125_randls_73.json,http://54.235.29.9/FacialAge/BNav_EC2/DepthDuration/v2_depth_duration_MTurk/v2_DepthDuration_HTML.html#238,238,1366,768,1366,768,8-29-2022,11-28-15,24,depth_duration_stimuli/002279_2014-06-28_18-55-32_260595134347_rgbf000040-resize_5/002279_2014-06-28_18-55-32_260595134347_rgbf000040-resize_5-target.png,125,1.5043333333333,2,3513,123,feet,jsons/VE125_randls_73.json,1362344,2450184,29,Man
24,453024,DepthScenes,duration_manipulation_targetAtFixation,jsons/VE125_randls_73.json,http://54.235.29.9/FacialAge/BNav_EC2/DepthDuration/v2_depth_duration_MTurk/v2_DepthDuration_HTML.html#238,238,1366,768,1366,768,8-29-2022,11-28-15,25,depth_duration_stimuli/000635_2014-06-08_16-38-42_260595134347_rgbf000106-resize_1/000635_2014-06-08_16-38-42_260595134347_rgbf000106-resize_1-target.png,125,2.074,2,10042,124,feet,jsons/VE125_randls_73.json,1362344,2450184,29,Man
25,453024,DepthScenes,duration_manipulation_targetAtFixation,jsons/VE125_randls_73.json,http://54.235.29.9/FacialAge/BNav_EC2/DepthDuration/v2_depth_duration_MTurk/v2_DepthDuration_HTML.html#238,238,1366,768,1366,768,8-29-2022,11-28-15,26,depth_duration_stimuli/000906_2014-06-08_13-35-43_260595134347_rgbf000155-resize_1/000906_2014-06-08_13-35-43_260595134347_rgbf000155-resize_1-target.png,125,2.8489999999999998,2,9538,124,feet,jsons/VE125_randls_73.json,1362344,2450184,29,Man
26,453024,DepthScenes,duration_manipulation_targetAtFixation,jsons/VE125_randls_73.json,http://54.235.29.9/FacialAge/BNav_EC2/DepthDuration/v2_depth_duration_MTurk/v2_DepthDuration_HTML.html#238,238,1366,768,1366,768,8-29-2022,11-28-15,27,depth_duration_stimuli/002805_2014-06-22_19-54-03_094959634447_rgbf000079-resize_1/002805_2014-06-22_19-54-03_094959634447_rgbf000079-resize_1-target.png,125,3.1439999999999997,2,4133,123,feet,jsons/VE125_randls_73.json,1362344,2450184,29,Man
27,453024,DepthScenes,duration_manipulation_targetAtFixation,jsons/VE125_randls_73.json,http://54.235.29.9/FacialAge/BNav_EC2/DepthDuration/v2_depth_duration_MTurk/v2_DepthDuration_HTML.html#238,238,1366,768,1366,768,8-29-2022,11-28-15,28,depth_duration_stimuli/000436_2014-06-09_22-25-11_260595134347_rgbf000137-resize_1/000436_2014-06-09_22-25-11_260595134347_rgbf000137-resize_1-target.png,125,4.0705,2,4421,128,feet,jsons/VE125_randls_73.json,1362344,2450184,29,Man
28,453024,DepthScenes,duration_manipulation_targetAtFixation,jsons/VE125_randls_73.json,http://54.235.29.9/FacialAge/BNav_EC2/DepthDuration/v2_depth_duration_MTurk/v2_DepthDuration_HTML.html#238,238,1366,768,1366,768,8-29-2022,11-28-15,29,depth_duration_stimuli/002444_2014-06-28_20-32-08_260595134347_rgbf000027-resize_0/002444_2014-06-28_20-32-08_260595134347_rgbf000027-resize_0-target.png,125,4.388999999999999,5,3816,123,feet,jsons/VE125_randls_73.json,1362344,2450184,29,Man
29,453024,DepthScenes,duration_manipulation_targetAtFixation,jsons/VE125_randls_73.json,http://54.235.29.9/FacialAge/BNav_EC2/DepthDuration/v2_depth_duration_MTurk/v2_DepthDuration_HTML.html#238,238,1366,768,1366,768,8-29-2022,11-28-15,30,depth_duration_stimuli/000375_2014-06-08_11-17-29_260595134347_rgbf000133-resize_2/000375_2014-06-08_11-17-29_260595134347_rgbf000133-resize-original.jpg,125,4.718,2,2949,125,feet,jsons/VE125_randls_73.json,1362344,2450184,29,Man
30,453024,DepthScenes,duration_manipulation_targetAtFixation,jsons/VE125_randls_73.json,http://54.235.29.9/FacialAge/BNav_EC2/DepthDuration/v2_depth_duration_MTurk/v2_DepthDuration_HTML.html#238,238,1366,768,1366,768,8-29-2022,11-28-15,31,depth_duration_stimuli/000493_2014-06-09_21-01-18_260595134347_rgbf000196-resize_3/000493_2014-06-09_21-01-18_260595134347_rgbf000196-resize_3-target.png,125,3.44,2,3092,125,feet,jsons/VE125_randls_73.json,1362344,2450184,29,Man
31,453024,DepthScenes,duration_manipulation_targetAtFixation,jsons/VE125_randls_73.json,http://54.235.29.9/FacialAge/BNav_EC2/DepthDuration/v2_depth_duration_MTurk/v2_DepthDuration_HTML.html#238,238,1366,768,1366,768,8-29-2022,11-28-15,32,depth_duration_stimuli/000191_2014-05-12_17-07-38_260595134347_rgbf000199-resize_0/000191_2014-05-12_17-07-38_260595134347_rgbf000199-resize_0-target.png,125,3.7995,2,2894,124,feet,jsons/VE125_randls_73.json,1362344,2450184,29,Man
32,453024,DepthScenes,duration_manipulation_targetAtFixation,jsons/VE125_randls_73.json,http://54.235.29.9/FacialAge/BNav_EC2/DepthDuration/v2_depth_duration_MTurk/v2_DepthDuration_HTML.html#238,238,1366,768,1366,768,8-29-2022,11-28-15,33,depth_duration_stimuli/000917_2014-06-09_22-45-29_260595134347_rgbf000149-resize_3/000917_2014-06-09_22-45-29_260595134347_rgbf000149-resize_3-target.png,125,4.1865,2,4293,123,feet,jsons/VE125_randls_73.json,1362344,2450184,29,Man
33,453024,DepthScenes,duration_manipulation_targetAtFixation,jsons/VE125_randls_73.json,http://54.235.29.9/FacialAge/BNav_EC2/DepthDuration/v2_depth_duration_MTurk/v2_DepthDuration_HTML.html#238,238,1366,768,1366,768,8-29-2022,11-28-15,34,depth_duration_stimuli/002323_2014-06-28_20-01-54_260595134347_rgbf000051-resize_4/002323_2014-06-28_20-01-54_260595134347_rgbf000051-resize_4-target.png,125,3.7310000000000003,2,2663,123,feet,jsons/VE125_randls_73.json,1362344,2450184,29,Man
34,453024,DepthScenes,duration_manipulation_targetAtFixation,jsons/VE125_randls_73.json,http://54.235.29.9/FacialAge/BNav_EC2/DepthDuration/v2_depth_duration_MTurk/v2_DepthDuration_HTML.html#238,238,1366,768,1366,768,8-29-2022,11-28-15,35,depth_duration_stimuli/000878_2014-06-08_22-52-45_260595134347_rgbf000045-resize_2/000878_2014-06-08_22-52-45_260595134347_rgbf000045-resize_2-target.png,125,2.092,2,2563,123,feet,jsons/VE125_randls_73.json,1362344,2450184,29,Man
35,453024,DepthScenes,duration_manipulation_targetAtFixation,jsons/VE125_randls_73.json,http://54.235.29.9/FacialAge/BNav_EC2/DepthDuration/v2_depth_duration_MTurk/v2_DepthDuration_HTML.html#238,238,1366,768,1366,768,8-29-2022,11-28-15,36,depth_duration_stimuli/002953_2014-06-08_17-32-18_094959634447_rgbf000059-resize_5/002953_2014-06-08_17-32-18_094959634447_rgbf000059-resize_5-target.png,125,1.551,2,2767,122,feet,jsons/VE125_randls_73.json,1362344,2450184,29,Man
36,453024,DepthScenes,duration_manipulation_targetAtFixation,jsons/VE125_randls_73.json,http://54.235.29.9/FacialAge/BNav_EC2/DepthDuration/v2_depth_duration_MTurk/v2_DepthDuration_HTML.html#238,238,1366,768,1366,768,8-29-2022,11-28-15,37,depth_duration_stimuli/000758_2014-06-08_22-05-08_260595134347_rgbf000085-resize_0/000758_2014-06-08_22-05-08_260595134347_rgbf000085-resize_0-target.png,125,3.3810000000000002,2,3444,122,feet,jsons/VE125_randls_73.json,1362344,2450184,29,Man
37,453024,DepthScenes,duration_manipulation_targetAtFixation,jsons/VE125_randls_73.json,http://54.235.29.9/FacialAge/BNav_EC2/DepthDuration/v2_depth_duration_MTurk/v2_DepthDuration_HTML.html#238,238,1366,768,1366,768,8-29-2022,11-28-15,38,depth_duration_stimuli/000854_2014-06-09_19-43-13_260595134347_rgbf000066-resize_0/000854_2014-06-09_19-43-13_260595134347_rgbf000066-resize_0-target.png,125,3.068,2,2614,143,feet,jsons/VE125_randls_73.json,1362344,2450184,29,Man
38,453024,DepthScenes,duration_manipulation_targetAtFixation,jsons/VE125_randls_73.json,http://54.235.29.9/FacialAge/BNav_EC2/DepthDuration/v2_depth_duration_MTurk/v2_DepthDuration_HTML.html#238,238,1366,768,1366,768,8-29-2022,11-28-15,39,depth_duration_stimuli/002153_2014-06-25_21-27-18_260595134347_rgbf000038-resize_5/002153_2014-06-25_21-27-18_260595134347_rgbf000038-resize_5-target.png,125,2.505,2,2689,123,feet,jsons/VE125_randls_73.json,1362344,2450184,29,Man
39,453024,DepthScenes,duration_manipulation_targetAtFixation,jsons/VE125_randls_73.json,http://54.235.29.9/FacialAge/BNav_EC2/DepthDuration/v2_depth_duration_MTurk/v2_DepthDuration_HTML.html#238,238,1366,768,1366,768,8-29-2022,11-28-15,40,depth_duration_stimuli/002660_2014-06-13_15-44-18_094959634447_rgbf001878-resize_2/002660_2014-06-13_15-44-18_094959634447_rgbf001878-resize_2-target.png,125,3.576,2,2594,124,feet,jsons/VE125_randls_73.json,1362344,2450184,29,Man
40,453024,DepthScenes,duration_manipulation_targetAtFixation,jsons/VE125_randls_73.json,http://54.235.29.9/FacialAge/BNav_EC2/DepthDuration/v2_depth_duration_MTurk/v2_DepthDuration_HTML.html#238,238,1366,768,1366,768,8-29-2022,11-28-15,41,depth_duration_stimuli/001055_2014-06-08_18-45-35_260595134347_rgbf000111-resize_4/001055_2014-06-08_18-45-35_260595134347_rgbf000111-resize_4-target.png,125,2.4290000000000003,2,2270,138,feet,jsons/VE125_randls_73.json,1362344,2450184,29,Man
41,453024,DepthScenes,duration_manipulation_targetAtFixation,jsons/VE125_randls_73.json,http://54.235.29.9/FacialAge/BNav_EC2/DepthDuration/v2_depth_duration_MTurk/v2_DepthDuration_HTML.html#238,238,1366,768,1366,768,8-29-2022,11-28-15,42,depth_duration_stimuli/000549_2014-06-08_22-10-24_260595134347_rgbf000247-resize_3/000549_2014-06-08_22-10-24_260595134347_rgbf000247-resize_3-target.png,125,1.841,2,5702,123,feet,jsons/VE125_randls_73.json,1362344,2450184,29,Man
42,453024,DepthScenes,duration_manipulation_targetAtFixation,jsons/VE125_randls_73.json,http://54.235.29.9/FacialAge/BNav_EC2/DepthDuration/v2_depth_duration_MTurk/v2_DepthDuration_HTML.html#238,238,1366,768,1366,768,8-29-2022,11-28-15,43,depth_duration_stimuli/002725_2014-06-22_11-47-51_094959634447_rgbf000070-resize_1/002725_2014-06-22_11-47-51_094959634447_rgbf000070-resize_1-target.png,125,2.195,2,2983,125,feet,jsons/VE125_randls_73.json,1362344,2450184,29,Man
43,453024,DepthScenes,duration_manipulation_targetAtFixation,jsons/VE125_randls_73.json,http://54.235.29.9/FacialAge/BNav_EC2/DepthDuration/v2_depth_duration_MTurk/v2_DepthDuration_HTML.html#238,238,1366,768,1366,768,8-29-2022,11-28-15,44,depth_duration_stimuli/002344_2014-06-28_20-06-29_260595134347_rgbf000030-resize_1/002344_2014-06-28_20-06-29_260595134347_rgbf000030-resize_1-target.png,125,1.5795,2,2705,124,feet,jsons/VE125_randls_73.json,1362344,2450184,29,Man
44,453024,DepthScenes,duration_manipulation_targetAtFixation,jsons/VE125_randls_73.json,http://54.235.29.9/FacialAge/BNav_EC2/DepthDuration/v2_depth_duration_MTurk/v2_DepthDuration_HTML.html#238,238,1366,768,1366,768,8-29-2022,11-28-15,45,depth_duration_stimuli/000787_2014-06-08_22-33-53_260595134347_rgbf000175-resize_1/000787_2014-06-08_22-33-53_260595134347_rgbf000175-resize-original.jpg,125,4.784,2,3111,125,feet,jsons/VE125_randls_73.json,1362344,2450184,29,Man
45,453024,DepthScenes,duration_manipulation_targetAtFixation,jsons/VE125_randls_73.json,http://54.235.29.9/FacialAge/BNav_EC2/DepthDuration/v2_depth_duration_MTurk/v2_DepthDuration_HTML.html#238,238,1366,768,1366,768,8-29-2022,11-28-15,46,depth_duration_stimuli/002784_2014-06-22_19-26-30_094959634447_rgbf000083-resize_3/002784_2014-06-22_19-26-30_094959634447_rgbf000083-resize_3-target.png,125,1.8046666666667,2,3642,123,feet,jsons/VE125_randls_73.json,1362344,2450184,29,Man
46,453024,DepthScenes,duration_manipulation_targetAtFixation,jsons/VE125_randls_73.json,http://54.235.29.9/FacialAge/BNav_EC2/DepthDuration/v2_depth_duration_MTurk/v2_DepthDuration_HTML.html#238,238,1366,768,1366,768,8-29-2022,11-28-15,47,depth_duration_stimuli/001100_2014-06-15_17-46-26_260595134347_rgbf000225-resize_2/001100_2014-06-15_17-46-26_260595134347_rgbf000225-resize_2-target.png,125,2.24,2,3119,124,feet,jsons/VE125_randls_73.json,1362344,2450184,29,Man
47,453024,DepthScenes,duration_manipulation_targetAtFixation,jsons/VE125_randls_73.json,http://54.235.29.9/FacialAge/BNav_EC2/DepthDuration/v2_depth_duration_MTurk/v2_DepthDuration_HTML.html#238,238,1366,768,1366,768,8-29-2022,11-28-15,48,depth_duration_stimuli/001016_2014-06-09_16-16-10_260595134347_rgbf000112-resize_5/001016_2014-06-09_16-16-10_260595134347_rgbf000112-resize_5-target.png,125,1.6565,2,4289,126,feet,jsons/VE125_randls_73.json,1362344,2450184,29,Man
48,453024,DepthScenes,duration_manipulation_targetAtFixation,jsons/VE125_randls_73.json,http://54.235.29.9/FacialAge/BNav_EC2/DepthDuration/v2_depth_duration_MTurk/v2_DepthDuration_HTML.html#238,238,1366,768,1366,768,8-29-2022,11-28-15,49,depth_duration_stimuli/002340_2014-06-28_20-05-46_260595134347_rgbf000113-resize_0/002340_2014-06-28_20-05-46_260595134347_rgbf000113-resize_0-target.png,125,2.4735,2,4697,123,feet,jsons/VE125_randls_73.json,1362344,2450184,29,Man
49,453024,DepthScenes,duration_manipulation_targetAtFixation,jsons/VE125_randls_73.json,http://54.235.29.9/FacialAge/BNav_EC2/DepthDuration/v2_depth_duration_MTurk/v2_DepthDuration_HTML.html#238,238,1366,768,1366,768,8-29-2022,11-28-15,50,depth_duration_stimuli/003621_2014-05-23_18-06-08_094959634447_rgbf000101-resize_1/003621_2014-05-23_18-06-08_094959634447_rgbf000101-resize_1-target.png,125,3.9835,2,3016,125,feet,jsons/VE125_randls_73.json,1362344,2450184,29,Man
50,453024,DepthScenes,duration_manipulation_targetAtFixation,jsons/VE125_randls_73.json,http://54.235.29.9/FacialAge/BNav_EC2/DepthDuration/v2_depth_duration_MTurk/v2_DepthDuration_HTML.html#238,238,1366,768,1366,768,8-29-2022,11-28-15,51,depth_duration_stimuli/001584_2014-06-20_11-07-43_260595134347_rgbf000002-resize_1/001584_2014-06-20_11-07-43_260595134347_rgbf000002-resize_1-target.png,125,3.53,2,4778,124,feet,jsons/VE125_randls_73.json,1362344,2450184,29,Man
51,453024,DepthScenes,duration_manipulation_targetAtFixation,jsons/VE125_randls_73.json,http://54.235.29.9/FacialAge/BNav_EC2/DepthDuration/v2_depth_duration_MTurk/v2_DepthDuration_HTML.html#238,238,1366,768,1366,768,8-29-2022,11-28-15,52,depth_duration_stimuli/002549_2014-06-24_13-41-39_094959634447_rgbf000022-resize_3/002549_2014-06-24_13-41-39_094959634447_rgbf000022-resize_3-target.png,125,1.476,2,2832,123,feet,jsons/VE125_randls_73.json,1362344,2450184,29,Man
52,453024,DepthScenes,duration_manipulation_targetAtFixation,jsons/VE125_randls_73.json,http://54.235.29.9/FacialAge/BNav_EC2/DepthDuration/v2_depth_duration_MTurk/v2_DepthDuration_HTML.html#238,238,1366,768,1366,768,8-29-2022,11-28-15,53,depth_duration_stimuli/002750_2014-06-22_19-08-03_094959634447_rgbf000094-resize_4/002750_2014-06-22_19-08-03_094959634447_rgbf000094-resize_4-target.png,125,2.354,2,3168,122,feet,jsons/VE125_randls_73.json,1362344,2450184,29,Man
53,453024,DepthScenes,duration_manipulation_targetAtFixation,jsons/VE125_randls_73.json,http://54.235.29.9/FacialAge/BNav_EC2/DepthDuration/v2_depth_duration_MTurk/v2_DepthDuration_HTML.html#238,238,1366,768,1366,768,8-29-2022,11-28-15,54,depth_duration_stimuli/002570_2014-06-24_13-59-54_094959634447_rgbf000059-resize_0/002570_2014-06-24_13-59-54_094959634447_rgbf000059-resize_0-target.png,125,4.037,5,92843,121,feet,jsons/VE125_randls_73.json,1362344,2450184,29,Man
54,453024,DepthScenes,duration_manipulation_targetAtFixation,jsons/VE125_randls_73.json,http://54.235.29.9/FacialAge/BNav_EC2/DepthDuration/v2_depth_duration_MTurk/v2_DepthDuration_HTML.html#238,238,1366,768,1366,768,8-29-2022,11-28-15,55,depth_duration_stimuli/002467_2014-06-28_20-38-07_260595134347_rgbf000026-resize_2/002467_2014-06-28_20-38-07_260595134347_rgbf000026-resize_2-target.png,125,4.742,5,3965,124,feet,jsons/VE125_randls_73.json,1362344,2450184,29,Man
55,453024,DepthScenes,duration_manipulation_targetAtFixation,jsons/VE125_randls_73.json,http://54.235.29.9/FacialAge/BNav_EC2/DepthDuration/v2_depth_duration_MTurk/v2_DepthDuration_HTML.html#238,238,1366,768,1366,768,8-29-2022,11-28-15,56,depth_duration_stimuli/001029_2014-06-08_13-17-57_260595134347_rgbf000065-resize_1/001029_2014-06-08_13-17-57_260595134347_rgbf000065-resize_1-target.png,125,3.0835,5,2481,123,feet,jsons/VE125_randls_73.json,1362344,2450184,29,Man
56,453024,DepthScenes,duration_manipulation_targetAtFixation,jsons/VE125_randls_73.json,http://54.235.29.9/FacialAge/BNav_EC2/DepthDuration/v2_depth_duration_MTurk/v2_DepthDuration_HTML.html#238,238,1366,768,1366,768,8-29-2022,11-28-15,57,depth_duration_stimuli/000677_2014-06-08_23-10-32_260595134347_rgbf000158-resize_6/000677_2014-06-08_23-10-32_260595134347_rgbf000158-resize_6-target.png,125,3.556,5,2673,122,feet,jsons/VE125_randls_73.json,1362344,2450184,29,Man
57,453024,DepthScenes,duration_manipulation_targetAtFixation,jsons/VE125_randls_73.json,http://54.235.29.9/FacialAge/BNav_EC2/DepthDuration/v2_depth_duration_MTurk/v2_DepthDuration_HTML.html#238,238,1366,768,1366,768,8-29-2022,11-28-15,58,depth_duration_stimuli/001808_2014-06-26_20-50-58_260595134347_rgbf000029-resize_1/001808_2014-06-26_20-50-58_260595134347_rgbf000029-resize_1-target.png,125,4.249,5,2668,124,feet,jsons/VE125_randls_73.json,1362344,2450184,29,Man
58,453024,DepthScenes,duration_manipulation_targetAtFixation,jsons/VE125_randls_73.json,http://54.235.29.9/FacialAge/BNav_EC2/DepthDuration/v2_depth_duration_MTurk/v2_DepthDuration_HTML.html#238,238,1366,768,1366,768,8-29-2022,11-28-15,59,depth_duration_stimuli/001815_2014-06-26_20-52-55_260595134347_rgbf000020-resize_0/001815_2014-06-26_20-52-55_260595134347_rgbf000020-resize_0-target.png,125,3.3865,5,2920,124,feet,jsons/VE125_randls_73.json,1362344,2450184,29,Man
59,453024,DepthScenes,duration_manipulation_targetAtFixation,jsons/VE125_randls_73.json,http://54.235.29.9/FacialAge/BNav_EC2/DepthDuration/v2_depth_duration_MTurk/v2_DepthDuration_HTML.html#238,238,1366,768,1366,768,8-29-2022,11-28-15,60,depth_duration_stimuli/001806_2014-06-26_20-50-20_260595134347_rgbf000091-resize_1/001806_2014-06-26_20-50-20_260595134347_rgbf000091-resize_1-target.png,125,2.7305,5,3294,125,feet,jsons/VE125_randls_73.json,1362344,2450184,29,Man
60,453024,DepthScenes,duration_manipulation_targetAtFixation,jsons/VE125_randls_73.json,http://54.235.29.9/FacialAge/BNav_EC2/DepthDuration/v2_depth_duration_MTurk/v2_DepthDuration_HTML.html#238,238,1366,768,1366,768,8-29-2022,11-28-15,61,depth_duration_stimuli/001617_2014-06-20_11-35-32_260595134347_rgbf000066-resize_1/001617_2014-06-20_11-35-32_260595134347_rgbf000066-resize_1-target.png,125,3.7910000000000004,5,2911,123,feet,jsons/VE125_randls_73.json,1362344,2450184,29,Man
61,453024,DepthScenes,duration_manipulation_targetAtFixation,jsons/VE125_randls_73.json,http://54.235.29.9/FacialAge/BNav_EC2/DepthDuration/v2_depth_duration_MTurk/v2_DepthDuration_HTML.html#238,238,1366,768,1366,768,8-29-2022,11-28-15,62,depth_duration_stimuli/001158_2014-06-17_15-32-16_260595134347_rgbf000138-resize_2/001158_2014-06-17_15-32-16_260595134347_rgbf000138-resize_2-target.png,125,4.5315,5,2466,123,feet,jsons/VE125_randls_73.json,1362344,2450184,29,Man
62,453024,DepthScenes,duration_manipulation_targetAtFixation,jsons/VE125_randls_73.json,http://54.235.29.9/FacialAge/BNav_EC2/DepthDuration/v2_depth_duration_MTurk/v2_DepthDuration_HTML.html#238,238,1366,768,1366,768,8-29-2022,11-28-15,63,depth_duration_stimuli/000556_2014-06-09_22-42-56_260595134347_rgbf000214-resize_1/000556_2014-06-09_22-42-56_260595134347_rgbf000214-resize_1-target.png,125,4.8415,5,2519,124,feet,jsons/VE125_randls_73.json,1362344,2450184,29,Man
63,453024,DepthScenes,duration_manipulation_targetAtFixation,jsons/VE125_randls_73.json,http://54.235.29.9/FacialAge/BNav_EC2/DepthDuration/v2_depth_duration_MTurk/v2_DepthDuration_HTML.html#238,238,1366,768,1366,768,8-29-2022,11-28-15,64,depth_duration_stimuli/002039_2014-06-24_20-22-38_260595134347_rgbf000084-resize_1/002039_2014-06-24_20-22-38_260595134347_rgbf000084-resize_1-target.png,125,4.408,5,3128,123,feet,jsons/VE125_randls_73.json,1362344,2450184,29,Man
64,453024,DepthScenes,duration_manipulation_targetAtFixation,jsons/VE125_randls_73.json,http://54.235.29.9/FacialAge/BNav_EC2/DepthDuration/v2_depth_duration_MTurk/v2_DepthDuration_HTML.html#238,238,1366,768,1366,768,8-29-2022,11-28-15,65,depth_duration_stimuli/002103_2014-06-25_20-00-40_260595134347_rgbf000049-resize_0/002103_2014-06-25_20-00-40_260595134347_rgbf000049-resize_0-target.png,125,4.105,2,2950,123,feet,jsons/VE125_randls_73.json,1362344,2450184,29,Man
65,453024,DepthScenes,duration_manipulation_targetAtFixation,jsons/VE125_randls_73.json,http://54.235.29.9/FacialAge/BNav_EC2/DepthDuration/v2_depth_duration_MTurk/v2_DepthDuration_HTML.html#238,238,1366,768,1366,768,8-29-2022,11-28-15,66,depth_duration_stimuli/001222_2014-06-17_16-24-06_260595134347_rgbf000073-resize_0/001222_2014-06-17_16-24-06_260595134347_rgbf000073-resize-original.jpg,125,1.4385,2,4447,126,feet,jsons/VE125_randls_73.json,1362344,2450184,29,Man
66,453024,DepthScenes,duration_manipulation_targetAtFixation,jsons/VE125_randls_73.json,http://54.235.29.9/FacialAge/BNav_EC2/DepthDuration/v2_depth_duration_MTurk/v2_DepthDuration_HTML.html#238,238,1366,768,1366,768,8-29-2022,11-28-15,67,depth_duration_stimuli/001449_2014-06-19_17-01-27_260595134347_rgbf000116-resize_2/001449_2014-06-19_17-01-27_260595134347_rgbf000116-resize_2-target.png,125,3.452,2,5860,125,feet,jsons/VE125_randls_73.json,1362344,2450184,29,Man
67,453024,DepthScenes,duration_manipulation_targetAtFixation,jsons/VE125_randls_73.json,http://54.235.29.9/FacialAge/BNav_EC2/DepthDuration/v2_depth_duration_MTurk/v2_DepthDuration_HTML.html#238,238,1366,768,1366,768,8-29-2022,11-28-15,68,depth_duration_stimuli/001450_2014-06-19_17-02-03_260595134347_rgbf000203-resize_4/001450_2014-06-19_17-02-03_260595134347_rgbf000203-resize_4-target.png,125,4.0106666666667,2,7182,124,feet,jsons/VE125_randls_73.json,1362344,2450184,29,Man
68,453024,DepthScenes,duration_manipulation_targetAtFixation,jsons/VE125_randls_73.json,http://54.235.29.9/FacialAge/BNav_EC2/DepthDuration/v2_depth_duration_MTurk/v2_DepthDuration_HTML.html#238,238,1366,768,1366,768,8-29-2022,11-28-15,69,depth_duration_stimuli/001199_2014-06-17_16-03-48_260595134347_rgbf000077-resize_0/001199_2014-06-17_16-03-48_260595134347_rgbf000077-resize_0-target.png,125,3.4375,2,2742,111,feet,jsons/VE125_randls_73.json,1362344,2450184,29,Man
69,453024,DepthScenes,duration_manipulation_targetAtFixation,jsons/VE125_randls_73.json,http://54.235.29.9/FacialAge/BNav_EC2/DepthDuration/v2_depth_duration_MTurk/v2_DepthDuration_HTML.html#238,238,1366,768,1366,768,8-29-2022,11-28-15,70,depth_duration_stimuli/000502_2014-06-08_23-02-32_260595134347_rgbf000063-resize_4/000502_2014-06-08_23-02-32_260595134347_rgbf000063-resize_4-target.png,125,2.431,2,5590,123,feet,jsons/VE125_randls_73.json,1362344,2450184,29,Man
70,453024,DepthScenes,duration_manipulation_targetAtFixation,jsons/VE125_randls_73.json,http://54.235.29.9/FacialAge/BNav_EC2/DepthDuration/v2_depth_duration_MTurk/v2_DepthDuration_HTML.html#238,238,1366,768,1366,768,8-29-2022,11-28-15,71,depth_duration_stimuli/000469_2014-06-09_19-42-10_260595134347_rgbf000081-resize_1/000469_2014-06-09_19-42-10_260595134347_rgbf000081-resize_1-target.png,125,1.652,2,2188,123,feet,jsons/VE125_randls_73.json,1362344,2450184,29,Man
71,453024,DepthScenes,duration_manipulation_targetAtFixation,jsons/VE125_randls_73.json,http://54.235.29.9/FacialAge/BNav_EC2/DepthDuration/v2_depth_duration_MTurk/v2_DepthDuration_HTML.html#238,238,1366,768,1366,768,8-29-2022,11-28-15,72,depth_duration_stimuli/000483_2014-06-09_20-41-45_260595134347_rgbf000116-resize_4/000483_2014-06-09_20-41-45_260595134347_rgbf000116-resize_4-target.png,125,1.337,2,2274,123,feet,jsons/VE125_randls_73.json,1362344,2450184,29,Man
72,453024,DepthScenes,duration_manipulation_targetAtFixation,jsons/VE125_randls_73.json,http://54.235.29.9/FacialAge/BNav_EC2/DepthDuration/v2_depth_duration_MTurk/v2_DepthDuration_HTML.html#238,238,1366,768,1366,768,8-29-2022,11-28-15,73,depth_duration_stimuli/002964_2014-06-08_17-46-11_094959634447_rgbf000091-resize_4/002964_2014-06-08_17-46-11_094959634447_rgbf000091-resize_4-target.png,125,1.6909999999999998,2,2833,125,feet,jsons/VE125_randls_73.json,1362344,2450184,29,Man
73,453024,DepthScenes,duration_manipulation_targetAtFixation,jsons/VE125_randls_73.json,http://54.235.29.9/FacialAge/BNav_EC2/DepthDuration/v2_depth_duration_MTurk/v2_DepthDuration_HTML.html#238,238,1366,768,1366,768,8-29-2022,11-28-15,74,depth_duration_stimuli/002136_2014-06-25_21-18-03_260595134347_rgbf000109-resize_3/002136_2014-06-25_21-18-03_260595134347_rgbf000109-resize_3-target.png,125,1.9569999999999999,5,4957,123,feet,jsons/VE125_randls_73.json,1362344,2450184,29,Man
74,453024,DepthScenes,duration_manipulation_targetAtFixation,jsons/VE125_randls_73.json,http://54.235.29.9/FacialAge/BNav_EC2/DepthDuration/v2_depth_duration_MTurk/v2_DepthDuration_HTML.html#238,238,1366,768,1366,768,8-29-2022,11-28-15,75,depth_duration_stimuli/001150_2014-06-17_15-27-34_260595134347_rgbf000108-resize_2/001150_2014-06-17_15-27-34_260595134347_rgbf000108-resize_2-target.png,125,4.0325,3,3209,123,feet,jsons/VE125_randls_73.json,1362344,2450184,29,Man
75,453024,DepthScenes,duration_manipulation_targetAtFixation,jsons/VE125_randls_73.json,http://54.235.29.9/FacialAge/BNav_EC2/DepthDuration/v2_depth_duration_MTurk/v2_DepthDuration_HTML.html#238,238,1366,768,1366,768,8-29-2022,11-28-15,76,depth_duration_stimuli/000665_2014-06-09_20-42-35_260595134347_rgbf000110-resize_1/000665_2014-06-09_20-42-35_260595134347_rgbf000110-resize_1-target.png,125,3.057,5,3392,124,feet,jsons/VE125_randls_73.json,1362344,2450184,29,Man
76,453024,DepthScenes,duration_manipulation_targetAtFixation,jsons/VE125_randls_73.json,http://54.235.29.9/FacialAge/BNav_EC2/DepthDuration/v2_depth_duration_MTurk/v2_DepthDuration_HTML.html#238,238,1366,768,1366,768,8-29-2022,11-28-15,77,depth_duration_stimuli/000414_2014-06-04_19-49-13_260595134347_rgbf000044-resize_0/000414_2014-06-04_19-49-13_260595134347_rgbf000044-resize_0-target.png,125,4.329,2,7415,123,feet,jsons/VE125_randls_73.json,1362344,2450184,29,Man
77,453024,DepthScenes,duration_manipulation_targetAtFixation,jsons/VE125_randls_73.json,http://54.235.29.9/FacialAge/BNav_EC2/DepthDuration/v2_depth_duration_MTurk/v2_DepthDuration_HTML.html#238,238,1366,768,1366,768,8-29-2022,11-28-15,78,depth_duration_stimuli/003129_2014-05-12_10-48-10_094959634447_rgbf000100-resize_0/003129_2014-05-12_10-48-10_094959634447_rgbf000100-resize_0-target.png,125,4.9305,3,13488,123,feet,jsons/VE125_randls_73.json,1362344,2450184,29,Man
78,453024,DepthScenes,duration_manipulation_targetAtFixation,jsons/VE125_randls_73.json,http://54.235.29.9/FacialAge/BNav_EC2/DepthDuration/v2_depth_duration_MTurk/v2_DepthDuration_HTML.html#238,238,1366,768,1366,768,8-29-2022,11-28-15,79,depth_duration_stimuli/000773_2014-06-08_22-24-54_260595134347_rgbf000093-resize_1/000773_2014-06-08_22-24-54_260595134347_rgbf000093-resize_1-target.png,125,4.973,2,2759,123,feet,jsons/VE125_randls_73.json,1362344,2450184,29,Man
79,453024,DepthScenes,duration_manipulation_targetAtFixation,jsons/VE125_randls_73.json,http://54.235.29.9/FacialAge/BNav_EC2/DepthDuration/v2_depth_duration_MTurk/v2_DepthDuration_HTML.html#238,238,1366,768,1366,768,8-29-2022,11-28-15,80,depth_duration_stimuli/002414_2014-06-28_20-24-58_260595134347_rgbf000067-resize_4/002414_2014-06-28_20-24-58_260595134347_rgbf000067-resize_4-target.png,125,4.363,2,3687,124,feet,jsons/VE125_randls_73.json,1362344,2450184,29,Man
80,453024,DepthScenes,duration_manipulation_targetAtFixation,jsons/VE125_randls_73.json,http://54.235.29.9/FacialAge/BNav_EC2/DepthDuration/v2_depth_duration_MTurk/v2_DepthDuration_HTML.html#238,238,1366,768,1366,768,8-29-2022,11-28-15,81,depth_duration_stimuli/002057_2014-06-24_21-00-13_260595134347_rgbf000120-resize_1/002057_2014-06-24_21-00-13_260595134347_rgbf000120-resize_1-target.png,125,2.967,2,2738,124,feet,jsons/VE125_randls_73.json,1362344,2450184,29,Man
81,453024,DepthScenes,duration_manipulation_targetAtFixation,jsons/VE125_randls_73.json,http://54.235.29.9/FacialAge/BNav_EC2/DepthDuration/v2_depth_duration_MTurk/v2_DepthDuration_HTML.html#238,238,1366,768,1366,768,8-29-2022,11-28-15,82,depth_duration_stimuli/000709_2014-06-08_13-51-55_260595134347_rgbf000068-resize_3/000709_2014-06-08_13-51-55_260595134347_rgbf000068-resize_3-target.png,125,1.8030000000000002,2,2362,124,feet,jsons/VE125_randls_73.json,1362344,2450184,29,Man
82,453024,DepthScenes,duration_manipulation_targetAtFixation,jsons/VE125_randls_73.json,http://54.235.29.9/FacialAge/BNav_EC2/DepthDuration/v2_depth_duration_MTurk/v2_DepthDuration_HTML.html#238,238,1366,768,1366,768,8-29-2022,11-28-15,83,depth_duration_stimuli/002600_2014-06-24_14-27-04_094959634447_rgbf000074-resize_2/002600_2014-06-24_14-27-04_094959634447_rgbf000074-resize_2-target.png,125,2.7575,2,2478,125,feet,jsons/VE125_randls_73.json,1362344,2450184,29,Man
83,453024,DepthScenes,duration_manipulation_targetAtFixation,jsons/VE125_randls_73.json,http://54.235.29.9/FacialAge/BNav_EC2/DepthDuration/v2_depth_duration_MTurk/v2_DepthDuration_HTML.html#238,238,1366,768,1366,768,8-29-2022,11-28-15,84,depth_duration_stimuli/003228_2014-05-14_13-42-35_094959634447_rgbf000101-resize_1/003228_2014-05-14_13-42-35_094959634447_rgbf000101-resize_1-target.png,125,1.9680000000000002,2,2362,122,feet,jsons/VE125_randls_73.json,1362344,2450184,29,Man
84,453024,DepthScenes,duration_manipulation_targetAtFixation,jsons/VE125_randls_73.json,http://54.235.29.9/FacialAge/BNav_EC2/DepthDuration/v2_depth_duration_MTurk/v2_DepthDuration_HTML.html#238,238,1366,768,1366,768,8-29-2022,11-28-15,85,depth_duration_stimuli/002213_2014-06-28_18-37-58_260595134347_rgbf000055-resize_1/002213_2014-06-28_18-37-58_260595134347_rgbf000055-resize_1-target.png,125,3.62,2,4217,124,feet,jsons/VE125_randls_73.json,1362344,2450184,29,Man
85,453024,DepthScenes,duration_manipulation_targetAtFixation,jsons/VE125_randls_73.json,http://54.235.29.9/FacialAge/BNav_EC2/DepthDuration/v2_depth_duration_MTurk/v2_DepthDuration_HTML.html#238,238,1366,768,1366,768,8-29-2022,11-28-15,86,depth_duration_stimuli/000691_2014-06-08_13-08-50_260595134347_rgbf000132-resize_3/000691_2014-06-08_13-08-50_260595134347_rgbf000132-resize_3-target.png,125,4.1530000000000005,2,2831,123,feet,jsons/VE125_randls_73.json,1362344,2450184,29,Man
86,453024,DepthScenes,duration_manipulation_targetAtFixation,jsons/VE125_randls_73.json,http://54.235.29.9/FacialAge/BNav_EC2/DepthDuration/v2_depth_duration_MTurk/v2_DepthDuration_HTML.html#238,238,1366,768,1366,768,8-29-2022,11-28-15,87,depth_duration_stimuli/002763_2014-06-22_19-13-10_094959634447_rgbf000075-resize_4/002763_2014-06-22_19-13-10_094959634447_rgbf000075-resize_4-target.png,125,1.68375,2,2640,125,feet,jsons/VE125_randls_73.json,1362344,2450184,29,Man
87,453024,DepthScenes,duration_manipulation_targetAtFixation,jsons/VE125_randls_73.json,http://54.235.29.9/FacialAge/BNav_EC2/DepthDuration/v2_depth_duration_MTurk/v2_DepthDuration_HTML.html#238,238,1366,768,1366,768,8-29-2022,11-28-15,88,depth_duration_stimuli/002209_2014-06-28_18-36-10_260595134347_rgbf000051-resize_1/002209_2014-06-28_18-36-10_260595134347_rgbf000051-resize_1-target.png,125,2.057,2,2487,122,feet,jsons/VE125_randls_73.json,1362344,2450184,29,Man
88,453024,DepthScenes,duration_manipulation_targetAtFixation,jsons/VE125_randls_73.json,http://54.235.29.9/FacialAge/BNav_EC2/DepthDuration/v2_depth_duration_MTurk/v2_DepthDuration_HTML.html#238,238,1366,768,1366,768,8-29-2022,11-28-15,89,depth_duration_stimuli/000486_2014-06-09_20-47-20_260595134347_rgbf000143-resize_2/000486_2014-06-09_20-47-20_260595134347_rgbf000143-resize_2-target.png,125,4.8325,2,2344,125,feet,jsons/VE125_randls_73.json,1362344,2450184,29,Man
89,453024,DepthScenes,duration_manipulation_targetAtFixation,jsons/VE125_randls_73.json,http://54.235.29.9/FacialAge/BNav_EC2/DepthDuration/v2_depth_duration_MTurk/v2_DepthDuration_HTML.html#238,238,1366,768,1366,768,8-29-2022,11-28-15,90,depth_duration_stimuli/003083_2014-06-15_15-21-03_094959634447_rgbf000063-resize_1/003083_2014-06-15_15-21-03_094959634447_rgbf000063-resize_1-target.png,125,4.1405,2,5775,124,feet,jsons/VE125_randls_73.json,1362344,2450184,29,Man
90,453024,DepthScenes,duration_manipulation_targetAtFixation,jsons/VE125_randls_73.json,http://54.235.29.9/FacialAge/BNav_EC2/DepthDuration/v2_depth_duration_MTurk/v2_DepthDuration_HTML.html#238,238,1366,768,1366,768,8-29-2022,11-28-15,91,depth_duration_stimuli/001110_2014-06-15_17-25-28_260595134347_rgbf000150-resize_1/001110_2014-06-15_17-25-28_260595134347_rgbf000150-resize_1-target.png,125,1.7115,2,32641,123,feet,jsons/VE125_randls_73.json,1362344,2450184,29,Man
91,453024,DepthScenes,duration_manipulation_targetAtFixation,jsons/VE125_randls_73.json,http://54.235.29.9/FacialAge/BNav_EC2/DepthDuration/v2_depth_duration_MTurk/v2_DepthDuration_HTML.html#238,238,1366,768,1366,768,8-29-2022,11-28-15,92,depth_duration_stimuli/000927_2014-06-09_16-32-30_260595134347_rgbf000123-resize_3/000927_2014-06-09_16-32-30_260595134347_rgbf000123-resize_3-target.png,125,2.6785,2,51629,122,feet,jsons/VE125_randls_73.json,1362344,2450184,29,Man
92,453024,DepthScenes,duration_manipulation_targetAtFixation,jsons/VE125_randls_73.json,http://54.235.29.9/FacialAge/BNav_EC2/DepthDuration/v2_depth_duration_MTurk/v2_DepthDuration_HTML.html#238,238,1366,768,1366,768,8-29-2022,11-28-15,93,depth_duration_stimuli/003070_2014-06-15_14-58-27_094959634447_rgbf000150-resize_3/003070_2014-06-15_14-58-27_094959634447_rgbf000150-resize_3-target.png,125,2.9415,2,4045,121,feet,jsons/VE125_randls_73.json,1362344,2450184,29,Man
93,453024,DepthScenes,duration_manipulation_targetAtFixation,jsons/VE125_randls_73.json,http://54.235.29.9/FacialAge/BNav_EC2/DepthDuration/v2_depth_duration_MTurk/v2_DepthDuration_HTML.html#238,238,1366,768,1366,768,8-29-2022,11-28-15,94,depth_duration_stimuli/000943_2014-06-09_19-31-07_260595134347_rgbf000128-resize_1/000943_2014-06-09_19-31-07_260595134347_rgbf000128-resize_1-target.png,125,1.9765,2,3619,123,feet,jsons/VE125_randls_73.json,1362344,2450184,29,Man
94,453024,DepthScenes,duration_manipulation_targetAtFixation,jsons/VE125_randls_73.json,http://54.235.29.9/FacialAge/BNav_EC2/DepthDuration/v2_depth_duration_MTurk/v2_DepthDuration_HTML.html#238,238,1366,768,1366,768,8-29-2022,11-28-15,95,depth_duration_stimuli/001059_2014-06-08_21-53-27_260595134347_rgbf000061-resize_4/001059_2014-06-08_21-53-27_260595134347_rgbf000061-resize_4-target.png,125,2.4185,2,4807,123,feet,jsons/VE125_randls_73.json,1362344,2450184,29,Man
95,453024,DepthScenes,duration_manipulation_targetAtFixation,jsons/VE125_randls_73.json,http://54.235.29.9/FacialAge/BNav_EC2/DepthDuration/v2_depth_duration_MTurk/v2_DepthDuration_HTML.html#238,238,1366,768,1366,768,8-29-2022,11-28-15,96,depth_duration_stimuli/001032_2014-06-08_13-23-17_260595134347_rgbf000021-resize_3/001032_2014-06-08_13-23-17_260595134347_rgbf000021-resize_3-target.png,125,3.2725,2,3271,137,feet,jsons/VE125_randls_73.json,1362344,2450184,29,Man
96,453024,DepthScenes,duration_manipulation_targetAtFixation,jsons/VE125_randls_73.json,http://54.235.29.9/FacialAge/BNav_EC2/DepthDuration/v2_depth_duration_MTurk/v2_DepthDuration_HTML.html#238,238,1366,768,1366,768,8-29-2022,11-28-15,97,depth_duration_stimuli/002748_2014-06-22_19-07-22_094959634447_rgbf000078-resize_1/002748_2014-06-22_19-07-22_094959634447_rgbf000078-resize_1-target.png,125,4.6705,2,4551,123,feet,jsons/VE125_randls_73.json,1362344,2450184,29,Man
97,453024,DepthScenes,duration_manipulation_targetAtFixation,jsons/VE125_randls_73.json,http://54.235.29.9/FacialAge/BNav_EC2/DepthDuration/v2_depth_duration_MTurk/v2_DepthDuration_HTML.html#238,238,1366,768,1366,768,8-29-2022,11-28-15,98,depth_duration_stimuli/002995_2014-06-15_12-31-26_094959634447_rgbf000150-resize_1/002995_2014-06-15_12-31-26_094959634447_rgbf000150-resize_1-target.png,125,3.8360000000000003,2,5833,124,feet,jsons/VE125_randls_73.json,1362344,2450184,29,Man
98,453024,DepthScenes,duration_manipulation_targetAtFixation,jsons/VE125_randls_73.json,http://54.235.29.9/FacialAge/BNav_EC2/DepthDuration/v2_depth_duration_MTurk/v2_DepthDuration_HTML.html#238,238,1366,768,1366,768,8-29-2022,11-28-15,99,depth_duration_stimuli/001540_2014-06-20_17-01-05_260595134347_rgbf000086-resize_2/001540_2014-06-20_17-01-05_260595134347_rgbf000086-resize-original.jpg,125,1.459,2,4344,122,feet,jsons/VE125_randls_73.json,1362344,2450184,29,Man
99,453024,DepthScenes,duration_manipulation_targetAtFixation,jsons/VE125_randls_73.json,http://54.235.29.9/FacialAge/BNav_EC2/DepthDuration/v2_depth_duration_MTurk/v2_DepthDuration_HTML.html#238,238,1366,768,1366,768,8-29-2022,11-28-15,100,depth_duration_stimuli/002445_2014-06-28_20-32-16_260595134347_rgbf000029-resize_4/002445_2014-06-28_20-32-16_260595134347_rgbf000029-resize_4-target.png,125,2.5315,2,3379,124,feet,jsons/VE125_randls_73.json,1362344,2450184,29,Man
100,453024,DepthScenes,duration_manipulation_targetAtFixation,jsons/VE125_randls_73.json,http://54.235.29.9/FacialAge/BNav_EC2/DepthDuration/v2_depth_duration_MTurk/v2_DepthDuration_HTML.html#238,238,1366,768,1366,768,8-29-2022,11-28-15,101,depth_duration_stimuli/000780_2014-06-08_22-28-29_260595134347_rgbf000126-resize_1/000780_2014-06-08_22-28-29_260595134347_rgbf000126-resize_1-target.png,125,3.3825,2,2347,147,feet,jsons/VE125_randls_73.json,1362344,2450184,29,Man
101,453024,DepthScenes,duration_manipulation_targetAtFixation,jsons/VE125_randls_73.json,http://54.235.29.9/FacialAge/BNav_EC2/DepthDuration/v2_depth_duration_MTurk/v2_DepthDuration_HTML.html#238,238,1366,768,1366,768,8-29-2022,11-28-15,102,depth_duration_stimuli/000692_2014-06-08_13-09-42_260595134347_rgbf000199-resize_2/000692_2014-06-08_13-09-42_260595134347_rgbf000199-resize_2-target.png,125,3.661,2,2076,122,feet,jsons/VE125_randls_73.json,1362344,2450184,29,Man
102,453024,DepthScenes,duration_manipulation_targetAtFixation,jsons/VE125_randls_73.json,http://54.235.29.9/FacialAge/BNav_EC2/DepthDuration/v2_depth_duration_MTurk/v2_DepthDuration_HTML.html#238,238,1366,768,1366,768,8-29-2022,11-28-15,103,depth_duration_stimuli/001094_2014-06-15_17-36-00_260595134347_rgbf000205-resize_0/001094_2014-06-15_17-36-00_260595134347_rgbf000205-resize_0-target.png,125,4.2175,2,3478,125,feet,jsons/VE125_randls_73.json,1362344,2450184,29,Man
103,453024,DepthScenes,duration_manipulation_targetAtFixation,jsons/VE125_randls_73.json,http://54.235.29.9/FacialAge/BNav_EC2/DepthDuration/v2_depth_duration_MTurk/v2_DepthDuration_HTML.html#238,238,1366,768,1366,768,8-29-2022,11-28-15,104,depth_duration_stimuli/002043_2014-06-24_20-29-38_260595134347_rgbf000039-resize_4/002043_2014-06-24_20-29-38_260595134347_rgbf000039-resize_4-target.png,125,2.8435,2,3527,125,feet,jsons/VE125_randls_73.json,1362344,2450184,29,Man
104,453024,DepthScenes,duration_manipulation_targetAtFixation,jsons/VE125_randls_73.json,http://54.235.29.9/FacialAge/BNav_EC2/DepthDuration/v2_depth_duration_MTurk/v2_DepthDuration_HTML.html#238,238,1366,768,1366,768,8-29-2022,11-28-15,105,depth_duration_stimuli/003048_2014-06-15_13-49-43_094959634447_rgbf000150-resize_1/003048_2014-06-15_13-49-43_094959634447_rgbf000150-resize_1-target.png,125,4.0035,2,8244,138,feet,jsons/VE125_randls_73.json,1362344,2450184,29,Man
105,453024,DepthScenes,duration_manipulation_targetAtFixation,jsons/VE125_randls_73.json,http://54.235.29.9/FacialAge/BNav_EC2/DepthDuration/v2_depth_duration_MTurk/v2_DepthDuration_HTML.html#238,238,1366,768,1366,768,8-29-2022,11-28-15,106,depth_duration_stimuli/001244_2014-06-17_16-47-45_260595134347_rgbf000030-resize_4/001244_2014-06-17_16-47-45_260595134347_rgbf000030-resize_4-target.png,125,2.0425,2,2705,122,feet,jsons/VE125_randls_73.json,1362344,2450184,29,Man
106,453024,DepthScenes,duration_manipulation_targetAtFixation,jsons/VE125_randls_73.json,http://54.235.29.9/FacialAge/BNav_EC2/DepthDuration/v2_depth_duration_MTurk/v2_DepthDuration_HTML.html#238,238,1366,768,1366,768,8-29-2022,11-28-15,107,depth_duration_stimuli/003495_2014-05-21_16-01-51_094959634447_rgbf000100-resize_3/003495_2014-05-21_16-01-51_094959634447_rgbf000100-resize_3-target.png,125,1.6255,2,2398,124,feet,jsons/VE125_randls_73.json,1362344,2450184,29,Man
107,453024,DepthScenes,duration_manipulation_targetAtFixation,jsons/VE125_randls_73.json,http://54.235.29.9/FacialAge/BNav_EC2/DepthDuration/v2_depth_duration_MTurk/v2_DepthDuration_HTML.html#238,238,1366,768,1366,768,8-29-2022,11-28-15,108,depth_duration_stimuli/002988_2014-06-15_12-24-20_094959634447_rgbf000150-resize_1/002988_2014-06-15_12-24-20_094959634447_rgbf000150-resize_1-target.png,125,4.7669999999999995,2,2674,124,feet,jsons/VE125_randls_73.json,1362344,2450184,29,Man
108,453024,DepthScenes,duration_manipulation_targetAtFixation,jsons/VE125_randls_73.json,http://54.235.29.9/FacialAge/BNav_EC2/DepthDuration/v2_depth_duration_MTurk/v2_DepthDuration_HTML.html#238,238,1366,768,1366,768,8-29-2022,11-28-15,109,depth_duration_stimuli/001052_2014-06-08_18-24-54_260595134347_rgbf000130-resize_1/001052_2014-06-08_18-24-54_260595134347_rgbf000130-resize_1-target.png,125,4.1045,2,173291,124,feet,jsons/VE125_randls_73.json,1362344,2450184,29,Man
109,453024,DepthScenes,duration_manipulation_targetAtFixation,jsons/VE125_randls_73.json,http://54.235.29.9/FacialAge/BNav_EC2/DepthDuration/v2_depth_duration_MTurk/v2_DepthDuration_HTML.html#238,238,1366,768,1366,768,8-29-2022,11-28-15,110,depth_duration_stimuli/000642_2014-06-08_16-59-25_260595134347_rgbf000098-resize_2/000642_2014-06-08_16-59-25_260595134347_rgbf000098-resize_2-target.png,125,2.8815,2,3221,125,feet,jsons/VE125_randls_73.json,1362344,2450184,29,Man
110,453024,DepthScenes,duration_manipulation_targetAtFixation,jsons/VE125_randls_73.json,http://54.235.29.9/FacialAge/BNav_EC2/DepthDuration/v2_depth_duration_MTurk/v2_DepthDuration_HTML.html#238,238,1366,768,1366,768,8-29-2022,11-28-15,111,depth_duration_stimuli/002425_2014-06-28_20-27-29_260595134347_rgbf000031-resize_8/002425_2014-06-28_20-27-29_260595134347_rgbf000031-resize_8-target.png,125,3.8960000000000004,2,4204,126,feet,jsons/VE125_randls_73.json,1362344,2450184,29,Man
111,453024,DepthScenes,duration_manipulation_targetAtFixation,jsons/VE125_randls_73.json,http://54.235.29.9/FacialAge/BNav_EC2/DepthDuration/v2_depth_duration_MTurk/v2_DepthDuration_HTML.html#238,238,1366,768,1366,768,8-29-2022,11-28-15,112,depth_duration_stimuli/003534_2014-05-22_15-06-10_094959634447_rgbf000102-resize_4/003534_2014-05-22_15-06-10_094959634447_rgbf000102-resize_4-target.png,125,1.426,2,2945,123,feet,jsons/VE125_randls_73.json,1362344,2450184,29,Man
112,453024,DepthScenes,duration_manipulation_targetAtFixation,jsons/VE125_randls_73.json,http://54.235.29.9/FacialAge/BNav_EC2/DepthDuration/v2_depth_duration_MTurk/v2_DepthDuration_HTML.html#238,238,1366,768,1366,768,8-29-2022,11-28-15,113,depth_duration_stimuli/002637_2014-06-24_14-51-13_094959634447_rgbf000066-resize_4/002637_2014-06-24_14-51-13_094959634447_rgbf000066-resize_4-target.png,125,1.9955,2,4577,124,feet,jsons/VE125_randls_73.json,1362344,2450184,29,Man
113,453024,DepthScenes,duration_manipulation_targetAtFixation,jsons/VE125_randls_73.json,http://54.235.29.9/FacialAge/BNav_EC2/DepthDuration/v2_depth_duration_MTurk/v2_DepthDuration_HTML.html#238,238,1366,768,1366,768,8-29-2022,11-28-15,114,depth_duration_stimuli/002272_2014-06-28_18-53-56_260595134347_rgbf000067-resize_2/002272_2014-06-28_18-53-56_260595134347_rgbf000067-resize_2-target.png,125,1.138,2,3600,123,feet,jsons/VE125_randls_73.json,1362344,2450184,29,Man
114,453024,DepthScenes,duration_manipulation_targetAtFixation,jsons/VE125_randls_73.json,http://54.235.29.9/FacialAge/BNav_EC2/DepthDuration/v2_depth_duration_MTurk/v2_DepthDuration_HTML.html#238,238,1366,768,1366,768,8-29-2022,11-28-15,115,depth_duration_stimuli/001571_2014-06-20_17-21-32_260595134347_rgbf000089-resize_1/001571_2014-06-20_17-21-32_260595134347_rgbf000089-resize_1-target.png,125,1.86,2,6214,123,feet,jsons/VE125_randls_73.json,1362344,2450184,29,Man
115,453024,DepthScenes,duration_manipulation_targetAtFixation,jsons/VE125_randls_73.json,http://54.235.29.9/FacialAge/BNav_EC2/DepthDuration/v2_depth_duration_MTurk/v2_DepthDuration_HTML.html#238,238,1366,768,1366,768,8-29-2022,11-28-15,116,depth_duration_stimuli/001170_2014-06-17_15-43-44_260595134347_rgbf000096-resize_6/001170_2014-06-17_15-43-44_260595134347_rgbf000096-resize-original.jpg,125,1.1909999999999998,2,2825,125,feet,jsons/VE125_randls_73.json,1362344,2450184,29,Man
116,453024,DepthScenes,duration_manipulation_targetAtFixation,jsons/VE125_randls_73.json,http://54.235.29.9/FacialAge/BNav_EC2/DepthDuration/v2_depth_duration_MTurk/v2_DepthDuration_HTML.html#238,238,1366,768,1366,768,8-29-2022,11-28-15,117,depth_duration_stimuli/002989_2014-06-15_12-25-03_094959634447_rgbf000150-resize_3/002989_2014-06-15_12-25-03_094959634447_rgbf000150-resize_3-target.png,125,4.1975,2,6349,124,feet,jsons/VE125_randls_73.json,1362344,2450184,29,Man
117,453024,DepthScenes,duration_manipulation_targetAtFixation,jsons/VE125_randls_73.json,http://54.235.29.9/FacialAge/BNav_EC2/DepthDuration/v2_depth_duration_MTurk/v2_DepthDuration_HTML.html#238,238,1366,768,1366,768,8-29-2022,11-28-15,118,depth_duration_stimuli/000866_2014-06-09_20-45-42_260595134347_rgbf000139-resize_1/000866_2014-06-09_20-45-42_260595134347_rgbf000139-resize_1-target.png,125,3.2155,2,3922,121,feet,jsons/VE125_randls_73.json,1362344,2450184,29,Man
118,453024,DepthScenes,duration_manipulation_targetAtFixation,jsons/VE125_randls_73.json,http://54.235.29.9/FacialAge/BNav_EC2/DepthDuration/v2_depth_duration_MTurk/v2_DepthDuration_HTML.html#238,238,1366,768,1366,768,8-29-2022,11-28-15,119,depth_duration_stimuli/001810_2014-06-26_20-51-35_260595134347_rgbf000040-resize_3/001810_2014-06-26_20-51-35_260595134347_rgbf000040-resize_3-target.png,125,2.2525,2,2368,123,feet,jsons/VE125_randls_73.json,1362344,2450184,29,Man
119,453024,DepthScenes,duration_manipulation_targetAtFixation,jsons/VE125_randls_73.json,http://54.235.29.9/FacialAge/BNav_EC2/DepthDuration/v2_depth_duration_MTurk/v2_DepthDuration_HTML.html#238,238,1366,768,1366,768,8-29-2022,11-28-15,120,depth_duration_stimuli/003010_2014-06-15_12-54-35_094959634447_rgbf000112-resize_0/003010_2014-06-15_12-54-35_094959634447_rgbf000112-resize_0-target.png,125,3.1185,2,4184,122,feet,jsons/VE125_randls_73.json,1362344,2450184,29,Man
120,453024,DepthScenes,duration_manipulation_targetAtFixation,jsons/VE125_randls_73.json,http://54.235.29.9/FacialAge/BNav_EC2/DepthDuration/v2_depth_duration_MTurk/v2_DepthDuration_HTML.html#238,238,1366,768,1366,768,8-29-2022,11-28-15,121,depth_duration_stimuli/000739_2014-06-08_18-45-58_260595134347_rgbf000068-resize_1/000739_2014-06-08_18-45-58_260595134347_rgbf000068-resize_1-target.png,125,3.534,2,3184,125,feet,jsons/VE125_randls_73.json,1362344,2450184,29,Man
121,453024,DepthScenes,duration_manipulation_targetAtFixation,jsons/VE125_randls_73.json,http://54.235.29.9/FacialAge/BNav_EC2/DepthDuration/v2_depth_duration_MTurk/v2_DepthDuration_HTML.html#238,238,1366,768,1366,768,8-29-2022,11-28-15,122,depth_duration_stimuli/000734_2014-06-08_17-39-11_260595134347_rgbf000128-resize_2/000734_2014-06-08_17-39-11_260595134347_rgbf000128-resize_2-target.png,125,4.098,2,2194,122,feet,jsons/VE125_randls_73.json,1362344,2450184,29,Man
122,453024,DepthScenes,duration_manipulation_targetAtFixation,jsons/VE125_randls_73.json,http://54.235.29.9/FacialAge/BNav_EC2/DepthDuration/v2_depth_duration_MTurk/v2_DepthDuration_HTML.html#238,238,1366,768,1366,768,8-29-2022,11-28-15,123,depth_duration_stimuli/000470_2014-06-09_19-42-40_260595134347_rgbf000094-resize_1/000470_2014-06-09_19-42-40_260595134347_rgbf000094-resize_1-target.png,125,1.831,2,2808,124,feet,jsons/VE125_randls_73.json,1362344,2450184,29,Man
123,453024,DepthScenes,duration_manipulation_targetAtFixation,jsons/VE125_randls_73.json,http://54.235.29.9/FacialAge/BNav_EC2/DepthDuration/v2_depth_duration_MTurk/v2_DepthDuration_HTML.html#238,238,1366,768,1366,768,8-29-2022,11-28-15,124,depth_duration_stimuli/000109_2014-05-14_23-41-52_260595134347_rgbf000035-resize_9/000109_2014-05-14_23-41-52_260595134347_rgbf000035-resize_9-target.png,125,1.3545,3,2594,124,feet,jsons/VE125_randls_73.json,1362344,2450184,29,Man
124,453024,DepthScenes,duration_manipulation_targetAtFixation,jsons/VE125_randls_73.json,http://54.235.29.9/FacialAge/BNav_EC2/DepthDuration/v2_depth_duration_MTurk/v2_DepthDuration_HTML.html#238,238,1366,768,1366,768,8-29-2022,11-28-15,125,depth_duration_stimuli/002905_2014-06-03_18-04-43_094959634447_rgbf000151-resize_2/002905_2014-06-03_18-04-43_094959634447_rgbf000151-resize_2-target.png,125,2.0295,2,3487,125,feet,jsons/VE125_randls_73.json,1362344,2450184,29,Man
125,453024,DepthScenes,duration_manipulation_targetAtFixation,jsons/VE125_randls_73.json,http://54.235.29.9/FacialAge/BNav_EC2/DepthDuration/v2_depth_duration_MTurk/v2_DepthDuration_HTML.html#238,238,1366,768,1366,768,8-29-2022,11-28-15,126,depth_duration_stimuli/003423_2014-05-21_10-23-26_094959634447_rgbf002665-resize_2/003423_2014-05-21_10-23-26_094959634447_rgbf002665-resize_2-target.png,125,3.2575,2,2955,124,feet,jsons/VE125_randls_73.json,1362344,2450184,29,Man
126,453024,DepthScenes,duration_manipulation_targetAtFixation,jsons/VE125_randls_73.json,http://54.235.29.9/FacialAge/BNav_EC2/DepthDuration/v2_depth_duration_MTurk/v2_DepthDuration_HTML.html#238,238,1366,768,1366,768,8-29-2022,11-28-15,127,depth_duration_stimuli/001570_2014-06-20_17-21-09_260595134347_rgbf000135-resize_4/001570_2014-06-20_17-21-09_260595134347_rgbf000135-resize_4-target.png,125,4.467,2,9206,125,feet,jsons/VE125_randls_73.json,1362344,2450184,29,Man
127,453024,DepthScenes,duration_manipulation_targetAtFixation,jsons/VE125_randls_73.json,http://54.235.29.9/FacialAge/BNav_EC2/DepthDuration/v2_depth_duration_MTurk/v2_DepthDuration_HTML.html#238,238,1366,768,1366,768,8-29-2022,11-28-15,128,depth_duration_stimuli/001392_2014-06-19_16-07-59_260595134347_rgbf000046-resize_1/001392_2014-06-19_16-07-59_260595134347_rgbf000046-resize_1-target.png,125,4.135,2,3161,126,feet,jsons/VE125_randls_73.json,1362344,2450184,29,Man
128,453024,DepthScenes,duration_manipulation_targetAtFixation,jsons/VE125_randls_73.json,http://54.235.29.9/FacialAge/BNav_EC2/DepthDuration/v2_depth_duration_MTurk/v2_DepthDuration_HTML.html#238,238,1366,768,1366,768,8-29-2022,11-28-15,129,depth_duration_stimuli/002509_2014-06-24_13-19-22_094959634447_rgbf000077-resize_0/002509_2014-06-24_13-19-22_094959634447_rgbf000077-resize_0-target.png,125,1.3065,2,2285,123,feet,jsons/VE125_randls_73.json,1362344,2450184,29,Man
129,453024,DepthScenes,duration_manipulation_targetAtFixation,jsons/VE125_randls_73.json,http://54.235.29.9/FacialAge/BNav_EC2/DepthDuration/v2_depth_duration_MTurk/v2_DepthDuration_HTML.html#238,238,1366,643,1366,768,8-29-2022,11-28-15,130,depth_duration_stimuli/003338_2014-05-20_11-01-23_094959634447_rgbf000051-resize_6/003338_2014-05-20_11-01-23_094959634447_rgbf000051-resize_6-target.png,125,1.693,2,87265,139,feet,jsons/VE125_randls_73.json,1362344,2450184,29,Man
130,453024,DepthScenes,duration_manipulation_targetAtFixation,jsons/VE125_randls_73.json,http://54.235.29.9/FacialAge/BNav_EC2/DepthDuration/v2_depth_duration_MTurk/v2_DepthDuration_HTML.html#238,238,1366,643,1366,768,8-29-2022,11-28-15,131,depth_duration_stimuli/000506_2014-06-08_23-21-00_260595134347_rgbf000070-resize_7/000506_2014-06-08_23-21-00_260595134347_rgbf000070-resize_7-target.png,125,4.0585,2,4518,124,feet,jsons/VE125_randls_73.json,1362344,2450184,29,Man
131,453024,DepthScenes,duration_manipulation_targetAtFixation,jsons/VE125_randls_73.json,http://54.235.29.9/FacialAge/BNav_EC2/DepthDuration/v2_depth_duration_MTurk/v2_DepthDuration_HTML.html#238,238,1366,643,1366,768,8-29-2022,11-28-15,132,depth_duration_stimuli/003079_2014-06-15_15-18-20_094959634447_rgbf000152-resize_8/003079_2014-06-15_15-18-20_094959634447_rgbf000152-resize_8-target.png,125,2.8775,3,4128,125,feet,jsons/VE125_randls_73.json,1362344,2450184,29,Man
132,453024,DepthScenes,duration_manipulation_targetAtFixation,jsons/VE125_randls_73.json,http://54.235.29.9/FacialAge/BNav_EC2/DepthDuration/v2_depth_duration_MTurk/v2_DepthDuration_HTML.html#238,238,1366,643,1366,768,8-29-2022,11-28-15,133,depth_duration_stimuli/001164_2014-06-17_15-35-46_260595134347_rgbf000085-resize_3/001164_2014-06-17_15-35-46_260595134347_rgbf000085-resize_3-target.png,125,2.354,2,12983,124,feet,jsons/VE125_randls_73.json,1362344,2450184,29,Man
133,453024,DepthScenes,duration_manipulation_targetAtFixation,jsons/VE125_randls_73.json,http://54.235.29.9/FacialAge/BNav_EC2/DepthDuration/v2_depth_duration_MTurk/v2_DepthDuration_HTML.html#238,238,1366,643,1366,768,8-29-2022,11-28-15,134,depth_duration_stimuli/001136_2014-06-17_15-19-41_260595134347_rgbf000076-resize_3/001136_2014-06-17_15-19-41_260595134347_rgbf000076-resize_3-target.png,125,1.8655,2,3573,122,feet,jsons/VE125_randls_73.json,1362344,2450184,29,Man
134,453024,DepthScenes,duration_manipulation_targetAtFixation,jsons/VE125_randls_73.json,http://54.235.29.9/FacialAge/BNav_EC2/DepthDuration/v2_depth_duration_MTurk/v2_DepthDuration_HTML.html#238,238,1366,643,1366,768,8-29-2022,11-28-15,135,depth_duration_stimuli/002072_2014-06-24_21-48-06_260595134347_rgbf000115-resize_0/002072_2014-06-24_21-48-06_260595134347_rgbf000115-resize-original.jpg,125,4.702,2,3059,122,feet,jsons/VE125_randls_73.json,1362344,2450184,29,Man
135,453024,DepthScenes,duration_manipulation_targetAtFixation,jsons/VE125_randls_73.json,http://54.235.29.9/FacialAge/BNav_EC2/DepthDuration/v2_depth_duration_MTurk/v2_DepthDuration_HTML.html#238,238,1366,643,1366,768,8-29-2022,11-28-15,136,depth_duration_stimuli/000788_2014-06-08_22-34-36_260595134347_rgbf000131-resize_1/000788_2014-06-08_22-34-36_260595134347_rgbf000131-resize_1-target.png,125,3.359,2,4336,123,feet,jsons/VE125_randls_73.json,1362344,2450184,29,Man
136,453024,DepthScenes,duration_manipulation_targetAtFixation,jsons/VE125_randls_73.json,http://54.235.29.9/FacialAge/BNav_EC2/DepthDuration/v2_depth_duration_MTurk/v2_DepthDuration_HTML.html#238,238,1366,643,1366,768,8-29-2022,11-28-15,137,depth_duration_stimuli/001235_2014-06-17_16-37-36_260595134347_rgbf000084-resize_4/001235_2014-06-17_16-37-36_260595134347_rgbf000084-resize_4-target.png,125,3.6605,2,4970,137,feet,jsons/VE125_randls_73.json,1362344,2450184,29,Man
137,453024,DepthScenes,duration_manipulation_targetAtFixation,jsons/VE125_randls_73.json,http://54.235.29.9/FacialAge/BNav_EC2/DepthDuration/v2_depth_duration_MTurk/v2_DepthDuration_HTML.html#238,238,1366,643,1366,768,8-29-2022,11-28-15,138,depth_duration_stimuli/000522_2014-06-08_13-35-06_260595134347_rgbf000244-resize_1/000522_2014-06-08_13-35-06_260595134347_rgbf000244-resize_1-target.png,125,2.3715,2,3201,125,feet,jsons/VE125_randls_73.json,1362344,2450184,29,Man
138,453024,DepthScenes,duration_manipulation_targetAtFixation,jsons/VE125_randls_73.json,http://54.235.29.9/FacialAge/BNav_EC2/DepthDuration/v2_depth_duration_MTurk/v2_DepthDuration_HTML.html#238,238,1366,643,1366,768,8-29-2022,11-28-15,139,depth_duration_stimuli/002949_2014-06-26_15-57-42_094959634447_rgbf000079-resize_1/002949_2014-06-26_15-57-42_094959634447_rgbf000079-resize_1-target.png,125,1.8915,3,7870,127,feet,jsons/VE125_randls_73.json,1362344,2450184,29,Man
139,453024,DepthScenes,duration_manipulation_targetAtFixation,jsons/VE125_randls_73.json,http://54.235.29.9/FacialAge/BNav_EC2/DepthDuration/v2_depth_duration_MTurk/v2_DepthDuration_HTML.html#238,238,1366,643,1366,768,8-29-2022,11-28-15,140,depth_duration_stimuli/001092_2014-06-15_17-34-58_260595134347_rgbf000171-resize_3/001092_2014-06-15_17-34-58_260595134347_rgbf000171-resize_3-target.png,125,2.6935,2,5020,137,feet,jsons/VE125_randls_73.json,1362344,2450184,29,Man
140,453024,DepthScenes,duration_manipulation_targetAtFixation,jsons/VE125_randls_73.json,http://54.235.29.9/FacialAge/BNav_EC2/DepthDuration/v2_depth_duration_MTurk/v2_DepthDuration_HTML.html#238,238,1366,643,1366,768,8-29-2022,11-28-15,141,depth_duration_stimuli/002545_2014-06-24_13-38-53_094959634447_rgbf000080-resize_4/002545_2014-06-24_13-38-53_094959634447_rgbf000080-resize_4-target.png,125,1.9205,2,18675,125,feet,jsons/VE125_randls_73.json,1362344,2450184,29,Man
141,453024,DepthScenes,duration_manipulation_targetAtFixation,jsons/VE125_randls_73.json,http://54.235.29.9/FacialAge/BNav_EC2/DepthDuration/v2_depth_duration_MTurk/v2_DepthDuration_HTML.html#238,238,1366,643,1366,768,8-29-2022,11-28-15,142,depth_duration_stimuli/001167_2014-06-17_15-38-07_260595134347_rgbf000108-resize_0/001167_2014-06-17_15-38-07_260595134347_rgbf000108-resize_0-target.png,125,1.8505,2,115865,123,feet,jsons/VE125_randls_73.json,1362344,2450184,29,Man
142,453024,DepthScenes,duration_manipulation_targetAtFixation,jsons/VE125_randls_73.json,http://54.235.29.9/FacialAge/BNav_EC2/DepthDuration/v2_depth_duration_MTurk/v2_DepthDuration_HTML.html#238,238,1366,643,1366,768,8-29-2022,11-28-15,143,depth_duration_stimuli/003587_2014-05-23_16-48-02_094959634447_rgbf002384-resize_2/003587_2014-05-23_16-48-02_094959634447_rgbf002384-resize_2-target.png,125,1.357,2,2853,124,feet,jsons/VE125_randls_73.json,1362344,2450184,29,Man
143,453024,DepthScenes,duration_manipulation_targetAtFixation,jsons/VE125_randls_73.json,http://54.235.29.9/FacialAge/BNav_EC2/DepthDuration/v2_depth_duration_MTurk/v2_DepthDuration_HTML.html#238,238,1366,643,1366,768,8-29-2022,11-28-15,144,depth_duration_stimuli/001417_2014-06-19_16-25-36_260595134347_rgbf000115-resize_5/001417_2014-06-19_16-25-36_260595134347_rgbf000115-resize_5-target.png,125,4.6255,2,35233,139,feet,jsons/VE125_randls_73.json,1362344,2450184,29,Man
144,453024,DepthScenes,duration_manipulation_targetAtFixation,jsons/VE125_randls_73.json,http://54.235.29.9/FacialAge/BNav_EC2/DepthDuration/v2_depth_duration_MTurk/v2_DepthDuration_HTML.html#238,238,1366,643,1366,768,8-29-2022,11-28-15,145,depth_duration_stimuli/003081_2014-06-15_15-19-16_094959634447_rgbf000150-resize_1/003081_2014-06-15_15-19-16_094959634447_rgbf000150-resize_1-target.png,125,3.9125,2,4513,123,feet,jsons/VE125_randls_73.json,1362344,2450184,29,Man
145,453024,DepthScenes,duration_manipulation_targetAtFixation,jsons/VE125_randls_73.json,http://54.235.29.9/FacialAge/BNav_EC2/DepthDuration/v2_depth_duration_MTurk/v2_DepthDuration_HTML.html#238,238,1366,643,1366,768,8-29-2022,11-28-15,146,depth_duration_stimuli/001498_2014-06-19_17-45-14_260595134347_rgbf000129-resize_4/001498_2014-06-19_17-45-14_260595134347_rgbf000129-resize-original.jpg,125,1.4075,2,2770,122,feet,jsons/VE125_randls_73.json,1362344,2450184,29,Man
146,453024,DepthScenes,duration_manipulation_targetAtFixation,jsons/VE125_randls_73.json,http://54.235.29.9/FacialAge/BNav_EC2/DepthDuration/v2_depth_duration_MTurk/v2_DepthDuration_HTML.html#238,238,1366,643,1366,768,8-29-2022,11-28-15,147,depth_duration_stimuli/001056_2014-06-08_18-46-44_260595134347_rgbf000068-resize_0/001056_2014-06-08_18-46-44_260595134347_rgbf000068-resize_0-target.png,125,2.6625,2,2811,124,feet,jsons/VE125_randls_73.json,1362344,2450184,29,Man
147,453024,DepthScenes,duration_manipulation_targetAtFixation,jsons/VE125_randls_73.json,http://54.235.29.9/FacialAge/BNav_EC2/DepthDuration/v2_depth_duration_MTurk/v2_DepthDuration_HTML.html#238,238,1366,643,1366,768,8-29-2022,11-28-15,148,depth_duration_stimuli/002199_2014-06-28_18-33-56_260595134347_rgbf000074-resize_0/002199_2014-06-28_18-33-56_260595134347_rgbf000074-resize_0-target.png,125,1.996,2,2837,124,feet,jsons/VE125_randls_73.json,1362344,2450184,29,Man
148,453024,DepthScenes,duration_manipulation_targetAtFixation,jsons/VE125_randls_73.json,http://54.235.29.9/FacialAge/BNav_EC2/DepthDuration/v2_depth_duration_MTurk/v2_DepthDuration_HTML.html#238,238,1366,643,1366,768,8-29-2022,11-28-15,149,depth_duration_stimuli/001175_2014-06-17_15-45-55_260595134347_rgbf000129-resize_4/001175_2014-06-17_15-45-55_260595134347_rgbf000129-resize_4-target.png,125,4.255,2,4049,124,feet,jsons/VE125_randls_73.json,1362344,2450184,29,Man
149,453024,DepthScenes,duration_manipulation_targetAtFixation,jsons/VE125_randls_73.json,http://54.235.29.9/FacialAge/BNav_EC2/DepthDuration/v2_depth_duration_MTurk/v2_DepthDuration_HTML.html#238,238,1366,643,1366,768,8-29-2022,11-28-15,150,depth_duration_stimuli/003490_2014-05-21_15-50-11_094959634447_rgbf000101-resize_3/003490_2014-05-21_15-50-11_094959634447_rgbf000101-resize_3-target.png,125,3.6445,2,2107,122,feet,jsons/VE125_randls_73.json,1362344,2450184,29,Man
150,453024,DepthScenes,duration_manipulation_targetAtFixation,jsons/VE125_randls_73.json,http://54.235.29.9/FacialAge/BNav_EC2/DepthDuration/v2_depth_duration_MTurk/v2_DepthDuration_HTML.html#238,238,1366,643,1366,768,8-29-2022,11-28-15,151,depth_duration_stimuli/002375_2014-06-28_20-13-44_260595134347_rgbf000032-resize_1/002375_2014-06-28_20-13-44_260595134347_rgbf000032-resize_1-target.png,125,4.0175,2,4652,121,feet,jsons/VE125_randls_73.json,1362344,2450184,29,Man
151,453024,DepthScenes,duration_manipulation_targetAtFixation,jsons/VE125_randls_73.json,http://54.235.29.9/FacialAge/BNav_EC2/DepthDuration/v2_depth_duration_MTurk/v2_DepthDuration_HTML.html#238,238,1366,643,1366,768,8-29-2022,11-28-15,152,depth_duration_stimuli/002657_2014-06-13_15-29-54_094959634447_rgbf000150-resize_1/002657_2014-06-13_15-29-54_094959634447_rgbf000150-resize_1-target.png,125,4.919,2,5939,138,feet,jsons/VE125_randls_73.json,1362344,2450184,29,Man
152,453024,DepthScenes,duration_manipulation_targetAtFixation,jsons/VE125_randls_73.json,http://54.235.29.9/FacialAge/BNav_EC2/DepthDuration/v2_depth_duration_MTurk/v2_DepthDuration_HTML.html#238,238,1366,643,1366,768,8-29-2022,11-28-15,153,depth_duration_stimuli/002118_2014-06-25_20-32-08_260595134347_rgbf000078-resize_1/002118_2014-06-25_20-32-08_260595134347_rgbf000078-resize_1-target.png,125,2.6460000000000004,2,3557,125,feet,jsons/VE125_randls_73.json,1362344,2450184,29,Man
153,453024,DepthScenes,duration_manipulation_targetAtFixation,jsons/VE125_randls_73.json,http://54.235.29.9/FacialAge/BNav_EC2/DepthDuration/v2_depth_duration_MTurk/v2_DepthDuration_HTML.html#238,238,1366,643,1366,768,8-29-2022,11-28-15,154,depth_duration_stimuli/001516_2014-06-20_16-25-09_260595134347_rgbf000076-resize_2/001516_2014-06-20_16-25-09_260595134347_rgbf000076-resize_2-target.png,125,1.7445,2,2834,120,feet,jsons/VE125_randls_73.json,1362344,2450184,29,Man
154,453024,DepthScenes,duration_manipulation_targetAtFixation,jsons/VE125_randls_73.json,http://54.235.29.9/FacialAge/BNav_EC2/DepthDuration/v2_depth_duration_MTurk/v2_DepthDuration_HTML.html#238,238,1366,643,1366,768,8-29-2022,11-28-15,155,depth_duration_stimuli/000929_2014-06-09_16-33-19_260595134347_rgbf000139-resize_0/000929_2014-06-09_16-33-19_260595134347_rgbf000139-resize_0-target.png,125,2.8680000000000003,2,2845,121,feet,jsons/VE125_randls_73.json,1362344,2450184,29,Man
155,453024,DepthScenes,duration_manipulation_targetAtFixation,jsons/VE125_randls_73.json,http://54.235.29.9/FacialAge/BNav_EC2/DepthDuration/v2_depth_duration_MTurk/v2_DepthDuration_HTML.html#238,238,1366,643,1366,768,8-29-2022,11-28-15,156,depth_duration_stimuli/000457_2014-06-08_16-52-43_260595134347_rgbf000199-resize_1/000457_2014-06-08_16-52-43_260595134347_rgbf000199-resize_1-target.png,125,3.6489999999999996,2,2475,125,feet,jsons/VE125_randls_73.json,1362344,2450184,29,Man
156,453024,DepthScenes,duration_manipulation_targetAtFixation,jsons/VE125_randls_73.json,http://54.235.29.9/FacialAge/BNav_EC2/DepthDuration/v2_depth_duration_MTurk/v2_DepthDuration_HTML.html#238,238,1366,643,1366,768,8-29-2022,11-28-15,157,depth_duration_stimuli/001133_2014-06-17_14-49-16_260595134347_rgbf000100-resize_0/001133_2014-06-17_14-49-16_260595134347_rgbf000100-resize_0-target.png,125,4.2115,2,4694,125,feet,jsons/VE125_randls_73.json,1362344,2450184,29,Man
157,453024,DepthScenes,duration_manipulation_targetAtFixation,jsons/VE125_randls_73.json,http://54.235.29.9/FacialAge/BNav_EC2/DepthDuration/v2_depth_duration_MTurk/v2_DepthDuration_HTML.html#238,238,1366,643,1366,768,8-29-2022,11-28-15,158,depth_duration_stimuli/001132_2014-06-17_14-48-54_260595134347_rgbf000100-resize_2/001132_2014-06-17_14-48-54_260595134347_rgbf000100-resize_2-target.png,125,3.753,2,49455,125,feet,jsons/VE125_randls_73.json,1362344,2450184,29,Man
158,453024,DepthScenes,duration_manipulation_targetAtFixation,jsons/VE125_randls_73.json,http://54.235.29.9/FacialAge/BNav_EC2/DepthDuration/v2_depth_duration_MTurk/v2_DepthDuration_HTML.html#238,238,1366,643,1366,768,8-29-2022,11-28-15,159,depth_duration_stimuli/003492_2014-05-21_15-50-55_094959634447_rgbf000828-resize_1/003492_2014-05-21_15-50-55_094959634447_rgbf000828-resize_1-target.png,125,4.06875,2,9309,124,feet,jsons/VE125_randls_73.json,1362344,2450184,29,Man
159,453024,DepthScenes,duration_manipulation_targetAtFixation,jsons/VE125_randls_73.json,http://54.235.29.9/FacialAge/BNav_EC2/DepthDuration/v2_depth_duration_MTurk/v2_DepthDuration_HTML.html#238,238,1366,643,1366,768,8-29-2022,11-28-15,160,depth_duration_stimuli/002568_2014-06-24_13-59-21_094959634447_rgbf000062-resize_4/002568_2014-06-24_13-59-21_094959634447_rgbf000062-resize_4-target.png,125,3.015,2,3470,122,feet,jsons/VE125_randls_73.json,1362344,2450184,29,Man
160,453024,DepthScenes,duration_manipulation_targetAtFixation,jsons/VE125_randls_73.json,http://54.235.29.9/FacialAge/BNav_EC2/DepthDuration/v2_depth_duration_MTurk/v2_DepthDuration_HTML.html#238,238,1366,643,1366,768,8-29-2022,11-28-15,161,depth_duration_stimuli/002630_2014-06-24_14-47-50_094959634447_rgbf000055-resize_1/002630_2014-06-24_14-47-50_094959634447_rgbf000055-resize_1-target.png,125,3.0095,2,2557,124,feet,jsons/VE125_randls_73.json,1362344,2450184,29,Man
161,453024,DepthScenes,duration_manipulation_targetAtFixation,jsons/VE125_randls_73.json,http://54.235.29.9/FacialAge/BNav_EC2/DepthDuration/v2_depth_duration_MTurk/v2_DepthDuration_HTML.html#238,238,1366,643,1366,768,8-29-2022,11-28-15,162,depth_duration_stimuli/002758_2014-06-22_19-11-20_094959634447_rgbf000128-resize_1/002758_2014-06-22_19-11-20_094959634447_rgbf000128-resize_1-target.png,125,2.555,2,13315,121,feet,jsons/VE125_randls_73.json,1362344,2450184,29,Man
162,453024,DepthScenes,duration_manipulation_targetAtFixation,jsons/VE125_randls_73.json,http://54.235.29.9/FacialAge/BNav_EC2/DepthDuration/v2_depth_duration_MTurk/v2_DepthDuration_HTML.html#238,238,1366,643,1366,768,8-29-2022,11-28-15,163,depth_duration_stimuli/002788_2014-06-22_19-36-03_094959634447_rgbf000088-resize_2/002788_2014-06-22_19-36-03_094959634447_rgbf000088-resize_2-target.png,125,1.6465,2,2245,124,feet,jsons/VE125_randls_73.json,1362344,2450184,29,Man
163,453024,DepthScenes,duration_manipulation_targetAtFixation,jsons/VE125_randls_73.json,http://54.235.29.9/FacialAge/BNav_EC2/DepthDuration/v2_depth_duration_MTurk/v2_DepthDuration_HTML.html#238,238,1366,643,1366,768,8-29-2022,11-28-15,164,depth_duration_stimuli/000749_2014-06-08_21-55-06_260595134347_rgbf000070-resize_2/000749_2014-06-08_21-55-06_260595134347_rgbf000070-resize_2-target.png,125,2.331,2,2095,122,feet,jsons/VE125_randls_73.json,1362344,2450184,29,Man
