,subjID,experimentName,versionName,sequenceName,url,selected_row,windowWidth,windowHeight,screenWidth,screenHeight,startDate,startTime,trial,stimulus,duration,actual_depth,depth_estimate,trial_RT,log_sceneDuration,unitSelection,seq_filepath,experimentTime,totalTime,age,gender
0,454653,DepthScenes,duration_manipulation_targetAtFixation,jsons/v1_VE1000_randls_11_rotated.json,http://54.235.29.9/FacialAge/BNav_EC2/DepthDuration/v2_depth_duration_MTurk/v2_DepthDuration_HTML.html#127,127,1280,657,1280,800,8-22-2022,5-3-11,1,depth_duration_stimuli/003010_2014-06-15_12-54-35_094959634447_rgbf000112-resize_0/003010_2014-06-15_12-54-35_094959634447_rgbf000112-resize_0-target.png,1000,3.1185,5,9587,1007,meters,jsons/v1_VE1000_randls_11_rotated.json,1365826,1731499,30,Man
1,454653,DepthScenes,duration_manipulation_targetAtFixation,jsons/v1_VE1000_randls_11_rotated.json,http://54.235.29.9/FacialAge/BNav_EC2/DepthDuration/v2_depth_duration_MTurk/v2_DepthDuration_HTML.html#127,127,1280,657,1280,800,8-22-2022,5-3-11,2,depth_duration_stimuli/001810_2014-06-26_20-51-35_260595134347_rgbf000040-resize_3/001810_2014-06-26_20-51-35_260595134347_rgbf000040-resize_3-target.png,1000,2.2525,4,6963,1010,meters,jsons/v1_VE1000_randls_11_rotated.json,1365826,1731499,30,Man
2,454653,DepthScenes,duration_manipulation_targetAtFixation,jsons/v1_VE1000_randls_11_rotated.json,http://54.235.29.9/FacialAge/BNav_EC2/DepthDuration/v2_depth_duration_MTurk/v2_DepthDuration_HTML.html#127,127,1280,657,1280,800,8-22-2022,5-3-11,3,depth_duration_stimuli/000103_2014-05-14_22-01-17_260595134347_rgbf000152-resize_5/000103_2014-05-14_22-01-17_260595134347_rgbf000152-resize_5-target.png,1000,1.993,1,5355,1001,meters,jsons/v1_VE1000_randls_11_rotated.json,1365826,1731499,30,Man
3,454653,DepthScenes,duration_manipulation_targetAtFixation,jsons/v1_VE1000_randls_11_rotated.json,http://54.235.29.9/FacialAge/BNav_EC2/DepthDuration/v2_depth_duration_MTurk/v2_DepthDuration_HTML.html#127,127,1280,657,1280,800,8-22-2022,5-3-11,4,depth_duration_stimuli/001555_2014-06-20_17-12-10_260595134347_rgbf000065-resize_4/001555_2014-06-20_17-12-10_260595134347_rgbf000065-resize_4-target.png,1000,1.633,2,9785,1006,meters,jsons/v1_VE1000_randls_11_rotated.json,1365826,1731499,30,Man
4,454653,DepthScenes,duration_manipulation_targetAtFixation,jsons/v1_VE1000_randls_11_rotated.json,http://54.235.29.9/FacialAge/BNav_EC2/DepthDuration/v2_depth_duration_MTurk/v2_DepthDuration_HTML.html#127,127,1280,657,1280,800,8-22-2022,5-3-11,5,depth_duration_stimuli/003048_2014-06-15_13-49-43_094959634447_rgbf000150-resize_1/003048_2014-06-15_13-49-43_094959634447_rgbf000150-resize_1-target.png,1000,4.0035,3,7417,1163,meters,jsons/v1_VE1000_randls_11_rotated.json,1365826,1731499,30,Man
5,454653,DepthScenes,duration_manipulation_targetAtFixation,jsons/v1_VE1000_randls_11_rotated.json,http://54.235.29.9/FacialAge/BNav_EC2/DepthDuration/v2_depth_duration_MTurk/v2_DepthDuration_HTML.html#127,127,1280,657,1280,800,8-22-2022,5-3-11,6,depth_duration_stimuli/002043_2014-06-24_20-29-38_260595134347_rgbf000039-resize_4/002043_2014-06-24_20-29-38_260595134347_rgbf000039-resize_4-target.png,1000,2.8435,5,10331,998,meters,jsons/v1_VE1000_randls_11_rotated.json,1365826,1731499,30,Man
6,454653,DepthScenes,duration_manipulation_targetAtFixation,jsons/v1_VE1000_randls_11_rotated.json,http://54.235.29.9/FacialAge/BNav_EC2/DepthDuration/v2_depth_duration_MTurk/v2_DepthDuration_HTML.html#127,127,1280,657,1280,800,8-22-2022,5-3-11,7,depth_duration_stimuli/002545_2014-06-24_13-38-53_094959634447_rgbf000080-resize_4/002545_2014-06-24_13-38-53_094959634447_rgbf000080-resize_4-target.png,1000,1.9205,4,5555,992,meters,jsons/v1_VE1000_randls_11_rotated.json,1365826,1731499,30,Man
7,454653,DepthScenes,duration_manipulation_targetAtFixation,jsons/v1_VE1000_randls_11_rotated.json,http://54.235.29.9/FacialAge/BNav_EC2/DepthDuration/v2_depth_duration_MTurk/v2_DepthDuration_HTML.html#127,127,1280,657,1280,800,8-22-2022,5-3-11,8,depth_duration_stimuli/001092_2014-06-15_17-34-58_260595134347_rgbf000171-resize_3/001092_2014-06-15_17-34-58_260595134347_rgbf000171-resize_3-target.png,1000,2.6935,3,9921,1000,meters,jsons/v1_VE1000_randls_11_rotated.json,1365826,1731499,30,Man
8,454653,DepthScenes,duration_manipulation_targetAtFixation,jsons/v1_VE1000_randls_11_rotated.json,http://54.235.29.9/FacialAge/BNav_EC2/DepthDuration/v2_depth_duration_MTurk/v2_DepthDuration_HTML.html#127,127,1280,657,1280,800,8-22-2022,5-3-11,9,depth_duration_stimuli/002323_2014-06-28_20-01-54_260595134347_rgbf000051-resize_4/002323_2014-06-28_20-01-54_260595134347_rgbf000051-resize_4-target.png,1000,3.7310000000000003,2,12218,996,meters,jsons/v1_VE1000_randls_11_rotated.json,1365826,1731499,30,Man
9,454653,DepthScenes,duration_manipulation_targetAtFixation,jsons/v1_VE1000_randls_11_rotated.json,http://54.235.29.9/FacialAge/BNav_EC2/DepthDuration/v2_depth_duration_MTurk/v2_DepthDuration_HTML.html#127,127,1280,657,1280,800,8-22-2022,5-3-11,10,depth_duration_stimuli/000917_2014-06-09_22-45-29_260595134347_rgbf000149-resize_3/000917_2014-06-09_22-45-29_260595134347_rgbf000149-resize_3-target.png,1000,4.1865,3,4438,999,meters,jsons/v1_VE1000_randls_11_rotated.json,1365826,1731499,30,Man
10,454653,DepthScenes,duration_manipulation_targetAtFixation,jsons/v1_VE1000_randls_11_rotated.json,http://54.235.29.9/FacialAge/BNav_EC2/DepthDuration/v2_depth_duration_MTurk/v2_DepthDuration_HTML.html#127,127,1280,657,1280,800,8-22-2022,5-3-11,11,depth_duration_stimuli/001828_2014-06-26_21-40-03_260595134347_rgbf000024-resize_0/001828_2014-06-26_21-40-03_260595134347_rgbf000024-resize_0-target.png,1000,4.8260000000000005,5,8205,1085,meters,jsons/v1_VE1000_randls_11_rotated.json,1365826,1731499,30,Man
11,454653,DepthScenes,duration_manipulation_targetAtFixation,jsons/v1_VE1000_randls_11_rotated.json,http://54.235.29.9/FacialAge/BNav_EC2/DepthDuration/v2_depth_duration_MTurk/v2_DepthDuration_HTML.html#127,127,1280,657,1280,800,8-22-2022,5-3-11,12,depth_duration_stimuli/000009_2014-05-26_14-32-05_260595134347_rgbf000034-resize_3/000009_2014-05-26_14-32-05_260595134347_rgbf000034-resize_3-target.png,1000,3.8715,4,10295,999,meters,jsons/v1_VE1000_randls_11_rotated.json,1365826,1731499,30,Man
12,454653,DepthScenes,duration_manipulation_targetAtFixation,jsons/v1_VE1000_randls_11_rotated.json,http://54.235.29.9/FacialAge/BNav_EC2/DepthDuration/v2_depth_duration_MTurk/v2_DepthDuration_HTML.html#127,127,1280,657,1280,800,8-22-2022,5-3-11,13,depth_duration_stimuli/000709_2014-06-08_13-51-55_260595134347_rgbf000068-resize_3/000709_2014-06-08_13-51-55_260595134347_rgbf000068-resize_3-target.png,1000,1.8030000000000002,2,20699,995,meters,jsons/v1_VE1000_randls_11_rotated.json,1365826,1731499,30,Man
13,454653,DepthScenes,duration_manipulation_targetAtFixation,jsons/v1_VE1000_randls_11_rotated.json,http://54.235.29.9/FacialAge/BNav_EC2/DepthDuration/v2_depth_duration_MTurk/v2_DepthDuration_HTML.html#127,127,1280,657,1280,800,8-22-2022,5-3-11,14,depth_duration_stimuli/002057_2014-06-24_21-00-13_260595134347_rgbf000120-resize_1/002057_2014-06-24_21-00-13_260595134347_rgbf000120-resize_1-target.png,1000,2.967,1,4922,1028,meters,jsons/v1_VE1000_randls_11_rotated.json,1365826,1731499,30,Man
14,454653,DepthScenes,duration_manipulation_targetAtFixation,jsons/v1_VE1000_randls_11_rotated.json,http://54.235.29.9/FacialAge/BNav_EC2/DepthDuration/v2_depth_duration_MTurk/v2_DepthDuration_HTML.html#127,127,1280,657,1280,800,8-22-2022,5-3-11,15,depth_duration_stimuli/001516_2014-06-20_16-25-09_260595134347_rgbf000076-resize_2/001516_2014-06-20_16-25-09_260595134347_rgbf000076-resize_2-target.png,1000,1.7445,2,8938,995,meters,jsons/v1_VE1000_randls_11_rotated.json,1365826,1731499,30,Man
15,454653,DepthScenes,duration_manipulation_targetAtFixation,jsons/v1_VE1000_randls_11_rotated.json,http://54.235.29.9/FacialAge/BNav_EC2/DepthDuration/v2_depth_duration_MTurk/v2_DepthDuration_HTML.html#127,127,1280,657,1280,800,8-22-2022,5-3-11,16,depth_duration_stimuli/002118_2014-06-25_20-32-08_260595134347_rgbf000078-resize_1/002118_2014-06-25_20-32-08_260595134347_rgbf000078-resize_1-target.png,1000,2.6460000000000004,4,7361,1005,meters,jsons/v1_VE1000_randls_11_rotated.json,1365826,1731499,30,Man
16,454653,DepthScenes,duration_manipulation_targetAtFixation,jsons/v1_VE1000_randls_11_rotated.json,http://54.235.29.9/FacialAge/BNav_EC2/DepthDuration/v2_depth_duration_MTurk/v2_DepthDuration_HTML.html#127,127,1280,657,1280,800,8-22-2022,5-3-11,17,depth_duration_stimuli/003587_2014-05-23_16-48-02_094959634447_rgbf002384-resize_2/003587_2014-05-23_16-48-02_094959634447_rgbf002384-resize_2-target.png,1000,1.357,5,8298,976,meters,jsons/v1_VE1000_randls_11_rotated.json,1365826,1731499,30,Man
17,454653,DepthScenes,duration_manipulation_targetAtFixation,jsons/v1_VE1000_randls_11_rotated.json,http://54.235.29.9/FacialAge/BNav_EC2/DepthDuration/v2_depth_duration_MTurk/v2_DepthDuration_HTML.html#127,127,1280,657,1280,800,8-22-2022,5-3-11,18,depth_duration_stimuli/001167_2014-06-17_15-38-07_260595134347_rgbf000108-resize_0/001167_2014-06-17_15-38-07_260595134347_rgbf000108-resize_0-target.png,1000,1.8505,5,12887,1001,meters,jsons/v1_VE1000_randls_11_rotated.json,1365826,1731499,30,Man
18,454653,DepthScenes,duration_manipulation_targetAtFixation,jsons/v1_VE1000_randls_11_rotated.json,http://54.235.29.9/FacialAge/BNav_EC2/DepthDuration/v2_depth_duration_MTurk/v2_DepthDuration_HTML.html#127,127,1280,657,1280,800,8-22-2022,5-3-11,19,depth_duration_stimuli/001498_2014-06-19_17-45-14_260595134347_rgbf000129-resize_4/001498_2014-06-19_17-45-14_260595134347_rgbf000129-resize-original.jpg,1000,1.4075,2,8365,1006,meters,jsons/v1_VE1000_randls_11_rotated.json,1365826,1731499,30,Man
19,454653,DepthScenes,duration_manipulation_targetAtFixation,jsons/v1_VE1000_randls_11_rotated.json,http://54.235.29.9/FacialAge/BNav_EC2/DepthDuration/v2_depth_duration_MTurk/v2_DepthDuration_HTML.html#127,127,1280,657,1280,800,8-22-2022,5-3-11,20,depth_duration_stimuli/002678_2014-06-13_16-15-32_094959634447_rgbf000151-resize_6/002678_2014-06-13_16-15-32_094959634447_rgbf000151-resize_6-target.png,1000,2.1830000000000003,4,7556,999,meters,jsons/v1_VE1000_randls_11_rotated.json,1365826,1731499,30,Man
20,454653,DepthScenes,duration_manipulation_targetAtFixation,jsons/v1_VE1000_randls_11_rotated.json,http://54.235.29.9/FacialAge/BNav_EC2/DepthDuration/v2_depth_duration_MTurk/v2_DepthDuration_HTML.html#127,127,1280,657,1280,800,8-22-2022,5-3-11,21,depth_duration_stimuli/000368_2014-06-09_15-53-01_260595134347_rgbf000155-resize_2/000368_2014-06-09_15-53-01_260595134347_rgbf000155-resize_2-target.png,1000,2.4859999999999998,5,14468,999,meters,jsons/v1_VE1000_randls_11_rotated.json,1365826,1731499,30,Man
21,454653,DepthScenes,duration_manipulation_targetAtFixation,jsons/v1_VE1000_randls_11_rotated.json,http://54.235.29.9/FacialAge/BNav_EC2/DepthDuration/v2_depth_duration_MTurk/v2_DepthDuration_HTML.html#127,127,1280,657,1280,800,8-22-2022,5-3-11,22,depth_duration_stimuli/001235_2014-06-17_16-37-36_260595134347_rgbf000084-resize_4/001235_2014-06-17_16-37-36_260595134347_rgbf000084-resize_4-target.png,1000,3.6605,3,7217,1000,meters,jsons/v1_VE1000_randls_11_rotated.json,1365826,1731499,30,Man
22,454653,DepthScenes,duration_manipulation_targetAtFixation,jsons/v1_VE1000_randls_11_rotated.json,http://54.235.29.9/FacialAge/BNav_EC2/DepthDuration/v2_depth_duration_MTurk/v2_DepthDuration_HTML.html#127,127,1280,657,1280,800,8-22-2022,5-3-11,23,depth_duration_stimuli/000788_2014-06-08_22-34-36_260595134347_rgbf000131-resize_1/000788_2014-06-08_22-34-36_260595134347_rgbf000131-resize_1-target.png,1000,3.359,2,12716,993,meters,jsons/v1_VE1000_randls_11_rotated.json,1365826,1731499,30,Man
23,454653,DepthScenes,duration_manipulation_targetAtFixation,jsons/v1_VE1000_randls_11_rotated.json,http://54.235.29.9/FacialAge/BNav_EC2/DepthDuration/v2_depth_duration_MTurk/v2_DepthDuration_HTML.html#127,127,1280,657,1280,800,8-22-2022,5-3-11,24,depth_duration_stimuli/003083_2014-06-15_15-21-03_094959634447_rgbf000063-resize_1/003083_2014-06-15_15-21-03_094959634447_rgbf000063-resize_1-target.png,1000,4.1405,4,9144,970,meters,jsons/v1_VE1000_randls_11_rotated.json,1365826,1731499,30,Man
24,454653,DepthScenes,duration_manipulation_targetAtFixation,jsons/v1_VE1000_randls_11_rotated.json,http://54.235.29.9/FacialAge/BNav_EC2/DepthDuration/v2_depth_duration_MTurk/v2_DepthDuration_HTML.html#127,127,1280,657,1280,800,8-22-2022,5-3-11,25,depth_duration_stimuli/000486_2014-06-09_20-47-20_260595134347_rgbf000143-resize_2/000486_2014-06-09_20-47-20_260595134347_rgbf000143-resize_2-target.png,1000,4.8325,3,8245,995,meters,jsons/v1_VE1000_randls_11_rotated.json,1365826,1731499,30,Man
25,454653,DepthScenes,duration_manipulation_targetAtFixation,jsons/v1_VE1000_randls_11_rotated.json,http://54.235.29.9/FacialAge/BNav_EC2/DepthDuration/v2_depth_duration_MTurk/v2_DepthDuration_HTML.html#127,127,1280,657,1280,800,8-22-2022,5-3-11,26,depth_duration_stimuli/002637_2014-06-24_14-51-13_094959634447_rgbf000066-resize_4/002637_2014-06-24_14-51-13_094959634447_rgbf000066-resize_4-target.png,1000,1.9955,3,6482,995,meters,jsons/v1_VE1000_randls_11_rotated.json,1365826,1731499,30,Man
26,454653,DepthScenes,duration_manipulation_targetAtFixation,jsons/v1_VE1000_randls_11_rotated.json,http://54.235.29.9/FacialAge/BNav_EC2/DepthDuration/v2_depth_duration_MTurk/v2_DepthDuration_HTML.html#127,127,1280,657,1280,800,8-22-2022,5-3-11,27,depth_duration_stimuli/003534_2014-05-22_15-06-10_094959634447_rgbf000102-resize_4/003534_2014-05-22_15-06-10_094959634447_rgbf000102-resize_4-target.png,1000,1.426,2,4367,997,meters,jsons/v1_VE1000_randls_11_rotated.json,1365826,1731499,30,Man
27,454653,DepthScenes,duration_manipulation_targetAtFixation,jsons/v1_VE1000_randls_11_rotated.json,http://54.235.29.9/FacialAge/BNav_EC2/DepthDuration/v2_depth_duration_MTurk/v2_DepthDuration_HTML.html#127,127,1280,657,1280,800,8-22-2022,5-3-11,28,depth_duration_stimuli/001584_2014-06-20_11-07-43_260595134347_rgbf000002-resize_1/001584_2014-06-20_11-07-43_260595134347_rgbf000002-resize_1-target.png,1000,3.53,5,7953,976,meters,jsons/v1_VE1000_randls_11_rotated.json,1365826,1731499,30,Man
28,454653,DepthScenes,duration_manipulation_targetAtFixation,jsons/v1_VE1000_randls_11_rotated.json,http://54.235.29.9/FacialAge/BNav_EC2/DepthDuration/v2_depth_duration_MTurk/v2_DepthDuration_HTML.html#127,127,1280,657,1280,800,8-22-2022,5-3-11,29,depth_duration_stimuli/003621_2014-05-23_18-06-08_094959634447_rgbf000101-resize_1/003621_2014-05-23_18-06-08_094959634447_rgbf000101-resize_1-target.png,1000,3.9835,5,4844,1001,meters,jsons/v1_VE1000_randls_11_rotated.json,1365826,1731499,30,Man
29,454653,DepthScenes,duration_manipulation_targetAtFixation,jsons/v1_VE1000_randls_11_rotated.json,http://54.235.29.9/FacialAge/BNav_EC2/DepthDuration/v2_depth_duration_MTurk/v2_DepthDuration_HTML.html#127,127,1280,657,1280,800,8-22-2022,5-3-11,30,depth_duration_stimuli/002072_2014-06-24_21-48-06_260595134347_rgbf000115-resize_0/002072_2014-06-24_21-48-06_260595134347_rgbf000115-resize-original.jpg,1000,4.702,3,9379,1000,meters,jsons/v1_VE1000_randls_11_rotated.json,1365826,1731499,30,Man
30,454653,DepthScenes,duration_manipulation_targetAtFixation,jsons/v1_VE1000_randls_11_rotated.json,http://54.235.29.9/FacialAge/BNav_EC2/DepthDuration/v2_depth_duration_MTurk/v2_DepthDuration_HTML.html#127,127,1280,657,1280,800,8-22-2022,5-3-11,31,depth_duration_stimuli/002103_2014-06-25_20-00-40_260595134347_rgbf000049-resize_0/002103_2014-06-25_20-00-40_260595134347_rgbf000049-resize_0-target.png,1000,4.105,2,8324,990,meters,jsons/v1_VE1000_randls_11_rotated.json,1365826,1731499,30,Man
31,454653,DepthScenes,duration_manipulation_targetAtFixation,jsons/v1_VE1000_randls_11_rotated.json,http://54.235.29.9/FacialAge/BNav_EC2/DepthDuration/v2_depth_duration_MTurk/v2_DepthDuration_HTML.html#127,127,1280,657,1280,800,8-22-2022,5-3-11,32,depth_duration_stimuli/002039_2014-06-24_20-22-38_260595134347_rgbf000084-resize_1/002039_2014-06-24_20-22-38_260595134347_rgbf000084-resize_1-target.png,1000,4.408,5,8834,1000,meters,jsons/v1_VE1000_randls_11_rotated.json,1365826,1731499,30,Man
32,454653,DepthScenes,duration_manipulation_targetAtFixation,jsons/v1_VE1000_randls_11_rotated.json,http://54.235.29.9/FacialAge/BNav_EC2/DepthDuration/v2_depth_duration_MTurk/v2_DepthDuration_HTML.html#127,127,1280,657,1280,800,8-22-2022,5-3-11,33,depth_duration_stimuli/000943_2014-06-09_19-31-07_260595134347_rgbf000128-resize_1/000943_2014-06-09_19-31-07_260595134347_rgbf000128-resize_1-target.png,1000,1.9765,4,6915,1009,meters,jsons/v1_VE1000_randls_11_rotated.json,1365826,1731499,30,Man
33,454653,DepthScenes,duration_manipulation_targetAtFixation,jsons/v1_VE1000_randls_11_rotated.json,http://54.235.29.9/FacialAge/BNav_EC2/DepthDuration/v2_depth_duration_MTurk/v2_DepthDuration_HTML.html#127,127,1280,657,1280,800,8-22-2022,5-3-11,34,depth_duration_stimuli/003070_2014-06-15_14-58-27_094959634447_rgbf000150-resize_3/003070_2014-06-15_14-58-27_094959634447_rgbf000150-resize_3-target.png,1000,2.9415,2,11395,999,meters,jsons/v1_VE1000_randls_11_rotated.json,1365826,1731499,30,Man
34,454653,DepthScenes,duration_manipulation_targetAtFixation,jsons/v1_VE1000_randls_11_rotated.json,http://54.235.29.9/FacialAge/BNav_EC2/DepthDuration/v2_depth_duration_MTurk/v2_DepthDuration_HTML.html#127,127,1280,657,1280,800,8-22-2022,5-3-11,35,depth_duration_stimuli/002425_2014-06-28_20-27-29_260595134347_rgbf000031-resize_8/002425_2014-06-28_20-27-29_260595134347_rgbf000031-resize_8-target.png,1000,3.8960000000000004,1,7022,984,meters,jsons/v1_VE1000_randls_11_rotated.json,1365826,1731499,30,Man
35,454653,DepthScenes,duration_manipulation_targetAtFixation,jsons/v1_VE1000_randls_11_rotated.json,http://54.235.29.9/FacialAge/BNav_EC2/DepthDuration/v2_depth_duration_MTurk/v2_DepthDuration_HTML.html#127,127,1280,657,1280,800,8-22-2022,5-3-11,36,depth_duration_stimuli/000642_2014-06-08_16-59-25_260595134347_rgbf000098-resize_2/000642_2014-06-08_16-59-25_260595134347_rgbf000098-resize_2-target.png,1000,2.8815,4,8833,999,meters,jsons/v1_VE1000_randls_11_rotated.json,1365826,1731499,30,Man
36,454653,DepthScenes,duration_manipulation_targetAtFixation,jsons/v1_VE1000_randls_11_rotated.json,http://54.235.29.9/FacialAge/BNav_EC2/DepthDuration/v2_depth_duration_MTurk/v2_DepthDuration_HTML.html#127,127,1280,657,1280,800,8-22-2022,5-3-11,37,depth_duration_stimuli/002414_2014-06-28_20-24-58_260595134347_rgbf000067-resize_4/002414_2014-06-28_20-24-58_260595134347_rgbf000067-resize_4-target.png,1000,4.363,5,10841,988,meters,jsons/v1_VE1000_randls_11_rotated.json,1365826,1731499,30,Man
37,454653,DepthScenes,duration_manipulation_targetAtFixation,jsons/v1_VE1000_randls_11_rotated.json,http://54.235.29.9/FacialAge/BNav_EC2/DepthDuration/v2_depth_duration_MTurk/v2_DepthDuration_HTML.html#127,127,1280,657,1280,800,8-22-2022,5-3-11,38,depth_duration_stimuli/000773_2014-06-08_22-24-54_260595134347_rgbf000093-resize_1/000773_2014-06-08_22-24-54_260595134347_rgbf000093-resize_1-target.png,1000,4.973,3,9459,1014,meters,jsons/v1_VE1000_randls_11_rotated.json,1365826,1731499,30,Man
38,454653,DepthScenes,duration_manipulation_targetAtFixation,jsons/v1_VE1000_randls_11_rotated.json,http://54.235.29.9/FacialAge/BNav_EC2/DepthDuration/v2_depth_duration_MTurk/v2_DepthDuration_HTML.html#127,127,1280,657,1280,800,8-22-2022,5-3-11,39,depth_duration_stimuli/002209_2014-06-28_18-36-10_260595134347_rgbf000051-resize_1/002209_2014-06-28_18-36-10_260595134347_rgbf000051-resize_1-target.png,1000,2.057,2,8418,1000,meters,jsons/v1_VE1000_randls_11_rotated.json,1365826,1731499,30,Man
39,454653,DepthScenes,duration_manipulation_targetAtFixation,jsons/v1_VE1000_randls_11_rotated.json,http://54.235.29.9/FacialAge/BNav_EC2/DepthDuration/v2_depth_duration_MTurk/v2_DepthDuration_HTML.html#127,127,1280,657,1280,800,8-22-2022,5-3-11,40,depth_duration_stimuli/002763_2014-06-22_19-13-10_094959634447_rgbf000075-resize_4/002763_2014-06-22_19-13-10_094959634447_rgbf000075-resize_4-target.png,1000,1.68375,3,7911,1006,meters,jsons/v1_VE1000_randls_11_rotated.json,1365826,1731499,30,Man
40,454653,DepthScenes,duration_manipulation_targetAtFixation,jsons/v1_VE1000_randls_11_rotated.json,http://54.235.29.9/FacialAge/BNav_EC2/DepthDuration/v2_depth_duration_MTurk/v2_DepthDuration_HTML.html#127,127,1280,657,1280,800,8-22-2022,5-3-11,41,depth_duration_stimuli/000556_2014-06-09_22-42-56_260595134347_rgbf000214-resize_1/000556_2014-06-09_22-42-56_260595134347_rgbf000214-resize_1-target.png,1000,4.8415,4,11287,1005,meters,jsons/v1_VE1000_randls_11_rotated.json,1365826,1731499,30,Man
41,454653,DepthScenes,duration_manipulation_targetAtFixation,jsons/v1_VE1000_randls_11_rotated.json,http://54.235.29.9/FacialAge/BNav_EC2/DepthDuration/v2_depth_duration_MTurk/v2_DepthDuration_HTML.html#127,127,1280,657,1280,800,8-22-2022,5-3-11,42,depth_duration_stimuli/001158_2014-06-17_15-32-16_260595134347_rgbf000138-resize_2/001158_2014-06-17_15-32-16_260595134347_rgbf000138-resize_2-target.png,1000,4.5315,3,7978,993,meters,jsons/v1_VE1000_randls_11_rotated.json,1365826,1731499,30,Man
42,454653,DepthScenes,duration_manipulation_targetAtFixation,jsons/v1_VE1000_randls_11_rotated.json,http://54.235.29.9/FacialAge/BNav_EC2/DepthDuration/v2_depth_duration_MTurk/v2_DepthDuration_HTML.html#127,127,1280,657,1280,800,8-22-2022,5-3-11,43,depth_duration_stimuli/000409_2014-06-04_19-23-33_260595134347_rgbf000067-resize_0/000409_2014-06-04_19-23-33_260595134347_rgbf000067-resize_0-target.png,1000,3.7335,4,7728,1006,meters,jsons/v1_VE1000_randls_11_rotated.json,1365826,1731499,30,Man
43,454653,DepthScenes,duration_manipulation_targetAtFixation,jsons/v1_VE1000_randls_11_rotated.json,http://54.235.29.9/FacialAge/BNav_EC2/DepthDuration/v2_depth_duration_MTurk/v2_DepthDuration_HTML.html#127,127,1280,657,1280,800,8-22-2022,5-3-11,44,depth_duration_stimuli/002663_2014-06-13_15-50-26_094959634447_rgbf000075-resize_1/002663_2014-06-13_15-50-26_094959634447_rgbf000075-resize_1-target.png,1000,4.7495,2,6609,978,meters,jsons/v1_VE1000_randls_11_rotated.json,1365826,1731499,30,Man
44,454653,DepthScenes,duration_manipulation_targetAtFixation,jsons/v1_VE1000_randls_11_rotated.json,http://54.235.29.9/FacialAge/BNav_EC2/DepthDuration/v2_depth_duration_MTurk/v2_DepthDuration_HTML.html#127,127,1280,657,1280,800,8-22-2022,5-3-11,45,depth_duration_stimuli/000109_2014-05-14_23-41-52_260595134347_rgbf000035-resize_9/000109_2014-05-14_23-41-52_260595134347_rgbf000035-resize_9-target.png,1000,1.3545,3,6462,1001,meters,jsons/v1_VE1000_randls_11_rotated.json,1365826,1731499,30,Man
45,454653,DepthScenes,duration_manipulation_targetAtFixation,jsons/v1_VE1000_randls_11_rotated.json,http://54.235.29.9/FacialAge/BNav_EC2/DepthDuration/v2_depth_duration_MTurk/v2_DepthDuration_HTML.html#127,127,1280,657,1280,800,8-22-2022,5-3-11,46,depth_duration_stimuli/000470_2014-06-09_19-42-40_260595134347_rgbf000094-resize_1/000470_2014-06-09_19-42-40_260595134347_rgbf000094-resize_1-target.png,1000,1.831,3,6962,1001,meters,jsons/v1_VE1000_randls_11_rotated.json,1365826,1731499,30,Man
46,454653,DepthScenes,duration_manipulation_targetAtFixation,jsons/v1_VE1000_randls_11_rotated.json,http://54.235.29.9/FacialAge/BNav_EC2/DepthDuration/v2_depth_duration_MTurk/v2_DepthDuration_HTML.html#127,127,1280,657,1280,800,8-22-2022,5-3-11,47,depth_duration_stimuli/001100_2014-06-15_17-46-26_260595134347_rgbf000225-resize_2/001100_2014-06-15_17-46-26_260595134347_rgbf000225-resize_2-target.png,1000,2.24,3,6992,998,meters,jsons/v1_VE1000_randls_11_rotated.json,1365826,1731499,30,Man
47,454653,DepthScenes,duration_manipulation_targetAtFixation,jsons/v1_VE1000_randls_11_rotated.json,http://54.235.29.9/FacialAge/BNav_EC2/DepthDuration/v2_depth_duration_MTurk/v2_DepthDuration_HTML.html#127,127,1280,657,1280,800,8-22-2022,5-3-11,48,depth_duration_stimuli/002784_2014-06-22_19-26-30_094959634447_rgbf000083-resize_3/002784_2014-06-22_19-26-30_094959634447_rgbf000083-resize_3-target.png,1000,1.8046666666667,1,6937,998,meters,jsons/v1_VE1000_randls_11_rotated.json,1365826,1731499,30,Man
48,454653,DepthScenes,duration_manipulation_targetAtFixation,jsons/v1_VE1000_randls_11_rotated.json,http://54.235.29.9/FacialAge/BNav_EC2/DepthDuration/v2_depth_duration_MTurk/v2_DepthDuration_HTML.html#127,127,1280,657,1280,800,8-22-2022,5-3-11,49,depth_duration_stimuli/001170_2014-06-17_15-43-44_260595134347_rgbf000096-resize_6/001170_2014-06-17_15-43-44_260595134347_rgbf000096-resize-original.jpg,1000,1.1909999999999998,3,13919,992,meters,jsons/v1_VE1000_randls_11_rotated.json,1365826,1731499,30,Man
49,454653,DepthScenes,duration_manipulation_targetAtFixation,jsons/v1_VE1000_randls_11_rotated.json,http://54.235.29.9/FacialAge/BNav_EC2/DepthDuration/v2_depth_duration_MTurk/v2_DepthDuration_HTML.html#127,127,1280,657,1280,800,8-22-2022,5-3-11,50,depth_duration_stimuli/002875_2014-06-01_15-19-00_094959634447_rgbf000151-resize_1/002875_2014-06-01_15-19-00_094959634447_rgbf000151-resize_1-target.png,1000,1.9675,4,8022,998,meters,jsons/v1_VE1000_randls_11_rotated.json,1365826,1731499,30,Man
50,454653,DepthScenes,duration_manipulation_targetAtFixation,jsons/v1_VE1000_randls_11_rotated.json,http://54.235.29.9/FacialAge/BNav_EC2/DepthDuration/v2_depth_duration_MTurk/v2_DepthDuration_HTML.html#127,127,1280,657,1280,800,8-22-2022,5-3-11,51,depth_duration_stimuli/001011_2014-06-08_23-18-54_260595134347_rgbf000044-resize_4/001011_2014-06-08_23-18-54_260595134347_rgbf000044-resize_4-target.png,1000,2.4730000000000003,5,6698,1121,meters,jsons/v1_VE1000_randls_11_rotated.json,1365826,1731499,30,Man
51,454653,DepthScenes,duration_manipulation_targetAtFixation,jsons/v1_VE1000_randls_11_rotated.json,http://54.235.29.9/FacialAge/BNav_EC2/DepthDuration/v2_depth_duration_MTurk/v2_DepthDuration_HTML.html#127,127,1280,657,1280,800,8-22-2022,5-3-11,52,depth_duration_stimuli/001132_2014-06-17_14-48-54_260595134347_rgbf000100-resize_2/001132_2014-06-17_14-48-54_260595134347_rgbf000100-resize_2-target.png,1000,3.753,3,7459,994,meters,jsons/v1_VE1000_randls_11_rotated.json,1365826,1731499,30,Man
52,454653,DepthScenes,duration_manipulation_targetAtFixation,jsons/v1_VE1000_randls_11_rotated.json,http://54.235.29.9/FacialAge/BNav_EC2/DepthDuration/v2_depth_duration_MTurk/v2_DepthDuration_HTML.html#127,127,1280,657,1280,800,8-22-2022,5-3-11,53,depth_duration_stimuli/001133_2014-06-17_14-49-16_260595134347_rgbf000100-resize_0/001133_2014-06-17_14-49-16_260595134347_rgbf000100-resize_0-target.png,1000,4.2115,1,6110,998,meters,jsons/v1_VE1000_randls_11_rotated.json,1365826,1731499,30,Man
53,454653,DepthScenes,duration_manipulation_targetAtFixation,jsons/v1_VE1000_randls_11_rotated.json,http://54.235.29.9/FacialAge/BNav_EC2/DepthDuration/v2_depth_duration_MTurk/v2_DepthDuration_HTML.html#127,127,1280,657,1280,800,8-22-2022,5-3-11,54,depth_duration_stimuli/000665_2014-06-09_20-42-35_260595134347_rgbf000110-resize_1/000665_2014-06-09_20-42-35_260595134347_rgbf000110-resize_1-target.png,1000,3.057,3,11457,1037,meters,jsons/v1_VE1000_randls_11_rotated.json,1365826,1731499,30,Man
54,454653,DepthScenes,duration_manipulation_targetAtFixation,jsons/v1_VE1000_randls_11_rotated.json,http://54.235.29.9/FacialAge/BNav_EC2/DepthDuration/v2_depth_duration_MTurk/v2_DepthDuration_HTML.html#127,127,1280,657,1280,800,8-22-2022,5-3-11,55,depth_duration_stimuli/001150_2014-06-17_15-27-34_260595134347_rgbf000108-resize_2/001150_2014-06-17_15-27-34_260595134347_rgbf000108-resize_2-target.png,1000,4.0325,4,7324,1002,meters,jsons/v1_VE1000_randls_11_rotated.json,1365826,1731499,30,Man
55,454653,DepthScenes,duration_manipulation_targetAtFixation,jsons/v1_VE1000_randls_11_rotated.json,http://54.235.29.9/FacialAge/BNav_EC2/DepthDuration/v2_depth_duration_MTurk/v2_DepthDuration_HTML.html#127,127,1280,657,1280,800,8-22-2022,5-3-11,56,depth_duration_stimuli/001392_2014-06-19_16-07-59_260595134347_rgbf000046-resize_1/001392_2014-06-19_16-07-59_260595134347_rgbf000046-resize_1-target.png,1000,4.135,5,6284,998,meters,jsons/v1_VE1000_randls_11_rotated.json,1365826,1731499,30,Man
56,454653,DepthScenes,duration_manipulation_targetAtFixation,jsons/v1_VE1000_randls_11_rotated.json,http://54.235.29.9/FacialAge/BNav_EC2/DepthDuration/v2_depth_duration_MTurk/v2_DepthDuration_HTML.html#127,127,1280,657,1280,800,8-22-2022,5-3-11,57,depth_duration_stimuli/001570_2014-06-20_17-21-09_260595134347_rgbf000135-resize_4/001570_2014-06-20_17-21-09_260595134347_rgbf000135-resize_4-target.png,1000,4.467,2,7877,996,meters,jsons/v1_VE1000_randls_11_rotated.json,1365826,1731499,30,Man
57,454653,DepthScenes,duration_manipulation_targetAtFixation,jsons/v1_VE1000_randls_11_rotated.json,http://54.235.29.9/FacialAge/BNav_EC2/DepthDuration/v2_depth_duration_MTurk/v2_DepthDuration_HTML.html#127,127,1280,657,1280,800,8-22-2022,5-3-11,58,depth_duration_stimuli/000691_2014-06-08_13-08-50_260595134347_rgbf000132-resize_3/000691_2014-06-08_13-08-50_260595134347_rgbf000132-resize_3-target.png,1000,4.1530000000000005,3,6632,1001,meters,jsons/v1_VE1000_randls_11_rotated.json,1365826,1731499,30,Man
58,454653,DepthScenes,duration_manipulation_targetAtFixation,jsons/v1_VE1000_randls_11_rotated.json,http://54.235.29.9/FacialAge/BNav_EC2/DepthDuration/v2_depth_duration_MTurk/v2_DepthDuration_HTML.html#127,127,1280,657,1280,800,8-22-2022,5-3-11,59,depth_duration_stimuli/002213_2014-06-28_18-37-58_260595134347_rgbf000055-resize_1/002213_2014-06-28_18-37-58_260595134347_rgbf000055-resize_1-target.png,1000,3.62,4,8197,958,meters,jsons/v1_VE1000_randls_11_rotated.json,1365826,1731499,30,Man
59,454653,DepthScenes,duration_manipulation_targetAtFixation,jsons/v1_VE1000_randls_11_rotated.json,http://54.235.29.9/FacialAge/BNav_EC2/DepthDuration/v2_depth_duration_MTurk/v2_DepthDuration_HTML.html#127,127,1280,657,1280,800,8-22-2022,5-3-11,60,depth_duration_stimuli/002657_2014-06-13_15-29-54_094959634447_rgbf000150-resize_1/002657_2014-06-13_15-29-54_094959634447_rgbf000150-resize_1-target.png,1000,4.919,5,7642,998,meters,jsons/v1_VE1000_randls_11_rotated.json,1365826,1731499,30,Man
60,454653,DepthScenes,duration_manipulation_targetAtFixation,jsons/v1_VE1000_randls_11_rotated.json,http://54.235.29.9/FacialAge/BNav_EC2/DepthDuration/v2_depth_duration_MTurk/v2_DepthDuration_HTML.html#127,127,1280,657,1280,800,8-22-2022,5-3-11,61,depth_duration_stimuli/002375_2014-06-28_20-13-44_260595134347_rgbf000032-resize_1/002375_2014-06-28_20-13-44_260595134347_rgbf000032-resize_1-target.png,1000,4.0175,2,8569,982,meters,jsons/v1_VE1000_randls_11_rotated.json,1365826,1731499,30,Man
61,454653,DepthScenes,duration_manipulation_targetAtFixation,jsons/v1_VE1000_randls_11_rotated.json,http://54.235.29.9/FacialAge/BNav_EC2/DepthDuration/v2_depth_duration_MTurk/v2_DepthDuration_HTML.html#127,127,1280,657,1280,800,8-22-2022,5-3-11,62,depth_duration_stimuli/002949_2014-06-26_15-57-42_094959634447_rgbf000079-resize_1/002949_2014-06-26_15-57-42_094959634447_rgbf000079-resize_1-target.png,1000,1.8915,1,6884,1082,meters,jsons/v1_VE1000_randls_11_rotated.json,1365826,1731499,30,Man
62,454653,DepthScenes,duration_manipulation_targetAtFixation,jsons/v1_VE1000_randls_11_rotated.json,http://54.235.29.9/FacialAge/BNav_EC2/DepthDuration/v2_depth_duration_MTurk/v2_DepthDuration_HTML.html#127,127,1280,657,1280,800,8-22-2022,5-3-11,63,depth_duration_stimuli/000522_2014-06-08_13-35-06_260595134347_rgbf000244-resize_1/000522_2014-06-08_13-35-06_260595134347_rgbf000244-resize_1-target.png,1000,2.3715,3,6547,1006,meters,jsons/v1_VE1000_randls_11_rotated.json,1365826,1731499,30,Man
63,454653,DepthScenes,duration_manipulation_targetAtFixation,jsons/v1_VE1000_randls_11_rotated.json,http://54.235.29.9/FacialAge/BNav_EC2/DepthDuration/v2_depth_duration_MTurk/v2_DepthDuration_HTML.html#127,127,1280,657,1280,800,8-22-2022,5-3-11,64,depth_duration_stimuli/003081_2014-06-15_15-19-16_094959634447_rgbf000150-resize_1/003081_2014-06-15_15-19-16_094959634447_rgbf000150-resize_1-target.png,1000,3.9125,2,5985,800,meters,jsons/v1_VE1000_randls_11_rotated.json,1365826,1731499,30,Man
64,454653,DepthScenes,duration_manipulation_targetAtFixation,jsons/v1_VE1000_randls_11_rotated.json,http://54.235.29.9/FacialAge/BNav_EC2/DepthDuration/v2_depth_duration_MTurk/v2_DepthDuration_HTML.html#127,127,1280,657,1280,800,8-22-2022,5-3-11,65,depth_duration_stimuli/001417_2014-06-19_16-25-36_260595134347_rgbf000115-resize_5/001417_2014-06-19_16-25-36_260595134347_rgbf000115-resize_5-target.png,1000,4.6255,4,7830,997,meters,jsons/v1_VE1000_randls_11_rotated.json,1365826,1731499,30,Man
65,454653,DepthScenes,duration_manipulation_targetAtFixation,jsons/v1_VE1000_randls_11_rotated.json,http://54.235.29.9/FacialAge/BNav_EC2/DepthDuration/v2_depth_duration_MTurk/v2_DepthDuration_HTML.html#127,127,1280,657,1280,800,8-22-2022,5-3-11,66,depth_duration_stimuli/001540_2014-06-20_17-01-05_260595134347_rgbf000086-resize_2/001540_2014-06-20_17-01-05_260595134347_rgbf000086-resize-original.jpg,1000,1.459,5,5810,1002,meters,jsons/v1_VE1000_randls_11_rotated.json,1365826,1731499,30,Man
66,454653,DepthScenes,duration_manipulation_targetAtFixation,jsons/v1_VE1000_randls_11_rotated.json,http://54.235.29.9/FacialAge/BNav_EC2/DepthDuration/v2_depth_duration_MTurk/v2_DepthDuration_HTML.html#127,127,1280,657,1280,800,8-22-2022,5-3-11,67,depth_duration_stimuli/002750_2014-06-22_19-08-03_094959634447_rgbf000094-resize_4/002750_2014-06-22_19-08-03_094959634447_rgbf000094-resize_4-target.png,1000,2.354,3,7688,1000,meters,jsons/v1_VE1000_randls_11_rotated.json,1365826,1731499,30,Man
67,454653,DepthScenes,duration_manipulation_targetAtFixation,jsons/v1_VE1000_randls_11_rotated.json,http://54.235.29.9/FacialAge/BNav_EC2/DepthDuration/v2_depth_duration_MTurk/v2_DepthDuration_HTML.html#127,127,1280,657,1280,800,8-22-2022,5-3-11,68,depth_duration_stimuli/002549_2014-06-24_13-41-39_094959634447_rgbf000022-resize_3/002549_2014-06-24_13-41-39_094959634447_rgbf000022-resize_3-target.png,1000,1.476,1,7695,1007,meters,jsons/v1_VE1000_randls_11_rotated.json,1365826,1731499,30,Man
68,454653,DepthScenes,duration_manipulation_targetAtFixation,jsons/v1_VE1000_randls_11_rotated.json,http://54.235.29.9/FacialAge/BNav_EC2/DepthDuration/v2_depth_duration_MTurk/v2_DepthDuration_HTML.html#127,127,1280,657,1280,800,8-22-2022,5-3-11,69,depth_duration_stimuli/000677_2014-06-08_23-10-32_260595134347_rgbf000158-resize_6/000677_2014-06-08_23-10-32_260595134347_rgbf000158-resize_6-target.png,1000,3.556,1,6780,1003,meters,jsons/v1_VE1000_randls_11_rotated.json,1365826,1731499,30,Man
69,454653,DepthScenes,duration_manipulation_targetAtFixation,jsons/v1_VE1000_randls_11_rotated.json,http://54.235.29.9/FacialAge/BNav_EC2/DepthDuration/v2_depth_duration_MTurk/v2_DepthDuration_HTML.html#127,127,1280,657,1280,800,8-22-2022,5-3-11,70,depth_duration_stimuli/001029_2014-06-08_13-17-57_260595134347_rgbf000065-resize_1/001029_2014-06-08_13-17-57_260595134347_rgbf000065-resize_1-target.png,1000,3.0835,2,6505,1004,meters,jsons/v1_VE1000_randls_11_rotated.json,1365826,1731499,30,Man
70,454653,DepthScenes,duration_manipulation_targetAtFixation,jsons/v1_VE1000_randls_11_rotated.json,http://54.235.29.9/FacialAge/BNav_EC2/DepthDuration/v2_depth_duration_MTurk/v2_DepthDuration_HTML.html#127,127,1280,657,1280,800,8-22-2022,5-3-11,71,depth_duration_stimuli/000866_2014-06-09_20-45-42_260595134347_rgbf000139-resize_1/000866_2014-06-09_20-45-42_260595134347_rgbf000139-resize_1-target.png,1000,3.2155,3,7572,997,meters,jsons/v1_VE1000_randls_11_rotated.json,1365826,1731499,30,Man
71,454653,DepthScenes,duration_manipulation_targetAtFixation,jsons/v1_VE1000_randls_11_rotated.json,http://54.235.29.9/FacialAge/BNav_EC2/DepthDuration/v2_depth_duration_MTurk/v2_DepthDuration_HTML.html#127,127,1280,657,1280,800,8-22-2022,5-3-11,72,depth_duration_stimuli/002989_2014-06-15_12-25-03_094959634447_rgbf000150-resize_3/002989_2014-06-15_12-25-03_094959634447_rgbf000150-resize_3-target.png,1000,4.1975,3,7204,984,meters,jsons/v1_VE1000_randls_11_rotated.json,1365826,1731499,30,Man
72,454653,DepthScenes,duration_manipulation_targetAtFixation,jsons/v1_VE1000_randls_11_rotated.json,http://54.235.29.9/FacialAge/BNav_EC2/DepthDuration/v2_depth_duration_MTurk/v2_DepthDuration_HTML.html#127,127,1280,657,1280,800,8-22-2022,5-3-11,73,depth_duration_stimuli/003079_2014-06-15_15-18-20_094959634447_rgbf000152-resize_8/003079_2014-06-15_15-18-20_094959634447_rgbf000152-resize_8-target.png,1000,2.8775,3,6416,888,meters,jsons/v1_VE1000_randls_11_rotated.json,1365826,1731499,30,Man
73,454653,DepthScenes,duration_manipulation_targetAtFixation,jsons/v1_VE1000_randls_11_rotated.json,http://54.235.29.9/FacialAge/BNav_EC2/DepthDuration/v2_depth_duration_MTurk/v2_DepthDuration_HTML.html#127,127,1280,657,1280,800,8-22-2022,5-3-11,74,depth_duration_stimuli/000506_2014-06-08_23-21-00_260595134347_rgbf000070-resize_7/000506_2014-06-08_23-21-00_260595134347_rgbf000070-resize_7-target.png,1000,4.0585,3,6447,974,meters,jsons/v1_VE1000_randls_11_rotated.json,1365826,1731499,30,Man
74,454653,DepthScenes,duration_manipulation_targetAtFixation,jsons/v1_VE1000_randls_11_rotated.json,http://54.235.29.9/FacialAge/BNav_EC2/DepthDuration/v2_depth_duration_MTurk/v2_DepthDuration_HTML.html#127,127,1280,657,1280,800,8-22-2022,5-3-11,75,depth_duration_stimuli/003495_2014-05-21_16-01-51_094959634447_rgbf000100-resize_3/003495_2014-05-21_16-01-51_094959634447_rgbf000100-resize_3-target.png,1000,1.6255,3,8405,999,meters,jsons/v1_VE1000_randls_11_rotated.json,1365826,1731499,30,Man
75,454653,DepthScenes,duration_manipulation_targetAtFixation,jsons/v1_VE1000_randls_11_rotated.json,http://54.235.29.9/FacialAge/BNav_EC2/DepthDuration/v2_depth_duration_MTurk/v2_DepthDuration_HTML.html#127,127,1280,657,1280,800,8-22-2022,5-3-11,76,depth_duration_stimuli/001244_2014-06-17_16-47-45_260595134347_rgbf000030-resize_4/001244_2014-06-17_16-47-45_260595134347_rgbf000030-resize_4-target.png,1000,2.0425,2,6766,1002,meters,jsons/v1_VE1000_randls_11_rotated.json,1365826,1731499,30,Man
76,454653,DepthScenes,duration_manipulation_targetAtFixation,jsons/v1_VE1000_randls_11_rotated.json,http://54.235.29.9/FacialAge/BNav_EC2/DepthDuration/v2_depth_duration_MTurk/v2_DepthDuration_HTML.html#127,127,1280,657,1280,800,8-22-2022,5-3-11,77,depth_duration_stimuli/003228_2014-05-14_13-42-35_094959634447_rgbf000101-resize_1/003228_2014-05-14_13-42-35_094959634447_rgbf000101-resize_1-target.png,1000,1.9680000000000002,3,7089,971,meters,jsons/v1_VE1000_randls_11_rotated.json,1365826,1731499,30,Man
77,454653,DepthScenes,duration_manipulation_targetAtFixation,jsons/v1_VE1000_randls_11_rotated.json,http://54.235.29.9/FacialAge/BNav_EC2/DepthDuration/v2_depth_duration_MTurk/v2_DepthDuration_HTML.html#127,127,1280,657,1280,800,8-22-2022,5-3-11,78,depth_duration_stimuli/002600_2014-06-24_14-27-04_094959634447_rgbf000074-resize_2/002600_2014-06-24_14-27-04_094959634447_rgbf000074-resize_2-target.png,1000,2.7575,5,6563,997,meters,jsons/v1_VE1000_randls_11_rotated.json,1365826,1731499,30,Man
78,454653,DepthScenes,duration_manipulation_targetAtFixation,jsons/v1_VE1000_randls_11_rotated.json,http://54.235.29.9/FacialAge/BNav_EC2/DepthDuration/v2_depth_duration_MTurk/v2_DepthDuration_HTML.html#127,127,1280,657,1280,800,8-22-2022,5-3-11,79,depth_duration_stimuli/000854_2014-06-09_19-43-13_260595134347_rgbf000066-resize_0/000854_2014-06-09_19-43-13_260595134347_rgbf000066-resize_0-target.png,1000,3.068,2,7453,1007,meters,jsons/v1_VE1000_randls_11_rotated.json,1365826,1731499,30,Man
79,454653,DepthScenes,duration_manipulation_targetAtFixation,jsons/v1_VE1000_randls_11_rotated.json,http://54.235.29.9/FacialAge/BNav_EC2/DepthDuration/v2_depth_duration_MTurk/v2_DepthDuration_HTML.html#127,127,1280,657,1280,800,8-22-2022,5-3-11,80,depth_duration_stimuli/000758_2014-06-08_22-05-08_260595134347_rgbf000085-resize_0/000758_2014-06-08_22-05-08_260595134347_rgbf000085-resize_0-target.png,1000,3.3810000000000002,4,9176,936,meters,jsons/v1_VE1000_randls_11_rotated.json,1365826,1731499,30,Man
80,454653,DepthScenes,duration_manipulation_targetAtFixation,jsons/v1_VE1000_randls_11_rotated.json,http://54.235.29.9/FacialAge/BNav_EC2/DepthDuration/v2_depth_duration_MTurk/v2_DepthDuration_HTML.html#127,127,1280,657,1280,800,8-22-2022,5-3-11,81,depth_duration_stimuli/001617_2014-06-20_11-35-32_260595134347_rgbf000066-resize_1/001617_2014-06-20_11-35-32_260595134347_rgbf000066-resize_1-target.png,1000,3.7910000000000004,3,6295,984,meters,jsons/v1_VE1000_randls_11_rotated.json,1365826,1731499,30,Man
81,454653,DepthScenes,duration_manipulation_targetAtFixation,jsons/v1_VE1000_randls_11_rotated.json,http://54.235.29.9/FacialAge/BNav_EC2/DepthDuration/v2_depth_duration_MTurk/v2_DepthDuration_HTML.html#127,127,1280,657,1280,800,8-22-2022,5-3-11,82,depth_duration_stimuli/001806_2014-06-26_20-50-20_260595134347_rgbf000091-resize_1/001806_2014-06-26_20-50-20_260595134347_rgbf000091-resize_1-target.png,1000,2.7305,2,6435,864,meters,jsons/v1_VE1000_randls_11_rotated.json,1365826,1731499,30,Man
82,454653,DepthScenes,duration_manipulation_targetAtFixation,jsons/v1_VE1000_randls_11_rotated.json,http://54.235.29.9/FacialAge/BNav_EC2/DepthDuration/v2_depth_duration_MTurk/v2_DepthDuration_HTML.html#127,127,1280,657,1280,800,8-22-2022,5-3-11,83,depth_duration_stimuli/001815_2014-06-26_20-52-55_260595134347_rgbf000020-resize_0/001815_2014-06-26_20-52-55_260595134347_rgbf000020-resize_0-target.png,1000,3.3865,4,6093,1001,meters,jsons/v1_VE1000_randls_11_rotated.json,1365826,1731499,30,Man
83,454653,DepthScenes,duration_manipulation_targetAtFixation,jsons/v1_VE1000_randls_11_rotated.json,http://54.235.29.9/FacialAge/BNav_EC2/DepthDuration/v2_depth_duration_MTurk/v2_DepthDuration_HTML.html#127,127,1280,657,1280,800,8-22-2022,5-3-11,84,depth_duration_stimuli/001808_2014-06-26_20-50-58_260595134347_rgbf000029-resize_1/001808_2014-06-26_20-50-58_260595134347_rgbf000029-resize_1-target.png,1000,4.249,5,6059,1009,meters,jsons/v1_VE1000_randls_11_rotated.json,1365826,1731499,30,Man
84,454653,DepthScenes,duration_manipulation_targetAtFixation,jsons/v1_VE1000_randls_11_rotated.json,http://54.235.29.9/FacialAge/BNav_EC2/DepthDuration/v2_depth_duration_MTurk/v2_DepthDuration_HTML.html#127,127,1280,657,1280,800,8-22-2022,5-3-11,85,depth_duration_stimuli/001052_2014-06-08_18-24-54_260595134347_rgbf000130-resize_1/001052_2014-06-08_18-24-54_260595134347_rgbf000130-resize_1-target.png,1000,4.1045,5,6560,998,meters,jsons/v1_VE1000_randls_11_rotated.json,1365826,1731499,30,Man
85,454653,DepthScenes,duration_manipulation_targetAtFixation,jsons/v1_VE1000_randls_11_rotated.json,http://54.235.29.9/FacialAge/BNav_EC2/DepthDuration/v2_depth_duration_MTurk/v2_DepthDuration_HTML.html#127,127,1280,657,1280,800,8-22-2022,5-3-11,86,depth_duration_stimuli/002988_2014-06-15_12-24-20_094959634447_rgbf000150-resize_1/002988_2014-06-15_12-24-20_094959634447_rgbf000150-resize_1-target.png,1000,4.7669999999999995,2,8080,1192,meters,jsons/v1_VE1000_randls_11_rotated.json,1365826,1731499,30,Man
86,454653,DepthScenes,duration_manipulation_targetAtFixation,jsons/v1_VE1000_randls_11_rotated.json,http://54.235.29.9/FacialAge/BNav_EC2/DepthDuration/v2_depth_duration_MTurk/v2_DepthDuration_HTML.html#127,127,1280,657,1280,800,8-22-2022,5-3-11,87,depth_duration_stimuli/002995_2014-06-15_12-31-26_094959634447_rgbf000150-resize_1/002995_2014-06-15_12-31-26_094959634447_rgbf000150-resize_1-target.png,1000,3.8360000000000003,4,8285,1001,meters,jsons/v1_VE1000_randls_11_rotated.json,1365826,1731499,30,Man
87,454653,DepthScenes,duration_manipulation_targetAtFixation,jsons/v1_VE1000_randls_11_rotated.json,http://54.235.29.9/FacialAge/BNav_EC2/DepthDuration/v2_depth_duration_MTurk/v2_DepthDuration_HTML.html#127,127,1280,657,1280,800,8-22-2022,5-3-11,88,depth_duration_stimuli/002748_2014-06-22_19-07-22_094959634447_rgbf000078-resize_1/002748_2014-06-22_19-07-22_094959634447_rgbf000078-resize_1-target.png,1000,4.6705,2,7441,1002,meters,jsons/v1_VE1000_randls_11_rotated.json,1365826,1731499,30,Man
88,454653,DepthScenes,duration_manipulation_targetAtFixation,jsons/v1_VE1000_randls_11_rotated.json,http://54.235.29.9/FacialAge/BNav_EC2/DepthDuration/v2_depth_duration_MTurk/v2_DepthDuration_HTML.html#127,127,1280,657,1280,800,8-22-2022,5-3-11,89,depth_duration_stimuli/002568_2014-06-24_13-59-21_094959634447_rgbf000062-resize_4/002568_2014-06-24_13-59-21_094959634447_rgbf000062-resize_4-target.png,1000,3.015,3,7580,967,meters,jsons/v1_VE1000_randls_11_rotated.json,1365826,1731499,30,Man
89,454653,DepthScenes,duration_manipulation_targetAtFixation,jsons/v1_VE1000_randls_11_rotated.json,http://54.235.29.9/FacialAge/BNav_EC2/DepthDuration/v2_depth_duration_MTurk/v2_DepthDuration_HTML.html#127,127,1280,657,1280,800,8-22-2022,5-3-11,90,depth_duration_stimuli/003492_2014-05-21_15-50-55_094959634447_rgbf000828-resize_1/003492_2014-05-21_15-50-55_094959634447_rgbf000828-resize_1-target.png,1000,4.06875,1,6388,988,meters,jsons/v1_VE1000_randls_11_rotated.json,1365826,1731499,30,Man
90,454653,DepthScenes,duration_manipulation_targetAtFixation,jsons/v1_VE1000_randls_11_rotated.json,http://54.235.29.9/FacialAge/BNav_EC2/DepthDuration/v2_depth_duration_MTurk/v2_DepthDuration_HTML.html#127,127,1280,657,1280,800,8-22-2022,5-3-11,91,depth_duration_stimuli/001136_2014-06-17_15-19-41_260595134347_rgbf000076-resize_3/001136_2014-06-17_15-19-41_260595134347_rgbf000076-resize_3-target.png,1000,1.8655,4,7187,1000,meters,jsons/v1_VE1000_randls_11_rotated.json,1365826,1731499,30,Man
91,454653,DepthScenes,duration_manipulation_targetAtFixation,jsons/v1_VE1000_randls_11_rotated.json,http://54.235.29.9/FacialAge/BNav_EC2/DepthDuration/v2_depth_duration_MTurk/v2_DepthDuration_HTML.html#127,127,1280,657,1280,800,8-22-2022,5-3-11,92,depth_duration_stimuli/001164_2014-06-17_15-35-46_260595134347_rgbf000085-resize_3/001164_2014-06-17_15-35-46_260595134347_rgbf000085-resize_3-target.png,1000,2.354,4,6250,1000,meters,jsons/v1_VE1000_randls_11_rotated.json,1365826,1731499,30,Man
92,454653,DepthScenes,duration_manipulation_targetAtFixation,jsons/v1_VE1000_randls_11_rotated.json,http://54.235.29.9/FacialAge/BNav_EC2/DepthDuration/v2_depth_duration_MTurk/v2_DepthDuration_HTML.html#127,127,1280,657,1280,800,8-22-2022,5-3-11,93,depth_duration_stimuli/002199_2014-06-28_18-33-56_260595134347_rgbf000074-resize_0/002199_2014-06-28_18-33-56_260595134347_rgbf000074-resize_0-target.png,1000,1.996,5,11046,1053,meters,jsons/v1_VE1000_randls_11_rotated.json,1365826,1731499,30,Man
93,454653,DepthScenes,duration_manipulation_targetAtFixation,jsons/v1_VE1000_randls_11_rotated.json,http://54.235.29.9/FacialAge/BNav_EC2/DepthDuration/v2_depth_duration_MTurk/v2_DepthDuration_HTML.html#127,127,1280,657,1280,800,8-22-2022,5-3-11,94,depth_duration_stimuli/001056_2014-06-08_18-46-44_260595134347_rgbf000068-resize_0/001056_2014-06-08_18-46-44_260595134347_rgbf000068-resize_0-target.png,1000,2.6625,3,7097,1033,meters,jsons/v1_VE1000_randls_11_rotated.json,1365826,1731499,30,Man
94,454653,DepthScenes,duration_manipulation_targetAtFixation,jsons/v1_VE1000_randls_11_rotated.json,http://54.235.29.9/FacialAge/BNav_EC2/DepthDuration/v2_depth_duration_MTurk/v2_DepthDuration_HTML.html#127,127,1280,657,1280,800,8-22-2022,5-3-11,95,depth_duration_stimuli/002444_2014-06-28_20-32-08_260595134347_rgbf000027-resize_0/002444_2014-06-28_20-32-08_260595134347_rgbf000027-resize_0-target.png,1000,4.388999999999999,1,6336,974,meters,jsons/v1_VE1000_randls_11_rotated.json,1365826,1731499,30,Man
95,454653,DepthScenes,duration_manipulation_targetAtFixation,jsons/v1_VE1000_randls_11_rotated.json,http://54.235.29.9/FacialAge/BNav_EC2/DepthDuration/v2_depth_duration_MTurk/v2_DepthDuration_HTML.html#127,127,1280,657,1280,800,8-22-2022,5-3-11,96,depth_duration_stimuli/000436_2014-06-09_22-25-11_260595134347_rgbf000137-resize_1/000436_2014-06-09_22-25-11_260595134347_rgbf000137-resize_1-target.png,1000,4.0705,4,4437,969,meters,jsons/v1_VE1000_randls_11_rotated.json,1365826,1731499,30,Man
96,454653,DepthScenes,duration_manipulation_targetAtFixation,jsons/v1_VE1000_randls_11_rotated.json,http://54.235.29.9/FacialAge/BNav_EC2/DepthDuration/v2_depth_duration_MTurk/v2_DepthDuration_HTML.html#127,127,1280,657,1280,800,8-22-2022,5-3-11,97,depth_duration_stimuli/000742_2014-06-08_18-48-09_260595134347_rgbf000164-resize_4/000742_2014-06-08_18-48-09_260595134347_rgbf000164-resize_4-target.png,1000,4.632,3,12550,992,meters,jsons/v1_VE1000_randls_11_rotated.json,1365826,1731499,30,Man
97,454653,DepthScenes,duration_manipulation_targetAtFixation,jsons/v1_VE1000_randls_11_rotated.json,http://54.235.29.9/FacialAge/BNav_EC2/DepthDuration/v2_depth_duration_MTurk/v2_DepthDuration_HTML.html#127,127,1280,657,1280,800,8-22-2022,5-3-11,98,depth_duration_stimuli/001066_2014-06-08_22-03-20_260595134347_rgbf000066-resize_4/001066_2014-06-08_22-03-20_260595134347_rgbf000066-resize_4-target.png,1000,4.2330000000000005,2,6401,1001,meters,jsons/v1_VE1000_randls_11_rotated.json,1365826,1731499,30,Man
98,454653,DepthScenes,duration_manipulation_targetAtFixation,jsons/v1_VE1000_randls_11_rotated.json,http://54.235.29.9/FacialAge/BNav_EC2/DepthDuration/v2_depth_duration_MTurk/v2_DepthDuration_HTML.html#127,127,1280,657,1280,800,8-22-2022,5-3-11,99,depth_duration_stimuli/001222_2014-06-17_16-24-06_260595134347_rgbf000073-resize_0/001222_2014-06-17_16-24-06_260595134347_rgbf000073-resize-original.jpg,1000,1.4385,1,7852,1001,meters,jsons/v1_VE1000_randls_11_rotated.json,1365826,1731499,30,Man
99,454653,DepthScenes,duration_manipulation_targetAtFixation,jsons/v1_VE1000_randls_11_rotated.json,http://54.235.29.9/FacialAge/BNav_EC2/DepthDuration/v2_depth_duration_MTurk/v2_DepthDuration_HTML.html#127,127,1280,657,1280,800,8-22-2022,5-3-11,100,depth_duration_stimuli/002467_2014-06-28_20-38-07_260595134347_rgbf000026-resize_2/002467_2014-06-28_20-38-07_260595134347_rgbf000026-resize_2-target.png,1000,4.742,4,7968,999,meters,jsons/v1_VE1000_randls_11_rotated.json,1365826,1731499,30,Man
100,454653,DepthScenes,duration_manipulation_targetAtFixation,jsons/v1_VE1000_randls_11_rotated.json,http://54.235.29.9/FacialAge/BNav_EC2/DepthDuration/v2_depth_duration_MTurk/v2_DepthDuration_HTML.html#127,127,1280,657,1280,800,8-22-2022,5-3-11,101,depth_duration_stimuli/002570_2014-06-24_13-59-54_094959634447_rgbf000059-resize_0/002570_2014-06-24_13-59-54_094959634447_rgbf000059-resize_0-target.png,1000,4.037,4,6153,1001,meters,jsons/v1_VE1000_randls_11_rotated.json,1365826,1731499,30,Man
101,454653,DepthScenes,duration_manipulation_targetAtFixation,jsons/v1_VE1000_randls_11_rotated.json,http://54.235.29.9/FacialAge/BNav_EC2/DepthDuration/v2_depth_duration_MTurk/v2_DepthDuration_HTML.html#127,127,1280,657,1280,800,8-22-2022,5-3-11,102,depth_duration_stimuli/000483_2014-06-09_20-41-45_260595134347_rgbf000116-resize_4/000483_2014-06-09_20-41-45_260595134347_rgbf000116-resize_4-target.png,1000,1.337,3,5784,1013,meters,jsons/v1_VE1000_randls_11_rotated.json,1365826,1731499,30,Man
102,454653,DepthScenes,duration_manipulation_targetAtFixation,jsons/v1_VE1000_randls_11_rotated.json,http://54.235.29.9/FacialAge/BNav_EC2/DepthDuration/v2_depth_duration_MTurk/v2_DepthDuration_HTML.html#127,127,1280,657,1280,800,8-22-2022,5-3-11,103,depth_duration_stimuli/000469_2014-06-09_19-42-10_260595134347_rgbf000081-resize_1/000469_2014-06-09_19-42-10_260595134347_rgbf000081-resize_1-target.png,1000,1.652,3,10828,1002,meters,jsons/v1_VE1000_randls_11_rotated.json,1365826,1731499,30,Man
103,454653,DepthScenes,duration_manipulation_targetAtFixation,jsons/v1_VE1000_randls_11_rotated.json,http://54.235.29.9/FacialAge/BNav_EC2/DepthDuration/v2_depth_duration_MTurk/v2_DepthDuration_HTML.html#127,127,1280,657,1280,800,8-22-2022,5-3-11,104,depth_duration_stimuli/002340_2014-06-28_20-05-46_260595134347_rgbf000113-resize_0/002340_2014-06-28_20-05-46_260595134347_rgbf000113-resize_0-target.png,1000,2.4735,2,6787,1000,meters,jsons/v1_VE1000_randls_11_rotated.json,1365826,1731499,30,Man
104,454653,DepthScenes,duration_manipulation_targetAtFixation,jsons/v1_VE1000_randls_11_rotated.json,http://54.235.29.9/FacialAge/BNav_EC2/DepthDuration/v2_depth_duration_MTurk/v2_DepthDuration_HTML.html#127,127,1280,657,1280,800,8-22-2022,5-3-11,105,depth_duration_stimuli/001016_2014-06-09_16-16-10_260595134347_rgbf000112-resize_5/001016_2014-06-09_16-16-10_260595134347_rgbf000112-resize_5-target.png,1000,1.6565,5,6160,1000,meters,jsons/v1_VE1000_randls_11_rotated.json,1365826,1731499,30,Man
105,454653,DepthScenes,duration_manipulation_targetAtFixation,jsons/v1_VE1000_randls_11_rotated.json,http://54.235.29.9/FacialAge/BNav_EC2/DepthDuration/v2_depth_duration_MTurk/v2_DepthDuration_HTML.html#127,127,1280,657,1280,800,8-22-2022,5-3-11,106,depth_duration_stimuli/000502_2014-06-08_23-02-32_260595134347_rgbf000063-resize_4/000502_2014-06-08_23-02-32_260595134347_rgbf000063-resize_4-target.png,1000,2.431,4,7581,955,meters,jsons/v1_VE1000_randls_11_rotated.json,1365826,1731499,30,Man
106,454653,DepthScenes,duration_manipulation_targetAtFixation,jsons/v1_VE1000_randls_11_rotated.json,http://54.235.29.9/FacialAge/BNav_EC2/DepthDuration/v2_depth_duration_MTurk/v2_DepthDuration_HTML.html#127,127,1280,657,1280,800,8-22-2022,5-3-11,107,depth_duration_stimuli/001199_2014-06-17_16-03-48_260595134347_rgbf000077-resize_0/001199_2014-06-17_16-03-48_260595134347_rgbf000077-resize_0-target.png,1000,3.4375,3,6547,999,meters,jsons/v1_VE1000_randls_11_rotated.json,1365826,1731499,30,Man
107,454653,DepthScenes,duration_manipulation_targetAtFixation,jsons/v1_VE1000_randls_11_rotated.json,http://54.235.29.9/FacialAge/BNav_EC2/DepthDuration/v2_depth_duration_MTurk/v2_DepthDuration_HTML.html#127,127,1280,657,1280,800,8-22-2022,5-3-11,108,depth_duration_stimuli/001450_2014-06-19_17-02-03_260595134347_rgbf000203-resize_4/001450_2014-06-19_17-02-03_260595134347_rgbf000203-resize_4-target.png,1000,4.0106666666667,2,5876,1000,meters,jsons/v1_VE1000_randls_11_rotated.json,1365826,1731499,30,Man
108,454653,DepthScenes,duration_manipulation_targetAtFixation,jsons/v1_VE1000_randls_11_rotated.json,http://54.235.29.9/FacialAge/BNav_EC2/DepthDuration/v2_depth_duration_MTurk/v2_DepthDuration_HTML.html#127,127,1280,657,1280,800,8-22-2022,5-3-11,109,depth_duration_stimuli/001449_2014-06-19_17-01-27_260595134347_rgbf000116-resize_2/001449_2014-06-19_17-01-27_260595134347_rgbf000116-resize_2-target.png,1000,3.452,4,6712,1040,meters,jsons/v1_VE1000_randls_11_rotated.json,1365826,1731499,30,Man
109,454653,DepthScenes,duration_manipulation_targetAtFixation,jsons/v1_VE1000_randls_11_rotated.json,http://54.235.29.9/FacialAge/BNav_EC2/DepthDuration/v2_depth_duration_MTurk/v2_DepthDuration_HTML.html#127,127,1280,657,1280,800,8-22-2022,5-3-11,110,depth_duration_stimuli/000191_2014-05-12_17-07-38_260595134347_rgbf000199-resize_0/000191_2014-05-12_17-07-38_260595134347_rgbf000199-resize_0-target.png,1000,3.7995,3,6472,999,meters,jsons/v1_VE1000_randls_11_rotated.json,1365826,1731499,30,Man
110,454653,DepthScenes,duration_manipulation_targetAtFixation,jsons/v1_VE1000_randls_11_rotated.json,http://54.235.29.9/FacialAge/BNav_EC2/DepthDuration/v2_depth_duration_MTurk/v2_DepthDuration_HTML.html#127,127,1280,657,1280,800,8-22-2022,5-3-11,111,depth_duration_stimuli/000493_2014-06-09_21-01-18_260595134347_rgbf000196-resize_3/000493_2014-06-09_21-01-18_260595134347_rgbf000196-resize_3-target.png,1000,3.44,2,9031,999,meters,jsons/v1_VE1000_randls_11_rotated.json,1365826,1731499,30,Man
111,454653,DepthScenes,duration_manipulation_targetAtFixation,jsons/v1_VE1000_randls_11_rotated.json,http://54.235.29.9/FacialAge/BNav_EC2/DepthDuration/v2_depth_duration_MTurk/v2_DepthDuration_HTML.html#127,127,1280,657,1280,800,8-22-2022,5-3-11,112,depth_duration_stimuli/001094_2014-06-15_17-36-00_260595134347_rgbf000205-resize_0/001094_2014-06-15_17-36-00_260595134347_rgbf000205-resize_0-target.png,1000,4.2175,4,7968,1026,meters,jsons/v1_VE1000_randls_11_rotated.json,1365826,1731499,30,Man
112,454653,DepthScenes,duration_manipulation_targetAtFixation,jsons/v1_VE1000_randls_11_rotated.json,http://54.235.29.9/FacialAge/BNav_EC2/DepthDuration/v2_depth_duration_MTurk/v2_DepthDuration_HTML.html#127,127,1280,657,1280,800,8-22-2022,5-3-11,113,depth_duration_stimuli/000692_2014-06-08_13-09-42_260595134347_rgbf000199-resize_2/000692_2014-06-08_13-09-42_260595134347_rgbf000199-resize_2-target.png,1000,3.661,4,6359,1007,meters,jsons/v1_VE1000_randls_11_rotated.json,1365826,1731499,30,Man
113,454653,DepthScenes,duration_manipulation_targetAtFixation,jsons/v1_VE1000_randls_11_rotated.json,http://54.235.29.9/FacialAge/BNav_EC2/DepthDuration/v2_depth_duration_MTurk/v2_DepthDuration_HTML.html#127,127,1280,657,1280,800,8-22-2022,5-3-11,114,depth_duration_stimuli/000457_2014-06-08_16-52-43_260595134347_rgbf000199-resize_1/000457_2014-06-08_16-52-43_260595134347_rgbf000199-resize_1-target.png,1000,3.6489999999999996,5,7722,1008,meters,jsons/v1_VE1000_randls_11_rotated.json,1365826,1731499,30,Man
114,454653,DepthScenes,duration_manipulation_targetAtFixation,jsons/v1_VE1000_randls_11_rotated.json,http://54.235.29.9/FacialAge/BNav_EC2/DepthDuration/v2_depth_duration_MTurk/v2_DepthDuration_HTML.html#127,127,1280,657,1280,800,8-22-2022,5-3-11,115,depth_duration_stimuli/000929_2014-06-09_16-33-19_260595134347_rgbf000139-resize_0/000929_2014-06-09_16-33-19_260595134347_rgbf000139-resize_0-target.png,1000,2.8680000000000003,4,7001,1042,meters,jsons/v1_VE1000_randls_11_rotated.json,1365826,1731499,30,Man
115,454653,DepthScenes,duration_manipulation_targetAtFixation,jsons/v1_VE1000_randls_11_rotated.json,http://54.235.29.9/FacialAge/BNav_EC2/DepthDuration/v2_depth_duration_MTurk/v2_DepthDuration_HTML.html#127,127,1280,657,1280,800,8-22-2022,5-3-11,116,depth_duration_stimuli/001032_2014-06-08_13-23-17_260595134347_rgbf000021-resize_3/001032_2014-06-08_13-23-17_260595134347_rgbf000021-resize_3-target.png,1000,3.2725,2,7552,1002,meters,jsons/v1_VE1000_randls_11_rotated.json,1365826,1731499,30,Man
116,454653,DepthScenes,duration_manipulation_targetAtFixation,jsons/v1_VE1000_randls_11_rotated.json,http://54.235.29.9/FacialAge/BNav_EC2/DepthDuration/v2_depth_duration_MTurk/v2_DepthDuration_HTML.html#127,127,1280,657,1280,800,8-22-2022,5-3-11,117,depth_duration_stimuli/001059_2014-06-08_21-53-27_260595134347_rgbf000061-resize_4/001059_2014-06-08_21-53-27_260595134347_rgbf000061-resize_4-target.png,1000,2.4185,3,6697,962,meters,jsons/v1_VE1000_randls_11_rotated.json,1365826,1731499,30,Man
117,454653,DepthScenes,duration_manipulation_targetAtFixation,jsons/v1_VE1000_randls_11_rotated.json,http://54.235.29.9/FacialAge/BNav_EC2/DepthDuration/v2_depth_duration_MTurk/v2_DepthDuration_HTML.html#127,127,1280,657,1280,800,8-22-2022,5-3-11,118,depth_duration_stimuli/001650_2014-06-20_12-09-00_260595134347_rgbf000087-resize_3/001650_2014-06-20_12-09-00_260595134347_rgbf000087-resize_3-target.png,1000,1.9505,1,7494,965,meters,jsons/v1_VE1000_randls_11_rotated.json,1365826,1731499,30,Man
118,454653,DepthScenes,duration_manipulation_targetAtFixation,jsons/v1_VE1000_randls_11_rotated.json,http://54.235.29.9/FacialAge/BNav_EC2/DepthDuration/v2_depth_duration_MTurk/v2_DepthDuration_HTML.html#127,127,1280,657,1280,800,8-22-2022,5-3-11,119,depth_duration_stimuli/000682_2014-06-08_23-14-58_260595134347_rgbf000041-resize_5/000682_2014-06-08_23-14-58_260595134347_rgbf000041-resize_5-target.png,1000,2.7239999999999998,3,8580,1016,meters,jsons/v1_VE1000_randls_11_rotated.json,1365826,1731499,30,Man
119,454653,DepthScenes,duration_manipulation_targetAtFixation,jsons/v1_VE1000_randls_11_rotated.json,http://54.235.29.9/FacialAge/BNav_EC2/DepthDuration/v2_depth_duration_MTurk/v2_DepthDuration_HTML.html#127,127,1280,657,1280,800,8-22-2022,5-3-11,120,depth_duration_stimuli/000787_2014-06-08_22-33-53_260595134347_rgbf000175-resize_1/000787_2014-06-08_22-33-53_260595134347_rgbf000175-resize-original.jpg,1000,4.784,2,7674,1003,meters,jsons/v1_VE1000_randls_11_rotated.json,1365826,1731499,30,Man
120,454653,DepthScenes,duration_manipulation_targetAtFixation,jsons/v1_VE1000_randls_11_rotated.json,http://54.235.29.9/FacialAge/BNav_EC2/DepthDuration/v2_depth_duration_MTurk/v2_DepthDuration_HTML.html#127,127,1280,657,1280,800,8-22-2022,5-3-11,121,depth_duration_stimuli/002136_2014-06-25_21-18-03_260595134347_rgbf000109-resize_3/002136_2014-06-25_21-18-03_260595134347_rgbf000109-resize_3-target.png,1000,1.9569999999999999,4,9233,996,meters,jsons/v1_VE1000_randls_11_rotated.json,1365826,1731499,30,Man
121,454653,DepthScenes,duration_manipulation_targetAtFixation,jsons/v1_VE1000_randls_11_rotated.json,http://54.235.29.9/FacialAge/BNav_EC2/DepthDuration/v2_depth_duration_MTurk/v2_DepthDuration_HTML.html#127,127,1280,657,1280,800,8-22-2022,5-3-11,122,depth_duration_stimuli/002964_2014-06-08_17-46-11_094959634447_rgbf000091-resize_4/002964_2014-06-08_17-46-11_094959634447_rgbf000091-resize_4-target.png,1000,1.6909999999999998,5,10042,984,meters,jsons/v1_VE1000_randls_11_rotated.json,1365826,1731499,30,Man
122,454653,DepthScenes,duration_manipulation_targetAtFixation,jsons/v1_VE1000_randls_11_rotated.json,http://54.235.29.9/FacialAge/BNav_EC2/DepthDuration/v2_depth_duration_MTurk/v2_DepthDuration_HTML.html#127,127,1280,657,1280,800,8-22-2022,5-3-11,123,depth_duration_stimuli/003490_2014-05-21_15-50-11_094959634447_rgbf000101-resize_3/003490_2014-05-21_15-50-11_094959634447_rgbf000101-resize_3-target.png,1000,3.6445,3,6352,999,meters,jsons/v1_VE1000_randls_11_rotated.json,1365826,1731499,30,Man
123,454653,DepthScenes,duration_manipulation_targetAtFixation,jsons/v1_VE1000_randls_11_rotated.json,http://54.235.29.9/FacialAge/BNav_EC2/DepthDuration/v2_depth_duration_MTurk/v2_DepthDuration_HTML.html#127,127,1280,657,1280,800,8-22-2022,5-3-11,124,depth_duration_stimuli/001175_2014-06-17_15-45-55_260595134347_rgbf000129-resize_4/001175_2014-06-17_15-45-55_260595134347_rgbf000129-resize_4-target.png,1000,4.255,2,8861,999,meters,jsons/v1_VE1000_randls_11_rotated.json,1365826,1731499,30,Man
124,454653,DepthScenes,duration_manipulation_targetAtFixation,jsons/v1_VE1000_randls_11_rotated.json,http://54.235.29.9/FacialAge/BNav_EC2/DepthDuration/v2_depth_duration_MTurk/v2_DepthDuration_HTML.html#127,127,1280,657,1280,800,8-22-2022,5-3-11,125,depth_duration_stimuli/000635_2014-06-08_16-38-42_260595134347_rgbf000106-resize_1/000635_2014-06-08_16-38-42_260595134347_rgbf000106-resize_1-target.png,1000,2.074,2,8646,999,meters,jsons/v1_VE1000_randls_11_rotated.json,1365826,1731499,30,Man
125,454653,DepthScenes,duration_manipulation_targetAtFixation,jsons/v1_VE1000_randls_11_rotated.json,http://54.235.29.9/FacialAge/BNav_EC2/DepthDuration/v2_depth_duration_MTurk/v2_DepthDuration_HTML.html#127,127,1280,657,1280,800,8-22-2022,5-3-11,126,depth_duration_stimuli/002279_2014-06-28_18-55-32_260595134347_rgbf000040-resize_5/002279_2014-06-28_18-55-32_260595134347_rgbf000040-resize_5-target.png,1000,1.5043333333333,2,5833,757,meters,jsons/v1_VE1000_randls_11_rotated.json,1365826,1731499,30,Man
126,454653,DepthScenes,duration_manipulation_targetAtFixation,jsons/v1_VE1000_randls_11_rotated.json,http://54.235.29.9/FacialAge/BNav_EC2/DepthDuration/v2_depth_duration_MTurk/v2_DepthDuration_HTML.html#127,127,1280,657,1280,800,8-22-2022,5-3-11,127,depth_duration_stimuli/000780_2014-06-08_22-28-29_260595134347_rgbf000126-resize_1/000780_2014-06-08_22-28-29_260595134347_rgbf000126-resize_1-target.png,1000,3.3825,2,6661,1029,meters,jsons/v1_VE1000_randls_11_rotated.json,1365826,1731499,30,Man
127,454653,DepthScenes,duration_manipulation_targetAtFixation,jsons/v1_VE1000_randls_11_rotated.json,http://54.235.29.9/FacialAge/BNav_EC2/DepthDuration/v2_depth_duration_MTurk/v2_DepthDuration_HTML.html#127,127,1280,657,1280,800,8-22-2022,5-3-11,128,depth_duration_stimuli/002445_2014-06-28_20-32-16_260595134347_rgbf000029-resize_4/002445_2014-06-28_20-32-16_260595134347_rgbf000029-resize_4-target.png,1000,2.5315,3,6225,997,meters,jsons/v1_VE1000_randls_11_rotated.json,1365826,1731499,30,Man
128,454653,DepthScenes,duration_manipulation_targetAtFixation,jsons/v1_VE1000_randls_11_rotated.json,http://54.235.29.9/FacialAge/BNav_EC2/DepthDuration/v2_depth_duration_MTurk/v2_DepthDuration_HTML.html#127,127,1280,657,1280,800,8-22-2022,5-3-11,129,depth_duration_stimuli/002805_2014-06-22_19-54-03_094959634447_rgbf000079-resize_1/002805_2014-06-22_19-54-03_094959634447_rgbf000079-resize_1-target.png,1000,3.1439999999999997,1,8321,999,meters,jsons/v1_VE1000_randls_11_rotated.json,1365826,1731499,30,Man
129,454653,DepthScenes,duration_manipulation_targetAtFixation,jsons/v1_VE1000_randls_11_rotated.json,http://54.235.29.9/FacialAge/BNav_EC2/DepthDuration/v2_depth_duration_MTurk/v2_DepthDuration_HTML.html#127,127,1280,657,1280,800,8-22-2022,5-3-11,130,depth_duration_stimuli/000906_2014-06-08_13-35-43_260595134347_rgbf000155-resize_1/000906_2014-06-08_13-35-43_260595134347_rgbf000155-resize_1-target.png,1000,2.8489999999999998,4,4742,998,meters,jsons/v1_VE1000_randls_11_rotated.json,1365826,1731499,30,Man
130,454653,DepthScenes,duration_manipulation_targetAtFixation,jsons/v1_VE1000_randls_11_rotated.json,http://54.235.29.9/FacialAge/BNav_EC2/DepthDuration/v2_depth_duration_MTurk/v2_DepthDuration_HTML.html#127,127,1280,657,1280,800,8-22-2022,5-3-11,131,depth_duration_stimuli/001447_2014-06-19_17-00-32_260595134347_rgbf000082-resize_5/001447_2014-06-19_17-00-32_260595134347_rgbf000082-resize_5-target.png,1000,4.13775,5,11241,1000,meters,jsons/v1_VE1000_randls_11_rotated.json,1365826,1731499,30,Man
131,454653,DepthScenes,duration_manipulation_targetAtFixation,jsons/v1_VE1000_randls_11_rotated.json,http://54.235.29.9/FacialAge/BNav_EC2/DepthDuration/v2_depth_duration_MTurk/v2_DepthDuration_HTML.html#127,127,1280,657,1280,800,8-22-2022,5-3-11,132,depth_duration_stimuli/000447_2014-06-08_16-15-46_260595134347_rgbf000130-resize_1/000447_2014-06-08_16-15-46_260595134347_rgbf000130-resize_1-target.png,1000,4.479,3,9283,997,meters,jsons/v1_VE1000_randls_11_rotated.json,1365826,1731499,30,Man
132,454653,DepthScenes,duration_manipulation_targetAtFixation,jsons/v1_VE1000_randls_11_rotated.json,http://54.235.29.9/FacialAge/BNav_EC2/DepthDuration/v2_depth_duration_MTurk/v2_DepthDuration_HTML.html#127,127,1280,657,1280,800,8-22-2022,5-3-11,133,depth_duration_stimuli/002758_2014-06-22_19-11-20_094959634447_rgbf000128-resize_1/002758_2014-06-22_19-11-20_094959634447_rgbf000128-resize_1-target.png,1000,2.555,2,6238,1010,meters,jsons/v1_VE1000_randls_11_rotated.json,1365826,1731499,30,Man
133,454653,DepthScenes,duration_manipulation_targetAtFixation,jsons/v1_VE1000_randls_11_rotated.json,http://54.235.29.9/FacialAge/BNav_EC2/DepthDuration/v2_depth_duration_MTurk/v2_DepthDuration_HTML.html#127,127,1280,657,1280,800,8-22-2022,5-3-11,134,depth_duration_stimuli/002630_2014-06-24_14-47-50_094959634447_rgbf000055-resize_1/002630_2014-06-24_14-47-50_094959634447_rgbf000055-resize_1-target.png,1000,3.0095,4,6924,1030,meters,jsons/v1_VE1000_randls_11_rotated.json,1365826,1731499,30,Man
134,454653,DepthScenes,duration_manipulation_targetAtFixation,jsons/v1_VE1000_randls_11_rotated.json,http://54.235.29.9/FacialAge/BNav_EC2/DepthDuration/v2_depth_duration_MTurk/v2_DepthDuration_HTML.html#127,127,1280,657,1280,800,8-22-2022,5-3-11,135,depth_duration_stimuli/000375_2014-06-08_11-17-29_260595134347_rgbf000133-resize_2/000375_2014-06-08_11-17-29_260595134347_rgbf000133-resize-original.jpg,1000,4.718,5,7233,997,meters,jsons/v1_VE1000_randls_11_rotated.json,1365826,1731499,30,Man
135,454653,DepthScenes,duration_manipulation_targetAtFixation,jsons/v1_VE1000_randls_11_rotated.json,http://54.235.29.9/FacialAge/BNav_EC2/DepthDuration/v2_depth_duration_MTurk/v2_DepthDuration_HTML.html#127,127,1280,657,1280,800,8-22-2022,5-3-11,136,depth_duration_stimuli/000734_2014-06-08_17-39-11_260595134347_rgbf000128-resize_2/000734_2014-06-08_17-39-11_260595134347_rgbf000128-resize_2-target.png,1000,4.098,4,7511,994,meters,jsons/v1_VE1000_randls_11_rotated.json,1365826,1731499,30,Man
136,454653,DepthScenes,duration_manipulation_targetAtFixation,jsons/v1_VE1000_randls_11_rotated.json,http://54.235.29.9/FacialAge/BNav_EC2/DepthDuration/v2_depth_duration_MTurk/v2_DepthDuration_HTML.html#127,127,1280,657,1280,800,8-22-2022,5-3-11,137,depth_duration_stimuli/000739_2014-06-08_18-45-58_260595134347_rgbf000068-resize_1/000739_2014-06-08_18-45-58_260595134347_rgbf000068-resize_1-target.png,1000,3.534,3,7282,1013,meters,jsons/v1_VE1000_randls_11_rotated.json,1365826,1731499,30,Man
137,454653,DepthScenes,duration_manipulation_targetAtFixation,jsons/v1_VE1000_randls_11_rotated.json,http://54.235.29.9/FacialAge/BNav_EC2/DepthDuration/v2_depth_duration_MTurk/v2_DepthDuration_HTML.html#127,127,1280,657,1280,800,8-22-2022,5-3-11,138,depth_duration_stimuli/002639_2014-06-24_14-51-37_094959634447_rgbf000074-resize_4/002639_2014-06-24_14-51-37_094959634447_rgbf000074-resize_4-target.png,1000,4.0375,2,7185,1034,meters,jsons/v1_VE1000_randls_11_rotated.json,1365826,1731499,30,Man
138,454653,DepthScenes,duration_manipulation_targetAtFixation,jsons/v1_VE1000_randls_11_rotated.json,http://54.235.29.9/FacialAge/BNav_EC2/DepthDuration/v2_depth_duration_MTurk/v2_DepthDuration_HTML.html#127,127,1280,657,1280,800,8-22-2022,5-3-11,139,depth_duration_stimuli/003292_2014-05-14_21-53-49_094959634447_rgbf000100-resize_2/003292_2014-05-14_21-53-49_094959634447_rgbf000100-resize_2-target.png,1000,3.4815,4,6491,1062,meters,jsons/v1_VE1000_randls_11_rotated.json,1365826,1731499,30,Man
139,454653,DepthScenes,duration_manipulation_targetAtFixation,jsons/v1_VE1000_randls_11_rotated.json,http://54.235.29.9/FacialAge/BNav_EC2/DepthDuration/v2_depth_duration_MTurk/v2_DepthDuration_HTML.html#127,127,1280,657,1280,800,8-22-2022,5-3-11,140,depth_duration_stimuli/002344_2014-06-28_20-06-29_260595134347_rgbf000030-resize_1/002344_2014-06-28_20-06-29_260595134347_rgbf000030-resize_1-target.png,1000,1.5795,4,8158,999,meters,jsons/v1_VE1000_randls_11_rotated.json,1365826,1731499,30,Man
140,454653,DepthScenes,duration_manipulation_targetAtFixation,jsons/v1_VE1000_randls_11_rotated.json,http://54.235.29.9/FacialAge/BNav_EC2/DepthDuration/v2_depth_duration_MTurk/v2_DepthDuration_HTML.html#127,127,1280,657,1280,800,8-22-2022,5-3-11,141,depth_duration_stimuli/002725_2014-06-22_11-47-51_094959634447_rgbf000070-resize_1/002725_2014-06-22_11-47-51_094959634447_rgbf000070-resize_1-target.png,1000,2.195,3,6995,1000,meters,jsons/v1_VE1000_randls_11_rotated.json,1365826,1731499,30,Man
141,454653,DepthScenes,duration_manipulation_targetAtFixation,jsons/v1_VE1000_randls_11_rotated.json,http://54.235.29.9/FacialAge/BNav_EC2/DepthDuration/v2_depth_duration_MTurk/v2_DepthDuration_HTML.html#127,127,1280,657,1280,800,8-22-2022,5-3-11,142,depth_duration_stimuli/000549_2014-06-08_22-10-24_260595134347_rgbf000247-resize_3/000549_2014-06-08_22-10-24_260595134347_rgbf000247-resize_3-target.png,1000,1.841,1,7991,983,meters,jsons/v1_VE1000_randls_11_rotated.json,1365826,1731499,30,Man
142,454653,DepthScenes,duration_manipulation_targetAtFixation,jsons/v1_VE1000_randls_11_rotated.json,http://54.235.29.9/FacialAge/BNav_EC2/DepthDuration/v2_depth_duration_MTurk/v2_DepthDuration_HTML.html#127,127,1280,657,1280,800,8-22-2022,5-3-11,143,depth_duration_stimuli/001055_2014-06-08_18-45-35_260595134347_rgbf000111-resize_4/001055_2014-06-08_18-45-35_260595134347_rgbf000111-resize_4-target.png,1000,2.4290000000000003,2,7712,977,meters,jsons/v1_VE1000_randls_11_rotated.json,1365826,1731499,30,Man
143,454653,DepthScenes,duration_manipulation_targetAtFixation,jsons/v1_VE1000_randls_11_rotated.json,http://54.235.29.9/FacialAge/BNav_EC2/DepthDuration/v2_depth_duration_MTurk/v2_DepthDuration_HTML.html#127,127,1280,657,1280,800,8-22-2022,5-3-11,144,depth_duration_stimuli/001571_2014-06-20_17-21-32_260595134347_rgbf000089-resize_1/001571_2014-06-20_17-21-32_260595134347_rgbf000089-resize_1-target.png,1000,1.86,1,9977,996,meters,jsons/v1_VE1000_randls_11_rotated.json,1365826,1731499,30,Man
144,454653,DepthScenes,duration_manipulation_targetAtFixation,jsons/v1_VE1000_randls_11_rotated.json,http://54.235.29.9/FacialAge/BNav_EC2/DepthDuration/v2_depth_duration_MTurk/v2_DepthDuration_HTML.html#127,127,1280,657,1280,800,8-22-2022,5-3-11,145,depth_duration_stimuli/002272_2014-06-28_18-53-56_260595134347_rgbf000067-resize_2/002272_2014-06-28_18-53-56_260595134347_rgbf000067-resize_2-target.png,1000,1.138,4,6955,998,meters,jsons/v1_VE1000_randls_11_rotated.json,1365826,1731499,30,Man
145,454653,DepthScenes,duration_manipulation_targetAtFixation,jsons/v1_VE1000_randls_11_rotated.json,http://54.235.29.9/FacialAge/BNav_EC2/DepthDuration/v2_depth_duration_MTurk/v2_DepthDuration_HTML.html#127,127,1280,657,1280,800,8-22-2022,5-3-11,146,depth_duration_stimuli/002953_2014-06-08_17-32-18_094959634447_rgbf000059-resize_5/002953_2014-06-08_17-32-18_094959634447_rgbf000059-resize_5-target.png,1000,1.551,5,6797,987,meters,jsons/v1_VE1000_randls_11_rotated.json,1365826,1731499,30,Man
146,454653,DepthScenes,duration_manipulation_targetAtFixation,jsons/v1_VE1000_randls_11_rotated.json,http://54.235.29.9/FacialAge/BNav_EC2/DepthDuration/v2_depth_duration_MTurk/v2_DepthDuration_HTML.html#127,127,1280,657,1280,800,8-22-2022,5-3-11,147,depth_duration_stimuli/000878_2014-06-08_22-52-45_260595134347_rgbf000045-resize_2/000878_2014-06-08_22-52-45_260595134347_rgbf000045-resize_2-target.png,1000,2.092,4,8810,997,meters,jsons/v1_VE1000_randls_11_rotated.json,1365826,1731499,30,Man
147,454653,DepthScenes,duration_manipulation_targetAtFixation,jsons/v1_VE1000_randls_11_rotated.json,http://54.235.29.9/FacialAge/BNav_EC2/DepthDuration/v2_depth_duration_MTurk/v2_DepthDuration_HTML.html#127,127,1280,657,1280,800,8-22-2022,5-3-11,148,depth_duration_stimuli/003423_2014-05-21_10-23-26_094959634447_rgbf002665-resize_2/003423_2014-05-21_10-23-26_094959634447_rgbf002665-resize_2-target.png,1000,3.2575,3,7862,949,meters,jsons/v1_VE1000_randls_11_rotated.json,1365826,1731499,30,Man
148,454653,DepthScenes,duration_manipulation_targetAtFixation,jsons/v1_VE1000_randls_11_rotated.json,http://54.235.29.9/FacialAge/BNav_EC2/DepthDuration/v2_depth_duration_MTurk/v2_DepthDuration_HTML.html#127,127,1280,657,1280,800,8-22-2022,5-3-11,149,depth_duration_stimuli/002905_2014-06-03_18-04-43_094959634447_rgbf000151-resize_2/002905_2014-06-03_18-04-43_094959634447_rgbf000151-resize_2-target.png,1000,2.0295,2,7769,1002,meters,jsons/v1_VE1000_randls_11_rotated.json,1365826,1731499,30,Man
149,454653,DepthScenes,duration_manipulation_targetAtFixation,jsons/v1_VE1000_randls_11_rotated.json,http://54.235.29.9/FacialAge/BNav_EC2/DepthDuration/v2_depth_duration_MTurk/v2_DepthDuration_HTML.html#127,127,1280,657,1280,800,8-22-2022,5-3-11,150,depth_duration_stimuli/003338_2014-05-20_11-01-23_094959634447_rgbf000051-resize_6/003338_2014-05-20_11-01-23_094959634447_rgbf000051-resize_6-target.png,1000,1.693,1,7915,983,meters,jsons/v1_VE1000_randls_11_rotated.json,1365826,1731499,30,Man
150,454653,DepthScenes,duration_manipulation_targetAtFixation,jsons/v1_VE1000_randls_11_rotated.json,http://54.235.29.9/FacialAge/BNav_EC2/DepthDuration/v2_depth_duration_MTurk/v2_DepthDuration_HTML.html#127,127,1280,657,1280,800,8-22-2022,5-3-11,151,depth_duration_stimuli/002509_2014-06-24_13-19-22_094959634447_rgbf000077-resize_0/002509_2014-06-24_13-19-22_094959634447_rgbf000077-resize_0-target.png,1000,1.3065,4,7091,999,meters,jsons/v1_VE1000_randls_11_rotated.json,1365826,1731499,30,Man
151,454653,DepthScenes,duration_manipulation_targetAtFixation,jsons/v1_VE1000_randls_11_rotated.json,http://54.235.29.9/FacialAge/BNav_EC2/DepthDuration/v2_depth_duration_MTurk/v2_DepthDuration_HTML.html#127,127,1280,657,1280,800,8-22-2022,5-3-11,152,depth_duration_stimuli/000569_2014-06-09_22-51-47_260595134347_rgbf000141-resize_3/000569_2014-06-09_22-51-47_260595134347_rgbf000141-resize-original.jpg,1000,4.512,4,6672,976,meters,jsons/v1_VE1000_randls_11_rotated.json,1365826,1731499,30,Man
152,454653,DepthScenes,duration_manipulation_targetAtFixation,jsons/v1_VE1000_randls_11_rotated.json,http://54.235.29.9/FacialAge/BNav_EC2/DepthDuration/v2_depth_duration_MTurk/v2_DepthDuration_HTML.html#127,127,1280,657,1280,800,8-22-2022,5-3-11,153,depth_duration_stimuli/000927_2014-06-09_16-32-30_260595134347_rgbf000123-resize_3/000927_2014-06-09_16-32-30_260595134347_rgbf000123-resize_3-target.png,1000,2.6785,2,7240,999,meters,jsons/v1_VE1000_randls_11_rotated.json,1365826,1731499,30,Man
153,454653,DepthScenes,duration_manipulation_targetAtFixation,jsons/v1_VE1000_randls_11_rotated.json,http://54.235.29.9/FacialAge/BNav_EC2/DepthDuration/v2_depth_duration_MTurk/v2_DepthDuration_HTML.html#127,127,1280,657,1280,800,8-22-2022,5-3-11,154,depth_duration_stimuli/001110_2014-06-15_17-25-28_260595134347_rgbf000150-resize_1/001110_2014-06-15_17-25-28_260595134347_rgbf000150-resize_1-target.png,1000,1.7115,5,5961,945,meters,jsons/v1_VE1000_randls_11_rotated.json,1365826,1731499,30,Man
154,454653,DepthScenes,duration_manipulation_targetAtFixation,jsons/v1_VE1000_randls_11_rotated.json,http://54.235.29.9/FacialAge/BNav_EC2/DepthDuration/v2_depth_duration_MTurk/v2_DepthDuration_HTML.html#127,127,1280,657,1280,800,8-22-2022,5-3-11,155,depth_duration_stimuli/000137_2014-05-20_17-04-49_260595134347_rgbf000120-resize_1/000137_2014-05-20_17-04-49_260595134347_rgbf000120-resize_1-target.png,1000,3.786,5,10457,999,meters,jsons/v1_VE1000_randls_11_rotated.json,1365826,1731499,30,Man
155,454653,DepthScenes,duration_manipulation_targetAtFixation,jsons/v1_VE1000_randls_11_rotated.json,http://54.235.29.9/FacialAge/BNav_EC2/DepthDuration/v2_depth_duration_MTurk/v2_DepthDuration_HTML.html#127,127,1280,657,1280,800,8-22-2022,5-3-11,156,depth_duration_stimuli/000736_2014-06-08_18-24-15_260595134347_rgbf000206-resize_3/000736_2014-06-08_18-24-15_260595134347_rgbf000206-resize_3-target.png,1000,3.515,4,6498,1000,meters,jsons/v1_VE1000_randls_11_rotated.json,1365826,1731499,30,Man
156,454653,DepthScenes,duration_manipulation_targetAtFixation,jsons/v1_VE1000_randls_11_rotated.json,http://54.235.29.9/FacialAge/BNav_EC2/DepthDuration/v2_depth_duration_MTurk/v2_DepthDuration_HTML.html#127,127,1280,657,1280,800,8-22-2022,5-3-11,157,depth_duration_stimuli/001214_2014-06-17_16-13-55_260595134347_rgbf000111-resize_0/001214_2014-06-17_16-13-55_260595134347_rgbf000111-resize_0-target.png,1000,2.6505,2,7282,992,meters,jsons/v1_VE1000_randls_11_rotated.json,1365826,1731499,30,Man
157,454653,DepthScenes,duration_manipulation_targetAtFixation,jsons/v1_VE1000_randls_11_rotated.json,http://54.235.29.9/FacialAge/BNav_EC2/DepthDuration/v2_depth_duration_MTurk/v2_DepthDuration_HTML.html#127,127,1280,657,1280,800,8-22-2022,5-3-11,158,depth_duration_stimuli/000810_2014-06-08_17-20-01_260595134347_rgbf000105-resize_0/000810_2014-06-08_17-20-01_260595134347_rgbf000105-resize_0-target.png,1000,1.4865,1,8576,994,meters,jsons/v1_VE1000_randls_11_rotated.json,1365826,1731499,30,Man
158,454653,DepthScenes,duration_manipulation_targetAtFixation,jsons/v1_VE1000_randls_11_rotated.json,http://54.235.29.9/FacialAge/BNav_EC2/DepthDuration/v2_depth_duration_MTurk/v2_DepthDuration_HTML.html#127,127,1280,657,1280,800,8-22-2022,5-3-11,159,depth_duration_stimuli/000749_2014-06-08_21-55-06_260595134347_rgbf000070-resize_2/000749_2014-06-08_21-55-06_260595134347_rgbf000070-resize_2-target.png,1000,2.331,3,8576,1120,meters,jsons/v1_VE1000_randls_11_rotated.json,1365826,1731499,30,Man
159,454653,DepthScenes,duration_manipulation_targetAtFixation,jsons/v1_VE1000_randls_11_rotated.json,http://54.235.29.9/FacialAge/BNav_EC2/DepthDuration/v2_depth_duration_MTurk/v2_DepthDuration_HTML.html#127,127,1280,657,1280,800,8-22-2022,5-3-11,160,depth_duration_stimuli/002788_2014-06-22_19-36-03_094959634447_rgbf000088-resize_2/002788_2014-06-22_19-36-03_094959634447_rgbf000088-resize_2-target.png,1000,1.6465,4,10071,994,meters,jsons/v1_VE1000_randls_11_rotated.json,1365826,1731499,30,Man
160,454653,DepthScenes,duration_manipulation_targetAtFixation,jsons/v1_VE1000_randls_11_rotated.json,http://54.235.29.9/FacialAge/BNav_EC2/DepthDuration/v2_depth_duration_MTurk/v2_DepthDuration_HTML.html#127,127,1280,657,1280,800,8-22-2022,5-3-11,161,depth_duration_stimuli/002660_2014-06-13_15-44-18_094959634447_rgbf001878-resize_2/002660_2014-06-13_15-44-18_094959634447_rgbf001878-resize_2-target.png,1000,3.576,5,6166,964,meters,jsons/v1_VE1000_randls_11_rotated.json,1365826,1731499,30,Man
161,454653,DepthScenes,duration_manipulation_targetAtFixation,jsons/v1_VE1000_randls_11_rotated.json,http://54.235.29.9/FacialAge/BNav_EC2/DepthDuration/v2_depth_duration_MTurk/v2_DepthDuration_HTML.html#127,127,1280,657,1280,800,8-22-2022,5-3-11,162,depth_duration_stimuli/002153_2014-06-25_21-27-18_260595134347_rgbf000038-resize_5/002153_2014-06-25_21-27-18_260595134347_rgbf000038-resize_5-target.png,1000,2.505,3,6945,998,meters,jsons/v1_VE1000_randls_11_rotated.json,1365826,1731499,30,Man
162,454653,DepthScenes,duration_manipulation_targetAtFixation,jsons/v1_VE1000_randls_11_rotated.json,http://54.235.29.9/FacialAge/BNav_EC2/DepthDuration/v2_depth_duration_MTurk/v2_DepthDuration_HTML.html#127,127,1280,657,1280,800,8-22-2022,5-3-11,163,depth_duration_stimuli/003129_2014-05-12_10-48-10_094959634447_rgbf000100-resize_0/003129_2014-05-12_10-48-10_094959634447_rgbf000100-resize_0-target.png,1000,4.9305,1,6421,1004,meters,jsons/v1_VE1000_randls_11_rotated.json,1365826,1731499,30,Man
163,454653,DepthScenes,duration_manipulation_targetAtFixation,jsons/v1_VE1000_randls_11_rotated.json,http://54.235.29.9/FacialAge/BNav_EC2/DepthDuration/v2_depth_duration_MTurk/v2_DepthDuration_HTML.html#127,127,1280,657,1280,800,8-22-2022,5-3-11,164,depth_duration_stimuli/000414_2014-06-04_19-49-13_260595134347_rgbf000044-resize_0/000414_2014-06-04_19-49-13_260595134347_rgbf000044-resize_0-target.png,1000,4.329,4,7318,1005,meters,jsons/v1_VE1000_randls_11_rotated.json,1365826,1731499,30,Man
