,subjID,experimentName,versionName,sequenceName,url,selected_row,windowWidth,windowHeight,screenWidth,screenHeight,startDate,startTime,trial,stimulus,duration,actual_depth,depth_estimate,trial_RT,log_sceneDuration,unitSelection,seq_filepath,experimentTime,totalTime,age,gender
0,455617,DepthScenes,duration_manipulation_targetAtFixation,jsons/v1_VE250_randls_5_rotated.json,http://54.235.29.9/FacialAge/BNav_EC2/DepthDuration/v2_depth_duration_MTurk/v2_DepthDuration_HTML.html#25,25,1600,789,1600,900,8-20-2022,11-1-30,1,depth_duration_stimuli/000483_2014-06-09_20-41-45_260595134347_rgbf000116-resize_4/000483_2014-06-09_20-41-45_260595134347_rgbf000116-resize_4-target.png,250,1.337,5.0,7664,249,meters,jsons/v1_VE250_randls_5_rotated.json,515518,1156638,35,Woman
1,455617,DepthScenes,duration_manipulation_targetAtFixation,jsons/v1_VE250_randls_5_rotated.json,http://54.235.29.9/FacialAge/BNav_EC2/DepthDuration/v2_depth_duration_MTurk/v2_DepthDuration_HTML.html#25,25,1600,789,1600,900,8-20-2022,11-1-30,2,depth_duration_stimuli/000469_2014-06-09_19-42-10_260595134347_rgbf000081-resize_1/000469_2014-06-09_19-42-10_260595134347_rgbf000081-resize_1-target.png,250,1.652,8.0,4970,257,meters,jsons/v1_VE250_randls_5_rotated.json,515518,1156638,35,Woman
2,455617,DepthScenes,duration_manipulation_targetAtFixation,jsons/v1_VE250_randls_5_rotated.json,http://54.235.29.9/FacialAge/BNav_EC2/DepthDuration/v2_depth_duration_MTurk/v2_DepthDuration_HTML.html#25,25,1600,789,1600,900,8-20-2022,11-1-30,3,depth_duration_stimuli/001136_2014-06-17_15-19-41_260595134347_rgbf000076-resize_3/001136_2014-06-17_15-19-41_260595134347_rgbf000076-resize_3-target.png,250,1.8655,9.0,5882,250,meters,jsons/v1_VE250_randls_5_rotated.json,515518,1156638,35,Woman
3,455617,DepthScenes,duration_manipulation_targetAtFixation,jsons/v1_VE250_randls_5_rotated.json,http://54.235.29.9/FacialAge/BNav_EC2/DepthDuration/v2_depth_duration_MTurk/v2_DepthDuration_HTML.html#25,25,1600,789,1600,900,8-20-2022,11-1-30,4,depth_duration_stimuli/001164_2014-06-17_15-35-46_260595134347_rgbf000085-resize_3/001164_2014-06-17_15-35-46_260595134347_rgbf000085-resize_3-target.png,250,2.354,4.0,2794,248,meters,jsons/v1_VE250_randls_5_rotated.json,515518,1156638,35,Woman
4,455617,DepthScenes,duration_manipulation_targetAtFixation,jsons/v1_VE250_randls_5_rotated.json,http://54.235.29.9/FacialAge/BNav_EC2/DepthDuration/v2_depth_duration_MTurk/v2_DepthDuration_HTML.html#25,25,1600,789,1600,900,8-20-2022,11-1-30,5,depth_duration_stimuli/002953_2014-06-08_17-32-18_094959634447_rgbf000059-resize_5/002953_2014-06-08_17-32-18_094959634447_rgbf000059-resize_5-target.png,250,1.551,5.0,5851,249,meters,jsons/v1_VE250_randls_5_rotated.json,515518,1156638,35,Woman
5,455617,DepthScenes,duration_manipulation_targetAtFixation,jsons/v1_VE250_randls_5_rotated.json,http://54.235.29.9/FacialAge/BNav_EC2/DepthDuration/v2_depth_duration_MTurk/v2_DepthDuration_HTML.html#25,25,1600,789,1600,900,8-20-2022,11-1-30,6,depth_duration_stimuli/000878_2014-06-08_22-52-45_260595134347_rgbf000045-resize_2/000878_2014-06-08_22-52-45_260595134347_rgbf000045-resize_2-target.png,250,2.092,6.0,3195,249,meters,jsons/v1_VE250_randls_5_rotated.json,515518,1156638,35,Woman
6,455617,DepthScenes,duration_manipulation_targetAtFixation,jsons/v1_VE250_randls_5_rotated.json,http://54.235.29.9/FacialAge/BNav_EC2/DepthDuration/v2_depth_duration_MTurk/v2_DepthDuration_HTML.html#25,25,1600,789,1600,900,8-20-2022,11-1-30,7,depth_duration_stimuli/001828_2014-06-26_21-40-03_260595134347_rgbf000024-resize_0/001828_2014-06-26_21-40-03_260595134347_rgbf000024-resize_0-target.png,250,4.8260000000000005,8.0,7691,249,meters,jsons/v1_VE250_randls_5_rotated.json,515518,1156638,35,Woman
7,455617,DepthScenes,duration_manipulation_targetAtFixation,jsons/v1_VE250_randls_5_rotated.json,http://54.235.29.9/FacialAge/BNav_EC2/DepthDuration/v2_depth_duration_MTurk/v2_DepthDuration_HTML.html#25,25,1600,789,1600,900,8-20-2022,11-1-30,8,depth_duration_stimuli/000009_2014-05-26_14-32-05_260595134347_rgbf000034-resize_3/000009_2014-05-26_14-32-05_260595134347_rgbf000034-resize_3-target.png,250,3.8715,9.0,3417,249,meters,jsons/v1_VE250_randls_5_rotated.json,515518,1156638,35,Woman
8,455617,DepthScenes,duration_manipulation_targetAtFixation,jsons/v1_VE250_randls_5_rotated.json,http://54.235.29.9/FacialAge/BNav_EC2/DepthDuration/v2_depth_duration_MTurk/v2_DepthDuration_HTML.html#25,25,1600,789,1600,900,8-20-2022,11-1-30,9,depth_duration_stimuli/000409_2014-06-04_19-23-33_260595134347_rgbf000067-resize_0/000409_2014-06-04_19-23-33_260595134347_rgbf000067-resize_0-target.png,250,3.7335,4.0,6346,248,meters,jsons/v1_VE250_randls_5_rotated.json,515518,1156638,35,Woman
9,455617,DepthScenes,duration_manipulation_targetAtFixation,jsons/v1_VE250_randls_5_rotated.json,http://54.235.29.9/FacialAge/BNav_EC2/DepthDuration/v2_depth_duration_MTurk/v2_DepthDuration_HTML.html#25,25,1600,789,1600,900,8-20-2022,11-1-30,10,depth_duration_stimuli/002663_2014-06-13_15-50-26_094959634447_rgbf000075-resize_1/002663_2014-06-13_15-50-26_094959634447_rgbf000075-resize_1-target.png,250,4.7495,6.0,3450,249,meters,jsons/v1_VE250_randls_5_rotated.json,515518,1156638,35,Woman
10,455617,DepthScenes,duration_manipulation_targetAtFixation,jsons/v1_VE250_randls_5_rotated.json,http://54.235.29.9/FacialAge/BNav_EC2/DepthDuration/v2_depth_duration_MTurk/v2_DepthDuration_HTML.html#25,25,1600,789,1600,900,8-20-2022,11-1-30,11,depth_duration_stimuli/001052_2014-06-08_18-24-54_260595134347_rgbf000130-resize_1/001052_2014-06-08_18-24-54_260595134347_rgbf000130-resize_1-target.png,250,4.1045,5.0,5595,250,meters,jsons/v1_VE250_randls_5_rotated.json,515518,1156638,35,Woman
11,455617,DepthScenes,duration_manipulation_targetAtFixation,jsons/v1_VE250_randls_5_rotated.json,http://54.235.29.9/FacialAge/BNav_EC2/DepthDuration/v2_depth_duration_MTurk/v2_DepthDuration_HTML.html#25,25,1600,789,1600,900,8-20-2022,11-1-30,12,depth_duration_stimuli/002988_2014-06-15_12-24-20_094959634447_rgbf000150-resize_1/002988_2014-06-15_12-24-20_094959634447_rgbf000150-resize_1-target.png,250,4.7669999999999995,8.0,3051,249,meters,jsons/v1_VE250_randls_5_rotated.json,515518,1156638,35,Woman
12,455617,DepthScenes,duration_manipulation_targetAtFixation,jsons/v1_VE250_randls_5_rotated.json,http://54.235.29.9/FacialAge/BNav_EC2/DepthDuration/v2_depth_duration_MTurk/v2_DepthDuration_HTML.html#25,25,1600,789,1600,900,8-20-2022,11-1-30,13,depth_duration_stimuli/003048_2014-06-15_13-49-43_094959634447_rgbf000150-resize_1/003048_2014-06-15_13-49-43_094959634447_rgbf000150-resize_1-target.png,250,4.0035,4.0,6506,248,meters,jsons/v1_VE250_randls_5_rotated.json,515518,1156638,35,Woman
13,455617,DepthScenes,duration_manipulation_targetAtFixation,jsons/v1_VE250_randls_5_rotated.json,http://54.235.29.9/FacialAge/BNav_EC2/DepthDuration/v2_depth_duration_MTurk/v2_DepthDuration_HTML.html#25,25,1600,789,1600,900,8-20-2022,11-1-30,14,depth_duration_stimuli/002043_2014-06-24_20-29-38_260595134347_rgbf000039-resize_4/002043_2014-06-24_20-29-38_260595134347_rgbf000039-resize_4-target.png,250,2.8435,5.0,2234,251,meters,jsons/v1_VE250_randls_5_rotated.json,515518,1156638,35,Woman
14,455617,DepthScenes,duration_manipulation_targetAtFixation,jsons/v1_VE250_randls_5_rotated.json,http://54.235.29.9/FacialAge/BNav_EC2/DepthDuration/v2_depth_duration_MTurk/v2_DepthDuration_HTML.html#25,25,1600,789,1600,900,8-20-2022,11-1-30,15,depth_duration_stimuli/000665_2014-06-09_20-42-35_260595134347_rgbf000110-resize_1/000665_2014-06-09_20-42-35_260595134347_rgbf000110-resize_1-target.png,250,3.057,6.0,5403,250,meters,jsons/v1_VE250_randls_5_rotated.json,515518,1156638,35,Woman
15,455617,DepthScenes,duration_manipulation_targetAtFixation,jsons/v1_VE250_randls_5_rotated.json,http://54.235.29.9/FacialAge/BNav_EC2/DepthDuration/v2_depth_duration_MTurk/v2_DepthDuration_HTML.html#25,25,1600,789,1600,900,8-20-2022,11-1-30,16,depth_duration_stimuli/001150_2014-06-17_15-27-34_260595134347_rgbf000108-resize_2/001150_2014-06-17_15-27-34_260595134347_rgbf000108-resize_2-target.png,250,4.0325,5.0,2841,248,meters,jsons/v1_VE250_randls_5_rotated.json,515518,1156638,35,Woman
16,455617,DepthScenes,duration_manipulation_targetAtFixation,jsons/v1_VE250_randls_5_rotated.json,http://54.235.29.9/FacialAge/BNav_EC2/DepthDuration/v2_depth_duration_MTurk/v2_DepthDuration_HTML.html#25,25,1600,789,1600,900,8-20-2022,11-1-30,17,depth_duration_stimuli/002875_2014-06-01_15-19-00_094959634447_rgbf000151-resize_1/002875_2014-06-01_15-19-00_094959634447_rgbf000151-resize_1-target.png,250,1.9675,4.0,5211,249,meters,jsons/v1_VE250_randls_5_rotated.json,515518,1156638,35,Woman
17,455617,DepthScenes,duration_manipulation_targetAtFixation,jsons/v1_VE250_randls_5_rotated.json,http://54.235.29.9/FacialAge/BNav_EC2/DepthDuration/v2_depth_duration_MTurk/v2_DepthDuration_HTML.html#25,25,1600,789,1600,900,8-20-2022,11-1-30,18,depth_duration_stimuli/001011_2014-06-08_23-18-54_260595134347_rgbf000044-resize_4/001011_2014-06-08_23-18-54_260595134347_rgbf000044-resize_4-target.png,250,2.4730000000000003,8.0,2506,249,meters,jsons/v1_VE250_randls_5_rotated.json,515518,1156638,35,Woman
18,455617,DepthScenes,duration_manipulation_targetAtFixation,jsons/v1_VE250_randls_5_rotated.json,http://54.235.29.9/FacialAge/BNav_EC2/DepthDuration/v2_depth_duration_MTurk/v2_DepthDuration_HTML.html#25,25,1600,789,1600,900,8-20-2022,11-1-30,19,depth_duration_stimuli/001498_2014-06-19_17-45-14_260595134347_rgbf000129-resize_4/001498_2014-06-19_17-45-14_260595134347_rgbf000129-resize-original.jpg,250,1.4075,0.0,2345,250,meters,jsons/v1_VE250_randls_5_rotated.json,515518,1156638,35,Woman
19,455617,DepthScenes,duration_manipulation_targetAtFixation,jsons/v1_VE250_randls_5_rotated.json,http://54.235.29.9/FacialAge/BNav_EC2/DepthDuration/v2_depth_duration_MTurk/v2_DepthDuration_HTML.html#25,25,1600,789,1600,900,8-20-2022,11-1-30,20,depth_duration_stimuli/000927_2014-06-09_16-32-30_260595134347_rgbf000123-resize_3/000927_2014-06-09_16-32-30_260595134347_rgbf000123-resize_3-target.png,250,2.6785,5.0,2073,248,meters,jsons/v1_VE250_randls_5_rotated.json,515518,1156638,35,Woman
20,455617,DepthScenes,duration_manipulation_targetAtFixation,jsons/v1_VE250_randls_5_rotated.json,http://54.235.29.9/FacialAge/BNav_EC2/DepthDuration/v2_depth_duration_MTurk/v2_DepthDuration_HTML.html#25,25,1600,789,1600,900,8-20-2022,11-1-30,21,depth_duration_stimuli/001110_2014-06-15_17-25-28_260595134347_rgbf000150-resize_1/001110_2014-06-15_17-25-28_260595134347_rgbf000150-resize_1-target.png,250,1.7115,4.0,1915,250,meters,jsons/v1_VE250_randls_5_rotated.json,515518,1156638,35,Woman
21,455617,DepthScenes,duration_manipulation_targetAtFixation,jsons/v1_VE250_randls_5_rotated.json,http://54.235.29.9/FacialAge/BNav_EC2/DepthDuration/v2_depth_duration_MTurk/v2_DepthDuration_HTML.html#25,25,1600,789,1600,900,8-20-2022,11-1-30,22,depth_duration_stimuli/003338_2014-05-20_11-01-23_094959634447_rgbf000051-resize_6/003338_2014-05-20_11-01-23_094959634447_rgbf000051-resize_6-target.png,250,1.693,6.0,5595,249,meters,jsons/v1_VE250_randls_5_rotated.json,515518,1156638,35,Woman
22,455617,DepthScenes,duration_manipulation_targetAtFixation,jsons/v1_VE250_randls_5_rotated.json,http://54.235.29.9/FacialAge/BNav_EC2/DepthDuration/v2_depth_duration_MTurk/v2_DepthDuration_HTML.html#25,25,1600,789,1600,900,8-20-2022,11-1-30,23,depth_duration_stimuli/002509_2014-06-24_13-19-22_094959634447_rgbf000077-resize_0/002509_2014-06-24_13-19-22_094959634447_rgbf000077-resize_0-target.png,250,1.3065,5.0,2538,250,meters,jsons/v1_VE250_randls_5_rotated.json,515518,1156638,35,Woman
23,455617,DepthScenes,duration_manipulation_targetAtFixation,jsons/v1_VE250_randls_5_rotated.json,http://54.235.29.9/FacialAge/BNav_EC2/DepthDuration/v2_depth_duration_MTurk/v2_DepthDuration_HTML.html#25,25,1600,789,1600,900,8-20-2022,11-1-30,24,depth_duration_stimuli/002103_2014-06-25_20-00-40_260595134347_rgbf000049-resize_0/002103_2014-06-25_20-00-40_260595134347_rgbf000049-resize_0-target.png,250,4.105,4.0,6165,253,meters,jsons/v1_VE250_randls_5_rotated.json,515518,1156638,35,Woman
24,455617,DepthScenes,duration_manipulation_targetAtFixation,jsons/v1_VE250_randls_5_rotated.json,http://54.235.29.9/FacialAge/BNav_EC2/DepthDuration/v2_depth_duration_MTurk/v2_DepthDuration_HTML.html#25,25,1600,789,1600,900,8-20-2022,11-1-30,25,depth_duration_stimuli/002039_2014-06-24_20-22-38_260595134347_rgbf000084-resize_1/002039_2014-06-24_20-22-38_260595134347_rgbf000084-resize_1-target.png,250,4.408,5.0,2746,250,meters,jsons/v1_VE250_randls_5_rotated.json,515518,1156638,35,Woman
25,455617,DepthScenes,duration_manipulation_targetAtFixation,jsons/v1_VE250_randls_5_rotated.json,http://54.235.29.9/FacialAge/BNav_EC2/DepthDuration/v2_depth_duration_MTurk/v2_DepthDuration_HTML.html#25,25,1600,789,1600,900,8-20-2022,11-1-30,26,depth_duration_stimuli/002750_2014-06-22_19-08-03_094959634447_rgbf000094-resize_4/002750_2014-06-22_19-08-03_094959634447_rgbf000094-resize_4-target.png,250,2.354,4.0,6093,250,meters,jsons/v1_VE250_randls_5_rotated.json,515518,1156638,35,Woman
26,455617,DepthScenes,duration_manipulation_targetAtFixation,jsons/v1_VE250_randls_5_rotated.json,http://54.235.29.9/FacialAge/BNav_EC2/DepthDuration/v2_depth_duration_MTurk/v2_DepthDuration_HTML.html#25,25,1600,789,1600,900,8-20-2022,11-1-30,27,depth_duration_stimuli/002549_2014-06-24_13-41-39_094959634447_rgbf000022-resize_3/002549_2014-06-24_13-41-39_094959634447_rgbf000022-resize_3-target.png,250,1.476,5.0,3897,249,meters,jsons/v1_VE250_randls_5_rotated.json,515518,1156638,35,Woman
27,455617,DepthScenes,duration_manipulation_targetAtFixation,jsons/v1_VE250_randls_5_rotated.json,http://54.235.29.9/FacialAge/BNav_EC2/DepthDuration/v2_depth_duration_MTurk/v2_DepthDuration_HTML.html#25,25,1600,789,1600,900,8-20-2022,11-1-30,28,depth_duration_stimuli/000677_2014-06-08_23-10-32_260595134347_rgbf000158-resize_6/000677_2014-06-08_23-10-32_260595134347_rgbf000158-resize_6-target.png,250,3.556,4.0,6012,249,meters,jsons/v1_VE250_randls_5_rotated.json,515518,1156638,35,Woman
28,455617,DepthScenes,duration_manipulation_targetAtFixation,jsons/v1_VE250_randls_5_rotated.json,http://54.235.29.9/FacialAge/BNav_EC2/DepthDuration/v2_depth_duration_MTurk/v2_DepthDuration_HTML.html#25,25,1600,789,1600,900,8-20-2022,11-1-30,29,depth_duration_stimuli/001029_2014-06-08_13-17-57_260595134347_rgbf000065-resize_1/001029_2014-06-08_13-17-57_260595134347_rgbf000065-resize_1-target.png,250,3.0835,5.0,4329,250,meters,jsons/v1_VE250_randls_5_rotated.json,515518,1156638,35,Woman
29,455617,DepthScenes,duration_manipulation_targetAtFixation,jsons/v1_VE250_randls_5_rotated.json,http://54.235.29.9/FacialAge/BNav_EC2/DepthDuration/v2_depth_duration_MTurk/v2_DepthDuration_HTML.html#25,25,1600,789,1600,900,8-20-2022,11-1-30,30,depth_duration_stimuli/002072_2014-06-24_21-48-06_260595134347_rgbf000115-resize_0/002072_2014-06-24_21-48-06_260595134347_rgbf000115-resize-original.jpg,250,4.702,0.0,6953,249,meters,jsons/v1_VE250_randls_5_rotated.json,515518,1156638,35,Woman
30,455617,DepthScenes,duration_manipulation_targetAtFixation,jsons/v1_VE250_randls_5_rotated.json,http://54.235.29.9/FacialAge/BNav_EC2/DepthDuration/v2_depth_duration_MTurk/v2_DepthDuration_HTML.html#25,25,1600,789,1600,900,8-20-2022,11-1-30,31,depth_duration_stimuli/001100_2014-06-15_17-46-26_260595134347_rgbf000225-resize_2/001100_2014-06-15_17-46-26_260595134347_rgbf000225-resize_2-target.png,250,2.24,5.0,6795,251,meters,jsons/v1_VE250_randls_5_rotated.json,515518,1156638,35,Woman
31,455617,DepthScenes,duration_manipulation_targetAtFixation,jsons/v1_VE250_randls_5_rotated.json,http://54.235.29.9/FacialAge/BNav_EC2/DepthDuration/v2_depth_duration_MTurk/v2_DepthDuration_HTML.html#25,25,1600,789,1600,900,8-20-2022,11-1-30,32,depth_duration_stimuli/002784_2014-06-22_19-26-30_094959634447_rgbf000083-resize_3/002784_2014-06-22_19-26-30_094959634447_rgbf000083-resize_3-target.png,250,1.8046666666667,4.0,3163,249,meters,jsons/v1_VE250_randls_5_rotated.json,515518,1156638,35,Woman
32,455617,DepthScenes,duration_manipulation_targetAtFixation,jsons/v1_VE250_randls_5_rotated.json,http://54.235.29.9/FacialAge/BNav_EC2/DepthDuration/v2_depth_duration_MTurk/v2_DepthDuration_HTML.html#25,25,1600,789,1600,900,8-20-2022,11-1-30,33,depth_duration_stimuli/000742_2014-06-08_18-48-09_260595134347_rgbf000164-resize_4/000742_2014-06-08_18-48-09_260595134347_rgbf000164-resize_4-target.png,250,4.632,8.0,5945,249,meters,jsons/v1_VE250_randls_5_rotated.json,515518,1156638,35,Woman
33,455617,DepthScenes,duration_manipulation_targetAtFixation,jsons/v1_VE250_randls_5_rotated.json,http://54.235.29.9/FacialAge/BNav_EC2/DepthDuration/v2_depth_duration_MTurk/v2_DepthDuration_HTML.html#25,25,1600,789,1600,900,8-20-2022,11-1-30,34,depth_duration_stimuli/001066_2014-06-08_22-03-20_260595134347_rgbf000066-resize_4/001066_2014-06-08_22-03-20_260595134347_rgbf000066-resize_4-target.png,250,4.2330000000000005,7.0,2410,250,meters,jsons/v1_VE250_randls_5_rotated.json,515518,1156638,35,Woman
34,455617,DepthScenes,duration_manipulation_targetAtFixation,jsons/v1_VE250_randls_5_rotated.json,http://54.235.29.9/FacialAge/BNav_EC2/DepthDuration/v2_depth_duration_MTurk/v2_DepthDuration_HTML.html#25,25,1600,789,1600,900,8-20-2022,11-1-30,35,depth_duration_stimuli/002995_2014-06-15_12-31-26_094959634447_rgbf000150-resize_1/002995_2014-06-15_12-31-26_094959634447_rgbf000150-resize_1-target.png,250,3.8360000000000003,9.0,5642,250,meters,jsons/v1_VE250_randls_5_rotated.json,515518,1156638,35,Woman
35,455617,DepthScenes,duration_manipulation_targetAtFixation,jsons/v1_VE250_randls_5_rotated.json,http://54.235.29.9/FacialAge/BNav_EC2/DepthDuration/v2_depth_duration_MTurk/v2_DepthDuration_HTML.html#25,25,1600,789,1600,900,8-20-2022,11-1-30,36,depth_duration_stimuli/002748_2014-06-22_19-07-22_094959634447_rgbf000078-resize_1/002748_2014-06-22_19-07-22_094959634447_rgbf000078-resize_1-target.png,250,4.6705,8.0,3803,249,meters,jsons/v1_VE250_randls_5_rotated.json,515518,1156638,35,Woman
36,455617,DepthScenes,duration_manipulation_targetAtFixation,jsons/v1_VE250_randls_5_rotated.json,http://54.235.29.9/FacialAge/BNav_EC2/DepthDuration/v2_depth_duration_MTurk/v2_DepthDuration_HTML.html#25,25,1600,789,1600,900,8-20-2022,11-1-30,37,depth_duration_stimuli/000943_2014-06-09_19-31-07_260595134347_rgbf000128-resize_1/000943_2014-06-09_19-31-07_260595134347_rgbf000128-resize_1-target.png,250,1.9765,5.0,6731,250,meters,jsons/v1_VE250_randls_5_rotated.json,515518,1156638,35,Woman
37,455617,DepthScenes,duration_manipulation_targetAtFixation,jsons/v1_VE250_randls_5_rotated.json,http://54.235.29.9/FacialAge/BNav_EC2/DepthDuration/v2_depth_duration_MTurk/v2_DepthDuration_HTML.html#25,25,1600,789,1600,900,8-20-2022,11-1-30,38,depth_duration_stimuli/003070_2014-06-15_14-58-27_094959634447_rgbf000150-resize_3/003070_2014-06-15_14-58-27_094959634447_rgbf000150-resize_3-target.png,250,2.9415,4.0,2153,248,meters,jsons/v1_VE250_randls_5_rotated.json,515518,1156638,35,Woman
38,455617,DepthScenes,duration_manipulation_targetAtFixation,jsons/v1_VE250_randls_5_rotated.json,http://54.235.29.9/FacialAge/BNav_EC2/DepthDuration/v2_depth_duration_MTurk/v2_DepthDuration_HTML.html#25,25,1600,789,1600,900,8-20-2022,11-1-30,39,depth_duration_stimuli/000780_2014-06-08_22-28-29_260595134347_rgbf000126-resize_1/000780_2014-06-08_22-28-29_260595134347_rgbf000126-resize_1-target.png,250,3.3825,5.0,6089,250,meters,jsons/v1_VE250_randls_5_rotated.json,515518,1156638,35,Woman
39,455617,DepthScenes,duration_manipulation_targetAtFixation,jsons/v1_VE250_randls_5_rotated.json,http://54.235.29.9/FacialAge/BNav_EC2/DepthDuration/v2_depth_duration_MTurk/v2_DepthDuration_HTML.html#25,25,1600,789,1600,900,8-20-2022,11-1-30,40,depth_duration_stimuli/002445_2014-06-28_20-32-16_260595134347_rgbf000029-resize_4/002445_2014-06-28_20-32-16_260595134347_rgbf000029-resize_4-target.png,250,2.5315,6.0,2780,249,meters,jsons/v1_VE250_randls_5_rotated.json,515518,1156638,35,Woman
40,455617,DepthScenes,duration_manipulation_targetAtFixation,jsons/v1_VE250_randls_5_rotated.json,http://54.235.29.9/FacialAge/BNav_EC2/DepthDuration/v2_depth_duration_MTurk/v2_DepthDuration_HTML.html#25,25,1600,789,1600,900,8-20-2022,11-1-30,41,depth_duration_stimuli/002949_2014-06-26_15-57-42_094959634447_rgbf000079-resize_1/002949_2014-06-26_15-57-42_094959634447_rgbf000079-resize_1-target.png,250,1.8915,5.0,2282,264,meters,jsons/v1_VE250_randls_5_rotated.json,515518,1156638,35,Woman
41,455617,DepthScenes,duration_manipulation_targetAtFixation,jsons/v1_VE250_randls_5_rotated.json,http://54.235.29.9/FacialAge/BNav_EC2/DepthDuration/v2_depth_duration_MTurk/v2_DepthDuration_HTML.html#25,25,1600,789,1600,900,8-20-2022,11-1-30,42,depth_duration_stimuli/000522_2014-06-08_13-35-06_260595134347_rgbf000244-resize_1/000522_2014-06-08_13-35-06_260595134347_rgbf000244-resize_1-target.png,250,2.3715,5.0,2746,250,meters,jsons/v1_VE250_randls_5_rotated.json,515518,1156638,35,Woman
42,455617,DepthScenes,duration_manipulation_targetAtFixation,jsons/v1_VE250_randls_5_rotated.json,http://54.235.29.9/FacialAge/BNav_EC2/DepthDuration/v2_depth_duration_MTurk/v2_DepthDuration_HTML.html#25,25,1600,789,1600,900,8-20-2022,11-1-30,43,depth_duration_stimuli/000866_2014-06-09_20-45-42_260595134347_rgbf000139-resize_1/000866_2014-06-09_20-45-42_260595134347_rgbf000139-resize_1-target.png,250,3.2155,8.0,3957,248,meters,jsons/v1_VE250_randls_5_rotated.json,515518,1156638,35,Woman
43,455617,DepthScenes,duration_manipulation_targetAtFixation,jsons/v1_VE250_randls_5_rotated.json,http://54.235.29.9/FacialAge/BNav_EC2/DepthDuration/v2_depth_duration_MTurk/v2_DepthDuration_HTML.html#25,25,1600,789,1600,900,8-20-2022,11-1-30,44,depth_duration_stimuli/002989_2014-06-15_12-25-03_094959634447_rgbf000150-resize_3/002989_2014-06-15_12-25-03_094959634447_rgbf000150-resize_3-target.png,250,4.1975,0.0,2161,241,meters,jsons/v1_VE250_randls_5_rotated.json,515518,1156638,35,Woman
44,455617,DepthScenes,duration_manipulation_targetAtFixation,jsons/v1_VE250_randls_5_rotated.json,http://54.235.29.9/FacialAge/BNav_EC2/DepthDuration/v2_depth_duration_MTurk/v2_DepthDuration_HTML.html#25,25,1600,789,1600,900,8-20-2022,11-1-30,45,depth_duration_stimuli/002414_2014-06-28_20-24-58_260595134347_rgbf000067-resize_4/002414_2014-06-28_20-24-58_260595134347_rgbf000067-resize_4-target.png,250,4.363,5.0,1834,249,meters,jsons/v1_VE250_randls_5_rotated.json,515518,1156638,35,Woman
45,455617,DepthScenes,duration_manipulation_targetAtFixation,jsons/v1_VE250_randls_5_rotated.json,http://54.235.29.9/FacialAge/BNav_EC2/DepthDuration/v2_depth_duration_MTurk/v2_DepthDuration_HTML.html#25,25,1600,789,1600,900,8-20-2022,11-1-30,46,depth_duration_stimuli/000773_2014-06-08_22-24-54_260595134347_rgbf000093-resize_1/000773_2014-06-08_22-24-54_260595134347_rgbf000093-resize_1-target.png,250,4.973,4.0,1819,250,meters,jsons/v1_VE250_randls_5_rotated.json,515518,1156638,35,Woman
46,455617,DepthScenes,duration_manipulation_targetAtFixation,jsons/v1_VE250_randls_5_rotated.json,http://54.235.29.9/FacialAge/BNav_EC2/DepthDuration/v2_depth_duration_MTurk/v2_DepthDuration_HTML.html#25,25,1600,789,1600,900,8-20-2022,11-1-30,47,depth_duration_stimuli/000749_2014-06-08_21-55-06_260595134347_rgbf000070-resize_2/000749_2014-06-08_21-55-06_260595134347_rgbf000070-resize_2-target.png,250,2.331,6.0,1786,250,meters,jsons/v1_VE250_randls_5_rotated.json,515518,1156638,35,Woman
47,455617,DepthScenes,duration_manipulation_targetAtFixation,jsons/v1_VE250_randls_5_rotated.json,http://54.235.29.9/FacialAge/BNav_EC2/DepthDuration/v2_depth_duration_MTurk/v2_DepthDuration_HTML.html#25,25,1600,789,1600,900,8-20-2022,11-1-30,48,depth_duration_stimuli/002788_2014-06-22_19-36-03_094959634447_rgbf000088-resize_2/002788_2014-06-22_19-36-03_094959634447_rgbf000088-resize_2-target.png,250,1.6465,5.0,2219,249,meters,jsons/v1_VE250_randls_5_rotated.json,515518,1156638,35,Woman
48,455617,DepthScenes,duration_manipulation_targetAtFixation,jsons/v1_VE250_randls_5_rotated.json,http://54.235.29.9/FacialAge/BNav_EC2/DepthDuration/v2_depth_duration_MTurk/v2_DepthDuration_HTML.html#25,25,1600,789,1600,900,8-20-2022,11-1-30,49,depth_duration_stimuli/001170_2014-06-17_15-43-44_260595134347_rgbf000096-resize_6/001170_2014-06-17_15-43-44_260595134347_rgbf000096-resize-original.jpg,250,1.1909999999999998,0.0,1885,249,meters,jsons/v1_VE250_randls_5_rotated.json,515518,1156638,35,Woman
49,455617,DepthScenes,duration_manipulation_targetAtFixation,jsons/v1_VE250_randls_5_rotated.json,http://54.235.29.9/FacialAge/BNav_EC2/DepthDuration/v2_depth_duration_MTurk/v2_DepthDuration_HTML.html#25,25,1600,789,1600,900,8-20-2022,11-1-30,50,depth_duration_stimuli/002209_2014-06-28_18-36-10_260595134347_rgbf000051-resize_1/002209_2014-06-28_18-36-10_260595134347_rgbf000051-resize_1-target.png,250,2.057,5.0,1817,249,meters,jsons/v1_VE250_randls_5_rotated.json,515518,1156638,35,Woman
50,455617,DepthScenes,duration_manipulation_targetAtFixation,jsons/v1_VE250_randls_5_rotated.json,http://54.235.29.9/FacialAge/BNav_EC2/DepthDuration/v2_depth_duration_MTurk/v2_DepthDuration_HTML.html#25,25,1600,789,1600,900,8-20-2022,11-1-30,51,depth_duration_stimuli/002763_2014-06-22_19-13-10_094959634447_rgbf000075-resize_4/002763_2014-06-22_19-13-10_094959634447_rgbf000075-resize_4-target.png,250,1.68375,8.0,1900,250,meters,jsons/v1_VE250_randls_5_rotated.json,515518,1156638,35,Woman
51,455617,DepthScenes,duration_manipulation_targetAtFixation,jsons/v1_VE250_randls_5_rotated.json,http://54.235.29.9/FacialAge/BNav_EC2/DepthDuration/v2_depth_duration_MTurk/v2_DepthDuration_HTML.html#25,25,1600,789,1600,900,8-20-2022,11-1-30,52,depth_duration_stimuli/002657_2014-06-13_15-29-54_094959634447_rgbf000150-resize_1/002657_2014-06-13_15-29-54_094959634447_rgbf000150-resize_1-target.png,250,4.919,7.0,1594,248,meters,jsons/v1_VE250_randls_5_rotated.json,515518,1156638,35,Woman
52,455617,DepthScenes,duration_manipulation_targetAtFixation,jsons/v1_VE250_randls_5_rotated.json,http://54.235.29.9/FacialAge/BNav_EC2/DepthDuration/v2_depth_duration_MTurk/v2_DepthDuration_HTML.html#25,25,1600,789,1600,900,8-20-2022,11-1-30,53,depth_duration_stimuli/002375_2014-06-28_20-13-44_260595134347_rgbf000032-resize_1/002375_2014-06-28_20-13-44_260595134347_rgbf000032-resize_1-target.png,250,4.0175,9.0,1977,250,meters,jsons/v1_VE250_randls_5_rotated.json,515518,1156638,35,Woman
53,455617,DepthScenes,duration_manipulation_targetAtFixation,jsons/v1_VE250_randls_5_rotated.json,http://54.235.29.9/FacialAge/BNav_EC2/DepthDuration/v2_depth_duration_MTurk/v2_DepthDuration_HTML.html#25,25,1600,789,1600,900,8-20-2022,11-1-30,54,depth_duration_stimuli/000191_2014-05-12_17-07-38_260595134347_rgbf000199-resize_0/000191_2014-05-12_17-07-38_260595134347_rgbf000199-resize_0-target.png,250,3.7995,8.0,1899,249,meters,jsons/v1_VE250_randls_5_rotated.json,515518,1156638,35,Woman
54,455617,DepthScenes,duration_manipulation_targetAtFixation,jsons/v1_VE250_randls_5_rotated.json,http://54.235.29.9/FacialAge/BNav_EC2/DepthDuration/v2_depth_duration_MTurk/v2_DepthDuration_HTML.html#25,25,1600,789,1600,900,8-20-2022,11-1-30,55,depth_duration_stimuli/000493_2014-06-09_21-01-18_260595134347_rgbf000196-resize_3/000493_2014-06-09_21-01-18_260595134347_rgbf000196-resize_3-target.png,250,3.44,5.0,2059,249,meters,jsons/v1_VE250_randls_5_rotated.json,515518,1156638,35,Woman
55,455617,DepthScenes,duration_manipulation_targetAtFixation,jsons/v1_VE250_randls_5_rotated.json,http://54.235.29.9/FacialAge/BNav_EC2/DepthDuration/v2_depth_duration_MTurk/v2_DepthDuration_HTML.html#25,25,1600,789,1600,900,8-20-2022,11-1-30,56,depth_duration_stimuli/003129_2014-05-12_10-48-10_094959634447_rgbf000100-resize_0/003129_2014-05-12_10-48-10_094959634447_rgbf000100-resize_0-target.png,250,4.9305,4.0,1707,249,meters,jsons/v1_VE250_randls_5_rotated.json,515518,1156638,35,Woman
56,455617,DepthScenes,duration_manipulation_targetAtFixation,jsons/v1_VE250_randls_5_rotated.json,http://54.235.29.9/FacialAge/BNav_EC2/DepthDuration/v2_depth_duration_MTurk/v2_DepthDuration_HTML.html#25,25,1600,789,1600,900,8-20-2022,11-1-30,57,depth_duration_stimuli/000414_2014-06-04_19-49-13_260595134347_rgbf000044-resize_0/000414_2014-06-04_19-49-13_260595134347_rgbf000044-resize_0-target.png,250,4.329,7.0,2105,250,meters,jsons/v1_VE250_randls_5_rotated.json,515518,1156638,35,Woman
57,455617,DepthScenes,duration_manipulation_targetAtFixation,jsons/v1_VE250_randls_5_rotated.json,http://54.235.29.9/FacialAge/BNav_EC2/DepthDuration/v2_depth_duration_MTurk/v2_DepthDuration_HTML.html#25,25,1600,789,1600,900,8-20-2022,11-1-30,58,depth_duration_stimuli/002444_2014-06-28_20-32-08_260595134347_rgbf000027-resize_0/002444_2014-06-28_20-32-08_260595134347_rgbf000027-resize_0-target.png,250,4.388999999999999,8.0,1771,249,meters,jsons/v1_VE250_randls_5_rotated.json,515518,1156638,35,Woman
58,455617,DepthScenes,duration_manipulation_targetAtFixation,jsons/v1_VE250_randls_5_rotated.json,http://54.235.29.9/FacialAge/BNav_EC2/DepthDuration/v2_depth_duration_MTurk/v2_DepthDuration_HTML.html#25,25,1600,789,1600,900,8-20-2022,11-1-30,59,depth_duration_stimuli/000436_2014-06-09_22-25-11_260595134347_rgbf000137-resize_1/000436_2014-06-09_22-25-11_260595134347_rgbf000137-resize_1-target.png,250,4.0705,9.0,1833,249,meters,jsons/v1_VE250_randls_5_rotated.json,515518,1156638,35,Woman
59,455617,DepthScenes,duration_manipulation_targetAtFixation,jsons/v1_VE250_randls_5_rotated.json,http://54.235.29.9/FacialAge/BNav_EC2/DepthDuration/v2_depth_duration_MTurk/v2_DepthDuration_HTML.html#25,25,1600,789,1600,900,8-20-2022,11-1-30,60,depth_duration_stimuli/002678_2014-06-13_16-15-32_094959634447_rgbf000151-resize_6/002678_2014-06-13_16-15-32_094959634447_rgbf000151-resize_6-target.png,250,2.1830000000000003,5.0,2667,249,meters,jsons/v1_VE250_randls_5_rotated.json,515518,1156638,35,Woman
60,455617,DepthScenes,duration_manipulation_targetAtFixation,jsons/v1_VE250_randls_5_rotated.json,http://54.235.29.9/FacialAge/BNav_EC2/DepthDuration/v2_depth_duration_MTurk/v2_DepthDuration_HTML.html#25,25,1600,789,1600,900,8-20-2022,11-1-30,61,depth_duration_stimuli/000368_2014-06-09_15-53-01_260595134347_rgbf000155-resize_2/000368_2014-06-09_15-53-01_260595134347_rgbf000155-resize_2-target.png,250,2.4859999999999998,6.0,1866,250,meters,jsons/v1_VE250_randls_5_rotated.json,515518,1156638,35,Woman
61,455617,DepthScenes,duration_manipulation_targetAtFixation,jsons/v1_VE250_randls_5_rotated.json,http://54.235.29.9/FacialAge/BNav_EC2/DepthDuration/v2_depth_duration_MTurk/v2_DepthDuration_HTML.html#25,25,1600,789,1600,900,8-20-2022,11-1-30,62,depth_duration_stimuli/002545_2014-06-24_13-38-53_094959634447_rgbf000080-resize_4/002545_2014-06-24_13-38-53_094959634447_rgbf000080-resize_4-target.png,250,1.9205,4.0,2187,250,meters,jsons/v1_VE250_randls_5_rotated.json,515518,1156638,35,Woman
62,455617,DepthScenes,duration_manipulation_targetAtFixation,jsons/v1_VE250_randls_5_rotated.json,http://54.235.29.9/FacialAge/BNav_EC2/DepthDuration/v2_depth_duration_MTurk/v2_DepthDuration_HTML.html#25,25,1600,789,1600,900,8-20-2022,11-1-30,63,depth_duration_stimuli/001092_2014-06-15_17-34-58_260595134347_rgbf000171-resize_3/001092_2014-06-15_17-34-58_260595134347_rgbf000171-resize_3-target.png,250,2.6935,5.0,1850,251,meters,jsons/v1_VE250_randls_5_rotated.json,515518,1156638,35,Woman
63,455617,DepthScenes,duration_manipulation_targetAtFixation,jsons/v1_VE250_randls_5_rotated.json,http://54.235.29.9/FacialAge/BNav_EC2/DepthDuration/v2_depth_duration_MTurk/v2_DepthDuration_HTML.html#25,25,1600,789,1600,900,8-20-2022,11-1-30,64,depth_duration_stimuli/002805_2014-06-22_19-54-03_094959634447_rgbf000079-resize_1/002805_2014-06-22_19-54-03_094959634447_rgbf000079-resize_1-target.png,250,3.1439999999999997,8.0,2314,251,meters,jsons/v1_VE250_randls_5_rotated.json,515518,1156638,35,Woman
64,455617,DepthScenes,duration_manipulation_targetAtFixation,jsons/v1_VE250_randls_5_rotated.json,http://54.235.29.9/FacialAge/BNav_EC2/DepthDuration/v2_depth_duration_MTurk/v2_DepthDuration_HTML.html#25,25,1600,789,1600,900,8-20-2022,11-1-30,65,depth_duration_stimuli/000906_2014-06-08_13-35-43_260595134347_rgbf000155-resize_1/000906_2014-06-08_13-35-43_260595134347_rgbf000155-resize_1-target.png,250,2.8489999999999998,5.0,1819,253,meters,jsons/v1_VE250_randls_5_rotated.json,515518,1156638,35,Woman
65,455617,DepthScenes,duration_manipulation_targetAtFixation,jsons/v1_VE250_randls_5_rotated.json,http://54.235.29.9/FacialAge/BNav_EC2/DepthDuration/v2_depth_duration_MTurk/v2_DepthDuration_HTML.html#25,25,1600,789,1600,900,8-20-2022,11-1-30,66,depth_duration_stimuli/001540_2014-06-20_17-01-05_260595134347_rgbf000086-resize_2/001540_2014-06-20_17-01-05_260595134347_rgbf000086-resize-original.jpg,250,1.459,4.0,2203,249,meters,jsons/v1_VE250_randls_5_rotated.json,515518,1156638,35,Woman
66,455617,DepthScenes,duration_manipulation_targetAtFixation,jsons/v1_VE250_randls_5_rotated.json,http://54.235.29.9/FacialAge/BNav_EC2/DepthDuration/v2_depth_duration_MTurk/v2_DepthDuration_HTML.html#25,25,1600,789,1600,900,8-20-2022,11-1-30,67,depth_duration_stimuli/001571_2014-06-20_17-21-32_260595134347_rgbf000089-resize_1/001571_2014-06-20_17-21-32_260595134347_rgbf000089-resize_1-target.png,250,1.86,5.0,1866,250,meters,jsons/v1_VE250_randls_5_rotated.json,515518,1156638,35,Woman
67,455617,DepthScenes,duration_manipulation_targetAtFixation,jsons/v1_VE250_randls_5_rotated.json,http://54.235.29.9/FacialAge/BNav_EC2/DepthDuration/v2_depth_duration_MTurk/v2_DepthDuration_HTML.html#25,25,1600,789,1600,900,8-20-2022,11-1-30,68,depth_duration_stimuli/002272_2014-06-28_18-53-56_260595134347_rgbf000067-resize_2/002272_2014-06-28_18-53-56_260595134347_rgbf000067-resize_2-target.png,250,1.138,6.0,2139,249,meters,jsons/v1_VE250_randls_5_rotated.json,515518,1156638,35,Woman
68,455617,DepthScenes,duration_manipulation_targetAtFixation,jsons/v1_VE250_randls_5_rotated.json,http://54.235.29.9/FacialAge/BNav_EC2/DepthDuration/v2_depth_duration_MTurk/v2_DepthDuration_HTML.html#25,25,1600,789,1600,900,8-20-2022,11-1-30,69,depth_duration_stimuli/002758_2014-06-22_19-11-20_094959634447_rgbf000128-resize_1/002758_2014-06-22_19-11-20_094959634447_rgbf000128-resize_1-target.png,250,2.555,5.0,1995,251,meters,jsons/v1_VE250_randls_5_rotated.json,515518,1156638,35,Woman
69,455617,DepthScenes,duration_manipulation_targetAtFixation,jsons/v1_VE250_randls_5_rotated.json,http://54.235.29.9/FacialAge/BNav_EC2/DepthDuration/v2_depth_duration_MTurk/v2_DepthDuration_HTML.html#25,25,1600,789,1600,900,8-20-2022,11-1-30,70,depth_duration_stimuli/002630_2014-06-24_14-47-50_094959634447_rgbf000055-resize_1/002630_2014-06-24_14-47-50_094959634447_rgbf000055-resize_1-target.png,250,3.0095,4.0,1689,249,meters,jsons/v1_VE250_randls_5_rotated.json,515518,1156638,35,Woman
70,455617,DepthScenes,duration_manipulation_targetAtFixation,jsons/v1_VE250_randls_5_rotated.json,http://54.235.29.9/FacialAge/BNav_EC2/DepthDuration/v2_depth_duration_MTurk/v2_DepthDuration_HTML.html#25,25,1600,789,1600,900,8-20-2022,11-1-30,71,depth_duration_stimuli/003081_2014-06-15_15-19-16_094959634447_rgbf000150-resize_1/003081_2014-06-15_15-19-16_094959634447_rgbf000150-resize_1-target.png,250,3.9125,8.0,1946,248,meters,jsons/v1_VE250_randls_5_rotated.json,515518,1156638,35,Woman
71,455617,DepthScenes,duration_manipulation_targetAtFixation,jsons/v1_VE250_randls_5_rotated.json,http://54.235.29.9/FacialAge/BNav_EC2/DepthDuration/v2_depth_duration_MTurk/v2_DepthDuration_HTML.html#25,25,1600,789,1600,900,8-20-2022,11-1-30,72,depth_duration_stimuli/001417_2014-06-19_16-25-36_260595134347_rgbf000115-resize_5/001417_2014-06-19_16-25-36_260595134347_rgbf000115-resize_5-target.png,250,4.6255,5.0,1850,250,meters,jsons/v1_VE250_randls_5_rotated.json,515518,1156638,35,Woman
72,455617,DepthScenes,duration_manipulation_targetAtFixation,jsons/v1_VE250_randls_5_rotated.json,http://54.235.29.9/FacialAge/BNav_EC2/DepthDuration/v2_depth_duration_MTurk/v2_DepthDuration_HTML.html#25,25,1600,789,1600,900,8-20-2022,11-1-30,73,depth_duration_stimuli/002467_2014-06-28_20-38-07_260595134347_rgbf000026-resize_2/002467_2014-06-28_20-38-07_260595134347_rgbf000026-resize_2-target.png,250,4.742,5.0,4234,250,meters,jsons/v1_VE250_randls_5_rotated.json,515518,1156638,35,Woman
73,455617,DepthScenes,duration_manipulation_targetAtFixation,jsons/v1_VE250_randls_5_rotated.json,http://54.235.29.9/FacialAge/BNav_EC2/DepthDuration/v2_depth_duration_MTurk/v2_DepthDuration_HTML.html#25,25,1600,789,1600,900,8-20-2022,11-1-30,74,depth_duration_stimuli/002570_2014-06-24_13-59-54_094959634447_rgbf000059-resize_0/002570_2014-06-24_13-59-54_094959634447_rgbf000059-resize_0-target.png,250,4.037,5.0,7386,250,meters,jsons/v1_VE250_randls_5_rotated.json,515518,1156638,35,Woman
74,455617,DepthScenes,duration_manipulation_targetAtFixation,jsons/v1_VE250_randls_5_rotated.json,http://54.235.29.9/FacialAge/BNav_EC2/DepthDuration/v2_depth_duration_MTurk/v2_DepthDuration_HTML.html#25,25,1600,789,1600,900,8-20-2022,11-1-30,75,depth_duration_stimuli/000457_2014-06-08_16-52-43_260595134347_rgbf000199-resize_1/000457_2014-06-08_16-52-43_260595134347_rgbf000199-resize_1-target.png,250,3.6489999999999996,4.0,2270,249,meters,jsons/v1_VE250_randls_5_rotated.json,515518,1156638,35,Woman
75,455617,DepthScenes,duration_manipulation_targetAtFixation,jsons/v1_VE250_randls_5_rotated.json,http://54.235.29.9/FacialAge/BNav_EC2/DepthDuration/v2_depth_duration_MTurk/v2_DepthDuration_HTML.html#25,25,1600,789,1600,900,8-20-2022,11-1-30,76,depth_duration_stimuli/000929_2014-06-09_16-33-19_260595134347_rgbf000139-resize_0/000929_2014-06-09_16-33-19_260595134347_rgbf000139-resize_0-target.png,250,2.8680000000000003,6.0,1812,250,meters,jsons/v1_VE250_randls_5_rotated.json,515518,1156638,35,Woman
76,455617,DepthScenes,duration_manipulation_targetAtFixation,jsons/v1_VE250_randls_5_rotated.json,http://54.235.29.9/FacialAge/BNav_EC2/DepthDuration/v2_depth_duration_MTurk/v2_DepthDuration_HTML.html#25,25,1600,789,1600,900,8-20-2022,11-1-30,77,depth_duration_stimuli/002639_2014-06-24_14-51-37_094959634447_rgbf000074-resize_4/002639_2014-06-24_14-51-37_094959634447_rgbf000074-resize_4-target.png,250,4.0375,8.0,1833,250,meters,jsons/v1_VE250_randls_5_rotated.json,515518,1156638,35,Woman
77,455617,DepthScenes,duration_manipulation_targetAtFixation,jsons/v1_VE250_randls_5_rotated.json,http://54.235.29.9/FacialAge/BNav_EC2/DepthDuration/v2_depth_duration_MTurk/v2_DepthDuration_HTML.html#25,25,1600,789,1600,900,8-20-2022,11-1-30,78,depth_duration_stimuli/003292_2014-05-14_21-53-49_094959634447_rgbf000100-resize_2/003292_2014-05-14_21-53-49_094959634447_rgbf000100-resize_2-target.png,250,3.4815,5.0,1628,250,meters,jsons/v1_VE250_randls_5_rotated.json,515518,1156638,35,Woman
78,455617,DepthScenes,duration_manipulation_targetAtFixation,jsons/v1_VE250_randls_5_rotated.json,http://54.235.29.9/FacialAge/BNav_EC2/DepthDuration/v2_depth_duration_MTurk/v2_DepthDuration_HTML.html#25,25,1600,789,1600,900,8-20-2022,11-1-30,79,depth_duration_stimuli/002637_2014-06-24_14-51-13_094959634447_rgbf000066-resize_4/002637_2014-06-24_14-51-13_094959634447_rgbf000066-resize_4-target.png,250,1.9955,6.0,1819,249,meters,jsons/v1_VE250_randls_5_rotated.json,515518,1156638,35,Woman
79,455617,DepthScenes,duration_manipulation_targetAtFixation,jsons/v1_VE250_randls_5_rotated.json,http://54.235.29.9/FacialAge/BNav_EC2/DepthDuration/v2_depth_duration_MTurk/v2_DepthDuration_HTML.html#25,25,1600,789,1600,900,8-20-2022,11-1-30,80,depth_duration_stimuli/003534_2014-05-22_15-06-10_094959634447_rgbf000102-resize_4/003534_2014-05-22_15-06-10_094959634447_rgbf000102-resize_4-target.png,250,1.426,4.0,1738,252,meters,jsons/v1_VE250_randls_5_rotated.json,515518,1156638,35,Woman
80,455617,DepthScenes,duration_manipulation_targetAtFixation,jsons/v1_VE250_randls_5_rotated.json,http://54.235.29.9/FacialAge/BNav_EC2/DepthDuration/v2_depth_duration_MTurk/v2_DepthDuration_HTML.html#25,25,1600,789,1600,900,8-20-2022,11-1-30,81,depth_duration_stimuli/000137_2014-05-20_17-04-49_260595134347_rgbf000120-resize_1/000137_2014-05-20_17-04-49_260595134347_rgbf000120-resize_1-target.png,250,3.786,9.0,1690,249,meters,jsons/v1_VE250_randls_5_rotated.json,515518,1156638,35,Woman
81,455617,DepthScenes,duration_manipulation_targetAtFixation,jsons/v1_VE250_randls_5_rotated.json,http://54.235.29.9/FacialAge/BNav_EC2/DepthDuration/v2_depth_duration_MTurk/v2_DepthDuration_HTML.html#25,25,1600,789,1600,900,8-20-2022,11-1-30,82,depth_duration_stimuli/000736_2014-06-08_18-24-15_260595134347_rgbf000206-resize_3/000736_2014-06-08_18-24-15_260595134347_rgbf000206-resize_3-target.png,250,3.515,5.0,1434,249,meters,jsons/v1_VE250_randls_5_rotated.json,515518,1156638,35,Woman
82,455617,DepthScenes,duration_manipulation_targetAtFixation,jsons/v1_VE250_randls_5_rotated.json,http://54.235.29.9/FacialAge/BNav_EC2/DepthDuration/v2_depth_duration_MTurk/v2_DepthDuration_HTML.html#25,25,1600,789,1600,900,8-20-2022,11-1-30,83,depth_duration_stimuli/002199_2014-06-28_18-33-56_260595134347_rgbf000074-resize_0/002199_2014-06-28_18-33-56_260595134347_rgbf000074-resize_0-target.png,250,1.996,1.0,2138,250,meters,jsons/v1_VE250_randls_5_rotated.json,515518,1156638,35,Woman
83,455617,DepthScenes,duration_manipulation_targetAtFixation,jsons/v1_VE250_randls_5_rotated.json,http://54.235.29.9/FacialAge/BNav_EC2/DepthDuration/v2_depth_duration_MTurk/v2_DepthDuration_HTML.html#25,25,1600,789,1600,900,8-20-2022,11-1-30,84,depth_duration_stimuli/001056_2014-06-08_18-46-44_260595134347_rgbf000068-resize_0/001056_2014-06-08_18-46-44_260595134347_rgbf000068-resize_0-target.png,250,2.6625,5.0,1835,254,meters,jsons/v1_VE250_randls_5_rotated.json,515518,1156638,35,Woman
84,455617,DepthScenes,duration_manipulation_targetAtFixation,jsons/v1_VE250_randls_5_rotated.json,http://54.235.29.9/FacialAge/BNav_EC2/DepthDuration/v2_depth_duration_MTurk/v2_DepthDuration_HTML.html#25,25,1600,789,1600,900,8-20-2022,11-1-30,85,depth_duration_stimuli/001032_2014-06-08_13-23-17_260595134347_rgbf000021-resize_3/001032_2014-06-08_13-23-17_260595134347_rgbf000021-resize_3-target.png,250,3.2725,4.0,1626,250,meters,jsons/v1_VE250_randls_5_rotated.json,515518,1156638,35,Woman
85,455617,DepthScenes,duration_manipulation_targetAtFixation,jsons/v1_VE250_randls_5_rotated.json,http://54.235.29.9/FacialAge/BNav_EC2/DepthDuration/v2_depth_duration_MTurk/v2_DepthDuration_HTML.html#25,25,1600,789,1600,900,8-20-2022,11-1-30,86,depth_duration_stimuli/001059_2014-06-08_21-53-27_260595134347_rgbf000061-resize_4/001059_2014-06-08_21-53-27_260595134347_rgbf000061-resize_4-target.png,250,2.4185,7.0,1865,250,meters,jsons/v1_VE250_randls_5_rotated.json,515518,1156638,35,Woman
86,455617,DepthScenes,duration_manipulation_targetAtFixation,jsons/v1_VE250_randls_5_rotated.json,http://54.235.29.9/FacialAge/BNav_EC2/DepthDuration/v2_depth_duration_MTurk/v2_DepthDuration_HTML.html#25,25,1600,789,1600,900,8-20-2022,11-1-30,87,depth_duration_stimuli/001815_2014-06-26_20-52-55_260595134347_rgbf000020-resize_0/001815_2014-06-26_20-52-55_260595134347_rgbf000020-resize_0-target.png,250,3.3865,8.0,1803,250,meters,jsons/v1_VE250_randls_5_rotated.json,515518,1156638,35,Woman
87,455617,DepthScenes,duration_manipulation_targetAtFixation,jsons/v1_VE250_randls_5_rotated.json,http://54.235.29.9/FacialAge/BNav_EC2/DepthDuration/v2_depth_duration_MTurk/v2_DepthDuration_HTML.html#25,25,1600,789,1600,900,8-20-2022,11-1-30,88,depth_duration_stimuli/001808_2014-06-26_20-50-58_260595134347_rgbf000029-resize_1/001808_2014-06-26_20-50-58_260595134347_rgbf000029-resize_1-target.png,250,4.249,5.0,1530,250,meters,jsons/v1_VE250_randls_5_rotated.json,515518,1156638,35,Woman
88,455617,DepthScenes,duration_manipulation_targetAtFixation,jsons/v1_VE250_randls_5_rotated.json,http://54.235.29.9/FacialAge/BNav_EC2/DepthDuration/v2_depth_duration_MTurk/v2_DepthDuration_HTML.html#25,25,1600,789,1600,900,8-20-2022,11-1-30,89,depth_duration_stimuli/002136_2014-06-25_21-18-03_260595134347_rgbf000109-resize_3/002136_2014-06-25_21-18-03_260595134347_rgbf000109-resize_3-target.png,250,1.9569999999999999,4.0,1563,249,meters,jsons/v1_VE250_randls_5_rotated.json,515518,1156638,35,Woman
89,455617,DepthScenes,duration_manipulation_targetAtFixation,jsons/v1_VE250_randls_5_rotated.json,http://54.235.29.9/FacialAge/BNav_EC2/DepthDuration/v2_depth_duration_MTurk/v2_DepthDuration_HTML.html#25,25,1600,789,1600,900,8-20-2022,11-1-30,90,depth_duration_stimuli/002964_2014-06-08_17-46-11_094959634447_rgbf000091-resize_4/002964_2014-06-08_17-46-11_094959634447_rgbf000091-resize_4-target.png,250,1.6909999999999998,2.0,1945,248,meters,jsons/v1_VE250_randls_5_rotated.json,515518,1156638,35,Woman
90,455617,DepthScenes,duration_manipulation_targetAtFixation,jsons/v1_VE250_randls_5_rotated.json,http://54.235.29.9/FacialAge/BNav_EC2/DepthDuration/v2_depth_duration_MTurk/v2_DepthDuration_HTML.html#25,25,1600,789,1600,900,8-20-2022,11-1-30,91,depth_duration_stimuli/000691_2014-06-08_13-08-50_260595134347_rgbf000132-resize_3/000691_2014-06-08_13-08-50_260595134347_rgbf000132-resize_3-target.png,250,4.1530000000000005,5.0,1769,250,meters,jsons/v1_VE250_randls_5_rotated.json,515518,1156638,35,Woman
91,455617,DepthScenes,duration_manipulation_targetAtFixation,jsons/v1_VE250_randls_5_rotated.json,http://54.235.29.9/FacialAge/BNav_EC2/DepthDuration/v2_depth_duration_MTurk/v2_DepthDuration_HTML.html#25,25,1600,789,1600,900,8-20-2022,11-1-30,92,depth_duration_stimuli/002213_2014-06-28_18-37-58_260595134347_rgbf000055-resize_1/002213_2014-06-28_18-37-58_260595134347_rgbf000055-resize_1-target.png,250,3.62,9.0,1659,249,meters,jsons/v1_VE250_randls_5_rotated.json,515518,1156638,35,Woman
92,455617,DepthScenes,duration_manipulation_targetAtFixation,jsons/v1_VE250_randls_5_rotated.json,http://54.235.29.9/FacialAge/BNav_EC2/DepthDuration/v2_depth_duration_MTurk/v2_DepthDuration_HTML.html#25,25,1600,789,1600,900,8-20-2022,11-1-30,93,depth_duration_stimuli/002344_2014-06-28_20-06-29_260595134347_rgbf000030-resize_1/002344_2014-06-28_20-06-29_260595134347_rgbf000030-resize_1-target.png,250,1.5795,2.0,2062,250,meters,jsons/v1_VE250_randls_5_rotated.json,515518,1156638,35,Woman
93,455617,DepthScenes,duration_manipulation_targetAtFixation,jsons/v1_VE250_randls_5_rotated.json,http://54.235.29.9/FacialAge/BNav_EC2/DepthDuration/v2_depth_duration_MTurk/v2_DepthDuration_HTML.html#25,25,1600,789,1600,900,8-20-2022,11-1-30,94,depth_duration_stimuli/002725_2014-06-22_11-47-51_094959634447_rgbf000070-resize_1/002725_2014-06-22_11-47-51_094959634447_rgbf000070-resize_1-target.png,250,2.195,5.0,1865,249,meters,jsons/v1_VE250_randls_5_rotated.json,515518,1156638,35,Woman
94,455617,DepthScenes,duration_manipulation_targetAtFixation,jsons/v1_VE250_randls_5_rotated.json,http://54.235.29.9/FacialAge/BNav_EC2/DepthDuration/v2_depth_duration_MTurk/v2_DepthDuration_HTML.html#25,25,1600,789,1600,900,8-20-2022,11-1-30,95,depth_duration_stimuli/002660_2014-06-13_15-44-18_094959634447_rgbf001878-resize_2/002660_2014-06-13_15-44-18_094959634447_rgbf001878-resize_2-target.png,250,3.576,4.0,2028,250,meters,jsons/v1_VE250_randls_5_rotated.json,515518,1156638,35,Woman
95,455617,DepthScenes,duration_manipulation_targetAtFixation,jsons/v1_VE250_randls_5_rotated.json,http://54.235.29.9/FacialAge/BNav_EC2/DepthDuration/v2_depth_duration_MTurk/v2_DepthDuration_HTML.html#25,25,1600,789,1600,900,8-20-2022,11-1-30,96,depth_duration_stimuli/002153_2014-06-25_21-27-18_260595134347_rgbf000038-resize_5/002153_2014-06-25_21-27-18_260595134347_rgbf000038-resize_5-target.png,250,2.505,5.0,2201,254,meters,jsons/v1_VE250_randls_5_rotated.json,515518,1156638,35,Woman
96,455617,DepthScenes,duration_manipulation_targetAtFixation,jsons/v1_VE250_randls_5_rotated.json,http://54.235.29.9/FacialAge/BNav_EC2/DepthDuration/v2_depth_duration_MTurk/v2_DepthDuration_HTML.html#25,25,1600,789,1600,900,8-20-2022,11-1-30,97,depth_duration_stimuli/000854_2014-06-09_19-43-13_260595134347_rgbf000066-resize_0/000854_2014-06-09_19-43-13_260595134347_rgbf000066-resize_0-target.png,250,3.068,4.0,1880,246,meters,jsons/v1_VE250_randls_5_rotated.json,515518,1156638,35,Woman
97,455617,DepthScenes,duration_manipulation_targetAtFixation,jsons/v1_VE250_randls_5_rotated.json,http://54.235.29.9/FacialAge/BNav_EC2/DepthDuration/v2_depth_duration_MTurk/v2_DepthDuration_HTML.html#25,25,1600,789,1600,900,8-20-2022,11-1-30,98,depth_duration_stimuli/000758_2014-06-08_22-05-08_260595134347_rgbf000085-resize_0/000758_2014-06-08_22-05-08_260595134347_rgbf000085-resize_0-target.png,250,3.3810000000000002,5.0,2186,257,meters,jsons/v1_VE250_randls_5_rotated.json,515518,1156638,35,Woman
98,455617,DepthScenes,duration_manipulation_targetAtFixation,jsons/v1_VE250_randls_5_rotated.json,http://54.235.29.9/FacialAge/BNav_EC2/DepthDuration/v2_depth_duration_MTurk/v2_DepthDuration_HTML.html#25,25,1600,789,1600,900,8-20-2022,11-1-30,99,depth_duration_stimuli/001222_2014-06-17_16-24-06_260595134347_rgbf000073-resize_0/001222_2014-06-17_16-24-06_260595134347_rgbf000073-resize-original.jpg,250,1.4385,0.0,2443,250,meters,jsons/v1_VE250_randls_5_rotated.json,515518,1156638,35,Woman
99,455617,DepthScenes,duration_manipulation_targetAtFixation,jsons/v1_VE250_randls_5_rotated.json,http://54.235.29.9/FacialAge/BNav_EC2/DepthDuration/v2_depth_duration_MTurk/v2_DepthDuration_HTML.html#25,25,1600,789,1600,900,8-20-2022,11-1-30,100,depth_duration_stimuli/001450_2014-06-19_17-02-03_260595134347_rgbf000203-resize_4/001450_2014-06-19_17-02-03_260595134347_rgbf000203-resize_4-target.png,250,4.0106666666667,5.0,2155,250,meters,jsons/v1_VE250_randls_5_rotated.json,515518,1156638,35,Woman
100,455617,DepthScenes,duration_manipulation_targetAtFixation,jsons/v1_VE250_randls_5_rotated.json,http://54.235.29.9/FacialAge/BNav_EC2/DepthDuration/v2_depth_duration_MTurk/v2_DepthDuration_HTML.html#25,25,1600,789,1600,900,8-20-2022,11-1-30,101,depth_duration_stimuli/001449_2014-06-19_17-01-27_260595134347_rgbf000116-resize_2/001449_2014-06-19_17-01-27_260595134347_rgbf000116-resize_2-target.png,250,3.452,4.0,10058,249,meters,jsons/v1_VE250_randls_5_rotated.json,515518,1156638,35,Woman
101,455617,DepthScenes,duration_manipulation_targetAtFixation,jsons/v1_VE250_randls_5_rotated.json,http://54.235.29.9/FacialAge/BNav_EC2/DepthDuration/v2_depth_duration_MTurk/v2_DepthDuration_HTML.html#25,25,1600,789,1600,900,8-20-2022,11-1-30,102,depth_duration_stimuli/001214_2014-06-17_16-13-55_260595134347_rgbf000111-resize_0/001214_2014-06-17_16-13-55_260595134347_rgbf000111-resize_0-target.png,250,2.6505,2.0,2121,250,meters,jsons/v1_VE250_randls_5_rotated.json,515518,1156638,35,Woman
102,455617,DepthScenes,duration_manipulation_targetAtFixation,jsons/v1_VE250_randls_5_rotated.json,http://54.235.29.9/FacialAge/BNav_EC2/DepthDuration/v2_depth_duration_MTurk/v2_DepthDuration_HTML.html#25,25,1600,789,1600,900,8-20-2022,11-1-30,103,depth_duration_stimuli/000810_2014-06-08_17-20-01_260595134347_rgbf000105-resize_0/000810_2014-06-08_17-20-01_260595134347_rgbf000105-resize_0-target.png,250,1.4865,5.0,1914,250,meters,jsons/v1_VE250_randls_5_rotated.json,515518,1156638,35,Woman
103,455617,DepthScenes,duration_manipulation_targetAtFixation,jsons/v1_VE250_randls_5_rotated.json,http://54.235.29.9/FacialAge/BNav_EC2/DepthDuration/v2_depth_duration_MTurk/v2_DepthDuration_HTML.html#25,25,1600,789,1600,900,8-20-2022,11-1-30,104,depth_duration_stimuli/001447_2014-06-19_17-00-32_260595134347_rgbf000082-resize_5/001447_2014-06-19_17-00-32_260595134347_rgbf000082-resize_5-target.png,250,4.13775,6.0,2170,249,meters,jsons/v1_VE250_randls_5_rotated.json,515518,1156638,35,Woman
104,455617,DepthScenes,duration_manipulation_targetAtFixation,jsons/v1_VE250_randls_5_rotated.json,http://54.235.29.9/FacialAge/BNav_EC2/DepthDuration/v2_depth_duration_MTurk/v2_DepthDuration_HTML.html#25,25,1600,789,1600,900,8-20-2022,11-1-30,105,depth_duration_stimuli/000447_2014-06-08_16-15-46_260595134347_rgbf000130-resize_1/000447_2014-06-08_16-15-46_260595134347_rgbf000130-resize_1-target.png,250,4.479,5.0,1771,249,meters,jsons/v1_VE250_randls_5_rotated.json,515518,1156638,35,Woman
105,455617,DepthScenes,duration_manipulation_targetAtFixation,jsons/v1_VE250_randls_5_rotated.json,http://54.235.29.9/FacialAge/BNav_EC2/DepthDuration/v2_depth_duration_MTurk/v2_DepthDuration_HTML.html#25,25,1600,789,1600,900,8-20-2022,11-1-30,106,depth_duration_stimuli/000635_2014-06-08_16-38-42_260595134347_rgbf000106-resize_1/000635_2014-06-08_16-38-42_260595134347_rgbf000106-resize_1-target.png,250,2.074,8.0,1688,248,meters,jsons/v1_VE250_randls_5_rotated.json,515518,1156638,35,Woman
106,455617,DepthScenes,duration_manipulation_targetAtFixation,jsons/v1_VE250_randls_5_rotated.json,http://54.235.29.9/FacialAge/BNav_EC2/DepthDuration/v2_depth_duration_MTurk/v2_DepthDuration_HTML.html#25,25,1600,789,1600,900,8-20-2022,11-1-30,107,depth_duration_stimuli/002279_2014-06-28_18-55-32_260595134347_rgbf000040-resize_5/002279_2014-06-28_18-55-32_260595134347_rgbf000040-resize_5-target.png,250,1.5043333333333,4.0,1835,249,meters,jsons/v1_VE250_randls_5_rotated.json,515518,1156638,35,Woman
107,455617,DepthScenes,duration_manipulation_targetAtFixation,jsons/v1_VE250_randls_5_rotated.json,http://54.235.29.9/FacialAge/BNav_EC2/DepthDuration/v2_depth_duration_MTurk/v2_DepthDuration_HTML.html#25,25,1600,789,1600,900,8-20-2022,11-1-30,108,depth_duration_stimuli/000502_2014-06-08_23-02-32_260595134347_rgbf000063-resize_4/000502_2014-06-08_23-02-32_260595134347_rgbf000063-resize_4-target.png,250,2.431,5.0,1978,251,meters,jsons/v1_VE250_randls_5_rotated.json,515518,1156638,35,Woman
108,455617,DepthScenes,duration_manipulation_targetAtFixation,jsons/v1_VE250_randls_5_rotated.json,http://54.235.29.9/FacialAge/BNav_EC2/DepthDuration/v2_depth_duration_MTurk/v2_DepthDuration_HTML.html#25,25,1600,789,1600,900,8-20-2022,11-1-30,109,depth_duration_stimuli/001199_2014-06-17_16-03-48_260595134347_rgbf000077-resize_0/001199_2014-06-17_16-03-48_260595134347_rgbf000077-resize_0-target.png,250,3.4375,6.0,1932,249,meters,jsons/v1_VE250_randls_5_rotated.json,515518,1156638,35,Woman
109,455617,DepthScenes,duration_manipulation_targetAtFixation,jsons/v1_VE250_randls_5_rotated.json,http://54.235.29.9/FacialAge/BNav_EC2/DepthDuration/v2_depth_duration_MTurk/v2_DepthDuration_HTML.html#25,25,1600,789,1600,900,8-20-2022,11-1-30,110,depth_duration_stimuli/001392_2014-06-19_16-07-59_260595134347_rgbf000046-resize_1/001392_2014-06-19_16-07-59_260595134347_rgbf000046-resize_1-target.png,250,4.135,5.0,1736,248,meters,jsons/v1_VE250_randls_5_rotated.json,515518,1156638,35,Woman
110,455617,DepthScenes,duration_manipulation_targetAtFixation,jsons/v1_VE250_randls_5_rotated.json,http://54.235.29.9/FacialAge/BNav_EC2/DepthDuration/v2_depth_duration_MTurk/v2_DepthDuration_HTML.html#25,25,1600,789,1600,900,8-20-2022,11-1-30,111,depth_duration_stimuli/001570_2014-06-20_17-21-09_260595134347_rgbf000135-resize_4/001570_2014-06-20_17-21-09_260595134347_rgbf000135-resize_4-target.png,250,4.467,8.0,2188,249,meters,jsons/v1_VE250_randls_5_rotated.json,515518,1156638,35,Woman
111,455617,DepthScenes,duration_manipulation_targetAtFixation,jsons/v1_VE250_randls_5_rotated.json,http://54.235.29.9/FacialAge/BNav_EC2/DepthDuration/v2_depth_duration_MTurk/v2_DepthDuration_HTML.html#25,25,1600,789,1600,900,8-20-2022,11-1-30,112,depth_duration_stimuli/003083_2014-06-15_15-21-03_094959634447_rgbf000063-resize_1/003083_2014-06-15_15-21-03_094959634447_rgbf000063-resize_1-target.png,250,4.1405,9.0,1751,251,meters,jsons/v1_VE250_randls_5_rotated.json,515518,1156638,35,Woman
112,455617,DepthScenes,duration_manipulation_targetAtFixation,jsons/v1_VE250_randls_5_rotated.json,http://54.235.29.9/FacialAge/BNav_EC2/DepthDuration/v2_depth_duration_MTurk/v2_DepthDuration_HTML.html#25,25,1600,789,1600,900,8-20-2022,11-1-30,113,depth_duration_stimuli/000486_2014-06-09_20-47-20_260595134347_rgbf000143-resize_2/000486_2014-06-09_20-47-20_260595134347_rgbf000143-resize_2-target.png,250,4.8325,8.0,1723,249,meters,jsons/v1_VE250_randls_5_rotated.json,515518,1156638,35,Woman
113,455617,DepthScenes,duration_manipulation_targetAtFixation,jsons/v1_VE250_randls_5_rotated.json,http://54.235.29.9/FacialAge/BNav_EC2/DepthDuration/v2_depth_duration_MTurk/v2_DepthDuration_HTML.html#25,25,1600,789,1600,900,8-20-2022,11-1-30,114,depth_duration_stimuli/003490_2014-05-21_15-50-11_094959634447_rgbf000101-resize_3/003490_2014-05-21_15-50-11_094959634447_rgbf000101-resize_3-target.png,250,3.6445,5.0,1836,250,meters,jsons/v1_VE250_randls_5_rotated.json,515518,1156638,35,Woman
114,455617,DepthScenes,duration_manipulation_targetAtFixation,jsons/v1_VE250_randls_5_rotated.json,http://54.235.29.9/FacialAge/BNav_EC2/DepthDuration/v2_depth_duration_MTurk/v2_DepthDuration_HTML.html#25,25,1600,789,1600,900,8-20-2022,11-1-30,115,depth_duration_stimuli/001175_2014-06-17_15-45-55_260595134347_rgbf000129-resize_4/001175_2014-06-17_15-45-55_260595134347_rgbf000129-resize_4-target.png,250,4.255,6.0,1773,249,meters,jsons/v1_VE250_randls_5_rotated.json,515518,1156638,35,Woman
115,455617,DepthScenes,duration_manipulation_targetAtFixation,jsons/v1_VE250_randls_5_rotated.json,http://54.235.29.9/FacialAge/BNav_EC2/DepthDuration/v2_depth_duration_MTurk/v2_DepthDuration_HTML.html#25,25,1600,789,1600,900,8-20-2022,11-1-30,116,depth_duration_stimuli/000556_2014-06-09_22-42-56_260595134347_rgbf000214-resize_1/000556_2014-06-09_22-42-56_260595134347_rgbf000214-resize_1-target.png,250,4.8415,4.0,1639,251,meters,jsons/v1_VE250_randls_5_rotated.json,515518,1156638,35,Woman
116,455617,DepthScenes,duration_manipulation_targetAtFixation,jsons/v1_VE250_randls_5_rotated.json,http://54.235.29.9/FacialAge/BNav_EC2/DepthDuration/v2_depth_duration_MTurk/v2_DepthDuration_HTML.html#25,25,1600,789,1600,900,8-20-2022,11-1-30,117,depth_duration_stimuli/001158_2014-06-17_15-32-16_260595134347_rgbf000138-resize_2/001158_2014-06-17_15-32-16_260595134347_rgbf000138-resize_2-target.png,250,4.5315,8.0,1737,249,meters,jsons/v1_VE250_randls_5_rotated.json,515518,1156638,35,Woman
117,455617,DepthScenes,duration_manipulation_targetAtFixation,jsons/v1_VE250_randls_5_rotated.json,http://54.235.29.9/FacialAge/BNav_EC2/DepthDuration/v2_depth_duration_MTurk/v2_DepthDuration_HTML.html#25,25,1600,789,1600,900,8-20-2022,11-1-30,118,depth_duration_stimuli/001617_2014-06-20_11-35-32_260595134347_rgbf000066-resize_1/001617_2014-06-20_11-35-32_260595134347_rgbf000066-resize_1-target.png,250,3.7910000000000004,5.0,1659,249,meters,jsons/v1_VE250_randls_5_rotated.json,515518,1156638,35,Woman
118,455617,DepthScenes,duration_manipulation_targetAtFixation,jsons/v1_VE250_randls_5_rotated.json,http://54.235.29.9/FacialAge/BNav_EC2/DepthDuration/v2_depth_duration_MTurk/v2_DepthDuration_HTML.html#25,25,1600,789,1600,900,8-20-2022,11-1-30,119,depth_duration_stimuli/001806_2014-06-26_20-50-20_260595134347_rgbf000091-resize_1/001806_2014-06-26_20-50-20_260595134347_rgbf000091-resize_1-target.png,250,2.7305,5.0,2185,250,meters,jsons/v1_VE250_randls_5_rotated.json,515518,1156638,35,Woman
119,455617,DepthScenes,duration_manipulation_targetAtFixation,jsons/v1_VE250_randls_5_rotated.json,http://54.235.29.9/FacialAge/BNav_EC2/DepthDuration/v2_depth_duration_MTurk/v2_DepthDuration_HTML.html#25,25,1600,789,1600,900,8-20-2022,11-1-30,120,depth_duration_stimuli/000787_2014-06-08_22-33-53_260595134347_rgbf000175-resize_1/000787_2014-06-08_22-33-53_260595134347_rgbf000175-resize-original.jpg,250,4.784,0.0,2027,250,meters,jsons/v1_VE250_randls_5_rotated.json,515518,1156638,35,Woman
120,455617,DepthScenes,duration_manipulation_targetAtFixation,jsons/v1_VE250_randls_5_rotated.json,http://54.235.29.9/FacialAge/BNav_EC2/DepthDuration/v2_depth_duration_MTurk/v2_DepthDuration_HTML.html#25,25,1600,789,1600,900,8-20-2022,11-1-30,121,depth_duration_stimuli/001650_2014-06-20_12-09-00_260595134347_rgbf000087-resize_3/001650_2014-06-20_12-09-00_260595134347_rgbf000087-resize_3-target.png,250,1.9505,6.0,2443,250,meters,jsons/v1_VE250_randls_5_rotated.json,515518,1156638,35,Woman
121,455617,DepthScenes,duration_manipulation_targetAtFixation,jsons/v1_VE250_randls_5_rotated.json,http://54.235.29.9/FacialAge/BNav_EC2/DepthDuration/v2_depth_duration_MTurk/v2_DepthDuration_HTML.html#25,25,1600,789,1600,900,8-20-2022,11-1-30,122,depth_duration_stimuli/000682_2014-06-08_23-14-58_260595134347_rgbf000041-resize_5/000682_2014-06-08_23-14-58_260595134347_rgbf000041-resize_5-target.png,250,2.7239999999999998,5.0,1945,249,meters,jsons/v1_VE250_randls_5_rotated.json,515518,1156638,35,Woman
122,455617,DepthScenes,duration_manipulation_targetAtFixation,jsons/v1_VE250_randls_5_rotated.json,http://54.235.29.9/FacialAge/BNav_EC2/DepthDuration/v2_depth_duration_MTurk/v2_DepthDuration_HTML.html#25,25,1600,789,1600,900,8-20-2022,11-1-30,123,depth_duration_stimuli/001132_2014-06-17_14-48-54_260595134347_rgbf000100-resize_2/001132_2014-06-17_14-48-54_260595134347_rgbf000100-resize_2-target.png,250,3.753,9.0,1899,257,meters,jsons/v1_VE250_randls_5_rotated.json,515518,1156638,35,Woman
123,455617,DepthScenes,duration_manipulation_targetAtFixation,jsons/v1_VE250_randls_5_rotated.json,http://54.235.29.9/FacialAge/BNav_EC2/DepthDuration/v2_depth_duration_MTurk/v2_DepthDuration_HTML.html#25,25,1600,789,1600,900,8-20-2022,11-1-30,124,depth_duration_stimuli/001133_2014-06-17_14-49-16_260595134347_rgbf000100-resize_0/001133_2014-06-17_14-49-16_260595134347_rgbf000100-resize_0-target.png,250,4.2115,8.0,1690,250,meters,jsons/v1_VE250_randls_5_rotated.json,515518,1156638,35,Woman
124,455617,DepthScenes,duration_manipulation_targetAtFixation,jsons/v1_VE250_randls_5_rotated.json,http://54.235.29.9/FacialAge/BNav_EC2/DepthDuration/v2_depth_duration_MTurk/v2_DepthDuration_HTML.html#25,25,1600,789,1600,900,8-20-2022,11-1-30,125,depth_duration_stimuli/001584_2014-06-20_11-07-43_260595134347_rgbf000002-resize_1/001584_2014-06-20_11-07-43_260595134347_rgbf000002-resize_1-target.png,250,3.53,7.0,1704,248,meters,jsons/v1_VE250_randls_5_rotated.json,515518,1156638,35,Woman
125,455617,DepthScenes,duration_manipulation_targetAtFixation,jsons/v1_VE250_randls_5_rotated.json,http://54.235.29.9/FacialAge/BNav_EC2/DepthDuration/v2_depth_duration_MTurk/v2_DepthDuration_HTML.html#25,25,1600,789,1600,900,8-20-2022,11-1-30,126,depth_duration_stimuli/003621_2014-05-23_18-06-08_094959634447_rgbf000101-resize_1/003621_2014-05-23_18-06-08_094959634447_rgbf000101-resize_1-target.png,250,3.9835,6.0,1722,249,meters,jsons/v1_VE250_randls_5_rotated.json,515518,1156638,35,Woman
126,455617,DepthScenes,duration_manipulation_targetAtFixation,jsons/v1_VE250_randls_5_rotated.json,http://54.235.29.9/FacialAge/BNav_EC2/DepthDuration/v2_depth_duration_MTurk/v2_DepthDuration_HTML.html#25,25,1600,789,1600,900,8-20-2022,11-1-30,127,depth_duration_stimuli/002340_2014-06-28_20-05-46_260595134347_rgbf000113-resize_0/002340_2014-06-28_20-05-46_260595134347_rgbf000113-resize_0-target.png,250,2.4735,5.0,1501,249,meters,jsons/v1_VE250_randls_5_rotated.json,515518,1156638,35,Woman
127,455617,DepthScenes,duration_manipulation_targetAtFixation,jsons/v1_VE250_randls_5_rotated.json,http://54.235.29.9/FacialAge/BNav_EC2/DepthDuration/v2_depth_duration_MTurk/v2_DepthDuration_HTML.html#25,25,1600,789,1600,900,8-20-2022,11-1-30,128,depth_duration_stimuli/001016_2014-06-09_16-16-10_260595134347_rgbf000112-resize_5/001016_2014-06-09_16-16-10_260595134347_rgbf000112-resize_5-target.png,250,1.6565,4.0,1753,250,meters,jsons/v1_VE250_randls_5_rotated.json,515518,1156638,35,Woman
128,455617,DepthScenes,duration_manipulation_targetAtFixation,jsons/v1_VE250_randls_5_rotated.json,http://54.235.29.9/FacialAge/BNav_EC2/DepthDuration/v2_depth_duration_MTurk/v2_DepthDuration_HTML.html#25,25,1600,789,1600,900,8-20-2022,11-1-30,129,depth_duration_stimuli/003010_2014-06-15_12-54-35_094959634447_rgbf000112-resize_0/003010_2014-06-15_12-54-35_094959634447_rgbf000112-resize_0-target.png,250,3.1185,3.0,1738,250,meters,jsons/v1_VE250_randls_5_rotated.json,515518,1156638,35,Woman
129,455617,DepthScenes,duration_manipulation_targetAtFixation,jsons/v1_VE250_randls_5_rotated.json,http://54.235.29.9/FacialAge/BNav_EC2/DepthDuration/v2_depth_duration_MTurk/v2_DepthDuration_HTML.html#25,25,1600,789,1600,900,8-20-2022,11-1-30,130,depth_duration_stimuli/001810_2014-06-26_20-51-35_260595134347_rgbf000040-resize_3/001810_2014-06-26_20-51-35_260595134347_rgbf000040-resize_3-target.png,250,2.2525,2.0,1674,249,meters,jsons/v1_VE250_randls_5_rotated.json,515518,1156638,35,Woman
130,455617,DepthScenes,duration_manipulation_targetAtFixation,jsons/v1_VE250_randls_5_rotated.json,http://54.235.29.9/FacialAge/BNav_EC2/DepthDuration/v2_depth_duration_MTurk/v2_DepthDuration_HTML.html#25,25,1600,789,1600,900,8-20-2022,11-1-30,131,depth_duration_stimuli/002425_2014-06-28_20-27-29_260595134347_rgbf000031-resize_8/002425_2014-06-28_20-27-29_260595134347_rgbf000031-resize_8-target.png,250,3.8960000000000004,1.0,1754,248,meters,jsons/v1_VE250_randls_5_rotated.json,515518,1156638,35,Woman
131,455617,DepthScenes,duration_manipulation_targetAtFixation,jsons/v1_VE250_randls_5_rotated.json,http://54.235.29.9/FacialAge/BNav_EC2/DepthDuration/v2_depth_duration_MTurk/v2_DepthDuration_HTML.html#25,25,1600,789,1600,900,8-20-2022,11-1-30,132,depth_duration_stimuli/000642_2014-06-08_16-59-25_260595134347_rgbf000098-resize_2/000642_2014-06-08_16-59-25_260595134347_rgbf000098-resize_2-target.png,250,2.8815,9.0,2235,250,meters,jsons/v1_VE250_randls_5_rotated.json,515518,1156638,35,Woman
132,455617,DepthScenes,duration_manipulation_targetAtFixation,jsons/v1_VE250_randls_5_rotated.json,http://54.235.29.9/FacialAge/BNav_EC2/DepthDuration/v2_depth_duration_MTurk/v2_DepthDuration_HTML.html#25,25,1600,789,1600,900,8-20-2022,11-1-30,133,depth_duration_stimuli/000734_2014-06-08_17-39-11_260595134347_rgbf000128-resize_2/000734_2014-06-08_17-39-11_260595134347_rgbf000128-resize_2-target.png,250,4.098,8.0,2105,250,meters,jsons/v1_VE250_randls_5_rotated.json,515518,1156638,35,Woman
133,455617,DepthScenes,duration_manipulation_targetAtFixation,jsons/v1_VE250_randls_5_rotated.json,http://54.235.29.9/FacialAge/BNav_EC2/DepthDuration/v2_depth_duration_MTurk/v2_DepthDuration_HTML.html#25,25,1600,789,1600,900,8-20-2022,11-1-30,134,depth_duration_stimuli/000739_2014-06-08_18-45-58_260595134347_rgbf000068-resize_1/000739_2014-06-08_18-45-58_260595134347_rgbf000068-resize_1-target.png,250,3.534,7.0,1996,251,meters,jsons/v1_VE250_randls_5_rotated.json,515518,1156638,35,Woman
134,455617,DepthScenes,duration_manipulation_targetAtFixation,jsons/v1_VE250_randls_5_rotated.json,http://54.235.29.9/FacialAge/BNav_EC2/DepthDuration/v2_depth_duration_MTurk/v2_DepthDuration_HTML.html#25,25,1600,789,1600,900,8-20-2022,11-1-30,135,depth_duration_stimuli/000375_2014-06-08_11-17-29_260595134347_rgbf000133-resize_2/000375_2014-06-08_11-17-29_260595134347_rgbf000133-resize-original.jpg,250,4.718,0.0,2169,250,meters,jsons/v1_VE250_randls_5_rotated.json,515518,1156638,35,Woman
135,455617,DepthScenes,duration_manipulation_targetAtFixation,jsons/v1_VE250_randls_5_rotated.json,http://54.235.29.9/FacialAge/BNav_EC2/DepthDuration/v2_depth_duration_MTurk/v2_DepthDuration_HTML.html#25,25,1600,789,1600,900,8-20-2022,11-1-30,136,depth_duration_stimuli/000549_2014-06-08_22-10-24_260595134347_rgbf000247-resize_3/000549_2014-06-08_22-10-24_260595134347_rgbf000247-resize_3-target.png,250,1.841,6.0,1770,249,meters,jsons/v1_VE250_randls_5_rotated.json,515518,1156638,35,Woman
136,455617,DepthScenes,duration_manipulation_targetAtFixation,jsons/v1_VE250_randls_5_rotated.json,http://54.235.29.9/FacialAge/BNav_EC2/DepthDuration/v2_depth_duration_MTurk/v2_DepthDuration_HTML.html#25,25,1600,789,1600,900,8-20-2022,11-1-30,137,depth_duration_stimuli/001055_2014-06-08_18-45-35_260595134347_rgbf000111-resize_4/001055_2014-06-08_18-45-35_260595134347_rgbf000111-resize_4-target.png,250,2.4290000000000003,5.0,1688,250,meters,jsons/v1_VE250_randls_5_rotated.json,515518,1156638,35,Woman
137,455617,DepthScenes,duration_manipulation_targetAtFixation,jsons/v1_VE250_randls_5_rotated.json,http://54.235.29.9/FacialAge/BNav_EC2/DepthDuration/v2_depth_duration_MTurk/v2_DepthDuration_HTML.html#25,25,1600,789,1600,900,8-20-2022,11-1-30,138,depth_duration_stimuli/003587_2014-05-23_16-48-02_094959634447_rgbf002384-resize_2/003587_2014-05-23_16-48-02_094959634447_rgbf002384-resize_2-target.png,250,1.357,4.0,1723,250,meters,jsons/v1_VE250_randls_5_rotated.json,515518,1156638,35,Woman
138,455617,DepthScenes,duration_manipulation_targetAtFixation,jsons/v1_VE250_randls_5_rotated.json,http://54.235.29.9/FacialAge/BNav_EC2/DepthDuration/v2_depth_duration_MTurk/v2_DepthDuration_HTML.html#25,25,1600,789,1600,900,8-20-2022,11-1-30,139,depth_duration_stimuli/001167_2014-06-17_15-38-07_260595134347_rgbf000108-resize_0/001167_2014-06-17_15-38-07_260595134347_rgbf000108-resize_0-target.png,250,1.8505,3.0,1772,249,meters,jsons/v1_VE250_randls_5_rotated.json,515518,1156638,35,Woman
139,455617,DepthScenes,duration_manipulation_targetAtFixation,jsons/v1_VE250_randls_5_rotated.json,http://54.235.29.9/FacialAge/BNav_EC2/DepthDuration/v2_depth_duration_MTurk/v2_DepthDuration_HTML.html#25,25,1600,789,1600,900,8-20-2022,11-1-30,140,depth_duration_stimuli/003079_2014-06-15_15-18-20_094959634447_rgbf000152-resize_8/003079_2014-06-15_15-18-20_094959634447_rgbf000152-resize_8-target.png,250,2.8775,2.0,1702,248,meters,jsons/v1_VE250_randls_5_rotated.json,515518,1156638,35,Woman
140,455617,DepthScenes,duration_manipulation_targetAtFixation,jsons/v1_VE250_randls_5_rotated.json,http://54.235.29.9/FacialAge/BNav_EC2/DepthDuration/v2_depth_duration_MTurk/v2_DepthDuration_HTML.html#25,25,1600,789,1600,900,8-20-2022,11-1-30,141,depth_duration_stimuli/000506_2014-06-08_23-21-00_260595134347_rgbf000070-resize_7/000506_2014-06-08_23-21-00_260595134347_rgbf000070-resize_7-target.png,250,4.0585,1.0,2042,250,meters,jsons/v1_VE250_randls_5_rotated.json,515518,1156638,35,Woman
141,455617,DepthScenes,duration_manipulation_targetAtFixation,jsons/v1_VE250_randls_5_rotated.json,http://54.235.29.9/FacialAge/BNav_EC2/DepthDuration/v2_depth_duration_MTurk/v2_DepthDuration_HTML.html#25,25,1600,789,1600,900,8-20-2022,11-1-30,142,depth_duration_stimuli/000109_2014-05-14_23-41-52_260595134347_rgbf000035-resize_9/000109_2014-05-14_23-41-52_260595134347_rgbf000035-resize_9-target.png,250,1.3545,9.0,1705,248,meters,jsons/v1_VE250_randls_5_rotated.json,515518,1156638,35,Woman
142,455617,DepthScenes,duration_manipulation_targetAtFixation,jsons/v1_VE250_randls_5_rotated.json,http://54.235.29.9/FacialAge/BNav_EC2/DepthDuration/v2_depth_duration_MTurk/v2_DepthDuration_HTML.html#25,25,1600,789,1600,900,8-20-2022,11-1-30,143,depth_duration_stimuli/000470_2014-06-09_19-42-40_260595134347_rgbf000094-resize_1/000470_2014-06-09_19-42-40_260595134347_rgbf000094-resize_1-target.png,250,1.831,8.0,1562,250,meters,jsons/v1_VE250_randls_5_rotated.json,515518,1156638,35,Woman
143,455617,DepthScenes,duration_manipulation_targetAtFixation,jsons/v1_VE250_randls_5_rotated.json,http://54.235.29.9/FacialAge/BNav_EC2/DepthDuration/v2_depth_duration_MTurk/v2_DepthDuration_HTML.html#25,25,1600,789,1600,900,8-20-2022,11-1-30,144,depth_duration_stimuli/003228_2014-05-14_13-42-35_094959634447_rgbf000101-resize_1/003228_2014-05-14_13-42-35_094959634447_rgbf000101-resize_1-target.png,250,1.9680000000000002,7.0,1896,247,meters,jsons/v1_VE250_randls_5_rotated.json,515518,1156638,35,Woman
144,455617,DepthScenes,duration_manipulation_targetAtFixation,jsons/v1_VE250_randls_5_rotated.json,http://54.235.29.9/FacialAge/BNav_EC2/DepthDuration/v2_depth_duration_MTurk/v2_DepthDuration_HTML.html#25,25,1600,789,1600,900,8-20-2022,11-1-30,145,depth_duration_stimuli/002600_2014-06-24_14-27-04_094959634447_rgbf000074-resize_2/002600_2014-06-24_14-27-04_094959634447_rgbf000074-resize_2-target.png,250,2.7575,6.0,1945,249,meters,jsons/v1_VE250_randls_5_rotated.json,515518,1156638,35,Woman
145,455617,DepthScenes,duration_manipulation_targetAtFixation,jsons/v1_VE250_randls_5_rotated.json,http://54.235.29.9/FacialAge/BNav_EC2/DepthDuration/v2_depth_duration_MTurk/v2_DepthDuration_HTML.html#25,25,1600,789,1600,900,8-20-2022,11-1-30,146,depth_duration_stimuli/001516_2014-06-20_16-25-09_260595134347_rgbf000076-resize_2/001516_2014-06-20_16-25-09_260595134347_rgbf000076-resize_2-target.png,250,1.7445,5.0,1866,250,meters,jsons/v1_VE250_randls_5_rotated.json,515518,1156638,35,Woman
146,455617,DepthScenes,duration_manipulation_targetAtFixation,jsons/v1_VE250_randls_5_rotated.json,http://54.235.29.9/FacialAge/BNav_EC2/DepthDuration/v2_depth_duration_MTurk/v2_DepthDuration_HTML.html#25,25,1600,789,1600,900,8-20-2022,11-1-30,147,depth_duration_stimuli/002118_2014-06-25_20-32-08_260595134347_rgbf000078-resize_1/002118_2014-06-25_20-32-08_260595134347_rgbf000078-resize_1-target.png,250,2.6460000000000004,4.0,1914,251,meters,jsons/v1_VE250_randls_5_rotated.json,515518,1156638,35,Woman
147,455617,DepthScenes,duration_manipulation_targetAtFixation,jsons/v1_VE250_randls_5_rotated.json,http://54.235.29.9/FacialAge/BNav_EC2/DepthDuration/v2_depth_duration_MTurk/v2_DepthDuration_HTML.html#25,25,1600,789,1600,900,8-20-2022,11-1-30,148,depth_duration_stimuli/002323_2014-06-28_20-01-54_260595134347_rgbf000051-resize_4/002323_2014-06-28_20-01-54_260595134347_rgbf000051-resize_4-target.png,250,3.7310000000000003,3.0,2139,249,meters,jsons/v1_VE250_randls_5_rotated.json,515518,1156638,35,Woman
148,455617,DepthScenes,duration_manipulation_targetAtFixation,jsons/v1_VE250_randls_5_rotated.json,http://54.235.29.9/FacialAge/BNav_EC2/DepthDuration/v2_depth_duration_MTurk/v2_DepthDuration_HTML.html#25,25,1600,789,1600,900,8-20-2022,11-1-30,149,depth_duration_stimuli/000917_2014-06-09_22-45-29_260595134347_rgbf000149-resize_3/000917_2014-06-09_22-45-29_260595134347_rgbf000149-resize_3-target.png,250,4.1865,2.0,1929,248,meters,jsons/v1_VE250_randls_5_rotated.json,515518,1156638,35,Woman
149,455617,DepthScenes,duration_manipulation_targetAtFixation,jsons/v1_VE250_randls_5_rotated.json,http://54.235.29.9/FacialAge/BNav_EC2/DepthDuration/v2_depth_duration_MTurk/v2_DepthDuration_HTML.html#25,25,1600,789,1600,900,8-20-2022,11-1-30,150,depth_duration_stimuli/003423_2014-05-21_10-23-26_094959634447_rgbf002665-resize_2/003423_2014-05-21_10-23-26_094959634447_rgbf002665-resize_2-target.png,250,3.2575,1.0,1691,249,meters,jsons/v1_VE250_randls_5_rotated.json,515518,1156638,35,Woman
150,455617,DepthScenes,duration_manipulation_targetAtFixation,jsons/v1_VE250_randls_5_rotated.json,http://54.235.29.9/FacialAge/BNav_EC2/DepthDuration/v2_depth_duration_MTurk/v2_DepthDuration_HTML.html#25,25,1600,789,1600,900,8-20-2022,11-1-30,151,depth_duration_stimuli/002905_2014-06-03_18-04-43_094959634447_rgbf000151-resize_2/002905_2014-06-03_18-04-43_094959634447_rgbf000151-resize_2-target.png,250,2.0295,9.0,2026,250,meters,jsons/v1_VE250_randls_5_rotated.json,515518,1156638,35,Woman
151,455617,DepthScenes,duration_manipulation_targetAtFixation,jsons/v1_VE250_randls_5_rotated.json,http://54.235.29.9/FacialAge/BNav_EC2/DepthDuration/v2_depth_duration_MTurk/v2_DepthDuration_HTML.html#25,25,1600,789,1600,900,8-20-2022,11-1-30,152,depth_duration_stimuli/000569_2014-06-09_22-51-47_260595134347_rgbf000141-resize_3/000569_2014-06-09_22-51-47_260595134347_rgbf000141-resize-original.jpg,250,4.512,0.0,1994,249,meters,jsons/v1_VE250_randls_5_rotated.json,515518,1156638,35,Woman
152,455617,DepthScenes,duration_manipulation_targetAtFixation,jsons/v1_VE250_randls_5_rotated.json,http://54.235.29.9/FacialAge/BNav_EC2/DepthDuration/v2_depth_duration_MTurk/v2_DepthDuration_HTML.html#25,25,1600,789,1600,900,8-20-2022,11-1-30,153,depth_duration_stimuli/000103_2014-05-14_22-01-17_260595134347_rgbf000152-resize_5/000103_2014-05-14_22-01-17_260595134347_rgbf000152-resize_5-target.png,250,1.993,8.0,1659,250,meters,jsons/v1_VE250_randls_5_rotated.json,515518,1156638,35,Woman
153,455617,DepthScenes,duration_manipulation_targetAtFixation,jsons/v1_VE250_randls_5_rotated.json,http://54.235.29.9/FacialAge/BNav_EC2/DepthDuration/v2_depth_duration_MTurk/v2_DepthDuration_HTML.html#25,25,1600,789,1600,900,8-20-2022,11-1-30,154,depth_duration_stimuli/001555_2014-06-20_17-12-10_260595134347_rgbf000065-resize_4/001555_2014-06-20_17-12-10_260595134347_rgbf000065-resize_4-target.png,250,1.633,7.0,1868,250,meters,jsons/v1_VE250_randls_5_rotated.json,515518,1156638,35,Woman
154,455617,DepthScenes,duration_manipulation_targetAtFixation,jsons/v1_VE250_randls_5_rotated.json,http://54.235.29.9/FacialAge/BNav_EC2/DepthDuration/v2_depth_duration_MTurk/v2_DepthDuration_HTML.html#25,25,1600,789,1600,900,8-20-2022,11-1-30,155,depth_duration_stimuli/002568_2014-06-24_13-59-21_094959634447_rgbf000062-resize_4/002568_2014-06-24_13-59-21_094959634447_rgbf000062-resize_4-target.png,250,3.015,6.0,1466,249,meters,jsons/v1_VE250_randls_5_rotated.json,515518,1156638,35,Woman
155,455617,DepthScenes,duration_manipulation_targetAtFixation,jsons/v1_VE250_randls_5_rotated.json,http://54.235.29.9/FacialAge/BNav_EC2/DepthDuration/v2_depth_duration_MTurk/v2_DepthDuration_HTML.html#25,25,1600,789,1600,900,8-20-2022,11-1-30,156,depth_duration_stimuli/003492_2014-05-21_15-50-55_094959634447_rgbf000828-resize_1/003492_2014-05-21_15-50-55_094959634447_rgbf000828-resize_1-target.png,250,4.06875,5.0,1610,249,meters,jsons/v1_VE250_randls_5_rotated.json,515518,1156638,35,Woman
156,455617,DepthScenes,duration_manipulation_targetAtFixation,jsons/v1_VE250_randls_5_rotated.json,http://54.235.29.9/FacialAge/BNav_EC2/DepthDuration/v2_depth_duration_MTurk/v2_DepthDuration_HTML.html#25,25,1600,789,1600,900,8-20-2022,11-1-30,157,depth_duration_stimuli/003495_2014-05-21_16-01-51_094959634447_rgbf000100-resize_3/003495_2014-05-21_16-01-51_094959634447_rgbf000100-resize_3-target.png,250,1.6255,4.0,1833,250,meters,jsons/v1_VE250_randls_5_rotated.json,515518,1156638,35,Woman
157,455617,DepthScenes,duration_manipulation_targetAtFixation,jsons/v1_VE250_randls_5_rotated.json,http://54.235.29.9/FacialAge/BNav_EC2/DepthDuration/v2_depth_duration_MTurk/v2_DepthDuration_HTML.html#25,25,1600,789,1600,900,8-20-2022,11-1-30,158,depth_duration_stimuli/001244_2014-06-17_16-47-45_260595134347_rgbf000030-resize_4/001244_2014-06-17_16-47-45_260595134347_rgbf000030-resize_4-target.png,250,2.0425,3.0,1787,250,meters,jsons/v1_VE250_randls_5_rotated.json,515518,1156638,35,Woman
158,455617,DepthScenes,duration_manipulation_targetAtFixation,jsons/v1_VE250_randls_5_rotated.json,http://54.235.29.9/FacialAge/BNav_EC2/DepthDuration/v2_depth_duration_MTurk/v2_DepthDuration_HTML.html#25,25,1600,789,1600,900,8-20-2022,11-1-30,159,depth_duration_stimuli/001235_2014-06-17_16-37-36_260595134347_rgbf000084-resize_4/001235_2014-06-17_16-37-36_260595134347_rgbf000084-resize_4-target.png,250,3.6605,2.0,1658,250,meters,jsons/v1_VE250_randls_5_rotated.json,515518,1156638,35,Woman
159,455617,DepthScenes,duration_manipulation_targetAtFixation,jsons/v1_VE250_randls_5_rotated.json,http://54.235.29.9/FacialAge/BNav_EC2/DepthDuration/v2_depth_duration_MTurk/v2_DepthDuration_HTML.html#25,25,1600,789,1600,900,8-20-2022,11-1-30,160,depth_duration_stimuli/000788_2014-06-08_22-34-36_260595134347_rgbf000131-resize_1/000788_2014-06-08_22-34-36_260595134347_rgbf000131-resize_1-target.png,250,3.359,1.0,1786,249,meters,jsons/v1_VE250_randls_5_rotated.json,515518,1156638,35,Woman
160,455617,DepthScenes,duration_manipulation_targetAtFixation,jsons/v1_VE250_randls_5_rotated.json,http://54.235.29.9/FacialAge/BNav_EC2/DepthDuration/v2_depth_duration_MTurk/v2_DepthDuration_HTML.html#25,25,1600,789,1600,900,8-20-2022,11-1-30,161,depth_duration_stimuli/001094_2014-06-15_17-36-00_260595134347_rgbf000205-resize_0/001094_2014-06-15_17-36-00_260595134347_rgbf000205-resize_0-target.png,250,4.2175,9.0,2076,250,meters,jsons/v1_VE250_randls_5_rotated.json,515518,1156638,35,Woman
161,455617,DepthScenes,duration_manipulation_targetAtFixation,jsons/v1_VE250_randls_5_rotated.json,http://54.235.29.9/FacialAge/BNav_EC2/DepthDuration/v2_depth_duration_MTurk/v2_DepthDuration_HTML.html#25,25,1600,789,1600,900,8-20-2022,11-1-30,162,depth_duration_stimuli/000692_2014-06-08_13-09-42_260595134347_rgbf000199-resize_2/000692_2014-06-08_13-09-42_260595134347_rgbf000199-resize_2-target.png,250,3.661,8.0,1866,249,meters,jsons/v1_VE250_randls_5_rotated.json,515518,1156638,35,Woman
162,455617,DepthScenes,duration_manipulation_targetAtFixation,jsons/v1_VE250_randls_5_rotated.json,http://54.235.29.9/FacialAge/BNav_EC2/DepthDuration/v2_depth_duration_MTurk/v2_DepthDuration_HTML.html#25,25,1600,789,1600,900,8-20-2022,11-1-30,163,depth_duration_stimuli/000709_2014-06-08_13-51-55_260595134347_rgbf000068-resize_3/000709_2014-06-08_13-51-55_260595134347_rgbf000068-resize_3-target.png,250,1.8030000000000002,7.0,1547,251,meters,jsons/v1_VE250_randls_5_rotated.json,515518,1156638,35,Woman
163,455617,DepthScenes,duration_manipulation_targetAtFixation,jsons/v1_VE250_randls_5_rotated.json,http://54.235.29.9/FacialAge/BNav_EC2/DepthDuration/v2_depth_duration_MTurk/v2_DepthDuration_HTML.html#25,25,1600,789,1600,900,8-20-2022,11-1-30,164,depth_duration_stimuli/002057_2014-06-24_21-00-13_260595134347_rgbf000120-resize_1/002057_2014-06-24_21-00-13_260595134347_rgbf000120-resize_1-target.png,250,2.967,6.0,1722,249,meters,jsons/v1_VE250_randls_5_rotated.json,515518,1156638,35,Woman
