,subjID,experimentName,versionName,sequenceName,url,selected_row,windowWidth,windowHeight,screenWidth,screenHeight,startDate,startTime,trial,stimulus,duration,actual_depth,depth_estimate,trial_RT,log_sceneDuration,unitSelection,seq_filepath,experimentTime,totalTime,age,gender
0,456982,DepthScenes,duration_manipulation_targetAtFixation,jsons/v1_VE250_randls_72.json,http://54.235.29.9/FacialAge/BNav_EC2/DepthDuration/v2_depth_duration_MTurk/v2_DepthDuration_HTML.html#191,191,1364,625,1364,768,8-29-2022,14-27-17,1,depth_duration_stimuli/001449_2014-06-19_17-01-27_260595134347_rgbf000116-resize_2/001449_2014-06-19_17-01-27_260595134347_rgbf000116-resize_2-target.png,250,3.452,2,7787,248,feet,jsons/v1_VE250_randls_72.json,1321004,3767767,49,Woman
1,456982,DepthScenes,duration_manipulation_targetAtFixation,jsons/v1_VE250_randls_72.json,http://54.235.29.9/FacialAge/BNav_EC2/DepthDuration/v2_depth_duration_MTurk/v2_DepthDuration_HTML.html#191,191,1364,625,1364,768,8-29-2022,14-27-17,2,depth_duration_stimuli/001450_2014-06-19_17-02-03_260595134347_rgbf000203-resize_4/001450_2014-06-19_17-02-03_260595134347_rgbf000203-resize_4-target.png,250,4.0106666666667,2,39149,251,feet,jsons/v1_VE250_randls_72.json,1321004,3767767,49,Woman
2,456982,DepthScenes,duration_manipulation_targetAtFixation,jsons/v1_VE250_randls_72.json,http://54.235.29.9/FacialAge/BNav_EC2/DepthDuration/v2_depth_duration_MTurk/v2_DepthDuration_HTML.html#191,191,1364,625,1364,768,8-29-2022,14-27-17,3,depth_duration_stimuli/001199_2014-06-17_16-03-48_260595134347_rgbf000077-resize_0/001199_2014-06-17_16-03-48_260595134347_rgbf000077-resize_0-target.png,250,3.4375,2,5558,250,feet,jsons/v1_VE250_randls_72.json,1321004,3767767,49,Woman
3,456982,DepthScenes,duration_manipulation_targetAtFixation,jsons/v1_VE250_randls_72.json,http://54.235.29.9/FacialAge/BNav_EC2/DepthDuration/v2_depth_duration_MTurk/v2_DepthDuration_HTML.html#191,191,1364,625,1364,768,8-29-2022,14-27-17,4,depth_duration_stimuli/000502_2014-06-08_23-02-32_260595134347_rgbf000063-resize_4/000502_2014-06-08_23-02-32_260595134347_rgbf000063-resize_4-target.png,250,2.431,3,8244,250,feet,jsons/v1_VE250_randls_72.json,1321004,3767767,49,Woman
4,456982,DepthScenes,duration_manipulation_targetAtFixation,jsons/v1_VE250_randls_72.json,http://54.235.29.9/FacialAge/BNav_EC2/DepthDuration/v2_depth_duration_MTurk/v2_DepthDuration_HTML.html#191,191,1364,625,1364,768,8-29-2022,14-27-17,5,depth_duration_stimuli/000929_2014-06-09_16-33-19_260595134347_rgbf000139-resize_0/000929_2014-06-09_16-33-19_260595134347_rgbf000139-resize_0-target.png,250,2.8680000000000003,2,5494,250,feet,jsons/v1_VE250_randls_72.json,1321004,3767767,49,Woman
5,456982,DepthScenes,duration_manipulation_targetAtFixation,jsons/v1_VE250_randls_72.json,http://54.235.29.9/FacialAge/BNav_EC2/DepthDuration/v2_depth_duration_MTurk/v2_DepthDuration_HTML.html#191,191,1364,625,1364,768,8-29-2022,14-27-17,6,depth_duration_stimuli/000457_2014-06-08_16-52-43_260595134347_rgbf000199-resize_1/000457_2014-06-08_16-52-43_260595134347_rgbf000199-resize_1-target.png,250,3.6489999999999996,6,4696,247,feet,jsons/v1_VE250_randls_72.json,1321004,3767767,49,Woman
6,456982,DepthScenes,duration_manipulation_targetAtFixation,jsons/v1_VE250_randls_72.json,http://54.235.29.9/FacialAge/BNav_EC2/DepthDuration/v2_depth_duration_MTurk/v2_DepthDuration_HTML.html#191,191,1364,625,1364,768,8-29-2022,14-27-17,7,depth_duration_stimuli/000470_2014-06-09_19-42-40_260595134347_rgbf000094-resize_1/000470_2014-06-09_19-42-40_260595134347_rgbf000094-resize_1-target.png,250,1.831,5,7210,313,feet,jsons/v1_VE250_randls_72.json,1321004,3767767,49,Woman
7,456982,DepthScenes,duration_manipulation_targetAtFixation,jsons/v1_VE250_randls_72.json,http://54.235.29.9/FacialAge/BNav_EC2/DepthDuration/v2_depth_duration_MTurk/v2_DepthDuration_HTML.html#191,191,1364,625,1364,768,8-29-2022,14-27-17,8,depth_duration_stimuli/000109_2014-05-14_23-41-52_260595134347_rgbf000035-resize_9/000109_2014-05-14_23-41-52_260595134347_rgbf000035-resize_9-target.png,250,1.3545,5,4644,250,feet,jsons/v1_VE250_randls_72.json,1321004,3767767,49,Woman
8,456982,DepthScenes,duration_manipulation_targetAtFixation,jsons/v1_VE250_randls_72.json,http://54.235.29.9/FacialAge/BNav_EC2/DepthDuration/v2_depth_duration_MTurk/v2_DepthDuration_HTML.html#191,191,1364,625,1364,768,8-29-2022,14-27-17,9,depth_duration_stimuli/001150_2014-06-17_15-27-34_260595134347_rgbf000108-resize_2/001150_2014-06-17_15-27-34_260595134347_rgbf000108-resize_2-target.png,250,4.0325,6,6775,248,feet,jsons/v1_VE250_randls_72.json,1321004,3767767,49,Woman
9,456982,DepthScenes,duration_manipulation_targetAtFixation,jsons/v1_VE250_randls_72.json,http://54.235.29.9/FacialAge/BNav_EC2/DepthDuration/v2_depth_duration_MTurk/v2_DepthDuration_HTML.html#191,191,1364,625,1364,768,8-29-2022,14-27-17,10,depth_duration_stimuli/000665_2014-06-09_20-42-35_260595134347_rgbf000110-resize_1/000665_2014-06-09_20-42-35_260595134347_rgbf000110-resize_1-target.png,250,3.057,4,5486,250,feet,jsons/v1_VE250_randls_72.json,1321004,3767767,49,Woman
10,456982,DepthScenes,duration_manipulation_targetAtFixation,jsons/v1_VE250_randls_72.json,http://54.235.29.9/FacialAge/BNav_EC2/DepthDuration/v2_depth_duration_MTurk/v2_DepthDuration_HTML.html#191,191,1364,625,1364,768,8-29-2022,14-27-17,11,depth_duration_stimuli/001016_2014-06-09_16-16-10_260595134347_rgbf000112-resize_5/001016_2014-06-09_16-16-10_260595134347_rgbf000112-resize_5-target.png,250,1.6565,5,6494,324,feet,jsons/v1_VE250_randls_72.json,1321004,3767767,49,Woman
11,456982,DepthScenes,duration_manipulation_targetAtFixation,jsons/v1_VE250_randls_72.json,http://54.235.29.9/FacialAge/BNav_EC2/DepthDuration/v2_depth_duration_MTurk/v2_DepthDuration_HTML.html#191,191,1364,625,1364,768,8-29-2022,14-27-17,12,depth_duration_stimuli/002340_2014-06-28_20-05-46_260595134347_rgbf000113-resize_0/002340_2014-06-28_20-05-46_260595134347_rgbf000113-resize_0-target.png,250,2.4735,6,3670,249,feet,jsons/v1_VE250_randls_72.json,1321004,3767767,49,Woman
12,456982,DepthScenes,duration_manipulation_targetAtFixation,jsons/v1_VE250_randls_72.json,http://54.235.29.9/FacialAge/BNav_EC2/DepthDuration/v2_depth_duration_MTurk/v2_DepthDuration_HTML.html#191,191,1364,625,1364,768,8-29-2022,14-27-17,13,depth_duration_stimuli/000569_2014-06-09_22-51-47_260595134347_rgbf000141-resize_3/000569_2014-06-09_22-51-47_260595134347_rgbf000141-resize-original.jpg,250,4.512,8,6036,251,feet,jsons/v1_VE250_randls_72.json,1321004,3767767,49,Woman
13,456982,DepthScenes,duration_manipulation_targetAtFixation,jsons/v1_VE250_randls_72.json,http://54.235.29.9/FacialAge/BNav_EC2/DepthDuration/v2_depth_duration_MTurk/v2_DepthDuration_HTML.html#191,191,1364,625,1364,768,8-29-2022,14-27-17,14,depth_duration_stimuli/003492_2014-05-21_15-50-55_094959634447_rgbf000828-resize_1/003492_2014-05-21_15-50-55_094959634447_rgbf000828-resize_1-target.png,250,4.06875,5,29366,249,feet,jsons/v1_VE250_randls_72.json,1321004,3767767,49,Woman
14,456982,DepthScenes,duration_manipulation_targetAtFixation,jsons/v1_VE250_randls_72.json,http://54.235.29.9/FacialAge/BNav_EC2/DepthDuration/v2_depth_duration_MTurk/v2_DepthDuration_HTML.html#191,191,1364,625,1364,768,8-29-2022,14-27-17,15,depth_duration_stimuli/002568_2014-06-24_13-59-21_094959634447_rgbf000062-resize_4/002568_2014-06-24_13-59-21_094959634447_rgbf000062-resize_4-target.png,250,3.015,5,4049,254,feet,jsons/v1_VE250_randls_72.json,1321004,3767767,49,Woman
15,456982,DepthScenes,duration_manipulation_targetAtFixation,jsons/v1_VE250_randls_72.json,http://54.235.29.9/FacialAge/BNav_EC2/DepthDuration/v2_depth_duration_MTurk/v2_DepthDuration_HTML.html#191,191,1364,625,1364,768,8-29-2022,14-27-17,16,depth_duration_stimuli/002784_2014-06-22_19-26-30_094959634447_rgbf000083-resize_3/002784_2014-06-22_19-26-30_094959634447_rgbf000083-resize_3-target.png,250,1.8046666666667,2,5089,249,feet,jsons/v1_VE250_randls_72.json,1321004,3767767,49,Woman
16,456982,DepthScenes,duration_manipulation_targetAtFixation,jsons/v1_VE250_randls_72.json,http://54.235.29.9/FacialAge/BNav_EC2/DepthDuration/v2_depth_duration_MTurk/v2_DepthDuration_HTML.html#191,191,1364,625,1364,768,8-29-2022,14-27-17,17,depth_duration_stimuli/001100_2014-06-15_17-46-26_260595134347_rgbf000225-resize_2/001100_2014-06-15_17-46-26_260595134347_rgbf000225-resize_2-target.png,250,2.24,5,6250,250,feet,jsons/v1_VE250_randls_72.json,1321004,3767767,49,Woman
17,456982,DepthScenes,duration_manipulation_targetAtFixation,jsons/v1_VE250_randls_72.json,http://54.235.29.9/FacialAge/BNav_EC2/DepthDuration/v2_depth_duration_MTurk/v2_DepthDuration_HTML.html#191,191,1364,625,1364,768,8-29-2022,14-27-17,18,depth_duration_stimuli/001175_2014-06-17_15-45-55_260595134347_rgbf000129-resize_4/001175_2014-06-17_15-45-55_260595134347_rgbf000129-resize_4-target.png,250,4.255,5,8138,251,feet,jsons/v1_VE250_randls_72.json,1321004,3767767,49,Woman
18,456982,DepthScenes,duration_manipulation_targetAtFixation,jsons/v1_VE250_randls_72.json,http://54.235.29.9/FacialAge/BNav_EC2/DepthDuration/v2_depth_duration_MTurk/v2_DepthDuration_HTML.html#191,191,1364,625,1364,768,8-29-2022,14-27-17,19,depth_duration_stimuli/003490_2014-05-21_15-50-11_094959634447_rgbf000101-resize_3/003490_2014-05-21_15-50-11_094959634447_rgbf000101-resize_3-target.png,250,3.6445,6,13888,250,feet,jsons/v1_VE250_randls_72.json,1321004,3767767,49,Woman
19,456982,DepthScenes,duration_manipulation_targetAtFixation,jsons/v1_VE250_randls_72.json,http://54.235.29.9/FacialAge/BNav_EC2/DepthDuration/v2_depth_duration_MTurk/v2_DepthDuration_HTML.html#191,191,1364,625,1364,768,8-29-2022,14-27-17,20,depth_duration_stimuli/001110_2014-06-15_17-25-28_260595134347_rgbf000150-resize_1/001110_2014-06-15_17-25-28_260595134347_rgbf000150-resize_1-target.png,250,1.7115,5,5230,211,feet,jsons/v1_VE250_randls_72.json,1321004,3767767,49,Woman
20,456982,DepthScenes,duration_manipulation_targetAtFixation,jsons/v1_VE250_randls_72.json,http://54.235.29.9/FacialAge/BNav_EC2/DepthDuration/v2_depth_duration_MTurk/v2_DepthDuration_HTML.html#191,191,1364,625,1364,768,8-29-2022,14-27-17,21,depth_duration_stimuli/000927_2014-06-09_16-32-30_260595134347_rgbf000123-resize_3/000927_2014-06-09_16-32-30_260595134347_rgbf000123-resize_3-target.png,250,2.6785,6,3143,250,feet,jsons/v1_VE250_randls_72.json,1321004,3767767,49,Woman
21,456982,DepthScenes,duration_manipulation_targetAtFixation,jsons/v1_VE250_randls_72.json,http://54.235.29.9/FacialAge/BNav_EC2/DepthDuration/v2_depth_duration_MTurk/v2_DepthDuration_HTML.html#191,191,1364,625,1364,768,8-29-2022,14-27-17,22,depth_duration_stimuli/002663_2014-06-13_15-50-26_094959634447_rgbf000075-resize_1/002663_2014-06-13_15-50-26_094959634447_rgbf000075-resize_1-target.png,250,4.7495,9,5216,250,feet,jsons/v1_VE250_randls_72.json,1321004,3767767,49,Woman
22,456982,DepthScenes,duration_manipulation_targetAtFixation,jsons/v1_VE250_randls_72.json,http://54.235.29.9/FacialAge/BNav_EC2/DepthDuration/v2_depth_duration_MTurk/v2_DepthDuration_HTML.html#191,191,1364,625,1364,768,8-29-2022,14-27-17,23,depth_duration_stimuli/000409_2014-06-04_19-23-33_260595134347_rgbf000067-resize_0/000409_2014-06-04_19-23-33_260595134347_rgbf000067-resize_0-target.png,250,3.7335,8,3602,249,feet,jsons/v1_VE250_randls_72.json,1321004,3767767,49,Woman
23,456982,DepthScenes,duration_manipulation_targetAtFixation,jsons/v1_VE250_randls_72.json,http://54.235.29.9/FacialAge/BNav_EC2/DepthDuration/v2_depth_duration_MTurk/v2_DepthDuration_HTML.html#191,191,1364,625,1364,768,8-29-2022,14-27-17,24,depth_duration_stimuli/000522_2014-06-08_13-35-06_260595134347_rgbf000244-resize_1/000522_2014-06-08_13-35-06_260595134347_rgbf000244-resize_1-target.png,250,2.3715,5,4711,256,feet,jsons/v1_VE250_randls_72.json,1321004,3767767,49,Woman
24,456982,DepthScenes,duration_manipulation_targetAtFixation,jsons/v1_VE250_randls_72.json,http://54.235.29.9/FacialAge/BNav_EC2/DepthDuration/v2_depth_duration_MTurk/v2_DepthDuration_HTML.html#191,191,1364,625,1364,768,8-29-2022,14-27-17,25,depth_duration_stimuli/002949_2014-06-26_15-57-42_094959634447_rgbf000079-resize_1/002949_2014-06-26_15-57-42_094959634447_rgbf000079-resize_1-target.png,250,1.8915,4,4347,250,feet,jsons/v1_VE250_randls_72.json,1321004,3767767,49,Woman
25,456982,DepthScenes,duration_manipulation_targetAtFixation,jsons/v1_VE250_randls_72.json,http://54.235.29.9/FacialAge/BNav_EC2/DepthDuration/v2_depth_duration_MTurk/v2_DepthDuration_HTML.html#191,191,1364,625,1364,768,8-29-2022,14-27-17,26,depth_duration_stimuli/001806_2014-06-26_20-50-20_260595134347_rgbf000091-resize_1/001806_2014-06-26_20-50-20_260595134347_rgbf000091-resize_1-target.png,250,2.7305,2,7458,248,feet,jsons/v1_VE250_randls_72.json,1321004,3767767,49,Woman
26,456982,DepthScenes,duration_manipulation_targetAtFixation,jsons/v1_VE250_randls_72.json,http://54.235.29.9/FacialAge/BNav_EC2/DepthDuration/v2_depth_duration_MTurk/v2_DepthDuration_HTML.html#191,191,1364,625,1364,768,8-29-2022,14-27-17,27,depth_duration_stimuli/001617_2014-06-20_11-35-32_260595134347_rgbf000066-resize_1/001617_2014-06-20_11-35-32_260595134347_rgbf000066-resize_1-target.png,250,3.7910000000000004,2,3078,238,feet,jsons/v1_VE250_randls_72.json,1321004,3767767,49,Woman
27,456982,DepthScenes,duration_manipulation_targetAtFixation,jsons/v1_VE250_randls_72.json,http://54.235.29.9/FacialAge/BNav_EC2/DepthDuration/v2_depth_duration_MTurk/v2_DepthDuration_HTML.html#191,191,1364,625,1364,768,8-29-2022,14-27-17,28,depth_duration_stimuli/000414_2014-06-04_19-49-13_260595134347_rgbf000044-resize_0/000414_2014-06-04_19-49-13_260595134347_rgbf000044-resize_0-target.png,250,4.329,6,4780,330,feet,jsons/v1_VE250_randls_72.json,1321004,3767767,49,Woman
28,456982,DepthScenes,duration_manipulation_targetAtFixation,jsons/v1_VE250_randls_72.json,http://54.235.29.9/FacialAge/BNav_EC2/DepthDuration/v2_depth_duration_MTurk/v2_DepthDuration_HTML.html#191,191,1364,625,1364,768,8-29-2022,14-27-17,29,depth_duration_stimuli/003129_2014-05-12_10-48-10_094959634447_rgbf000100-resize_0/003129_2014-05-12_10-48-10_094959634447_rgbf000100-resize_0-target.png,250,4.9305,6,12808,251,feet,jsons/v1_VE250_randls_72.json,1321004,3767767,49,Woman
29,456982,DepthScenes,duration_manipulation_targetAtFixation,jsons/v1_VE250_randls_72.json,http://54.235.29.9/FacialAge/BNav_EC2/DepthDuration/v2_depth_duration_MTurk/v2_DepthDuration_HTML.html#191,191,1364,625,1364,768,8-29-2022,14-27-17,30,depth_duration_stimuli/000375_2014-06-08_11-17-29_260595134347_rgbf000133-resize_2/000375_2014-06-08_11-17-29_260595134347_rgbf000133-resize-original.jpg,250,4.718,4,4619,248,feet,jsons/v1_VE250_randls_72.json,1321004,3767767,49,Woman
30,456982,DepthScenes,duration_manipulation_targetAtFixation,jsons/v1_VE250_randls_72.json,http://54.235.29.9/FacialAge/BNav_EC2/DepthDuration/v2_depth_duration_MTurk/v2_DepthDuration_HTML.html#191,191,1364,625,1364,768,8-29-2022,14-27-17,31,depth_duration_stimuli/001164_2014-06-17_15-35-46_260595134347_rgbf000085-resize_3/001164_2014-06-17_15-35-46_260595134347_rgbf000085-resize_3-target.png,250,2.354,4,8658,249,feet,jsons/v1_VE250_randls_72.json,1321004,3767767,49,Woman
31,456982,DepthScenes,duration_manipulation_targetAtFixation,jsons/v1_VE250_randls_72.json,http://54.235.29.9/FacialAge/BNav_EC2/DepthDuration/v2_depth_duration_MTurk/v2_DepthDuration_HTML.html#191,191,1364,625,1364,768,8-29-2022,14-27-17,32,depth_duration_stimuli/001136_2014-06-17_15-19-41_260595134347_rgbf000076-resize_3/001136_2014-06-17_15-19-41_260595134347_rgbf000076-resize_3-target.png,250,1.8655,6,4268,251,feet,jsons/v1_VE250_randls_72.json,1321004,3767767,49,Woman
32,456982,DepthScenes,duration_manipulation_targetAtFixation,jsons/v1_VE250_randls_72.json,http://54.235.29.9/FacialAge/BNav_EC2/DepthDuration/v2_depth_duration_MTurk/v2_DepthDuration_HTML.html#191,191,1364,625,1364,768,8-29-2022,14-27-17,33,depth_duration_stimuli/001808_2014-06-26_20-50-58_260595134347_rgbf000029-resize_1/001808_2014-06-26_20-50-58_260595134347_rgbf000029-resize_1-target.png,250,4.249,5,9899,251,feet,jsons/v1_VE250_randls_72.json,1321004,3767767,49,Woman
33,456982,DepthScenes,duration_manipulation_targetAtFixation,jsons/v1_VE250_randls_72.json,http://54.235.29.9/FacialAge/BNav_EC2/DepthDuration/v2_depth_duration_MTurk/v2_DepthDuration_HTML.html#191,191,1364,625,1364,768,8-29-2022,14-27-17,34,depth_duration_stimuli/001815_2014-06-26_20-52-55_260595134347_rgbf000020-resize_0/001815_2014-06-26_20-52-55_260595134347_rgbf000020-resize_0-target.png,250,3.3865,5,3699,250,feet,jsons/v1_VE250_randls_72.json,1321004,3767767,49,Woman
34,456982,DepthScenes,duration_manipulation_targetAtFixation,jsons/v1_VE250_randls_72.json,http://54.235.29.9/FacialAge/BNav_EC2/DepthDuration/v2_depth_duration_MTurk/v2_DepthDuration_HTML.html#191,191,1364,625,1364,768,8-29-2022,14-27-17,35,depth_duration_stimuli/000486_2014-06-09_20-47-20_260595134347_rgbf000143-resize_2/000486_2014-06-09_20-47-20_260595134347_rgbf000143-resize_2-target.png,250,4.8325,5,4660,251,feet,jsons/v1_VE250_randls_72.json,1321004,3767767,49,Woman
35,456982,DepthScenes,duration_manipulation_targetAtFixation,jsons/v1_VE250_randls_72.json,http://54.235.29.9/FacialAge/BNav_EC2/DepthDuration/v2_depth_duration_MTurk/v2_DepthDuration_HTML.html#191,191,1364,625,1364,768,8-29-2022,14-27-17,36,depth_duration_stimuli/003083_2014-06-15_15-21-03_094959634447_rgbf000063-resize_1/003083_2014-06-15_15-21-03_094959634447_rgbf000063-resize_1-target.png,250,4.1405,4,3069,249,feet,jsons/v1_VE250_randls_72.json,1321004,3767767,49,Woman
36,456982,DepthScenes,duration_manipulation_targetAtFixation,jsons/v1_VE250_randls_72.json,http://54.235.29.9/FacialAge/BNav_EC2/DepthDuration/v2_depth_duration_MTurk/v2_DepthDuration_HTML.html#191,191,1364,625,1364,768,8-29-2022,14-27-17,37,depth_duration_stimuli/001092_2014-06-15_17-34-58_260595134347_rgbf000171-resize_3/001092_2014-06-15_17-34-58_260595134347_rgbf000171-resize_3-target.png,250,2.6935,5,5220,250,feet,jsons/v1_VE250_randls_72.json,1321004,3767767,49,Woman
37,456982,DepthScenes,duration_manipulation_targetAtFixation,jsons/v1_VE250_randls_72.json,http://54.235.29.9/FacialAge/BNav_EC2/DepthDuration/v2_depth_duration_MTurk/v2_DepthDuration_HTML.html#191,191,1364,625,1364,768,8-29-2022,14-27-17,38,depth_duration_stimuli/002545_2014-06-24_13-38-53_094959634447_rgbf000080-resize_4/002545_2014-06-24_13-38-53_094959634447_rgbf000080-resize_4-target.png,250,1.9205,2,7293,251,feet,jsons/v1_VE250_randls_72.json,1321004,3767767,49,Woman
38,456982,DepthScenes,duration_manipulation_targetAtFixation,jsons/v1_VE250_randls_72.json,http://54.235.29.9/FacialAge/BNav_EC2/DepthDuration/v2_depth_duration_MTurk/v2_DepthDuration_HTML.html#191,191,1364,625,1364,768,8-29-2022,14-27-17,39,depth_duration_stimuli/000739_2014-06-08_18-45-58_260595134347_rgbf000068-resize_1/000739_2014-06-08_18-45-58_260595134347_rgbf000068-resize_1-target.png,250,3.534,2,5954,249,feet,jsons/v1_VE250_randls_72.json,1321004,3767767,49,Woman
39,456982,DepthScenes,duration_manipulation_targetAtFixation,jsons/v1_VE250_randls_72.json,http://54.235.29.9/FacialAge/BNav_EC2/DepthDuration/v2_depth_duration_MTurk/v2_DepthDuration_HTML.html#191,191,1364,625,1364,768,8-29-2022,14-27-17,40,depth_duration_stimuli/000734_2014-06-08_17-39-11_260595134347_rgbf000128-resize_2/000734_2014-06-08_17-39-11_260595134347_rgbf000128-resize_2-target.png,250,4.098,4,4790,250,feet,jsons/v1_VE250_randls_72.json,1321004,3767767,49,Woman
40,456982,DepthScenes,duration_manipulation_targetAtFixation,jsons/v1_VE250_randls_72.json,http://54.235.29.9/FacialAge/BNav_EC2/DepthDuration/v2_depth_duration_MTurk/v2_DepthDuration_HTML.html#191,191,1364,625,1364,768,8-29-2022,14-27-17,41,depth_duration_stimuli/001167_2014-06-17_15-38-07_260595134347_rgbf000108-resize_0/001167_2014-06-17_15-38-07_260595134347_rgbf000108-resize_0-target.png,250,1.8505,5,5396,204,feet,jsons/v1_VE250_randls_72.json,1321004,3767767,49,Woman
41,456982,DepthScenes,duration_manipulation_targetAtFixation,jsons/v1_VE250_randls_72.json,http://54.235.29.9/FacialAge/BNav_EC2/DepthDuration/v2_depth_duration_MTurk/v2_DepthDuration_HTML.html#191,191,1364,625,1364,768,8-29-2022,14-27-17,42,depth_duration_stimuli/003587_2014-05-23_16-48-02_094959634447_rgbf002384-resize_2/003587_2014-05-23_16-48-02_094959634447_rgbf002384-resize_2-target.png,250,1.357,9,5024,249,feet,jsons/v1_VE250_randls_72.json,1321004,3767767,49,Woman
42,456982,DepthScenes,duration_manipulation_targetAtFixation,jsons/v1_VE250_randls_72.json,http://54.235.29.9/FacialAge/BNav_EC2/DepthDuration/v2_depth_duration_MTurk/v2_DepthDuration_HTML.html#191,191,1364,625,1364,768,8-29-2022,14-27-17,43,depth_duration_stimuli/002213_2014-06-28_18-37-58_260595134347_rgbf000055-resize_1/002213_2014-06-28_18-37-58_260595134347_rgbf000055-resize_1-target.png,250,3.62,8,5749,252,feet,jsons/v1_VE250_randls_72.json,1321004,3767767,49,Woman
43,456982,DepthScenes,duration_manipulation_targetAtFixation,jsons/v1_VE250_randls_72.json,http://54.235.29.9/FacialAge/BNav_EC2/DepthDuration/v2_depth_duration_MTurk/v2_DepthDuration_HTML.html#191,191,1364,625,1364,768,8-29-2022,14-27-17,44,depth_duration_stimuli/000691_2014-06-08_13-08-50_260595134347_rgbf000132-resize_3/000691_2014-06-08_13-08-50_260595134347_rgbf000132-resize_3-target.png,250,4.1530000000000005,4,3199,248,feet,jsons/v1_VE250_randls_72.json,1321004,3767767,49,Woman
44,456982,DepthScenes,duration_manipulation_targetAtFixation,jsons/v1_VE250_randls_72.json,http://54.235.29.9/FacialAge/BNav_EC2/DepthDuration/v2_depth_duration_MTurk/v2_DepthDuration_HTML.html#191,191,1364,625,1364,768,8-29-2022,14-27-17,45,depth_duration_stimuli/000787_2014-06-08_22-33-53_260595134347_rgbf000175-resize_1/000787_2014-06-08_22-33-53_260595134347_rgbf000175-resize-original.jpg,250,4.784,9,6620,250,feet,jsons/v1_VE250_randls_72.json,1321004,3767767,49,Woman
45,456982,DepthScenes,duration_manipulation_targetAtFixation,jsons/v1_VE250_randls_72.json,http://54.235.29.9/FacialAge/BNav_EC2/DepthDuration/v2_depth_duration_MTurk/v2_DepthDuration_HTML.html#191,191,1364,625,1364,768,8-29-2022,14-27-17,46,depth_duration_stimuli/000788_2014-06-08_22-34-36_260595134347_rgbf000131-resize_1/000788_2014-06-08_22-34-36_260595134347_rgbf000131-resize_1-target.png,250,3.359,8,8457,250,feet,jsons/v1_VE250_randls_72.json,1321004,3767767,49,Woman
46,456982,DepthScenes,duration_manipulation_targetAtFixation,jsons/v1_VE250_randls_72.json,http://54.235.29.9/FacialAge/BNav_EC2/DepthDuration/v2_depth_duration_MTurk/v2_DepthDuration_HTML.html#191,191,1364,625,1364,768,8-29-2022,14-27-17,47,depth_duration_stimuli/001235_2014-06-17_16-37-36_260595134347_rgbf000084-resize_4/001235_2014-06-17_16-37-36_260595134347_rgbf000084-resize_4-target.png,250,3.6605,8,7003,250,feet,jsons/v1_VE250_randls_72.json,1321004,3767767,49,Woman
47,456982,DepthScenes,duration_manipulation_targetAtFixation,jsons/v1_VE250_randls_72.json,http://54.235.29.9/FacialAge/BNav_EC2/DepthDuration/v2_depth_duration_MTurk/v2_DepthDuration_HTML.html#191,191,1364,625,1364,768,8-29-2022,14-27-17,48,depth_duration_stimuli/001056_2014-06-08_18-46-44_260595134347_rgbf000068-resize_0/001056_2014-06-08_18-46-44_260595134347_rgbf000068-resize_0-target.png,250,2.6625,9,5944,239,feet,jsons/v1_VE250_randls_72.json,1321004,3767767,49,Woman
48,456982,DepthScenes,duration_manipulation_targetAtFixation,jsons/v1_VE250_randls_72.json,http://54.235.29.9/FacialAge/BNav_EC2/DepthDuration/v2_depth_duration_MTurk/v2_DepthDuration_HTML.html#191,191,1364,625,1364,768,8-29-2022,14-27-17,49,depth_duration_stimuli/002199_2014-06-28_18-33-56_260595134347_rgbf000074-resize_0/002199_2014-06-28_18-33-56_260595134347_rgbf000074-resize_0-target.png,250,1.996,4,3303,250,feet,jsons/v1_VE250_randls_72.json,1321004,3767767,49,Woman
49,456982,DepthScenes,duration_manipulation_targetAtFixation,jsons/v1_VE250_randls_72.json,http://54.235.29.9/FacialAge/BNav_EC2/DepthDuration/v2_depth_duration_MTurk/v2_DepthDuration_HTML.html#191,191,1364,625,1364,768,8-29-2022,14-27-17,50,depth_duration_stimuli/000878_2014-06-08_22-52-45_260595134347_rgbf000045-resize_2/000878_2014-06-08_22-52-45_260595134347_rgbf000045-resize_2-target.png,250,2.092,8,5159,249,feet,jsons/v1_VE250_randls_72.json,1321004,3767767,49,Woman
50,456982,DepthScenes,duration_manipulation_targetAtFixation,jsons/v1_VE250_randls_72.json,http://54.235.29.9/FacialAge/BNav_EC2/DepthDuration/v2_depth_duration_MTurk/v2_DepthDuration_HTML.html#191,191,1364,625,1364,768,8-29-2022,14-27-17,51,depth_duration_stimuli/002953_2014-06-08_17-32-18_094959634447_rgbf000059-resize_5/002953_2014-06-08_17-32-18_094959634447_rgbf000059-resize_5-target.png,250,1.551,4,3269,249,feet,jsons/v1_VE250_randls_72.json,1321004,3767767,49,Woman
51,456982,DepthScenes,duration_manipulation_targetAtFixation,jsons/v1_VE250_randls_72.json,http://54.235.29.9/FacialAge/BNav_EC2/DepthDuration/v2_depth_duration_MTurk/v2_DepthDuration_HTML.html#191,191,1364,625,1364,768,8-29-2022,14-27-17,52,depth_duration_stimuli/000493_2014-06-09_21-01-18_260595134347_rgbf000196-resize_3/000493_2014-06-09_21-01-18_260595134347_rgbf000196-resize_3-target.png,250,3.44,1,8559,261,feet,jsons/v1_VE250_randls_72.json,1321004,3767767,49,Woman
52,456982,DepthScenes,duration_manipulation_targetAtFixation,jsons/v1_VE250_randls_72.json,http://54.235.29.9/FacialAge/BNav_EC2/DepthDuration/v2_depth_duration_MTurk/v2_DepthDuration_HTML.html#191,191,1364,625,1364,768,8-29-2022,14-27-17,53,depth_duration_stimuli/000191_2014-05-12_17-07-38_260595134347_rgbf000199-resize_0/000191_2014-05-12_17-07-38_260595134347_rgbf000199-resize_0-target.png,250,3.7995,2,3553,250,feet,jsons/v1_VE250_randls_72.json,1321004,3767767,49,Woman
53,456982,DepthScenes,duration_manipulation_targetAtFixation,jsons/v1_VE250_randls_72.json,http://54.235.29.9/FacialAge/BNav_EC2/DepthDuration/v2_depth_duration_MTurk/v2_DepthDuration_HTML.html#191,191,1364,625,1364,768,8-29-2022,14-27-17,54,depth_duration_stimuli/002549_2014-06-24_13-41-39_094959634447_rgbf000022-resize_3/002549_2014-06-24_13-41-39_094959634447_rgbf000022-resize_3-target.png,250,1.476,3,6765,249,feet,jsons/v1_VE250_randls_72.json,1321004,3767767,49,Woman
54,456982,DepthScenes,duration_manipulation_targetAtFixation,jsons/v1_VE250_randls_72.json,http://54.235.29.9/FacialAge/BNav_EC2/DepthDuration/v2_depth_duration_MTurk/v2_DepthDuration_HTML.html#191,191,1364,625,1364,768,8-29-2022,14-27-17,55,depth_duration_stimuli/002750_2014-06-22_19-08-03_094959634447_rgbf000094-resize_4/002750_2014-06-22_19-08-03_094959634447_rgbf000094-resize_4-target.png,250,2.354,6,3489,254,feet,jsons/v1_VE250_randls_72.json,1321004,3767767,49,Woman
55,456982,DepthScenes,duration_manipulation_targetAtFixation,jsons/v1_VE250_randls_72.json,http://54.235.29.9/FacialAge/BNav_EC2/DepthDuration/v2_depth_duration_MTurk/v2_DepthDuration_HTML.html#191,191,1364,625,1364,768,8-29-2022,14-27-17,56,depth_duration_stimuli/002964_2014-06-08_17-46-11_094959634447_rgbf000091-resize_4/002964_2014-06-08_17-46-11_094959634447_rgbf000091-resize_4-target.png,250,1.6909999999999998,2,6012,250,feet,jsons/v1_VE250_randls_72.json,1321004,3767767,49,Woman
56,456982,DepthScenes,duration_manipulation_targetAtFixation,jsons/v1_VE250_randls_72.json,http://54.235.29.9/FacialAge/BNav_EC2/DepthDuration/v2_depth_duration_MTurk/v2_DepthDuration_HTML.html#191,191,1364,625,1364,768,8-29-2022,14-27-17,57,depth_duration_stimuli/002136_2014-06-25_21-18-03_260595134347_rgbf000109-resize_3/002136_2014-06-25_21-18-03_260595134347_rgbf000109-resize_3-target.png,250,1.9569999999999999,1,2783,243,feet,jsons/v1_VE250_randls_72.json,1321004,3767767,49,Woman
57,456982,DepthScenes,duration_manipulation_targetAtFixation,jsons/v1_VE250_randls_72.json,http://54.235.29.9/FacialAge/BNav_EC2/DepthDuration/v2_depth_duration_MTurk/v2_DepthDuration_HTML.html#191,191,1364,625,1364,768,8-29-2022,14-27-17,58,depth_duration_stimuli/000682_2014-06-08_23-14-58_260595134347_rgbf000041-resize_5/000682_2014-06-08_23-14-58_260595134347_rgbf000041-resize_5-target.png,250,2.7239999999999998,5,5931,251,feet,jsons/v1_VE250_randls_72.json,1321004,3767767,49,Woman
58,456982,DepthScenes,duration_manipulation_targetAtFixation,jsons/v1_VE250_randls_72.json,http://54.235.29.9/FacialAge/BNav_EC2/DepthDuration/v2_depth_duration_MTurk/v2_DepthDuration_HTML.html#191,191,1364,625,1364,768,8-29-2022,14-27-17,59,depth_duration_stimuli/001650_2014-06-20_12-09-00_260595134347_rgbf000087-resize_3/001650_2014-06-20_12-09-00_260595134347_rgbf000087-resize_3-target.png,250,1.9505,8,3460,249,feet,jsons/v1_VE250_randls_72.json,1321004,3767767,49,Woman
59,456982,DepthScenes,duration_manipulation_targetAtFixation,jsons/v1_VE250_randls_72.json,http://54.235.29.9/FacialAge/BNav_EC2/DepthDuration/v2_depth_duration_MTurk/v2_DepthDuration_HTML.html#191,191,1364,625,1364,768,8-29-2022,14-27-17,60,depth_duration_stimuli/001570_2014-06-20_17-21-09_260595134347_rgbf000135-resize_4/001570_2014-06-20_17-21-09_260595134347_rgbf000135-resize_4-target.png,250,4.467,9,4933,248,feet,jsons/v1_VE250_randls_72.json,1321004,3767767,49,Woman
60,456982,DepthScenes,duration_manipulation_targetAtFixation,jsons/v1_VE250_randls_72.json,http://54.235.29.9/FacialAge/BNav_EC2/DepthDuration/v2_depth_duration_MTurk/v2_DepthDuration_HTML.html#191,191,1364,625,1364,768,8-29-2022,14-27-17,61,depth_duration_stimuli/001392_2014-06-19_16-07-59_260595134347_rgbf000046-resize_1/001392_2014-06-19_16-07-59_260595134347_rgbf000046-resize_1-target.png,250,4.135,4,3138,252,feet,jsons/v1_VE250_randls_72.json,1321004,3767767,49,Woman
61,456982,DepthScenes,duration_manipulation_targetAtFixation,jsons/v1_VE250_randls_72.json,http://54.235.29.9/FacialAge/BNav_EC2/DepthDuration/v2_depth_duration_MTurk/v2_DepthDuration_HTML.html#191,191,1364,625,1364,768,8-29-2022,14-27-17,62,depth_duration_stimuli/002988_2014-06-15_12-24-20_094959634447_rgbf000150-resize_1/002988_2014-06-15_12-24-20_094959634447_rgbf000150-resize_1-target.png,250,4.7669999999999995,8,7960,249,feet,jsons/v1_VE250_randls_72.json,1321004,3767767,49,Woman
62,456982,DepthScenes,duration_manipulation_targetAtFixation,jsons/v1_VE250_randls_72.json,http://54.235.29.9/FacialAge/BNav_EC2/DepthDuration/v2_depth_duration_MTurk/v2_DepthDuration_HTML.html#191,191,1364,625,1364,768,8-29-2022,14-27-17,63,depth_duration_stimuli/001052_2014-06-08_18-24-54_260595134347_rgbf000130-resize_1/001052_2014-06-08_18-24-54_260595134347_rgbf000130-resize_1-target.png,250,4.1045,7,5819,248,feet,jsons/v1_VE250_randls_72.json,1321004,3767767,49,Woman
63,456982,DepthScenes,duration_manipulation_targetAtFixation,jsons/v1_VE250_randls_72.json,http://54.235.29.9/FacialAge/BNav_EC2/DepthDuration/v2_depth_duration_MTurk/v2_DepthDuration_HTML.html#191,191,1364,625,1364,768,8-29-2022,14-27-17,64,depth_duration_stimuli/002748_2014-06-22_19-07-22_094959634447_rgbf000078-resize_1/002748_2014-06-22_19-07-22_094959634447_rgbf000078-resize_1-target.png,250,4.6705,5,5869,250,feet,jsons/v1_VE250_randls_72.json,1321004,3767767,49,Woman
64,456982,DepthScenes,duration_manipulation_targetAtFixation,jsons/v1_VE250_randls_72.json,http://54.235.29.9/FacialAge/BNav_EC2/DepthDuration/v2_depth_duration_MTurk/v2_DepthDuration_HTML.html#191,191,1364,625,1364,768,8-29-2022,14-27-17,65,depth_duration_stimuli/002995_2014-06-15_12-31-26_094959634447_rgbf000150-resize_1/002995_2014-06-15_12-31-26_094959634447_rgbf000150-resize_1-target.png,250,3.8360000000000003,6,3888,250,feet,jsons/v1_VE250_randls_72.json,1321004,3767767,49,Woman
65,456982,DepthScenes,duration_manipulation_targetAtFixation,jsons/v1_VE250_randls_72.json,http://54.235.29.9/FacialAge/BNav_EC2/DepthDuration/v2_depth_duration_MTurk/v2_DepthDuration_HTML.html#191,191,1364,625,1364,768,8-29-2022,14-27-17,66,depth_duration_stimuli/001222_2014-06-17_16-24-06_260595134347_rgbf000073-resize_0/001222_2014-06-17_16-24-06_260595134347_rgbf000073-resize-original.jpg,250,1.4385,8,6210,250,feet,jsons/v1_VE250_randls_72.json,1321004,3767767,49,Woman
66,456982,DepthScenes,duration_manipulation_targetAtFixation,jsons/v1_VE250_randls_72.json,http://54.235.29.9/FacialAge/BNav_EC2/DepthDuration/v2_depth_duration_MTurk/v2_DepthDuration_HTML.html#191,191,1364,625,1364,768,8-29-2022,14-27-17,67,depth_duration_stimuli/002725_2014-06-22_11-47-51_094959634447_rgbf000070-resize_1/002725_2014-06-22_11-47-51_094959634447_rgbf000070-resize_1-target.png,250,2.195,5,10379,250,feet,jsons/v1_VE250_randls_72.json,1321004,3767767,49,Woman
67,456982,DepthScenes,duration_manipulation_targetAtFixation,jsons/v1_VE250_randls_72.json,http://54.235.29.9/FacialAge/BNav_EC2/DepthDuration/v2_depth_duration_MTurk/v2_DepthDuration_HTML.html#191,191,1364,625,1364,768,8-29-2022,14-27-17,68,depth_duration_stimuli/002344_2014-06-28_20-06-29_260595134347_rgbf000030-resize_1/002344_2014-06-28_20-06-29_260595134347_rgbf000030-resize_1-target.png,250,1.5795,5,8956,249,feet,jsons/v1_VE250_randls_72.json,1321004,3767767,49,Woman
68,456982,DepthScenes,duration_manipulation_targetAtFixation,jsons/v1_VE250_randls_72.json,http://54.235.29.9/FacialAge/BNav_EC2/DepthDuration/v2_depth_duration_MTurk/v2_DepthDuration_HTML.html#191,191,1364,625,1364,768,8-29-2022,14-27-17,69,depth_duration_stimuli/003621_2014-05-23_18-06-08_094959634447_rgbf000101-resize_1/003621_2014-05-23_18-06-08_094959634447_rgbf000101-resize_1-target.png,250,3.9835,6,6354,250,feet,jsons/v1_VE250_randls_72.json,1321004,3767767,49,Woman
69,456982,DepthScenes,duration_manipulation_targetAtFixation,jsons/v1_VE250_randls_72.json,http://54.235.29.9/FacialAge/BNav_EC2/DepthDuration/v2_depth_duration_MTurk/v2_DepthDuration_HTML.html#191,191,1364,625,1364,768,8-29-2022,14-27-17,70,depth_duration_stimuli/001584_2014-06-20_11-07-43_260595134347_rgbf000002-resize_1/001584_2014-06-20_11-07-43_260595134347_rgbf000002-resize_1-target.png,250,3.53,5,6043,252,feet,jsons/v1_VE250_randls_72.json,1321004,3767767,49,Woman
70,456982,DepthScenes,duration_manipulation_targetAtFixation,jsons/v1_VE250_randls_72.json,http://54.235.29.9/FacialAge/BNav_EC2/DepthDuration/v2_depth_duration_MTurk/v2_DepthDuration_HTML.html#191,191,1364,625,1364,768,8-29-2022,14-27-17,71,depth_duration_stimuli/001059_2014-06-08_21-53-27_260595134347_rgbf000061-resize_4/001059_2014-06-08_21-53-27_260595134347_rgbf000061-resize_4-target.png,250,2.4185,5,5146,250,feet,jsons/v1_VE250_randls_72.json,1321004,3767767,49,Woman
71,456982,DepthScenes,duration_manipulation_targetAtFixation,jsons/v1_VE250_randls_72.json,http://54.235.29.9/FacialAge/BNav_EC2/DepthDuration/v2_depth_duration_MTurk/v2_DepthDuration_HTML.html#191,191,1364,625,1364,768,8-29-2022,14-27-17,72,depth_duration_stimuli/001032_2014-06-08_13-23-17_260595134347_rgbf000021-resize_3/001032_2014-06-08_13-23-17_260595134347_rgbf000021-resize_3-target.png,250,3.2725,6,5517,287,feet,jsons/v1_VE250_randls_72.json,1321004,3767767,49,Woman
72,456982,DepthScenes,duration_manipulation_targetAtFixation,jsons/v1_VE250_randls_72.json,http://54.235.29.9/FacialAge/BNav_EC2/DepthDuration/v2_depth_duration_MTurk/v2_DepthDuration_HTML.html#191,191,1364,625,1364,768,8-29-2022,14-27-17,73,depth_duration_stimuli/000009_2014-05-26_14-32-05_260595134347_rgbf000034-resize_3/000009_2014-05-26_14-32-05_260595134347_rgbf000034-resize_3-target.png,250,3.8715,5,21501,250,feet,jsons/v1_VE250_randls_72.json,1321004,3767767,49,Woman
73,456982,DepthScenes,duration_manipulation_targetAtFixation,jsons/v1_VE250_randls_72.json,http://54.235.29.9/FacialAge/BNav_EC2/DepthDuration/v2_depth_duration_MTurk/v2_DepthDuration_HTML.html#191,191,1364,625,1364,768,8-29-2022,14-27-17,74,depth_duration_stimuli/001828_2014-06-26_21-40-03_260595134347_rgbf000024-resize_0/001828_2014-06-26_21-40-03_260595134347_rgbf000024-resize_0-target.png,250,4.8260000000000005,5,3662,242,feet,jsons/v1_VE250_randls_72.json,1321004,3767767,49,Woman
74,456982,DepthScenes,duration_manipulation_targetAtFixation,jsons/v1_VE250_randls_72.json,http://54.235.29.9/FacialAge/BNav_EC2/DepthDuration/v2_depth_duration_MTurk/v2_DepthDuration_HTML.html#191,191,1364,625,1364,768,8-29-2022,14-27-17,75,depth_duration_stimuli/000642_2014-06-08_16-59-25_260595134347_rgbf000098-resize_2/000642_2014-06-08_16-59-25_260595134347_rgbf000098-resize_2-target.png,250,2.8815,5,8010,250,feet,jsons/v1_VE250_randls_72.json,1321004,3767767,49,Woman
75,456982,DepthScenes,duration_manipulation_targetAtFixation,jsons/v1_VE250_randls_72.json,http://54.235.29.9/FacialAge/BNav_EC2/DepthDuration/v2_depth_duration_MTurk/v2_DepthDuration_HTML.html#191,191,1364,625,1364,768,8-29-2022,14-27-17,76,depth_duration_stimuli/002425_2014-06-28_20-27-29_260595134347_rgbf000031-resize_8/002425_2014-06-28_20-27-29_260595134347_rgbf000031-resize_8-target.png,250,3.8960000000000004,6,3798,249,feet,jsons/v1_VE250_randls_72.json,1321004,3767767,49,Woman
76,456982,DepthScenes,duration_manipulation_targetAtFixation,jsons/v1_VE250_randls_72.json,http://54.235.29.9/FacialAge/BNav_EC2/DepthDuration/v2_depth_duration_MTurk/v2_DepthDuration_HTML.html#191,191,1364,625,1364,768,8-29-2022,14-27-17,77,depth_duration_stimuli/002630_2014-06-24_14-47-50_094959634447_rgbf000055-resize_1/002630_2014-06-24_14-47-50_094959634447_rgbf000055-resize_1-target.png,250,3.0095,8,4780,250,feet,jsons/v1_VE250_randls_72.json,1321004,3767767,49,Woman
77,456982,DepthScenes,duration_manipulation_targetAtFixation,jsons/v1_VE250_randls_72.json,http://54.235.29.9/FacialAge/BNav_EC2/DepthDuration/v2_depth_duration_MTurk/v2_DepthDuration_HTML.html#191,191,1364,625,1364,768,8-29-2022,14-27-17,78,depth_duration_stimuli/002758_2014-06-22_19-11-20_094959634447_rgbf000128-resize_1/002758_2014-06-22_19-11-20_094959634447_rgbf000128-resize_1-target.png,250,2.555,4,3358,250,feet,jsons/v1_VE250_randls_72.json,1321004,3767767,49,Woman
78,456982,DepthScenes,duration_manipulation_targetAtFixation,jsons/v1_VE250_randls_72.json,http://54.235.29.9/FacialAge/BNav_EC2/DepthDuration/v2_depth_duration_MTurk/v2_DepthDuration_HTML.html#191,191,1364,625,1364,768,8-29-2022,14-27-17,79,depth_duration_stimuli/002118_2014-06-25_20-32-08_260595134347_rgbf000078-resize_1/002118_2014-06-25_20-32-08_260595134347_rgbf000078-resize_1-target.png,250,2.6460000000000004,6,6823,251,feet,jsons/v1_VE250_randls_72.json,1321004,3767767,49,Woman
79,456982,DepthScenes,duration_manipulation_targetAtFixation,jsons/v1_VE250_randls_72.json,http://54.235.29.9/FacialAge/BNav_EC2/DepthDuration/v2_depth_duration_MTurk/v2_DepthDuration_HTML.html#191,191,1364,625,1364,768,8-29-2022,14-27-17,80,depth_duration_stimuli/001516_2014-06-20_16-25-09_260595134347_rgbf000076-resize_2/001516_2014-06-20_16-25-09_260595134347_rgbf000076-resize_2-target.png,250,1.7445,5,3708,249,feet,jsons/v1_VE250_randls_72.json,1321004,3767767,49,Woman
80,456982,DepthScenes,duration_manipulation_targetAtFixation,jsons/v1_VE250_randls_72.json,http://54.235.29.9/FacialAge/BNav_EC2/DepthDuration/v2_depth_duration_MTurk/v2_DepthDuration_HTML.html#191,191,1364,625,1364,768,8-29-2022,14-27-17,81,depth_duration_stimuli/001555_2014-06-20_17-12-10_260595134347_rgbf000065-resize_4/001555_2014-06-20_17-12-10_260595134347_rgbf000065-resize_4-target.png,250,1.633,5,4845,249,feet,jsons/v1_VE250_randls_72.json,1321004,3767767,49,Woman
81,456982,DepthScenes,duration_manipulation_targetAtFixation,jsons/v1_VE250_randls_72.json,http://54.235.29.9/FacialAge/BNav_EC2/DepthDuration/v2_depth_duration_MTurk/v2_DepthDuration_HTML.html#191,191,1364,625,1364,768,8-29-2022,14-27-17,82,depth_duration_stimuli/000103_2014-05-14_22-01-17_260595134347_rgbf000152-resize_5/000103_2014-05-14_22-01-17_260595134347_rgbf000152-resize_5-target.png,250,1.993,6,3600,251,feet,jsons/v1_VE250_randls_72.json,1321004,3767767,49,Woman
82,456982,DepthScenes,duration_manipulation_targetAtFixation,jsons/v1_VE250_randls_72.json,http://54.235.29.9/FacialAge/BNav_EC2/DepthDuration/v2_depth_duration_MTurk/v2_DepthDuration_HTML.html#191,191,1364,625,1364,768,8-29-2022,14-27-17,83,depth_duration_stimuli/001029_2014-06-08_13-17-57_260595134347_rgbf000065-resize_1/001029_2014-06-08_13-17-57_260595134347_rgbf000065-resize_1-target.png,250,3.0835,5,5109,251,feet,jsons/v1_VE250_randls_72.json,1321004,3767767,49,Woman
83,456982,DepthScenes,duration_manipulation_targetAtFixation,jsons/v1_VE250_randls_72.json,http://54.235.29.9/FacialAge/BNav_EC2/DepthDuration/v2_depth_duration_MTurk/v2_DepthDuration_HTML.html#191,191,1364,625,1364,768,8-29-2022,14-27-17,84,depth_duration_stimuli/000677_2014-06-08_23-10-32_260595134347_rgbf000158-resize_6/000677_2014-06-08_23-10-32_260595134347_rgbf000158-resize_6-target.png,250,3.556,6,6552,249,feet,jsons/v1_VE250_randls_72.json,1321004,3767767,49,Woman
84,456982,DepthScenes,duration_manipulation_targetAtFixation,jsons/v1_VE250_randls_72.json,http://54.235.29.9/FacialAge/BNav_EC2/DepthDuration/v2_depth_duration_MTurk/v2_DepthDuration_HTML.html#191,191,1364,625,1364,768,8-29-2022,14-27-17,85,depth_duration_stimuli/003070_2014-06-15_14-58-27_094959634447_rgbf000150-resize_3/003070_2014-06-15_14-58-27_094959634447_rgbf000150-resize_3-target.png,250,2.9415,5,18615,251,feet,jsons/v1_VE250_randls_72.json,1321004,3767767,49,Woman
85,456982,DepthScenes,duration_manipulation_targetAtFixation,jsons/v1_VE250_randls_72.json,http://54.235.29.9/FacialAge/BNav_EC2/DepthDuration/v2_depth_duration_MTurk/v2_DepthDuration_HTML.html#191,191,1364,625,1364,768,8-29-2022,14-27-17,86,depth_duration_stimuli/000943_2014-06-09_19-31-07_260595134347_rgbf000128-resize_1/000943_2014-06-09_19-31-07_260595134347_rgbf000128-resize_1-target.png,250,1.9765,5,5967,249,feet,jsons/v1_VE250_randls_72.json,1321004,3767767,49,Woman
86,456982,DepthScenes,duration_manipulation_targetAtFixation,jsons/v1_VE250_randls_72.json,http://54.235.29.9/FacialAge/BNav_EC2/DepthDuration/v2_depth_duration_MTurk/v2_DepthDuration_HTML.html#191,191,1364,625,1364,768,8-29-2022,14-27-17,87,depth_duration_stimuli/000506_2014-06-08_23-21-00_260595134347_rgbf000070-resize_7/000506_2014-06-08_23-21-00_260595134347_rgbf000070-resize_7-target.png,250,4.0585,5,5751,250,feet,jsons/v1_VE250_randls_72.json,1321004,3767767,49,Woman
87,456982,DepthScenes,duration_manipulation_targetAtFixation,jsons/v1_VE250_randls_72.json,http://54.235.29.9/FacialAge/BNav_EC2/DepthDuration/v2_depth_duration_MTurk/v2_DepthDuration_HTML.html#191,191,1364,625,1364,768,8-29-2022,14-27-17,88,depth_duration_stimuli/003079_2014-06-15_15-18-20_094959634447_rgbf000152-resize_8/003079_2014-06-15_15-18-20_094959634447_rgbf000152-resize_8-target.png,250,2.8775,6,3520,246,feet,jsons/v1_VE250_randls_72.json,1321004,3767767,49,Woman
88,456982,DepthScenes,duration_manipulation_targetAtFixation,jsons/v1_VE250_randls_72.json,http://54.235.29.9/FacialAge/BNav_EC2/DepthDuration/v2_depth_duration_MTurk/v2_DepthDuration_HTML.html#191,191,1364,625,1364,768,8-29-2022,14-27-17,89,depth_duration_stimuli/001158_2014-06-17_15-32-16_260595134347_rgbf000138-resize_2/001158_2014-06-17_15-32-16_260595134347_rgbf000138-resize_2-target.png,250,4.5315,5,4719,214,feet,jsons/v1_VE250_randls_72.json,1321004,3767767,49,Woman
89,456982,DepthScenes,duration_manipulation_targetAtFixation,jsons/v1_VE250_randls_72.json,http://54.235.29.9/FacialAge/BNav_EC2/DepthDuration/v2_depth_duration_MTurk/v2_DepthDuration_HTML.html#191,191,1364,625,1364,768,8-29-2022,14-27-17,90,depth_duration_stimuli/000556_2014-06-09_22-42-56_260595134347_rgbf000214-resize_1/000556_2014-06-09_22-42-56_260595134347_rgbf000214-resize_1-target.png,250,4.8415,5,12358,250,feet,jsons/v1_VE250_randls_72.json,1321004,3767767,49,Woman
90,456982,DepthScenes,duration_manipulation_targetAtFixation,jsons/v1_VE250_randls_72.json,http://54.235.29.9/FacialAge/BNav_EC2/DepthDuration/v2_depth_duration_MTurk/v2_DepthDuration_HTML.html#191,191,1364,625,1364,768,8-29-2022,14-27-17,91,depth_duration_stimuli/002153_2014-06-25_21-27-18_260595134347_rgbf000038-resize_5/002153_2014-06-25_21-27-18_260595134347_rgbf000038-resize_5-target.png,250,2.505,8,3868,249,feet,jsons/v1_VE250_randls_72.json,1321004,3767767,49,Woman
91,456982,DepthScenes,duration_manipulation_targetAtFixation,jsons/v1_VE250_randls_72.json,http://54.235.29.9/FacialAge/BNav_EC2/DepthDuration/v2_depth_duration_MTurk/v2_DepthDuration_HTML.html#191,191,1364,625,1364,768,8-29-2022,14-27-17,92,depth_duration_stimuli/002660_2014-06-13_15-44-18_094959634447_rgbf001878-resize_2/002660_2014-06-13_15-44-18_094959634447_rgbf001878-resize_2-target.png,250,3.576,6,6804,246,feet,jsons/v1_VE250_randls_72.json,1321004,3767767,49,Woman
92,456982,DepthScenes,duration_manipulation_targetAtFixation,jsons/v1_VE250_randls_72.json,http://54.235.29.9/FacialAge/BNav_EC2/DepthDuration/v2_depth_duration_MTurk/v2_DepthDuration_HTML.html#191,191,1364,625,1364,768,8-29-2022,14-27-17,93,depth_duration_stimuli/002905_2014-06-03_18-04-43_094959634447_rgbf000151-resize_2/002905_2014-06-03_18-04-43_094959634447_rgbf000151-resize_2-target.png,250,2.0295,9,11337,250,feet,jsons/v1_VE250_randls_72.json,1321004,3767767,49,Woman
93,456982,DepthScenes,duration_manipulation_targetAtFixation,jsons/v1_VE250_randls_72.json,http://54.235.29.9/FacialAge/BNav_EC2/DepthDuration/v2_depth_duration_MTurk/v2_DepthDuration_HTML.html#191,191,1364,625,1364,768,8-29-2022,14-27-17,94,depth_duration_stimuli/003423_2014-05-21_10-23-26_094959634447_rgbf002665-resize_2/003423_2014-05-21_10-23-26_094959634447_rgbf002665-resize_2-target.png,250,3.2575,2,5684,212,feet,jsons/v1_VE250_randls_72.json,1321004,3767767,49,Woman
94,456982,DepthScenes,duration_manipulation_targetAtFixation,jsons/v1_VE250_randls_72.json,http://54.235.29.9/FacialAge/BNav_EC2/DepthDuration/v2_depth_duration_MTurk/v2_DepthDuration_HTML.html#191,191,1364,625,1364,768,8-29-2022,14-27-17,95,depth_duration_stimuli/000736_2014-06-08_18-24-15_260595134347_rgbf000206-resize_3/000736_2014-06-08_18-24-15_260595134347_rgbf000206-resize_3-target.png,250,3.515,6,6379,250,feet,jsons/v1_VE250_randls_72.json,1321004,3767767,49,Woman
95,456982,DepthScenes,duration_manipulation_targetAtFixation,jsons/v1_VE250_randls_72.json,http://54.235.29.9/FacialAge/BNav_EC2/DepthDuration/v2_depth_duration_MTurk/v2_DepthDuration_HTML.html#191,191,1364,625,1364,768,8-29-2022,14-27-17,96,depth_duration_stimuli/000137_2014-05-20_17-04-49_260595134347_rgbf000120-resize_1/000137_2014-05-20_17-04-49_260595134347_rgbf000120-resize_1-target.png,250,3.786,5,4668,249,feet,jsons/v1_VE250_randls_72.json,1321004,3767767,49,Woman
96,456982,DepthScenes,duration_manipulation_targetAtFixation,jsons/v1_VE250_randls_72.json,http://54.235.29.9/FacialAge/BNav_EC2/DepthDuration/v2_depth_duration_MTurk/v2_DepthDuration_HTML.html#191,191,1364,625,1364,768,8-29-2022,14-27-17,97,depth_duration_stimuli/002043_2014-06-24_20-29-38_260595134347_rgbf000039-resize_4/002043_2014-06-24_20-29-38_260595134347_rgbf000039-resize_4-target.png,250,2.8435,6,5450,257,feet,jsons/v1_VE250_randls_72.json,1321004,3767767,49,Woman
97,456982,DepthScenes,duration_manipulation_targetAtFixation,jsons/v1_VE250_randls_72.json,http://54.235.29.9/FacialAge/BNav_EC2/DepthDuration/v2_depth_duration_MTurk/v2_DepthDuration_HTML.html#191,191,1364,625,1364,768,8-29-2022,14-27-17,98,depth_duration_stimuli/003048_2014-06-15_13-49-43_094959634447_rgbf000150-resize_1/003048_2014-06-15_13-49-43_094959634447_rgbf000150-resize_1-target.png,250,4.0035,5,3689,250,feet,jsons/v1_VE250_randls_72.json,1321004,3767767,49,Woman
98,456982,DepthScenes,duration_manipulation_targetAtFixation,jsons/v1_VE250_randls_72.json,http://54.235.29.9/FacialAge/BNav_EC2/DepthDuration/v2_depth_duration_MTurk/v2_DepthDuration_HTML.html#191,191,1364,625,1364,768,8-29-2022,14-27-17,99,depth_duration_stimuli/001540_2014-06-20_17-01-05_260595134347_rgbf000086-resize_2/001540_2014-06-20_17-01-05_260595134347_rgbf000086-resize-original.jpg,250,1.459,5,6769,250,feet,jsons/v1_VE250_randls_72.json,1321004,3767767,49,Woman
99,456982,DepthScenes,duration_manipulation_targetAtFixation,jsons/v1_VE250_randls_72.json,http://54.235.29.9/FacialAge/BNav_EC2/DepthDuration/v2_depth_duration_MTurk/v2_DepthDuration_HTML.html#191,191,1364,625,1364,768,8-29-2022,14-27-17,100,depth_duration_stimuli/002600_2014-06-24_14-27-04_094959634447_rgbf000074-resize_2/002600_2014-06-24_14-27-04_094959634447_rgbf000074-resize_2-target.png,250,2.7575,5,5316,249,feet,jsons/v1_VE250_randls_72.json,1321004,3767767,49,Woman
100,456982,DepthScenes,duration_manipulation_targetAtFixation,jsons/v1_VE250_randls_72.json,http://54.235.29.9/FacialAge/BNav_EC2/DepthDuration/v2_depth_duration_MTurk/v2_DepthDuration_HTML.html#191,191,1364,625,1364,768,8-29-2022,14-27-17,101,depth_duration_stimuli/003228_2014-05-14_13-42-35_094959634447_rgbf000101-resize_1/003228_2014-05-14_13-42-35_094959634447_rgbf000101-resize_1-target.png,250,1.9680000000000002,2,3304,251,feet,jsons/v1_VE250_randls_72.json,1321004,3767767,49,Woman
101,456982,DepthScenes,duration_manipulation_targetAtFixation,jsons/v1_VE250_randls_72.json,http://54.235.29.9/FacialAge/BNav_EC2/DepthDuration/v2_depth_duration_MTurk/v2_DepthDuration_HTML.html#191,191,1364,625,1364,768,8-29-2022,14-27-17,102,depth_duration_stimuli/002445_2014-06-28_20-32-16_260595134347_rgbf000029-resize_4/002445_2014-06-28_20-32-16_260595134347_rgbf000029-resize_4-target.png,250,2.5315,5,5070,253,feet,jsons/v1_VE250_randls_72.json,1321004,3767767,49,Woman
102,456982,DepthScenes,duration_manipulation_targetAtFixation,jsons/v1_VE250_randls_72.json,http://54.235.29.9/FacialAge/BNav_EC2/DepthDuration/v2_depth_duration_MTurk/v2_DepthDuration_HTML.html#191,191,1364,625,1364,768,8-29-2022,14-27-17,103,depth_duration_stimuli/000780_2014-06-08_22-28-29_260595134347_rgbf000126-resize_1/000780_2014-06-08_22-28-29_260595134347_rgbf000126-resize_1-target.png,250,3.3825,5,2688,250,feet,jsons/v1_VE250_randls_72.json,1321004,3767767,49,Woman
103,456982,DepthScenes,duration_manipulation_targetAtFixation,jsons/v1_VE250_randls_72.json,http://54.235.29.9/FacialAge/BNav_EC2/DepthDuration/v2_depth_duration_MTurk/v2_DepthDuration_HTML.html#191,191,1364,625,1364,768,8-29-2022,14-27-17,104,depth_duration_stimuli/002039_2014-06-24_20-22-38_260595134347_rgbf000084-resize_1/002039_2014-06-24_20-22-38_260595134347_rgbf000084-resize_1-target.png,250,4.408,5,7140,250,feet,jsons/v1_VE250_randls_72.json,1321004,3767767,49,Woman
104,456982,DepthScenes,duration_manipulation_targetAtFixation,jsons/v1_VE250_randls_72.json,http://54.235.29.9/FacialAge/BNav_EC2/DepthDuration/v2_depth_duration_MTurk/v2_DepthDuration_HTML.html#191,191,1364,625,1364,768,8-29-2022,14-27-17,105,depth_duration_stimuli/002103_2014-06-25_20-00-40_260595134347_rgbf000049-resize_0/002103_2014-06-25_20-00-40_260595134347_rgbf000049-resize_0-target.png,250,4.105,2,18268,250,feet,jsons/v1_VE250_randls_72.json,1321004,3767767,49,Woman
105,456982,DepthScenes,duration_manipulation_targetAtFixation,jsons/v1_VE250_randls_72.json,http://54.235.29.9/FacialAge/BNav_EC2/DepthDuration/v2_depth_duration_MTurk/v2_DepthDuration_HTML.html#191,191,1364,625,1364,768,8-29-2022,14-27-17,106,depth_duration_stimuli/002788_2014-06-22_19-36-03_094959634447_rgbf000088-resize_2/002788_2014-06-22_19-36-03_094959634447_rgbf000088-resize_2-target.png,250,1.6465,5,4980,250,feet,jsons/v1_VE250_randls_72.json,1321004,3767767,49,Woman
106,456982,DepthScenes,duration_manipulation_targetAtFixation,jsons/v1_VE250_randls_72.json,http://54.235.29.9/FacialAge/BNav_EC2/DepthDuration/v2_depth_duration_MTurk/v2_DepthDuration_HTML.html#191,191,1364,625,1364,768,8-29-2022,14-27-17,107,depth_duration_stimuli/000749_2014-06-08_21-55-06_260595134347_rgbf000070-resize_2/000749_2014-06-08_21-55-06_260595134347_rgbf000070-resize_2-target.png,250,2.331,6,5928,250,feet,jsons/v1_VE250_randls_72.json,1321004,3767767,49,Woman
107,456982,DepthScenes,duration_manipulation_targetAtFixation,jsons/v1_VE250_randls_72.json,http://54.235.29.9/FacialAge/BNav_EC2/DepthDuration/v2_depth_duration_MTurk/v2_DepthDuration_HTML.html#191,191,1364,625,1364,768,8-29-2022,14-27-17,108,depth_duration_stimuli/000692_2014-06-08_13-09-42_260595134347_rgbf000199-resize_2/000692_2014-06-08_13-09-42_260595134347_rgbf000199-resize_2-target.png,250,3.661,5,5091,251,feet,jsons/v1_VE250_randls_72.json,1321004,3767767,49,Woman
108,456982,DepthScenes,duration_manipulation_targetAtFixation,jsons/v1_VE250_randls_72.json,http://54.235.29.9/FacialAge/BNav_EC2/DepthDuration/v2_depth_duration_MTurk/v2_DepthDuration_HTML.html#191,191,1364,625,1364,768,8-29-2022,14-27-17,109,depth_duration_stimuli/001094_2014-06-15_17-36-00_260595134347_rgbf000205-resize_0/001094_2014-06-15_17-36-00_260595134347_rgbf000205-resize_0-target.png,250,4.2175,6,6129,250,feet,jsons/v1_VE250_randls_72.json,1321004,3767767,49,Woman
109,456982,DepthScenes,duration_manipulation_targetAtFixation,jsons/v1_VE250_randls_72.json,http://54.235.29.9/FacialAge/BNav_EC2/DepthDuration/v2_depth_duration_MTurk/v2_DepthDuration_HTML.html#191,191,1364,625,1364,768,8-29-2022,14-27-17,110,depth_duration_stimuli/002509_2014-06-24_13-19-22_094959634447_rgbf000077-resize_0/002509_2014-06-24_13-19-22_094959634447_rgbf000077-resize_0-target.png,250,1.3065,5,22736,207,feet,jsons/v1_VE250_randls_72.json,1321004,3767767,49,Woman
110,456982,DepthScenes,duration_manipulation_targetAtFixation,jsons/v1_VE250_randls_72.json,http://54.235.29.9/FacialAge/BNav_EC2/DepthDuration/v2_depth_duration_MTurk/v2_DepthDuration_HTML.html#191,191,1364,625,1364,768,8-29-2022,14-27-17,111,depth_duration_stimuli/003338_2014-05-20_11-01-23_094959634447_rgbf000051-resize_6/003338_2014-05-20_11-01-23_094959634447_rgbf000051-resize_6-target.png,250,1.693,2,12569,248,feet,jsons/v1_VE250_randls_72.json,1321004,3767767,49,Woman
111,456982,DepthScenes,duration_manipulation_targetAtFixation,jsons/v1_VE250_randls_72.json,http://54.235.29.9/FacialAge/BNav_EC2/DepthDuration/v2_depth_duration_MTurk/v2_DepthDuration_HTML.html#191,191,1364,625,1364,768,8-29-2022,14-27-17,112,depth_duration_stimuli/000906_2014-06-08_13-35-43_260595134347_rgbf000155-resize_1/000906_2014-06-08_13-35-43_260595134347_rgbf000155-resize_1-target.png,250,2.8489999999999998,2,5138,250,feet,jsons/v1_VE250_randls_72.json,1321004,3767767,49,Woman
112,456982,DepthScenes,duration_manipulation_targetAtFixation,jsons/v1_VE250_randls_72.json,http://54.235.29.9/FacialAge/BNav_EC2/DepthDuration/v2_depth_duration_MTurk/v2_DepthDuration_HTML.html#191,191,1364,625,1364,768,8-29-2022,14-27-17,113,depth_duration_stimuli/002805_2014-06-22_19-54-03_094959634447_rgbf000079-resize_1/002805_2014-06-22_19-54-03_094959634447_rgbf000079-resize_1-target.png,250,3.1439999999999997,5,3949,251,feet,jsons/v1_VE250_randls_72.json,1321004,3767767,49,Woman
113,456982,DepthScenes,duration_manipulation_targetAtFixation,jsons/v1_VE250_randls_72.json,http://54.235.29.9/FacialAge/BNav_EC2/DepthDuration/v2_depth_duration_MTurk/v2_DepthDuration_HTML.html#191,191,1364,625,1364,768,8-29-2022,14-27-17,114,depth_duration_stimuli/001244_2014-06-17_16-47-45_260595134347_rgbf000030-resize_4/001244_2014-06-17_16-47-45_260595134347_rgbf000030-resize_4-target.png,250,2.0425,6,7719,250,feet,jsons/v1_VE250_randls_72.json,1321004,3767767,49,Woman
114,456982,DepthScenes,duration_manipulation_targetAtFixation,jsons/v1_VE250_randls_72.json,http://54.235.29.9/FacialAge/BNav_EC2/DepthDuration/v2_depth_duration_MTurk/v2_DepthDuration_HTML.html#191,191,1364,625,1364,768,8-29-2022,14-27-17,115,depth_duration_stimuli/003495_2014-05-21_16-01-51_094959634447_rgbf000100-resize_3/003495_2014-05-21_16-01-51_094959634447_rgbf000100-resize_3-target.png,250,1.6255,3,13793,268,feet,jsons/v1_VE250_randls_72.json,1321004,3767767,49,Woman
115,456982,DepthScenes,duration_manipulation_targetAtFixation,jsons/v1_VE250_randls_72.json,http://54.235.29.9/FacialAge/BNav_EC2/DepthDuration/v2_depth_duration_MTurk/v2_DepthDuration_HTML.html#191,191,1364,625,1364,768,8-29-2022,14-27-17,116,depth_duration_stimuli/001170_2014-06-17_15-43-44_260595134347_rgbf000096-resize_6/001170_2014-06-17_15-43-44_260595134347_rgbf000096-resize-original.jpg,250,1.1909999999999998,5,32338,251,feet,jsons/v1_VE250_randls_72.json,1321004,3767767,49,Woman
116,456982,DepthScenes,duration_manipulation_targetAtFixation,jsons/v1_VE250_randls_72.json,http://54.235.29.9/FacialAge/BNav_EC2/DepthDuration/v2_depth_duration_MTurk/v2_DepthDuration_HTML.html#191,191,1364,625,1364,768,8-29-2022,14-27-17,117,depth_duration_stimuli/003534_2014-05-22_15-06-10_094959634447_rgbf000102-resize_4/003534_2014-05-22_15-06-10_094959634447_rgbf000102-resize_4-target.png,250,1.426,5,6235,249,feet,jsons/v1_VE250_randls_72.json,1321004,3767767,49,Woman
117,456982,DepthScenes,duration_manipulation_targetAtFixation,jsons/v1_VE250_randls_72.json,http://54.235.29.9/FacialAge/BNav_EC2/DepthDuration/v2_depth_duration_MTurk/v2_DepthDuration_HTML.html#191,191,1364,625,1364,768,8-29-2022,14-27-17,118,depth_duration_stimuli/002637_2014-06-24_14-51-13_094959634447_rgbf000066-resize_4/002637_2014-06-24_14-51-13_094959634447_rgbf000066-resize_4-target.png,250,1.9955,6,3630,250,feet,jsons/v1_VE250_randls_72.json,1321004,3767767,49,Woman
118,456982,DepthScenes,duration_manipulation_targetAtFixation,jsons/v1_VE250_randls_72.json,http://54.235.29.9/FacialAge/BNav_EC2/DepthDuration/v2_depth_duration_MTurk/v2_DepthDuration_HTML.html#191,191,1364,625,1364,768,8-29-2022,14-27-17,119,depth_duration_stimuli/002279_2014-06-28_18-55-32_260595134347_rgbf000040-resize_5/002279_2014-06-28_18-55-32_260595134347_rgbf000040-resize_5-target.png,250,1.5043333333333,5,5389,251,feet,jsons/v1_VE250_randls_72.json,1321004,3767767,49,Woman
119,456982,DepthScenes,duration_manipulation_targetAtFixation,jsons/v1_VE250_randls_72.json,http://54.235.29.9/FacialAge/BNav_EC2/DepthDuration/v2_depth_duration_MTurk/v2_DepthDuration_HTML.html#191,191,1364,625,1364,768,8-29-2022,14-27-17,120,depth_duration_stimuli/000635_2014-06-08_16-38-42_260595134347_rgbf000106-resize_1/000635_2014-06-08_16-38-42_260595134347_rgbf000106-resize_1-target.png,250,2.074,6,7070,251,feet,jsons/v1_VE250_randls_72.json,1321004,3767767,49,Woman
120,456982,DepthScenes,duration_manipulation_targetAtFixation,jsons/v1_VE250_randls_72.json,http://54.235.29.9/FacialAge/BNav_EC2/DepthDuration/v2_depth_duration_MTurk/v2_DepthDuration_HTML.html#191,191,1364,625,1364,768,8-29-2022,14-27-17,121,depth_duration_stimuli/002272_2014-06-28_18-53-56_260595134347_rgbf000067-resize_2/002272_2014-06-28_18-53-56_260595134347_rgbf000067-resize_2-target.png,250,1.138,5,5791,249,feet,jsons/v1_VE250_randls_72.json,1321004,3767767,49,Woman
121,456982,DepthScenes,duration_manipulation_targetAtFixation,jsons/v1_VE250_randls_72.json,http://54.235.29.9/FacialAge/BNav_EC2/DepthDuration/v2_depth_duration_MTurk/v2_DepthDuration_HTML.html#191,191,1364,625,1364,768,8-29-2022,14-27-17,122,depth_duration_stimuli/001571_2014-06-20_17-21-32_260595134347_rgbf000089-resize_1/001571_2014-06-20_17-21-32_260595134347_rgbf000089-resize_1-target.png,250,1.86,5,9238,250,feet,jsons/v1_VE250_randls_72.json,1321004,3767767,49,Woman
122,456982,DepthScenes,duration_manipulation_targetAtFixation,jsons/v1_VE250_randls_72.json,http://54.235.29.9/FacialAge/BNav_EC2/DepthDuration/v2_depth_duration_MTurk/v2_DepthDuration_HTML.html#191,191,1364,625,1364,768,8-29-2022,14-27-17,123,depth_duration_stimuli/001011_2014-06-08_23-18-54_260595134347_rgbf000044-resize_4/001011_2014-06-08_23-18-54_260595134347_rgbf000044-resize_4-target.png,250,2.4730000000000003,5,11409,251,feet,jsons/v1_VE250_randls_72.json,1321004,3767767,49,Woman
123,456982,DepthScenes,duration_manipulation_targetAtFixation,jsons/v1_VE250_randls_72.json,http://54.235.29.9/FacialAge/BNav_EC2/DepthDuration/v2_depth_duration_MTurk/v2_DepthDuration_HTML.html#191,191,1364,625,1364,768,8-29-2022,14-27-17,124,depth_duration_stimuli/002875_2014-06-01_15-19-00_094959634447_rgbf000151-resize_1/002875_2014-06-01_15-19-00_094959634447_rgbf000151-resize_1-target.png,250,1.9675,6,3647,249,feet,jsons/v1_VE250_randls_72.json,1321004,3767767,49,Woman
124,456982,DepthScenes,duration_manipulation_targetAtFixation,jsons/v1_VE250_randls_72.json,http://54.235.29.9/FacialAge/BNav_EC2/DepthDuration/v2_depth_duration_MTurk/v2_DepthDuration_HTML.html#191,191,1364,625,1364,768,8-29-2022,14-27-17,125,depth_duration_stimuli/000773_2014-06-08_22-24-54_260595134347_rgbf000093-resize_1/000773_2014-06-08_22-24-54_260595134347_rgbf000093-resize_1-target.png,250,4.973,6,10408,251,feet,jsons/v1_VE250_randls_72.json,1321004,3767767,49,Woman
125,456982,DepthScenes,duration_manipulation_targetAtFixation,jsons/v1_VE250_randls_72.json,http://54.235.29.9/FacialAge/BNav_EC2/DepthDuration/v2_depth_duration_MTurk/v2_DepthDuration_HTML.html#191,191,1364,625,1364,768,8-29-2022,14-27-17,126,depth_duration_stimuli/002414_2014-06-28_20-24-58_260595134347_rgbf000067-resize_4/002414_2014-06-28_20-24-58_260595134347_rgbf000067-resize_4-target.png,250,4.363,5,9060,250,feet,jsons/v1_VE250_randls_72.json,1321004,3767767,49,Woman
126,456982,DepthScenes,duration_manipulation_targetAtFixation,jsons/v1_VE250_randls_72.json,http://54.235.29.9/FacialAge/BNav_EC2/DepthDuration/v2_depth_duration_MTurk/v2_DepthDuration_HTML.html#191,191,1364,625,1364,768,8-29-2022,14-27-17,127,depth_duration_stimuli/001055_2014-06-08_18-45-35_260595134347_rgbf000111-resize_4/001055_2014-06-08_18-45-35_260595134347_rgbf000111-resize_4-target.png,250,2.4290000000000003,5,15208,250,feet,jsons/v1_VE250_randls_72.json,1321004,3767767,49,Woman
127,456982,DepthScenes,duration_manipulation_targetAtFixation,jsons/v1_VE250_randls_72.json,http://54.235.29.9/FacialAge/BNav_EC2/DepthDuration/v2_depth_duration_MTurk/v2_DepthDuration_HTML.html#191,191,1364,625,1364,768,8-29-2022,14-27-17,128,depth_duration_stimuli/000549_2014-06-08_22-10-24_260595134347_rgbf000247-resize_3/000549_2014-06-08_22-10-24_260595134347_rgbf000247-resize_3-target.png,250,1.841,5,14219,252,feet,jsons/v1_VE250_randls_72.json,1321004,3767767,49,Woman
128,456982,DepthScenes,duration_manipulation_targetAtFixation,jsons/v1_VE250_randls_72.json,http://54.235.29.9/FacialAge/BNav_EC2/DepthDuration/v2_depth_duration_MTurk/v2_DepthDuration_HTML.html#191,191,1364,625,1364,768,8-29-2022,14-27-17,129,depth_duration_stimuli/000917_2014-06-09_22-45-29_260595134347_rgbf000149-resize_3/000917_2014-06-09_22-45-29_260595134347_rgbf000149-resize_3-target.png,250,4.1865,5,9487,253,feet,jsons/v1_VE250_randls_72.json,1321004,3767767,49,Woman
129,456982,DepthScenes,duration_manipulation_targetAtFixation,jsons/v1_VE250_randls_72.json,http://54.235.29.9/FacialAge/BNav_EC2/DepthDuration/v2_depth_duration_MTurk/v2_DepthDuration_HTML.html#191,191,1364,625,1364,768,8-29-2022,14-27-17,130,depth_duration_stimuli/002323_2014-06-28_20-01-54_260595134347_rgbf000051-resize_4/002323_2014-06-28_20-01-54_260595134347_rgbf000051-resize_4-target.png,250,3.7310000000000003,6,7189,250,feet,jsons/v1_VE250_randls_72.json,1321004,3767767,49,Woman
130,456982,DepthScenes,duration_manipulation_targetAtFixation,jsons/v1_VE250_randls_72.json,http://54.235.29.9/FacialAge/BNav_EC2/DepthDuration/v2_depth_duration_MTurk/v2_DepthDuration_HTML.html#191,191,1364,625,1364,768,8-29-2022,14-27-17,131,depth_duration_stimuli/002057_2014-06-24_21-00-13_260595134347_rgbf000120-resize_1/002057_2014-06-24_21-00-13_260595134347_rgbf000120-resize_1-target.png,250,2.967,5,6937,248,feet,jsons/v1_VE250_randls_72.json,1321004,3767767,49,Woman
131,456982,DepthScenes,duration_manipulation_targetAtFixation,jsons/v1_VE250_randls_72.json,http://54.235.29.9/FacialAge/BNav_EC2/DepthDuration/v2_depth_duration_MTurk/v2_DepthDuration_HTML.html#191,191,1364,625,1364,768,8-29-2022,14-27-17,132,depth_duration_stimuli/000709_2014-06-08_13-51-55_260595134347_rgbf000068-resize_3/000709_2014-06-08_13-51-55_260595134347_rgbf000068-resize_3-target.png,250,1.8030000000000002,6,3438,250,feet,jsons/v1_VE250_randls_72.json,1321004,3767767,49,Woman
132,456982,DepthScenes,duration_manipulation_targetAtFixation,jsons/v1_VE250_randls_72.json,http://54.235.29.9/FacialAge/BNav_EC2/DepthDuration/v2_depth_duration_MTurk/v2_DepthDuration_HTML.html#191,191,1364,625,1364,768,8-29-2022,14-27-17,133,depth_duration_stimuli/002989_2014-06-15_12-25-03_094959634447_rgbf000150-resize_3/002989_2014-06-15_12-25-03_094959634447_rgbf000150-resize_3-target.png,250,4.1975,5,8629,249,feet,jsons/v1_VE250_randls_72.json,1321004,3767767,49,Woman
133,456982,DepthScenes,duration_manipulation_targetAtFixation,jsons/v1_VE250_randls_72.json,http://54.235.29.9/FacialAge/BNav_EC2/DepthDuration/v2_depth_duration_MTurk/v2_DepthDuration_HTML.html#191,191,1364,625,1364,768,8-29-2022,14-27-17,134,depth_duration_stimuli/000866_2014-06-09_20-45-42_260595134347_rgbf000139-resize_1/000866_2014-06-09_20-45-42_260595134347_rgbf000139-resize_1-target.png,250,3.2155,5,3318,250,feet,jsons/v1_VE250_randls_72.json,1321004,3767767,49,Woman
134,456982,DepthScenes,duration_manipulation_targetAtFixation,jsons/v1_VE250_randls_72.json,http://54.235.29.9/FacialAge/BNav_EC2/DepthDuration/v2_depth_duration_MTurk/v2_DepthDuration_HTML.html#191,191,1364,625,1364,768,8-29-2022,14-27-17,135,depth_duration_stimuli/002072_2014-06-24_21-48-06_260595134347_rgbf000115-resize_0/002072_2014-06-24_21-48-06_260595134347_rgbf000115-resize-original.jpg,250,4.702,5,10061,250,feet,jsons/v1_VE250_randls_72.json,1321004,3767767,49,Woman
135,456982,DepthScenes,duration_manipulation_targetAtFixation,jsons/v1_VE250_randls_72.json,http://54.235.29.9/FacialAge/BNav_EC2/DepthDuration/v2_depth_duration_MTurk/v2_DepthDuration_HTML.html#191,191,1364,625,1364,768,8-29-2022,14-27-17,136,depth_duration_stimuli/001133_2014-06-17_14-49-16_260595134347_rgbf000100-resize_0/001133_2014-06-17_14-49-16_260595134347_rgbf000100-resize_0-target.png,250,4.2115,5,6917,248,feet,jsons/v1_VE250_randls_72.json,1321004,3767767,49,Woman
136,456982,DepthScenes,duration_manipulation_targetAtFixation,jsons/v1_VE250_randls_72.json,http://54.235.29.9/FacialAge/BNav_EC2/DepthDuration/v2_depth_duration_MTurk/v2_DepthDuration_HTML.html#191,191,1364,625,1364,768,8-29-2022,14-27-17,137,depth_duration_stimuli/001132_2014-06-17_14-48-54_260595134347_rgbf000100-resize_2/001132_2014-06-17_14-48-54_260595134347_rgbf000100-resize_2-target.png,250,3.753,6,3913,251,feet,jsons/v1_VE250_randls_72.json,1321004,3767767,49,Woman
137,456982,DepthScenes,duration_manipulation_targetAtFixation,jsons/v1_VE250_randls_72.json,http://54.235.29.9/FacialAge/BNav_EC2/DepthDuration/v2_depth_duration_MTurk/v2_DepthDuration_HTML.html#191,191,1364,625,1364,768,8-29-2022,14-27-17,138,depth_duration_stimuli/000469_2014-06-09_19-42-10_260595134347_rgbf000081-resize_1/000469_2014-06-09_19-42-10_260595134347_rgbf000081-resize_1-target.png,250,1.652,5,4815,249,feet,jsons/v1_VE250_randls_72.json,1321004,3767767,49,Woman
138,456982,DepthScenes,duration_manipulation_targetAtFixation,jsons/v1_VE250_randls_72.json,http://54.235.29.9/FacialAge/BNav_EC2/DepthDuration/v2_depth_duration_MTurk/v2_DepthDuration_HTML.html#191,191,1364,625,1364,768,8-29-2022,14-27-17,139,depth_duration_stimuli/000483_2014-06-09_20-41-45_260595134347_rgbf000116-resize_4/000483_2014-06-09_20-41-45_260595134347_rgbf000116-resize_4-target.png,250,1.337,6,3918,306,feet,jsons/v1_VE250_randls_72.json,1321004,3767767,49,Woman
139,456982,DepthScenes,duration_manipulation_targetAtFixation,jsons/v1_VE250_randls_72.json,http://54.235.29.9/FacialAge/BNav_EC2/DepthDuration/v2_depth_duration_MTurk/v2_DepthDuration_HTML.html#191,191,1364,625,1364,768,8-29-2022,14-27-17,140,depth_duration_stimuli/001417_2014-06-19_16-25-36_260595134347_rgbf000115-resize_5/001417_2014-06-19_16-25-36_260595134347_rgbf000115-resize_5-target.png,250,4.6255,4,4599,250,feet,jsons/v1_VE250_randls_72.json,1321004,3767767,49,Woman
140,456982,DepthScenes,duration_manipulation_targetAtFixation,jsons/v1_VE250_randls_72.json,http://54.235.29.9/FacialAge/BNav_EC2/DepthDuration/v2_depth_duration_MTurk/v2_DepthDuration_HTML.html#191,191,1364,625,1364,768,8-29-2022,14-27-17,141,depth_duration_stimuli/003081_2014-06-15_15-19-16_094959634447_rgbf000150-resize_1/003081_2014-06-15_15-19-16_094959634447_rgbf000150-resize_1-target.png,250,3.9125,5,3289,250,feet,jsons/v1_VE250_randls_72.json,1321004,3767767,49,Woman
141,456982,DepthScenes,duration_manipulation_targetAtFixation,jsons/v1_VE250_randls_72.json,http://54.235.29.9/FacialAge/BNav_EC2/DepthDuration/v2_depth_duration_MTurk/v2_DepthDuration_HTML.html#191,191,1364,625,1364,768,8-29-2022,14-27-17,142,depth_duration_stimuli/002375_2014-06-28_20-13-44_260595134347_rgbf000032-resize_1/002375_2014-06-28_20-13-44_260595134347_rgbf000032-resize_1-target.png,250,4.0175,5,9937,251,feet,jsons/v1_VE250_randls_72.json,1321004,3767767,49,Woman
142,456982,DepthScenes,duration_manipulation_targetAtFixation,jsons/v1_VE250_randls_72.json,http://54.235.29.9/FacialAge/BNav_EC2/DepthDuration/v2_depth_duration_MTurk/v2_DepthDuration_HTML.html#191,191,1364,625,1364,768,8-29-2022,14-27-17,143,depth_duration_stimuli/002657_2014-06-13_15-29-54_094959634447_rgbf000150-resize_1/002657_2014-06-13_15-29-54_094959634447_rgbf000150-resize_1-target.png,250,4.919,6,4262,250,feet,jsons/v1_VE250_randls_72.json,1321004,3767767,49,Woman
143,456982,DepthScenes,duration_manipulation_targetAtFixation,jsons/v1_VE250_randls_72.json,http://54.235.29.9/FacialAge/BNav_EC2/DepthDuration/v2_depth_duration_MTurk/v2_DepthDuration_HTML.html#191,191,1364,625,1364,768,8-29-2022,14-27-17,144,depth_duration_stimuli/000810_2014-06-08_17-20-01_260595134347_rgbf000105-resize_0/000810_2014-06-08_17-20-01_260595134347_rgbf000105-resize_0-target.png,250,1.4865,5,6213,250,feet,jsons/v1_VE250_randls_72.json,1321004,3767767,49,Woman
144,456982,DepthScenes,duration_manipulation_targetAtFixation,jsons/v1_VE250_randls_72.json,http://54.235.29.9/FacialAge/BNav_EC2/DepthDuration/v2_depth_duration_MTurk/v2_DepthDuration_HTML.html#191,191,1364,625,1364,768,8-29-2022,14-27-17,145,depth_duration_stimuli/001214_2014-06-17_16-13-55_260595134347_rgbf000111-resize_0/001214_2014-06-17_16-13-55_260595134347_rgbf000111-resize_0-target.png,250,2.6505,4,5814,249,feet,jsons/v1_VE250_randls_72.json,1321004,3767767,49,Woman
145,456982,DepthScenes,duration_manipulation_targetAtFixation,jsons/v1_VE250_randls_72.json,http://54.235.29.9/FacialAge/BNav_EC2/DepthDuration/v2_depth_duration_MTurk/v2_DepthDuration_HTML.html#191,191,1364,625,1364,768,8-29-2022,14-27-17,146,depth_duration_stimuli/001498_2014-06-19_17-45-14_260595134347_rgbf000129-resize_4/001498_2014-06-19_17-45-14_260595134347_rgbf000129-resize-original.jpg,250,1.4075,1,5167,250,feet,jsons/v1_VE250_randls_72.json,1321004,3767767,49,Woman
146,456982,DepthScenes,duration_manipulation_targetAtFixation,jsons/v1_VE250_randls_72.json,http://54.235.29.9/FacialAge/BNav_EC2/DepthDuration/v2_depth_duration_MTurk/v2_DepthDuration_HTML.html#191,191,1364,625,1364,768,8-29-2022,14-27-17,147,depth_duration_stimuli/002570_2014-06-24_13-59-54_094959634447_rgbf000059-resize_0/002570_2014-06-24_13-59-54_094959634447_rgbf000059-resize_0-target.png,250,4.037,2,4969,251,feet,jsons/v1_VE250_randls_72.json,1321004,3767767,49,Woman
147,456982,DepthScenes,duration_manipulation_targetAtFixation,jsons/v1_VE250_randls_72.json,http://54.235.29.9/FacialAge/BNav_EC2/DepthDuration/v2_depth_duration_MTurk/v2_DepthDuration_HTML.html#191,191,1364,625,1364,768,8-29-2022,14-27-17,148,depth_duration_stimuli/002467_2014-06-28_20-38-07_260595134347_rgbf000026-resize_2/002467_2014-06-28_20-38-07_260595134347_rgbf000026-resize_2-target.png,250,4.742,3,8981,250,feet,jsons/v1_VE250_randls_72.json,1321004,3767767,49,Woman
148,456982,DepthScenes,duration_manipulation_targetAtFixation,jsons/v1_VE250_randls_72.json,http://54.235.29.9/FacialAge/BNav_EC2/DepthDuration/v2_depth_duration_MTurk/v2_DepthDuration_HTML.html#191,191,1364,625,1364,768,8-29-2022,14-27-17,149,depth_duration_stimuli/001066_2014-06-08_22-03-20_260595134347_rgbf000066-resize_4/001066_2014-06-08_22-03-20_260595134347_rgbf000066-resize_4-target.png,250,4.2330000000000005,3,10759,250,feet,jsons/v1_VE250_randls_72.json,1321004,3767767,49,Woman
149,456982,DepthScenes,duration_manipulation_targetAtFixation,jsons/v1_VE250_randls_72.json,http://54.235.29.9/FacialAge/BNav_EC2/DepthDuration/v2_depth_duration_MTurk/v2_DepthDuration_HTML.html#191,191,1364,625,1364,768,8-29-2022,14-27-17,150,depth_duration_stimuli/000742_2014-06-08_18-48-09_260595134347_rgbf000164-resize_4/000742_2014-06-08_18-48-09_260595134347_rgbf000164-resize_4-target.png,250,4.632,5,5955,250,feet,jsons/v1_VE250_randls_72.json,1321004,3767767,49,Woman
150,456982,DepthScenes,duration_manipulation_targetAtFixation,jsons/v1_VE250_randls_72.json,http://54.235.29.9/FacialAge/BNav_EC2/DepthDuration/v2_depth_duration_MTurk/v2_DepthDuration_HTML.html#191,191,1364,625,1364,768,8-29-2022,14-27-17,151,depth_duration_stimuli/000436_2014-06-09_22-25-11_260595134347_rgbf000137-resize_1/000436_2014-06-09_22-25-11_260595134347_rgbf000137-resize_1-target.png,250,4.0705,4,5387,250,feet,jsons/v1_VE250_randls_72.json,1321004,3767767,49,Woman
151,456982,DepthScenes,duration_manipulation_targetAtFixation,jsons/v1_VE250_randls_72.json,http://54.235.29.9/FacialAge/BNav_EC2/DepthDuration/v2_depth_duration_MTurk/v2_DepthDuration_HTML.html#191,191,1364,625,1364,768,8-29-2022,14-27-17,152,depth_duration_stimuli/002444_2014-06-28_20-32-08_260595134347_rgbf000027-resize_0/002444_2014-06-28_20-32-08_260595134347_rgbf000027-resize_0-target.png,250,4.388999999999999,7,3899,249,feet,jsons/v1_VE250_randls_72.json,1321004,3767767,49,Woman
152,456982,DepthScenes,duration_manipulation_targetAtFixation,jsons/v1_VE250_randls_72.json,http://54.235.29.9/FacialAge/BNav_EC2/DepthDuration/v2_depth_duration_MTurk/v2_DepthDuration_HTML.html#191,191,1364,625,1364,768,8-29-2022,14-27-17,153,depth_duration_stimuli/000447_2014-06-08_16-15-46_260595134347_rgbf000130-resize_1/000447_2014-06-08_16-15-46_260595134347_rgbf000130-resize_1-target.png,250,4.479,8,5150,248,feet,jsons/v1_VE250_randls_72.json,1321004,3767767,49,Woman
153,456982,DepthScenes,duration_manipulation_targetAtFixation,jsons/v1_VE250_randls_72.json,http://54.235.29.9/FacialAge/BNav_EC2/DepthDuration/v2_depth_duration_MTurk/v2_DepthDuration_HTML.html#191,191,1364,625,1364,768,8-29-2022,14-27-17,154,depth_duration_stimuli/001447_2014-06-19_17-00-32_260595134347_rgbf000082-resize_5/001447_2014-06-19_17-00-32_260595134347_rgbf000082-resize_5-target.png,250,4.13775,9,3493,248,feet,jsons/v1_VE250_randls_72.json,1321004,3767767,49,Woman
154,456982,DepthScenes,duration_manipulation_targetAtFixation,jsons/v1_VE250_randls_72.json,http://54.235.29.9/FacialAge/BNav_EC2/DepthDuration/v2_depth_duration_MTurk/v2_DepthDuration_HTML.html#191,191,1364,625,1364,768,8-29-2022,14-27-17,155,depth_duration_stimuli/002763_2014-06-22_19-13-10_094959634447_rgbf000075-resize_4/002763_2014-06-22_19-13-10_094959634447_rgbf000075-resize_4-target.png,250,1.68375,1,5850,250,feet,jsons/v1_VE250_randls_72.json,1321004,3767767,49,Woman
155,456982,DepthScenes,duration_manipulation_targetAtFixation,jsons/v1_VE250_randls_72.json,http://54.235.29.9/FacialAge/BNav_EC2/DepthDuration/v2_depth_duration_MTurk/v2_DepthDuration_HTML.html#191,191,1364,625,1364,768,8-29-2022,14-27-17,156,depth_duration_stimuli/002209_2014-06-28_18-36-10_260595134347_rgbf000051-resize_1/002209_2014-06-28_18-36-10_260595134347_rgbf000051-resize_1-target.png,250,2.057,2,6230,250,feet,jsons/v1_VE250_randls_72.json,1321004,3767767,49,Woman
156,456982,DepthScenes,duration_manipulation_targetAtFixation,jsons/v1_VE250_randls_72.json,http://54.235.29.9/FacialAge/BNav_EC2/DepthDuration/v2_depth_duration_MTurk/v2_DepthDuration_HTML.html#191,191,1364,625,1364,768,8-29-2022,14-27-17,157,depth_duration_stimuli/000368_2014-06-09_15-53-01_260595134347_rgbf000155-resize_2/000368_2014-06-09_15-53-01_260595134347_rgbf000155-resize_2-target.png,250,2.4859999999999998,3,8310,332,feet,jsons/v1_VE250_randls_72.json,1321004,3767767,49,Woman
157,456982,DepthScenes,duration_manipulation_targetAtFixation,jsons/v1_VE250_randls_72.json,http://54.235.29.9/FacialAge/BNav_EC2/DepthDuration/v2_depth_duration_MTurk/v2_DepthDuration_HTML.html#191,191,1364,625,1364,768,8-29-2022,14-27-17,158,depth_duration_stimuli/002678_2014-06-13_16-15-32_094959634447_rgbf000151-resize_6/002678_2014-06-13_16-15-32_094959634447_rgbf000151-resize_6-target.png,250,2.1830000000000003,5,6240,250,feet,jsons/v1_VE250_randls_72.json,1321004,3767767,49,Woman
158,456982,DepthScenes,duration_manipulation_targetAtFixation,jsons/v1_VE250_randls_72.json,http://54.235.29.9/FacialAge/BNav_EC2/DepthDuration/v2_depth_duration_MTurk/v2_DepthDuration_HTML.html#191,191,1364,625,1364,768,8-29-2022,14-27-17,159,depth_duration_stimuli/001810_2014-06-26_20-51-35_260595134347_rgbf000040-resize_3/001810_2014-06-26_20-51-35_260595134347_rgbf000040-resize_3-target.png,250,2.2525,5,9674,251,feet,jsons/v1_VE250_randls_72.json,1321004,3767767,49,Woman
159,456982,DepthScenes,duration_manipulation_targetAtFixation,jsons/v1_VE250_randls_72.json,http://54.235.29.9/FacialAge/BNav_EC2/DepthDuration/v2_depth_duration_MTurk/v2_DepthDuration_HTML.html#191,191,1364,625,1364,768,8-29-2022,14-27-17,160,depth_duration_stimuli/003010_2014-06-15_12-54-35_094959634447_rgbf000112-resize_0/003010_2014-06-15_12-54-35_094959634447_rgbf000112-resize_0-target.png,250,3.1185,5,12605,249,feet,jsons/v1_VE250_randls_72.json,1321004,3767767,49,Woman
160,456982,DepthScenes,duration_manipulation_targetAtFixation,jsons/v1_VE250_randls_72.json,http://54.235.29.9/FacialAge/BNav_EC2/DepthDuration/v2_depth_duration_MTurk/v2_DepthDuration_HTML.html#191,191,1364,625,1364,768,8-29-2022,14-27-17,161,depth_duration_stimuli/000758_2014-06-08_22-05-08_260595134347_rgbf000085-resize_0/000758_2014-06-08_22-05-08_260595134347_rgbf000085-resize_0-target.png,250,3.3810000000000002,5,12165,251,feet,jsons/v1_VE250_randls_72.json,1321004,3767767,49,Woman
161,456982,DepthScenes,duration_manipulation_targetAtFixation,jsons/v1_VE250_randls_72.json,http://54.235.29.9/FacialAge/BNav_EC2/DepthDuration/v2_depth_duration_MTurk/v2_DepthDuration_HTML.html#191,191,1364,625,1364,768,8-29-2022,14-27-17,162,depth_duration_stimuli/000854_2014-06-09_19-43-13_260595134347_rgbf000066-resize_0/000854_2014-06-09_19-43-13_260595134347_rgbf000066-resize_0-target.png,250,3.068,2,29874,250,feet,jsons/v1_VE250_randls_72.json,1321004,3767767,49,Woman
162,456982,DepthScenes,duration_manipulation_targetAtFixation,jsons/v1_VE250_randls_72.json,http://54.235.29.9/FacialAge/BNav_EC2/DepthDuration/v2_depth_duration_MTurk/v2_DepthDuration_HTML.html#191,191,1364,625,1364,768,8-29-2022,14-27-17,163,depth_duration_stimuli/003292_2014-05-14_21-53-49_094959634447_rgbf000100-resize_2/003292_2014-05-14_21-53-49_094959634447_rgbf000100-resize_2-target.png,250,3.4815,2,58384,251,feet,jsons/v1_VE250_randls_72.json,1321004,3767767,49,Woman
163,456982,DepthScenes,duration_manipulation_targetAtFixation,jsons/v1_VE250_randls_72.json,http://54.235.29.9/FacialAge/BNav_EC2/DepthDuration/v2_depth_duration_MTurk/v2_DepthDuration_HTML.html#191,191,1364,625,1364,768,8-29-2022,14-27-17,164,depth_duration_stimuli/002639_2014-06-24_14-51-37_094959634447_rgbf000074-resize_4/002639_2014-06-24_14-51-37_094959634447_rgbf000074-resize_4-target.png,250,4.0375,5,13533,248,feet,jsons/v1_VE250_randls_72.json,1321004,3767767,49,Woman
