,subjID,experimentName,versionName,sequenceName,url,selected_row,windowWidth,windowHeight,screenWidth,screenHeight,startDate,startTime,trial,stimulus,duration,actual_depth,depth_estimate,trial_RT,log_sceneDuration,unitSelection,seq_filepath,experimentTime,totalTime,age,gender
0,460362,DepthScenes,duration_manipulation_targetAtFixation,jsons/VE125_randls_39_rotated.json,http://54.235.29.9/FacialAge/BNav_EC2/DepthDuration/v2_depth_duration_MTurk/v2_DepthDuration_HTML.html#466,466,1440,789,1440,900,9-19-2022,19-53-1,1,depth_duration_stimuli/001052_2014-06-08_18-24-54_260595134347_rgbf000130-resize_1/001052_2014-06-08_18-24-54_260595134347_rgbf000130-resize_1-target.png,125,4.1045,2,4916,124,feet,jsons/VE125_randls_39_rotated.json,786821,952655,55,Man
1,460362,DepthScenes,duration_manipulation_targetAtFixation,jsons/VE125_randls_39_rotated.json,http://54.235.29.9/FacialAge/BNav_EC2/DepthDuration/v2_depth_duration_MTurk/v2_DepthDuration_HTML.html#466,466,1440,789,1440,900,9-19-2022,19-53-1,2,depth_duration_stimuli/002988_2014-06-15_12-24-20_094959634447_rgbf000150-resize_1/002988_2014-06-15_12-24-20_094959634447_rgbf000150-resize_1-target.png,125,4.7669999999999995,3,3948,125,feet,jsons/VE125_randls_39_rotated.json,786821,952655,55,Man
2,460362,DepthScenes,duration_manipulation_targetAtFixation,jsons/VE125_randls_39_rotated.json,http://54.235.29.9/FacialAge/BNav_EC2/DepthDuration/v2_depth_duration_MTurk/v2_DepthDuration_HTML.html#466,466,1440,789,1440,900,9-19-2022,19-53-1,3,depth_duration_stimuli/000409_2014-06-04_19-23-33_260595134347_rgbf000067-resize_0/000409_2014-06-04_19-23-33_260595134347_rgbf000067-resize_0-target.png,125,3.7335,4,4611,125,feet,jsons/VE125_randls_39_rotated.json,786821,952655,55,Man
3,460362,DepthScenes,duration_manipulation_targetAtFixation,jsons/VE125_randls_39_rotated.json,http://54.235.29.9/FacialAge/BNav_EC2/DepthDuration/v2_depth_duration_MTurk/v2_DepthDuration_HTML.html#466,466,1440,789,1440,900,9-19-2022,19-53-1,4,depth_duration_stimuli/002663_2014-06-13_15-50-26_094959634447_rgbf000075-resize_1/002663_2014-06-13_15-50-26_094959634447_rgbf000075-resize_1-target.png,125,4.7495,6,3872,126,feet,jsons/VE125_randls_39_rotated.json,786821,952655,55,Man
4,460362,DepthScenes,duration_manipulation_targetAtFixation,jsons/VE125_randls_39_rotated.json,http://54.235.29.9/FacialAge/BNav_EC2/DepthDuration/v2_depth_duration_MTurk/v2_DepthDuration_HTML.html#466,466,1440,789,1440,900,9-19-2022,19-53-1,5,depth_duration_stimuli/000457_2014-06-08_16-52-43_260595134347_rgbf000199-resize_1/000457_2014-06-08_16-52-43_260595134347_rgbf000199-resize_1-target.png,125,3.6489999999999996,6,3691,128,feet,jsons/VE125_randls_39_rotated.json,786821,952655,55,Man
5,460362,DepthScenes,duration_manipulation_targetAtFixation,jsons/VE125_randls_39_rotated.json,http://54.235.29.9/FacialAge/BNav_EC2/DepthDuration/v2_depth_duration_MTurk/v2_DepthDuration_HTML.html#466,466,1440,789,1440,900,9-19-2022,19-53-1,6,depth_duration_stimuli/000929_2014-06-09_16-33-19_260595134347_rgbf000139-resize_0/000929_2014-06-09_16-33-19_260595134347_rgbf000139-resize_0-target.png,125,2.8680000000000003,3,4239,125,feet,jsons/VE125_randls_39_rotated.json,786821,952655,55,Man
6,460362,DepthScenes,duration_manipulation_targetAtFixation,jsons/VE125_randls_39_rotated.json,http://54.235.29.9/FacialAge/BNav_EC2/DepthDuration/v2_depth_duration_MTurk/v2_DepthDuration_HTML.html#466,466,1440,789,1440,900,9-19-2022,19-53-1,7,depth_duration_stimuli/002949_2014-06-26_15-57-42_094959634447_rgbf000079-resize_1/002949_2014-06-26_15-57-42_094959634447_rgbf000079-resize_1-target.png,125,1.8915,4,3397,124,feet,jsons/VE125_randls_39_rotated.json,786821,952655,55,Man
7,460362,DepthScenes,duration_manipulation_targetAtFixation,jsons/VE125_randls_39_rotated.json,http://54.235.29.9/FacialAge/BNav_EC2/DepthDuration/v2_depth_duration_MTurk/v2_DepthDuration_HTML.html#466,466,1440,789,1440,900,9-19-2022,19-53-1,8,depth_duration_stimuli/000522_2014-06-08_13-35-06_260595134347_rgbf000244-resize_1/000522_2014-06-08_13-35-06_260595134347_rgbf000244-resize_1-target.png,125,2.3715,5,3480,122,feet,jsons/VE125_randls_39_rotated.json,786821,952655,55,Man
8,460362,DepthScenes,duration_manipulation_targetAtFixation,jsons/VE125_randls_39_rotated.json,http://54.235.29.9/FacialAge/BNav_EC2/DepthDuration/v2_depth_duration_MTurk/v2_DepthDuration_HTML.html#466,466,1440,789,1440,900,9-19-2022,19-53-1,9,depth_duration_stimuli/001136_2014-06-17_15-19-41_260595134347_rgbf000076-resize_3/001136_2014-06-17_15-19-41_260595134347_rgbf000076-resize_3-target.png,125,1.8655,4,3401,128,feet,jsons/VE125_randls_39_rotated.json,786821,952655,55,Man
9,460362,DepthScenes,duration_manipulation_targetAtFixation,jsons/VE125_randls_39_rotated.json,http://54.235.29.9/FacialAge/BNav_EC2/DepthDuration/v2_depth_duration_MTurk/v2_DepthDuration_HTML.html#466,466,1440,789,1440,900,9-19-2022,19-53-1,10,depth_duration_stimuli/001164_2014-06-17_15-35-46_260595134347_rgbf000085-resize_3/001164_2014-06-17_15-35-46_260595134347_rgbf000085-resize_3-target.png,125,2.354,4,3502,127,feet,jsons/VE125_randls_39_rotated.json,786821,952655,55,Man
10,460362,DepthScenes,duration_manipulation_targetAtFixation,jsons/VE125_randls_39_rotated.json,http://54.235.29.9/FacialAge/BNav_EC2/DepthDuration/v2_depth_duration_MTurk/v2_DepthDuration_HTML.html#466,466,1440,789,1440,900,9-19-2022,19-53-1,11,depth_duration_stimuli/000866_2014-06-09_20-45-42_260595134347_rgbf000139-resize_1/000866_2014-06-09_20-45-42_260595134347_rgbf000139-resize_1-target.png,125,3.2155,3,3791,124,feet,jsons/VE125_randls_39_rotated.json,786821,952655,55,Man
11,460362,DepthScenes,duration_manipulation_targetAtFixation,jsons/VE125_randls_39_rotated.json,http://54.235.29.9/FacialAge/BNav_EC2/DepthDuration/v2_depth_duration_MTurk/v2_DepthDuration_HTML.html#466,466,1440,789,1440,900,9-19-2022,19-53-1,12,depth_duration_stimuli/002989_2014-06-15_12-25-03_094959634447_rgbf000150-resize_3/002989_2014-06-15_12-25-03_094959634447_rgbf000150-resize_3-target.png,125,4.1975,5,3816,125,feet,jsons/VE125_randls_39_rotated.json,786821,952655,55,Man
12,460362,DepthScenes,duration_manipulation_targetAtFixation,jsons/VE125_randls_39_rotated.json,http://54.235.29.9/FacialAge/BNav_EC2/DepthDuration/v2_depth_duration_MTurk/v2_DepthDuration_HTML.html#466,466,1440,789,1440,900,9-19-2022,19-53-1,13,depth_duration_stimuli/002568_2014-06-24_13-59-21_094959634447_rgbf000062-resize_4/002568_2014-06-24_13-59-21_094959634447_rgbf000062-resize_4-target.png,125,3.015,3,4175,128,feet,jsons/VE125_randls_39_rotated.json,786821,952655,55,Man
13,460362,DepthScenes,duration_manipulation_targetAtFixation,jsons/VE125_randls_39_rotated.json,http://54.235.29.9/FacialAge/BNav_EC2/DepthDuration/v2_depth_duration_MTurk/v2_DepthDuration_HTML.html#466,466,1440,789,1440,900,9-19-2022,19-53-1,14,depth_duration_stimuli/003492_2014-05-21_15-50-55_094959634447_rgbf000828-resize_1/003492_2014-05-21_15-50-55_094959634447_rgbf000828-resize_1-target.png,125,4.06875,3,3485,126,feet,jsons/VE125_randls_39_rotated.json,786821,952655,55,Man
14,460362,DepthScenes,duration_manipulation_targetAtFixation,jsons/VE125_randls_39_rotated.json,http://54.235.29.9/FacialAge/BNav_EC2/DepthDuration/v2_depth_duration_MTurk/v2_DepthDuration_HTML.html#466,466,1440,789,1440,900,9-19-2022,19-53-1,15,depth_duration_stimuli/001235_2014-06-17_16-37-36_260595134347_rgbf000084-resize_4/001235_2014-06-17_16-37-36_260595134347_rgbf000084-resize_4-target.png,125,3.6605,2,3504,126,feet,jsons/VE125_randls_39_rotated.json,786821,952655,55,Man
15,460362,DepthScenes,duration_manipulation_targetAtFixation,jsons/VE125_randls_39_rotated.json,http://54.235.29.9/FacialAge/BNav_EC2/DepthDuration/v2_depth_duration_MTurk/v2_DepthDuration_HTML.html#466,466,1440,789,1440,900,9-19-2022,19-53-1,16,depth_duration_stimuli/000788_2014-06-08_22-34-36_260595134347_rgbf000131-resize_1/000788_2014-06-08_22-34-36_260595134347_rgbf000131-resize_1-target.png,125,3.359,3,3163,121,feet,jsons/VE125_randls_39_rotated.json,786821,952655,55,Man
16,460362,DepthScenes,duration_manipulation_targetAtFixation,jsons/VE125_randls_39_rotated.json,http://54.235.29.9/FacialAge/BNav_EC2/DepthDuration/v2_depth_duration_MTurk/v2_DepthDuration_HTML.html#466,466,1440,789,1440,900,9-19-2022,19-53-1,17,depth_duration_stimuli/000137_2014-05-20_17-04-49_260595134347_rgbf000120-resize_1/000137_2014-05-20_17-04-49_260595134347_rgbf000120-resize_1-target.png,125,3.786,3,3225,123,feet,jsons/VE125_randls_39_rotated.json,786821,952655,55,Man
17,460362,DepthScenes,duration_manipulation_targetAtFixation,jsons/VE125_randls_39_rotated.json,http://54.235.29.9/FacialAge/BNav_EC2/DepthDuration/v2_depth_duration_MTurk/v2_DepthDuration_HTML.html#466,466,1440,789,1440,900,9-19-2022,19-53-1,18,depth_duration_stimuli/000736_2014-06-08_18-24-15_260595134347_rgbf000206-resize_3/000736_2014-06-08_18-24-15_260595134347_rgbf000206-resize_3-target.png,125,3.515,3,3347,122,feet,jsons/VE125_randls_39_rotated.json,786821,952655,55,Man
18,460362,DepthScenes,duration_manipulation_targetAtFixation,jsons/VE125_randls_39_rotated.json,http://54.235.29.9/FacialAge/BNav_EC2/DepthDuration/v2_depth_duration_MTurk/v2_DepthDuration_HTML.html#466,466,1440,789,1440,900,9-19-2022,19-53-1,19,depth_duration_stimuli/001498_2014-06-19_17-45-14_260595134347_rgbf000129-resize_4/001498_2014-06-19_17-45-14_260595134347_rgbf000129-resize-original.jpg,125,1.4075,2,4161,124,feet,jsons/VE125_randls_39_rotated.json,786821,952655,55,Man
19,460362,DepthScenes,duration_manipulation_targetAtFixation,jsons/VE125_randls_39_rotated.json,http://54.235.29.9/FacialAge/BNav_EC2/DepthDuration/v2_depth_duration_MTurk/v2_DepthDuration_HTML.html#466,466,1440,789,1440,900,9-19-2022,19-53-1,20,depth_duration_stimuli/002758_2014-06-22_19-11-20_094959634447_rgbf000128-resize_1/002758_2014-06-22_19-11-20_094959634447_rgbf000128-resize_1-target.png,125,2.555,5,3365,124,feet,jsons/VE125_randls_39_rotated.json,786821,952655,55,Man
20,460362,DepthScenes,duration_manipulation_targetAtFixation,jsons/VE125_randls_39_rotated.json,http://54.235.29.9/FacialAge/BNav_EC2/DepthDuration/v2_depth_duration_MTurk/v2_DepthDuration_HTML.html#466,466,1440,789,1440,900,9-19-2022,19-53-1,21,depth_duration_stimuli/002630_2014-06-24_14-47-50_094959634447_rgbf000055-resize_1/002630_2014-06-24_14-47-50_094959634447_rgbf000055-resize_1-target.png,125,3.0095,4,3131,124,feet,jsons/VE125_randls_39_rotated.json,786821,952655,55,Man
21,460362,DepthScenes,duration_manipulation_targetAtFixation,jsons/VE125_randls_39_rotated.json,http://54.235.29.9/FacialAge/BNav_EC2/DepthDuration/v2_depth_duration_MTurk/v2_DepthDuration_HTML.html#466,466,1440,789,1440,900,9-19-2022,19-53-1,22,depth_duration_stimuli/003079_2014-06-15_15-18-20_094959634447_rgbf000152-resize_8/003079_2014-06-15_15-18-20_094959634447_rgbf000152-resize_8-target.png,125,2.8775,5,3648,123,feet,jsons/VE125_randls_39_rotated.json,786821,952655,55,Man
22,460362,DepthScenes,duration_manipulation_targetAtFixation,jsons/VE125_randls_39_rotated.json,http://54.235.29.9/FacialAge/BNav_EC2/DepthDuration/v2_depth_duration_MTurk/v2_DepthDuration_HTML.html#466,466,1440,789,1440,900,9-19-2022,19-53-1,23,depth_duration_stimuli/000506_2014-06-08_23-21-00_260595134347_rgbf000070-resize_7/000506_2014-06-08_23-21-00_260595134347_rgbf000070-resize_7-target.png,125,4.0585,3,3366,125,feet,jsons/VE125_randls_39_rotated.json,786821,952655,55,Man
23,460362,DepthScenes,duration_manipulation_targetAtFixation,jsons/VE125_randls_39_rotated.json,http://54.235.29.9/FacialAge/BNav_EC2/DepthDuration/v2_depth_duration_MTurk/v2_DepthDuration_HTML.html#466,466,1440,789,1440,900,9-19-2022,19-53-1,24,depth_duration_stimuli/002637_2014-06-24_14-51-13_094959634447_rgbf000066-resize_4/002637_2014-06-24_14-51-13_094959634447_rgbf000066-resize_4-target.png,125,1.9955,4,3176,129,feet,jsons/VE125_randls_39_rotated.json,786821,952655,55,Man
24,460362,DepthScenes,duration_manipulation_targetAtFixation,jsons/VE125_randls_39_rotated.json,http://54.235.29.9/FacialAge/BNav_EC2/DepthDuration/v2_depth_duration_MTurk/v2_DepthDuration_HTML.html#466,466,1440,789,1440,900,9-19-2022,19-53-1,25,depth_duration_stimuli/003534_2014-05-22_15-06-10_094959634447_rgbf000102-resize_4/003534_2014-05-22_15-06-10_094959634447_rgbf000102-resize_4-target.png,125,1.426,3,3056,126,feet,jsons/VE125_randls_39_rotated.json,786821,952655,55,Man
25,460362,DepthScenes,duration_manipulation_targetAtFixation,jsons/VE125_randls_39_rotated.json,http://54.235.29.9/FacialAge/BNav_EC2/DepthDuration/v2_depth_duration_MTurk/v2_DepthDuration_HTML.html#466,466,1440,789,1440,900,9-19-2022,19-53-1,26,depth_duration_stimuli/001516_2014-06-20_16-25-09_260595134347_rgbf000076-resize_2/001516_2014-06-20_16-25-09_260595134347_rgbf000076-resize_2-target.png,125,1.7445,3,3349,118,feet,jsons/VE125_randls_39_rotated.json,786821,952655,55,Man
26,460362,DepthScenes,duration_manipulation_targetAtFixation,jsons/VE125_randls_39_rotated.json,http://54.235.29.9/FacialAge/BNav_EC2/DepthDuration/v2_depth_duration_MTurk/v2_DepthDuration_HTML.html#466,466,1440,789,1440,900,9-19-2022,19-53-1,27,depth_duration_stimuli/002118_2014-06-25_20-32-08_260595134347_rgbf000078-resize_1/002118_2014-06-25_20-32-08_260595134347_rgbf000078-resize_1-target.png,125,2.6460000000000004,3,3216,126,feet,jsons/VE125_randls_39_rotated.json,786821,952655,55,Man
27,460362,DepthScenes,duration_manipulation_targetAtFixation,jsons/VE125_randls_39_rotated.json,http://54.235.29.9/FacialAge/BNav_EC2/DepthDuration/v2_depth_duration_MTurk/v2_DepthDuration_HTML.html#466,466,1440,789,1440,900,9-19-2022,19-53-1,28,depth_duration_stimuli/002136_2014-06-25_21-18-03_260595134347_rgbf000109-resize_3/002136_2014-06-25_21-18-03_260595134347_rgbf000109-resize_3-target.png,125,1.9569999999999999,2,3579,123,feet,jsons/VE125_randls_39_rotated.json,786821,952655,55,Man
28,460362,DepthScenes,duration_manipulation_targetAtFixation,jsons/VE125_randls_39_rotated.json,http://54.235.29.9/FacialAge/BNav_EC2/DepthDuration/v2_depth_duration_MTurk/v2_DepthDuration_HTML.html#466,466,1440,789,1440,900,9-19-2022,19-53-1,29,depth_duration_stimuli/002964_2014-06-08_17-46-11_094959634447_rgbf000091-resize_4/002964_2014-06-08_17-46-11_094959634447_rgbf000091-resize_4-target.png,125,1.6909999999999998,2,3266,130,feet,jsons/VE125_randls_39_rotated.json,786821,952655,55,Man
29,460362,DepthScenes,duration_manipulation_targetAtFixation,jsons/VE125_randls_39_rotated.json,http://54.235.29.9/FacialAge/BNav_EC2/DepthDuration/v2_depth_duration_MTurk/v2_DepthDuration_HTML.html#466,466,1440,789,1440,900,9-19-2022,19-53-1,30,depth_duration_stimuli/002072_2014-06-24_21-48-06_260595134347_rgbf000115-resize_0/002072_2014-06-24_21-48-06_260595134347_rgbf000115-resize-original.jpg,125,4.702,1,4274,128,feet,jsons/VE125_randls_39_rotated.json,786821,952655,55,Man
30,460362,DepthScenes,duration_manipulation_targetAtFixation,jsons/VE125_randls_39_rotated.json,http://54.235.29.9/FacialAge/BNav_EC2/DepthDuration/v2_depth_duration_MTurk/v2_DepthDuration_HTML.html#466,466,1440,789,1440,900,9-19-2022,19-53-1,31,depth_duration_stimuli/000691_2014-06-08_13-08-50_260595134347_rgbf000132-resize_3/000691_2014-06-08_13-08-50_260595134347_rgbf000132-resize_3-target.png,125,4.1530000000000005,4,3887,124,feet,jsons/VE125_randls_39_rotated.json,786821,952655,55,Man
31,460362,DepthScenes,duration_manipulation_targetAtFixation,jsons/VE125_randls_39_rotated.json,http://54.235.29.9/FacialAge/BNav_EC2/DepthDuration/v2_depth_duration_MTurk/v2_DepthDuration_HTML.html#466,466,1440,789,1440,900,9-19-2022,19-53-1,32,depth_duration_stimuli/002213_2014-06-28_18-37-58_260595134347_rgbf000055-resize_1/002213_2014-06-28_18-37-58_260595134347_rgbf000055-resize_1-target.png,125,3.62,2,14964,126,feet,jsons/VE125_randls_39_rotated.json,786821,952655,55,Man
32,460362,DepthScenes,duration_manipulation_targetAtFixation,jsons/VE125_randls_39_rotated.json,http://54.235.29.9/FacialAge/BNav_EC2/DepthDuration/v2_depth_duration_MTurk/v2_DepthDuration_HTML.html#466,466,1440,789,1440,900,9-19-2022,19-53-1,33,depth_duration_stimuli/002657_2014-06-13_15-29-54_094959634447_rgbf000150-resize_1/002657_2014-06-13_15-29-54_094959634447_rgbf000150-resize_1-target.png,125,4.919,4,3186,126,feet,jsons/VE125_randls_39_rotated.json,786821,952655,55,Man
33,460362,DepthScenes,duration_manipulation_targetAtFixation,jsons/VE125_randls_39_rotated.json,http://54.235.29.9/FacialAge/BNav_EC2/DepthDuration/v2_depth_duration_MTurk/v2_DepthDuration_HTML.html#466,466,1440,789,1440,900,9-19-2022,19-53-1,34,depth_duration_stimuli/002375_2014-06-28_20-13-44_260595134347_rgbf000032-resize_1/002375_2014-06-28_20-13-44_260595134347_rgbf000032-resize_1-target.png,125,4.0175,6,3335,123,feet,jsons/VE125_randls_39_rotated.json,786821,952655,55,Man
34,460362,DepthScenes,duration_manipulation_targetAtFixation,jsons/VE125_randls_39_rotated.json,http://54.235.29.9/FacialAge/BNav_EC2/DepthDuration/v2_depth_duration_MTurk/v2_DepthDuration_HTML.html#466,466,1440,789,1440,900,9-19-2022,19-53-1,35,depth_duration_stimuli/003048_2014-06-15_13-49-43_094959634447_rgbf000150-resize_1/003048_2014-06-15_13-49-43_094959634447_rgbf000150-resize_1-target.png,125,4.0035,6,3150,127,feet,jsons/VE125_randls_39_rotated.json,786821,952655,55,Man
35,460362,DepthScenes,duration_manipulation_targetAtFixation,jsons/VE125_randls_39_rotated.json,http://54.235.29.9/FacialAge/BNav_EC2/DepthDuration/v2_depth_duration_MTurk/v2_DepthDuration_HTML.html#466,466,1440,789,1440,900,9-19-2022,19-53-1,36,depth_duration_stimuli/002043_2014-06-24_20-29-38_260595134347_rgbf000039-resize_4/002043_2014-06-24_20-29-38_260595134347_rgbf000039-resize_4-target.png,125,2.8435,5,3349,128,feet,jsons/VE125_randls_39_rotated.json,786821,952655,55,Man
36,460362,DepthScenes,duration_manipulation_targetAtFixation,jsons/VE125_randls_39_rotated.json,http://54.235.29.9/FacialAge/BNav_EC2/DepthDuration/v2_depth_duration_MTurk/v2_DepthDuration_HTML.html#466,466,1440,789,1440,900,9-19-2022,19-53-1,37,depth_duration_stimuli/000749_2014-06-08_21-55-06_260595134347_rgbf000070-resize_2/000749_2014-06-08_21-55-06_260595134347_rgbf000070-resize_2-target.png,125,2.331,5,3195,125,feet,jsons/VE125_randls_39_rotated.json,786821,952655,55,Man
37,460362,DepthScenes,duration_manipulation_targetAtFixation,jsons/VE125_randls_39_rotated.json,http://54.235.29.9/FacialAge/BNav_EC2/DepthDuration/v2_depth_duration_MTurk/v2_DepthDuration_HTML.html#466,466,1440,789,1440,900,9-19-2022,19-53-1,38,depth_duration_stimuli/002788_2014-06-22_19-36-03_094959634447_rgbf000088-resize_2/002788_2014-06-22_19-36-03_094959634447_rgbf000088-resize_2-target.png,125,1.6465,4,3057,123,feet,jsons/VE125_randls_39_rotated.json,786821,952655,55,Man
38,460362,DepthScenes,duration_manipulation_targetAtFixation,jsons/VE125_randls_39_rotated.json,http://54.235.29.9/FacialAge/BNav_EC2/DepthDuration/v2_depth_duration_MTurk/v2_DepthDuration_HTML.html#466,466,1440,789,1440,900,9-19-2022,19-53-1,39,depth_duration_stimuli/001584_2014-06-20_11-07-43_260595134347_rgbf000002-resize_1/001584_2014-06-20_11-07-43_260595134347_rgbf000002-resize_1-target.png,125,3.53,0,4974,125,feet,jsons/VE125_randls_39_rotated.json,786821,952655,55,Man
39,460362,DepthScenes,duration_manipulation_targetAtFixation,jsons/VE125_randls_39_rotated.json,http://54.235.29.9/FacialAge/BNav_EC2/DepthDuration/v2_depth_duration_MTurk/v2_DepthDuration_HTML.html#466,466,1440,789,1440,900,9-19-2022,19-53-1,40,depth_duration_stimuli/003621_2014-05-23_18-06-08_094959634447_rgbf000101-resize_1/003621_2014-05-23_18-06-08_094959634447_rgbf000101-resize_1-target.png,125,3.9835,3,3316,129,feet,jsons/VE125_randls_39_rotated.json,786821,952655,55,Man
40,460362,DepthScenes,duration_manipulation_targetAtFixation,jsons/VE125_randls_39_rotated.json,http://54.235.29.9/FacialAge/BNav_EC2/DepthDuration/v2_depth_duration_MTurk/v2_DepthDuration_HTML.html#466,466,1440,789,1440,900,9-19-2022,19-53-1,41,depth_duration_stimuli/000742_2014-06-08_18-48-09_260595134347_rgbf000164-resize_4/000742_2014-06-08_18-48-09_260595134347_rgbf000164-resize_4-target.png,125,4.632,3,15474,125,feet,jsons/VE125_randls_39_rotated.json,786821,952655,55,Man
41,460362,DepthScenes,duration_manipulation_targetAtFixation,jsons/VE125_randls_39_rotated.json,http://54.235.29.9/FacialAge/BNav_EC2/DepthDuration/v2_depth_duration_MTurk/v2_DepthDuration_HTML.html#466,466,1440,789,1440,900,9-19-2022,19-53-1,42,depth_duration_stimuli/001066_2014-06-08_22-03-20_260595134347_rgbf000066-resize_4/001066_2014-06-08_22-03-20_260595134347_rgbf000066-resize_4-target.png,125,4.2330000000000005,5,3726,126,feet,jsons/VE125_randls_39_rotated.json,786821,952655,55,Man
42,460362,DepthScenes,duration_manipulation_targetAtFixation,jsons/VE125_randls_39_rotated.json,http://54.235.29.9/FacialAge/BNav_EC2/DepthDuration/v2_depth_duration_MTurk/v2_DepthDuration_HTML.html#466,466,1440,789,1440,900,9-19-2022,19-53-1,43,depth_duration_stimuli/002660_2014-06-13_15-44-18_094959634447_rgbf001878-resize_2/002660_2014-06-13_15-44-18_094959634447_rgbf001878-resize_2-target.png,125,3.576,5,3400,125,feet,jsons/VE125_randls_39_rotated.json,786821,952655,55,Man
43,460362,DepthScenes,duration_manipulation_targetAtFixation,jsons/VE125_randls_39_rotated.json,http://54.235.29.9/FacialAge/BNav_EC2/DepthDuration/v2_depth_duration_MTurk/v2_DepthDuration_HTML.html#466,466,1440,789,1440,900,9-19-2022,19-53-1,44,depth_duration_stimuli/002153_2014-06-25_21-27-18_260595134347_rgbf000038-resize_5/002153_2014-06-25_21-27-18_260595134347_rgbf000038-resize_5-target.png,125,2.505,6,3196,122,feet,jsons/VE125_randls_39_rotated.json,786821,952655,55,Man
44,460362,DepthScenes,duration_manipulation_targetAtFixation,jsons/VE125_randls_39_rotated.json,http://54.235.29.9/FacialAge/BNav_EC2/DepthDuration/v2_depth_duration_MTurk/v2_DepthDuration_HTML.html#466,466,1440,789,1440,900,9-19-2022,19-53-1,45,depth_duration_stimuli/003083_2014-06-15_15-21-03_094959634447_rgbf000063-resize_1/003083_2014-06-15_15-21-03_094959634447_rgbf000063-resize_1-target.png,125,4.1405,5,3236,123,feet,jsons/VE125_randls_39_rotated.json,786821,952655,55,Man
45,460362,DepthScenes,duration_manipulation_targetAtFixation,jsons/VE125_randls_39_rotated.json,http://54.235.29.9/FacialAge/BNav_EC2/DepthDuration/v2_depth_duration_MTurk/v2_DepthDuration_HTML.html#466,466,1440,789,1440,900,9-19-2022,19-53-1,46,depth_duration_stimuli/000486_2014-06-09_20-47-20_260595134347_rgbf000143-resize_2/000486_2014-06-09_20-47-20_260595134347_rgbf000143-resize_2-target.png,125,4.8325,4,3055,125,feet,jsons/VE125_randls_39_rotated.json,786821,952655,55,Man
46,460362,DepthScenes,duration_manipulation_targetAtFixation,jsons/VE125_randls_39_rotated.json,http://54.235.29.9/FacialAge/BNav_EC2/DepthDuration/v2_depth_duration_MTurk/v2_DepthDuration_HTML.html#466,466,1440,789,1440,900,9-19-2022,19-53-1,47,depth_duration_stimuli/003010_2014-06-15_12-54-35_094959634447_rgbf000112-resize_0/003010_2014-06-15_12-54-35_094959634447_rgbf000112-resize_0-target.png,125,3.1185,7,3439,119,feet,jsons/VE125_randls_39_rotated.json,786821,952655,55,Man
47,460362,DepthScenes,duration_manipulation_targetAtFixation,jsons/VE125_randls_39_rotated.json,http://54.235.29.9/FacialAge/BNav_EC2/DepthDuration/v2_depth_duration_MTurk/v2_DepthDuration_HTML.html#466,466,1440,789,1440,900,9-19-2022,19-53-1,48,depth_duration_stimuli/001810_2014-06-26_20-51-35_260595134347_rgbf000040-resize_3/001810_2014-06-26_20-51-35_260595134347_rgbf000040-resize_3-target.png,125,2.2525,5,3167,124,feet,jsons/VE125_randls_39_rotated.json,786821,952655,55,Man
48,460362,DepthScenes,duration_manipulation_targetAtFixation,jsons/VE125_randls_39_rotated.json,http://54.235.29.9/FacialAge/BNav_EC2/DepthDuration/v2_depth_duration_MTurk/v2_DepthDuration_HTML.html#466,466,1440,789,1440,900,9-19-2022,19-53-1,49,depth_duration_stimuli/001170_2014-06-17_15-43-44_260595134347_rgbf000096-resize_6/001170_2014-06-17_15-43-44_260595134347_rgbf000096-resize-original.jpg,125,1.1909999999999998,3,3673,122,feet,jsons/VE125_randls_39_rotated.json,786821,952655,55,Man
49,460362,DepthScenes,duration_manipulation_targetAtFixation,jsons/VE125_randls_39_rotated.json,http://54.235.29.9/FacialAge/BNav_EC2/DepthDuration/v2_depth_duration_MTurk/v2_DepthDuration_HTML.html#466,466,1440,789,1440,900,9-19-2022,19-53-1,50,depth_duration_stimuli/002995_2014-06-15_12-31-26_094959634447_rgbf000150-resize_1/002995_2014-06-15_12-31-26_094959634447_rgbf000150-resize_1-target.png,125,3.8360000000000003,4,2959,128,feet,jsons/VE125_randls_39_rotated.json,786821,952655,55,Man
50,460362,DepthScenes,duration_manipulation_targetAtFixation,jsons/VE125_randls_39_rotated.json,http://54.235.29.9/FacialAge/BNav_EC2/DepthDuration/v2_depth_duration_MTurk/v2_DepthDuration_HTML.html#466,466,1440,789,1440,900,9-19-2022,19-53-1,51,depth_duration_stimuli/002748_2014-06-22_19-07-22_094959634447_rgbf000078-resize_1/002748_2014-06-22_19-07-22_094959634447_rgbf000078-resize_1-target.png,125,4.6705,6,3381,124,feet,jsons/VE125_randls_39_rotated.json,786821,952655,55,Man
51,460362,DepthScenes,duration_manipulation_targetAtFixation,jsons/VE125_randls_39_rotated.json,http://54.235.29.9/FacialAge/BNav_EC2/DepthDuration/v2_depth_duration_MTurk/v2_DepthDuration_HTML.html#466,466,1440,789,1440,900,9-19-2022,19-53-1,52,depth_duration_stimuli/002103_2014-06-25_20-00-40_260595134347_rgbf000049-resize_0/002103_2014-06-25_20-00-40_260595134347_rgbf000049-resize_0-target.png,125,4.105,4,3224,126,feet,jsons/VE125_randls_39_rotated.json,786821,952655,55,Man
52,460362,DepthScenes,duration_manipulation_targetAtFixation,jsons/VE125_randls_39_rotated.json,http://54.235.29.9/FacialAge/BNav_EC2/DepthDuration/v2_depth_duration_MTurk/v2_DepthDuration_HTML.html#466,466,1440,789,1440,900,9-19-2022,19-53-1,53,depth_duration_stimuli/002039_2014-06-24_20-22-38_260595134347_rgbf000084-resize_1/002039_2014-06-24_20-22-38_260595134347_rgbf000084-resize_1-target.png,125,4.408,3,3225,127,feet,jsons/VE125_randls_39_rotated.json,786821,952655,55,Man
53,460362,DepthScenes,duration_manipulation_targetAtFixation,jsons/VE125_randls_39_rotated.json,http://54.235.29.9/FacialAge/BNav_EC2/DepthDuration/v2_depth_duration_MTurk/v2_DepthDuration_HTML.html#466,466,1440,789,1440,900,9-19-2022,19-53-1,54,depth_duration_stimuli/002340_2014-06-28_20-05-46_260595134347_rgbf000113-resize_0/002340_2014-06-28_20-05-46_260595134347_rgbf000113-resize_0-target.png,125,2.4735,5,3052,130,feet,jsons/VE125_randls_39_rotated.json,786821,952655,55,Man
54,460362,DepthScenes,duration_manipulation_targetAtFixation,jsons/VE125_randls_39_rotated.json,http://54.235.29.9/FacialAge/BNav_EC2/DepthDuration/v2_depth_duration_MTurk/v2_DepthDuration_HTML.html#466,466,1440,789,1440,900,9-19-2022,19-53-1,55,depth_duration_stimuli/001016_2014-06-09_16-16-10_260595134347_rgbf000112-resize_5/001016_2014-06-09_16-16-10_260595134347_rgbf000112-resize_5-target.png,125,1.6565,5,5427,127,feet,jsons/VE125_randls_39_rotated.json,786821,952655,55,Man
55,460362,DepthScenes,duration_manipulation_targetAtFixation,jsons/VE125_randls_39_rotated.json,http://54.235.29.9/FacialAge/BNav_EC2/DepthDuration/v2_depth_duration_MTurk/v2_DepthDuration_HTML.html#466,466,1440,789,1440,900,9-19-2022,19-53-1,56,depth_duration_stimuli/003338_2014-05-20_11-01-23_094959634447_rgbf000051-resize_6/003338_2014-05-20_11-01-23_094959634447_rgbf000051-resize_6-target.png,125,1.693,5,11229,126,feet,jsons/VE125_randls_39_rotated.json,786821,952655,55,Man
56,460362,DepthScenes,duration_manipulation_targetAtFixation,jsons/VE125_randls_39_rotated.json,http://54.235.29.9/FacialAge/BNav_EC2/DepthDuration/v2_depth_duration_MTurk/v2_DepthDuration_HTML.html#466,466,1440,789,1440,900,9-19-2022,19-53-1,57,depth_duration_stimuli/002509_2014-06-24_13-19-22_094959634447_rgbf000077-resize_0/002509_2014-06-24_13-19-22_094959634447_rgbf000077-resize_0-target.png,125,1.3065,2,3786,128,feet,jsons/VE125_randls_39_rotated.json,786821,952655,55,Man
57,460362,DepthScenes,duration_manipulation_targetAtFixation,jsons/VE125_randls_39_rotated.json,http://54.235.29.9/FacialAge/BNav_EC2/DepthDuration/v2_depth_duration_MTurk/v2_DepthDuration_HTML.html#466,466,1440,789,1440,900,9-19-2022,19-53-1,58,depth_duration_stimuli/000734_2014-06-08_17-39-11_260595134347_rgbf000128-resize_2/000734_2014-06-08_17-39-11_260595134347_rgbf000128-resize_2-target.png,125,4.098,5,3536,124,feet,jsons/VE125_randls_39_rotated.json,786821,952655,55,Man
58,460362,DepthScenes,duration_manipulation_targetAtFixation,jsons/VE125_randls_39_rotated.json,http://54.235.29.9/FacialAge/BNav_EC2/DepthDuration/v2_depth_duration_MTurk/v2_DepthDuration_HTML.html#466,466,1440,789,1440,900,9-19-2022,19-53-1,59,depth_duration_stimuli/000739_2014-06-08_18-45-58_260595134347_rgbf000068-resize_1/000739_2014-06-08_18-45-58_260595134347_rgbf000068-resize_1-target.png,125,3.534,3,3886,125,feet,jsons/VE125_randls_39_rotated.json,786821,952655,55,Man
59,460362,DepthScenes,duration_manipulation_targetAtFixation,jsons/VE125_randls_39_rotated.json,http://54.235.29.9/FacialAge/BNav_EC2/DepthDuration/v2_depth_duration_MTurk/v2_DepthDuration_HTML.html#466,466,1440,789,1440,900,9-19-2022,19-53-1,60,depth_duration_stimuli/002750_2014-06-22_19-08-03_094959634447_rgbf000094-resize_4/002750_2014-06-22_19-08-03_094959634447_rgbf000094-resize_4-target.png,125,2.354,4,3219,122,feet,jsons/VE125_randls_39_rotated.json,786821,952655,55,Man
60,460362,DepthScenes,duration_manipulation_targetAtFixation,jsons/VE125_randls_39_rotated.json,http://54.235.29.9/FacialAge/BNav_EC2/DepthDuration/v2_depth_duration_MTurk/v2_DepthDuration_HTML.html#466,466,1440,789,1440,900,9-19-2022,19-53-1,61,depth_duration_stimuli/002549_2014-06-24_13-41-39_094959634447_rgbf000022-resize_3/002549_2014-06-24_13-41-39_094959634447_rgbf000022-resize_3-target.png,125,1.476,4,3256,123,feet,jsons/VE125_randls_39_rotated.json,786821,952655,55,Man
61,460362,DepthScenes,duration_manipulation_targetAtFixation,jsons/VE125_randls_39_rotated.json,http://54.235.29.9/FacialAge/BNav_EC2/DepthDuration/v2_depth_duration_MTurk/v2_DepthDuration_HTML.html#466,466,1440,789,1440,900,9-19-2022,19-53-1,62,depth_duration_stimuli/003228_2014-05-14_13-42-35_094959634447_rgbf000101-resize_1/003228_2014-05-14_13-42-35_094959634447_rgbf000101-resize_1-target.png,125,1.9680000000000002,5,3130,122,feet,jsons/VE125_randls_39_rotated.json,786821,952655,55,Man
62,460362,DepthScenes,duration_manipulation_targetAtFixation,jsons/VE125_randls_39_rotated.json,http://54.235.29.9/FacialAge/BNav_EC2/DepthDuration/v2_depth_duration_MTurk/v2_DepthDuration_HTML.html#466,466,1440,789,1440,900,9-19-2022,19-53-1,63,depth_duration_stimuli/002600_2014-06-24_14-27-04_094959634447_rgbf000074-resize_2/002600_2014-06-24_14-27-04_094959634447_rgbf000074-resize_2-target.png,125,2.7575,3,3629,125,feet,jsons/VE125_randls_39_rotated.json,786821,952655,55,Man
63,460362,DepthScenes,duration_manipulation_targetAtFixation,jsons/VE125_randls_39_rotated.json,http://54.235.29.9/FacialAge/BNav_EC2/DepthDuration/v2_depth_duration_MTurk/v2_DepthDuration_HTML.html#466,466,1440,789,1440,900,9-19-2022,19-53-1,64,depth_duration_stimuli/000665_2014-06-09_20-42-35_260595134347_rgbf000110-resize_1/000665_2014-06-09_20-42-35_260595134347_rgbf000110-resize_1-target.png,125,3.057,4,3292,129,feet,jsons/VE125_randls_39_rotated.json,786821,952655,55,Man
64,460362,DepthScenes,duration_manipulation_targetAtFixation,jsons/VE125_randls_39_rotated.json,http://54.235.29.9/FacialAge/BNav_EC2/DepthDuration/v2_depth_duration_MTurk/v2_DepthDuration_HTML.html#466,466,1440,789,1440,900,9-19-2022,19-53-1,65,depth_duration_stimuli/001150_2014-06-17_15-27-34_260595134347_rgbf000108-resize_2/001150_2014-06-17_15-27-34_260595134347_rgbf000108-resize_2-target.png,125,4.0325,4,27811,124,feet,jsons/VE125_randls_39_rotated.json,786821,952655,55,Man
65,460362,DepthScenes,duration_manipulation_targetAtFixation,jsons/VE125_randls_39_rotated.json,http://54.235.29.9/FacialAge/BNav_EC2/DepthDuration/v2_depth_duration_MTurk/v2_DepthDuration_HTML.html#466,466,1440,789,1440,900,9-19-2022,19-53-1,66,depth_duration_stimuli/001540_2014-06-20_17-01-05_260595134347_rgbf000086-resize_2/001540_2014-06-20_17-01-05_260595134347_rgbf000086-resize-original.jpg,125,1.459,4,3063,125,feet,jsons/VE125_randls_39_rotated.json,786821,952655,55,Man
66,460362,DepthScenes,duration_manipulation_targetAtFixation,jsons/VE125_randls_39_rotated.json,http://54.235.29.9/FacialAge/BNav_EC2/DepthDuration/v2_depth_duration_MTurk/v2_DepthDuration_HTML.html#466,466,1440,789,1440,900,9-19-2022,19-53-1,67,depth_duration_stimuli/003495_2014-05-21_16-01-51_094959634447_rgbf000100-resize_3/003495_2014-05-21_16-01-51_094959634447_rgbf000100-resize_3-target.png,125,1.6255,0,4399,121,feet,jsons/VE125_randls_39_rotated.json,786821,952655,55,Man
67,460362,DepthScenes,duration_manipulation_targetAtFixation,jsons/VE125_randls_39_rotated.json,http://54.235.29.9/FacialAge/BNav_EC2/DepthDuration/v2_depth_duration_MTurk/v2_DepthDuration_HTML.html#466,466,1440,789,1440,900,9-19-2022,19-53-1,68,depth_duration_stimuli/001244_2014-06-17_16-47-45_260595134347_rgbf000030-resize_4/001244_2014-06-17_16-47-45_260595134347_rgbf000030-resize_4-target.png,125,2.0425,2,3297,126,feet,jsons/VE125_randls_39_rotated.json,786821,952655,55,Man
68,460362,DepthScenes,duration_manipulation_targetAtFixation,jsons/VE125_randls_39_rotated.json,http://54.235.29.9/FacialAge/BNav_EC2/DepthDuration/v2_depth_duration_MTurk/v2_DepthDuration_HTML.html#466,466,1440,789,1440,900,9-19-2022,19-53-1,69,depth_duration_stimuli/002639_2014-06-24_14-51-37_094959634447_rgbf000074-resize_4/002639_2014-06-24_14-51-37_094959634447_rgbf000074-resize_4-target.png,125,4.0375,4,3123,121,feet,jsons/VE125_randls_39_rotated.json,786821,952655,55,Man
69,460362,DepthScenes,duration_manipulation_targetAtFixation,jsons/VE125_randls_39_rotated.json,http://54.235.29.9/FacialAge/BNav_EC2/DepthDuration/v2_depth_duration_MTurk/v2_DepthDuration_HTML.html#466,466,1440,789,1440,900,9-19-2022,19-53-1,70,depth_duration_stimuli/003292_2014-05-14_21-53-49_094959634447_rgbf000100-resize_2/003292_2014-05-14_21-53-49_094959634447_rgbf000100-resize_2-target.png,125,3.4815,3,4093,123,feet,jsons/VE125_randls_39_rotated.json,786821,952655,55,Man
70,460362,DepthScenes,duration_manipulation_targetAtFixation,jsons/VE125_randls_39_rotated.json,http://54.235.29.9/FacialAge/BNav_EC2/DepthDuration/v2_depth_duration_MTurk/v2_DepthDuration_HTML.html#466,466,1440,789,1440,900,9-19-2022,19-53-1,71,depth_duration_stimuli/002199_2014-06-28_18-33-56_260595134347_rgbf000074-resize_0/002199_2014-06-28_18-33-56_260595134347_rgbf000074-resize_0-target.png,125,1.996,3,44445,127,feet,jsons/VE125_randls_39_rotated.json,786821,952655,55,Man
71,460362,DepthScenes,duration_manipulation_targetAtFixation,jsons/VE125_randls_39_rotated.json,http://54.235.29.9/FacialAge/BNav_EC2/DepthDuration/v2_depth_duration_MTurk/v2_DepthDuration_HTML.html#466,466,1440,789,1440,900,9-19-2022,19-53-1,72,depth_duration_stimuli/001056_2014-06-08_18-46-44_260595134347_rgbf000068-resize_0/001056_2014-06-08_18-46-44_260595134347_rgbf000068-resize_0-target.png,125,2.6625,2,3979,126,feet,jsons/VE125_randls_39_rotated.json,786821,952655,55,Man
72,460362,DepthScenes,duration_manipulation_targetAtFixation,jsons/VE125_randls_39_rotated.json,http://54.235.29.9/FacialAge/BNav_EC2/DepthDuration/v2_depth_duration_MTurk/v2_DepthDuration_HTML.html#466,466,1440,789,1440,900,9-19-2022,19-53-1,73,depth_duration_stimuli/001815_2014-06-26_20-52-55_260595134347_rgbf000020-resize_0/001815_2014-06-26_20-52-55_260595134347_rgbf000020-resize_0-target.png,125,3.3865,3,3771,122,feet,jsons/VE125_randls_39_rotated.json,786821,952655,55,Man
73,460362,DepthScenes,duration_manipulation_targetAtFixation,jsons/VE125_randls_39_rotated.json,http://54.235.29.9/FacialAge/BNav_EC2/DepthDuration/v2_depth_duration_MTurk/v2_DepthDuration_HTML.html#466,466,1440,789,1440,900,9-19-2022,19-53-1,74,depth_duration_stimuli/001808_2014-06-26_20-50-58_260595134347_rgbf000029-resize_1/001808_2014-06-26_20-50-58_260595134347_rgbf000029-resize_1-target.png,125,4.249,4,3505,127,feet,jsons/VE125_randls_39_rotated.json,786821,952655,55,Man
74,460362,DepthScenes,duration_manipulation_targetAtFixation,jsons/VE125_randls_39_rotated.json,http://54.235.29.9/FacialAge/BNav_EC2/DepthDuration/v2_depth_duration_MTurk/v2_DepthDuration_HTML.html#466,466,1440,789,1440,900,9-19-2022,19-53-1,75,depth_duration_stimuli/002425_2014-06-28_20-27-29_260595134347_rgbf000031-resize_8/002425_2014-06-28_20-27-29_260595134347_rgbf000031-resize_8-target.png,125,3.8960000000000004,6,4289,124,feet,jsons/VE125_randls_39_rotated.json,786821,952655,55,Man
75,460362,DepthScenes,duration_manipulation_targetAtFixation,jsons/VE125_randls_39_rotated.json,http://54.235.29.9/FacialAge/BNav_EC2/DepthDuration/v2_depth_duration_MTurk/v2_DepthDuration_HTML.html#466,466,1440,789,1440,900,9-19-2022,19-53-1,76,depth_duration_stimuli/000642_2014-06-08_16-59-25_260595134347_rgbf000098-resize_2/000642_2014-06-08_16-59-25_260595134347_rgbf000098-resize_2-target.png,125,2.8815,4,5037,125,feet,jsons/VE125_randls_39_rotated.json,786821,952655,55,Man
76,460362,DepthScenes,duration_manipulation_targetAtFixation,jsons/VE125_randls_39_rotated.json,http://54.235.29.9/FacialAge/BNav_EC2/DepthDuration/v2_depth_duration_MTurk/v2_DepthDuration_HTML.html#466,466,1440,789,1440,900,9-19-2022,19-53-1,77,depth_duration_stimuli/001450_2014-06-19_17-02-03_260595134347_rgbf000203-resize_4/001450_2014-06-19_17-02-03_260595134347_rgbf000203-resize_4-target.png,125,4.0106666666667,4,3251,125,feet,jsons/VE125_randls_39_rotated.json,786821,952655,55,Man
77,460362,DepthScenes,duration_manipulation_targetAtFixation,jsons/VE125_randls_39_rotated.json,http://54.235.29.9/FacialAge/BNav_EC2/DepthDuration/v2_depth_duration_MTurk/v2_DepthDuration_HTML.html#466,466,1440,789,1440,900,9-19-2022,19-53-1,78,depth_duration_stimuli/001449_2014-06-19_17-01-27_260595134347_rgbf000116-resize_2/001449_2014-06-19_17-01-27_260595134347_rgbf000116-resize_2-target.png,125,3.452,4,3475,125,feet,jsons/VE125_randls_39_rotated.json,786821,952655,55,Man
78,460362,DepthScenes,duration_manipulation_targetAtFixation,jsons/VE125_randls_39_rotated.json,http://54.235.29.9/FacialAge/BNav_EC2/DepthDuration/v2_depth_duration_MTurk/v2_DepthDuration_HTML.html#466,466,1440,789,1440,900,9-19-2022,19-53-1,79,depth_duration_stimuli/000780_2014-06-08_22-28-29_260595134347_rgbf000126-resize_1/000780_2014-06-08_22-28-29_260595134347_rgbf000126-resize_1-target.png,125,3.3825,4,3341,123,feet,jsons/VE125_randls_39_rotated.json,786821,952655,55,Man
79,460362,DepthScenes,duration_manipulation_targetAtFixation,jsons/VE125_randls_39_rotated.json,http://54.235.29.9/FacialAge/BNav_EC2/DepthDuration/v2_depth_duration_MTurk/v2_DepthDuration_HTML.html#466,466,1440,789,1440,900,9-19-2022,19-53-1,80,depth_duration_stimuli/002445_2014-06-28_20-32-16_260595134347_rgbf000029-resize_4/002445_2014-06-28_20-32-16_260595134347_rgbf000029-resize_4-target.png,125,2.5315,3,4785,125,feet,jsons/VE125_randls_39_rotated.json,786821,952655,55,Man
80,460362,DepthScenes,duration_manipulation_targetAtFixation,jsons/VE125_randls_39_rotated.json,http://54.235.29.9/FacialAge/BNav_EC2/DepthDuration/v2_depth_duration_MTurk/v2_DepthDuration_HTML.html#466,466,1440,789,1440,900,9-19-2022,19-53-1,81,depth_duration_stimuli/000635_2014-06-08_16-38-42_260595134347_rgbf000106-resize_1/000635_2014-06-08_16-38-42_260595134347_rgbf000106-resize_1-target.png,125,2.074,5,3252,129,feet,jsons/VE125_randls_39_rotated.json,786821,952655,55,Man
81,460362,DepthScenes,duration_manipulation_targetAtFixation,jsons/VE125_randls_39_rotated.json,http://54.235.29.9/FacialAge/BNav_EC2/DepthDuration/v2_depth_duration_MTurk/v2_DepthDuration_HTML.html#466,466,1440,789,1440,900,9-19-2022,19-53-1,82,depth_duration_stimuli/002279_2014-06-28_18-55-32_260595134347_rgbf000040-resize_5/002279_2014-06-28_18-55-32_260595134347_rgbf000040-resize_5-target.png,125,1.5043333333333,0,4915,120,feet,jsons/VE125_randls_39_rotated.json,786821,952655,55,Man
82,460362,DepthScenes,duration_manipulation_targetAtFixation,jsons/VE125_randls_39_rotated.json,http://54.235.29.9/FacialAge/BNav_EC2/DepthDuration/v2_depth_duration_MTurk/v2_DepthDuration_HTML.html#466,466,1440,789,1440,900,9-19-2022,19-53-1,83,depth_duration_stimuli/000854_2014-06-09_19-43-13_260595134347_rgbf000066-resize_0/000854_2014-06-09_19-43-13_260595134347_rgbf000066-resize_0-target.png,125,3.068,4,3248,123,feet,jsons/VE125_randls_39_rotated.json,786821,952655,55,Man
83,460362,DepthScenes,duration_manipulation_targetAtFixation,jsons/VE125_randls_39_rotated.json,http://54.235.29.9/FacialAge/BNav_EC2/DepthDuration/v2_depth_duration_MTurk/v2_DepthDuration_HTML.html#466,466,1440,789,1440,900,9-19-2022,19-53-1,84,depth_duration_stimuli/000758_2014-06-08_22-05-08_260595134347_rgbf000085-resize_0/000758_2014-06-08_22-05-08_260595134347_rgbf000085-resize_0-target.png,125,3.3810000000000002,5,3269,127,feet,jsons/VE125_randls_39_rotated.json,786821,952655,55,Man
84,460362,DepthScenes,duration_manipulation_targetAtFixation,jsons/VE125_randls_39_rotated.json,http://54.235.29.9/FacialAge/BNav_EC2/DepthDuration/v2_depth_duration_MTurk/v2_DepthDuration_HTML.html#466,466,1440,789,1440,900,9-19-2022,19-53-1,85,depth_duration_stimuli/003423_2014-05-21_10-23-26_094959634447_rgbf002665-resize_2/003423_2014-05-21_10-23-26_094959634447_rgbf002665-resize_2-target.png,125,3.2575,6,3147,127,feet,jsons/VE125_randls_39_rotated.json,786821,952655,55,Man
85,460362,DepthScenes,duration_manipulation_targetAtFixation,jsons/VE125_randls_39_rotated.json,http://54.235.29.9/FacialAge/BNav_EC2/DepthDuration/v2_depth_duration_MTurk/v2_DepthDuration_HTML.html#466,466,1440,789,1440,900,9-19-2022,19-53-1,86,depth_duration_stimuli/002905_2014-06-03_18-04-43_094959634447_rgbf000151-resize_2/002905_2014-06-03_18-04-43_094959634447_rgbf000151-resize_2-target.png,125,2.0295,4,2968,126,feet,jsons/VE125_randls_39_rotated.json,786821,952655,55,Man
86,460362,DepthScenes,duration_manipulation_targetAtFixation,jsons/VE125_randls_39_rotated.json,http://54.235.29.9/FacialAge/BNav_EC2/DepthDuration/v2_depth_duration_MTurk/v2_DepthDuration_HTML.html#466,466,1440,789,1440,900,9-19-2022,19-53-1,87,depth_duration_stimuli/000502_2014-06-08_23-02-32_260595134347_rgbf000063-resize_4/000502_2014-06-08_23-02-32_260595134347_rgbf000063-resize_4-target.png,125,2.431,4,3020,127,feet,jsons/VE125_randls_39_rotated.json,786821,952655,55,Man
87,460362,DepthScenes,duration_manipulation_targetAtFixation,jsons/VE125_randls_39_rotated.json,http://54.235.29.9/FacialAge/BNav_EC2/DepthDuration/v2_depth_duration_MTurk/v2_DepthDuration_HTML.html#466,466,1440,789,1440,900,9-19-2022,19-53-1,88,depth_duration_stimuli/001199_2014-06-17_16-03-48_260595134347_rgbf000077-resize_0/001199_2014-06-17_16-03-48_260595134347_rgbf000077-resize_0-target.png,125,3.4375,4,12319,127,feet,jsons/VE125_randls_39_rotated.json,786821,952655,55,Man
88,460362,DepthScenes,duration_manipulation_targetAtFixation,jsons/VE125_randls_39_rotated.json,http://54.235.29.9/FacialAge/BNav_EC2/DepthDuration/v2_depth_duration_MTurk/v2_DepthDuration_HTML.html#466,466,1440,789,1440,900,9-19-2022,19-53-1,89,depth_duration_stimuli/000483_2014-06-09_20-41-45_260595134347_rgbf000116-resize_4/000483_2014-06-09_20-41-45_260595134347_rgbf000116-resize_4-target.png,125,1.337,3,3287,124,feet,jsons/VE125_randls_39_rotated.json,786821,952655,55,Man
89,460362,DepthScenes,duration_manipulation_targetAtFixation,jsons/VE125_randls_39_rotated.json,http://54.235.29.9/FacialAge/BNav_EC2/DepthDuration/v2_depth_duration_MTurk/v2_DepthDuration_HTML.html#466,466,1440,789,1440,900,9-19-2022,19-53-1,90,depth_duration_stimuli/000469_2014-06-09_19-42-10_260595134347_rgbf000081-resize_1/000469_2014-06-09_19-42-10_260595134347_rgbf000081-resize_1-target.png,125,1.652,3,3007,123,feet,jsons/VE125_randls_39_rotated.json,786821,952655,55,Man
90,460362,DepthScenes,duration_manipulation_targetAtFixation,jsons/VE125_randls_39_rotated.json,http://54.235.29.9/FacialAge/BNav_EC2/DepthDuration/v2_depth_duration_MTurk/v2_DepthDuration_HTML.html#466,466,1440,789,1440,900,9-19-2022,19-53-1,91,depth_duration_stimuli/000109_2014-05-14_23-41-52_260595134347_rgbf000035-resize_9/000109_2014-05-14_23-41-52_260595134347_rgbf000035-resize_9-target.png,125,1.3545,3,3605,124,feet,jsons/VE125_randls_39_rotated.json,786821,952655,55,Man
91,460362,DepthScenes,duration_manipulation_targetAtFixation,jsons/VE125_randls_39_rotated.json,http://54.235.29.9/FacialAge/BNav_EC2/DepthDuration/v2_depth_duration_MTurk/v2_DepthDuration_HTML.html#466,466,1440,789,1440,900,9-19-2022,19-53-1,92,depth_duration_stimuli/000470_2014-06-09_19-42-40_260595134347_rgbf000094-resize_1/000470_2014-06-09_19-42-40_260595134347_rgbf000094-resize_1-target.png,125,1.831,3,3261,125,feet,jsons/VE125_randls_39_rotated.json,786821,952655,55,Man
92,460362,DepthScenes,duration_manipulation_targetAtFixation,jsons/VE125_randls_39_rotated.json,http://54.235.29.9/FacialAge/BNav_EC2/DepthDuration/v2_depth_duration_MTurk/v2_DepthDuration_HTML.html#466,466,1440,789,1440,900,9-19-2022,19-53-1,93,depth_duration_stimuli/000677_2014-06-08_23-10-32_260595134347_rgbf000158-resize_6/000677_2014-06-08_23-10-32_260595134347_rgbf000158-resize_6-target.png,125,3.556,4,3000,127,feet,jsons/VE125_randls_39_rotated.json,786821,952655,55,Man
93,460362,DepthScenes,duration_manipulation_targetAtFixation,jsons/VE125_randls_39_rotated.json,http://54.235.29.9/FacialAge/BNav_EC2/DepthDuration/v2_depth_duration_MTurk/v2_DepthDuration_HTML.html#466,466,1440,789,1440,900,9-19-2022,19-53-1,94,depth_duration_stimuli/001029_2014-06-08_13-17-57_260595134347_rgbf000065-resize_1/001029_2014-06-08_13-17-57_260595134347_rgbf000065-resize_1-target.png,125,3.0835,4,2990,124,feet,jsons/VE125_randls_39_rotated.json,786821,952655,55,Man
94,460362,DepthScenes,duration_manipulation_targetAtFixation,jsons/VE125_randls_39_rotated.json,http://54.235.29.9/FacialAge/BNav_EC2/DepthDuration/v2_depth_duration_MTurk/v2_DepthDuration_HTML.html#466,466,1440,789,1440,900,9-19-2022,19-53-1,95,depth_duration_stimuli/002953_2014-06-08_17-32-18_094959634447_rgbf000059-resize_5/002953_2014-06-08_17-32-18_094959634447_rgbf000059-resize_5-target.png,125,1.551,3,3510,120,feet,jsons/VE125_randls_39_rotated.json,786821,952655,55,Man
95,460362,DepthScenes,duration_manipulation_targetAtFixation,jsons/VE125_randls_39_rotated.json,http://54.235.29.9/FacialAge/BNav_EC2/DepthDuration/v2_depth_duration_MTurk/v2_DepthDuration_HTML.html#466,466,1440,789,1440,900,9-19-2022,19-53-1,96,depth_duration_stimuli/000878_2014-06-08_22-52-45_260595134347_rgbf000045-resize_2/000878_2014-06-08_22-52-45_260595134347_rgbf000045-resize_2-target.png,125,2.092,4,3004,126,feet,jsons/VE125_randls_39_rotated.json,786821,952655,55,Man
96,460362,DepthScenes,duration_manipulation_targetAtFixation,jsons/VE125_randls_39_rotated.json,http://54.235.29.9/FacialAge/BNav_EC2/DepthDuration/v2_depth_duration_MTurk/v2_DepthDuration_HTML.html#466,466,1440,789,1440,900,9-19-2022,19-53-1,97,depth_duration_stimuli/001132_2014-06-17_14-48-54_260595134347_rgbf000100-resize_2/001132_2014-06-17_14-48-54_260595134347_rgbf000100-resize_2-target.png,125,3.753,3,3205,122,feet,jsons/VE125_randls_39_rotated.json,786821,952655,55,Man
97,460362,DepthScenes,duration_manipulation_targetAtFixation,jsons/VE125_randls_39_rotated.json,http://54.235.29.9/FacialAge/BNav_EC2/DepthDuration/v2_depth_duration_MTurk/v2_DepthDuration_HTML.html#466,466,1440,789,1440,900,9-19-2022,19-53-1,98,depth_duration_stimuli/001133_2014-06-17_14-49-16_260595134347_rgbf000100-resize_0/001133_2014-06-17_14-49-16_260595134347_rgbf000100-resize_0-target.png,125,4.2115,5,3318,128,feet,jsons/VE125_randls_39_rotated.json,786821,952655,55,Man
98,460362,DepthScenes,duration_manipulation_targetAtFixation,jsons/VE125_randls_39_rotated.json,http://54.235.29.9/FacialAge/BNav_EC2/DepthDuration/v2_depth_duration_MTurk/v2_DepthDuration_HTML.html#466,466,1440,789,1440,900,9-19-2022,19-53-1,99,depth_duration_stimuli/001222_2014-06-17_16-24-06_260595134347_rgbf000073-resize_0/001222_2014-06-17_16-24-06_260595134347_rgbf000073-resize-original.jpg,125,1.4385,5,3234,122,feet,jsons/VE125_randls_39_rotated.json,786821,952655,55,Man
99,460362,DepthScenes,duration_manipulation_targetAtFixation,jsons/VE125_randls_39_rotated.json,http://54.235.29.9/FacialAge/BNav_EC2/DepthDuration/v2_depth_duration_MTurk/v2_DepthDuration_HTML.html#466,466,1440,789,1440,900,9-19-2022,19-53-1,100,depth_duration_stimuli/001094_2014-06-15_17-36-00_260595134347_rgbf000205-resize_0/001094_2014-06-15_17-36-00_260595134347_rgbf000205-resize_0-target.png,125,4.2175,4,3298,125,feet,jsons/VE125_randls_39_rotated.json,786821,952655,55,Man
100,460362,DepthScenes,duration_manipulation_targetAtFixation,jsons/VE125_randls_39_rotated.json,http://54.235.29.9/FacialAge/BNav_EC2/DepthDuration/v2_depth_duration_MTurk/v2_DepthDuration_HTML.html#466,466,1440,789,1440,900,9-19-2022,19-53-1,101,depth_duration_stimuli/000692_2014-06-08_13-09-42_260595134347_rgbf000199-resize_2/000692_2014-06-08_13-09-42_260595134347_rgbf000199-resize_2-target.png,125,3.661,5,3455,123,feet,jsons/VE125_randls_39_rotated.json,786821,952655,55,Man
101,460362,DepthScenes,duration_manipulation_targetAtFixation,jsons/VE125_randls_39_rotated.json,http://54.235.29.9/FacialAge/BNav_EC2/DepthDuration/v2_depth_duration_MTurk/v2_DepthDuration_HTML.html#466,466,1440,789,1440,900,9-19-2022,19-53-1,102,depth_duration_stimuli/002467_2014-06-28_20-38-07_260595134347_rgbf000026-resize_2/002467_2014-06-28_20-38-07_260595134347_rgbf000026-resize_2-target.png,125,4.742,6,3357,125,feet,jsons/VE125_randls_39_rotated.json,786821,952655,55,Man
102,460362,DepthScenes,duration_manipulation_targetAtFixation,jsons/VE125_randls_39_rotated.json,http://54.235.29.9/FacialAge/BNav_EC2/DepthDuration/v2_depth_duration_MTurk/v2_DepthDuration_HTML.html#466,466,1440,789,1440,900,9-19-2022,19-53-1,103,depth_duration_stimuli/002570_2014-06-24_13-59-54_094959634447_rgbf000059-resize_0/002570_2014-06-24_13-59-54_094959634447_rgbf000059-resize_0-target.png,125,4.037,4,5310,125,feet,jsons/VE125_randls_39_rotated.json,786821,952655,55,Man
103,460362,DepthScenes,duration_manipulation_targetAtFixation,jsons/VE125_randls_39_rotated.json,http://54.235.29.9/FacialAge/BNav_EC2/DepthDuration/v2_depth_duration_MTurk/v2_DepthDuration_HTML.html#466,466,1440,789,1440,900,9-19-2022,19-53-1,104,depth_duration_stimuli/002805_2014-06-22_19-54-03_094959634447_rgbf000079-resize_1/002805_2014-06-22_19-54-03_094959634447_rgbf000079-resize_1-target.png,125,3.1439999999999997,6,3171,128,feet,jsons/VE125_randls_39_rotated.json,786821,952655,55,Man
104,460362,DepthScenes,duration_manipulation_targetAtFixation,jsons/VE125_randls_39_rotated.json,http://54.235.29.9/FacialAge/BNav_EC2/DepthDuration/v2_depth_duration_MTurk/v2_DepthDuration_HTML.html#466,466,1440,789,1440,900,9-19-2022,19-53-1,105,depth_duration_stimuli/000906_2014-06-08_13-35-43_260595134347_rgbf000155-resize_1/000906_2014-06-08_13-35-43_260595134347_rgbf000155-resize_1-target.png,125,2.8489999999999998,6,3431,128,feet,jsons/VE125_randls_39_rotated.json,786821,952655,55,Man
105,460362,DepthScenes,duration_manipulation_targetAtFixation,jsons/VE125_randls_39_rotated.json,http://54.235.29.9/FacialAge/BNav_EC2/DepthDuration/v2_depth_duration_MTurk/v2_DepthDuration_HTML.html#466,466,1440,789,1440,900,9-19-2022,19-53-1,106,depth_duration_stimuli/003081_2014-06-15_15-19-16_094959634447_rgbf000150-resize_1/003081_2014-06-15_15-19-16_094959634447_rgbf000150-resize_1-target.png,125,3.9125,5,4810,125,feet,jsons/VE125_randls_39_rotated.json,786821,952655,55,Man
106,460362,DepthScenes,duration_manipulation_targetAtFixation,jsons/VE125_randls_39_rotated.json,http://54.235.29.9/FacialAge/BNav_EC2/DepthDuration/v2_depth_duration_MTurk/v2_DepthDuration_HTML.html#466,466,1440,789,1440,900,9-19-2022,19-53-1,107,depth_duration_stimuli/001417_2014-06-19_16-25-36_260595134347_rgbf000115-resize_5/001417_2014-06-19_16-25-36_260595134347_rgbf000115-resize_5-target.png,125,4.6255,4,4402,120,feet,jsons/VE125_randls_39_rotated.json,786821,952655,55,Man
107,460362,DepthScenes,duration_manipulation_targetAtFixation,jsons/VE125_randls_39_rotated.json,http://54.235.29.9/FacialAge/BNav_EC2/DepthDuration/v2_depth_duration_MTurk/v2_DepthDuration_HTML.html#466,466,1440,789,1440,900,9-19-2022,19-53-1,108,depth_duration_stimuli/001571_2014-06-20_17-21-32_260595134347_rgbf000089-resize_1/001571_2014-06-20_17-21-32_260595134347_rgbf000089-resize_1-target.png,125,1.86,5,5334,124,feet,jsons/VE125_randls_39_rotated.json,786821,952655,55,Man
108,460362,DepthScenes,duration_manipulation_targetAtFixation,jsons/VE125_randls_39_rotated.json,http://54.235.29.9/FacialAge/BNav_EC2/DepthDuration/v2_depth_duration_MTurk/v2_DepthDuration_HTML.html#466,466,1440,789,1440,900,9-19-2022,19-53-1,109,depth_duration_stimuli/002272_2014-06-28_18-53-56_260595134347_rgbf000067-resize_2/002272_2014-06-28_18-53-56_260595134347_rgbf000067-resize_2-target.png,125,1.138,4,3239,124,feet,jsons/VE125_randls_39_rotated.json,786821,952655,55,Man
109,460362,DepthScenes,duration_manipulation_targetAtFixation,jsons/VE125_randls_39_rotated.json,http://54.235.29.9/FacialAge/BNav_EC2/DepthDuration/v2_depth_duration_MTurk/v2_DepthDuration_HTML.html#466,466,1440,789,1440,900,9-19-2022,19-53-1,110,depth_duration_stimuli/003587_2014-05-23_16-48-02_094959634447_rgbf002384-resize_2/003587_2014-05-23_16-48-02_094959634447_rgbf002384-resize_2-target.png,125,1.357,0,3734,123,feet,jsons/VE125_randls_39_rotated.json,786821,952655,55,Man
110,460362,DepthScenes,duration_manipulation_targetAtFixation,jsons/VE125_randls_39_rotated.json,http://54.235.29.9/FacialAge/BNav_EC2/DepthDuration/v2_depth_duration_MTurk/v2_DepthDuration_HTML.html#466,466,1440,789,1440,900,9-19-2022,19-53-1,111,depth_duration_stimuli/001167_2014-06-17_15-38-07_260595134347_rgbf000108-resize_0/001167_2014-06-17_15-38-07_260595134347_rgbf000108-resize_0-target.png,125,1.8505,0,8935,125,feet,jsons/VE125_randls_39_rotated.json,786821,952655,55,Man
111,460362,DepthScenes,duration_manipulation_targetAtFixation,jsons/VE125_randls_39_rotated.json,http://54.235.29.9/FacialAge/BNav_EC2/DepthDuration/v2_depth_duration_MTurk/v2_DepthDuration_HTML.html#466,466,1440,789,1440,900,9-19-2022,19-53-1,112,depth_duration_stimuli/001650_2014-06-20_12-09-00_260595134347_rgbf000087-resize_3/001650_2014-06-20_12-09-00_260595134347_rgbf000087-resize_3-target.png,125,1.9505,3,7553,123,feet,jsons/VE125_randls_39_rotated.json,786821,952655,55,Man
112,460362,DepthScenes,duration_manipulation_targetAtFixation,jsons/VE125_randls_39_rotated.json,http://54.235.29.9/FacialAge/BNav_EC2/DepthDuration/v2_depth_duration_MTurk/v2_DepthDuration_HTML.html#466,466,1440,789,1440,900,9-19-2022,19-53-1,113,depth_duration_stimuli/000682_2014-06-08_23-14-58_260595134347_rgbf000041-resize_5/000682_2014-06-08_23-14-58_260595134347_rgbf000041-resize_5-target.png,125,2.7239999999999998,4,2561,128,feet,jsons/VE125_randls_39_rotated.json,786821,952655,55,Man
113,460362,DepthScenes,duration_manipulation_targetAtFixation,jsons/VE125_randls_39_rotated.json,http://54.235.29.9/FacialAge/BNav_EC2/DepthDuration/v2_depth_duration_MTurk/v2_DepthDuration_HTML.html#466,466,1440,789,1440,900,9-19-2022,19-53-1,114,depth_duration_stimuli/000709_2014-06-08_13-51-55_260595134347_rgbf000068-resize_3/000709_2014-06-08_13-51-55_260595134347_rgbf000068-resize_3-target.png,125,1.8030000000000002,0,5514,125,feet,jsons/VE125_randls_39_rotated.json,786821,952655,55,Man
114,460362,DepthScenes,duration_manipulation_targetAtFixation,jsons/VE125_randls_39_rotated.json,http://54.235.29.9/FacialAge/BNav_EC2/DepthDuration/v2_depth_duration_MTurk/v2_DepthDuration_HTML.html#466,466,1440,789,1440,900,9-19-2022,19-53-1,115,depth_duration_stimuli/002057_2014-06-24_21-00-13_260595134347_rgbf000120-resize_1/002057_2014-06-24_21-00-13_260595134347_rgbf000120-resize_1-target.png,125,2.967,6,3694,122,feet,jsons/VE125_randls_39_rotated.json,786821,952655,55,Man
115,460362,DepthScenes,duration_manipulation_targetAtFixation,jsons/VE125_randls_39_rotated.json,http://54.235.29.9/FacialAge/BNav_EC2/DepthDuration/v2_depth_duration_MTurk/v2_DepthDuration_HTML.html#466,466,1440,789,1440,900,9-19-2022,19-53-1,116,depth_duration_stimuli/002414_2014-06-28_20-24-58_260595134347_rgbf000067-resize_4/002414_2014-06-28_20-24-58_260595134347_rgbf000067-resize_4-target.png,125,4.363,6,4488,127,feet,jsons/VE125_randls_39_rotated.json,786821,952655,55,Man
116,460362,DepthScenes,duration_manipulation_targetAtFixation,jsons/VE125_randls_39_rotated.json,http://54.235.29.9/FacialAge/BNav_EC2/DepthDuration/v2_depth_duration_MTurk/v2_DepthDuration_HTML.html#466,466,1440,789,1440,900,9-19-2022,19-53-1,117,depth_duration_stimuli/000773_2014-06-08_22-24-54_260595134347_rgbf000093-resize_1/000773_2014-06-08_22-24-54_260595134347_rgbf000093-resize_1-target.png,125,4.973,7,3474,125,feet,jsons/VE125_randls_39_rotated.json,786821,952655,55,Man
117,460362,DepthScenes,duration_manipulation_targetAtFixation,jsons/VE125_randls_39_rotated.json,http://54.235.29.9/FacialAge/BNav_EC2/DepthDuration/v2_depth_duration_MTurk/v2_DepthDuration_HTML.html#466,466,1440,789,1440,900,9-19-2022,19-53-1,118,depth_duration_stimuli/000191_2014-05-12_17-07-38_260595134347_rgbf000199-resize_0/000191_2014-05-12_17-07-38_260595134347_rgbf000199-resize_0-target.png,125,3.7995,7,3172,124,feet,jsons/VE125_randls_39_rotated.json,786821,952655,55,Man
118,460362,DepthScenes,duration_manipulation_targetAtFixation,jsons/VE125_randls_39_rotated.json,http://54.235.29.9/FacialAge/BNav_EC2/DepthDuration/v2_depth_duration_MTurk/v2_DepthDuration_HTML.html#466,466,1440,789,1440,900,9-19-2022,19-53-1,119,depth_duration_stimuli/000493_2014-06-09_21-01-18_260595134347_rgbf000196-resize_3/000493_2014-06-09_21-01-18_260595134347_rgbf000196-resize_3-target.png,125,3.44,6,3120,123,feet,jsons/VE125_randls_39_rotated.json,786821,952655,55,Man
119,460362,DepthScenes,duration_manipulation_targetAtFixation,jsons/VE125_randls_39_rotated.json,http://54.235.29.9/FacialAge/BNav_EC2/DepthDuration/v2_depth_duration_MTurk/v2_DepthDuration_HTML.html#466,466,1440,789,1440,900,9-19-2022,19-53-1,120,depth_duration_stimuli/000787_2014-06-08_22-33-53_260595134347_rgbf000175-resize_1/000787_2014-06-08_22-33-53_260595134347_rgbf000175-resize-original.jpg,125,4.784,0,5957,126,feet,jsons/VE125_randls_39_rotated.json,786821,952655,55,Man
120,460362,DepthScenes,duration_manipulation_targetAtFixation,jsons/VE125_randls_39_rotated.json,http://54.235.29.9/FacialAge/BNav_EC2/DepthDuration/v2_depth_duration_MTurk/v2_DepthDuration_HTML.html#466,466,1440,789,1440,900,9-19-2022,19-53-1,121,depth_duration_stimuli/000927_2014-06-09_16-32-30_260595134347_rgbf000123-resize_3/000927_2014-06-09_16-32-30_260595134347_rgbf000123-resize_3-target.png,125,2.6785,5,3174,127,feet,jsons/VE125_randls_39_rotated.json,786821,952655,55,Man
121,460362,DepthScenes,duration_manipulation_targetAtFixation,jsons/VE125_randls_39_rotated.json,http://54.235.29.9/FacialAge/BNav_EC2/DepthDuration/v2_depth_duration_MTurk/v2_DepthDuration_HTML.html#466,466,1440,789,1440,900,9-19-2022,19-53-1,122,depth_duration_stimuli/001110_2014-06-15_17-25-28_260595134347_rgbf000150-resize_1/001110_2014-06-15_17-25-28_260595134347_rgbf000150-resize_1-target.png,125,1.7115,4,3432,127,feet,jsons/VE125_randls_39_rotated.json,786821,952655,55,Man
122,460362,DepthScenes,duration_manipulation_targetAtFixation,jsons/VE125_randls_39_rotated.json,http://54.235.29.9/FacialAge/BNav_EC2/DepthDuration/v2_depth_duration_MTurk/v2_DepthDuration_HTML.html#466,466,1440,789,1440,900,9-19-2022,19-53-1,123,depth_duration_stimuli/000103_2014-05-14_22-01-17_260595134347_rgbf000152-resize_5/000103_2014-05-14_22-01-17_260595134347_rgbf000152-resize_5-target.png,125,1.993,7,5371,120,feet,jsons/VE125_randls_39_rotated.json,786821,952655,55,Man
123,460362,DepthScenes,duration_manipulation_targetAtFixation,jsons/VE125_randls_39_rotated.json,http://54.235.29.9/FacialAge/BNav_EC2/DepthDuration/v2_depth_duration_MTurk/v2_DepthDuration_HTML.html#466,466,1440,789,1440,900,9-19-2022,19-53-1,124,depth_duration_stimuli/001555_2014-06-20_17-12-10_260595134347_rgbf000065-resize_4/001555_2014-06-20_17-12-10_260595134347_rgbf000065-resize_4-target.png,125,1.633,6,3524,123,feet,jsons/VE125_randls_39_rotated.json,786821,952655,55,Man
124,460362,DepthScenes,duration_manipulation_targetAtFixation,jsons/VE125_randls_39_rotated.json,http://54.235.29.9/FacialAge/BNav_EC2/DepthDuration/v2_depth_duration_MTurk/v2_DepthDuration_HTML.html#466,466,1440,789,1440,900,9-19-2022,19-53-1,125,depth_duration_stimuli/001100_2014-06-15_17-46-26_260595134347_rgbf000225-resize_2/001100_2014-06-15_17-46-26_260595134347_rgbf000225-resize_2-target.png,125,2.24,4,3474,125,feet,jsons/VE125_randls_39_rotated.json,786821,952655,55,Man
125,460362,DepthScenes,duration_manipulation_targetAtFixation,jsons/VE125_randls_39_rotated.json,http://54.235.29.9/FacialAge/BNav_EC2/DepthDuration/v2_depth_duration_MTurk/v2_DepthDuration_HTML.html#466,466,1440,789,1440,900,9-19-2022,19-53-1,126,depth_duration_stimuli/002784_2014-06-22_19-26-30_094959634447_rgbf000083-resize_3/002784_2014-06-22_19-26-30_094959634447_rgbf000083-resize_3-target.png,125,1.8046666666667,5,2986,127,feet,jsons/VE125_randls_39_rotated.json,786821,952655,55,Man
126,460362,DepthScenes,duration_manipulation_targetAtFixation,jsons/VE125_randls_39_rotated.json,http://54.235.29.9/FacialAge/BNav_EC2/DepthDuration/v2_depth_duration_MTurk/v2_DepthDuration_HTML.html#466,466,1440,789,1440,900,9-19-2022,19-53-1,127,depth_duration_stimuli/003129_2014-05-12_10-48-10_094959634447_rgbf000100-resize_0/003129_2014-05-12_10-48-10_094959634447_rgbf000100-resize_0-target.png,125,4.9305,5,4039,126,feet,jsons/VE125_randls_39_rotated.json,786821,952655,55,Man
127,460362,DepthScenes,duration_manipulation_targetAtFixation,jsons/VE125_randls_39_rotated.json,http://54.235.29.9/FacialAge/BNav_EC2/DepthDuration/v2_depth_duration_MTurk/v2_DepthDuration_HTML.html#466,466,1440,789,1440,900,9-19-2022,19-53-1,128,depth_duration_stimuli/000414_2014-06-04_19-49-13_260595134347_rgbf000044-resize_0/000414_2014-06-04_19-49-13_260595134347_rgbf000044-resize_0-target.png,125,4.329,7,3517,128,feet,jsons/VE125_randls_39_rotated.json,786821,952655,55,Man
128,460362,DepthScenes,duration_manipulation_targetAtFixation,jsons/VE125_randls_39_rotated.json,http://54.235.29.9/FacialAge/BNav_EC2/DepthDuration/v2_depth_duration_MTurk/v2_DepthDuration_HTML.html#466,466,1440,789,1440,900,9-19-2022,19-53-1,129,depth_duration_stimuli/000549_2014-06-08_22-10-24_260595134347_rgbf000247-resize_3/000549_2014-06-08_22-10-24_260595134347_rgbf000247-resize_3-target.png,125,1.841,3,8798,123,feet,jsons/VE125_randls_39_rotated.json,786821,952655,55,Man
129,460362,DepthScenes,duration_manipulation_targetAtFixation,jsons/VE125_randls_39_rotated.json,http://54.235.29.9/FacialAge/BNav_EC2/DepthDuration/v2_depth_duration_MTurk/v2_DepthDuration_HTML.html#466,466,1440,789,1440,900,9-19-2022,19-53-1,130,depth_duration_stimuli/001055_2014-06-08_18-45-35_260595134347_rgbf000111-resize_4/001055_2014-06-08_18-45-35_260595134347_rgbf000111-resize_4-target.png,125,2.4290000000000003,7,3214,124,feet,jsons/VE125_randls_39_rotated.json,786821,952655,55,Man
130,460362,DepthScenes,duration_manipulation_targetAtFixation,jsons/VE125_randls_39_rotated.json,http://54.235.29.9/FacialAge/BNav_EC2/DepthDuration/v2_depth_duration_MTurk/v2_DepthDuration_HTML.html#466,466,1440,789,1440,900,9-19-2022,19-53-1,131,depth_duration_stimuli/001392_2014-06-19_16-07-59_260595134347_rgbf000046-resize_1/001392_2014-06-19_16-07-59_260595134347_rgbf000046-resize_1-target.png,125,4.135,8,3600,125,feet,jsons/VE125_randls_39_rotated.json,786821,952655,55,Man
131,460362,DepthScenes,duration_manipulation_targetAtFixation,jsons/VE125_randls_39_rotated.json,http://54.235.29.9/FacialAge/BNav_EC2/DepthDuration/v2_depth_duration_MTurk/v2_DepthDuration_HTML.html#466,466,1440,789,1440,900,9-19-2022,19-53-1,132,depth_duration_stimuli/001570_2014-06-20_17-21-09_260595134347_rgbf000135-resize_4/001570_2014-06-20_17-21-09_260595134347_rgbf000135-resize_4-target.png,125,4.467,7,3284,125,feet,jsons/VE125_randls_39_rotated.json,786821,952655,55,Man
132,460362,DepthScenes,duration_manipulation_targetAtFixation,jsons/VE125_randls_39_rotated.json,http://54.235.29.9/FacialAge/BNav_EC2/DepthDuration/v2_depth_duration_MTurk/v2_DepthDuration_HTML.html#466,466,1440,789,1440,900,9-19-2022,19-53-1,133,depth_duration_stimuli/002678_2014-06-13_16-15-32_094959634447_rgbf000151-resize_6/002678_2014-06-13_16-15-32_094959634447_rgbf000151-resize_6-target.png,125,2.1830000000000003,6,3392,124,feet,jsons/VE125_randls_39_rotated.json,786821,952655,55,Man
133,460362,DepthScenes,duration_manipulation_targetAtFixation,jsons/VE125_randls_39_rotated.json,http://54.235.29.9/FacialAge/BNav_EC2/DepthDuration/v2_depth_duration_MTurk/v2_DepthDuration_HTML.html#466,466,1440,789,1440,900,9-19-2022,19-53-1,134,depth_duration_stimuli/000368_2014-06-09_15-53-01_260595134347_rgbf000155-resize_2/000368_2014-06-09_15-53-01_260595134347_rgbf000155-resize_2-target.png,125,2.4859999999999998,5,2999,126,feet,jsons/VE125_randls_39_rotated.json,786821,952655,55,Man
134,460362,DepthScenes,duration_manipulation_targetAtFixation,jsons/VE125_randls_39_rotated.json,http://54.235.29.9/FacialAge/BNav_EC2/DepthDuration/v2_depth_duration_MTurk/v2_DepthDuration_HTML.html#466,466,1440,789,1440,900,9-19-2022,19-53-1,135,depth_duration_stimuli/000375_2014-06-08_11-17-29_260595134347_rgbf000133-resize_2/000375_2014-06-08_11-17-29_260595134347_rgbf000133-resize-original.jpg,125,4.718,5,3022,124,feet,jsons/VE125_randls_39_rotated.json,786821,952655,55,Man
135,460362,DepthScenes,duration_manipulation_targetAtFixation,jsons/VE125_randls_39_rotated.json,http://54.235.29.9/FacialAge/BNav_EC2/DepthDuration/v2_depth_duration_MTurk/v2_DepthDuration_HTML.html#466,466,1440,789,1440,900,9-19-2022,19-53-1,136,depth_duration_stimuli/002323_2014-06-28_20-01-54_260595134347_rgbf000051-resize_4/002323_2014-06-28_20-01-54_260595134347_rgbf000051-resize_4-target.png,125,3.7310000000000003,6,4485,126,feet,jsons/VE125_randls_39_rotated.json,786821,952655,55,Man
136,460362,DepthScenes,duration_manipulation_targetAtFixation,jsons/VE125_randls_39_rotated.json,http://54.235.29.9/FacialAge/BNav_EC2/DepthDuration/v2_depth_duration_MTurk/v2_DepthDuration_HTML.html#466,466,1440,789,1440,900,9-19-2022,19-53-1,137,depth_duration_stimuli/000917_2014-06-09_22-45-29_260595134347_rgbf000149-resize_3/000917_2014-06-09_22-45-29_260595134347_rgbf000149-resize_3-target.png,125,4.1865,5,3326,126,feet,jsons/VE125_randls_39_rotated.json,786821,952655,55,Man
137,460362,DepthScenes,duration_manipulation_targetAtFixation,jsons/VE125_randls_39_rotated.json,http://54.235.29.9/FacialAge/BNav_EC2/DepthDuration/v2_depth_duration_MTurk/v2_DepthDuration_HTML.html#466,466,1440,789,1440,900,9-19-2022,19-53-1,138,depth_duration_stimuli/001214_2014-06-17_16-13-55_260595134347_rgbf000111-resize_0/001214_2014-06-17_16-13-55_260595134347_rgbf000111-resize_0-target.png,125,2.6505,3,3246,127,feet,jsons/VE125_randls_39_rotated.json,786821,952655,55,Man
138,460362,DepthScenes,duration_manipulation_targetAtFixation,jsons/VE125_randls_39_rotated.json,http://54.235.29.9/FacialAge/BNav_EC2/DepthDuration/v2_depth_duration_MTurk/v2_DepthDuration_HTML.html#466,466,1440,789,1440,900,9-19-2022,19-53-1,139,depth_duration_stimuli/000810_2014-06-08_17-20-01_260595134347_rgbf000105-resize_0/000810_2014-06-08_17-20-01_260595134347_rgbf000105-resize_0-target.png,125,1.4865,2,3487,124,feet,jsons/VE125_randls_39_rotated.json,786821,952655,55,Man
139,460362,DepthScenes,duration_manipulation_targetAtFixation,jsons/VE125_randls_39_rotated.json,http://54.235.29.9/FacialAge/BNav_EC2/DepthDuration/v2_depth_duration_MTurk/v2_DepthDuration_HTML.html#466,466,1440,789,1440,900,9-19-2022,19-53-1,140,depth_duration_stimuli/002545_2014-06-24_13-38-53_094959634447_rgbf000080-resize_4/002545_2014-06-24_13-38-53_094959634447_rgbf000080-resize_4-target.png,125,1.9205,3,3332,125,feet,jsons/VE125_randls_39_rotated.json,786821,952655,55,Man
140,460362,DepthScenes,duration_manipulation_targetAtFixation,jsons/VE125_randls_39_rotated.json,http://54.235.29.9/FacialAge/BNav_EC2/DepthDuration/v2_depth_duration_MTurk/v2_DepthDuration_HTML.html#466,466,1440,789,1440,900,9-19-2022,19-53-1,141,depth_duration_stimuli/001092_2014-06-15_17-34-58_260595134347_rgbf000171-resize_3/001092_2014-06-15_17-34-58_260595134347_rgbf000171-resize_3-target.png,125,2.6935,0,5501,124,feet,jsons/VE125_randls_39_rotated.json,786821,952655,55,Man
141,460362,DepthScenes,duration_manipulation_targetAtFixation,jsons/VE125_randls_39_rotated.json,http://54.235.29.9/FacialAge/BNav_EC2/DepthDuration/v2_depth_duration_MTurk/v2_DepthDuration_HTML.html#466,466,1440,789,1440,900,9-19-2022,19-53-1,142,depth_duration_stimuli/001828_2014-06-26_21-40-03_260595134347_rgbf000024-resize_0/001828_2014-06-26_21-40-03_260595134347_rgbf000024-resize_0-target.png,125,4.8260000000000005,5,3705,124,feet,jsons/VE125_randls_39_rotated.json,786821,952655,55,Man
142,460362,DepthScenes,duration_manipulation_targetAtFixation,jsons/VE125_randls_39_rotated.json,http://54.235.29.9/FacialAge/BNav_EC2/DepthDuration/v2_depth_duration_MTurk/v2_DepthDuration_HTML.html#466,466,1440,789,1440,900,9-19-2022,19-53-1,143,depth_duration_stimuli/000009_2014-05-26_14-32-05_260595134347_rgbf000034-resize_3/000009_2014-05-26_14-32-05_260595134347_rgbf000034-resize_3-target.png,125,3.8715,7,3818,125,feet,jsons/VE125_randls_39_rotated.json,786821,952655,55,Man
143,460362,DepthScenes,duration_manipulation_targetAtFixation,jsons/VE125_randls_39_rotated.json,http://54.235.29.9/FacialAge/BNav_EC2/DepthDuration/v2_depth_duration_MTurk/v2_DepthDuration_HTML.html#466,466,1440,789,1440,900,9-19-2022,19-53-1,144,depth_duration_stimuli/002875_2014-06-01_15-19-00_094959634447_rgbf000151-resize_1/002875_2014-06-01_15-19-00_094959634447_rgbf000151-resize_1-target.png,125,1.9675,2,3364,124,feet,jsons/VE125_randls_39_rotated.json,786821,952655,55,Man
144,460362,DepthScenes,duration_manipulation_targetAtFixation,jsons/VE125_randls_39_rotated.json,http://54.235.29.9/FacialAge/BNav_EC2/DepthDuration/v2_depth_duration_MTurk/v2_DepthDuration_HTML.html#466,466,1440,789,1440,900,9-19-2022,19-53-1,145,depth_duration_stimuli/001011_2014-06-08_23-18-54_260595134347_rgbf000044-resize_4/001011_2014-06-08_23-18-54_260595134347_rgbf000044-resize_4-target.png,125,2.4730000000000003,3,3284,123,feet,jsons/VE125_randls_39_rotated.json,786821,952655,55,Man
145,460362,DepthScenes,duration_manipulation_targetAtFixation,jsons/VE125_randls_39_rotated.json,http://54.235.29.9/FacialAge/BNav_EC2/DepthDuration/v2_depth_duration_MTurk/v2_DepthDuration_HTML.html#466,466,1440,789,1440,900,9-19-2022,19-53-1,146,depth_duration_stimuli/001447_2014-06-19_17-00-32_260595134347_rgbf000082-resize_5/001447_2014-06-19_17-00-32_260595134347_rgbf000082-resize_5-target.png,125,4.13775,3,3618,126,feet,jsons/VE125_randls_39_rotated.json,786821,952655,55,Man
146,460362,DepthScenes,duration_manipulation_targetAtFixation,jsons/VE125_randls_39_rotated.json,http://54.235.29.9/FacialAge/BNav_EC2/DepthDuration/v2_depth_duration_MTurk/v2_DepthDuration_HTML.html#466,466,1440,789,1440,900,9-19-2022,19-53-1,147,depth_duration_stimuli/000447_2014-06-08_16-15-46_260595134347_rgbf000130-resize_1/000447_2014-06-08_16-15-46_260595134347_rgbf000130-resize_1-target.png,125,4.479,4,3008,124,feet,jsons/VE125_randls_39_rotated.json,786821,952655,55,Man
147,460362,DepthScenes,duration_manipulation_targetAtFixation,jsons/VE125_randls_39_rotated.json,http://54.235.29.9/FacialAge/BNav_EC2/DepthDuration/v2_depth_duration_MTurk/v2_DepthDuration_HTML.html#466,466,1440,789,1440,900,9-19-2022,19-53-1,148,depth_duration_stimuli/003490_2014-05-21_15-50-11_094959634447_rgbf000101-resize_3/003490_2014-05-21_15-50-11_094959634447_rgbf000101-resize_3-target.png,125,3.6445,3,3070,124,feet,jsons/VE125_randls_39_rotated.json,786821,952655,55,Man
148,460362,DepthScenes,duration_manipulation_targetAtFixation,jsons/VE125_randls_39_rotated.json,http://54.235.29.9/FacialAge/BNav_EC2/DepthDuration/v2_depth_duration_MTurk/v2_DepthDuration_HTML.html#466,466,1440,789,1440,900,9-19-2022,19-53-1,149,depth_duration_stimuli/001175_2014-06-17_15-45-55_260595134347_rgbf000129-resize_4/001175_2014-06-17_15-45-55_260595134347_rgbf000129-resize_4-target.png,125,4.255,5,3293,125,feet,jsons/VE125_randls_39_rotated.json,786821,952655,55,Man
149,460362,DepthScenes,duration_manipulation_targetAtFixation,jsons/VE125_randls_39_rotated.json,http://54.235.29.9/FacialAge/BNav_EC2/DepthDuration/v2_depth_duration_MTurk/v2_DepthDuration_HTML.html#466,466,1440,789,1440,900,9-19-2022,19-53-1,150,depth_duration_stimuli/000943_2014-06-09_19-31-07_260595134347_rgbf000128-resize_1/000943_2014-06-09_19-31-07_260595134347_rgbf000128-resize_1-target.png,125,1.9765,3,2953,123,feet,jsons/VE125_randls_39_rotated.json,786821,952655,55,Man
150,460362,DepthScenes,duration_manipulation_targetAtFixation,jsons/VE125_randls_39_rotated.json,http://54.235.29.9/FacialAge/BNav_EC2/DepthDuration/v2_depth_duration_MTurk/v2_DepthDuration_HTML.html#466,466,1440,789,1440,900,9-19-2022,19-53-1,151,depth_duration_stimuli/003070_2014-06-15_14-58-27_094959634447_rgbf000150-resize_3/003070_2014-06-15_14-58-27_094959634447_rgbf000150-resize_3-target.png,125,2.9415,4,3785,122,feet,jsons/VE125_randls_39_rotated.json,786821,952655,55,Man
151,460362,DepthScenes,duration_manipulation_targetAtFixation,jsons/VE125_randls_39_rotated.json,http://54.235.29.9/FacialAge/BNav_EC2/DepthDuration/v2_depth_duration_MTurk/v2_DepthDuration_HTML.html#466,466,1440,789,1440,900,9-19-2022,19-53-1,152,depth_duration_stimuli/000569_2014-06-09_22-51-47_260595134347_rgbf000141-resize_3/000569_2014-06-09_22-51-47_260595134347_rgbf000141-resize-original.jpg,125,4.512,3,3117,126,feet,jsons/VE125_randls_39_rotated.json,786821,952655,55,Man
152,460362,DepthScenes,duration_manipulation_targetAtFixation,jsons/VE125_randls_39_rotated.json,http://54.235.29.9/FacialAge/BNav_EC2/DepthDuration/v2_depth_duration_MTurk/v2_DepthDuration_HTML.html#466,466,1440,789,1440,900,9-19-2022,19-53-1,153,depth_duration_stimuli/001032_2014-06-08_13-23-17_260595134347_rgbf000021-resize_3/001032_2014-06-08_13-23-17_260595134347_rgbf000021-resize_3-target.png,125,3.2725,4,3225,124,feet,jsons/VE125_randls_39_rotated.json,786821,952655,55,Man
153,460362,DepthScenes,duration_manipulation_targetAtFixation,jsons/VE125_randls_39_rotated.json,http://54.235.29.9/FacialAge/BNav_EC2/DepthDuration/v2_depth_duration_MTurk/v2_DepthDuration_HTML.html#466,466,1440,789,1440,900,9-19-2022,19-53-1,154,depth_duration_stimuli/001059_2014-06-08_21-53-27_260595134347_rgbf000061-resize_4/001059_2014-06-08_21-53-27_260595134347_rgbf000061-resize_4-target.png,125,2.4185,3,3349,124,feet,jsons/VE125_randls_39_rotated.json,786821,952655,55,Man
154,460362,DepthScenes,duration_manipulation_targetAtFixation,jsons/VE125_randls_39_rotated.json,http://54.235.29.9/FacialAge/BNav_EC2/DepthDuration/v2_depth_duration_MTurk/v2_DepthDuration_HTML.html#466,466,1440,789,1440,900,9-19-2022,19-53-1,155,depth_duration_stimuli/002444_2014-06-28_20-32-08_260595134347_rgbf000027-resize_0/002444_2014-06-28_20-32-08_260595134347_rgbf000027-resize_0-target.png,125,4.388999999999999,4,3043,124,feet,jsons/VE125_randls_39_rotated.json,786821,952655,55,Man
155,460362,DepthScenes,duration_manipulation_targetAtFixation,jsons/VE125_randls_39_rotated.json,http://54.235.29.9/FacialAge/BNav_EC2/DepthDuration/v2_depth_duration_MTurk/v2_DepthDuration_HTML.html#466,466,1440,789,1440,900,9-19-2022,19-53-1,156,depth_duration_stimuli/000436_2014-06-09_22-25-11_260595134347_rgbf000137-resize_1/000436_2014-06-09_22-25-11_260595134347_rgbf000137-resize_1-target.png,125,4.0705,5,3508,123,feet,jsons/VE125_randls_39_rotated.json,786821,952655,55,Man
156,460362,DepthScenes,duration_manipulation_targetAtFixation,jsons/VE125_randls_39_rotated.json,http://54.235.29.9/FacialAge/BNav_EC2/DepthDuration/v2_depth_duration_MTurk/v2_DepthDuration_HTML.html#466,466,1440,789,1440,900,9-19-2022,19-53-1,157,depth_duration_stimuli/002344_2014-06-28_20-06-29_260595134347_rgbf000030-resize_1/002344_2014-06-28_20-06-29_260595134347_rgbf000030-resize_1-target.png,125,1.5795,3,3031,124,feet,jsons/VE125_randls_39_rotated.json,786821,952655,55,Man
157,460362,DepthScenes,duration_manipulation_targetAtFixation,jsons/VE125_randls_39_rotated.json,http://54.235.29.9/FacialAge/BNav_EC2/DepthDuration/v2_depth_duration_MTurk/v2_DepthDuration_HTML.html#466,466,1440,789,1440,900,9-19-2022,19-53-1,158,depth_duration_stimuli/002725_2014-06-22_11-47-51_094959634447_rgbf000070-resize_1/002725_2014-06-22_11-47-51_094959634447_rgbf000070-resize_1-target.png,125,2.195,4,3164,124,feet,jsons/VE125_randls_39_rotated.json,786821,952655,55,Man
158,460362,DepthScenes,duration_manipulation_targetAtFixation,jsons/VE125_randls_39_rotated.json,http://54.235.29.9/FacialAge/BNav_EC2/DepthDuration/v2_depth_duration_MTurk/v2_DepthDuration_HTML.html#466,466,1440,789,1440,900,9-19-2022,19-53-1,159,depth_duration_stimuli/000556_2014-06-09_22-42-56_260595134347_rgbf000214-resize_1/000556_2014-06-09_22-42-56_260595134347_rgbf000214-resize_1-target.png,125,4.8415,5,3595,124,feet,jsons/VE125_randls_39_rotated.json,786821,952655,55,Man
159,460362,DepthScenes,duration_manipulation_targetAtFixation,jsons/VE125_randls_39_rotated.json,http://54.235.29.9/FacialAge/BNav_EC2/DepthDuration/v2_depth_duration_MTurk/v2_DepthDuration_HTML.html#466,466,1440,789,1440,900,9-19-2022,19-53-1,160,depth_duration_stimuli/001158_2014-06-17_15-32-16_260595134347_rgbf000138-resize_2/001158_2014-06-17_15-32-16_260595134347_rgbf000138-resize_2-target.png,125,4.5315,5,3412,121,feet,jsons/VE125_randls_39_rotated.json,786821,952655,55,Man
160,460362,DepthScenes,duration_manipulation_targetAtFixation,jsons/VE125_randls_39_rotated.json,http://54.235.29.9/FacialAge/BNav_EC2/DepthDuration/v2_depth_duration_MTurk/v2_DepthDuration_HTML.html#466,466,1440,789,1440,900,9-19-2022,19-53-1,161,depth_duration_stimuli/001617_2014-06-20_11-35-32_260595134347_rgbf000066-resize_1/001617_2014-06-20_11-35-32_260595134347_rgbf000066-resize_1-target.png,125,3.7910000000000004,3,3144,122,feet,jsons/VE125_randls_39_rotated.json,786821,952655,55,Man
161,460362,DepthScenes,duration_manipulation_targetAtFixation,jsons/VE125_randls_39_rotated.json,http://54.235.29.9/FacialAge/BNav_EC2/DepthDuration/v2_depth_duration_MTurk/v2_DepthDuration_HTML.html#466,466,1440,789,1440,900,9-19-2022,19-53-1,162,depth_duration_stimuli/001806_2014-06-26_20-50-20_260595134347_rgbf000091-resize_1/001806_2014-06-26_20-50-20_260595134347_rgbf000091-resize_1-target.png,125,2.7305,2,3039,123,feet,jsons/VE125_randls_39_rotated.json,786821,952655,55,Man
162,460362,DepthScenes,duration_manipulation_targetAtFixation,jsons/VE125_randls_39_rotated.json,http://54.235.29.9/FacialAge/BNav_EC2/DepthDuration/v2_depth_duration_MTurk/v2_DepthDuration_HTML.html#466,466,1440,789,1440,900,9-19-2022,19-53-1,163,depth_duration_stimuli/002209_2014-06-28_18-36-10_260595134347_rgbf000051-resize_1/002209_2014-06-28_18-36-10_260595134347_rgbf000051-resize_1-target.png,125,2.057,3,3365,127,feet,jsons/VE125_randls_39_rotated.json,786821,952655,55,Man
163,460362,DepthScenes,duration_manipulation_targetAtFixation,jsons/VE125_randls_39_rotated.json,http://54.235.29.9/FacialAge/BNav_EC2/DepthDuration/v2_depth_duration_MTurk/v2_DepthDuration_HTML.html#466,466,1440,789,1440,900,9-19-2022,19-53-1,164,depth_duration_stimuli/002763_2014-06-22_19-13-10_094959634447_rgbf000075-resize_4/002763_2014-06-22_19-13-10_094959634447_rgbf000075-resize_4-target.png,125,1.68375,2,2932,122,feet,jsons/VE125_randls_39_rotated.json,786821,952655,55,Man
