,subjID,experimentName,versionName,sequenceName,url,selected_row,windowWidth,windowHeight,screenWidth,screenHeight,startDate,startTime,trial,stimulus,duration,actual_depth,depth_estimate,trial_RT,log_sceneDuration,unitSelection,seq_filepath,experimentTime,totalTime,age,gender
0,460407,DepthScenes,duration_manipulation_targetAtFixation,jsons/v1_VE250_randls_6_rotated.json,http://54.235.29.9/FacialAge/BNav_EC2/DepthDuration/v2_depth_duration_MTurk/v2_DepthDuration_HTML.html#393,393,1280,587,1280,720,9-19-2022,14-49-46,1,depth_duration_stimuli/001132_2014-06-17_14-48-54_260595134347_rgbf000100-resize_2/001132_2014-06-17_14-48-54_260595134347_rgbf000100-resize_2-target.png,250,3.753,9,4865,260,feet,jsons/v1_VE250_randls_6_rotated.json,684379,958069,41,Man
1,460407,DepthScenes,duration_manipulation_targetAtFixation,jsons/v1_VE250_randls_6_rotated.json,http://54.235.29.9/FacialAge/BNav_EC2/DepthDuration/v2_depth_duration_MTurk/v2_DepthDuration_HTML.html#393,393,1280,587,1280,720,9-19-2022,14-49-46,2,depth_duration_stimuli/001133_2014-06-17_14-49-16_260595134347_rgbf000100-resize_0/001133_2014-06-17_14-49-16_260595134347_rgbf000100-resize_0-target.png,250,4.2115,14,4573,251,feet,jsons/v1_VE250_randls_6_rotated.json,684379,958069,41,Man
2,460407,DepthScenes,duration_manipulation_targetAtFixation,jsons/v1_VE250_randls_6_rotated.json,http://54.235.29.9/FacialAge/BNav_EC2/DepthDuration/v2_depth_duration_MTurk/v2_DepthDuration_HTML.html#393,393,1280,587,1280,720,9-19-2022,14-49-46,3,depth_duration_stimuli/002949_2014-06-26_15-57-42_094959634447_rgbf000079-resize_1/002949_2014-06-26_15-57-42_094959634447_rgbf000079-resize_1-target.png,250,1.8915,5,3661,250,feet,jsons/v1_VE250_randls_6_rotated.json,684379,958069,41,Man
3,460407,DepthScenes,duration_manipulation_targetAtFixation,jsons/v1_VE250_randls_6_rotated.json,http://54.235.29.9/FacialAge/BNav_EC2/DepthDuration/v2_depth_duration_MTurk/v2_DepthDuration_HTML.html#393,393,1280,587,1280,720,9-19-2022,14-49-46,4,depth_duration_stimuli/000522_2014-06-08_13-35-06_260595134347_rgbf000244-resize_1/000522_2014-06-08_13-35-06_260595134347_rgbf000244-resize_1-target.png,250,2.3715,3,3697,257,feet,jsons/v1_VE250_randls_6_rotated.json,684379,958069,41,Man
4,460407,DepthScenes,duration_manipulation_targetAtFixation,jsons/v1_VE250_randls_6_rotated.json,http://54.235.29.9/FacialAge/BNav_EC2/DepthDuration/v2_depth_duration_MTurk/v2_DepthDuration_HTML.html#393,393,1280,587,1280,720,9-19-2022,14-49-46,5,depth_duration_stimuli/003083_2014-06-15_15-21-03_094959634447_rgbf000063-resize_1/003083_2014-06-15_15-21-03_094959634447_rgbf000063-resize_1-target.png,250,4.1405,13,6099,246,feet,jsons/v1_VE250_randls_6_rotated.json,684379,958069,41,Man
5,460407,DepthScenes,duration_manipulation_targetAtFixation,jsons/v1_VE250_randls_6_rotated.json,http://54.235.29.9/FacialAge/BNav_EC2/DepthDuration/v2_depth_duration_MTurk/v2_DepthDuration_HTML.html#393,393,1280,587,1280,720,9-19-2022,14-49-46,6,depth_duration_stimuli/000486_2014-06-09_20-47-20_260595134347_rgbf000143-resize_2/000486_2014-06-09_20-47-20_260595134347_rgbf000143-resize_2-target.png,250,4.8325,22,3898,259,feet,jsons/v1_VE250_randls_6_rotated.json,684379,958069,41,Man
6,460407,DepthScenes,duration_manipulation_targetAtFixation,jsons/v1_VE250_randls_6_rotated.json,http://54.235.29.9/FacialAge/BNav_EC2/DepthDuration/v2_depth_duration_MTurk/v2_DepthDuration_HTML.html#393,393,1280,587,1280,720,9-19-2022,14-49-46,7,depth_duration_stimuli/003587_2014-05-23_16-48-02_094959634447_rgbf002384-resize_2/003587_2014-05-23_16-48-02_094959634447_rgbf002384-resize_2-target.png,250,1.357,2,3245,250,feet,jsons/v1_VE250_randls_6_rotated.json,684379,958069,41,Man
7,460407,DepthScenes,duration_manipulation_targetAtFixation,jsons/v1_VE250_randls_6_rotated.json,http://54.235.29.9/FacialAge/BNav_EC2/DepthDuration/v2_depth_duration_MTurk/v2_DepthDuration_HTML.html#393,393,1280,587,1280,720,9-19-2022,14-49-46,8,depth_duration_stimuli/001167_2014-06-17_15-38-07_260595134347_rgbf000108-resize_0/001167_2014-06-17_15-38-07_260595134347_rgbf000108-resize_0-target.png,250,1.8505,3,4492,260,feet,jsons/v1_VE250_randls_6_rotated.json,684379,958069,41,Man
8,460407,DepthScenes,duration_manipulation_targetAtFixation,jsons/v1_VE250_randls_6_rotated.json,http://54.235.29.9/FacialAge/BNav_EC2/DepthDuration/v2_depth_duration_MTurk/v2_DepthDuration_HTML.html#393,393,1280,587,1280,720,9-19-2022,14-49-46,9,depth_duration_stimuli/001516_2014-06-20_16-25-09_260595134347_rgbf000076-resize_2/001516_2014-06-20_16-25-09_260595134347_rgbf000076-resize_2-target.png,250,1.7445,5,4362,248,feet,jsons/v1_VE250_randls_6_rotated.json,684379,958069,41,Man
9,460407,DepthScenes,duration_manipulation_targetAtFixation,jsons/v1_VE250_randls_6_rotated.json,http://54.235.29.9/FacialAge/BNav_EC2/DepthDuration/v2_depth_duration_MTurk/v2_DepthDuration_HTML.html#393,393,1280,587,1280,720,9-19-2022,14-49-46,10,depth_duration_stimuli/002118_2014-06-25_20-32-08_260595134347_rgbf000078-resize_1/002118_2014-06-25_20-32-08_260595134347_rgbf000078-resize_1-target.png,250,2.6460000000000004,6,4281,238,feet,jsons/v1_VE250_randls_6_rotated.json,684379,958069,41,Man
10,460407,DepthScenes,duration_manipulation_targetAtFixation,jsons/v1_VE250_randls_6_rotated.json,http://54.235.29.9/FacialAge/BNav_EC2/DepthDuration/v2_depth_duration_MTurk/v2_DepthDuration_HTML.html#393,393,1280,587,1280,720,9-19-2022,14-49-46,11,depth_duration_stimuli/002340_2014-06-28_20-05-46_260595134347_rgbf000113-resize_0/002340_2014-06-28_20-05-46_260595134347_rgbf000113-resize_0-target.png,250,2.4735,8,3423,262,feet,jsons/v1_VE250_randls_6_rotated.json,684379,958069,41,Man
11,460407,DepthScenes,duration_manipulation_targetAtFixation,jsons/v1_VE250_randls_6_rotated.json,http://54.235.29.9/FacialAge/BNav_EC2/DepthDuration/v2_depth_duration_MTurk/v2_DepthDuration_HTML.html#393,393,1280,587,1280,720,9-19-2022,14-49-46,12,depth_duration_stimuli/001016_2014-06-09_16-16-10_260595134347_rgbf000112-resize_5/001016_2014-06-09_16-16-10_260595134347_rgbf000112-resize_5-target.png,250,1.6565,6,3168,262,feet,jsons/v1_VE250_randls_6_rotated.json,684379,958069,41,Man
12,460407,DepthScenes,duration_manipulation_targetAtFixation,jsons/v1_VE250_randls_6_rotated.json,http://54.235.29.9/FacialAge/BNav_EC2/DepthDuration/v2_depth_duration_MTurk/v2_DepthDuration_HTML.html#393,393,1280,587,1280,720,9-19-2022,14-49-46,13,depth_duration_stimuli/003228_2014-05-14_13-42-35_094959634447_rgbf000101-resize_1/003228_2014-05-14_13-42-35_094959634447_rgbf000101-resize_1-target.png,250,1.9680000000000002,4,4257,250,feet,jsons/v1_VE250_randls_6_rotated.json,684379,958069,41,Man
13,460407,DepthScenes,duration_manipulation_targetAtFixation,jsons/v1_VE250_randls_6_rotated.json,http://54.235.29.9/FacialAge/BNav_EC2/DepthDuration/v2_depth_duration_MTurk/v2_DepthDuration_HTML.html#393,393,1280,587,1280,720,9-19-2022,14-49-46,14,depth_duration_stimuli/002600_2014-06-24_14-27-04_094959634447_rgbf000074-resize_2/002600_2014-06-24_14-27-04_094959634447_rgbf000074-resize_2-target.png,250,2.7575,10,8757,264,feet,jsons/v1_VE250_randls_6_rotated.json,684379,958069,41,Man
14,460407,DepthScenes,duration_manipulation_targetAtFixation,jsons/v1_VE250_randls_6_rotated.json,http://54.235.29.9/FacialAge/BNav_EC2/DepthDuration/v2_depth_duration_MTurk/v2_DepthDuration_HTML.html#393,393,1280,587,1280,720,9-19-2022,14-49-46,15,depth_duration_stimuli/000854_2014-06-09_19-43-13_260595134347_rgbf000066-resize_0/000854_2014-06-09_19-43-13_260595134347_rgbf000066-resize_0-target.png,250,3.068,5,3447,248,feet,jsons/v1_VE250_randls_6_rotated.json,684379,958069,41,Man
15,460407,DepthScenes,duration_manipulation_targetAtFixation,jsons/v1_VE250_randls_6_rotated.json,http://54.235.29.9/FacialAge/BNav_EC2/DepthDuration/v2_depth_duration_MTurk/v2_DepthDuration_HTML.html#393,393,1280,587,1280,720,9-19-2022,14-49-46,16,depth_duration_stimuli/000758_2014-06-08_22-05-08_260595134347_rgbf000085-resize_0/000758_2014-06-08_22-05-08_260595134347_rgbf000085-resize_0-target.png,250,3.3810000000000002,15,3335,258,feet,jsons/v1_VE250_randls_6_rotated.json,684379,958069,41,Man
16,460407,DepthScenes,duration_manipulation_targetAtFixation,jsons/v1_VE250_randls_6_rotated.json,http://54.235.29.9/FacialAge/BNav_EC2/DepthDuration/v2_depth_duration_MTurk/v2_DepthDuration_HTML.html#393,393,1280,587,1280,720,9-19-2022,14-49-46,17,depth_duration_stimuli/001650_2014-06-20_12-09-00_260595134347_rgbf000087-resize_3/001650_2014-06-20_12-09-00_260595134347_rgbf000087-resize_3-target.png,250,1.9505,1,3673,247,feet,jsons/v1_VE250_randls_6_rotated.json,684379,958069,41,Man
17,460407,DepthScenes,duration_manipulation_targetAtFixation,jsons/v1_VE250_randls_6_rotated.json,http://54.235.29.9/FacialAge/BNav_EC2/DepthDuration/v2_depth_duration_MTurk/v2_DepthDuration_HTML.html#393,393,1280,587,1280,720,9-19-2022,14-49-46,18,depth_duration_stimuli/000682_2014-06-08_23-14-58_260595134347_rgbf000041-resize_5/000682_2014-06-08_23-14-58_260595134347_rgbf000041-resize_5-target.png,250,2.7239999999999998,6,4055,250,feet,jsons/v1_VE250_randls_6_rotated.json,684379,958069,41,Man
18,460407,DepthScenes,duration_manipulation_targetAtFixation,jsons/v1_VE250_randls_6_rotated.json,http://54.235.29.9/FacialAge/BNav_EC2/DepthDuration/v2_depth_duration_MTurk/v2_DepthDuration_HTML.html#393,393,1280,587,1280,720,9-19-2022,14-49-46,19,depth_duration_stimuli/001498_2014-06-19_17-45-14_260595134347_rgbf000129-resize_4/001498_2014-06-19_17-45-14_260595134347_rgbf000129-resize-original.jpg,250,1.4075,2,3427,255,feet,jsons/v1_VE250_randls_6_rotated.json,684379,958069,41,Man
19,460407,DepthScenes,duration_manipulation_targetAtFixation,jsons/v1_VE250_randls_6_rotated.json,http://54.235.29.9/FacialAge/BNav_EC2/DepthDuration/v2_depth_duration_MTurk/v2_DepthDuration_HTML.html#393,393,1280,587,1280,720,9-19-2022,14-49-46,20,depth_duration_stimuli/001815_2014-06-26_20-52-55_260595134347_rgbf000020-resize_0/001815_2014-06-26_20-52-55_260595134347_rgbf000020-resize_0-target.png,250,3.3865,12,3587,255,feet,jsons/v1_VE250_randls_6_rotated.json,684379,958069,41,Man
20,460407,DepthScenes,duration_manipulation_targetAtFixation,jsons/v1_VE250_randls_6_rotated.json,http://54.235.29.9/FacialAge/BNav_EC2/DepthDuration/v2_depth_duration_MTurk/v2_DepthDuration_HTML.html#393,393,1280,587,1280,720,9-19-2022,14-49-46,21,depth_duration_stimuli/001808_2014-06-26_20-50-58_260595134347_rgbf000029-resize_1/001808_2014-06-26_20-50-58_260595134347_rgbf000029-resize_1-target.png,250,4.249,11,7158,245,feet,jsons/v1_VE250_randls_6_rotated.json,684379,958069,41,Man
21,460407,DepthScenes,duration_manipulation_targetAtFixation,jsons/v1_VE250_randls_6_rotated.json,http://54.235.29.9/FacialAge/BNav_EC2/DepthDuration/v2_depth_duration_MTurk/v2_DepthDuration_HTML.html#393,393,1280,587,1280,720,9-19-2022,14-49-46,22,depth_duration_stimuli/000556_2014-06-09_22-42-56_260595134347_rgbf000214-resize_1/000556_2014-06-09_22-42-56_260595134347_rgbf000214-resize_1-target.png,250,4.8415,10,4675,251,feet,jsons/v1_VE250_randls_6_rotated.json,684379,958069,41,Man
22,460407,DepthScenes,duration_manipulation_targetAtFixation,jsons/v1_VE250_randls_6_rotated.json,http://54.235.29.9/FacialAge/BNav_EC2/DepthDuration/v2_depth_duration_MTurk/v2_DepthDuration_HTML.html#393,393,1280,587,1280,720,9-19-2022,14-49-46,23,depth_duration_stimuli/001158_2014-06-17_15-32-16_260595134347_rgbf000138-resize_2/001158_2014-06-17_15-32-16_260595134347_rgbf000138-resize_2-target.png,250,4.5315,9,5518,255,feet,jsons/v1_VE250_randls_6_rotated.json,684379,958069,41,Man
23,460407,DepthScenes,duration_manipulation_targetAtFixation,jsons/v1_VE250_randls_6_rotated.json,http://54.235.29.9/FacialAge/BNav_EC2/DepthDuration/v2_depth_duration_MTurk/v2_DepthDuration_HTML.html#393,393,1280,587,1280,720,9-19-2022,14-49-46,24,depth_duration_stimuli/002444_2014-06-28_20-32-08_260595134347_rgbf000027-resize_0/002444_2014-06-28_20-32-08_260595134347_rgbf000027-resize_0-target.png,250,4.388999999999999,12,3449,259,feet,jsons/v1_VE250_randls_6_rotated.json,684379,958069,41,Man
24,460407,DepthScenes,duration_manipulation_targetAtFixation,jsons/v1_VE250_randls_6_rotated.json,http://54.235.29.9/FacialAge/BNav_EC2/DepthDuration/v2_depth_duration_MTurk/v2_DepthDuration_HTML.html#393,393,1280,587,1280,720,9-19-2022,14-49-46,25,depth_duration_stimuli/000436_2014-06-09_22-25-11_260595134347_rgbf000137-resize_1/000436_2014-06-09_22-25-11_260595134347_rgbf000137-resize_1-target.png,250,4.0705,11,4234,263,feet,jsons/v1_VE250_randls_6_rotated.json,684379,958069,41,Man
25,460407,DepthScenes,duration_manipulation_targetAtFixation,jsons/v1_VE250_randls_6_rotated.json,http://54.235.29.9/FacialAge/BNav_EC2/DepthDuration/v2_depth_duration_MTurk/v2_DepthDuration_HTML.html#393,393,1280,587,1280,720,9-19-2022,14-49-46,26,depth_duration_stimuli/002199_2014-06-28_18-33-56_260595134347_rgbf000074-resize_0/002199_2014-06-28_18-33-56_260595134347_rgbf000074-resize_0-target.png,250,1.996,1,2953,257,feet,jsons/v1_VE250_randls_6_rotated.json,684379,958069,41,Man
26,460407,DepthScenes,duration_manipulation_targetAtFixation,jsons/v1_VE250_randls_6_rotated.json,http://54.235.29.9/FacialAge/BNav_EC2/DepthDuration/v2_depth_duration_MTurk/v2_DepthDuration_HTML.html#393,393,1280,587,1280,720,9-19-2022,14-49-46,27,depth_duration_stimuli/001056_2014-06-08_18-46-44_260595134347_rgbf000068-resize_0/001056_2014-06-08_18-46-44_260595134347_rgbf000068-resize_0-target.png,250,2.6625,8,3099,245,feet,jsons/v1_VE250_randls_6_rotated.json,684379,958069,41,Man
27,460407,DepthScenes,duration_manipulation_targetAtFixation,jsons/v1_VE250_randls_6_rotated.json,http://54.235.29.9/FacialAge/BNav_EC2/DepthDuration/v2_depth_duration_MTurk/v2_DepthDuration_HTML.html#393,393,1280,587,1280,720,9-19-2022,14-49-46,28,depth_duration_stimuli/000742_2014-06-08_18-48-09_260595134347_rgbf000164-resize_4/000742_2014-06-08_18-48-09_260595134347_rgbf000164-resize_4-target.png,250,4.632,10,2894,259,feet,jsons/v1_VE250_randls_6_rotated.json,684379,958069,41,Man
28,460407,DepthScenes,duration_manipulation_targetAtFixation,jsons/v1_VE250_randls_6_rotated.json,http://54.235.29.9/FacialAge/BNav_EC2/DepthDuration/v2_depth_duration_MTurk/v2_DepthDuration_HTML.html#393,393,1280,587,1280,720,9-19-2022,14-49-46,29,depth_duration_stimuli/001066_2014-06-08_22-03-20_260595134347_rgbf000066-resize_4/001066_2014-06-08_22-03-20_260595134347_rgbf000066-resize_4-target.png,250,4.2330000000000005,14,4506,250,feet,jsons/v1_VE250_randls_6_rotated.json,684379,958069,41,Man
29,460407,DepthScenes,duration_manipulation_targetAtFixation,jsons/v1_VE250_randls_6_rotated.json,http://54.235.29.9/FacialAge/BNav_EC2/DepthDuration/v2_depth_duration_MTurk/v2_DepthDuration_HTML.html#393,393,1280,587,1280,720,9-19-2022,14-49-46,30,depth_duration_stimuli/002072_2014-06-24_21-48-06_260595134347_rgbf000115-resize_0/002072_2014-06-24_21-48-06_260595134347_rgbf000115-resize-original.jpg,250,4.702,0,3547,250,feet,jsons/v1_VE250_randls_6_rotated.json,684379,958069,41,Man
30,460407,DepthScenes,duration_manipulation_targetAtFixation,jsons/v1_VE250_randls_6_rotated.json,http://54.235.29.9/FacialAge/BNav_EC2/DepthDuration/v2_depth_duration_MTurk/v2_DepthDuration_HTML.html#393,393,1280,587,1280,720,9-19-2022,14-49-46,31,depth_duration_stimuli/001032_2014-06-08_13-23-17_260595134347_rgbf000021-resize_3/001032_2014-06-08_13-23-17_260595134347_rgbf000021-resize_3-target.png,250,3.2725,5,4449,264,feet,jsons/v1_VE250_randls_6_rotated.json,684379,958069,41,Man
31,460407,DepthScenes,duration_manipulation_targetAtFixation,jsons/v1_VE250_randls_6_rotated.json,http://54.235.29.9/FacialAge/BNav_EC2/DepthDuration/v2_depth_duration_MTurk/v2_DepthDuration_HTML.html#393,393,1280,587,1280,720,9-19-2022,14-49-46,32,depth_duration_stimuli/001059_2014-06-08_21-53-27_260595134347_rgbf000061-resize_4/001059_2014-06-08_21-53-27_260595134347_rgbf000061-resize_4-target.png,250,2.4185,6,5439,252,feet,jsons/v1_VE250_randls_6_rotated.json,684379,958069,41,Man
32,460407,DepthScenes,duration_manipulation_targetAtFixation,jsons/v1_VE250_randls_6_rotated.json,http://54.235.29.9/FacialAge/BNav_EC2/DepthDuration/v2_depth_duration_MTurk/v2_DepthDuration_HTML.html#393,393,1280,587,1280,720,9-19-2022,14-49-46,33,depth_duration_stimuli/000191_2014-05-12_17-07-38_260595134347_rgbf000199-resize_0/000191_2014-05-12_17-07-38_260595134347_rgbf000199-resize_0-target.png,250,3.7995,10,3311,250,feet,jsons/v1_VE250_randls_6_rotated.json,684379,958069,41,Man
33,460407,DepthScenes,duration_manipulation_targetAtFixation,jsons/v1_VE250_randls_6_rotated.json,http://54.235.29.9/FacialAge/BNav_EC2/DepthDuration/v2_depth_duration_MTurk/v2_DepthDuration_HTML.html#393,393,1280,587,1280,720,9-19-2022,14-49-46,34,depth_duration_stimuli/000493_2014-06-09_21-01-18_260595134347_rgbf000196-resize_3/000493_2014-06-09_21-01-18_260595134347_rgbf000196-resize_3-target.png,250,3.44,9,8218,253,feet,jsons/v1_VE250_randls_6_rotated.json,684379,958069,41,Man
34,460407,DepthScenes,duration_manipulation_targetAtFixation,jsons/v1_VE250_randls_6_rotated.json,http://54.235.29.9/FacialAge/BNav_EC2/DepthDuration/v2_depth_duration_MTurk/v2_DepthDuration_HTML.html#393,393,1280,587,1280,720,9-19-2022,14-49-46,35,depth_duration_stimuli/001447_2014-06-19_17-00-32_260595134347_rgbf000082-resize_5/001447_2014-06-19_17-00-32_260595134347_rgbf000082-resize_5-target.png,250,4.13775,7,3460,235,feet,jsons/v1_VE250_randls_6_rotated.json,684379,958069,41,Man
35,460407,DepthScenes,duration_manipulation_targetAtFixation,jsons/v1_VE250_randls_6_rotated.json,http://54.235.29.9/FacialAge/BNav_EC2/DepthDuration/v2_depth_duration_MTurk/v2_DepthDuration_HTML.html#393,393,1280,587,1280,720,9-19-2022,14-49-46,36,depth_duration_stimuli/000447_2014-06-08_16-15-46_260595134347_rgbf000130-resize_1/000447_2014-06-08_16-15-46_260595134347_rgbf000130-resize_1-target.png,250,4.479,11,6316,250,feet,jsons/v1_VE250_randls_6_rotated.json,684379,958069,41,Man
36,460407,DepthScenes,duration_manipulation_targetAtFixation,jsons/v1_VE250_randls_6_rotated.json,http://54.235.29.9/FacialAge/BNav_EC2/DepthDuration/v2_depth_duration_MTurk/v2_DepthDuration_HTML.html#393,393,1280,587,1280,720,9-19-2022,14-49-46,37,depth_duration_stimuli/002953_2014-06-08_17-32-18_094959634447_rgbf000059-resize_5/002953_2014-06-08_17-32-18_094959634447_rgbf000059-resize_5-target.png,250,1.551,3,5308,234,feet,jsons/v1_VE250_randls_6_rotated.json,684379,958069,41,Man
37,460407,DepthScenes,duration_manipulation_targetAtFixation,jsons/v1_VE250_randls_6_rotated.json,http://54.235.29.9/FacialAge/BNav_EC2/DepthDuration/v2_depth_duration_MTurk/v2_DepthDuration_HTML.html#393,393,1280,587,1280,720,9-19-2022,14-49-46,38,depth_duration_stimuli/000878_2014-06-08_22-52-45_260595134347_rgbf000045-resize_2/000878_2014-06-08_22-52-45_260595134347_rgbf000045-resize_2-target.png,250,2.092,5,3081,250,feet,jsons/v1_VE250_randls_6_rotated.json,684379,958069,41,Man
38,460407,DepthScenes,duration_manipulation_targetAtFixation,jsons/v1_VE250_randls_6_rotated.json,http://54.235.29.9/FacialAge/BNav_EC2/DepthDuration/v2_depth_duration_MTurk/v2_DepthDuration_HTML.html#393,393,1280,587,1280,720,9-19-2022,14-49-46,39,depth_duration_stimuli/000866_2014-06-09_20-45-42_260595134347_rgbf000139-resize_1/000866_2014-06-09_20-45-42_260595134347_rgbf000139-resize_1-target.png,250,3.2155,6,4109,246,feet,jsons/v1_VE250_randls_6_rotated.json,684379,958069,41,Man
39,460407,DepthScenes,duration_manipulation_targetAtFixation,jsons/v1_VE250_randls_6_rotated.json,http://54.235.29.9/FacialAge/BNav_EC2/DepthDuration/v2_depth_duration_MTurk/v2_DepthDuration_HTML.html#393,393,1280,587,1280,720,9-19-2022,14-49-46,40,depth_duration_stimuli/002989_2014-06-15_12-25-03_094959634447_rgbf000150-resize_3/002989_2014-06-15_12-25-03_094959634447_rgbf000150-resize_3-target.png,250,4.1975,14,3287,238,feet,jsons/v1_VE250_randls_6_rotated.json,684379,958069,41,Man
40,460407,DepthScenes,duration_manipulation_targetAtFixation,jsons/v1_VE250_randls_6_rotated.json,http://54.235.29.9/FacialAge/BNav_EC2/DepthDuration/v2_depth_duration_MTurk/v2_DepthDuration_HTML.html#393,393,1280,587,1280,720,9-19-2022,14-49-46,41,depth_duration_stimuli/002545_2014-06-24_13-38-53_094959634447_rgbf000080-resize_4/002545_2014-06-24_13-38-53_094959634447_rgbf000080-resize_4-target.png,250,1.9205,5,3323,238,feet,jsons/v1_VE250_randls_6_rotated.json,684379,958069,41,Man
41,460407,DepthScenes,duration_manipulation_targetAtFixation,jsons/v1_VE250_randls_6_rotated.json,http://54.235.29.9/FacialAge/BNav_EC2/DepthDuration/v2_depth_duration_MTurk/v2_DepthDuration_HTML.html#393,393,1280,587,1280,720,9-19-2022,14-49-46,42,depth_duration_stimuli/001092_2014-06-15_17-34-58_260595134347_rgbf000171-resize_3/001092_2014-06-15_17-34-58_260595134347_rgbf000171-resize_3-target.png,250,2.6935,6,3659,237,feet,jsons/v1_VE250_randls_6_rotated.json,684379,958069,41,Man
42,460407,DepthScenes,duration_manipulation_targetAtFixation,jsons/v1_VE250_randls_6_rotated.json,http://54.235.29.9/FacialAge/BNav_EC2/DepthDuration/v2_depth_duration_MTurk/v2_DepthDuration_HTML.html#393,393,1280,587,1280,720,9-19-2022,14-49-46,43,depth_duration_stimuli/000749_2014-06-08_21-55-06_260595134347_rgbf000070-resize_2/000749_2014-06-08_21-55-06_260595134347_rgbf000070-resize_2-target.png,250,2.331,5,3392,253,feet,jsons/v1_VE250_randls_6_rotated.json,684379,958069,41,Man
43,460407,DepthScenes,duration_manipulation_targetAtFixation,jsons/v1_VE250_randls_6_rotated.json,http://54.235.29.9/FacialAge/BNav_EC2/DepthDuration/v2_depth_duration_MTurk/v2_DepthDuration_HTML.html#393,393,1280,587,1280,720,9-19-2022,14-49-46,44,depth_duration_stimuli/002788_2014-06-22_19-36-03_094959634447_rgbf000088-resize_2/002788_2014-06-22_19-36-03_094959634447_rgbf000088-resize_2-target.png,250,1.6465,8,4243,250,feet,jsons/v1_VE250_randls_6_rotated.json,684379,958069,41,Man
44,460407,DepthScenes,duration_manipulation_targetAtFixation,jsons/v1_VE250_randls_6_rotated.json,http://54.235.29.9/FacialAge/BNav_EC2/DepthDuration/v2_depth_duration_MTurk/v2_DepthDuration_HTML.html#393,393,1280,587,1280,720,9-19-2022,14-49-46,45,depth_duration_stimuli/000502_2014-06-08_23-02-32_260595134347_rgbf000063-resize_4/000502_2014-06-08_23-02-32_260595134347_rgbf000063-resize_4-target.png,250,2.431,6,2568,248,feet,jsons/v1_VE250_randls_6_rotated.json,684379,958069,41,Man
45,460407,DepthScenes,duration_manipulation_targetAtFixation,jsons/v1_VE250_randls_6_rotated.json,http://54.235.29.9/FacialAge/BNav_EC2/DepthDuration/v2_depth_duration_MTurk/v2_DepthDuration_HTML.html#393,393,1280,587,1280,720,9-19-2022,14-49-46,46,depth_duration_stimuli/001199_2014-06-17_16-03-48_260595134347_rgbf000077-resize_0/001199_2014-06-17_16-03-48_260595134347_rgbf000077-resize_0-target.png,250,3.4375,10,3885,252,feet,jsons/v1_VE250_randls_6_rotated.json,684379,958069,41,Man
46,460407,DepthScenes,duration_manipulation_targetAtFixation,jsons/v1_VE250_randls_6_rotated.json,http://54.235.29.9/FacialAge/BNav_EC2/DepthDuration/v2_depth_duration_MTurk/v2_DepthDuration_HTML.html#393,393,1280,587,1280,720,9-19-2022,14-49-46,47,depth_duration_stimuli/001094_2014-06-15_17-36-00_260595134347_rgbf000205-resize_0/001094_2014-06-15_17-36-00_260595134347_rgbf000205-resize_0-target.png,250,4.2175,12,3775,251,feet,jsons/v1_VE250_randls_6_rotated.json,684379,958069,41,Man
47,460407,DepthScenes,duration_manipulation_targetAtFixation,jsons/v1_VE250_randls_6_rotated.json,http://54.235.29.9/FacialAge/BNav_EC2/DepthDuration/v2_depth_duration_MTurk/v2_DepthDuration_HTML.html#393,393,1280,587,1280,720,9-19-2022,14-49-46,48,depth_duration_stimuli/000692_2014-06-08_13-09-42_260595134347_rgbf000199-resize_2/000692_2014-06-08_13-09-42_260595134347_rgbf000199-resize_2-target.png,250,3.661,6,5438,248,feet,jsons/v1_VE250_randls_6_rotated.json,684379,958069,41,Man
48,460407,DepthScenes,duration_manipulation_targetAtFixation,jsons/v1_VE250_randls_6_rotated.json,http://54.235.29.9/FacialAge/BNav_EC2/DepthDuration/v2_depth_duration_MTurk/v2_DepthDuration_HTML.html#393,393,1280,587,1280,720,9-19-2022,14-49-46,49,depth_duration_stimuli/001170_2014-06-17_15-43-44_260595134347_rgbf000096-resize_6/001170_2014-06-17_15-43-44_260595134347_rgbf000096-resize-original.jpg,250,1.1909999999999998,0,3412,249,feet,jsons/v1_VE250_randls_6_rotated.json,684379,958069,41,Man
49,460407,DepthScenes,duration_manipulation_targetAtFixation,jsons/v1_VE250_randls_6_rotated.json,http://54.235.29.9/FacialAge/BNav_EC2/DepthDuration/v2_depth_duration_MTurk/v2_DepthDuration_HTML.html#393,393,1280,587,1280,720,9-19-2022,14-49-46,50,depth_duration_stimuli/000635_2014-06-08_16-38-42_260595134347_rgbf000106-resize_1/000635_2014-06-08_16-38-42_260595134347_rgbf000106-resize_1-target.png,250,2.074,6,3308,250,feet,jsons/v1_VE250_randls_6_rotated.json,684379,958069,41,Man
50,460407,DepthScenes,duration_manipulation_targetAtFixation,jsons/v1_VE250_randls_6_rotated.json,http://54.235.29.9/FacialAge/BNav_EC2/DepthDuration/v2_depth_duration_MTurk/v2_DepthDuration_HTML.html#393,393,1280,587,1280,720,9-19-2022,14-49-46,51,depth_duration_stimuli/002279_2014-06-28_18-55-32_260595134347_rgbf000040-resize_5/002279_2014-06-28_18-55-32_260595134347_rgbf000040-resize_5-target.png,250,1.5043333333333,2,3808,250,feet,jsons/v1_VE250_randls_6_rotated.json,684379,958069,41,Man
51,460407,DepthScenes,duration_manipulation_targetAtFixation,jsons/v1_VE250_randls_6_rotated.json,http://54.235.29.9/FacialAge/BNav_EC2/DepthDuration/v2_depth_duration_MTurk/v2_DepthDuration_HTML.html#393,393,1280,587,1280,720,9-19-2022,14-49-46,52,depth_duration_stimuli/000457_2014-06-08_16-52-43_260595134347_rgbf000199-resize_1/000457_2014-06-08_16-52-43_260595134347_rgbf000199-resize_1-target.png,250,3.6489999999999996,8,3328,242,feet,jsons/v1_VE250_randls_6_rotated.json,684379,958069,41,Man
52,460407,DepthScenes,duration_manipulation_targetAtFixation,jsons/v1_VE250_randls_6_rotated.json,http://54.235.29.9/FacialAge/BNav_EC2/DepthDuration/v2_depth_duration_MTurk/v2_DepthDuration_HTML.html#393,393,1280,587,1280,720,9-19-2022,14-49-46,53,depth_duration_stimuli/000929_2014-06-09_16-33-19_260595134347_rgbf000139-resize_0/000929_2014-06-09_16-33-19_260595134347_rgbf000139-resize_0-target.png,250,2.8680000000000003,6,3090,253,feet,jsons/v1_VE250_randls_6_rotated.json,684379,958069,41,Man
53,460407,DepthScenes,duration_manipulation_targetAtFixation,jsons/v1_VE250_randls_6_rotated.json,http://54.235.29.9/FacialAge/BNav_EC2/DepthDuration/v2_depth_duration_MTurk/v2_DepthDuration_HTML.html#393,393,1280,587,1280,720,9-19-2022,14-49-46,54,depth_duration_stimuli/002344_2014-06-28_20-06-29_260595134347_rgbf000030-resize_1/002344_2014-06-28_20-06-29_260595134347_rgbf000030-resize_1-target.png,250,1.5795,2,2660,250,feet,jsons/v1_VE250_randls_6_rotated.json,684379,958069,41,Man
54,460407,DepthScenes,duration_manipulation_targetAtFixation,jsons/v1_VE250_randls_6_rotated.json,http://54.235.29.9/FacialAge/BNav_EC2/DepthDuration/v2_depth_duration_MTurk/v2_DepthDuration_HTML.html#393,393,1280,587,1280,720,9-19-2022,14-49-46,55,depth_duration_stimuli/002725_2014-06-22_11-47-51_094959634447_rgbf000070-resize_1/002725_2014-06-22_11-47-51_094959634447_rgbf000070-resize_1-target.png,250,2.195,4,4518,250,feet,jsons/v1_VE250_randls_6_rotated.json,684379,958069,41,Man
55,460407,DepthScenes,duration_manipulation_targetAtFixation,jsons/v1_VE250_randls_6_rotated.json,http://54.235.29.9/FacialAge/BNav_EC2/DepthDuration/v2_depth_duration_MTurk/v2_DepthDuration_HTML.html#393,393,1280,587,1280,720,9-19-2022,14-49-46,56,depth_duration_stimuli/002639_2014-06-24_14-51-37_094959634447_rgbf000074-resize_4/002639_2014-06-24_14-51-37_094959634447_rgbf000074-resize_4-target.png,250,4.0375,8,2526,252,feet,jsons/v1_VE250_randls_6_rotated.json,684379,958069,41,Man
56,460407,DepthScenes,duration_manipulation_targetAtFixation,jsons/v1_VE250_randls_6_rotated.json,http://54.235.29.9/FacialAge/BNav_EC2/DepthDuration/v2_depth_duration_MTurk/v2_DepthDuration_HTML.html#393,393,1280,587,1280,720,9-19-2022,14-49-46,57,depth_duration_stimuli/003292_2014-05-14_21-53-49_094959634447_rgbf000100-resize_2/003292_2014-05-14_21-53-49_094959634447_rgbf000100-resize_2-target.png,250,3.4815,6,3523,255,feet,jsons/v1_VE250_randls_6_rotated.json,684379,958069,41,Man
57,460407,DepthScenes,duration_manipulation_targetAtFixation,jsons/v1_VE250_randls_6_rotated.json,http://54.235.29.9/FacialAge/BNav_EC2/DepthDuration/v2_depth_duration_MTurk/v2_DepthDuration_HTML.html#393,393,1280,587,1280,720,9-19-2022,14-49-46,58,depth_duration_stimuli/001136_2014-06-17_15-19-41_260595134347_rgbf000076-resize_3/001136_2014-06-17_15-19-41_260595134347_rgbf000076-resize_3-target.png,250,1.8655,5,2744,251,feet,jsons/v1_VE250_randls_6_rotated.json,684379,958069,41,Man
58,460407,DepthScenes,duration_manipulation_targetAtFixation,jsons/v1_VE250_randls_6_rotated.json,http://54.235.29.9/FacialAge/BNav_EC2/DepthDuration/v2_depth_duration_MTurk/v2_DepthDuration_HTML.html#393,393,1280,587,1280,720,9-19-2022,14-49-46,59,depth_duration_stimuli/001164_2014-06-17_15-35-46_260595134347_rgbf000085-resize_3/001164_2014-06-17_15-35-46_260595134347_rgbf000085-resize_3-target.png,250,2.354,5,2332,235,feet,jsons/v1_VE250_randls_6_rotated.json,684379,958069,41,Man
59,460407,DepthScenes,duration_manipulation_targetAtFixation,jsons/v1_VE250_randls_6_rotated.json,http://54.235.29.9/FacialAge/BNav_EC2/DepthDuration/v2_depth_duration_MTurk/v2_DepthDuration_HTML.html#393,393,1280,587,1280,720,9-19-2022,14-49-46,60,depth_duration_stimuli/000483_2014-06-09_20-41-45_260595134347_rgbf000116-resize_4/000483_2014-06-09_20-41-45_260595134347_rgbf000116-resize_4-target.png,250,1.337,3,2743,250,feet,jsons/v1_VE250_randls_6_rotated.json,684379,958069,41,Man
60,460407,DepthScenes,duration_manipulation_targetAtFixation,jsons/v1_VE250_randls_6_rotated.json,http://54.235.29.9/FacialAge/BNav_EC2/DepthDuration/v2_depth_duration_MTurk/v2_DepthDuration_HTML.html#393,393,1280,587,1280,720,9-19-2022,14-49-46,61,depth_duration_stimuli/000469_2014-06-09_19-42-10_260595134347_rgbf000081-resize_1/000469_2014-06-09_19-42-10_260595134347_rgbf000081-resize_1-target.png,250,1.652,2,2503,249,feet,jsons/v1_VE250_randls_6_rotated.json,684379,958069,41,Man
61,460407,DepthScenes,duration_manipulation_targetAtFixation,jsons/v1_VE250_randls_6_rotated.json,http://54.235.29.9/FacialAge/BNav_EC2/DepthDuration/v2_depth_duration_MTurk/v2_DepthDuration_HTML.html#393,393,1280,587,1280,720,9-19-2022,14-49-46,62,depth_duration_stimuli/000109_2014-05-14_23-41-52_260595134347_rgbf000035-resize_9/000109_2014-05-14_23-41-52_260595134347_rgbf000035-resize_9-target.png,250,1.3545,2,2344,257,feet,jsons/v1_VE250_randls_6_rotated.json,684379,958069,41,Man
62,460407,DepthScenes,duration_manipulation_targetAtFixation,jsons/v1_VE250_randls_6_rotated.json,http://54.235.29.9/FacialAge/BNav_EC2/DepthDuration/v2_depth_duration_MTurk/v2_DepthDuration_HTML.html#393,393,1280,587,1280,720,9-19-2022,14-49-46,63,depth_duration_stimuli/000470_2014-06-09_19-42-40_260595134347_rgbf000094-resize_1/000470_2014-06-09_19-42-40_260595134347_rgbf000094-resize_1-target.png,250,1.831,3,2442,252,feet,jsons/v1_VE250_randls_6_rotated.json,684379,958069,41,Man
63,460407,DepthScenes,duration_manipulation_targetAtFixation,jsons/v1_VE250_randls_6_rotated.json,http://54.235.29.9/FacialAge/BNav_EC2/DepthDuration/v2_depth_duration_MTurk/v2_DepthDuration_HTML.html#393,393,1280,587,1280,720,9-19-2022,14-49-46,64,depth_duration_stimuli/000549_2014-06-08_22-10-24_260595134347_rgbf000247-resize_3/000549_2014-06-08_22-10-24_260595134347_rgbf000247-resize_3-target.png,250,1.841,2,2783,249,feet,jsons/v1_VE250_randls_6_rotated.json,684379,958069,41,Man
64,460407,DepthScenes,duration_manipulation_targetAtFixation,jsons/v1_VE250_randls_6_rotated.json,http://54.235.29.9/FacialAge/BNav_EC2/DepthDuration/v2_depth_duration_MTurk/v2_DepthDuration_HTML.html#393,393,1280,587,1280,720,9-19-2022,14-49-46,65,depth_duration_stimuli/001055_2014-06-08_18-45-35_260595134347_rgbf000111-resize_4/001055_2014-06-08_18-45-35_260595134347_rgbf000111-resize_4-target.png,250,2.4290000000000003,8,3187,236,feet,jsons/v1_VE250_randls_6_rotated.json,684379,958069,41,Man
65,460407,DepthScenes,duration_manipulation_targetAtFixation,jsons/v1_VE250_randls_6_rotated.json,http://54.235.29.9/FacialAge/BNav_EC2/DepthDuration/v2_depth_duration_MTurk/v2_DepthDuration_HTML.html#393,393,1280,587,1280,720,9-19-2022,14-49-46,66,depth_duration_stimuli/001540_2014-06-20_17-01-05_260595134347_rgbf000086-resize_2/001540_2014-06-20_17-01-05_260595134347_rgbf000086-resize-original.jpg,250,1.459,0,3819,262,feet,jsons/v1_VE250_randls_6_rotated.json,684379,958069,41,Man
66,460407,DepthScenes,duration_manipulation_targetAtFixation,jsons/v1_VE250_randls_6_rotated.json,http://54.235.29.9/FacialAge/BNav_EC2/DepthDuration/v2_depth_duration_MTurk/v2_DepthDuration_HTML.html#393,393,1280,587,1280,720,9-19-2022,14-49-46,67,depth_duration_stimuli/002660_2014-06-13_15-44-18_094959634447_rgbf001878-resize_2/002660_2014-06-13_15-44-18_094959634447_rgbf001878-resize_2-target.png,250,3.576,9,3425,253,feet,jsons/v1_VE250_randls_6_rotated.json,684379,958069,41,Man
67,460407,DepthScenes,duration_manipulation_targetAtFixation,jsons/v1_VE250_randls_6_rotated.json,http://54.235.29.9/FacialAge/BNav_EC2/DepthDuration/v2_depth_duration_MTurk/v2_DepthDuration_HTML.html#393,393,1280,587,1280,720,9-19-2022,14-49-46,68,depth_duration_stimuli/002153_2014-06-25_21-27-18_260595134347_rgbf000038-resize_5/002153_2014-06-25_21-27-18_260595134347_rgbf000038-resize_5-target.png,250,2.505,6,8959,250,feet,jsons/v1_VE250_randls_6_rotated.json,684379,958069,41,Man
68,460407,DepthScenes,duration_manipulation_targetAtFixation,jsons/v1_VE250_randls_6_rotated.json,http://54.235.29.9/FacialAge/BNav_EC2/DepthDuration/v2_depth_duration_MTurk/v2_DepthDuration_HTML.html#393,393,1280,587,1280,720,9-19-2022,14-49-46,69,depth_duration_stimuli/001617_2014-06-20_11-35-32_260595134347_rgbf000066-resize_1/001617_2014-06-20_11-35-32_260595134347_rgbf000066-resize_1-target.png,250,3.7910000000000004,10,4451,249,feet,jsons/v1_VE250_randls_6_rotated.json,684379,958069,41,Man
69,460407,DepthScenes,duration_manipulation_targetAtFixation,jsons/v1_VE250_randls_6_rotated.json,http://54.235.29.9/FacialAge/BNav_EC2/DepthDuration/v2_depth_duration_MTurk/v2_DepthDuration_HTML.html#393,393,1280,587,1280,720,9-19-2022,14-49-46,70,depth_duration_stimuli/001806_2014-06-26_20-50-20_260595134347_rgbf000091-resize_1/001806_2014-06-26_20-50-20_260595134347_rgbf000091-resize_1-target.png,250,2.7305,4,3482,250,feet,jsons/v1_VE250_randls_6_rotated.json,684379,958069,41,Man
70,460407,DepthScenes,duration_manipulation_targetAtFixation,jsons/v1_VE250_randls_6_rotated.json,http://54.235.29.9/FacialAge/BNav_EC2/DepthDuration/v2_depth_duration_MTurk/v2_DepthDuration_HTML.html#393,393,1280,587,1280,720,9-19-2022,14-49-46,71,depth_duration_stimuli/002467_2014-06-28_20-38-07_260595134347_rgbf000026-resize_2/002467_2014-06-28_20-38-07_260595134347_rgbf000026-resize_2-target.png,250,4.742,16,3739,250,feet,jsons/v1_VE250_randls_6_rotated.json,684379,958069,41,Man
71,460407,DepthScenes,duration_manipulation_targetAtFixation,jsons/v1_VE250_randls_6_rotated.json,http://54.235.29.9/FacialAge/BNav_EC2/DepthDuration/v2_depth_duration_MTurk/v2_DepthDuration_HTML.html#393,393,1280,587,1280,720,9-19-2022,14-49-46,72,depth_duration_stimuli/002570_2014-06-24_13-59-54_094959634447_rgbf000059-resize_0/002570_2014-06-24_13-59-54_094959634447_rgbf000059-resize_0-target.png,250,4.037,5,3004,247,feet,jsons/v1_VE250_randls_6_rotated.json,684379,958069,41,Man
72,460407,DepthScenes,duration_manipulation_targetAtFixation,jsons/v1_VE250_randls_6_rotated.json,http://54.235.29.9/FacialAge/BNav_EC2/DepthDuration/v2_depth_duration_MTurk/v2_DepthDuration_HTML.html#393,393,1280,587,1280,720,9-19-2022,14-49-46,73,depth_duration_stimuli/002805_2014-06-22_19-54-03_094959634447_rgbf000079-resize_1/002805_2014-06-22_19-54-03_094959634447_rgbf000079-resize_1-target.png,250,3.1439999999999997,9,3322,247,feet,jsons/v1_VE250_randls_6_rotated.json,684379,958069,41,Man
73,460407,DepthScenes,duration_manipulation_targetAtFixation,jsons/v1_VE250_randls_6_rotated.json,http://54.235.29.9/FacialAge/BNav_EC2/DepthDuration/v2_depth_duration_MTurk/v2_DepthDuration_HTML.html#393,393,1280,587,1280,720,9-19-2022,14-49-46,74,depth_duration_stimuli/000906_2014-06-08_13-35-43_260595134347_rgbf000155-resize_1/000906_2014-06-08_13-35-43_260595134347_rgbf000155-resize_1-target.png,250,2.8489999999999998,11,5392,252,feet,jsons/v1_VE250_randls_6_rotated.json,684379,958069,41,Man
74,460407,DepthScenes,duration_manipulation_targetAtFixation,jsons/v1_VE250_randls_6_rotated.json,http://54.235.29.9/FacialAge/BNav_EC2/DepthDuration/v2_depth_duration_MTurk/v2_DepthDuration_HTML.html#393,393,1280,587,1280,720,9-19-2022,14-49-46,75,depth_duration_stimuli/002414_2014-06-28_20-24-58_260595134347_rgbf000067-resize_4/002414_2014-06-28_20-24-58_260595134347_rgbf000067-resize_4-target.png,250,4.363,12,4596,250,feet,jsons/v1_VE250_randls_6_rotated.json,684379,958069,41,Man
75,460407,DepthScenes,duration_manipulation_targetAtFixation,jsons/v1_VE250_randls_6_rotated.json,http://54.235.29.9/FacialAge/BNav_EC2/DepthDuration/v2_depth_duration_MTurk/v2_DepthDuration_HTML.html#393,393,1280,587,1280,720,9-19-2022,14-49-46,76,depth_duration_stimuli/000773_2014-06-08_22-24-54_260595134347_rgbf000093-resize_1/000773_2014-06-08_22-24-54_260595134347_rgbf000093-resize_1-target.png,250,4.973,9,3021,257,feet,jsons/v1_VE250_randls_6_rotated.json,684379,958069,41,Man
76,460407,DepthScenes,duration_manipulation_targetAtFixation,jsons/v1_VE250_randls_6_rotated.json,http://54.235.29.9/FacialAge/BNav_EC2/DepthDuration/v2_depth_duration_MTurk/v2_DepthDuration_HTML.html#393,393,1280,587,1280,720,9-19-2022,14-49-46,77,depth_duration_stimuli/000709_2014-06-08_13-51-55_260595134347_rgbf000068-resize_3/000709_2014-06-08_13-51-55_260595134347_rgbf000068-resize_3-target.png,250,1.8030000000000002,3,4277,249,feet,jsons/v1_VE250_randls_6_rotated.json,684379,958069,41,Man
77,460407,DepthScenes,duration_manipulation_targetAtFixation,jsons/v1_VE250_randls_6_rotated.json,http://54.235.29.9/FacialAge/BNav_EC2/DepthDuration/v2_depth_duration_MTurk/v2_DepthDuration_HTML.html#393,393,1280,587,1280,720,9-19-2022,14-49-46,78,depth_duration_stimuli/002057_2014-06-24_21-00-13_260595134347_rgbf000120-resize_1/002057_2014-06-24_21-00-13_260595134347_rgbf000120-resize_1-target.png,250,2.967,9,5271,254,feet,jsons/v1_VE250_randls_6_rotated.json,684379,958069,41,Man
78,460407,DepthScenes,duration_manipulation_targetAtFixation,jsons/v1_VE250_randls_6_rotated.json,http://54.235.29.9/FacialAge/BNav_EC2/DepthDuration/v2_depth_duration_MTurk/v2_DepthDuration_HTML.html#393,393,1280,587,1280,720,9-19-2022,14-49-46,79,depth_duration_stimuli/002750_2014-06-22_19-08-03_094959634447_rgbf000094-resize_4/002750_2014-06-22_19-08-03_094959634447_rgbf000094-resize_4-target.png,250,2.354,8,5032,255,feet,jsons/v1_VE250_randls_6_rotated.json,684379,958069,41,Man
79,460407,DepthScenes,duration_manipulation_targetAtFixation,jsons/v1_VE250_randls_6_rotated.json,http://54.235.29.9/FacialAge/BNav_EC2/DepthDuration/v2_depth_duration_MTurk/v2_DepthDuration_HTML.html#393,393,1280,587,1280,720,9-19-2022,14-49-46,80,depth_duration_stimuli/002549_2014-06-24_13-41-39_094959634447_rgbf000022-resize_3/002549_2014-06-24_13-41-39_094959634447_rgbf000022-resize_3-target.png,250,1.476,2,2446,249,feet,jsons/v1_VE250_randls_6_rotated.json,684379,958069,41,Man
80,460407,DepthScenes,duration_manipulation_targetAtFixation,jsons/v1_VE250_randls_6_rotated.json,http://54.235.29.9/FacialAge/BNav_EC2/DepthDuration/v2_depth_duration_MTurk/v2_DepthDuration_HTML.html#393,393,1280,587,1280,720,9-19-2022,14-49-46,81,depth_duration_stimuli/003338_2014-05-20_11-01-23_094959634447_rgbf000051-resize_6/003338_2014-05-20_11-01-23_094959634447_rgbf000051-resize_6-target.png,250,1.693,3,2175,260,feet,jsons/v1_VE250_randls_6_rotated.json,684379,958069,41,Man
81,460407,DepthScenes,duration_manipulation_targetAtFixation,jsons/v1_VE250_randls_6_rotated.json,http://54.235.29.9/FacialAge/BNav_EC2/DepthDuration/v2_depth_duration_MTurk/v2_DepthDuration_HTML.html#393,393,1280,587,1280,720,9-19-2022,14-49-46,82,depth_duration_stimuli/002509_2014-06-24_13-19-22_094959634447_rgbf000077-resize_0/002509_2014-06-24_13-19-22_094959634447_rgbf000077-resize_0-target.png,250,1.3065,1,2958,247,feet,jsons/v1_VE250_randls_6_rotated.json,684379,958069,41,Man
82,460407,DepthScenes,duration_manipulation_targetAtFixation,jsons/v1_VE250_randls_6_rotated.json,http://54.235.29.9/FacialAge/BNav_EC2/DepthDuration/v2_depth_duration_MTurk/v2_DepthDuration_HTML.html#393,393,1280,587,1280,720,9-19-2022,14-49-46,83,depth_duration_stimuli/002657_2014-06-13_15-29-54_094959634447_rgbf000150-resize_1/002657_2014-06-13_15-29-54_094959634447_rgbf000150-resize_1-target.png,250,4.919,10,4661,256,feet,jsons/v1_VE250_randls_6_rotated.json,684379,958069,41,Man
83,460407,DepthScenes,duration_manipulation_targetAtFixation,jsons/v1_VE250_randls_6_rotated.json,http://54.235.29.9/FacialAge/BNav_EC2/DepthDuration/v2_depth_duration_MTurk/v2_DepthDuration_HTML.html#393,393,1280,587,1280,720,9-19-2022,14-49-46,84,depth_duration_stimuli/002375_2014-06-28_20-13-44_260595134347_rgbf000032-resize_1/002375_2014-06-28_20-13-44_260595134347_rgbf000032-resize_1-target.png,250,4.0175,8,3267,250,feet,jsons/v1_VE250_randls_6_rotated.json,684379,958069,41,Man
84,460407,DepthScenes,duration_manipulation_targetAtFixation,jsons/v1_VE250_randls_6_rotated.json,http://54.235.29.9/FacialAge/BNav_EC2/DepthDuration/v2_depth_duration_MTurk/v2_DepthDuration_HTML.html#393,393,1280,587,1280,720,9-19-2022,14-49-46,85,depth_duration_stimuli/001584_2014-06-20_11-07-43_260595134347_rgbf000002-resize_1/001584_2014-06-20_11-07-43_260595134347_rgbf000002-resize_1-target.png,250,3.53,9,5082,244,feet,jsons/v1_VE250_randls_6_rotated.json,684379,958069,41,Man
85,460407,DepthScenes,duration_manipulation_targetAtFixation,jsons/v1_VE250_randls_6_rotated.json,http://54.235.29.9/FacialAge/BNav_EC2/DepthDuration/v2_depth_duration_MTurk/v2_DepthDuration_HTML.html#393,393,1280,587,1280,720,9-19-2022,14-49-46,86,depth_duration_stimuli/003621_2014-05-23_18-06-08_094959634447_rgbf000101-resize_1/003621_2014-05-23_18-06-08_094959634447_rgbf000101-resize_1-target.png,250,3.9835,10,3475,250,feet,jsons/v1_VE250_randls_6_rotated.json,684379,958069,41,Man
86,460407,DepthScenes,duration_manipulation_targetAtFixation,jsons/v1_VE250_randls_6_rotated.json,http://54.235.29.9/FacialAge/BNav_EC2/DepthDuration/v2_depth_duration_MTurk/v2_DepthDuration_HTML.html#393,393,1280,587,1280,720,9-19-2022,14-49-46,87,depth_duration_stimuli/003081_2014-06-15_15-19-16_094959634447_rgbf000150-resize_1/003081_2014-06-15_15-19-16_094959634447_rgbf000150-resize_1-target.png,250,3.9125,10,3313,261,feet,jsons/v1_VE250_randls_6_rotated.json,684379,958069,41,Man
87,460407,DepthScenes,duration_manipulation_targetAtFixation,jsons/v1_VE250_randls_6_rotated.json,http://54.235.29.9/FacialAge/BNav_EC2/DepthDuration/v2_depth_duration_MTurk/v2_DepthDuration_HTML.html#393,393,1280,587,1280,720,9-19-2022,14-49-46,88,depth_duration_stimuli/001417_2014-06-19_16-25-36_260595134347_rgbf000115-resize_5/001417_2014-06-19_16-25-36_260595134347_rgbf000115-resize_5-target.png,250,4.6255,8,3152,250,feet,jsons/v1_VE250_randls_6_rotated.json,684379,958069,41,Man
88,460407,DepthScenes,duration_manipulation_targetAtFixation,jsons/v1_VE250_randls_6_rotated.json,http://54.235.29.9/FacialAge/BNav_EC2/DepthDuration/v2_depth_duration_MTurk/v2_DepthDuration_HTML.html#393,393,1280,587,1280,720,9-19-2022,14-49-46,89,depth_duration_stimuli/003079_2014-06-15_15-18-20_094959634447_rgbf000152-resize_8/003079_2014-06-15_15-18-20_094959634447_rgbf000152-resize_8-target.png,250,2.8775,11,4616,262,feet,jsons/v1_VE250_randls_6_rotated.json,684379,958069,41,Man
89,460407,DepthScenes,duration_manipulation_targetAtFixation,jsons/v1_VE250_randls_6_rotated.json,http://54.235.29.9/FacialAge/BNav_EC2/DepthDuration/v2_depth_duration_MTurk/v2_DepthDuration_HTML.html#393,393,1280,587,1280,720,9-19-2022,14-49-46,90,depth_duration_stimuli/000506_2014-06-08_23-21-00_260595134347_rgbf000070-resize_7/000506_2014-06-08_23-21-00_260595134347_rgbf000070-resize_7-target.png,250,4.0585,12,2424,250,feet,jsons/v1_VE250_randls_6_rotated.json,684379,958069,41,Man
90,460407,DepthScenes,duration_manipulation_targetAtFixation,jsons/v1_VE250_randls_6_rotated.json,http://54.235.29.9/FacialAge/BNav_EC2/DepthDuration/v2_depth_duration_MTurk/v2_DepthDuration_HTML.html#393,393,1280,587,1280,720,9-19-2022,14-49-46,91,depth_duration_stimuli/000677_2014-06-08_23-10-32_260595134347_rgbf000158-resize_6/000677_2014-06-08_23-10-32_260595134347_rgbf000158-resize_6-target.png,250,3.556,8,2525,260,feet,jsons/v1_VE250_randls_6_rotated.json,684379,958069,41,Man
91,460407,DepthScenes,duration_manipulation_targetAtFixation,jsons/v1_VE250_randls_6_rotated.json,http://54.235.29.9/FacialAge/BNav_EC2/DepthDuration/v2_depth_duration_MTurk/v2_DepthDuration_HTML.html#393,393,1280,587,1280,720,9-19-2022,14-49-46,92,depth_duration_stimuli/001029_2014-06-08_13-17-57_260595134347_rgbf000065-resize_1/001029_2014-06-08_13-17-57_260595134347_rgbf000065-resize_1-target.png,250,3.0835,8,2976,258,feet,jsons/v1_VE250_randls_6_rotated.json,684379,958069,41,Man
92,460407,DepthScenes,duration_manipulation_targetAtFixation,jsons/v1_VE250_randls_6_rotated.json,http://54.235.29.9/FacialAge/BNav_EC2/DepthDuration/v2_depth_duration_MTurk/v2_DepthDuration_HTML.html#393,393,1280,587,1280,720,9-19-2022,14-49-46,93,depth_duration_stimuli/001214_2014-06-17_16-13-55_260595134347_rgbf000111-resize_0/001214_2014-06-17_16-13-55_260595134347_rgbf000111-resize_0-target.png,250,2.6505,5,3142,250,feet,jsons/v1_VE250_randls_6_rotated.json,684379,958069,41,Man
93,460407,DepthScenes,duration_manipulation_targetAtFixation,jsons/v1_VE250_randls_6_rotated.json,http://54.235.29.9/FacialAge/BNav_EC2/DepthDuration/v2_depth_duration_MTurk/v2_DepthDuration_HTML.html#393,393,1280,587,1280,720,9-19-2022,14-49-46,94,depth_duration_stimuli/000810_2014-06-08_17-20-01_260595134347_rgbf000105-resize_0/000810_2014-06-08_17-20-01_260595134347_rgbf000105-resize_0-target.png,250,1.4865,7,4165,253,feet,jsons/v1_VE250_randls_6_rotated.json,684379,958069,41,Man
94,460407,DepthScenes,duration_manipulation_targetAtFixation,jsons/v1_VE250_randls_6_rotated.json,http://54.235.29.9/FacialAge/BNav_EC2/DepthDuration/v2_depth_duration_MTurk/v2_DepthDuration_HTML.html#393,393,1280,587,1280,720,9-19-2022,14-49-46,95,depth_duration_stimuli/003048_2014-06-15_13-49-43_094959634447_rgbf000150-resize_1/003048_2014-06-15_13-49-43_094959634447_rgbf000150-resize_1-target.png,250,4.0035,10,3561,250,feet,jsons/v1_VE250_randls_6_rotated.json,684379,958069,41,Man
95,460407,DepthScenes,duration_manipulation_targetAtFixation,jsons/v1_VE250_randls_6_rotated.json,http://54.235.29.9/FacialAge/BNav_EC2/DepthDuration/v2_depth_duration_MTurk/v2_DepthDuration_HTML.html#393,393,1280,587,1280,720,9-19-2022,14-49-46,96,depth_duration_stimuli/002043_2014-06-24_20-29-38_260595134347_rgbf000039-resize_4/002043_2014-06-24_20-29-38_260595134347_rgbf000039-resize_4-target.png,250,2.8435,8,3334,238,feet,jsons/v1_VE250_randls_6_rotated.json,684379,958069,41,Man
96,460407,DepthScenes,duration_manipulation_targetAtFixation,jsons/v1_VE250_randls_6_rotated.json,http://54.235.29.9/FacialAge/BNav_EC2/DepthDuration/v2_depth_duration_MTurk/v2_DepthDuration_HTML.html#393,393,1280,587,1280,720,9-19-2022,14-49-46,97,depth_duration_stimuli/002678_2014-06-13_16-15-32_094959634447_rgbf000151-resize_6/002678_2014-06-13_16-15-32_094959634447_rgbf000151-resize_6-target.png,250,2.1830000000000003,6,3053,252,feet,jsons/v1_VE250_randls_6_rotated.json,684379,958069,41,Man
97,460407,DepthScenes,duration_manipulation_targetAtFixation,jsons/v1_VE250_randls_6_rotated.json,http://54.235.29.9/FacialAge/BNav_EC2/DepthDuration/v2_depth_duration_MTurk/v2_DepthDuration_HTML.html#393,393,1280,587,1280,720,9-19-2022,14-49-46,98,depth_duration_stimuli/000368_2014-06-09_15-53-01_260595134347_rgbf000155-resize_2/000368_2014-06-09_15-53-01_260595134347_rgbf000155-resize_2-target.png,250,2.4859999999999998,5,3132,252,feet,jsons/v1_VE250_randls_6_rotated.json,684379,958069,41,Man
98,460407,DepthScenes,duration_manipulation_targetAtFixation,jsons/v1_VE250_randls_6_rotated.json,http://54.235.29.9/FacialAge/BNav_EC2/DepthDuration/v2_depth_duration_MTurk/v2_DepthDuration_HTML.html#393,393,1280,587,1280,720,9-19-2022,14-49-46,99,depth_duration_stimuli/001222_2014-06-17_16-24-06_260595134347_rgbf000073-resize_0/001222_2014-06-17_16-24-06_260595134347_rgbf000073-resize-original.jpg,250,1.4385,0,3596,262,feet,jsons/v1_VE250_randls_6_rotated.json,684379,958069,41,Man
99,460407,DepthScenes,duration_manipulation_targetAtFixation,jsons/v1_VE250_randls_6_rotated.json,http://54.235.29.9/FacialAge/BNav_EC2/DepthDuration/v2_depth_duration_MTurk/v2_DepthDuration_HTML.html#393,393,1280,587,1280,720,9-19-2022,14-49-46,100,depth_duration_stimuli/003129_2014-05-12_10-48-10_094959634447_rgbf000100-resize_0/003129_2014-05-12_10-48-10_094959634447_rgbf000100-resize_0-target.png,250,4.9305,12,3368,257,feet,jsons/v1_VE250_randls_6_rotated.json,684379,958069,41,Man
100,460407,DepthScenes,duration_manipulation_targetAtFixation,jsons/v1_VE250_randls_6_rotated.json,http://54.235.29.9/FacialAge/BNav_EC2/DepthDuration/v2_depth_duration_MTurk/v2_DepthDuration_HTML.html#393,393,1280,587,1280,720,9-19-2022,14-49-46,101,depth_duration_stimuli/000414_2014-06-04_19-49-13_260595134347_rgbf000044-resize_0/000414_2014-06-04_19-49-13_260595134347_rgbf000044-resize_0-target.png,250,4.329,11,3043,253,feet,jsons/v1_VE250_randls_6_rotated.json,684379,958069,41,Man
101,460407,DepthScenes,duration_manipulation_targetAtFixation,jsons/v1_VE250_randls_6_rotated.json,http://54.235.29.9/FacialAge/BNav_EC2/DepthDuration/v2_depth_duration_MTurk/v2_DepthDuration_HTML.html#393,393,1280,587,1280,720,9-19-2022,14-49-46,102,depth_duration_stimuli/000665_2014-06-09_20-42-35_260595134347_rgbf000110-resize_1/000665_2014-06-09_20-42-35_260595134347_rgbf000110-resize_1-target.png,250,3.057,7,3422,247,feet,jsons/v1_VE250_randls_6_rotated.json,684379,958069,41,Man
102,460407,DepthScenes,duration_manipulation_targetAtFixation,jsons/v1_VE250_randls_6_rotated.json,http://54.235.29.9/FacialAge/BNav_EC2/DepthDuration/v2_depth_duration_MTurk/v2_DepthDuration_HTML.html#393,393,1280,587,1280,720,9-19-2022,14-49-46,103,depth_duration_stimuli/001150_2014-06-17_15-27-34_260595134347_rgbf000108-resize_2/001150_2014-06-17_15-27-34_260595134347_rgbf000108-resize_2-target.png,250,4.0325,9,2863,249,feet,jsons/v1_VE250_randls_6_rotated.json,684379,958069,41,Man
103,460407,DepthScenes,duration_manipulation_targetAtFixation,jsons/v1_VE250_randls_6_rotated.json,http://54.235.29.9/FacialAge/BNav_EC2/DepthDuration/v2_depth_duration_MTurk/v2_DepthDuration_HTML.html#393,393,1280,587,1280,720,9-19-2022,14-49-46,104,depth_duration_stimuli/000943_2014-06-09_19-31-07_260595134347_rgbf000128-resize_1/000943_2014-06-09_19-31-07_260595134347_rgbf000128-resize_1-target.png,250,1.9765,4,4223,250,feet,jsons/v1_VE250_randls_6_rotated.json,684379,958069,41,Man
104,460407,DepthScenes,duration_manipulation_targetAtFixation,jsons/v1_VE250_randls_6_rotated.json,http://54.235.29.9/FacialAge/BNav_EC2/DepthDuration/v2_depth_duration_MTurk/v2_DepthDuration_HTML.html#393,393,1280,587,1280,720,9-19-2022,14-49-46,105,depth_duration_stimuli/003070_2014-06-15_14-58-27_094959634447_rgbf000150-resize_3/003070_2014-06-15_14-58-27_094959634447_rgbf000150-resize_3-target.png,250,2.9415,8,3614,254,feet,jsons/v1_VE250_randls_6_rotated.json,684379,958069,41,Man
105,460407,DepthScenes,duration_manipulation_targetAtFixation,jsons/v1_VE250_randls_6_rotated.json,http://54.235.29.9/FacialAge/BNav_EC2/DepthDuration/v2_depth_duration_MTurk/v2_DepthDuration_HTML.html#393,393,1280,587,1280,720,9-19-2022,14-49-46,106,depth_duration_stimuli/002103_2014-06-25_20-00-40_260595134347_rgbf000049-resize_0/002103_2014-06-25_20-00-40_260595134347_rgbf000049-resize_0-target.png,250,4.105,10,3441,251,feet,jsons/v1_VE250_randls_6_rotated.json,684379,958069,41,Man
106,460407,DepthScenes,duration_manipulation_targetAtFixation,jsons/v1_VE250_randls_6_rotated.json,http://54.235.29.9/FacialAge/BNav_EC2/DepthDuration/v2_depth_duration_MTurk/v2_DepthDuration_HTML.html#393,393,1280,587,1280,720,9-19-2022,14-49-46,107,depth_duration_stimuli/002039_2014-06-24_20-22-38_260595134347_rgbf000084-resize_1/002039_2014-06-24_20-22-38_260595134347_rgbf000084-resize_1-target.png,250,4.408,11,2612,260,feet,jsons/v1_VE250_randls_6_rotated.json,684379,958069,41,Man
107,460407,DepthScenes,duration_manipulation_targetAtFixation,jsons/v1_VE250_randls_6_rotated.json,http://54.235.29.9/FacialAge/BNav_EC2/DepthDuration/v2_depth_duration_MTurk/v2_DepthDuration_HTML.html#393,393,1280,587,1280,720,9-19-2022,14-49-46,108,depth_duration_stimuli/003495_2014-05-21_16-01-51_094959634447_rgbf000100-resize_3/003495_2014-05-21_16-01-51_094959634447_rgbf000100-resize_3-target.png,250,1.6255,3,3110,249,feet,jsons/v1_VE250_randls_6_rotated.json,684379,958069,41,Man
108,460407,DepthScenes,duration_manipulation_targetAtFixation,jsons/v1_VE250_randls_6_rotated.json,http://54.235.29.9/FacialAge/BNav_EC2/DepthDuration/v2_depth_duration_MTurk/v2_DepthDuration_HTML.html#393,393,1280,587,1280,720,9-19-2022,14-49-46,109,depth_duration_stimuli/001244_2014-06-17_16-47-45_260595134347_rgbf000030-resize_4/001244_2014-06-17_16-47-45_260595134347_rgbf000030-resize_4-target.png,250,2.0425,3,3662,253,feet,jsons/v1_VE250_randls_6_rotated.json,684379,958069,41,Man
109,460407,DepthScenes,duration_manipulation_targetAtFixation,jsons/v1_VE250_randls_6_rotated.json,http://54.235.29.9/FacialAge/BNav_EC2/DepthDuration/v2_depth_duration_MTurk/v2_DepthDuration_HTML.html#393,393,1280,587,1280,720,9-19-2022,14-49-46,110,depth_duration_stimuli/000137_2014-05-20_17-04-49_260595134347_rgbf000120-resize_1/000137_2014-05-20_17-04-49_260595134347_rgbf000120-resize_1-target.png,250,3.786,8,4673,250,feet,jsons/v1_VE250_randls_6_rotated.json,684379,958069,41,Man
110,460407,DepthScenes,duration_manipulation_targetAtFixation,jsons/v1_VE250_randls_6_rotated.json,http://54.235.29.9/FacialAge/BNav_EC2/DepthDuration/v2_depth_duration_MTurk/v2_DepthDuration_HTML.html#393,393,1280,587,1280,720,9-19-2022,14-49-46,111,depth_duration_stimuli/000736_2014-06-08_18-24-15_260595134347_rgbf000206-resize_3/000736_2014-06-08_18-24-15_260595134347_rgbf000206-resize_3-target.png,250,3.515,7,3249,252,feet,jsons/v1_VE250_randls_6_rotated.json,684379,958069,41,Man
111,460407,DepthScenes,duration_manipulation_targetAtFixation,jsons/v1_VE250_randls_6_rotated.json,http://54.235.29.9/FacialAge/BNav_EC2/DepthDuration/v2_depth_duration_MTurk/v2_DepthDuration_HTML.html#393,393,1280,587,1280,720,9-19-2022,14-49-46,112,depth_duration_stimuli/000734_2014-06-08_17-39-11_260595134347_rgbf000128-resize_2/000734_2014-06-08_17-39-11_260595134347_rgbf000128-resize_2-target.png,250,4.098,8,3614,245,feet,jsons/v1_VE250_randls_6_rotated.json,684379,958069,41,Man
112,460407,DepthScenes,duration_manipulation_targetAtFixation,jsons/v1_VE250_randls_6_rotated.json,http://54.235.29.9/FacialAge/BNav_EC2/DepthDuration/v2_depth_duration_MTurk/v2_DepthDuration_HTML.html#393,393,1280,587,1280,720,9-19-2022,14-49-46,113,depth_duration_stimuli/000739_2014-06-08_18-45-58_260595134347_rgbf000068-resize_1/000739_2014-06-08_18-45-58_260595134347_rgbf000068-resize_1-target.png,250,3.534,9,2757,259,feet,jsons/v1_VE250_randls_6_rotated.json,684379,958069,41,Man
113,460407,DepthScenes,duration_manipulation_targetAtFixation,jsons/v1_VE250_randls_6_rotated.json,http://54.235.29.9/FacialAge/BNav_EC2/DepthDuration/v2_depth_duration_MTurk/v2_DepthDuration_HTML.html#393,393,1280,587,1280,720,9-19-2022,14-49-46,114,depth_duration_stimuli/001235_2014-06-17_16-37-36_260595134347_rgbf000084-resize_4/001235_2014-06-17_16-37-36_260595134347_rgbf000084-resize_4-target.png,250,3.6605,9,4711,249,feet,jsons/v1_VE250_randls_6_rotated.json,684379,958069,41,Man
114,460407,DepthScenes,duration_manipulation_targetAtFixation,jsons/v1_VE250_randls_6_rotated.json,http://54.235.29.9/FacialAge/BNav_EC2/DepthDuration/v2_depth_duration_MTurk/v2_DepthDuration_HTML.html#393,393,1280,587,1280,720,9-19-2022,14-49-46,115,depth_duration_stimuli/000788_2014-06-08_22-34-36_260595134347_rgbf000131-resize_1/000788_2014-06-08_22-34-36_260595134347_rgbf000131-resize_1-target.png,250,3.359,9,6448,248,feet,jsons/v1_VE250_randls_6_rotated.json,684379,958069,41,Man
115,460407,DepthScenes,duration_manipulation_targetAtFixation,jsons/v1_VE250_randls_6_rotated.json,http://54.235.29.9/FacialAge/BNav_EC2/DepthDuration/v2_depth_duration_MTurk/v2_DepthDuration_HTML.html#393,393,1280,587,1280,720,9-19-2022,14-49-46,116,depth_duration_stimuli/001392_2014-06-19_16-07-59_260595134347_rgbf000046-resize_1/001392_2014-06-19_16-07-59_260595134347_rgbf000046-resize_1-target.png,250,4.135,11,3175,250,feet,jsons/v1_VE250_randls_6_rotated.json,684379,958069,41,Man
116,460407,DepthScenes,duration_manipulation_targetAtFixation,jsons/v1_VE250_randls_6_rotated.json,http://54.235.29.9/FacialAge/BNav_EC2/DepthDuration/v2_depth_duration_MTurk/v2_DepthDuration_HTML.html#393,393,1280,587,1280,720,9-19-2022,14-49-46,117,depth_duration_stimuli/001570_2014-06-20_17-21-09_260595134347_rgbf000135-resize_4/001570_2014-06-20_17-21-09_260595134347_rgbf000135-resize_4-target.png,250,4.467,10,3613,249,feet,jsons/v1_VE250_randls_6_rotated.json,684379,958069,41,Man
117,460407,DepthScenes,duration_manipulation_targetAtFixation,jsons/v1_VE250_randls_6_rotated.json,http://54.235.29.9/FacialAge/BNav_EC2/DepthDuration/v2_depth_duration_MTurk/v2_DepthDuration_HTML.html#393,393,1280,587,1280,720,9-19-2022,14-49-46,118,depth_duration_stimuli/002323_2014-06-28_20-01-54_260595134347_rgbf000051-resize_4/002323_2014-06-28_20-01-54_260595134347_rgbf000051-resize_4-target.png,250,3.7310000000000003,8,3852,262,feet,jsons/v1_VE250_randls_6_rotated.json,684379,958069,41,Man
118,460407,DepthScenes,duration_manipulation_targetAtFixation,jsons/v1_VE250_randls_6_rotated.json,http://54.235.29.9/FacialAge/BNav_EC2/DepthDuration/v2_depth_duration_MTurk/v2_DepthDuration_HTML.html#393,393,1280,587,1280,720,9-19-2022,14-49-46,119,depth_duration_stimuli/000917_2014-06-09_22-45-29_260595134347_rgbf000149-resize_3/000917_2014-06-09_22-45-29_260595134347_rgbf000149-resize_3-target.png,250,4.1865,7,3629,249,feet,jsons/v1_VE250_randls_6_rotated.json,684379,958069,41,Man
119,460407,DepthScenes,duration_manipulation_targetAtFixation,jsons/v1_VE250_randls_6_rotated.json,http://54.235.29.9/FacialAge/BNav_EC2/DepthDuration/v2_depth_duration_MTurk/v2_DepthDuration_HTML.html#393,393,1280,587,1280,720,9-19-2022,14-49-46,120,depth_duration_stimuli/000787_2014-06-08_22-33-53_260595134347_rgbf000175-resize_1/000787_2014-06-08_22-33-53_260595134347_rgbf000175-resize-original.jpg,250,4.784,0,2817,262,feet,jsons/v1_VE250_randls_6_rotated.json,684379,958069,41,Man
120,460407,DepthScenes,duration_manipulation_targetAtFixation,jsons/v1_VE250_randls_6_rotated.json,http://54.235.29.9/FacialAge/BNav_EC2/DepthDuration/v2_depth_duration_MTurk/v2_DepthDuration_HTML.html#393,393,1280,587,1280,720,9-19-2022,14-49-46,121,depth_duration_stimuli/001828_2014-06-26_21-40-03_260595134347_rgbf000024-resize_0/001828_2014-06-26_21-40-03_260595134347_rgbf000024-resize_0-target.png,250,4.8260000000000005,13,3584,254,feet,jsons/v1_VE250_randls_6_rotated.json,684379,958069,41,Man
121,460407,DepthScenes,duration_manipulation_targetAtFixation,jsons/v1_VE250_randls_6_rotated.json,http://54.235.29.9/FacialAge/BNav_EC2/DepthDuration/v2_depth_duration_MTurk/v2_DepthDuration_HTML.html#393,393,1280,587,1280,720,9-19-2022,14-49-46,122,depth_duration_stimuli/000009_2014-05-26_14-32-05_260595134347_rgbf000034-resize_3/000009_2014-05-26_14-32-05_260595134347_rgbf000034-resize_3-target.png,250,3.8715,12,2871,246,feet,jsons/v1_VE250_randls_6_rotated.json,684379,958069,41,Man
122,460407,DepthScenes,duration_manipulation_targetAtFixation,jsons/v1_VE250_randls_6_rotated.json,http://54.235.29.9/FacialAge/BNav_EC2/DepthDuration/v2_depth_duration_MTurk/v2_DepthDuration_HTML.html#393,393,1280,587,1280,720,9-19-2022,14-49-46,123,depth_duration_stimuli/002209_2014-06-28_18-36-10_260595134347_rgbf000051-resize_1/002209_2014-06-28_18-36-10_260595134347_rgbf000051-resize_1-target.png,250,2.057,3,3166,260,feet,jsons/v1_VE250_randls_6_rotated.json,684379,958069,41,Man
123,460407,DepthScenes,duration_manipulation_targetAtFixation,jsons/v1_VE250_randls_6_rotated.json,http://54.235.29.9/FacialAge/BNav_EC2/DepthDuration/v2_depth_duration_MTurk/v2_DepthDuration_HTML.html#393,393,1280,587,1280,720,9-19-2022,14-49-46,124,depth_duration_stimuli/002763_2014-06-22_19-13-10_094959634447_rgbf000075-resize_4/002763_2014-06-22_19-13-10_094959634447_rgbf000075-resize_4-target.png,250,1.68375,4,3110,250,feet,jsons/v1_VE250_randls_6_rotated.json,684379,958069,41,Man
124,460407,DepthScenes,duration_manipulation_targetAtFixation,jsons/v1_VE250_randls_6_rotated.json,http://54.235.29.9/FacialAge/BNav_EC2/DepthDuration/v2_depth_duration_MTurk/v2_DepthDuration_HTML.html#393,393,1280,587,1280,720,9-19-2022,14-49-46,125,depth_duration_stimuli/000780_2014-06-08_22-28-29_260595134347_rgbf000126-resize_1/000780_2014-06-08_22-28-29_260595134347_rgbf000126-resize_1-target.png,250,3.3825,8,3000,249,feet,jsons/v1_VE250_randls_6_rotated.json,684379,958069,41,Man
125,460407,DepthScenes,duration_manipulation_targetAtFixation,jsons/v1_VE250_randls_6_rotated.json,http://54.235.29.9/FacialAge/BNav_EC2/DepthDuration/v2_depth_duration_MTurk/v2_DepthDuration_HTML.html#393,393,1280,587,1280,720,9-19-2022,14-49-46,126,depth_duration_stimuli/002445_2014-06-28_20-32-16_260595134347_rgbf000029-resize_4/002445_2014-06-28_20-32-16_260595134347_rgbf000029-resize_4-target.png,250,2.5315,3,2326,236,feet,jsons/v1_VE250_randls_6_rotated.json,684379,958069,41,Man
126,460407,DepthScenes,duration_manipulation_targetAtFixation,jsons/v1_VE250_randls_6_rotated.json,http://54.235.29.9/FacialAge/BNav_EC2/DepthDuration/v2_depth_duration_MTurk/v2_DepthDuration_HTML.html#393,393,1280,587,1280,720,9-19-2022,14-49-46,127,depth_duration_stimuli/003010_2014-06-15_12-54-35_094959634447_rgbf000112-resize_0/003010_2014-06-15_12-54-35_094959634447_rgbf000112-resize_0-target.png,250,3.1185,8,3205,258,feet,jsons/v1_VE250_randls_6_rotated.json,684379,958069,41,Man
127,460407,DepthScenes,duration_manipulation_targetAtFixation,jsons/v1_VE250_randls_6_rotated.json,http://54.235.29.9/FacialAge/BNav_EC2/DepthDuration/v2_depth_duration_MTurk/v2_DepthDuration_HTML.html#393,393,1280,587,1280,720,9-19-2022,14-49-46,128,depth_duration_stimuli/001810_2014-06-26_20-51-35_260595134347_rgbf000040-resize_3/001810_2014-06-26_20-51-35_260595134347_rgbf000040-resize_3-target.png,250,2.2525,4,2260,250,feet,jsons/v1_VE250_randls_6_rotated.json,684379,958069,41,Man
128,460407,DepthScenes,duration_manipulation_targetAtFixation,jsons/v1_VE250_randls_6_rotated.json,http://54.235.29.9/FacialAge/BNav_EC2/DepthDuration/v2_depth_duration_MTurk/v2_DepthDuration_HTML.html#393,393,1280,587,1280,720,9-19-2022,14-49-46,129,depth_duration_stimuli/000927_2014-06-09_16-32-30_260595134347_rgbf000123-resize_3/000927_2014-06-09_16-32-30_260595134347_rgbf000123-resize_3-target.png,250,2.6785,5,3509,248,feet,jsons/v1_VE250_randls_6_rotated.json,684379,958069,41,Man
129,460407,DepthScenes,duration_manipulation_targetAtFixation,jsons/v1_VE250_randls_6_rotated.json,http://54.235.29.9/FacialAge/BNav_EC2/DepthDuration/v2_depth_duration_MTurk/v2_DepthDuration_HTML.html#393,393,1280,587,1280,720,9-19-2022,14-49-46,130,depth_duration_stimuli/001110_2014-06-15_17-25-28_260595134347_rgbf000150-resize_1/001110_2014-06-15_17-25-28_260595134347_rgbf000150-resize_1-target.png,250,1.7115,3,2919,263,feet,jsons/v1_VE250_randls_6_rotated.json,684379,958069,41,Man
130,460407,DepthScenes,duration_manipulation_targetAtFixation,jsons/v1_VE250_randls_6_rotated.json,http://54.235.29.9/FacialAge/BNav_EC2/DepthDuration/v2_depth_duration_MTurk/v2_DepthDuration_HTML.html#393,393,1280,587,1280,720,9-19-2022,14-49-46,131,depth_duration_stimuli/002637_2014-06-24_14-51-13_094959634447_rgbf000066-resize_4/002637_2014-06-24_14-51-13_094959634447_rgbf000066-resize_4-target.png,250,1.9955,4,2684,261,feet,jsons/v1_VE250_randls_6_rotated.json,684379,958069,41,Man
131,460407,DepthScenes,duration_manipulation_targetAtFixation,jsons/v1_VE250_randls_6_rotated.json,http://54.235.29.9/FacialAge/BNav_EC2/DepthDuration/v2_depth_duration_MTurk/v2_DepthDuration_HTML.html#393,393,1280,587,1280,720,9-19-2022,14-49-46,132,depth_duration_stimuli/003534_2014-05-22_15-06-10_094959634447_rgbf000102-resize_4/003534_2014-05-22_15-06-10_094959634447_rgbf000102-resize_4-target.png,250,1.426,2,2858,246,feet,jsons/v1_VE250_randls_6_rotated.json,684379,958069,41,Man
132,460407,DepthScenes,duration_manipulation_targetAtFixation,jsons/v1_VE250_randls_6_rotated.json,http://54.235.29.9/FacialAge/BNav_EC2/DepthDuration/v2_depth_duration_MTurk/v2_DepthDuration_HTML.html#393,393,1280,587,1280,720,9-19-2022,14-49-46,133,depth_duration_stimuli/003490_2014-05-21_15-50-11_094959634447_rgbf000101-resize_3/003490_2014-05-21_15-50-11_094959634447_rgbf000101-resize_3-target.png,250,3.6445,9,2799,248,feet,jsons/v1_VE250_randls_6_rotated.json,684379,958069,41,Man
133,460407,DepthScenes,duration_manipulation_targetAtFixation,jsons/v1_VE250_randls_6_rotated.json,http://54.235.29.9/FacialAge/BNav_EC2/DepthDuration/v2_depth_duration_MTurk/v2_DepthDuration_HTML.html#393,393,1280,587,1280,720,9-19-2022,14-49-46,134,depth_duration_stimuli/001175_2014-06-17_15-45-55_260595134347_rgbf000129-resize_4/001175_2014-06-17_15-45-55_260595134347_rgbf000129-resize_4-target.png,250,4.255,15,3427,247,feet,jsons/v1_VE250_randls_6_rotated.json,684379,958069,41,Man
134,460407,DepthScenes,duration_manipulation_targetAtFixation,jsons/v1_VE250_randls_6_rotated.json,http://54.235.29.9/FacialAge/BNav_EC2/DepthDuration/v2_depth_duration_MTurk/v2_DepthDuration_HTML.html#393,393,1280,587,1280,720,9-19-2022,14-49-46,135,depth_duration_stimuli/000375_2014-06-08_11-17-29_260595134347_rgbf000133-resize_2/000375_2014-06-08_11-17-29_260595134347_rgbf000133-resize-original.jpg,250,4.718,0,3008,237,feet,jsons/v1_VE250_randls_6_rotated.json,684379,958069,41,Man
135,460407,DepthScenes,duration_manipulation_targetAtFixation,jsons/v1_VE250_randls_6_rotated.json,http://54.235.29.9/FacialAge/BNav_EC2/DepthDuration/v2_depth_duration_MTurk/v2_DepthDuration_HTML.html#393,393,1280,587,1280,720,9-19-2022,14-49-46,136,depth_duration_stimuli/000103_2014-05-14_22-01-17_260595134347_rgbf000152-resize_5/000103_2014-05-14_22-01-17_260595134347_rgbf000152-resize_5-target.png,250,1.993,5,2387,247,feet,jsons/v1_VE250_randls_6_rotated.json,684379,958069,41,Man
136,460407,DepthScenes,duration_manipulation_targetAtFixation,jsons/v1_VE250_randls_6_rotated.json,http://54.235.29.9/FacialAge/BNav_EC2/DepthDuration/v2_depth_duration_MTurk/v2_DepthDuration_HTML.html#393,393,1280,587,1280,720,9-19-2022,14-49-46,137,depth_duration_stimuli/001555_2014-06-20_17-12-10_260595134347_rgbf000065-resize_4/001555_2014-06-20_17-12-10_260595134347_rgbf000065-resize_4-target.png,250,1.633,2,2142,249,feet,jsons/v1_VE250_randls_6_rotated.json,684379,958069,41,Man
137,460407,DepthScenes,duration_manipulation_targetAtFixation,jsons/v1_VE250_randls_6_rotated.json,http://54.235.29.9/FacialAge/BNav_EC2/DepthDuration/v2_depth_duration_MTurk/v2_DepthDuration_HTML.html#393,393,1280,587,1280,720,9-19-2022,14-49-46,138,depth_duration_stimuli/002136_2014-06-25_21-18-03_260595134347_rgbf000109-resize_3/002136_2014-06-25_21-18-03_260595134347_rgbf000109-resize_3-target.png,250,1.9569999999999999,2,2289,258,feet,jsons/v1_VE250_randls_6_rotated.json,684379,958069,41,Man
138,460407,DepthScenes,duration_manipulation_targetAtFixation,jsons/v1_VE250_randls_6_rotated.json,http://54.235.29.9/FacialAge/BNav_EC2/DepthDuration/v2_depth_duration_MTurk/v2_DepthDuration_HTML.html#393,393,1280,587,1280,720,9-19-2022,14-49-46,139,depth_duration_stimuli/002964_2014-06-08_17-46-11_094959634447_rgbf000091-resize_4/002964_2014-06-08_17-46-11_094959634447_rgbf000091-resize_4-target.png,250,1.6909999999999998,3,3482,264,feet,jsons/v1_VE250_randls_6_rotated.json,684379,958069,41,Man
139,460407,DepthScenes,duration_manipulation_targetAtFixation,jsons/v1_VE250_randls_6_rotated.json,http://54.235.29.9/FacialAge/BNav_EC2/DepthDuration/v2_depth_duration_MTurk/v2_DepthDuration_HTML.html#393,393,1280,587,1280,720,9-19-2022,14-49-46,140,depth_duration_stimuli/002875_2014-06-01_15-19-00_094959634447_rgbf000151-resize_1/002875_2014-06-01_15-19-00_094959634447_rgbf000151-resize_1-target.png,250,1.9675,4,5479,254,feet,jsons/v1_VE250_randls_6_rotated.json,684379,958069,41,Man
140,460407,DepthScenes,duration_manipulation_targetAtFixation,jsons/v1_VE250_randls_6_rotated.json,http://54.235.29.9/FacialAge/BNav_EC2/DepthDuration/v2_depth_duration_MTurk/v2_DepthDuration_HTML.html#393,393,1280,587,1280,720,9-19-2022,14-49-46,141,depth_duration_stimuli/001011_2014-06-08_23-18-54_260595134347_rgbf000044-resize_4/001011_2014-06-08_23-18-54_260595134347_rgbf000044-resize_4-target.png,250,2.4730000000000003,8,2612,234,feet,jsons/v1_VE250_randls_6_rotated.json,684379,958069,41,Man
141,460407,DepthScenes,duration_manipulation_targetAtFixation,jsons/v1_VE250_randls_6_rotated.json,http://54.235.29.9/FacialAge/BNav_EC2/DepthDuration/v2_depth_duration_MTurk/v2_DepthDuration_HTML.html#393,393,1280,587,1280,720,9-19-2022,14-49-46,142,depth_duration_stimuli/002568_2014-06-24_13-59-21_094959634447_rgbf000062-resize_4/002568_2014-06-24_13-59-21_094959634447_rgbf000062-resize_4-target.png,250,3.015,10,2683,254,feet,jsons/v1_VE250_randls_6_rotated.json,684379,958069,41,Man
142,460407,DepthScenes,duration_manipulation_targetAtFixation,jsons/v1_VE250_randls_6_rotated.json,http://54.235.29.9/FacialAge/BNav_EC2/DepthDuration/v2_depth_duration_MTurk/v2_DepthDuration_HTML.html#393,393,1280,587,1280,720,9-19-2022,14-49-46,143,depth_duration_stimuli/003492_2014-05-21_15-50-55_094959634447_rgbf000828-resize_1/003492_2014-05-21_15-50-55_094959634447_rgbf000828-resize_1-target.png,250,4.06875,14,3024,253,feet,jsons/v1_VE250_randls_6_rotated.json,684379,958069,41,Man
143,460407,DepthScenes,duration_manipulation_targetAtFixation,jsons/v1_VE250_randls_6_rotated.json,http://54.235.29.9/FacialAge/BNav_EC2/DepthDuration/v2_depth_duration_MTurk/v2_DepthDuration_HTML.html#393,393,1280,587,1280,720,9-19-2022,14-49-46,144,depth_duration_stimuli/000691_2014-06-08_13-08-50_260595134347_rgbf000132-resize_3/000691_2014-06-08_13-08-50_260595134347_rgbf000132-resize_3-target.png,250,4.1530000000000005,9,3344,246,feet,jsons/v1_VE250_randls_6_rotated.json,684379,958069,41,Man
144,460407,DepthScenes,duration_manipulation_targetAtFixation,jsons/v1_VE250_randls_6_rotated.json,http://54.235.29.9/FacialAge/BNav_EC2/DepthDuration/v2_depth_duration_MTurk/v2_DepthDuration_HTML.html#393,393,1280,587,1280,720,9-19-2022,14-49-46,145,depth_duration_stimuli/002213_2014-06-28_18-37-58_260595134347_rgbf000055-resize_1/002213_2014-06-28_18-37-58_260595134347_rgbf000055-resize_1-target.png,250,3.62,0,2888,246,feet,jsons/v1_VE250_randls_6_rotated.json,684379,958069,41,Man
145,460407,DepthScenes,duration_manipulation_targetAtFixation,jsons/v1_VE250_randls_6_rotated.json,http://54.235.29.9/FacialAge/BNav_EC2/DepthDuration/v2_depth_duration_MTurk/v2_DepthDuration_HTML.html#393,393,1280,587,1280,720,9-19-2022,14-49-46,146,depth_duration_stimuli/002995_2014-06-15_12-31-26_094959634447_rgbf000150-resize_1/002995_2014-06-15_12-31-26_094959634447_rgbf000150-resize_1-target.png,250,3.8360000000000003,12,2970,251,feet,jsons/v1_VE250_randls_6_rotated.json,684379,958069,41,Man
146,460407,DepthScenes,duration_manipulation_targetAtFixation,jsons/v1_VE250_randls_6_rotated.json,http://54.235.29.9/FacialAge/BNav_EC2/DepthDuration/v2_depth_duration_MTurk/v2_DepthDuration_HTML.html#393,393,1280,587,1280,720,9-19-2022,14-49-46,147,depth_duration_stimuli/002748_2014-06-22_19-07-22_094959634447_rgbf000078-resize_1/002748_2014-06-22_19-07-22_094959634447_rgbf000078-resize_1-target.png,250,4.6705,14,2581,249,feet,jsons/v1_VE250_randls_6_rotated.json,684379,958069,41,Man
147,460407,DepthScenes,duration_manipulation_targetAtFixation,jsons/v1_VE250_randls_6_rotated.json,http://54.235.29.9/FacialAge/BNav_EC2/DepthDuration/v2_depth_duration_MTurk/v2_DepthDuration_HTML.html#393,393,1280,587,1280,720,9-19-2022,14-49-46,148,depth_duration_stimuli/001052_2014-06-08_18-24-54_260595134347_rgbf000130-resize_1/001052_2014-06-08_18-24-54_260595134347_rgbf000130-resize_1-target.png,250,4.1045,10,3294,255,feet,jsons/v1_VE250_randls_6_rotated.json,684379,958069,41,Man
148,460407,DepthScenes,duration_manipulation_targetAtFixation,jsons/v1_VE250_randls_6_rotated.json,http://54.235.29.9/FacialAge/BNav_EC2/DepthDuration/v2_depth_duration_MTurk/v2_DepthDuration_HTML.html#393,393,1280,587,1280,720,9-19-2022,14-49-46,149,depth_duration_stimuli/002988_2014-06-15_12-24-20_094959634447_rgbf000150-resize_1/002988_2014-06-15_12-24-20_094959634447_rgbf000150-resize_1-target.png,250,4.7669999999999995,11,2466,245,feet,jsons/v1_VE250_randls_6_rotated.json,684379,958069,41,Man
149,460407,DepthScenes,duration_manipulation_targetAtFixation,jsons/v1_VE250_randls_6_rotated.json,http://54.235.29.9/FacialAge/BNav_EC2/DepthDuration/v2_depth_duration_MTurk/v2_DepthDuration_HTML.html#393,393,1280,587,1280,720,9-19-2022,14-49-46,150,depth_duration_stimuli/001100_2014-06-15_17-46-26_260595134347_rgbf000225-resize_2/001100_2014-06-15_17-46-26_260595134347_rgbf000225-resize_2-target.png,250,2.24,2,2503,258,feet,jsons/v1_VE250_randls_6_rotated.json,684379,958069,41,Man
150,460407,DepthScenes,duration_manipulation_targetAtFixation,jsons/v1_VE250_randls_6_rotated.json,http://54.235.29.9/FacialAge/BNav_EC2/DepthDuration/v2_depth_duration_MTurk/v2_DepthDuration_HTML.html#393,393,1280,587,1280,720,9-19-2022,14-49-46,151,depth_duration_stimuli/002784_2014-06-22_19-26-30_094959634447_rgbf000083-resize_3/002784_2014-06-22_19-26-30_094959634447_rgbf000083-resize_3-target.png,250,1.8046666666667,4,2538,260,feet,jsons/v1_VE250_randls_6_rotated.json,684379,958069,41,Man
151,460407,DepthScenes,duration_manipulation_targetAtFixation,jsons/v1_VE250_randls_6_rotated.json,http://54.235.29.9/FacialAge/BNav_EC2/DepthDuration/v2_depth_duration_MTurk/v2_DepthDuration_HTML.html#393,393,1280,587,1280,720,9-19-2022,14-49-46,152,depth_duration_stimuli/000569_2014-06-09_22-51-47_260595134347_rgbf000141-resize_3/000569_2014-06-09_22-51-47_260595134347_rgbf000141-resize-original.jpg,250,4.512,0,2559,252,feet,jsons/v1_VE250_randls_6_rotated.json,684379,958069,41,Man
152,460407,DepthScenes,duration_manipulation_targetAtFixation,jsons/v1_VE250_randls_6_rotated.json,http://54.235.29.9/FacialAge/BNav_EC2/DepthDuration/v2_depth_duration_MTurk/v2_DepthDuration_HTML.html#393,393,1280,587,1280,720,9-19-2022,14-49-46,153,depth_duration_stimuli/002758_2014-06-22_19-11-20_094959634447_rgbf000128-resize_1/002758_2014-06-22_19-11-20_094959634447_rgbf000128-resize_1-target.png,250,2.555,5,3016,252,feet,jsons/v1_VE250_randls_6_rotated.json,684379,958069,41,Man
153,460407,DepthScenes,duration_manipulation_targetAtFixation,jsons/v1_VE250_randls_6_rotated.json,http://54.235.29.9/FacialAge/BNav_EC2/DepthDuration/v2_depth_duration_MTurk/v2_DepthDuration_HTML.html#393,393,1280,587,1280,720,9-19-2022,14-49-46,154,depth_duration_stimuli/002630_2014-06-24_14-47-50_094959634447_rgbf000055-resize_1/002630_2014-06-24_14-47-50_094959634447_rgbf000055-resize_1-target.png,250,3.0095,10,4664,258,feet,jsons/v1_VE250_randls_6_rotated.json,684379,958069,41,Man
154,460407,DepthScenes,duration_manipulation_targetAtFixation,jsons/v1_VE250_randls_6_rotated.json,http://54.235.29.9/FacialAge/BNav_EC2/DepthDuration/v2_depth_duration_MTurk/v2_DepthDuration_HTML.html#393,393,1280,587,1280,720,9-19-2022,14-49-46,155,depth_duration_stimuli/001571_2014-06-20_17-21-32_260595134347_rgbf000089-resize_1/001571_2014-06-20_17-21-32_260595134347_rgbf000089-resize_1-target.png,250,1.86,4,3877,249,feet,jsons/v1_VE250_randls_6_rotated.json,684379,958069,41,Man
155,460407,DepthScenes,duration_manipulation_targetAtFixation,jsons/v1_VE250_randls_6_rotated.json,http://54.235.29.9/FacialAge/BNav_EC2/DepthDuration/v2_depth_duration_MTurk/v2_DepthDuration_HTML.html#393,393,1280,587,1280,720,9-19-2022,14-49-46,156,depth_duration_stimuli/002272_2014-06-28_18-53-56_260595134347_rgbf000067-resize_2/002272_2014-06-28_18-53-56_260595134347_rgbf000067-resize_2-target.png,250,1.138,3,3345,250,feet,jsons/v1_VE250_randls_6_rotated.json,684379,958069,41,Man
156,460407,DepthScenes,duration_manipulation_targetAtFixation,jsons/v1_VE250_randls_6_rotated.json,http://54.235.29.9/FacialAge/BNav_EC2/DepthDuration/v2_depth_duration_MTurk/v2_DepthDuration_HTML.html#393,393,1280,587,1280,720,9-19-2022,14-49-46,157,depth_duration_stimuli/001450_2014-06-19_17-02-03_260595134347_rgbf000203-resize_4/001450_2014-06-19_17-02-03_260595134347_rgbf000203-resize_4-target.png,250,4.0106666666667,11,2886,255,feet,jsons/v1_VE250_randls_6_rotated.json,684379,958069,41,Man
157,460407,DepthScenes,duration_manipulation_targetAtFixation,jsons/v1_VE250_randls_6_rotated.json,http://54.235.29.9/FacialAge/BNav_EC2/DepthDuration/v2_depth_duration_MTurk/v2_DepthDuration_HTML.html#393,393,1280,587,1280,720,9-19-2022,14-49-46,158,depth_duration_stimuli/001449_2014-06-19_17-01-27_260595134347_rgbf000116-resize_2/001449_2014-06-19_17-01-27_260595134347_rgbf000116-resize_2-target.png,250,3.452,8,10785,251,feet,jsons/v1_VE250_randls_6_rotated.json,684379,958069,41,Man
158,460407,DepthScenes,duration_manipulation_targetAtFixation,jsons/v1_VE250_randls_6_rotated.json,http://54.235.29.9/FacialAge/BNav_EC2/DepthDuration/v2_depth_duration_MTurk/v2_DepthDuration_HTML.html#393,393,1280,587,1280,720,9-19-2022,14-49-46,159,depth_duration_stimuli/002425_2014-06-28_20-27-29_260595134347_rgbf000031-resize_8/002425_2014-06-28_20-27-29_260595134347_rgbf000031-resize_8-target.png,250,3.8960000000000004,11,2875,249,feet,jsons/v1_VE250_randls_6_rotated.json,684379,958069,41,Man
159,460407,DepthScenes,duration_manipulation_targetAtFixation,jsons/v1_VE250_randls_6_rotated.json,http://54.235.29.9/FacialAge/BNav_EC2/DepthDuration/v2_depth_duration_MTurk/v2_DepthDuration_HTML.html#393,393,1280,587,1280,720,9-19-2022,14-49-46,160,depth_duration_stimuli/000642_2014-06-08_16-59-25_260595134347_rgbf000098-resize_2/000642_2014-06-08_16-59-25_260595134347_rgbf000098-resize_2-target.png,250,2.8815,7,3371,241,feet,jsons/v1_VE250_randls_6_rotated.json,684379,958069,41,Man
160,460407,DepthScenes,duration_manipulation_targetAtFixation,jsons/v1_VE250_randls_6_rotated.json,http://54.235.29.9/FacialAge/BNav_EC2/DepthDuration/v2_depth_duration_MTurk/v2_DepthDuration_HTML.html#393,393,1280,587,1280,720,9-19-2022,14-49-46,161,depth_duration_stimuli/003423_2014-05-21_10-23-26_094959634447_rgbf002665-resize_2/003423_2014-05-21_10-23-26_094959634447_rgbf002665-resize_2-target.png,250,3.2575,14,3317,247,feet,jsons/v1_VE250_randls_6_rotated.json,684379,958069,41,Man
161,460407,DepthScenes,duration_manipulation_targetAtFixation,jsons/v1_VE250_randls_6_rotated.json,http://54.235.29.9/FacialAge/BNav_EC2/DepthDuration/v2_depth_duration_MTurk/v2_DepthDuration_HTML.html#393,393,1280,587,1280,720,9-19-2022,14-49-46,162,depth_duration_stimuli/002905_2014-06-03_18-04-43_094959634447_rgbf000151-resize_2/002905_2014-06-03_18-04-43_094959634447_rgbf000151-resize_2-target.png,250,2.0295,5,2773,250,feet,jsons/v1_VE250_randls_6_rotated.json,684379,958069,41,Man
162,460407,DepthScenes,duration_manipulation_targetAtFixation,jsons/v1_VE250_randls_6_rotated.json,http://54.235.29.9/FacialAge/BNav_EC2/DepthDuration/v2_depth_duration_MTurk/v2_DepthDuration_HTML.html#393,393,1280,587,1280,720,9-19-2022,14-49-46,163,depth_duration_stimuli/000409_2014-06-04_19-23-33_260595134347_rgbf000067-resize_0/000409_2014-06-04_19-23-33_260595134347_rgbf000067-resize_0-target.png,250,3.7335,8,2740,250,feet,jsons/v1_VE250_randls_6_rotated.json,684379,958069,41,Man
163,460407,DepthScenes,duration_manipulation_targetAtFixation,jsons/v1_VE250_randls_6_rotated.json,http://54.235.29.9/FacialAge/BNav_EC2/DepthDuration/v2_depth_duration_MTurk/v2_DepthDuration_HTML.html#393,393,1280,587,1280,720,9-19-2022,14-49-46,164,depth_duration_stimuli/002663_2014-06-13_15-50-26_094959634447_rgbf000075-resize_1/002663_2014-06-13_15-50-26_094959634447_rgbf000075-resize_1-target.png,250,4.7495,17,4376,263,feet,jsons/v1_VE250_randls_6_rotated.json,684379,958069,41,Man
