,subjID,experimentName,versionName,sequenceName,url,selected_row,windowWidth,windowHeight,screenWidth,screenHeight,startDate,startTime,trial,stimulus,duration,actual_depth,depth_estimate,trial_RT,log_sceneDuration,unitSelection,seq_filepath,experimentTime,totalTime,age,gender
0,464385,DepthScenes,duration_manipulation_targetAtFixation,jsons/v1_VE1000_randls_52_rotated.json,http://54.235.29.9/FacialAge/BNav_EC2/DepthDuration/v2_depth_duration_MTurk/v2_DepthDuration_HTML.html#244,244,1536,760,1536,864,8-29-2022,14-30-51,1,depth_duration_stimuli/003495_2014-05-21_16-01-51_094959634447_rgbf000100-resize_3/003495_2014-05-21_16-01-51_094959634447_rgbf000100-resize_3-target.png,1000,1.6255,4,4114,997,feet,jsons/v1_VE1000_randls_52_rotated.json,721542,896851,55,Man
1,464385,DepthScenes,duration_manipulation_targetAtFixation,jsons/v1_VE1000_randls_52_rotated.json,http://54.235.29.9/FacialAge/BNav_EC2/DepthDuration/v2_depth_duration_MTurk/v2_DepthDuration_HTML.html#244,244,1536,760,1536,864,8-29-2022,14-30-51,2,depth_duration_stimuli/001244_2014-06-17_16-47-45_260595134347_rgbf000030-resize_4/001244_2014-06-17_16-47-45_260595134347_rgbf000030-resize_4-target.png,1000,2.0425,7,5295,999,feet,jsons/v1_VE1000_randls_52_rotated.json,721542,896851,55,Man
2,464385,DepthScenes,duration_manipulation_targetAtFixation,jsons/v1_VE1000_randls_52_rotated.json,http://54.235.29.9/FacialAge/BNav_EC2/DepthDuration/v2_depth_duration_MTurk/v2_DepthDuration_HTML.html#244,244,1536,760,1536,864,8-29-2022,14-30-51,3,depth_duration_stimuli/002425_2014-06-28_20-27-29_260595134347_rgbf000031-resize_8/002425_2014-06-28_20-27-29_260595134347_rgbf000031-resize_8-target.png,1000,3.8960000000000004,14,6783,996,feet,jsons/v1_VE1000_randls_52_rotated.json,721542,896851,55,Man
3,464385,DepthScenes,duration_manipulation_targetAtFixation,jsons/v1_VE1000_randls_52_rotated.json,http://54.235.29.9/FacialAge/BNav_EC2/DepthDuration/v2_depth_duration_MTurk/v2_DepthDuration_HTML.html#244,244,1536,760,1536,864,8-29-2022,14-30-51,4,depth_duration_stimuli/000642_2014-06-08_16-59-25_260595134347_rgbf000098-resize_2/000642_2014-06-08_16-59-25_260595134347_rgbf000098-resize_2-target.png,1000,2.8815,11,4180,1001,feet,jsons/v1_VE1000_randls_52_rotated.json,721542,896851,55,Man
4,464385,DepthScenes,duration_manipulation_targetAtFixation,jsons/v1_VE1000_randls_52_rotated.json,http://54.235.29.9/FacialAge/BNav_EC2/DepthDuration/v2_depth_duration_MTurk/v2_DepthDuration_HTML.html#244,244,1536,760,1536,864,8-29-2022,14-30-51,5,depth_duration_stimuli/001650_2014-06-20_12-09-00_260595134347_rgbf000087-resize_3/001650_2014-06-20_12-09-00_260595134347_rgbf000087-resize_3-target.png,1000,1.9505,4,5280,997,feet,jsons/v1_VE1000_randls_52_rotated.json,721542,896851,55,Man
5,464385,DepthScenes,duration_manipulation_targetAtFixation,jsons/v1_VE1000_randls_52_rotated.json,http://54.235.29.9/FacialAge/BNav_EC2/DepthDuration/v2_depth_duration_MTurk/v2_DepthDuration_HTML.html#244,244,1536,760,1536,864,8-29-2022,14-30-51,6,depth_duration_stimuli/000682_2014-06-08_23-14-58_260595134347_rgbf000041-resize_5/000682_2014-06-08_23-14-58_260595134347_rgbf000041-resize_5-target.png,1000,2.7239999999999998,10,3680,1005,feet,jsons/v1_VE1000_randls_52_rotated.json,721542,896851,55,Man
6,464385,DepthScenes,duration_manipulation_targetAtFixation,jsons/v1_VE1000_randls_52_rotated.json,http://54.235.29.9/FacialAge/BNav_EC2/DepthDuration/v2_depth_duration_MTurk/v2_DepthDuration_HTML.html#244,244,1536,760,1536,864,8-29-2022,14-30-51,7,depth_duration_stimuli/002467_2014-06-28_20-38-07_260595134347_rgbf000026-resize_2/002467_2014-06-28_20-38-07_260595134347_rgbf000026-resize_2-target.png,1000,4.742,21,6936,991,feet,jsons/v1_VE1000_randls_52_rotated.json,721542,896851,55,Man
7,464385,DepthScenes,duration_manipulation_targetAtFixation,jsons/v1_VE1000_randls_52_rotated.json,http://54.235.29.9/FacialAge/BNav_EC2/DepthDuration/v2_depth_duration_MTurk/v2_DepthDuration_HTML.html#244,244,1536,760,1536,864,8-29-2022,14-30-51,8,depth_duration_stimuli/002570_2014-06-24_13-59-54_094959634447_rgbf000059-resize_0/002570_2014-06-24_13-59-54_094959634447_rgbf000059-resize_0-target.png,1000,4.037,18,3905,990,feet,jsons/v1_VE1000_randls_52_rotated.json,721542,896851,55,Man
8,464385,DepthScenes,duration_manipulation_targetAtFixation,jsons/v1_VE1000_randls_52_rotated.json,http://54.235.29.9/FacialAge/BNav_EC2/DepthDuration/v2_depth_duration_MTurk/v2_DepthDuration_HTML.html#244,244,1536,760,1536,864,8-29-2022,14-30-51,9,depth_duration_stimuli/000709_2014-06-08_13-51-55_260595134347_rgbf000068-resize_3/000709_2014-06-08_13-51-55_260595134347_rgbf000068-resize_3-target.png,1000,1.8030000000000002,12,5082,1000,feet,jsons/v1_VE1000_randls_52_rotated.json,721542,896851,55,Man
9,464385,DepthScenes,duration_manipulation_targetAtFixation,jsons/v1_VE1000_randls_52_rotated.json,http://54.235.29.9/FacialAge/BNav_EC2/DepthDuration/v2_depth_duration_MTurk/v2_DepthDuration_HTML.html#244,244,1536,760,1536,864,8-29-2022,14-30-51,10,depth_duration_stimuli/002057_2014-06-24_21-00-13_260595134347_rgbf000120-resize_1/002057_2014-06-24_21-00-13_260595134347_rgbf000120-resize_1-target.png,1000,2.967,16,4898,991,feet,jsons/v1_VE1000_randls_52_rotated.json,721542,896851,55,Man
10,464385,DepthScenes,duration_manipulation_targetAtFixation,jsons/v1_VE1000_randls_52_rotated.json,http://54.235.29.9/FacialAge/BNav_EC2/DepthDuration/v2_depth_duration_MTurk/v2_DepthDuration_HTML.html#244,244,1536,760,1536,864,8-29-2022,14-30-51,11,depth_duration_stimuli/001094_2014-06-15_17-36-00_260595134347_rgbf000205-resize_0/001094_2014-06-15_17-36-00_260595134347_rgbf000205-resize_0-target.png,1000,4.2175,18,5525,1011,feet,jsons/v1_VE1000_randls_52_rotated.json,721542,896851,55,Man
11,464385,DepthScenes,duration_manipulation_targetAtFixation,jsons/v1_VE1000_randls_52_rotated.json,http://54.235.29.9/FacialAge/BNav_EC2/DepthDuration/v2_depth_duration_MTurk/v2_DepthDuration_HTML.html#244,244,1536,760,1536,864,8-29-2022,14-30-51,12,depth_duration_stimuli/000692_2014-06-08_13-09-42_260595134347_rgbf000199-resize_2/000692_2014-06-08_13-09-42_260595134347_rgbf000199-resize_2-target.png,1000,3.661,28,5397,995,feet,jsons/v1_VE1000_randls_52_rotated.json,721542,896851,55,Man
12,464385,DepthScenes,duration_manipulation_targetAtFixation,jsons/v1_VE1000_randls_52_rotated.json,http://54.235.29.9/FacialAge/BNav_EC2/DepthDuration/v2_depth_duration_MTurk/v2_DepthDuration_HTML.html#244,244,1536,760,1536,864,8-29-2022,14-30-51,13,depth_duration_stimuli/002103_2014-06-25_20-00-40_260595134347_rgbf000049-resize_0/002103_2014-06-25_20-00-40_260595134347_rgbf000049-resize_0-target.png,1000,4.105,16,6263,1006,feet,jsons/v1_VE1000_randls_52_rotated.json,721542,896851,55,Man
13,464385,DepthScenes,duration_manipulation_targetAtFixation,jsons/v1_VE1000_randls_52_rotated.json,http://54.235.29.9/FacialAge/BNav_EC2/DepthDuration/v2_depth_duration_MTurk/v2_DepthDuration_HTML.html#244,244,1536,760,1536,864,8-29-2022,14-30-51,14,depth_duration_stimuli/002039_2014-06-24_20-22-38_260595134347_rgbf000084-resize_1/002039_2014-06-24_20-22-38_260595134347_rgbf000084-resize_1-target.png,1000,4.408,18,4795,1002,feet,jsons/v1_VE1000_randls_52_rotated.json,721542,896851,55,Man
14,464385,DepthScenes,duration_manipulation_targetAtFixation,jsons/v1_VE1000_randls_52_rotated.json,http://54.235.29.9/FacialAge/BNav_EC2/DepthDuration/v2_depth_duration_MTurk/v2_DepthDuration_HTML.html#244,244,1536,760,1536,864,8-29-2022,14-30-51,15,depth_duration_stimuli/001450_2014-06-19_17-02-03_260595134347_rgbf000203-resize_4/001450_2014-06-19_17-02-03_260595134347_rgbf000203-resize_4-target.png,1000,4.0106666666667,20,3625,1004,feet,jsons/v1_VE1000_randls_52_rotated.json,721542,896851,55,Man
15,464385,DepthScenes,duration_manipulation_targetAtFixation,jsons/v1_VE1000_randls_52_rotated.json,http://54.235.29.9/FacialAge/BNav_EC2/DepthDuration/v2_depth_duration_MTurk/v2_DepthDuration_HTML.html#244,244,1536,760,1536,864,8-29-2022,14-30-51,16,depth_duration_stimuli/001449_2014-06-19_17-01-27_260595134347_rgbf000116-resize_2/001449_2014-06-19_17-01-27_260595134347_rgbf000116-resize_2-target.png,1000,3.452,8,3436,989,feet,jsons/v1_VE1000_randls_52_rotated.json,721542,896851,55,Man
16,464385,DepthScenes,duration_manipulation_targetAtFixation,jsons/v1_VE1000_randls_52_rotated.json,http://54.235.29.9/FacialAge/BNav_EC2/DepthDuration/v2_depth_duration_MTurk/v2_DepthDuration_HTML.html#244,244,1536,760,1536,864,8-29-2022,14-30-51,17,depth_duration_stimuli/002639_2014-06-24_14-51-37_094959634447_rgbf000074-resize_4/002639_2014-06-24_14-51-37_094959634447_rgbf000074-resize_4-target.png,1000,4.0375,12,6188,1007,feet,jsons/v1_VE1000_randls_52_rotated.json,721542,896851,55,Man
17,464385,DepthScenes,duration_manipulation_targetAtFixation,jsons/v1_VE1000_randls_52_rotated.json,http://54.235.29.9/FacialAge/BNav_EC2/DepthDuration/v2_depth_duration_MTurk/v2_DepthDuration_HTML.html#244,244,1536,760,1536,864,8-29-2022,14-30-51,18,depth_duration_stimuli/003292_2014-05-14_21-53-49_094959634447_rgbf000100-resize_2/003292_2014-05-14_21-53-49_094959634447_rgbf000100-resize_2-target.png,1000,3.4815,8,3311,998,feet,jsons/v1_VE1000_randls_52_rotated.json,721542,896851,55,Man
18,464385,DepthScenes,duration_manipulation_targetAtFixation,jsons/v1_VE1000_randls_52_rotated.json,http://54.235.29.9/FacialAge/BNav_EC2/DepthDuration/v2_depth_duration_MTurk/v2_DepthDuration_HTML.html#244,244,1536,760,1536,864,8-29-2022,14-30-51,19,depth_duration_stimuli/001498_2014-06-19_17-45-14_260595134347_rgbf000129-resize_4/001498_2014-06-19_17-45-14_260595134347_rgbf000129-resize-original.jpg,1000,1.4075,0,3012,1006,feet,jsons/v1_VE1000_randls_52_rotated.json,721542,896851,55,Man
19,464385,DepthScenes,duration_manipulation_targetAtFixation,jsons/v1_VE1000_randls_52_rotated.json,http://54.235.29.9/FacialAge/BNav_EC2/DepthDuration/v2_depth_duration_MTurk/v2_DepthDuration_HTML.html#244,244,1536,760,1536,864,8-29-2022,14-30-51,20,depth_duration_stimuli/000734_2014-06-08_17-39-11_260595134347_rgbf000128-resize_2/000734_2014-06-08_17-39-11_260595134347_rgbf000128-resize_2-target.png,1000,4.098,8,3028,998,feet,jsons/v1_VE1000_randls_52_rotated.json,721542,896851,55,Man
20,464385,DepthScenes,duration_manipulation_targetAtFixation,jsons/v1_VE1000_randls_52_rotated.json,http://54.235.29.9/FacialAge/BNav_EC2/DepthDuration/v2_depth_duration_MTurk/v2_DepthDuration_HTML.html#244,244,1536,760,1536,864,8-29-2022,14-30-51,21,depth_duration_stimuli/000739_2014-06-08_18-45-58_260595134347_rgbf000068-resize_1/000739_2014-06-08_18-45-58_260595134347_rgbf000068-resize_1-target.png,1000,3.534,12,4059,999,feet,jsons/v1_VE1000_randls_52_rotated.json,721542,896851,55,Man
21,464385,DepthScenes,duration_manipulation_targetAtFixation,jsons/v1_VE1000_randls_52_rotated.json,http://54.235.29.9/FacialAge/BNav_EC2/DepthDuration/v2_depth_duration_MTurk/v2_DepthDuration_HTML.html#244,244,1536,760,1536,864,8-29-2022,14-30-51,22,depth_duration_stimuli/000109_2014-05-14_23-41-52_260595134347_rgbf000035-resize_9/000109_2014-05-14_23-41-52_260595134347_rgbf000035-resize_9-target.png,1000,1.3545,4,4491,1003,feet,jsons/v1_VE1000_randls_52_rotated.json,721542,896851,55,Man
22,464385,DepthScenes,duration_manipulation_targetAtFixation,jsons/v1_VE1000_randls_52_rotated.json,http://54.235.29.9/FacialAge/BNav_EC2/DepthDuration/v2_depth_duration_MTurk/v2_DepthDuration_HTML.html#244,244,1536,760,1536,864,8-29-2022,14-30-51,23,depth_duration_stimuli/000470_2014-06-09_19-42-40_260595134347_rgbf000094-resize_1/000470_2014-06-09_19-42-40_260595134347_rgbf000094-resize_1-target.png,1000,1.831,5,3441,996,feet,jsons/v1_VE1000_randls_52_rotated.json,721542,896851,55,Man
23,464385,DepthScenes,duration_manipulation_targetAtFixation,jsons/v1_VE1000_randls_52_rotated.json,http://54.235.29.9/FacialAge/BNav_EC2/DepthDuration/v2_depth_duration_MTurk/v2_DepthDuration_HTML.html#244,244,1536,760,1536,864,8-29-2022,14-30-51,24,depth_duration_stimuli/000749_2014-06-08_21-55-06_260595134347_rgbf000070-resize_2/000749_2014-06-08_21-55-06_260595134347_rgbf000070-resize_2-target.png,1000,2.331,8,3606,1002,feet,jsons/v1_VE1000_randls_52_rotated.json,721542,896851,55,Man
24,464385,DepthScenes,duration_manipulation_targetAtFixation,jsons/v1_VE1000_randls_52_rotated.json,http://54.235.29.9/FacialAge/BNav_EC2/DepthDuration/v2_depth_duration_MTurk/v2_DepthDuration_HTML.html#244,244,1536,760,1536,864,8-29-2022,14-30-51,25,depth_duration_stimuli/002788_2014-06-22_19-36-03_094959634447_rgbf000088-resize_2/002788_2014-06-22_19-36-03_094959634447_rgbf000088-resize_2-target.png,1000,1.6465,11,5881,1002,feet,jsons/v1_VE1000_randls_52_rotated.json,721542,896851,55,Man
25,464385,DepthScenes,duration_manipulation_targetAtFixation,jsons/v1_VE1000_randls_52_rotated.json,http://54.235.29.9/FacialAge/BNav_EC2/DepthDuration/v2_depth_duration_MTurk/v2_DepthDuration_HTML.html#244,244,1536,760,1536,864,8-29-2022,14-30-51,26,depth_duration_stimuli/002136_2014-06-25_21-18-03_260595134347_rgbf000109-resize_3/002136_2014-06-25_21-18-03_260595134347_rgbf000109-resize_3-target.png,1000,1.9569999999999999,6,3619,1006,feet,jsons/v1_VE1000_randls_52_rotated.json,721542,896851,55,Man
26,464385,DepthScenes,duration_manipulation_targetAtFixation,jsons/v1_VE1000_randls_52_rotated.json,http://54.235.29.9/FacialAge/BNav_EC2/DepthDuration/v2_depth_duration_MTurk/v2_DepthDuration_HTML.html#244,244,1536,760,1536,864,8-29-2022,14-30-51,27,depth_duration_stimuli/002964_2014-06-08_17-46-11_094959634447_rgbf000091-resize_4/002964_2014-06-08_17-46-11_094959634447_rgbf000091-resize_4-target.png,1000,1.6909999999999998,4,4197,995,feet,jsons/v1_VE1000_randls_52_rotated.json,721542,896851,55,Man
27,464385,DepthScenes,duration_manipulation_targetAtFixation,jsons/v1_VE1000_randls_52_rotated.json,http://54.235.29.9/FacialAge/BNav_EC2/DepthDuration/v2_depth_duration_MTurk/v2_DepthDuration_HTML.html#244,244,1536,760,1536,864,8-29-2022,14-30-51,28,depth_duration_stimuli/000137_2014-05-20_17-04-49_260595134347_rgbf000120-resize_1/000137_2014-05-20_17-04-49_260595134347_rgbf000120-resize_1-target.png,1000,3.786,12,4913,1010,feet,jsons/v1_VE1000_randls_52_rotated.json,721542,896851,55,Man
28,464385,DepthScenes,duration_manipulation_targetAtFixation,jsons/v1_VE1000_randls_52_rotated.json,http://54.235.29.9/FacialAge/BNav_EC2/DepthDuration/v2_depth_duration_MTurk/v2_DepthDuration_HTML.html#244,244,1536,760,1536,864,8-29-2022,14-30-51,29,depth_duration_stimuli/000736_2014-06-08_18-24-15_260595134347_rgbf000206-resize_3/000736_2014-06-08_18-24-15_260595134347_rgbf000206-resize_3-target.png,1000,3.515,10,5688,998,feet,jsons/v1_VE1000_randls_52_rotated.json,721542,896851,55,Man
29,464385,DepthScenes,duration_manipulation_targetAtFixation,jsons/v1_VE1000_randls_52_rotated.json,http://54.235.29.9/FacialAge/BNav_EC2/DepthDuration/v2_depth_duration_MTurk/v2_DepthDuration_HTML.html#244,244,1536,760,1536,864,8-29-2022,14-30-51,30,depth_duration_stimuli/002072_2014-06-24_21-48-06_260595134347_rgbf000115-resize_0/002072_2014-06-24_21-48-06_260595134347_rgbf000115-resize-original.jpg,1000,4.702,0,3538,993,feet,jsons/v1_VE1000_randls_52_rotated.json,721542,896851,55,Man
30,464385,DepthScenes,duration_manipulation_targetAtFixation,jsons/v1_VE1000_randls_52_rotated.json,http://54.235.29.9/FacialAge/BNav_EC2/DepthDuration/v2_depth_duration_MTurk/v2_DepthDuration_HTML.html#244,244,1536,760,1536,864,8-29-2022,14-30-51,31,depth_duration_stimuli/002758_2014-06-22_19-11-20_094959634447_rgbf000128-resize_1/002758_2014-06-22_19-11-20_094959634447_rgbf000128-resize_1-target.png,1000,2.555,8,3231,1000,feet,jsons/v1_VE1000_randls_52_rotated.json,721542,896851,55,Man
31,464385,DepthScenes,duration_manipulation_targetAtFixation,jsons/v1_VE1000_randls_52_rotated.json,http://54.235.29.9/FacialAge/BNav_EC2/DepthDuration/v2_depth_duration_MTurk/v2_DepthDuration_HTML.html#244,244,1536,760,1536,864,8-29-2022,14-30-51,32,depth_duration_stimuli/002630_2014-06-24_14-47-50_094959634447_rgbf000055-resize_1/002630_2014-06-24_14-47-50_094959634447_rgbf000055-resize_1-target.png,1000,3.0095,14,3483,1012,feet,jsons/v1_VE1000_randls_52_rotated.json,721542,896851,55,Man
32,464385,DepthScenes,duration_manipulation_targetAtFixation,jsons/v1_VE1000_randls_52_rotated.json,http://54.235.29.9/FacialAge/BNav_EC2/DepthDuration/v2_depth_duration_MTurk/v2_DepthDuration_HTML.html#244,244,1536,760,1536,864,8-29-2022,14-30-51,33,depth_duration_stimuli/001815_2014-06-26_20-52-55_260595134347_rgbf000020-resize_0/001815_2014-06-26_20-52-55_260595134347_rgbf000020-resize_0-target.png,1000,3.3865,12,4074,1000,feet,jsons/v1_VE1000_randls_52_rotated.json,721542,896851,55,Man
33,464385,DepthScenes,duration_manipulation_targetAtFixation,jsons/v1_VE1000_randls_52_rotated.json,http://54.235.29.9/FacialAge/BNav_EC2/DepthDuration/v2_depth_duration_MTurk/v2_DepthDuration_HTML.html#244,244,1536,760,1536,864,8-29-2022,14-30-51,34,depth_duration_stimuli/001808_2014-06-26_20-50-58_260595134347_rgbf000029-resize_1/001808_2014-06-26_20-50-58_260595134347_rgbf000029-resize_1-target.png,1000,4.249,15,3844,1003,feet,jsons/v1_VE1000_randls_52_rotated.json,721542,896851,55,Man
34,464385,DepthScenes,duration_manipulation_targetAtFixation,jsons/v1_VE1000_randls_52_rotated.json,http://54.235.29.9/FacialAge/BNav_EC2/DepthDuration/v2_depth_duration_MTurk/v2_DepthDuration_HTML.html#244,244,1536,760,1536,864,8-29-2022,14-30-51,35,depth_duration_stimuli/003423_2014-05-21_10-23-26_094959634447_rgbf002665-resize_2/003423_2014-05-21_10-23-26_094959634447_rgbf002665-resize_2-target.png,1000,3.2575,16,4267,993,feet,jsons/v1_VE1000_randls_52_rotated.json,721542,896851,55,Man
35,464385,DepthScenes,duration_manipulation_targetAtFixation,jsons/v1_VE1000_randls_52_rotated.json,http://54.235.29.9/FacialAge/BNav_EC2/DepthDuration/v2_depth_duration_MTurk/v2_DepthDuration_HTML.html#244,244,1536,760,1536,864,8-29-2022,14-30-51,36,depth_duration_stimuli/002905_2014-06-03_18-04-43_094959634447_rgbf000151-resize_2/002905_2014-06-03_18-04-43_094959634447_rgbf000151-resize_2-target.png,1000,2.0295,5,4944,1001,feet,jsons/v1_VE1000_randls_52_rotated.json,721542,896851,55,Man
36,464385,DepthScenes,duration_manipulation_targetAtFixation,jsons/v1_VE1000_randls_52_rotated.json,http://54.235.29.9/FacialAge/BNav_EC2/DepthDuration/v2_depth_duration_MTurk/v2_DepthDuration_HTML.html#244,244,1536,760,1536,864,8-29-2022,14-30-51,37,depth_duration_stimuli/002657_2014-06-13_15-29-54_094959634447_rgbf000150-resize_1/002657_2014-06-13_15-29-54_094959634447_rgbf000150-resize_1-target.png,1000,4.919,10,3899,997,feet,jsons/v1_VE1000_randls_52_rotated.json,721542,896851,55,Man
37,464385,DepthScenes,duration_manipulation_targetAtFixation,jsons/v1_VE1000_randls_52_rotated.json,http://54.235.29.9/FacialAge/BNav_EC2/DepthDuration/v2_depth_duration_MTurk/v2_DepthDuration_HTML.html#244,244,1536,760,1536,864,8-29-2022,14-30-51,38,depth_duration_stimuli/002375_2014-06-28_20-13-44_260595134347_rgbf000032-resize_1/002375_2014-06-28_20-13-44_260595134347_rgbf000032-resize_1-target.png,1000,4.0175,7,3510,995,feet,jsons/v1_VE1000_randls_52_rotated.json,721542,896851,55,Man
38,464385,DepthScenes,duration_manipulation_targetAtFixation,jsons/v1_VE1000_randls_52_rotated.json,http://54.235.29.9/FacialAge/BNav_EC2/DepthDuration/v2_depth_duration_MTurk/v2_DepthDuration_HTML.html#244,244,1536,760,1536,864,8-29-2022,14-30-51,39,depth_duration_stimuli/001447_2014-06-19_17-00-32_260595134347_rgbf000082-resize_5/001447_2014-06-19_17-00-32_260595134347_rgbf000082-resize_5-target.png,1000,4.13775,6,3596,997,feet,jsons/v1_VE1000_randls_52_rotated.json,721542,896851,55,Man
39,464385,DepthScenes,duration_manipulation_targetAtFixation,jsons/v1_VE1000_randls_52_rotated.json,http://54.235.29.9/FacialAge/BNav_EC2/DepthDuration/v2_depth_duration_MTurk/v2_DepthDuration_HTML.html#244,244,1536,760,1536,864,8-29-2022,14-30-51,40,depth_duration_stimuli/000447_2014-06-08_16-15-46_260595134347_rgbf000130-resize_1/000447_2014-06-08_16-15-46_260595134347_rgbf000130-resize_1-target.png,1000,4.479,12,3679,997,feet,jsons/v1_VE1000_randls_52_rotated.json,721542,896851,55,Man
40,464385,DepthScenes,duration_manipulation_targetAtFixation,jsons/v1_VE1000_randls_52_rotated.json,http://54.235.29.9/FacialAge/BNav_EC2/DepthDuration/v2_depth_duration_MTurk/v2_DepthDuration_HTML.html#244,244,1536,760,1536,864,8-29-2022,14-30-51,41,depth_duration_stimuli/001392_2014-06-19_16-07-59_260595134347_rgbf000046-resize_1/001392_2014-06-19_16-07-59_260595134347_rgbf000046-resize_1-target.png,1000,4.135,11,3707,1009,feet,jsons/v1_VE1000_randls_52_rotated.json,721542,896851,55,Man
41,464385,DepthScenes,duration_manipulation_targetAtFixation,jsons/v1_VE1000_randls_52_rotated.json,http://54.235.29.9/FacialAge/BNav_EC2/DepthDuration/v2_depth_duration_MTurk/v2_DepthDuration_HTML.html#244,244,1536,760,1536,864,8-29-2022,14-30-51,42,depth_duration_stimuli/001570_2014-06-20_17-21-09_260595134347_rgbf000135-resize_4/001570_2014-06-20_17-21-09_260595134347_rgbf000135-resize_4-target.png,1000,4.467,12,6290,996,feet,jsons/v1_VE1000_randls_52_rotated.json,721542,896851,55,Man
42,464385,DepthScenes,duration_manipulation_targetAtFixation,jsons/v1_VE1000_randls_52_rotated.json,http://54.235.29.9/FacialAge/BNav_EC2/DepthDuration/v2_depth_duration_MTurk/v2_DepthDuration_HTML.html#244,244,1536,760,1536,864,8-29-2022,14-30-51,43,depth_duration_stimuli/003010_2014-06-15_12-54-35_094959634447_rgbf000112-resize_0/003010_2014-06-15_12-54-35_094959634447_rgbf000112-resize_0-target.png,1000,3.1185,12,3678,994,feet,jsons/v1_VE1000_randls_52_rotated.json,721542,896851,55,Man
43,464385,DepthScenes,duration_manipulation_targetAtFixation,jsons/v1_VE1000_randls_52_rotated.json,http://54.235.29.9/FacialAge/BNav_EC2/DepthDuration/v2_depth_duration_MTurk/v2_DepthDuration_HTML.html#244,244,1536,760,1536,864,8-29-2022,14-30-51,44,depth_duration_stimuli/001810_2014-06-26_20-51-35_260595134347_rgbf000040-resize_3/001810_2014-06-26_20-51-35_260595134347_rgbf000040-resize_3-target.png,1000,2.2525,6,3309,1001,feet,jsons/v1_VE1000_randls_52_rotated.json,721542,896851,55,Man
44,464385,DepthScenes,duration_manipulation_targetAtFixation,jsons/v1_VE1000_randls_52_rotated.json,http://54.235.29.9/FacialAge/BNav_EC2/DepthDuration/v2_depth_duration_MTurk/v2_DepthDuration_HTML.html#244,244,1536,760,1536,864,8-29-2022,14-30-51,45,depth_duration_stimuli/001052_2014-06-08_18-24-54_260595134347_rgbf000130-resize_1/001052_2014-06-08_18-24-54_260595134347_rgbf000130-resize_1-target.png,1000,4.1045,10,3612,1003,feet,jsons/v1_VE1000_randls_52_rotated.json,721542,896851,55,Man
45,464385,DepthScenes,duration_manipulation_targetAtFixation,jsons/v1_VE1000_randls_52_rotated.json,http://54.235.29.9/FacialAge/BNav_EC2/DepthDuration/v2_depth_duration_MTurk/v2_DepthDuration_HTML.html#244,244,1536,760,1536,864,8-29-2022,14-30-51,46,depth_duration_stimuli/002988_2014-06-15_12-24-20_094959634447_rgbf000150-resize_1/002988_2014-06-15_12-24-20_094959634447_rgbf000150-resize_1-target.png,1000,4.7669999999999995,12,4441,1011,feet,jsons/v1_VE1000_randls_52_rotated.json,721542,896851,55,Man
46,464385,DepthScenes,duration_manipulation_targetAtFixation,jsons/v1_VE1000_randls_52_rotated.json,http://54.235.29.9/FacialAge/BNav_EC2/DepthDuration/v2_depth_duration_MTurk/v2_DepthDuration_HTML.html#244,244,1536,760,1536,864,8-29-2022,14-30-51,47,depth_duration_stimuli/000103_2014-05-14_22-01-17_260595134347_rgbf000152-resize_5/000103_2014-05-14_22-01-17_260595134347_rgbf000152-resize_5-target.png,1000,1.993,8,4074,1002,feet,jsons/v1_VE1000_randls_52_rotated.json,721542,896851,55,Man
47,464385,DepthScenes,duration_manipulation_targetAtFixation,jsons/v1_VE1000_randls_52_rotated.json,http://54.235.29.9/FacialAge/BNav_EC2/DepthDuration/v2_depth_duration_MTurk/v2_DepthDuration_HTML.html#244,244,1536,760,1536,864,8-29-2022,14-30-51,48,depth_duration_stimuli/001555_2014-06-20_17-12-10_260595134347_rgbf000065-resize_4/001555_2014-06-20_17-12-10_260595134347_rgbf000065-resize_4-target.png,1000,1.633,4,3507,1000,feet,jsons/v1_VE1000_randls_52_rotated.json,721542,896851,55,Man
48,464385,DepthScenes,duration_manipulation_targetAtFixation,jsons/v1_VE1000_randls_52_rotated.json,http://54.235.29.9/FacialAge/BNav_EC2/DepthDuration/v2_depth_duration_MTurk/v2_DepthDuration_HTML.html#244,244,1536,760,1536,864,8-29-2022,14-30-51,49,depth_duration_stimuli/001170_2014-06-17_15-43-44_260595134347_rgbf000096-resize_6/001170_2014-06-17_15-43-44_260595134347_rgbf000096-resize-original.jpg,1000,1.1909999999999998,0,4093,1003,feet,jsons/v1_VE1000_randls_52_rotated.json,721542,896851,55,Man
49,464385,DepthScenes,duration_manipulation_targetAtFixation,jsons/v1_VE1000_randls_52_rotated.json,http://54.235.29.9/FacialAge/BNav_EC2/DepthDuration/v2_depth_duration_MTurk/v2_DepthDuration_HTML.html#244,244,1536,760,1536,864,8-29-2022,14-30-51,50,depth_duration_stimuli/000866_2014-06-09_20-45-42_260595134347_rgbf000139-resize_1/000866_2014-06-09_20-45-42_260595134347_rgbf000139-resize_1-target.png,1000,3.2155,8,3911,995,feet,jsons/v1_VE1000_randls_52_rotated.json,721542,896851,55,Man
50,464385,DepthScenes,duration_manipulation_targetAtFixation,jsons/v1_VE1000_randls_52_rotated.json,http://54.235.29.9/FacialAge/BNav_EC2/DepthDuration/v2_depth_duration_MTurk/v2_DepthDuration_HTML.html#244,244,1536,760,1536,864,8-29-2022,14-30-51,51,depth_duration_stimuli/002989_2014-06-15_12-25-03_094959634447_rgbf000150-resize_3/002989_2014-06-15_12-25-03_094959634447_rgbf000150-resize_3-target.png,1000,4.1975,12,3429,999,feet,jsons/v1_VE1000_randls_52_rotated.json,721542,896851,55,Man
51,464385,DepthScenes,duration_manipulation_targetAtFixation,jsons/v1_VE1000_randls_52_rotated.json,http://54.235.29.9/FacialAge/BNav_EC2/DepthDuration/v2_depth_duration_MTurk/v2_DepthDuration_HTML.html#244,244,1536,760,1536,864,8-29-2022,14-30-51,52,depth_duration_stimuli/000943_2014-06-09_19-31-07_260595134347_rgbf000128-resize_1/000943_2014-06-09_19-31-07_260595134347_rgbf000128-resize_1-target.png,1000,1.9765,6,3177,998,feet,jsons/v1_VE1000_randls_52_rotated.json,721542,896851,55,Man
52,464385,DepthScenes,duration_manipulation_targetAtFixation,jsons/v1_VE1000_randls_52_rotated.json,http://54.235.29.9/FacialAge/BNav_EC2/DepthDuration/v2_depth_duration_MTurk/v2_DepthDuration_HTML.html#244,244,1536,760,1536,864,8-29-2022,14-30-51,53,depth_duration_stimuli/003070_2014-06-15_14-58-27_094959634447_rgbf000150-resize_3/003070_2014-06-15_14-58-27_094959634447_rgbf000150-resize_3-target.png,1000,2.9415,10,4280,999,feet,jsons/v1_VE1000_randls_52_rotated.json,721542,896851,55,Man
53,464385,DepthScenes,duration_manipulation_targetAtFixation,jsons/v1_VE1000_randls_52_rotated.json,http://54.235.29.9/FacialAge/BNav_EC2/DepthDuration/v2_depth_duration_MTurk/v2_DepthDuration_HTML.html#244,244,1536,760,1536,864,8-29-2022,14-30-51,54,depth_duration_stimuli/002545_2014-06-24_13-38-53_094959634447_rgbf000080-resize_4/002545_2014-06-24_13-38-53_094959634447_rgbf000080-resize_4-target.png,1000,1.9205,8,5291,1003,feet,jsons/v1_VE1000_randls_52_rotated.json,721542,896851,55,Man
54,464385,DepthScenes,duration_manipulation_targetAtFixation,jsons/v1_VE1000_randls_52_rotated.json,http://54.235.29.9/FacialAge/BNav_EC2/DepthDuration/v2_depth_duration_MTurk/v2_DepthDuration_HTML.html#244,244,1536,760,1536,864,8-29-2022,14-30-51,55,depth_duration_stimuli/001092_2014-06-15_17-34-58_260595134347_rgbf000171-resize_3/001092_2014-06-15_17-34-58_260595134347_rgbf000171-resize_3-target.png,1000,2.6935,6,3609,1001,feet,jsons/v1_VE1000_randls_52_rotated.json,721542,896851,55,Man
55,464385,DepthScenes,duration_manipulation_targetAtFixation,jsons/v1_VE1000_randls_52_rotated.json,http://54.235.29.9/FacialAge/BNav_EC2/DepthDuration/v2_depth_duration_MTurk/v2_DepthDuration_HTML.html#244,244,1536,760,1536,864,8-29-2022,14-30-51,56,depth_duration_stimuli/000665_2014-06-09_20-42-35_260595134347_rgbf000110-resize_1/000665_2014-06-09_20-42-35_260595134347_rgbf000110-resize_1-target.png,1000,3.057,10,4381,1007,feet,jsons/v1_VE1000_randls_52_rotated.json,721542,896851,55,Man
56,464385,DepthScenes,duration_manipulation_targetAtFixation,jsons/v1_VE1000_randls_52_rotated.json,http://54.235.29.9/FacialAge/BNav_EC2/DepthDuration/v2_depth_duration_MTurk/v2_DepthDuration_HTML.html#244,244,1536,760,1536,864,8-29-2022,14-30-51,57,depth_duration_stimuli/001150_2014-06-17_15-27-34_260595134347_rgbf000108-resize_2/001150_2014-06-17_15-27-34_260595134347_rgbf000108-resize_2-target.png,1000,4.0325,14,3949,998,feet,jsons/v1_VE1000_randls_52_rotated.json,721542,896851,55,Man
57,464385,DepthScenes,duration_manipulation_targetAtFixation,jsons/v1_VE1000_randls_52_rotated.json,http://54.235.29.9/FacialAge/BNav_EC2/DepthDuration/v2_depth_duration_MTurk/v2_DepthDuration_HTML.html#244,244,1536,760,1536,864,8-29-2022,14-30-51,58,depth_duration_stimuli/000409_2014-06-04_19-23-33_260595134347_rgbf000067-resize_0/000409_2014-06-04_19-23-33_260595134347_rgbf000067-resize_0-target.png,1000,3.7335,9,4592,991,feet,jsons/v1_VE1000_randls_52_rotated.json,721542,896851,55,Man
58,464385,DepthScenes,duration_manipulation_targetAtFixation,jsons/v1_VE1000_randls_52_rotated.json,http://54.235.29.9/FacialAge/BNav_EC2/DepthDuration/v2_depth_duration_MTurk/v2_DepthDuration_HTML.html#244,244,1536,760,1536,864,8-29-2022,14-30-51,59,depth_duration_stimuli/002663_2014-06-13_15-50-26_094959634447_rgbf000075-resize_1/002663_2014-06-13_15-50-26_094959634447_rgbf000075-resize_1-target.png,1000,4.7495,15,5481,997,feet,jsons/v1_VE1000_randls_52_rotated.json,721542,896851,55,Man
59,464385,DepthScenes,duration_manipulation_targetAtFixation,jsons/v1_VE1000_randls_52_rotated.json,http://54.235.29.9/FacialAge/BNav_EC2/DepthDuration/v2_depth_duration_MTurk/v2_DepthDuration_HTML.html#244,244,1536,760,1536,864,8-29-2022,14-30-51,60,depth_duration_stimuli/000927_2014-06-09_16-32-30_260595134347_rgbf000123-resize_3/000927_2014-06-09_16-32-30_260595134347_rgbf000123-resize_3-target.png,1000,2.6785,8,3511,985,feet,jsons/v1_VE1000_randls_52_rotated.json,721542,896851,55,Man
60,464385,DepthScenes,duration_manipulation_targetAtFixation,jsons/v1_VE1000_randls_52_rotated.json,http://54.235.29.9/FacialAge/BNav_EC2/DepthDuration/v2_depth_duration_MTurk/v2_DepthDuration_HTML.html#244,244,1536,760,1536,864,8-29-2022,14-30-51,61,depth_duration_stimuli/001110_2014-06-15_17-25-28_260595134347_rgbf000150-resize_1/001110_2014-06-15_17-25-28_260595134347_rgbf000150-resize_1-target.png,1000,1.7115,6,3120,998,feet,jsons/v1_VE1000_randls_52_rotated.json,721542,896851,55,Man
61,464385,DepthScenes,duration_manipulation_targetAtFixation,jsons/v1_VE1000_randls_52_rotated.json,http://54.235.29.9/FacialAge/BNav_EC2/DepthDuration/v2_depth_duration_MTurk/v2_DepthDuration_HTML.html#244,244,1536,760,1536,864,8-29-2022,14-30-51,62,depth_duration_stimuli/001132_2014-06-17_14-48-54_260595134347_rgbf000100-resize_2/001132_2014-06-17_14-48-54_260595134347_rgbf000100-resize_2-target.png,1000,3.753,11,3887,1005,feet,jsons/v1_VE1000_randls_52_rotated.json,721542,896851,55,Man
62,464385,DepthScenes,duration_manipulation_targetAtFixation,jsons/v1_VE1000_randls_52_rotated.json,http://54.235.29.9/FacialAge/BNav_EC2/DepthDuration/v2_depth_duration_MTurk/v2_DepthDuration_HTML.html#244,244,1536,760,1536,864,8-29-2022,14-30-51,63,depth_duration_stimuli/001133_2014-06-17_14-49-16_260595134347_rgbf000100-resize_0/001133_2014-06-17_14-49-16_260595134347_rgbf000100-resize_0-target.png,1000,4.2115,10,3363,999,feet,jsons/v1_VE1000_randls_52_rotated.json,721542,896851,55,Man
63,464385,DepthScenes,duration_manipulation_targetAtFixation,jsons/v1_VE1000_randls_52_rotated.json,http://54.235.29.9/FacialAge/BNav_EC2/DepthDuration/v2_depth_duration_MTurk/v2_DepthDuration_HTML.html#244,244,1536,760,1536,864,8-29-2022,14-30-51,64,depth_duration_stimuli/002344_2014-06-28_20-06-29_260595134347_rgbf000030-resize_1/002344_2014-06-28_20-06-29_260595134347_rgbf000030-resize_1-target.png,1000,1.5795,4,3338,1002,feet,jsons/v1_VE1000_randls_52_rotated.json,721542,896851,55,Man
64,464385,DepthScenes,duration_manipulation_targetAtFixation,jsons/v1_VE1000_randls_52_rotated.json,http://54.235.29.9/FacialAge/BNav_EC2/DepthDuration/v2_depth_duration_MTurk/v2_DepthDuration_HTML.html#244,244,1536,760,1536,864,8-29-2022,14-30-51,65,depth_duration_stimuli/002725_2014-06-22_11-47-51_094959634447_rgbf000070-resize_1/002725_2014-06-22_11-47-51_094959634447_rgbf000070-resize_1-target.png,1000,2.195,6,4067,997,feet,jsons/v1_VE1000_randls_52_rotated.json,721542,896851,55,Man
65,464385,DepthScenes,duration_manipulation_targetAtFixation,jsons/v1_VE1000_randls_52_rotated.json,http://54.235.29.9/FacialAge/BNav_EC2/DepthDuration/v2_depth_duration_MTurk/v2_DepthDuration_HTML.html#244,244,1536,760,1536,864,8-29-2022,14-30-51,66,depth_duration_stimuli/001540_2014-06-20_17-01-05_260595134347_rgbf000086-resize_2/001540_2014-06-20_17-01-05_260595134347_rgbf000086-resize-original.jpg,1000,1.459,0,3640,991,feet,jsons/v1_VE1000_randls_52_rotated.json,721542,896851,55,Man
66,464385,DepthScenes,duration_manipulation_targetAtFixation,jsons/v1_VE1000_randls_52_rotated.json,http://54.235.29.9/FacialAge/BNav_EC2/DepthDuration/v2_depth_duration_MTurk/v2_DepthDuration_HTML.html#244,244,1536,760,1536,864,8-29-2022,14-30-51,67,depth_duration_stimuli/002678_2014-06-13_16-15-32_094959634447_rgbf000151-resize_6/002678_2014-06-13_16-15-32_094959634447_rgbf000151-resize_6-target.png,1000,2.1830000000000003,7,3201,986,feet,jsons/v1_VE1000_randls_52_rotated.json,721542,896851,55,Man
67,464385,DepthScenes,duration_manipulation_targetAtFixation,jsons/v1_VE1000_randls_52_rotated.json,http://54.235.29.9/FacialAge/BNav_EC2/DepthDuration/v2_depth_duration_MTurk/v2_DepthDuration_HTML.html#244,244,1536,760,1536,864,8-29-2022,14-30-51,68,depth_duration_stimuli/000368_2014-06-09_15-53-01_260595134347_rgbf000155-resize_2/000368_2014-06-09_15-53-01_260595134347_rgbf000155-resize_2-target.png,1000,2.4859999999999998,5,3370,999,feet,jsons/v1_VE1000_randls_52_rotated.json,721542,896851,55,Man
68,464385,DepthScenes,duration_manipulation_targetAtFixation,jsons/v1_VE1000_randls_52_rotated.json,http://54.235.29.9/FacialAge/BNav_EC2/DepthDuration/v2_depth_duration_MTurk/v2_DepthDuration_HTML.html#244,244,1536,760,1536,864,8-29-2022,14-30-51,69,depth_duration_stimuli/002949_2014-06-26_15-57-42_094959634447_rgbf000079-resize_1/002949_2014-06-26_15-57-42_094959634447_rgbf000079-resize_1-target.png,1000,1.8915,4,3124,1000,feet,jsons/v1_VE1000_randls_52_rotated.json,721542,896851,55,Man
69,464385,DepthScenes,duration_manipulation_targetAtFixation,jsons/v1_VE1000_randls_52_rotated.json,http://54.235.29.9/FacialAge/BNav_EC2/DepthDuration/v2_depth_duration_MTurk/v2_DepthDuration_HTML.html#244,244,1536,760,1536,864,8-29-2022,14-30-51,70,depth_duration_stimuli/000522_2014-06-08_13-35-06_260595134347_rgbf000244-resize_1/000522_2014-06-08_13-35-06_260595134347_rgbf000244-resize_1-target.png,1000,2.3715,4,3294,1006,feet,jsons/v1_VE1000_randls_52_rotated.json,721542,896851,55,Man
70,464385,DepthScenes,duration_manipulation_targetAtFixation,jsons/v1_VE1000_randls_52_rotated.json,http://54.235.29.9/FacialAge/BNav_EC2/DepthDuration/v2_depth_duration_MTurk/v2_DepthDuration_HTML.html#244,244,1536,760,1536,864,8-29-2022,14-30-51,71,depth_duration_stimuli/001571_2014-06-20_17-21-32_260595134347_rgbf000089-resize_1/001571_2014-06-20_17-21-32_260595134347_rgbf000089-resize_1-target.png,1000,1.86,5,3153,1000,feet,jsons/v1_VE1000_randls_52_rotated.json,721542,896851,55,Man
71,464385,DepthScenes,duration_manipulation_targetAtFixation,jsons/v1_VE1000_randls_52_rotated.json,http://54.235.29.9/FacialAge/BNav_EC2/DepthDuration/v2_depth_duration_MTurk/v2_DepthDuration_HTML.html#244,244,1536,760,1536,864,8-29-2022,14-30-51,72,depth_duration_stimuli/002272_2014-06-28_18-53-56_260595134347_rgbf000067-resize_2/002272_2014-06-28_18-53-56_260595134347_rgbf000067-resize_2-target.png,1000,1.138,5,3101,1000,feet,jsons/v1_VE1000_randls_52_rotated.json,721542,896851,55,Man
72,464385,DepthScenes,duration_manipulation_targetAtFixation,jsons/v1_VE1000_randls_52_rotated.json,http://54.235.29.9/FacialAge/BNav_EC2/DepthDuration/v2_depth_duration_MTurk/v2_DepthDuration_HTML.html#244,244,1536,760,1536,864,8-29-2022,14-30-51,73,depth_duration_stimuli/001032_2014-06-08_13-23-17_260595134347_rgbf000021-resize_3/001032_2014-06-08_13-23-17_260595134347_rgbf000021-resize_3-target.png,1000,3.2725,6,3322,1007,feet,jsons/v1_VE1000_randls_52_rotated.json,721542,896851,55,Man
73,464385,DepthScenes,duration_manipulation_targetAtFixation,jsons/v1_VE1000_randls_52_rotated.json,http://54.235.29.9/FacialAge/BNav_EC2/DepthDuration/v2_depth_duration_MTurk/v2_DepthDuration_HTML.html#244,244,1536,760,1536,864,8-29-2022,14-30-51,74,depth_duration_stimuli/001059_2014-06-08_21-53-27_260595134347_rgbf000061-resize_4/001059_2014-06-08_21-53-27_260595134347_rgbf000061-resize_4-target.png,1000,2.4185,6,3335,1006,feet,jsons/v1_VE1000_randls_52_rotated.json,721542,896851,55,Man
74,464385,DepthScenes,duration_manipulation_targetAtFixation,jsons/v1_VE1000_randls_52_rotated.json,http://54.235.29.9/FacialAge/BNav_EC2/DepthDuration/v2_depth_duration_MTurk/v2_DepthDuration_HTML.html#244,244,1536,760,1536,864,8-29-2022,14-30-51,75,depth_duration_stimuli/001828_2014-06-26_21-40-03_260595134347_rgbf000024-resize_0/001828_2014-06-26_21-40-03_260595134347_rgbf000024-resize_0-target.png,1000,4.8260000000000005,8,4223,1007,feet,jsons/v1_VE1000_randls_52_rotated.json,721542,896851,55,Man
75,464385,DepthScenes,duration_manipulation_targetAtFixation,jsons/v1_VE1000_randls_52_rotated.json,http://54.235.29.9/FacialAge/BNav_EC2/DepthDuration/v2_depth_duration_MTurk/v2_DepthDuration_HTML.html#244,244,1536,760,1536,864,8-29-2022,14-30-51,76,depth_duration_stimuli/000009_2014-05-26_14-32-05_260595134347_rgbf000034-resize_3/000009_2014-05-26_14-32-05_260595134347_rgbf000034-resize_3-target.png,1000,3.8715,10,3390,1006,feet,jsons/v1_VE1000_randls_52_rotated.json,721542,896851,55,Man
76,464385,DepthScenes,duration_manipulation_targetAtFixation,jsons/v1_VE1000_randls_52_rotated.json,http://54.235.29.9/FacialAge/BNav_EC2/DepthDuration/v2_depth_duration_MTurk/v2_DepthDuration_HTML.html#244,244,1536,760,1536,864,8-29-2022,14-30-51,77,depth_duration_stimuli/002995_2014-06-15_12-31-26_094959634447_rgbf000150-resize_1/002995_2014-06-15_12-31-26_094959634447_rgbf000150-resize_1-target.png,1000,3.8360000000000003,10,3102,1007,feet,jsons/v1_VE1000_randls_52_rotated.json,721542,896851,55,Man
77,464385,DepthScenes,duration_manipulation_targetAtFixation,jsons/v1_VE1000_randls_52_rotated.json,http://54.235.29.9/FacialAge/BNav_EC2/DepthDuration/v2_depth_duration_MTurk/v2_DepthDuration_HTML.html#244,244,1536,760,1536,864,8-29-2022,14-30-51,78,depth_duration_stimuli/002748_2014-06-22_19-07-22_094959634447_rgbf000078-resize_1/002748_2014-06-22_19-07-22_094959634447_rgbf000078-resize_1-target.png,1000,4.6705,12,4663,1009,feet,jsons/v1_VE1000_randls_52_rotated.json,721542,896851,55,Man
78,464385,DepthScenes,duration_manipulation_targetAtFixation,jsons/v1_VE1000_randls_52_rotated.json,http://54.235.29.9/FacialAge/BNav_EC2/DepthDuration/v2_depth_duration_MTurk/v2_DepthDuration_HTML.html#244,244,1536,760,1536,864,8-29-2022,14-30-51,79,depth_duration_stimuli/000191_2014-05-12_17-07-38_260595134347_rgbf000199-resize_0/000191_2014-05-12_17-07-38_260595134347_rgbf000199-resize_0-target.png,1000,3.7995,10,2969,1007,feet,jsons/v1_VE1000_randls_52_rotated.json,721542,896851,55,Man
79,464385,DepthScenes,duration_manipulation_targetAtFixation,jsons/v1_VE1000_randls_52_rotated.json,http://54.235.29.9/FacialAge/BNav_EC2/DepthDuration/v2_depth_duration_MTurk/v2_DepthDuration_HTML.html#244,244,1536,760,1536,864,8-29-2022,14-30-51,80,depth_duration_stimuli/000493_2014-06-09_21-01-18_260595134347_rgbf000196-resize_3/000493_2014-06-09_21-01-18_260595134347_rgbf000196-resize_3-target.png,1000,3.44,10,3195,1000,feet,jsons/v1_VE1000_randls_52_rotated.json,721542,896851,55,Man
80,464385,DepthScenes,duration_manipulation_targetAtFixation,jsons/v1_VE1000_randls_52_rotated.json,http://54.235.29.9/FacialAge/BNav_EC2/DepthDuration/v2_depth_duration_MTurk/v2_DepthDuration_HTML.html#244,244,1536,760,1536,864,8-29-2022,14-30-51,81,depth_duration_stimuli/002209_2014-06-28_18-36-10_260595134347_rgbf000051-resize_1/002209_2014-06-28_18-36-10_260595134347_rgbf000051-resize_1-target.png,1000,2.057,5,3296,1000,feet,jsons/v1_VE1000_randls_52_rotated.json,721542,896851,55,Man
81,464385,DepthScenes,duration_manipulation_targetAtFixation,jsons/v1_VE1000_randls_52_rotated.json,http://54.235.29.9/FacialAge/BNav_EC2/DepthDuration/v2_depth_duration_MTurk/v2_DepthDuration_HTML.html#244,244,1536,760,1536,864,8-29-2022,14-30-51,82,depth_duration_stimuli/002763_2014-06-22_19-13-10_094959634447_rgbf000075-resize_4/002763_2014-06-22_19-13-10_094959634447_rgbf000075-resize_4-target.png,1000,1.68375,4,4279,999,feet,jsons/v1_VE1000_randls_52_rotated.json,721542,896851,55,Man
82,464385,DepthScenes,duration_manipulation_targetAtFixation,jsons/v1_VE1000_randls_52_rotated.json,http://54.235.29.9/FacialAge/BNav_EC2/DepthDuration/v2_depth_duration_MTurk/v2_DepthDuration_HTML.html#244,244,1536,760,1536,864,8-29-2022,14-30-51,83,depth_duration_stimuli/003490_2014-05-21_15-50-11_094959634447_rgbf000101-resize_3/003490_2014-05-21_15-50-11_094959634447_rgbf000101-resize_3-target.png,1000,3.6445,9,4166,988,feet,jsons/v1_VE1000_randls_52_rotated.json,721542,896851,55,Man
83,464385,DepthScenes,duration_manipulation_targetAtFixation,jsons/v1_VE1000_randls_52_rotated.json,http://54.235.29.9/FacialAge/BNav_EC2/DepthDuration/v2_depth_duration_MTurk/v2_DepthDuration_HTML.html#244,244,1536,760,1536,864,8-29-2022,14-30-51,84,depth_duration_stimuli/001175_2014-06-17_15-45-55_260595134347_rgbf000129-resize_4/001175_2014-06-17_15-45-55_260595134347_rgbf000129-resize_4-target.png,1000,4.255,14,6202,1010,feet,jsons/v1_VE1000_randls_52_rotated.json,721542,896851,55,Man
84,464385,DepthScenes,duration_manipulation_targetAtFixation,jsons/v1_VE1000_randls_52_rotated.json,http://54.235.29.9/FacialAge/BNav_EC2/DepthDuration/v2_depth_duration_MTurk/v2_DepthDuration_HTML.html#244,244,1536,760,1536,864,8-29-2022,14-30-51,85,depth_duration_stimuli/003587_2014-05-23_16-48-02_094959634447_rgbf002384-resize_2/003587_2014-05-23_16-48-02_094959634447_rgbf002384-resize_2-target.png,1000,1.357,4,3191,1014,feet,jsons/v1_VE1000_randls_52_rotated.json,721542,896851,55,Man
85,464385,DepthScenes,duration_manipulation_targetAtFixation,jsons/v1_VE1000_randls_52_rotated.json,http://54.235.29.9/FacialAge/BNav_EC2/DepthDuration/v2_depth_duration_MTurk/v2_DepthDuration_HTML.html#244,244,1536,760,1536,864,8-29-2022,14-30-51,86,depth_duration_stimuli/001167_2014-06-17_15-38-07_260595134347_rgbf000108-resize_0/001167_2014-06-17_15-38-07_260595134347_rgbf000108-resize_0-target.png,1000,1.8505,5,3129,1001,feet,jsons/v1_VE1000_randls_52_rotated.json,721542,896851,55,Man
86,464385,DepthScenes,duration_manipulation_targetAtFixation,jsons/v1_VE1000_randls_52_rotated.json,http://54.235.29.9/FacialAge/BNav_EC2/DepthDuration/v2_depth_duration_MTurk/v2_DepthDuration_HTML.html#244,244,1536,760,1536,864,8-29-2022,14-30-51,87,depth_duration_stimuli/001516_2014-06-20_16-25-09_260595134347_rgbf000076-resize_2/001516_2014-06-20_16-25-09_260595134347_rgbf000076-resize_2-target.png,1000,1.7445,6,3567,995,feet,jsons/v1_VE1000_randls_52_rotated.json,721542,896851,55,Man
87,464385,DepthScenes,duration_manipulation_targetAtFixation,jsons/v1_VE1000_randls_52_rotated.json,http://54.235.29.9/FacialAge/BNav_EC2/DepthDuration/v2_depth_duration_MTurk/v2_DepthDuration_HTML.html#244,244,1536,760,1536,864,8-29-2022,14-30-51,88,depth_duration_stimuli/002118_2014-06-25_20-32-08_260595134347_rgbf000078-resize_1/002118_2014-06-25_20-32-08_260595134347_rgbf000078-resize_1-target.png,1000,2.6460000000000004,7,3185,997,feet,jsons/v1_VE1000_randls_52_rotated.json,721542,896851,55,Man
88,464385,DepthScenes,duration_manipulation_targetAtFixation,jsons/v1_VE1000_randls_52_rotated.json,http://54.235.29.9/FacialAge/BNav_EC2/DepthDuration/v2_depth_duration_MTurk/v2_DepthDuration_HTML.html#244,244,1536,760,1536,864,8-29-2022,14-30-51,89,depth_duration_stimuli/000635_2014-06-08_16-38-42_260595134347_rgbf000106-resize_1/000635_2014-06-08_16-38-42_260595134347_rgbf000106-resize_1-target.png,1000,2.074,8,3402,988,feet,jsons/v1_VE1000_randls_52_rotated.json,721542,896851,55,Man
89,464385,DepthScenes,duration_manipulation_targetAtFixation,jsons/v1_VE1000_randls_52_rotated.json,http://54.235.29.9/FacialAge/BNav_EC2/DepthDuration/v2_depth_duration_MTurk/v2_DepthDuration_HTML.html#244,244,1536,760,1536,864,8-29-2022,14-30-51,90,depth_duration_stimuli/002279_2014-06-28_18-55-32_260595134347_rgbf000040-resize_5/002279_2014-06-28_18-55-32_260595134347_rgbf000040-resize_5-target.png,1000,1.5043333333333,4,5368,1002,feet,jsons/v1_VE1000_randls_52_rotated.json,721542,896851,55,Man
90,464385,DepthScenes,duration_manipulation_targetAtFixation,jsons/v1_VE1000_randls_52_rotated.json,http://54.235.29.9/FacialAge/BNav_EC2/DepthDuration/v2_depth_duration_MTurk/v2_DepthDuration_HTML.html#244,244,1536,760,1536,864,8-29-2022,14-30-51,91,depth_duration_stimuli/000556_2014-06-09_22-42-56_260595134347_rgbf000214-resize_1/000556_2014-06-09_22-42-56_260595134347_rgbf000214-resize_1-target.png,1000,4.8415,8,3257,1006,feet,jsons/v1_VE1000_randls_52_rotated.json,721542,896851,55,Man
91,464385,DepthScenes,duration_manipulation_targetAtFixation,jsons/v1_VE1000_randls_52_rotated.json,http://54.235.29.9/FacialAge/BNav_EC2/DepthDuration/v2_depth_duration_MTurk/v2_DepthDuration_HTML.html#244,244,1536,760,1536,864,8-29-2022,14-30-51,92,depth_duration_stimuli/001158_2014-06-17_15-32-16_260595134347_rgbf000138-resize_2/001158_2014-06-17_15-32-16_260595134347_rgbf000138-resize_2-target.png,1000,4.5315,12,3785,1007,feet,jsons/v1_VE1000_randls_52_rotated.json,721542,896851,55,Man
92,464385,DepthScenes,duration_manipulation_targetAtFixation,jsons/v1_VE1000_randls_52_rotated.json,http://54.235.29.9/FacialAge/BNav_EC2/DepthDuration/v2_depth_duration_MTurk/v2_DepthDuration_HTML.html#244,244,1536,760,1536,864,8-29-2022,14-30-51,93,depth_duration_stimuli/000549_2014-06-08_22-10-24_260595134347_rgbf000247-resize_3/000549_2014-06-08_22-10-24_260595134347_rgbf000247-resize_3-target.png,1000,1.841,5,2801,991,feet,jsons/v1_VE1000_randls_52_rotated.json,721542,896851,55,Man
93,464385,DepthScenes,duration_manipulation_targetAtFixation,jsons/v1_VE1000_randls_52_rotated.json,http://54.235.29.9/FacialAge/BNav_EC2/DepthDuration/v2_depth_duration_MTurk/v2_DepthDuration_HTML.html#244,244,1536,760,1536,864,8-29-2022,14-30-51,94,depth_duration_stimuli/001055_2014-06-08_18-45-35_260595134347_rgbf000111-resize_4/001055_2014-06-08_18-45-35_260595134347_rgbf000111-resize_4-target.png,1000,2.4290000000000003,10,3143,999,feet,jsons/v1_VE1000_randls_52_rotated.json,721542,896851,55,Man
94,464385,DepthScenes,duration_manipulation_targetAtFixation,jsons/v1_VE1000_randls_52_rotated.json,http://54.235.29.9/FacialAge/BNav_EC2/DepthDuration/v2_depth_duration_MTurk/v2_DepthDuration_HTML.html#244,244,1536,760,1536,864,8-29-2022,14-30-51,95,depth_duration_stimuli/000483_2014-06-09_20-41-45_260595134347_rgbf000116-resize_4/000483_2014-06-09_20-41-45_260595134347_rgbf000116-resize_4-target.png,1000,1.337,5,3087,1011,feet,jsons/v1_VE1000_randls_52_rotated.json,721542,896851,55,Man
95,464385,DepthScenes,duration_manipulation_targetAtFixation,jsons/v1_VE1000_randls_52_rotated.json,http://54.235.29.9/FacialAge/BNav_EC2/DepthDuration/v2_depth_duration_MTurk/v2_DepthDuration_HTML.html#244,244,1536,760,1536,864,8-29-2022,14-30-51,96,depth_duration_stimuli/000469_2014-06-09_19-42-10_260595134347_rgbf000081-resize_1/000469_2014-06-09_19-42-10_260595134347_rgbf000081-resize_1-target.png,1000,1.652,5,3179,1010,feet,jsons/v1_VE1000_randls_52_rotated.json,721542,896851,55,Man
96,464385,DepthScenes,duration_manipulation_targetAtFixation,jsons/v1_VE1000_randls_52_rotated.json,http://54.235.29.9/FacialAge/BNav_EC2/DepthDuration/v2_depth_duration_MTurk/v2_DepthDuration_HTML.html#244,244,1536,760,1536,864,8-29-2022,14-30-51,97,depth_duration_stimuli/003079_2014-06-15_15-18-20_094959634447_rgbf000152-resize_8/003079_2014-06-15_15-18-20_094959634447_rgbf000152-resize_8-target.png,1000,2.8775,9,3774,998,feet,jsons/v1_VE1000_randls_52_rotated.json,721542,896851,55,Man
97,464385,DepthScenes,duration_manipulation_targetAtFixation,jsons/v1_VE1000_randls_52_rotated.json,http://54.235.29.9/FacialAge/BNav_EC2/DepthDuration/v2_depth_duration_MTurk/v2_DepthDuration_HTML.html#244,244,1536,760,1536,864,8-29-2022,14-30-51,98,depth_duration_stimuli/000506_2014-06-08_23-21-00_260595134347_rgbf000070-resize_7/000506_2014-06-08_23-21-00_260595134347_rgbf000070-resize_7-target.png,1000,4.0585,11,3570,1006,feet,jsons/v1_VE1000_randls_52_rotated.json,721542,896851,55,Man
98,464385,DepthScenes,duration_manipulation_targetAtFixation,jsons/v1_VE1000_randls_52_rotated.json,http://54.235.29.9/FacialAge/BNav_EC2/DepthDuration/v2_depth_duration_MTurk/v2_DepthDuration_HTML.html#244,244,1536,760,1536,864,8-29-2022,14-30-51,99,depth_duration_stimuli/001222_2014-06-17_16-24-06_260595134347_rgbf000073-resize_0/001222_2014-06-17_16-24-06_260595134347_rgbf000073-resize-original.jpg,1000,1.4385,0,3166,989,feet,jsons/v1_VE1000_randls_52_rotated.json,721542,896851,55,Man
99,464385,DepthScenes,duration_manipulation_targetAtFixation,jsons/v1_VE1000_randls_52_rotated.json,http://54.235.29.9/FacialAge/BNav_EC2/DepthDuration/v2_depth_duration_MTurk/v2_DepthDuration_HTML.html#244,244,1536,760,1536,864,8-29-2022,14-30-51,100,depth_duration_stimuli/002875_2014-06-01_15-19-00_094959634447_rgbf000151-resize_1/002875_2014-06-01_15-19-00_094959634447_rgbf000151-resize_1-target.png,1000,1.9675,5,3120,1013,feet,jsons/v1_VE1000_randls_52_rotated.json,721542,896851,55,Man
100,464385,DepthScenes,duration_manipulation_targetAtFixation,jsons/v1_VE1000_randls_52_rotated.json,http://54.235.29.9/FacialAge/BNav_EC2/DepthDuration/v2_depth_duration_MTurk/v2_DepthDuration_HTML.html#244,244,1536,760,1536,864,8-29-2022,14-30-51,101,depth_duration_stimuli/001011_2014-06-08_23-18-54_260595134347_rgbf000044-resize_4/001011_2014-06-08_23-18-54_260595134347_rgbf000044-resize_4-target.png,1000,2.4730000000000003,7,4006,999,feet,jsons/v1_VE1000_randls_52_rotated.json,721542,896851,55,Man
101,464385,DepthScenes,duration_manipulation_targetAtFixation,jsons/v1_VE1000_randls_52_rotated.json,http://54.235.29.9/FacialAge/BNav_EC2/DepthDuration/v2_depth_duration_MTurk/v2_DepthDuration_HTML.html#244,244,1536,760,1536,864,8-29-2022,14-30-51,102,depth_duration_stimuli/002637_2014-06-24_14-51-13_094959634447_rgbf000066-resize_4/002637_2014-06-24_14-51-13_094959634447_rgbf000066-resize_4-target.png,1000,1.9955,5,21737,989,feet,jsons/v1_VE1000_randls_52_rotated.json,721542,896851,55,Man
102,464385,DepthScenes,duration_manipulation_targetAtFixation,jsons/v1_VE1000_randls_52_rotated.json,http://54.235.29.9/FacialAge/BNav_EC2/DepthDuration/v2_depth_duration_MTurk/v2_DepthDuration_HTML.html#244,244,1536,760,1536,864,8-29-2022,14-30-51,103,depth_duration_stimuli/003534_2014-05-22_15-06-10_094959634447_rgbf000102-resize_4/003534_2014-05-22_15-06-10_094959634447_rgbf000102-resize_4-target.png,1000,1.426,4,4831,999,feet,jsons/v1_VE1000_randls_52_rotated.json,721542,896851,55,Man
103,464385,DepthScenes,duration_manipulation_targetAtFixation,jsons/v1_VE1000_randls_52_rotated.json,http://54.235.29.9/FacialAge/BNav_EC2/DepthDuration/v2_depth_duration_MTurk/v2_DepthDuration_HTML.html#244,244,1536,760,1536,864,8-29-2022,14-30-51,104,depth_duration_stimuli/000502_2014-06-08_23-02-32_260595134347_rgbf000063-resize_4/000502_2014-06-08_23-02-32_260595134347_rgbf000063-resize_4-target.png,1000,2.431,6,5033,985,feet,jsons/v1_VE1000_randls_52_rotated.json,721542,896851,55,Man
104,464385,DepthScenes,duration_manipulation_targetAtFixation,jsons/v1_VE1000_randls_52_rotated.json,http://54.235.29.9/FacialAge/BNav_EC2/DepthDuration/v2_depth_duration_MTurk/v2_DepthDuration_HTML.html#244,244,1536,760,1536,864,8-29-2022,14-30-51,105,depth_duration_stimuli/001199_2014-06-17_16-03-48_260595134347_rgbf000077-resize_0/001199_2014-06-17_16-03-48_260595134347_rgbf000077-resize_0-target.png,1000,3.4375,11,3478,987,feet,jsons/v1_VE1000_randls_52_rotated.json,721542,896851,55,Man
105,464385,DepthScenes,duration_manipulation_targetAtFixation,jsons/v1_VE1000_randls_52_rotated.json,http://54.235.29.9/FacialAge/BNav_EC2/DepthDuration/v2_depth_duration_MTurk/v2_DepthDuration_HTML.html#244,244,1536,760,1536,864,8-29-2022,14-30-51,106,depth_duration_stimuli/003083_2014-06-15_15-21-03_094959634447_rgbf000063-resize_1/003083_2014-06-15_15-21-03_094959634447_rgbf000063-resize_1-target.png,1000,4.1405,13,3234,1000,feet,jsons/v1_VE1000_randls_52_rotated.json,721542,896851,55,Man
106,464385,DepthScenes,duration_manipulation_targetAtFixation,jsons/v1_VE1000_randls_52_rotated.json,http://54.235.29.9/FacialAge/BNav_EC2/DepthDuration/v2_depth_duration_MTurk/v2_DepthDuration_HTML.html#244,244,1536,760,1536,864,8-29-2022,14-30-51,107,depth_duration_stimuli/000486_2014-06-09_20-47-20_260595134347_rgbf000143-resize_2/000486_2014-06-09_20-47-20_260595134347_rgbf000143-resize_2-target.png,1000,4.8325,15,4477,991,feet,jsons/v1_VE1000_randls_52_rotated.json,721542,896851,55,Man
107,464385,DepthScenes,duration_manipulation_targetAtFixation,jsons/v1_VE1000_randls_52_rotated.json,http://54.235.29.9/FacialAge/BNav_EC2/DepthDuration/v2_depth_duration_MTurk/v2_DepthDuration_HTML.html#244,244,1536,760,1536,864,8-29-2022,14-30-51,108,depth_duration_stimuli/002805_2014-06-22_19-54-03_094959634447_rgbf000079-resize_1/002805_2014-06-22_19-54-03_094959634447_rgbf000079-resize_1-target.png,1000,3.1439999999999997,12,3534,993,feet,jsons/v1_VE1000_randls_52_rotated.json,721542,896851,55,Man
108,464385,DepthScenes,duration_manipulation_targetAtFixation,jsons/v1_VE1000_randls_52_rotated.json,http://54.235.29.9/FacialAge/BNav_EC2/DepthDuration/v2_depth_duration_MTurk/v2_DepthDuration_HTML.html#244,244,1536,760,1536,864,8-29-2022,14-30-51,109,depth_duration_stimuli/000906_2014-06-08_13-35-43_260595134347_rgbf000155-resize_1/000906_2014-06-08_13-35-43_260595134347_rgbf000155-resize_1-target.png,1000,2.8489999999999998,14,3908,997,feet,jsons/v1_VE1000_randls_52_rotated.json,721542,896851,55,Man
109,464385,DepthScenes,duration_manipulation_targetAtFixation,jsons/v1_VE1000_randls_52_rotated.json,http://54.235.29.9/FacialAge/BNav_EC2/DepthDuration/v2_depth_duration_MTurk/v2_DepthDuration_HTML.html#244,244,1536,760,1536,864,8-29-2022,14-30-51,110,depth_duration_stimuli/003338_2014-05-20_11-01-23_094959634447_rgbf000051-resize_6/003338_2014-05-20_11-01-23_094959634447_rgbf000051-resize_6-target.png,1000,1.693,5,3032,1011,feet,jsons/v1_VE1000_randls_52_rotated.json,721542,896851,55,Man
110,464385,DepthScenes,duration_manipulation_targetAtFixation,jsons/v1_VE1000_randls_52_rotated.json,http://54.235.29.9/FacialAge/BNav_EC2/DepthDuration/v2_depth_duration_MTurk/v2_DepthDuration_HTML.html#244,244,1536,760,1536,864,8-29-2022,14-30-51,111,depth_duration_stimuli/002509_2014-06-24_13-19-22_094959634447_rgbf000077-resize_0/002509_2014-06-24_13-19-22_094959634447_rgbf000077-resize_0-target.png,1000,1.3065,4,3068,1004,feet,jsons/v1_VE1000_randls_52_rotated.json,721542,896851,55,Man
111,464385,DepthScenes,duration_manipulation_targetAtFixation,jsons/v1_VE1000_randls_52_rotated.json,http://54.235.29.9/FacialAge/BNav_EC2/DepthDuration/v2_depth_duration_MTurk/v2_DepthDuration_HTML.html#244,244,1536,760,1536,864,8-29-2022,14-30-51,112,depth_duration_stimuli/002199_2014-06-28_18-33-56_260595134347_rgbf000074-resize_0/002199_2014-06-28_18-33-56_260595134347_rgbf000074-resize_0-target.png,1000,1.996,4,3045,993,feet,jsons/v1_VE1000_randls_52_rotated.json,721542,896851,55,Man
112,464385,DepthScenes,duration_manipulation_targetAtFixation,jsons/v1_VE1000_randls_52_rotated.json,http://54.235.29.9/FacialAge/BNav_EC2/DepthDuration/v2_depth_duration_MTurk/v2_DepthDuration_HTML.html#244,244,1536,760,1536,864,8-29-2022,14-30-51,113,depth_duration_stimuli/001056_2014-06-08_18-46-44_260595134347_rgbf000068-resize_0/001056_2014-06-08_18-46-44_260595134347_rgbf000068-resize_0-target.png,1000,2.6625,9,3098,1006,feet,jsons/v1_VE1000_randls_52_rotated.json,721542,896851,55,Man
113,464385,DepthScenes,duration_manipulation_targetAtFixation,jsons/v1_VE1000_randls_52_rotated.json,http://54.235.29.9/FacialAge/BNav_EC2/DepthDuration/v2_depth_duration_MTurk/v2_DepthDuration_HTML.html#244,244,1536,760,1536,864,8-29-2022,14-30-51,114,depth_duration_stimuli/002444_2014-06-28_20-32-08_260595134347_rgbf000027-resize_0/002444_2014-06-28_20-32-08_260595134347_rgbf000027-resize_0-target.png,1000,4.388999999999999,15,4225,998,feet,jsons/v1_VE1000_randls_52_rotated.json,721542,896851,55,Man
114,464385,DepthScenes,duration_manipulation_targetAtFixation,jsons/v1_VE1000_randls_52_rotated.json,http://54.235.29.9/FacialAge/BNav_EC2/DepthDuration/v2_depth_duration_MTurk/v2_DepthDuration_HTML.html#244,244,1536,760,1536,864,8-29-2022,14-30-51,115,depth_duration_stimuli/000436_2014-06-09_22-25-11_260595134347_rgbf000137-resize_1/000436_2014-06-09_22-25-11_260595134347_rgbf000137-resize_1-target.png,1000,4.0705,17,3334,998,feet,jsons/v1_VE1000_randls_52_rotated.json,721542,896851,55,Man
115,464385,DepthScenes,duration_manipulation_targetAtFixation,jsons/v1_VE1000_randls_52_rotated.json,http://54.235.29.9/FacialAge/BNav_EC2/DepthDuration/v2_depth_duration_MTurk/v2_DepthDuration_HTML.html#244,244,1536,760,1536,864,8-29-2022,14-30-51,116,depth_duration_stimuli/000742_2014-06-08_18-48-09_260595134347_rgbf000164-resize_4/000742_2014-06-08_18-48-09_260595134347_rgbf000164-resize_4-target.png,1000,4.632,18,3930,994,feet,jsons/v1_VE1000_randls_52_rotated.json,721542,896851,55,Man
116,464385,DepthScenes,duration_manipulation_targetAtFixation,jsons/v1_VE1000_randls_52_rotated.json,http://54.235.29.9/FacialAge/BNav_EC2/DepthDuration/v2_depth_duration_MTurk/v2_DepthDuration_HTML.html#244,244,1536,760,1536,864,8-29-2022,14-30-51,117,depth_duration_stimuli/001066_2014-06-08_22-03-20_260595134347_rgbf000066-resize_4/001066_2014-06-08_22-03-20_260595134347_rgbf000066-resize_4-target.png,1000,4.2330000000000005,12,3516,1010,feet,jsons/v1_VE1000_randls_52_rotated.json,721542,896851,55,Man
117,464385,DepthScenes,duration_manipulation_targetAtFixation,jsons/v1_VE1000_randls_52_rotated.json,http://54.235.29.9/FacialAge/BNav_EC2/DepthDuration/v2_depth_duration_MTurk/v2_DepthDuration_HTML.html#244,244,1536,760,1536,864,8-29-2022,14-30-51,118,depth_duration_stimuli/002414_2014-06-28_20-24-58_260595134347_rgbf000067-resize_4/002414_2014-06-28_20-24-58_260595134347_rgbf000067-resize_4-target.png,1000,4.363,16,3642,996,feet,jsons/v1_VE1000_randls_52_rotated.json,721542,896851,55,Man
118,464385,DepthScenes,duration_manipulation_targetAtFixation,jsons/v1_VE1000_randls_52_rotated.json,http://54.235.29.9/FacialAge/BNav_EC2/DepthDuration/v2_depth_duration_MTurk/v2_DepthDuration_HTML.html#244,244,1536,760,1536,864,8-29-2022,14-30-51,119,depth_duration_stimuli/000773_2014-06-08_22-24-54_260595134347_rgbf000093-resize_1/000773_2014-06-08_22-24-54_260595134347_rgbf000093-resize_1-target.png,1000,4.973,12,3067,993,feet,jsons/v1_VE1000_randls_52_rotated.json,721542,896851,55,Man
119,464385,DepthScenes,duration_manipulation_targetAtFixation,jsons/v1_VE1000_randls_52_rotated.json,http://54.235.29.9/FacialAge/BNav_EC2/DepthDuration/v2_depth_duration_MTurk/v2_DepthDuration_HTML.html#244,244,1536,760,1536,864,8-29-2022,14-30-51,120,depth_duration_stimuli/000787_2014-06-08_22-33-53_260595134347_rgbf000175-resize_1/000787_2014-06-08_22-33-53_260595134347_rgbf000175-resize-original.jpg,1000,4.784,0,3094,1000,feet,jsons/v1_VE1000_randls_52_rotated.json,721542,896851,55,Man
120,464385,DepthScenes,duration_manipulation_targetAtFixation,jsons/v1_VE1000_randls_52_rotated.json,http://54.235.29.9/FacialAge/BNav_EC2/DepthDuration/v2_depth_duration_MTurk/v2_DepthDuration_HTML.html#244,244,1536,760,1536,864,8-29-2022,14-30-51,121,depth_duration_stimuli/003081_2014-06-15_15-19-16_094959634447_rgbf000150-resize_1/003081_2014-06-15_15-19-16_094959634447_rgbf000150-resize_1-target.png,1000,3.9125,11,3107,1002,feet,jsons/v1_VE1000_randls_52_rotated.json,721542,896851,55,Man
121,464385,DepthScenes,duration_manipulation_targetAtFixation,jsons/v1_VE1000_randls_52_rotated.json,http://54.235.29.9/FacialAge/BNav_EC2/DepthDuration/v2_depth_duration_MTurk/v2_DepthDuration_HTML.html#244,244,1536,760,1536,864,8-29-2022,14-30-51,122,depth_duration_stimuli/001417_2014-06-19_16-25-36_260595134347_rgbf000115-resize_5/001417_2014-06-19_16-25-36_260595134347_rgbf000115-resize_5-target.png,1000,4.6255,10,3090,987,feet,jsons/v1_VE1000_randls_52_rotated.json,721542,896851,55,Man
122,464385,DepthScenes,duration_manipulation_targetAtFixation,jsons/v1_VE1000_randls_52_rotated.json,http://54.235.29.9/FacialAge/BNav_EC2/DepthDuration/v2_depth_duration_MTurk/v2_DepthDuration_HTML.html#244,244,1536,760,1536,864,8-29-2022,14-30-51,123,depth_duration_stimuli/002568_2014-06-24_13-59-21_094959634447_rgbf000062-resize_4/002568_2014-06-24_13-59-21_094959634447_rgbf000062-resize_4-target.png,1000,3.015,8,3349,1001,feet,jsons/v1_VE1000_randls_52_rotated.json,721542,896851,55,Man
123,464385,DepthScenes,duration_manipulation_targetAtFixation,jsons/v1_VE1000_randls_52_rotated.json,http://54.235.29.9/FacialAge/BNav_EC2/DepthDuration/v2_depth_duration_MTurk/v2_DepthDuration_HTML.html#244,244,1536,760,1536,864,8-29-2022,14-30-51,124,depth_duration_stimuli/003492_2014-05-21_15-50-55_094959634447_rgbf000828-resize_1/003492_2014-05-21_15-50-55_094959634447_rgbf000828-resize_1-target.png,1000,4.06875,10,3127,998,feet,jsons/v1_VE1000_randls_52_rotated.json,721542,896851,55,Man
124,464385,DepthScenes,duration_manipulation_targetAtFixation,jsons/v1_VE1000_randls_52_rotated.json,http://54.235.29.9/FacialAge/BNav_EC2/DepthDuration/v2_depth_duration_MTurk/v2_DepthDuration_HTML.html#244,244,1536,760,1536,864,8-29-2022,14-30-51,125,depth_duration_stimuli/002323_2014-06-28_20-01-54_260595134347_rgbf000051-resize_4/002323_2014-06-28_20-01-54_260595134347_rgbf000051-resize_4-target.png,1000,3.7310000000000003,12,3596,1009,feet,jsons/v1_VE1000_randls_52_rotated.json,721542,896851,55,Man
125,464385,DepthScenes,duration_manipulation_targetAtFixation,jsons/v1_VE1000_randls_52_rotated.json,http://54.235.29.9/FacialAge/BNav_EC2/DepthDuration/v2_depth_duration_MTurk/v2_DepthDuration_HTML.html#244,244,1536,760,1536,864,8-29-2022,14-30-51,126,depth_duration_stimuli/000917_2014-06-09_22-45-29_260595134347_rgbf000149-resize_3/000917_2014-06-09_22-45-29_260595134347_rgbf000149-resize_3-target.png,1000,4.1865,10,4833,1000,feet,jsons/v1_VE1000_randls_52_rotated.json,721542,896851,55,Man
126,464385,DepthScenes,duration_manipulation_targetAtFixation,jsons/v1_VE1000_randls_52_rotated.json,http://54.235.29.9/FacialAge/BNav_EC2/DepthDuration/v2_depth_duration_MTurk/v2_DepthDuration_HTML.html#244,244,1536,760,1536,864,8-29-2022,14-30-51,127,depth_duration_stimuli/001214_2014-06-17_16-13-55_260595134347_rgbf000111-resize_0/001214_2014-06-17_16-13-55_260595134347_rgbf000111-resize_0-target.png,1000,2.6505,9,3375,989,feet,jsons/v1_VE1000_randls_52_rotated.json,721542,896851,55,Man
127,464385,DepthScenes,duration_manipulation_targetAtFixation,jsons/v1_VE1000_randls_52_rotated.json,http://54.235.29.9/FacialAge/BNav_EC2/DepthDuration/v2_depth_duration_MTurk/v2_DepthDuration_HTML.html#244,244,1536,760,1536,864,8-29-2022,14-30-51,128,depth_duration_stimuli/000810_2014-06-08_17-20-01_260595134347_rgbf000105-resize_0/000810_2014-06-08_17-20-01_260595134347_rgbf000105-resize_0-target.png,1000,1.4865,6,3169,987,feet,jsons/v1_VE1000_randls_52_rotated.json,721542,896851,55,Man
128,464385,DepthScenes,duration_manipulation_targetAtFixation,jsons/v1_VE1000_randls_52_rotated.json,http://54.235.29.9/FacialAge/BNav_EC2/DepthDuration/v2_depth_duration_MTurk/v2_DepthDuration_HTML.html#244,244,1536,760,1536,864,8-29-2022,14-30-51,129,depth_duration_stimuli/000677_2014-06-08_23-10-32_260595134347_rgbf000158-resize_6/000677_2014-06-08_23-10-32_260595134347_rgbf000158-resize_6-target.png,1000,3.556,8,3204,998,feet,jsons/v1_VE1000_randls_52_rotated.json,721542,896851,55,Man
129,464385,DepthScenes,duration_manipulation_targetAtFixation,jsons/v1_VE1000_randls_52_rotated.json,http://54.235.29.9/FacialAge/BNav_EC2/DepthDuration/v2_depth_duration_MTurk/v2_DepthDuration_HTML.html#244,244,1536,760,1536,864,8-29-2022,14-30-51,130,depth_duration_stimuli/001029_2014-06-08_13-17-57_260595134347_rgbf000065-resize_1/001029_2014-06-08_13-17-57_260595134347_rgbf000065-resize_1-target.png,1000,3.0835,8,3121,1003,feet,jsons/v1_VE1000_randls_52_rotated.json,721542,896851,55,Man
130,464385,DepthScenes,duration_manipulation_targetAtFixation,jsons/v1_VE1000_randls_52_rotated.json,http://54.235.29.9/FacialAge/BNav_EC2/DepthDuration/v2_depth_duration_MTurk/v2_DepthDuration_HTML.html#244,244,1536,760,1536,864,8-29-2022,14-30-51,131,depth_duration_stimuli/001584_2014-06-20_11-07-43_260595134347_rgbf000002-resize_1/001584_2014-06-20_11-07-43_260595134347_rgbf000002-resize_1-target.png,1000,3.53,12,3282,1008,feet,jsons/v1_VE1000_randls_52_rotated.json,721542,896851,55,Man
131,464385,DepthScenes,duration_manipulation_targetAtFixation,jsons/v1_VE1000_randls_52_rotated.json,http://54.235.29.9/FacialAge/BNav_EC2/DepthDuration/v2_depth_duration_MTurk/v2_DepthDuration_HTML.html#244,244,1536,760,1536,864,8-29-2022,14-30-51,132,depth_duration_stimuli/003621_2014-05-23_18-06-08_094959634447_rgbf000101-resize_1/003621_2014-05-23_18-06-08_094959634447_rgbf000101-resize_1-target.png,1000,3.9835,14,3117,998,feet,jsons/v1_VE1000_randls_52_rotated.json,721542,896851,55,Man
132,464385,DepthScenes,duration_manipulation_targetAtFixation,jsons/v1_VE1000_randls_52_rotated.json,http://54.235.29.9/FacialAge/BNav_EC2/DepthDuration/v2_depth_duration_MTurk/v2_DepthDuration_HTML.html#244,244,1536,760,1536,864,8-29-2022,14-30-51,133,depth_duration_stimuli/002340_2014-06-28_20-05-46_260595134347_rgbf000113-resize_0/002340_2014-06-28_20-05-46_260595134347_rgbf000113-resize_0-target.png,1000,2.4735,13,3753,1004,feet,jsons/v1_VE1000_randls_52_rotated.json,721542,896851,55,Man
133,464385,DepthScenes,duration_manipulation_targetAtFixation,jsons/v1_VE1000_randls_52_rotated.json,http://54.235.29.9/FacialAge/BNav_EC2/DepthDuration/v2_depth_duration_MTurk/v2_DepthDuration_HTML.html#244,244,1536,760,1536,864,8-29-2022,14-30-51,134,depth_duration_stimuli/001016_2014-06-09_16-16-10_260595134347_rgbf000112-resize_5/001016_2014-06-09_16-16-10_260595134347_rgbf000112-resize_5-target.png,1000,1.6565,8,3023,1008,feet,jsons/v1_VE1000_randls_52_rotated.json,721542,896851,55,Man
134,464385,DepthScenes,duration_manipulation_targetAtFixation,jsons/v1_VE1000_randls_52_rotated.json,http://54.235.29.9/FacialAge/BNav_EC2/DepthDuration/v2_depth_duration_MTurk/v2_DepthDuration_HTML.html#244,244,1536,760,1536,864,8-29-2022,14-30-51,135,depth_duration_stimuli/000375_2014-06-08_11-17-29_260595134347_rgbf000133-resize_2/000375_2014-06-08_11-17-29_260595134347_rgbf000133-resize-original.jpg,1000,4.718,0,3357,1002,feet,jsons/v1_VE1000_randls_52_rotated.json,721542,896851,55,Man
135,464385,DepthScenes,duration_manipulation_targetAtFixation,jsons/v1_VE1000_randls_52_rotated.json,http://54.235.29.9/FacialAge/BNav_EC2/DepthDuration/v2_depth_duration_MTurk/v2_DepthDuration_HTML.html#244,244,1536,760,1536,864,8-29-2022,14-30-51,136,depth_duration_stimuli/003048_2014-06-15_13-49-43_094959634447_rgbf000150-resize_1/003048_2014-06-15_13-49-43_094959634447_rgbf000150-resize_1-target.png,1000,4.0035,12,3740,990,feet,jsons/v1_VE1000_randls_52_rotated.json,721542,896851,55,Man
136,464385,DepthScenes,duration_manipulation_targetAtFixation,jsons/v1_VE1000_randls_52_rotated.json,http://54.235.29.9/FacialAge/BNav_EC2/DepthDuration/v2_depth_duration_MTurk/v2_DepthDuration_HTML.html#244,244,1536,760,1536,864,8-29-2022,14-30-51,137,depth_duration_stimuli/002043_2014-06-24_20-29-38_260595134347_rgbf000039-resize_4/002043_2014-06-24_20-29-38_260595134347_rgbf000039-resize_4-target.png,1000,2.8435,14,3619,1012,feet,jsons/v1_VE1000_randls_52_rotated.json,721542,896851,55,Man
137,464385,DepthScenes,duration_manipulation_targetAtFixation,jsons/v1_VE1000_randls_52_rotated.json,http://54.235.29.9/FacialAge/BNav_EC2/DepthDuration/v2_depth_duration_MTurk/v2_DepthDuration_HTML.html#244,244,1536,760,1536,864,8-29-2022,14-30-51,138,depth_duration_stimuli/003129_2014-05-12_10-48-10_094959634447_rgbf000100-resize_0/003129_2014-05-12_10-48-10_094959634447_rgbf000100-resize_0-target.png,1000,4.9305,16,2996,993,feet,jsons/v1_VE1000_randls_52_rotated.json,721542,896851,55,Man
138,464385,DepthScenes,duration_manipulation_targetAtFixation,jsons/v1_VE1000_randls_52_rotated.json,http://54.235.29.9/FacialAge/BNav_EC2/DepthDuration/v2_depth_duration_MTurk/v2_DepthDuration_HTML.html#244,244,1536,760,1536,864,8-29-2022,14-30-51,139,depth_duration_stimuli/000414_2014-06-04_19-49-13_260595134347_rgbf000044-resize_0/000414_2014-06-04_19-49-13_260595134347_rgbf000044-resize_0-target.png,1000,4.329,18,3121,1000,feet,jsons/v1_VE1000_randls_52_rotated.json,721542,896851,55,Man
139,464385,DepthScenes,duration_manipulation_targetAtFixation,jsons/v1_VE1000_randls_52_rotated.json,http://54.235.29.9/FacialAge/BNav_EC2/DepthDuration/v2_depth_duration_MTurk/v2_DepthDuration_HTML.html#244,244,1536,760,1536,864,8-29-2022,14-30-51,140,depth_duration_stimuli/000691_2014-06-08_13-08-50_260595134347_rgbf000132-resize_3/000691_2014-06-08_13-08-50_260595134347_rgbf000132-resize_3-target.png,1000,4.1530000000000005,15,3879,991,feet,jsons/v1_VE1000_randls_52_rotated.json,721542,896851,55,Man
140,464385,DepthScenes,duration_manipulation_targetAtFixation,jsons/v1_VE1000_randls_52_rotated.json,http://54.235.29.9/FacialAge/BNav_EC2/DepthDuration/v2_depth_duration_MTurk/v2_DepthDuration_HTML.html#244,244,1536,760,1536,864,8-29-2022,14-30-51,141,depth_duration_stimuli/002213_2014-06-28_18-37-58_260595134347_rgbf000055-resize_1/002213_2014-06-28_18-37-58_260595134347_rgbf000055-resize_1-target.png,1000,3.62,17,3266,999,feet,jsons/v1_VE1000_randls_52_rotated.json,721542,896851,55,Man
141,464385,DepthScenes,duration_manipulation_targetAtFixation,jsons/v1_VE1000_randls_52_rotated.json,http://54.235.29.9/FacialAge/BNav_EC2/DepthDuration/v2_depth_duration_MTurk/v2_DepthDuration_HTML.html#244,244,1536,760,1536,864,8-29-2022,14-30-51,142,depth_duration_stimuli/000780_2014-06-08_22-28-29_260595134347_rgbf000126-resize_1/000780_2014-06-08_22-28-29_260595134347_rgbf000126-resize_1-target.png,1000,3.3825,15,3268,999,feet,jsons/v1_VE1000_randls_52_rotated.json,721542,896851,55,Man
142,464385,DepthScenes,duration_manipulation_targetAtFixation,jsons/v1_VE1000_randls_52_rotated.json,http://54.235.29.9/FacialAge/BNav_EC2/DepthDuration/v2_depth_duration_MTurk/v2_DepthDuration_HTML.html#244,244,1536,760,1536,864,8-29-2022,14-30-51,143,depth_duration_stimuli/002445_2014-06-28_20-32-16_260595134347_rgbf000029-resize_4/002445_2014-06-28_20-32-16_260595134347_rgbf000029-resize_4-target.png,1000,2.5315,8,3522,999,feet,jsons/v1_VE1000_randls_52_rotated.json,721542,896851,55,Man
143,464385,DepthScenes,duration_manipulation_targetAtFixation,jsons/v1_VE1000_randls_52_rotated.json,http://54.235.29.9/FacialAge/BNav_EC2/DepthDuration/v2_depth_duration_MTurk/v2_DepthDuration_HTML.html#244,244,1536,760,1536,864,8-29-2022,14-30-51,144,depth_duration_stimuli/001136_2014-06-17_15-19-41_260595134347_rgbf000076-resize_3/001136_2014-06-17_15-19-41_260595134347_rgbf000076-resize_3-target.png,1000,1.8655,9,3441,994,feet,jsons/v1_VE1000_randls_52_rotated.json,721542,896851,55,Man
144,464385,DepthScenes,duration_manipulation_targetAtFixation,jsons/v1_VE1000_randls_52_rotated.json,http://54.235.29.9/FacialAge/BNav_EC2/DepthDuration/v2_depth_duration_MTurk/v2_DepthDuration_HTML.html#244,244,1536,760,1536,864,8-29-2022,14-30-51,145,depth_duration_stimuli/001164_2014-06-17_15-35-46_260595134347_rgbf000085-resize_3/001164_2014-06-17_15-35-46_260595134347_rgbf000085-resize_3-target.png,1000,2.354,8,3030,999,feet,jsons/v1_VE1000_randls_52_rotated.json,721542,896851,55,Man
145,464385,DepthScenes,duration_manipulation_targetAtFixation,jsons/v1_VE1000_randls_52_rotated.json,http://54.235.29.9/FacialAge/BNav_EC2/DepthDuration/v2_depth_duration_MTurk/v2_DepthDuration_HTML.html#244,244,1536,760,1536,864,8-29-2022,14-30-51,146,depth_duration_stimuli/003228_2014-05-14_13-42-35_094959634447_rgbf000101-resize_1/003228_2014-05-14_13-42-35_094959634447_rgbf000101-resize_1-target.png,1000,1.9680000000000002,6,2780,1007,feet,jsons/v1_VE1000_randls_52_rotated.json,721542,896851,55,Man
146,464385,DepthScenes,duration_manipulation_targetAtFixation,jsons/v1_VE1000_randls_52_rotated.json,http://54.235.29.9/FacialAge/BNav_EC2/DepthDuration/v2_depth_duration_MTurk/v2_DepthDuration_HTML.html#244,244,1536,760,1536,864,8-29-2022,14-30-51,147,depth_duration_stimuli/002600_2014-06-24_14-27-04_094959634447_rgbf000074-resize_2/002600_2014-06-24_14-27-04_094959634447_rgbf000074-resize_2-target.png,1000,2.7575,8,2988,1001,feet,jsons/v1_VE1000_randls_52_rotated.json,721542,896851,55,Man
147,464385,DepthScenes,duration_manipulation_targetAtFixation,jsons/v1_VE1000_randls_52_rotated.json,http://54.235.29.9/FacialAge/BNav_EC2/DepthDuration/v2_depth_duration_MTurk/v2_DepthDuration_HTML.html#244,244,1536,760,1536,864,8-29-2022,14-30-51,148,depth_duration_stimuli/002660_2014-06-13_15-44-18_094959634447_rgbf001878-resize_2/002660_2014-06-13_15-44-18_094959634447_rgbf001878-resize_2-target.png,1000,3.576,12,4489,999,feet,jsons/v1_VE1000_randls_52_rotated.json,721542,896851,55,Man
148,464385,DepthScenes,duration_manipulation_targetAtFixation,jsons/v1_VE1000_randls_52_rotated.json,http://54.235.29.9/FacialAge/BNav_EC2/DepthDuration/v2_depth_duration_MTurk/v2_DepthDuration_HTML.html#244,244,1536,760,1536,864,8-29-2022,14-30-51,149,depth_duration_stimuli/002153_2014-06-25_21-27-18_260595134347_rgbf000038-resize_5/002153_2014-06-25_21-27-18_260595134347_rgbf000038-resize_5-target.png,1000,2.505,8,3143,999,feet,jsons/v1_VE1000_randls_52_rotated.json,721542,896851,55,Man
149,464385,DepthScenes,duration_manipulation_targetAtFixation,jsons/v1_VE1000_randls_52_rotated.json,http://54.235.29.9/FacialAge/BNav_EC2/DepthDuration/v2_depth_duration_MTurk/v2_DepthDuration_HTML.html#244,244,1536,760,1536,864,8-29-2022,14-30-51,150,depth_duration_stimuli/001235_2014-06-17_16-37-36_260595134347_rgbf000084-resize_4/001235_2014-06-17_16-37-36_260595134347_rgbf000084-resize_4-target.png,1000,3.6605,10,3090,996,feet,jsons/v1_VE1000_randls_52_rotated.json,721542,896851,55,Man
150,464385,DepthScenes,duration_manipulation_targetAtFixation,jsons/v1_VE1000_randls_52_rotated.json,http://54.235.29.9/FacialAge/BNav_EC2/DepthDuration/v2_depth_duration_MTurk/v2_DepthDuration_HTML.html#244,244,1536,760,1536,864,8-29-2022,14-30-51,151,depth_duration_stimuli/000788_2014-06-08_22-34-36_260595134347_rgbf000131-resize_1/000788_2014-06-08_22-34-36_260595134347_rgbf000131-resize_1-target.png,1000,3.359,11,3417,998,feet,jsons/v1_VE1000_randls_52_rotated.json,721542,896851,55,Man
151,464385,DepthScenes,duration_manipulation_targetAtFixation,jsons/v1_VE1000_randls_52_rotated.json,http://54.235.29.9/FacialAge/BNav_EC2/DepthDuration/v2_depth_duration_MTurk/v2_DepthDuration_HTML.html#244,244,1536,760,1536,864,8-29-2022,14-30-51,152,depth_duration_stimuli/000569_2014-06-09_22-51-47_260595134347_rgbf000141-resize_3/000569_2014-06-09_22-51-47_260595134347_rgbf000141-resize-original.jpg,1000,4.512,0,2987,998,feet,jsons/v1_VE1000_randls_52_rotated.json,721542,896851,55,Man
152,464385,DepthScenes,duration_manipulation_targetAtFixation,jsons/v1_VE1000_randls_52_rotated.json,http://54.235.29.9/FacialAge/BNav_EC2/DepthDuration/v2_depth_duration_MTurk/v2_DepthDuration_HTML.html#244,244,1536,760,1536,864,8-29-2022,14-30-51,153,depth_duration_stimuli/001617_2014-06-20_11-35-32_260595134347_rgbf000066-resize_1/001617_2014-06-20_11-35-32_260595134347_rgbf000066-resize_1-target.png,1000,3.7910000000000004,14,3073,1001,feet,jsons/v1_VE1000_randls_52_rotated.json,721542,896851,55,Man
153,464385,DepthScenes,duration_manipulation_targetAtFixation,jsons/v1_VE1000_randls_52_rotated.json,http://54.235.29.9/FacialAge/BNav_EC2/DepthDuration/v2_depth_duration_MTurk/v2_DepthDuration_HTML.html#244,244,1536,760,1536,864,8-29-2022,14-30-51,154,depth_duration_stimuli/001806_2014-06-26_20-50-20_260595134347_rgbf000091-resize_1/001806_2014-06-26_20-50-20_260595134347_rgbf000091-resize_1-target.png,1000,2.7305,8,3878,1003,feet,jsons/v1_VE1000_randls_52_rotated.json,721542,896851,55,Man
154,464385,DepthScenes,duration_manipulation_targetAtFixation,jsons/v1_VE1000_randls_52_rotated.json,http://54.235.29.9/FacialAge/BNav_EC2/DepthDuration/v2_depth_duration_MTurk/v2_DepthDuration_HTML.html#244,244,1536,760,1536,864,8-29-2022,14-30-51,155,depth_duration_stimuli/002953_2014-06-08_17-32-18_094959634447_rgbf000059-resize_5/002953_2014-06-08_17-32-18_094959634447_rgbf000059-resize_5-target.png,1000,1.551,5,3073,991,feet,jsons/v1_VE1000_randls_52_rotated.json,721542,896851,55,Man
155,464385,DepthScenes,duration_manipulation_targetAtFixation,jsons/v1_VE1000_randls_52_rotated.json,http://54.235.29.9/FacialAge/BNav_EC2/DepthDuration/v2_depth_duration_MTurk/v2_DepthDuration_HTML.html#244,244,1536,760,1536,864,8-29-2022,14-30-51,156,depth_duration_stimuli/000878_2014-06-08_22-52-45_260595134347_rgbf000045-resize_2/000878_2014-06-08_22-52-45_260595134347_rgbf000045-resize_2-target.png,1000,2.092,8,2983,1000,feet,jsons/v1_VE1000_randls_52_rotated.json,721542,896851,55,Man
156,464385,DepthScenes,duration_manipulation_targetAtFixation,jsons/v1_VE1000_randls_52_rotated.json,http://54.235.29.9/FacialAge/BNav_EC2/DepthDuration/v2_depth_duration_MTurk/v2_DepthDuration_HTML.html#244,244,1536,760,1536,864,8-29-2022,14-30-51,157,depth_duration_stimuli/000854_2014-06-09_19-43-13_260595134347_rgbf000066-resize_0/000854_2014-06-09_19-43-13_260595134347_rgbf000066-resize_0-target.png,1000,3.068,7,2917,1009,feet,jsons/v1_VE1000_randls_52_rotated.json,721542,896851,55,Man
157,464385,DepthScenes,duration_manipulation_targetAtFixation,jsons/v1_VE1000_randls_52_rotated.json,http://54.235.29.9/FacialAge/BNav_EC2/DepthDuration/v2_depth_duration_MTurk/v2_DepthDuration_HTML.html#244,244,1536,760,1536,864,8-29-2022,14-30-51,158,depth_duration_stimuli/000758_2014-06-08_22-05-08_260595134347_rgbf000085-resize_0/000758_2014-06-08_22-05-08_260595134347_rgbf000085-resize_0-target.png,1000,3.3810000000000002,12,4231,989,feet,jsons/v1_VE1000_randls_52_rotated.json,721542,896851,55,Man
158,464385,DepthScenes,duration_manipulation_targetAtFixation,jsons/v1_VE1000_randls_52_rotated.json,http://54.235.29.9/FacialAge/BNav_EC2/DepthDuration/v2_depth_duration_MTurk/v2_DepthDuration_HTML.html#244,244,1536,760,1536,864,8-29-2022,14-30-51,159,depth_duration_stimuli/002750_2014-06-22_19-08-03_094959634447_rgbf000094-resize_4/002750_2014-06-22_19-08-03_094959634447_rgbf000094-resize_4-target.png,1000,2.354,10,2926,1001,feet,jsons/v1_VE1000_randls_52_rotated.json,721542,896851,55,Man
159,464385,DepthScenes,duration_manipulation_targetAtFixation,jsons/v1_VE1000_randls_52_rotated.json,http://54.235.29.9/FacialAge/BNav_EC2/DepthDuration/v2_depth_duration_MTurk/v2_DepthDuration_HTML.html#244,244,1536,760,1536,864,8-29-2022,14-30-51,160,depth_duration_stimuli/002549_2014-06-24_13-41-39_094959634447_rgbf000022-resize_3/002549_2014-06-24_13-41-39_094959634447_rgbf000022-resize_3-target.png,1000,1.476,6,3378,1009,feet,jsons/v1_VE1000_randls_52_rotated.json,721542,896851,55,Man
160,464385,DepthScenes,duration_manipulation_targetAtFixation,jsons/v1_VE1000_randls_52_rotated.json,http://54.235.29.9/FacialAge/BNav_EC2/DepthDuration/v2_depth_duration_MTurk/v2_DepthDuration_HTML.html#244,244,1536,760,1536,864,8-29-2022,14-30-51,161,depth_duration_stimuli/000457_2014-06-08_16-52-43_260595134347_rgbf000199-resize_1/000457_2014-06-08_16-52-43_260595134347_rgbf000199-resize_1-target.png,1000,3.6489999999999996,8,2949,995,feet,jsons/v1_VE1000_randls_52_rotated.json,721542,896851,55,Man
161,464385,DepthScenes,duration_manipulation_targetAtFixation,jsons/v1_VE1000_randls_52_rotated.json,http://54.235.29.9/FacialAge/BNav_EC2/DepthDuration/v2_depth_duration_MTurk/v2_DepthDuration_HTML.html#244,244,1536,760,1536,864,8-29-2022,14-30-51,162,depth_duration_stimuli/000929_2014-06-09_16-33-19_260595134347_rgbf000139-resize_0/000929_2014-06-09_16-33-19_260595134347_rgbf000139-resize_0-target.png,1000,2.8680000000000003,8,2956,1000,feet,jsons/v1_VE1000_randls_52_rotated.json,721542,896851,55,Man
162,464385,DepthScenes,duration_manipulation_targetAtFixation,jsons/v1_VE1000_randls_52_rotated.json,http://54.235.29.9/FacialAge/BNav_EC2/DepthDuration/v2_depth_duration_MTurk/v2_DepthDuration_HTML.html#244,244,1536,760,1536,864,8-29-2022,14-30-51,163,depth_duration_stimuli/001100_2014-06-15_17-46-26_260595134347_rgbf000225-resize_2/001100_2014-06-15_17-46-26_260595134347_rgbf000225-resize_2-target.png,1000,2.24,5,3795,997,feet,jsons/v1_VE1000_randls_52_rotated.json,721542,896851,55,Man
163,464385,DepthScenes,duration_manipulation_targetAtFixation,jsons/v1_VE1000_randls_52_rotated.json,http://54.235.29.9/FacialAge/BNav_EC2/DepthDuration/v2_depth_duration_MTurk/v2_DepthDuration_HTML.html#244,244,1536,760,1536,864,8-29-2022,14-30-51,164,depth_duration_stimuli/002784_2014-06-22_19-26-30_094959634447_rgbf000083-resize_3/002784_2014-06-22_19-26-30_094959634447_rgbf000083-resize_3-target.png,1000,1.8046666666667,6,2811,994,feet,jsons/v1_VE1000_randls_52_rotated.json,721542,896851,55,Man
