,subjID,experimentName,versionName,sequenceName,url,selected_row,windowWidth,windowHeight,screenWidth,screenHeight,startDate,startTime,trial,stimulus,duration,actual_depth,depth_estimate,trial_RT,log_sceneDuration,unitSelection,seq_filepath,experimentTime,totalTime,age,gender
0,465507,DepthScenes,duration_manipulation_targetAtFixation,jsons/v1_VE250_randls_16_rotated.json,http://54.235.29.9/FacialAge/BNav_EC2/DepthDuration/v2_depth_duration_MTurk/v2_DepthDuration_HTML.html#404,404,1366,625,1366,768,8-29-2022,14-35-35,1,depth_duration_stimuli/002344_2014-06-28_20-06-29_260595134347_rgbf000030-resize_1/002344_2014-06-28_20-06-29_260595134347_rgbf000030-resize_1-target.png,250,1.5795,2,6957,249,feet,jsons/v1_VE250_randls_16_rotated.json,1480566,1917409,25,Woman
1,465507,DepthScenes,duration_manipulation_targetAtFixation,jsons/v1_VE250_randls_16_rotated.json,http://54.235.29.9/FacialAge/BNav_EC2/DepthDuration/v2_depth_duration_MTurk/v2_DepthDuration_HTML.html#404,404,1366,625,1366,768,8-29-2022,14-35-35,2,depth_duration_stimuli/002725_2014-06-22_11-47-51_094959634447_rgbf000070-resize_1/002725_2014-06-22_11-47-51_094959634447_rgbf000070-resize_1-target.png,250,2.195,3,5213,259,feet,jsons/v1_VE250_randls_16_rotated.json,1480566,1917409,25,Woman
2,465507,DepthScenes,duration_manipulation_targetAtFixation,jsons/v1_VE250_randls_16_rotated.json,http://54.235.29.9/FacialAge/BNav_EC2/DepthDuration/v2_depth_duration_MTurk/v2_DepthDuration_HTML.html#404,404,1366,625,1366,768,8-29-2022,14-35-35,3,depth_duration_stimuli/001584_2014-06-20_11-07-43_260595134347_rgbf000002-resize_1/001584_2014-06-20_11-07-43_260595134347_rgbf000002-resize_1-target.png,250,3.53,4,6933,238,feet,jsons/v1_VE250_randls_16_rotated.json,1480566,1917409,25,Woman
3,465507,DepthScenes,duration_manipulation_targetAtFixation,jsons/v1_VE250_randls_16_rotated.json,http://54.235.29.9/FacialAge/BNav_EC2/DepthDuration/v2_depth_duration_MTurk/v2_DepthDuration_HTML.html#404,404,1366,625,1366,768,8-29-2022,14-35-35,4,depth_duration_stimuli/003621_2014-05-23_18-06-08_094959634447_rgbf000101-resize_1/003621_2014-05-23_18-06-08_094959634447_rgbf000101-resize_1-target.png,250,3.9835,3,48012,258,feet,jsons/v1_VE250_randls_16_rotated.json,1480566,1917409,25,Woman
4,465507,DepthScenes,duration_manipulation_targetAtFixation,jsons/v1_VE250_randls_16_rotated.json,http://54.235.29.9/FacialAge/BNav_EC2/DepthDuration/v2_depth_duration_MTurk/v2_DepthDuration_HTML.html#404,404,1366,625,1366,768,8-29-2022,14-35-35,5,depth_duration_stimuli/002750_2014-06-22_19-08-03_094959634447_rgbf000094-resize_4/002750_2014-06-22_19-08-03_094959634447_rgbf000094-resize_4-target.png,250,2.354,4,7960,246,feet,jsons/v1_VE250_randls_16_rotated.json,1480566,1917409,25,Woman
5,465507,DepthScenes,duration_manipulation_targetAtFixation,jsons/v1_VE250_randls_16_rotated.json,http://54.235.29.9/FacialAge/BNav_EC2/DepthDuration/v2_depth_duration_MTurk/v2_DepthDuration_HTML.html#404,404,1366,625,1366,768,8-29-2022,14-35-35,6,depth_duration_stimuli/002549_2014-06-24_13-41-39_094959634447_rgbf000022-resize_3/002549_2014-06-24_13-41-39_094959634447_rgbf000022-resize_3-target.png,250,1.476,3,5254,251,feet,jsons/v1_VE250_randls_16_rotated.json,1480566,1917409,25,Woman
6,465507,DepthScenes,duration_manipulation_targetAtFixation,jsons/v1_VE250_randls_16_rotated.json,http://54.235.29.9/FacialAge/BNav_EC2/DepthDuration/v2_depth_duration_MTurk/v2_DepthDuration_HTML.html#404,404,1366,625,1366,768,8-29-2022,14-35-35,7,depth_duration_stimuli/003083_2014-06-15_15-21-03_094959634447_rgbf000063-resize_1/003083_2014-06-15_15-21-03_094959634447_rgbf000063-resize_1-target.png,250,4.1405,5,5870,244,feet,jsons/v1_VE250_randls_16_rotated.json,1480566,1917409,25,Woman
7,465507,DepthScenes,duration_manipulation_targetAtFixation,jsons/v1_VE250_randls_16_rotated.json,http://54.235.29.9/FacialAge/BNav_EC2/DepthDuration/v2_depth_duration_MTurk/v2_DepthDuration_HTML.html#404,404,1366,625,1366,768,8-29-2022,14-35-35,8,depth_duration_stimuli/000486_2014-06-09_20-47-20_260595134347_rgbf000143-resize_2/000486_2014-06-09_20-47-20_260595134347_rgbf000143-resize_2-target.png,250,4.8325,3,4377,251,feet,jsons/v1_VE250_randls_16_rotated.json,1480566,1917409,25,Woman
8,465507,DepthScenes,duration_manipulation_targetAtFixation,jsons/v1_VE250_randls_16_rotated.json,http://54.235.29.9/FacialAge/BNav_EC2/DepthDuration/v2_depth_duration_MTurk/v2_DepthDuration_HTML.html#404,404,1366,625,1366,768,8-29-2022,14-35-35,9,depth_duration_stimuli/002414_2014-06-28_20-24-58_260595134347_rgbf000067-resize_4/002414_2014-06-28_20-24-58_260595134347_rgbf000067-resize_4-target.png,250,4.363,4,6723,245,feet,jsons/v1_VE250_randls_16_rotated.json,1480566,1917409,25,Woman
9,465507,DepthScenes,duration_manipulation_targetAtFixation,jsons/v1_VE250_randls_16_rotated.json,http://54.235.29.9/FacialAge/BNav_EC2/DepthDuration/v2_depth_duration_MTurk/v2_DepthDuration_HTML.html#404,404,1366,625,1366,768,8-29-2022,14-35-35,10,depth_duration_stimuli/000773_2014-06-08_22-24-54_260595134347_rgbf000093-resize_1/000773_2014-06-08_22-24-54_260595134347_rgbf000093-resize_1-target.png,250,4.973,3,26685,250,feet,jsons/v1_VE250_randls_16_rotated.json,1480566,1917409,25,Woman
10,465507,DepthScenes,duration_manipulation_targetAtFixation,jsons/v1_VE250_randls_16_rotated.json,http://54.235.29.9/FacialAge/BNav_EC2/DepthDuration/v2_depth_duration_MTurk/v2_DepthDuration_HTML.html#404,404,1366,625,1366,768,8-29-2022,14-35-35,11,depth_duration_stimuli/000780_2014-06-08_22-28-29_260595134347_rgbf000126-resize_1/000780_2014-06-08_22-28-29_260595134347_rgbf000126-resize_1-target.png,250,3.3825,6,14608,248,feet,jsons/v1_VE250_randls_16_rotated.json,1480566,1917409,25,Woman
11,465507,DepthScenes,duration_manipulation_targetAtFixation,jsons/v1_VE250_randls_16_rotated.json,http://54.235.29.9/FacialAge/BNav_EC2/DepthDuration/v2_depth_duration_MTurk/v2_DepthDuration_HTML.html#404,404,1366,625,1366,768,8-29-2022,14-35-35,12,depth_duration_stimuli/002445_2014-06-28_20-32-16_260595134347_rgbf000029-resize_4/002445_2014-06-28_20-32-16_260595134347_rgbf000029-resize_4-target.png,250,2.5315,5,6176,250,feet,jsons/v1_VE250_randls_16_rotated.json,1480566,1917409,25,Woman
12,465507,DepthScenes,duration_manipulation_targetAtFixation,jsons/v1_VE250_randls_16_rotated.json,http://54.235.29.9/FacialAge/BNav_EC2/DepthDuration/v2_depth_duration_MTurk/v2_DepthDuration_HTML.html#404,404,1366,625,1366,768,8-29-2022,14-35-35,13,depth_duration_stimuli/001094_2014-06-15_17-36-00_260595134347_rgbf000205-resize_0/001094_2014-06-15_17-36-00_260595134347_rgbf000205-resize_0-target.png,250,4.2175,4,10032,266,feet,jsons/v1_VE250_randls_16_rotated.json,1480566,1917409,25,Woman
13,465507,DepthScenes,duration_manipulation_targetAtFixation,jsons/v1_VE250_randls_16_rotated.json,http://54.235.29.9/FacialAge/BNav_EC2/DepthDuration/v2_depth_duration_MTurk/v2_DepthDuration_HTML.html#404,404,1366,625,1366,768,8-29-2022,14-35-35,14,depth_duration_stimuli/000692_2014-06-08_13-09-42_260595134347_rgbf000199-resize_2/000692_2014-06-08_13-09-42_260595134347_rgbf000199-resize_2-target.png,250,3.661,6,7586,251,feet,jsons/v1_VE250_randls_16_rotated.json,1480566,1917409,25,Woman
14,465507,DepthScenes,duration_manipulation_targetAtFixation,jsons/v1_VE250_randls_16_rotated.json,http://54.235.29.9/FacialAge/BNav_EC2/DepthDuration/v2_depth_duration_MTurk/v2_DepthDuration_HTML.html#404,404,1366,625,1366,768,8-29-2022,14-35-35,15,depth_duration_stimuli/003423_2014-05-21_10-23-26_094959634447_rgbf002665-resize_2/003423_2014-05-21_10-23-26_094959634447_rgbf002665-resize_2-target.png,250,3.2575,4,10094,246,feet,jsons/v1_VE250_randls_16_rotated.json,1480566,1917409,25,Woman
15,465507,DepthScenes,duration_manipulation_targetAtFixation,jsons/v1_VE250_randls_16_rotated.json,http://54.235.29.9/FacialAge/BNav_EC2/DepthDuration/v2_depth_duration_MTurk/v2_DepthDuration_HTML.html#404,404,1366,625,1366,768,8-29-2022,14-35-35,16,depth_duration_stimuli/002905_2014-06-03_18-04-43_094959634447_rgbf000151-resize_2/002905_2014-06-03_18-04-43_094959634447_rgbf000151-resize_2-target.png,250,2.0295,3,6525,248,feet,jsons/v1_VE250_randls_16_rotated.json,1480566,1917409,25,Woman
16,465507,DepthScenes,duration_manipulation_targetAtFixation,jsons/v1_VE250_randls_16_rotated.json,http://54.235.29.9/FacialAge/BNav_EC2/DepthDuration/v2_depth_duration_MTurk/v2_DepthDuration_HTML.html#404,404,1366,625,1366,768,8-29-2022,14-35-35,17,depth_duration_stimuli/003081_2014-06-15_15-19-16_094959634447_rgbf000150-resize_1/003081_2014-06-15_15-19-16_094959634447_rgbf000150-resize_1-target.png,250,3.9125,5,7493,250,feet,jsons/v1_VE250_randls_16_rotated.json,1480566,1917409,25,Woman
17,465507,DepthScenes,duration_manipulation_targetAtFixation,jsons/v1_VE250_randls_16_rotated.json,http://54.235.29.9/FacialAge/BNav_EC2/DepthDuration/v2_depth_duration_MTurk/v2_DepthDuration_HTML.html#404,404,1366,625,1366,768,8-29-2022,14-35-35,18,depth_duration_stimuli/001417_2014-06-19_16-25-36_260595134347_rgbf000115-resize_5/001417_2014-06-19_16-25-36_260595134347_rgbf000115-resize_5-target.png,250,4.6255,4,5942,240,feet,jsons/v1_VE250_randls_16_rotated.json,1480566,1917409,25,Woman
18,465507,DepthScenes,duration_manipulation_targetAtFixation,jsons/v1_VE250_randls_16_rotated.json,http://54.235.29.9/FacialAge/BNav_EC2/DepthDuration/v2_depth_duration_MTurk/v2_DepthDuration_HTML.html#404,404,1366,625,1366,768,8-29-2022,14-35-35,19,depth_duration_stimuli/001498_2014-06-19_17-45-14_260595134347_rgbf000129-resize_4/001498_2014-06-19_17-45-14_260595134347_rgbf000129-resize-original.jpg,250,1.4075,3,8314,249,feet,jsons/v1_VE250_randls_16_rotated.json,1480566,1917409,25,Woman
19,465507,DepthScenes,duration_manipulation_targetAtFixation,jsons/v1_VE250_randls_16_rotated.json,http://54.235.29.9/FacialAge/BNav_EC2/DepthDuration/v2_depth_duration_MTurk/v2_DepthDuration_HTML.html#404,404,1366,625,1366,768,8-29-2022,14-35-35,20,depth_duration_stimuli/001235_2014-06-17_16-37-36_260595134347_rgbf000084-resize_4/001235_2014-06-17_16-37-36_260595134347_rgbf000084-resize_4-target.png,250,3.6605,5,6604,249,feet,jsons/v1_VE250_randls_16_rotated.json,1480566,1917409,25,Woman
20,465507,DepthScenes,duration_manipulation_targetAtFixation,jsons/v1_VE250_randls_16_rotated.json,http://54.235.29.9/FacialAge/BNav_EC2/DepthDuration/v2_depth_duration_MTurk/v2_DepthDuration_HTML.html#404,404,1366,625,1366,768,8-29-2022,14-35-35,21,depth_duration_stimuli/000788_2014-06-08_22-34-36_260595134347_rgbf000131-resize_1/000788_2014-06-08_22-34-36_260595134347_rgbf000131-resize_1-target.png,250,3.359,4,6713,244,feet,jsons/v1_VE250_randls_16_rotated.json,1480566,1917409,25,Woman
21,465507,DepthScenes,duration_manipulation_targetAtFixation,jsons/v1_VE250_randls_16_rotated.json,http://54.235.29.9/FacialAge/BNav_EC2/DepthDuration/v2_depth_duration_MTurk/v2_DepthDuration_HTML.html#404,404,1366,625,1366,768,8-29-2022,14-35-35,22,depth_duration_stimuli/003228_2014-05-14_13-42-35_094959634447_rgbf000101-resize_1/003228_2014-05-14_13-42-35_094959634447_rgbf000101-resize_1-target.png,250,1.9680000000000002,3,14458,247,feet,jsons/v1_VE250_randls_16_rotated.json,1480566,1917409,25,Woman
22,465507,DepthScenes,duration_manipulation_targetAtFixation,jsons/v1_VE250_randls_16_rotated.json,http://54.235.29.9/FacialAge/BNav_EC2/DepthDuration/v2_depth_duration_MTurk/v2_DepthDuration_HTML.html#404,404,1366,625,1366,768,8-29-2022,14-35-35,23,depth_duration_stimuli/002600_2014-06-24_14-27-04_094959634447_rgbf000074-resize_2/002600_2014-06-24_14-27-04_094959634447_rgbf000074-resize_2-target.png,250,2.7575,2,5357,252,feet,jsons/v1_VE250_randls_16_rotated.json,1480566,1917409,25,Woman
23,465507,DepthScenes,duration_manipulation_targetAtFixation,jsons/v1_VE250_randls_16_rotated.json,http://54.235.29.9/FacialAge/BNav_EC2/DepthDuration/v2_depth_duration_MTurk/v2_DepthDuration_HTML.html#404,404,1366,625,1366,768,8-29-2022,14-35-35,24,depth_duration_stimuli/001516_2014-06-20_16-25-09_260595134347_rgbf000076-resize_2/001516_2014-06-20_16-25-09_260595134347_rgbf000076-resize_2-target.png,250,1.7445,3,22196,249,feet,jsons/v1_VE250_randls_16_rotated.json,1480566,1917409,25,Woman
24,465507,DepthScenes,duration_manipulation_targetAtFixation,jsons/v1_VE250_randls_16_rotated.json,http://54.235.29.9/FacialAge/BNav_EC2/DepthDuration/v2_depth_duration_MTurk/v2_DepthDuration_HTML.html#404,404,1366,625,1366,768,8-29-2022,14-35-35,25,depth_duration_stimuli/002118_2014-06-25_20-32-08_260595134347_rgbf000078-resize_1/002118_2014-06-25_20-32-08_260595134347_rgbf000078-resize_1-target.png,250,2.6460000000000004,2,5837,259,feet,jsons/v1_VE250_randls_16_rotated.json,1480566,1917409,25,Woman
25,465507,DepthScenes,duration_manipulation_targetAtFixation,jsons/v1_VE250_randls_16_rotated.json,http://54.235.29.9/FacialAge/BNav_EC2/DepthDuration/v2_depth_duration_MTurk/v2_DepthDuration_HTML.html#404,404,1366,625,1366,768,8-29-2022,14-35-35,26,depth_duration_stimuli/002805_2014-06-22_19-54-03_094959634447_rgbf000079-resize_1/002805_2014-06-22_19-54-03_094959634447_rgbf000079-resize_1-target.png,250,3.1439999999999997,4,24223,252,feet,jsons/v1_VE250_randls_16_rotated.json,1480566,1917409,25,Woman
26,465507,DepthScenes,duration_manipulation_targetAtFixation,jsons/v1_VE250_randls_16_rotated.json,http://54.235.29.9/FacialAge/BNav_EC2/DepthDuration/v2_depth_duration_MTurk/v2_DepthDuration_HTML.html#404,404,1366,625,1366,768,8-29-2022,14-35-35,27,depth_duration_stimuli/000906_2014-06-08_13-35-43_260595134347_rgbf000155-resize_1/000906_2014-06-08_13-35-43_260595134347_rgbf000155-resize_1-target.png,250,2.8489999999999998,6,4936,248,feet,jsons/v1_VE250_randls_16_rotated.json,1480566,1917409,25,Woman
27,465507,DepthScenes,duration_manipulation_targetAtFixation,jsons/v1_VE250_randls_16_rotated.json,http://54.235.29.9/FacialAge/BNav_EC2/DepthDuration/v2_depth_duration_MTurk/v2_DepthDuration_HTML.html#404,404,1366,625,1366,768,8-29-2022,14-35-35,28,depth_duration_stimuli/002758_2014-06-22_19-11-20_094959634447_rgbf000128-resize_1/002758_2014-06-22_19-11-20_094959634447_rgbf000128-resize_1-target.png,250,2.555,3,4634,253,feet,jsons/v1_VE250_randls_16_rotated.json,1480566,1917409,25,Woman
28,465507,DepthScenes,duration_manipulation_targetAtFixation,jsons/v1_VE250_randls_16_rotated.json,http://54.235.29.9/FacialAge/BNav_EC2/DepthDuration/v2_depth_duration_MTurk/v2_DepthDuration_HTML.html#404,404,1366,625,1366,768,8-29-2022,14-35-35,29,depth_duration_stimuli/002630_2014-06-24_14-47-50_094959634447_rgbf000055-resize_1/002630_2014-06-24_14-47-50_094959634447_rgbf000055-resize_1-target.png,250,3.0095,5,4308,251,feet,jsons/v1_VE250_randls_16_rotated.json,1480566,1917409,25,Woman
29,465507,DepthScenes,duration_manipulation_targetAtFixation,jsons/v1_VE250_randls_16_rotated.json,http://54.235.29.9/FacialAge/BNav_EC2/DepthDuration/v2_depth_duration_MTurk/v2_DepthDuration_HTML.html#404,404,1366,625,1366,768,8-29-2022,14-35-35,30,depth_duration_stimuli/002072_2014-06-24_21-48-06_260595134347_rgbf000115-resize_0/002072_2014-06-24_21-48-06_260595134347_rgbf000115-resize-original.jpg,250,4.702,0,4998,244,feet,jsons/v1_VE250_randls_16_rotated.json,1480566,1917409,25,Woman
30,465507,DepthScenes,duration_manipulation_targetAtFixation,jsons/v1_VE250_randls_16_rotated.json,http://54.235.29.9/FacialAge/BNav_EC2/DepthDuration/v2_depth_duration_MTurk/v2_DepthDuration_HTML.html#404,404,1366,625,1366,768,8-29-2022,14-35-35,31,depth_duration_stimuli/003338_2014-05-20_11-01-23_094959634447_rgbf000051-resize_6/003338_2014-05-20_11-01-23_094959634447_rgbf000051-resize_6-target.png,250,1.693,3,4922,250,feet,jsons/v1_VE250_randls_16_rotated.json,1480566,1917409,25,Woman
31,465507,DepthScenes,duration_manipulation_targetAtFixation,jsons/v1_VE250_randls_16_rotated.json,http://54.235.29.9/FacialAge/BNav_EC2/DepthDuration/v2_depth_duration_MTurk/v2_DepthDuration_HTML.html#404,404,1366,625,1366,768,8-29-2022,14-35-35,32,depth_duration_stimuli/002509_2014-06-24_13-19-22_094959634447_rgbf000077-resize_0/002509_2014-06-24_13-19-22_094959634447_rgbf000077-resize_0-target.png,250,1.3065,4,5125,251,feet,jsons/v1_VE250_randls_16_rotated.json,1480566,1917409,25,Woman
32,465507,DepthScenes,duration_manipulation_targetAtFixation,jsons/v1_VE250_randls_16_rotated.json,http://54.235.29.9/FacialAge/BNav_EC2/DepthDuration/v2_depth_duration_MTurk/v2_DepthDuration_HTML.html#404,404,1366,625,1366,768,8-29-2022,14-35-35,33,depth_duration_stimuli/002199_2014-06-28_18-33-56_260595134347_rgbf000074-resize_0/002199_2014-06-28_18-33-56_260595134347_rgbf000074-resize_0-target.png,250,1.996,3,6004,243,feet,jsons/v1_VE250_randls_16_rotated.json,1480566,1917409,25,Woman
33,465507,DepthScenes,duration_manipulation_targetAtFixation,jsons/v1_VE250_randls_16_rotated.json,http://54.235.29.9/FacialAge/BNav_EC2/DepthDuration/v2_depth_duration_MTurk/v2_DepthDuration_HTML.html#404,404,1366,625,1366,768,8-29-2022,14-35-35,34,depth_duration_stimuli/001056_2014-06-08_18-46-44_260595134347_rgbf000068-resize_0/001056_2014-06-08_18-46-44_260595134347_rgbf000068-resize_0-target.png,250,2.6625,4,6106,245,feet,jsons/v1_VE250_randls_16_rotated.json,1480566,1917409,25,Woman
34,465507,DepthScenes,duration_manipulation_targetAtFixation,jsons/v1_VE250_randls_16_rotated.json,http://54.235.29.9/FacialAge/BNav_EC2/DepthDuration/v2_depth_duration_MTurk/v2_DepthDuration_HTML.html#404,404,1366,625,1366,768,8-29-2022,14-35-35,35,depth_duration_stimuli/001100_2014-06-15_17-46-26_260595134347_rgbf000225-resize_2/001100_2014-06-15_17-46-26_260595134347_rgbf000225-resize_2-target.png,250,2.24,2,7415,246,feet,jsons/v1_VE250_randls_16_rotated.json,1480566,1917409,25,Woman
35,465507,DepthScenes,duration_manipulation_targetAtFixation,jsons/v1_VE250_randls_16_rotated.json,http://54.235.29.9/FacialAge/BNav_EC2/DepthDuration/v2_depth_duration_MTurk/v2_DepthDuration_HTML.html#404,404,1366,625,1366,768,8-29-2022,14-35-35,36,depth_duration_stimuli/002784_2014-06-22_19-26-30_094959634447_rgbf000083-resize_3/002784_2014-06-22_19-26-30_094959634447_rgbf000083-resize_3-target.png,250,1.8046666666667,3,5210,245,feet,jsons/v1_VE250_randls_16_rotated.json,1480566,1917409,25,Woman
36,465507,DepthScenes,duration_manipulation_targetAtFixation,jsons/v1_VE250_randls_16_rotated.json,http://54.235.29.9/FacialAge/BNav_EC2/DepthDuration/v2_depth_duration_MTurk/v2_DepthDuration_HTML.html#404,404,1366,625,1366,768,8-29-2022,14-35-35,37,depth_duration_stimuli/002875_2014-06-01_15-19-00_094959634447_rgbf000151-resize_1/002875_2014-06-01_15-19-00_094959634447_rgbf000151-resize_1-target.png,250,1.9675,3,6705,248,feet,jsons/v1_VE250_randls_16_rotated.json,1480566,1917409,25,Woman
37,465507,DepthScenes,duration_manipulation_targetAtFixation,jsons/v1_VE250_randls_16_rotated.json,http://54.235.29.9/FacialAge/BNav_EC2/DepthDuration/v2_depth_duration_MTurk/v2_DepthDuration_HTML.html#404,404,1366,625,1366,768,8-29-2022,14-35-35,38,depth_duration_stimuli/001011_2014-06-08_23-18-54_260595134347_rgbf000044-resize_4/001011_2014-06-08_23-18-54_260595134347_rgbf000044-resize_4-target.png,250,2.4730000000000003,4,13020,245,feet,jsons/v1_VE250_randls_16_rotated.json,1480566,1917409,25,Woman
38,465507,DepthScenes,duration_manipulation_targetAtFixation,jsons/v1_VE250_randls_16_rotated.json,http://54.235.29.9/FacialAge/BNav_EC2/DepthDuration/v2_depth_duration_MTurk/v2_DepthDuration_HTML.html#404,404,1366,625,1366,768,8-29-2022,14-35-35,39,depth_duration_stimuli/000549_2014-06-08_22-10-24_260595134347_rgbf000247-resize_3/000549_2014-06-08_22-10-24_260595134347_rgbf000247-resize_3-target.png,250,1.841,5,8525,258,feet,jsons/v1_VE250_randls_16_rotated.json,1480566,1917409,25,Woman
39,465507,DepthScenes,duration_manipulation_targetAtFixation,jsons/v1_VE250_randls_16_rotated.json,http://54.235.29.9/FacialAge/BNav_EC2/DepthDuration/v2_depth_duration_MTurk/v2_DepthDuration_HTML.html#404,404,1366,625,1366,768,8-29-2022,14-35-35,40,depth_duration_stimuli/001055_2014-06-08_18-45-35_260595134347_rgbf000111-resize_4/001055_2014-06-08_18-45-35_260595134347_rgbf000111-resize_4-target.png,250,2.4290000000000003,6,6266,237,feet,jsons/v1_VE250_randls_16_rotated.json,1480566,1917409,25,Woman
40,465507,DepthScenes,duration_manipulation_targetAtFixation,jsons/v1_VE250_randls_16_rotated.json,http://54.235.29.9/FacialAge/BNav_EC2/DepthDuration/v2_depth_duration_MTurk/v2_DepthDuration_HTML.html#404,404,1366,625,1366,768,8-29-2022,14-35-35,41,depth_duration_stimuli/002136_2014-06-25_21-18-03_260595134347_rgbf000109-resize_3/002136_2014-06-25_21-18-03_260595134347_rgbf000109-resize_3-target.png,250,1.9569999999999999,4,6515,260,feet,jsons/v1_VE250_randls_16_rotated.json,1480566,1917409,25,Woman
41,465507,DepthScenes,duration_manipulation_targetAtFixation,jsons/v1_VE250_randls_16_rotated.json,http://54.235.29.9/FacialAge/BNav_EC2/DepthDuration/v2_depth_duration_MTurk/v2_DepthDuration_HTML.html#404,404,1366,625,1366,768,8-29-2022,14-35-35,42,depth_duration_stimuli/002964_2014-06-08_17-46-11_094959634447_rgbf000091-resize_4/002964_2014-06-08_17-46-11_094959634447_rgbf000091-resize_4-target.png,250,1.6909999999999998,4,9764,251,feet,jsons/v1_VE250_randls_16_rotated.json,1480566,1917409,25,Woman
42,465507,DepthScenes,duration_manipulation_targetAtFixation,jsons/v1_VE250_randls_16_rotated.json,http://54.235.29.9/FacialAge/BNav_EC2/DepthDuration/v2_depth_duration_MTurk/v2_DepthDuration_HTML.html#404,404,1366,625,1366,768,8-29-2022,14-35-35,43,depth_duration_stimuli/002545_2014-06-24_13-38-53_094959634447_rgbf000080-resize_4/002545_2014-06-24_13-38-53_094959634447_rgbf000080-resize_4-target.png,250,1.9205,4,13154,246,feet,jsons/v1_VE250_randls_16_rotated.json,1480566,1917409,25,Woman
43,465507,DepthScenes,duration_manipulation_targetAtFixation,jsons/v1_VE250_randls_16_rotated.json,http://54.235.29.9/FacialAge/BNav_EC2/DepthDuration/v2_depth_duration_MTurk/v2_DepthDuration_HTML.html#404,404,1366,625,1366,768,8-29-2022,14-35-35,44,depth_duration_stimuli/001092_2014-06-15_17-34-58_260595134347_rgbf000171-resize_3/001092_2014-06-15_17-34-58_260595134347_rgbf000171-resize_3-target.png,250,2.6935,5,8076,249,feet,jsons/v1_VE250_randls_16_rotated.json,1480566,1917409,25,Woman
44,465507,DepthScenes,duration_manipulation_targetAtFixation,jsons/v1_VE250_randls_16_rotated.json,http://54.235.29.9/FacialAge/BNav_EC2/DepthDuration/v2_depth_duration_MTurk/v2_DepthDuration_HTML.html#404,404,1366,625,1366,768,8-29-2022,14-35-35,45,depth_duration_stimuli/000742_2014-06-08_18-48-09_260595134347_rgbf000164-resize_4/000742_2014-06-08_18-48-09_260595134347_rgbf000164-resize_4-target.png,250,4.632,5,4926,256,feet,jsons/v1_VE250_randls_16_rotated.json,1480566,1917409,25,Woman
45,465507,DepthScenes,duration_manipulation_targetAtFixation,jsons/v1_VE250_randls_16_rotated.json,http://54.235.29.9/FacialAge/BNav_EC2/DepthDuration/v2_depth_duration_MTurk/v2_DepthDuration_HTML.html#404,404,1366,625,1366,768,8-29-2022,14-35-35,46,depth_duration_stimuli/001066_2014-06-08_22-03-20_260595134347_rgbf000066-resize_4/001066_2014-06-08_22-03-20_260595134347_rgbf000066-resize_4-target.png,250,4.2330000000000005,6,4474,249,feet,jsons/v1_VE250_randls_16_rotated.json,1480566,1917409,25,Woman
46,465507,DepthScenes,duration_manipulation_targetAtFixation,jsons/v1_VE250_randls_16_rotated.json,http://54.235.29.9/FacialAge/BNav_EC2/DepthDuration/v2_depth_duration_MTurk/v2_DepthDuration_HTML.html#404,404,1366,625,1366,768,8-29-2022,14-35-35,47,depth_duration_stimuli/002660_2014-06-13_15-44-18_094959634447_rgbf001878-resize_2/002660_2014-06-13_15-44-18_094959634447_rgbf001878-resize_2-target.png,250,3.576,5,5607,260,feet,jsons/v1_VE250_randls_16_rotated.json,1480566,1917409,25,Woman
47,465507,DepthScenes,duration_manipulation_targetAtFixation,jsons/v1_VE250_randls_16_rotated.json,http://54.235.29.9/FacialAge/BNav_EC2/DepthDuration/v2_depth_duration_MTurk/v2_DepthDuration_HTML.html#404,404,1366,625,1366,768,8-29-2022,14-35-35,48,depth_duration_stimuli/002153_2014-06-25_21-27-18_260595134347_rgbf000038-resize_5/002153_2014-06-25_21-27-18_260595134347_rgbf000038-resize_5-target.png,250,2.505,5,5418,249,feet,jsons/v1_VE250_randls_16_rotated.json,1480566,1917409,25,Woman
48,465507,DepthScenes,duration_manipulation_targetAtFixation,jsons/v1_VE250_randls_16_rotated.json,http://54.235.29.9/FacialAge/BNav_EC2/DepthDuration/v2_depth_duration_MTurk/v2_DepthDuration_HTML.html#404,404,1366,625,1366,768,8-29-2022,14-35-35,49,depth_duration_stimuli/001170_2014-06-17_15-43-44_260595134347_rgbf000096-resize_6/001170_2014-06-17_15-43-44_260595134347_rgbf000096-resize-original.jpg,250,1.1909999999999998,3,5175,252,feet,jsons/v1_VE250_randls_16_rotated.json,1480566,1917409,25,Woman
49,465507,DepthScenes,duration_manipulation_targetAtFixation,jsons/v1_VE250_randls_16_rotated.json,http://54.235.29.9/FacialAge/BNav_EC2/DepthDuration/v2_depth_duration_MTurk/v2_DepthDuration_HTML.html#404,404,1366,625,1366,768,8-29-2022,14-35-35,50,depth_duration_stimuli/002637_2014-06-24_14-51-13_094959634447_rgbf000066-resize_4/002637_2014-06-24_14-51-13_094959634447_rgbf000066-resize_4-target.png,250,1.9955,5,6138,249,feet,jsons/v1_VE250_randls_16_rotated.json,1480566,1917409,25,Woman
50,465507,DepthScenes,duration_manipulation_targetAtFixation,jsons/v1_VE250_randls_16_rotated.json,http://54.235.29.9/FacialAge/BNav_EC2/DepthDuration/v2_depth_duration_MTurk/v2_DepthDuration_HTML.html#404,404,1366,625,1366,768,8-29-2022,14-35-35,51,depth_duration_stimuli/003534_2014-05-22_15-06-10_094959634447_rgbf000102-resize_4/003534_2014-05-22_15-06-10_094959634447_rgbf000102-resize_4-target.png,250,1.426,3,5884,249,feet,jsons/v1_VE250_randls_16_rotated.json,1480566,1917409,25,Woman
51,465507,DepthScenes,duration_manipulation_targetAtFixation,jsons/v1_VE250_randls_16_rotated.json,http://54.235.29.9/FacialAge/BNav_EC2/DepthDuration/v2_depth_duration_MTurk/v2_DepthDuration_HTML.html#404,404,1366,625,1366,768,8-29-2022,14-35-35,52,depth_duration_stimuli/003048_2014-06-15_13-49-43_094959634447_rgbf000150-resize_1/003048_2014-06-15_13-49-43_094959634447_rgbf000150-resize_1-target.png,250,4.0035,7,6092,257,feet,jsons/v1_VE250_randls_16_rotated.json,1480566,1917409,25,Woman
52,465507,DepthScenes,duration_manipulation_targetAtFixation,jsons/v1_VE250_randls_16_rotated.json,http://54.235.29.9/FacialAge/BNav_EC2/DepthDuration/v2_depth_duration_MTurk/v2_DepthDuration_HTML.html#404,404,1366,625,1366,768,8-29-2022,14-35-35,53,depth_duration_stimuli/002043_2014-06-24_20-29-38_260595134347_rgbf000039-resize_4/002043_2014-06-24_20-29-38_260595134347_rgbf000039-resize_4-target.png,250,2.8435,4,4864,243,feet,jsons/v1_VE250_randls_16_rotated.json,1480566,1917409,25,Woman
53,465507,DepthScenes,duration_manipulation_targetAtFixation,jsons/v1_VE250_randls_16_rotated.json,http://54.235.29.9/FacialAge/BNav_EC2/DepthDuration/v2_depth_duration_MTurk/v2_DepthDuration_HTML.html#404,404,1366,625,1366,768,8-29-2022,14-35-35,54,depth_duration_stimuli/000734_2014-06-08_17-39-11_260595134347_rgbf000128-resize_2/000734_2014-06-08_17-39-11_260595134347_rgbf000128-resize_2-target.png,250,4.098,4,3438,249,feet,jsons/v1_VE250_randls_16_rotated.json,1480566,1917409,25,Woman
54,465507,DepthScenes,duration_manipulation_targetAtFixation,jsons/v1_VE250_randls_16_rotated.json,http://54.235.29.9/FacialAge/BNav_EC2/DepthDuration/v2_depth_duration_MTurk/v2_DepthDuration_HTML.html#404,404,1366,625,1366,768,8-29-2022,14-35-35,55,depth_duration_stimuli/000739_2014-06-08_18-45-58_260595134347_rgbf000068-resize_1/000739_2014-06-08_18-45-58_260595134347_rgbf000068-resize_1-target.png,250,3.534,6,4148,257,feet,jsons/v1_VE250_randls_16_rotated.json,1480566,1917409,25,Woman
55,465507,DepthScenes,duration_manipulation_targetAtFixation,jsons/v1_VE250_randls_16_rotated.json,http://54.235.29.9/FacialAge/BNav_EC2/DepthDuration/v2_depth_duration_MTurk/v2_DepthDuration_HTML.html#404,404,1366,625,1366,768,8-29-2022,14-35-35,56,depth_duration_stimuli/000635_2014-06-08_16-38-42_260595134347_rgbf000106-resize_1/000635_2014-06-08_16-38-42_260595134347_rgbf000106-resize_1-target.png,250,2.074,6,3552,249,feet,jsons/v1_VE250_randls_16_rotated.json,1480566,1917409,25,Woman
56,465507,DepthScenes,duration_manipulation_targetAtFixation,jsons/v1_VE250_randls_16_rotated.json,http://54.235.29.9/FacialAge/BNav_EC2/DepthDuration/v2_depth_duration_MTurk/v2_DepthDuration_HTML.html#404,404,1366,625,1366,768,8-29-2022,14-35-35,57,depth_duration_stimuli/002279_2014-06-28_18-55-32_260595134347_rgbf000040-resize_5/002279_2014-06-28_18-55-32_260595134347_rgbf000040-resize_5-target.png,250,1.5043333333333,3,3830,246,feet,jsons/v1_VE250_randls_16_rotated.json,1480566,1917409,25,Woman
57,465507,DepthScenes,duration_manipulation_targetAtFixation,jsons/v1_VE250_randls_16_rotated.json,http://54.235.29.9/FacialAge/BNav_EC2/DepthDuration/v2_depth_duration_MTurk/v2_DepthDuration_HTML.html#404,404,1366,625,1366,768,8-29-2022,14-35-35,58,depth_duration_stimuli/000866_2014-06-09_20-45-42_260595134347_rgbf000139-resize_1/000866_2014-06-09_20-45-42_260595134347_rgbf000139-resize_1-target.png,250,3.2155,5,5292,245,feet,jsons/v1_VE250_randls_16_rotated.json,1480566,1917409,25,Woman
58,465507,DepthScenes,duration_manipulation_targetAtFixation,jsons/v1_VE250_randls_16_rotated.json,http://54.235.29.9/FacialAge/BNav_EC2/DepthDuration/v2_depth_duration_MTurk/v2_DepthDuration_HTML.html#404,404,1366,625,1366,768,8-29-2022,14-35-35,59,depth_duration_stimuli/002989_2014-06-15_12-25-03_094959634447_rgbf000150-resize_3/002989_2014-06-15_12-25-03_094959634447_rgbf000150-resize_3-target.png,250,4.1975,6,4864,249,feet,jsons/v1_VE250_randls_16_rotated.json,1480566,1917409,25,Woman
59,465507,DepthScenes,duration_manipulation_targetAtFixation,jsons/v1_VE250_randls_16_rotated.json,http://54.235.29.9/FacialAge/BNav_EC2/DepthDuration/v2_depth_duration_MTurk/v2_DepthDuration_HTML.html#404,404,1366,625,1366,768,8-29-2022,14-35-35,60,depth_duration_stimuli/000457_2014-06-08_16-52-43_260595134347_rgbf000199-resize_1/000457_2014-06-08_16-52-43_260595134347_rgbf000199-resize_1-target.png,250,3.6489999999999996,6,3033,240,feet,jsons/v1_VE250_randls_16_rotated.json,1480566,1917409,25,Woman
60,465507,DepthScenes,duration_manipulation_targetAtFixation,jsons/v1_VE250_randls_16_rotated.json,http://54.235.29.9/FacialAge/BNav_EC2/DepthDuration/v2_depth_duration_MTurk/v2_DepthDuration_HTML.html#404,404,1366,625,1366,768,8-29-2022,14-35-35,61,depth_duration_stimuli/000929_2014-06-09_16-33-19_260595134347_rgbf000139-resize_0/000929_2014-06-09_16-33-19_260595134347_rgbf000139-resize_0-target.png,250,2.8680000000000003,4,3517,246,feet,jsons/v1_VE250_randls_16_rotated.json,1480566,1917409,25,Woman
61,465507,DepthScenes,duration_manipulation_targetAtFixation,jsons/v1_VE250_randls_16_rotated.json,http://54.235.29.9/FacialAge/BNav_EC2/DepthDuration/v2_depth_duration_MTurk/v2_DepthDuration_HTML.html#404,404,1366,625,1366,768,8-29-2022,14-35-35,62,depth_duration_stimuli/001617_2014-06-20_11-35-32_260595134347_rgbf000066-resize_1/001617_2014-06-20_11-35-32_260595134347_rgbf000066-resize_1-target.png,250,3.7910000000000004,5,4890,254,feet,jsons/v1_VE250_randls_16_rotated.json,1480566,1917409,25,Woman
62,465507,DepthScenes,duration_manipulation_targetAtFixation,jsons/v1_VE250_randls_16_rotated.json,http://54.235.29.9/FacialAge/BNav_EC2/DepthDuration/v2_depth_duration_MTurk/v2_DepthDuration_HTML.html#404,404,1366,625,1366,768,8-29-2022,14-35-35,63,depth_duration_stimuli/001806_2014-06-26_20-50-20_260595134347_rgbf000091-resize_1/001806_2014-06-26_20-50-20_260595134347_rgbf000091-resize_1-target.png,250,2.7305,4,3506,250,feet,jsons/v1_VE250_randls_16_rotated.json,1480566,1917409,25,Woman
63,465507,DepthScenes,duration_manipulation_targetAtFixation,jsons/v1_VE250_randls_16_rotated.json,http://54.235.29.9/FacialAge/BNav_EC2/DepthDuration/v2_depth_duration_MTurk/v2_DepthDuration_HTML.html#404,404,1366,625,1366,768,8-29-2022,14-35-35,64,depth_duration_stimuli/000109_2014-05-14_23-41-52_260595134347_rgbf000035-resize_9/000109_2014-05-14_23-41-52_260595134347_rgbf000035-resize_9-target.png,250,1.3545,3,3716,248,feet,jsons/v1_VE250_randls_16_rotated.json,1480566,1917409,25,Woman
64,465507,DepthScenes,duration_manipulation_targetAtFixation,jsons/v1_VE250_randls_16_rotated.json,http://54.235.29.9/FacialAge/BNav_EC2/DepthDuration/v2_depth_duration_MTurk/v2_DepthDuration_HTML.html#404,404,1366,625,1366,768,8-29-2022,14-35-35,65,depth_duration_stimuli/000470_2014-06-09_19-42-40_260595134347_rgbf000094-resize_1/000470_2014-06-09_19-42-40_260595134347_rgbf000094-resize_1-target.png,250,1.831,4,13477,250,feet,jsons/v1_VE250_randls_16_rotated.json,1480566,1917409,25,Woman
65,465507,DepthScenes,duration_manipulation_targetAtFixation,jsons/v1_VE250_randls_16_rotated.json,http://54.235.29.9/FacialAge/BNav_EC2/DepthDuration/v2_depth_duration_MTurk/v2_DepthDuration_HTML.html#404,404,1366,625,1366,768,8-29-2022,14-35-35,66,depth_duration_stimuli/001540_2014-06-20_17-01-05_260595134347_rgbf000086-resize_2/001540_2014-06-20_17-01-05_260595134347_rgbf000086-resize-original.jpg,250,1.459,0,11407,252,feet,jsons/v1_VE250_randls_16_rotated.json,1480566,1917409,25,Woman
66,465507,DepthScenes,duration_manipulation_targetAtFixation,jsons/v1_VE250_randls_16_rotated.json,http://54.235.29.9/FacialAge/BNav_EC2/DepthDuration/v2_depth_duration_MTurk/v2_DepthDuration_HTML.html#404,404,1366,625,1366,768,8-29-2022,14-35-35,67,depth_duration_stimuli/001052_2014-06-08_18-24-54_260595134347_rgbf000130-resize_1/001052_2014-06-08_18-24-54_260595134347_rgbf000130-resize_1-target.png,250,4.1045,8,5607,251,feet,jsons/v1_VE250_randls_16_rotated.json,1480566,1917409,25,Woman
67,465507,DepthScenes,duration_manipulation_targetAtFixation,jsons/v1_VE250_randls_16_rotated.json,http://54.235.29.9/FacialAge/BNav_EC2/DepthDuration/v2_depth_duration_MTurk/v2_DepthDuration_HTML.html#404,404,1366,625,1366,768,8-29-2022,14-35-35,68,depth_duration_stimuli/002988_2014-06-15_12-24-20_094959634447_rgbf000150-resize_1/002988_2014-06-15_12-24-20_094959634447_rgbf000150-resize_1-target.png,250,4.7669999999999995,8,4951,250,feet,jsons/v1_VE250_randls_16_rotated.json,1480566,1917409,25,Woman
68,465507,DepthScenes,duration_manipulation_targetAtFixation,jsons/v1_VE250_randls_16_rotated.json,http://54.235.29.9/FacialAge/BNav_EC2/DepthDuration/v2_depth_duration_MTurk/v2_DepthDuration_HTML.html#404,404,1366,625,1366,768,8-29-2022,14-35-35,69,depth_duration_stimuli/002103_2014-06-25_20-00-40_260595134347_rgbf000049-resize_0/002103_2014-06-25_20-00-40_260595134347_rgbf000049-resize_0-target.png,250,4.105,8,2889,245,feet,jsons/v1_VE250_randls_16_rotated.json,1480566,1917409,25,Woman
69,465507,DepthScenes,duration_manipulation_targetAtFixation,jsons/v1_VE250_randls_16_rotated.json,http://54.235.29.9/FacialAge/BNav_EC2/DepthDuration/v2_depth_duration_MTurk/v2_DepthDuration_HTML.html#404,404,1366,625,1366,768,8-29-2022,14-35-35,70,depth_duration_stimuli/002039_2014-06-24_20-22-38_260595134347_rgbf000084-resize_1/002039_2014-06-24_20-22-38_260595134347_rgbf000084-resize_1-target.png,250,4.408,5,7221,252,feet,jsons/v1_VE250_randls_16_rotated.json,1480566,1917409,25,Woman
70,465507,DepthScenes,duration_manipulation_targetAtFixation,jsons/v1_VE250_randls_16_rotated.json,http://54.235.29.9/FacialAge/BNav_EC2/DepthDuration/v2_depth_duration_MTurk/v2_DepthDuration_HTML.html#404,404,1366,625,1366,768,8-29-2022,14-35-35,71,depth_duration_stimuli/003495_2014-05-21_16-01-51_094959634447_rgbf000100-resize_3/003495_2014-05-21_16-01-51_094959634447_rgbf000100-resize_3-target.png,250,1.6255,4,4509,246,feet,jsons/v1_VE250_randls_16_rotated.json,1480566,1917409,25,Woman
71,465507,DepthScenes,duration_manipulation_targetAtFixation,jsons/v1_VE250_randls_16_rotated.json,http://54.235.29.9/FacialAge/BNav_EC2/DepthDuration/v2_depth_duration_MTurk/v2_DepthDuration_HTML.html#404,404,1366,625,1366,768,8-29-2022,14-35-35,72,depth_duration_stimuli/001244_2014-06-17_16-47-45_260595134347_rgbf000030-resize_4/001244_2014-06-17_16-47-45_260595134347_rgbf000030-resize_4-target.png,250,2.0425,5,3713,246,feet,jsons/v1_VE250_randls_16_rotated.json,1480566,1917409,25,Woman
72,465507,DepthScenes,duration_manipulation_targetAtFixation,jsons/v1_VE250_randls_16_rotated.json,http://54.235.29.9/FacialAge/BNav_EC2/DepthDuration/v2_depth_duration_MTurk/v2_DepthDuration_HTML.html#404,404,1366,625,1366,768,8-29-2022,14-35-35,73,depth_duration_stimuli/002678_2014-06-13_16-15-32_094959634447_rgbf000151-resize_6/002678_2014-06-13_16-15-32_094959634447_rgbf000151-resize_6-target.png,250,2.1830000000000003,6,15038,263,feet,jsons/v1_VE250_randls_16_rotated.json,1480566,1917409,25,Woman
73,465507,DepthScenes,duration_manipulation_targetAtFixation,jsons/v1_VE250_randls_16_rotated.json,http://54.235.29.9/FacialAge/BNav_EC2/DepthDuration/v2_depth_duration_MTurk/v2_DepthDuration_HTML.html#404,404,1366,625,1366,768,8-29-2022,14-35-35,74,depth_duration_stimuli/000368_2014-06-09_15-53-01_260595134347_rgbf000155-resize_2/000368_2014-06-09_15-53-01_260595134347_rgbf000155-resize_2-target.png,250,2.4859999999999998,4,5227,256,feet,jsons/v1_VE250_randls_16_rotated.json,1480566,1917409,25,Woman
74,465507,DepthScenes,duration_manipulation_targetAtFixation,jsons/v1_VE250_randls_16_rotated.json,http://54.235.29.9/FacialAge/BNav_EC2/DepthDuration/v2_depth_duration_MTurk/v2_DepthDuration_HTML.html#404,404,1366,625,1366,768,8-29-2022,14-35-35,75,depth_duration_stimuli/000502_2014-06-08_23-02-32_260595134347_rgbf000063-resize_4/000502_2014-06-08_23-02-32_260595134347_rgbf000063-resize_4-target.png,250,2.431,4,4076,250,feet,jsons/v1_VE250_randls_16_rotated.json,1480566,1917409,25,Woman
75,465507,DepthScenes,duration_manipulation_targetAtFixation,jsons/v1_VE250_randls_16_rotated.json,http://54.235.29.9/FacialAge/BNav_EC2/DepthDuration/v2_depth_duration_MTurk/v2_DepthDuration_HTML.html#404,404,1366,625,1366,768,8-29-2022,14-35-35,76,depth_duration_stimuli/001199_2014-06-17_16-03-48_260595134347_rgbf000077-resize_0/001199_2014-06-17_16-03-48_260595134347_rgbf000077-resize_0-target.png,250,3.4375,4,3308,253,feet,jsons/v1_VE250_randls_16_rotated.json,1480566,1917409,25,Woman
76,465507,DepthScenes,duration_manipulation_targetAtFixation,jsons/v1_VE250_randls_16_rotated.json,http://54.235.29.9/FacialAge/BNav_EC2/DepthDuration/v2_depth_duration_MTurk/v2_DepthDuration_HTML.html#404,404,1366,625,1366,768,8-29-2022,14-35-35,77,depth_duration_stimuli/001447_2014-06-19_17-00-32_260595134347_rgbf000082-resize_5/001447_2014-06-19_17-00-32_260595134347_rgbf000082-resize_5-target.png,250,4.13775,5,5185,254,feet,jsons/v1_VE250_randls_16_rotated.json,1480566,1917409,25,Woman
77,465507,DepthScenes,duration_manipulation_targetAtFixation,jsons/v1_VE250_randls_16_rotated.json,http://54.235.29.9/FacialAge/BNav_EC2/DepthDuration/v2_depth_duration_MTurk/v2_DepthDuration_HTML.html#404,404,1366,625,1366,768,8-29-2022,14-35-35,78,depth_duration_stimuli/000447_2014-06-08_16-15-46_260595134347_rgbf000130-resize_1/000447_2014-06-08_16-15-46_260595134347_rgbf000130-resize_1-target.png,250,4.479,4,30530,250,feet,jsons/v1_VE250_randls_16_rotated.json,1480566,1917409,25,Woman
78,465507,DepthScenes,duration_manipulation_targetAtFixation,jsons/v1_VE250_randls_16_rotated.json,http://54.235.29.9/FacialAge/BNav_EC2/DepthDuration/v2_depth_duration_MTurk/v2_DepthDuration_HTML.html#404,404,1366,625,1366,768,8-29-2022,14-35-35,79,depth_duration_stimuli/001392_2014-06-19_16-07-59_260595134347_rgbf000046-resize_1/001392_2014-06-19_16-07-59_260595134347_rgbf000046-resize_1-target.png,250,4.135,6,4827,244,feet,jsons/v1_VE250_randls_16_rotated.json,1480566,1917409,25,Woman
79,465507,DepthScenes,duration_manipulation_targetAtFixation,jsons/v1_VE250_randls_16_rotated.json,http://54.235.29.9/FacialAge/BNav_EC2/DepthDuration/v2_depth_duration_MTurk/v2_DepthDuration_HTML.html#404,404,1366,625,1366,768,8-29-2022,14-35-35,80,depth_duration_stimuli/001570_2014-06-20_17-21-09_260595134347_rgbf000135-resize_4/001570_2014-06-20_17-21-09_260595134347_rgbf000135-resize_4-target.png,250,4.467,6,5129,245,feet,jsons/v1_VE250_randls_16_rotated.json,1480566,1917409,25,Woman
80,465507,DepthScenes,duration_manipulation_targetAtFixation,jsons/v1_VE250_randls_16_rotated.json,http://54.235.29.9/FacialAge/BNav_EC2/DepthDuration/v2_depth_duration_MTurk/v2_DepthDuration_HTML.html#404,404,1366,625,1366,768,8-29-2022,14-35-35,81,depth_duration_stimuli/001650_2014-06-20_12-09-00_260595134347_rgbf000087-resize_3/001650_2014-06-20_12-09-00_260595134347_rgbf000087-resize_3-target.png,250,1.9505,4,3723,245,feet,jsons/v1_VE250_randls_16_rotated.json,1480566,1917409,25,Woman
81,465507,DepthScenes,duration_manipulation_targetAtFixation,jsons/v1_VE250_randls_16_rotated.json,http://54.235.29.9/FacialAge/BNav_EC2/DepthDuration/v2_depth_duration_MTurk/v2_DepthDuration_HTML.html#404,404,1366,625,1366,768,8-29-2022,14-35-35,82,depth_duration_stimuli/000682_2014-06-08_23-14-58_260595134347_rgbf000041-resize_5/000682_2014-06-08_23-14-58_260595134347_rgbf000041-resize_5-target.png,250,2.7239999999999998,4,5504,251,feet,jsons/v1_VE250_randls_16_rotated.json,1480566,1917409,25,Woman
82,465507,DepthScenes,duration_manipulation_targetAtFixation,jsons/v1_VE250_randls_16_rotated.json,http://54.235.29.9/FacialAge/BNav_EC2/DepthDuration/v2_depth_duration_MTurk/v2_DepthDuration_HTML.html#404,404,1366,625,1366,768,8-29-2022,14-35-35,83,depth_duration_stimuli/002568_2014-06-24_13-59-21_094959634447_rgbf000062-resize_4/002568_2014-06-24_13-59-21_094959634447_rgbf000062-resize_4-target.png,250,3.015,4,4707,258,feet,jsons/v1_VE250_randls_16_rotated.json,1480566,1917409,25,Woman
83,465507,DepthScenes,duration_manipulation_targetAtFixation,jsons/v1_VE250_randls_16_rotated.json,http://54.235.29.9/FacialAge/BNav_EC2/DepthDuration/v2_depth_duration_MTurk/v2_DepthDuration_HTML.html#404,404,1366,625,1366,768,8-29-2022,14-35-35,84,depth_duration_stimuli/003492_2014-05-21_15-50-55_094959634447_rgbf000828-resize_1/003492_2014-05-21_15-50-55_094959634447_rgbf000828-resize_1-target.png,250,4.06875,5,4466,252,feet,jsons/v1_VE250_randls_16_rotated.json,1480566,1917409,25,Woman
84,465507,DepthScenes,duration_manipulation_targetAtFixation,jsons/v1_VE250_randls_16_rotated.json,http://54.235.29.9/FacialAge/BNav_EC2/DepthDuration/v2_depth_duration_MTurk/v2_DepthDuration_HTML.html#404,404,1366,625,1366,768,8-29-2022,14-35-35,85,depth_duration_stimuli/002953_2014-06-08_17-32-18_094959634447_rgbf000059-resize_5/002953_2014-06-08_17-32-18_094959634447_rgbf000059-resize_5-target.png,250,1.551,5,6644,249,feet,jsons/v1_VE250_randls_16_rotated.json,1480566,1917409,25,Woman
85,465507,DepthScenes,duration_manipulation_targetAtFixation,jsons/v1_VE250_randls_16_rotated.json,http://54.235.29.9/FacialAge/BNav_EC2/DepthDuration/v2_depth_duration_MTurk/v2_DepthDuration_HTML.html#404,404,1366,625,1366,768,8-29-2022,14-35-35,86,depth_duration_stimuli/000878_2014-06-08_22-52-45_260595134347_rgbf000045-resize_2/000878_2014-06-08_22-52-45_260595134347_rgbf000045-resize_2-target.png,250,2.092,5,3620,250,feet,jsons/v1_VE250_randls_16_rotated.json,1480566,1917409,25,Woman
86,465507,DepthScenes,duration_manipulation_targetAtFixation,jsons/v1_VE250_randls_16_rotated.json,http://54.235.29.9/FacialAge/BNav_EC2/DepthDuration/v2_depth_duration_MTurk/v2_DepthDuration_HTML.html#404,404,1366,625,1366,768,8-29-2022,14-35-35,87,depth_duration_stimuli/000191_2014-05-12_17-07-38_260595134347_rgbf000199-resize_0/000191_2014-05-12_17-07-38_260595134347_rgbf000199-resize_0-target.png,250,3.7995,5,4162,245,feet,jsons/v1_VE250_randls_16_rotated.json,1480566,1917409,25,Woman
87,465507,DepthScenes,duration_manipulation_targetAtFixation,jsons/v1_VE250_randls_16_rotated.json,http://54.235.29.9/FacialAge/BNav_EC2/DepthDuration/v2_depth_duration_MTurk/v2_DepthDuration_HTML.html#404,404,1366,625,1366,768,8-29-2022,14-35-35,88,depth_duration_stimuli/000493_2014-06-09_21-01-18_260595134347_rgbf000196-resize_3/000493_2014-06-09_21-01-18_260595134347_rgbf000196-resize_3-target.png,250,3.44,5,3224,249,feet,jsons/v1_VE250_randls_16_rotated.json,1480566,1917409,25,Woman
88,465507,DepthScenes,duration_manipulation_targetAtFixation,jsons/v1_VE250_randls_16_rotated.json,http://54.235.29.9/FacialAge/BNav_EC2/DepthDuration/v2_depth_duration_MTurk/v2_DepthDuration_HTML.html#404,404,1366,625,1366,768,8-29-2022,14-35-35,89,depth_duration_stimuli/002949_2014-06-26_15-57-42_094959634447_rgbf000079-resize_1/002949_2014-06-26_15-57-42_094959634447_rgbf000079-resize_1-target.png,250,1.8915,5,5641,258,feet,jsons/v1_VE250_randls_16_rotated.json,1480566,1917409,25,Woman
89,465507,DepthScenes,duration_manipulation_targetAtFixation,jsons/v1_VE250_randls_16_rotated.json,http://54.235.29.9/FacialAge/BNav_EC2/DepthDuration/v2_depth_duration_MTurk/v2_DepthDuration_HTML.html#404,404,1366,625,1366,768,8-29-2022,14-35-35,90,depth_duration_stimuli/000522_2014-06-08_13-35-06_260595134347_rgbf000244-resize_1/000522_2014-06-08_13-35-06_260595134347_rgbf000244-resize_1-target.png,250,2.3715,4,5125,250,feet,jsons/v1_VE250_randls_16_rotated.json,1480566,1917409,25,Woman
90,465507,DepthScenes,duration_manipulation_targetAtFixation,jsons/v1_VE250_randls_16_rotated.json,http://54.235.29.9/FacialAge/BNav_EC2/DepthDuration/v2_depth_duration_MTurk/v2_DepthDuration_HTML.html#404,404,1366,625,1366,768,8-29-2022,14-35-35,91,depth_duration_stimuli/003587_2014-05-23_16-48-02_094959634447_rgbf002384-resize_2/003587_2014-05-23_16-48-02_094959634447_rgbf002384-resize_2-target.png,250,1.357,5,5851,251,feet,jsons/v1_VE250_randls_16_rotated.json,1480566,1917409,25,Woman
91,465507,DepthScenes,duration_manipulation_targetAtFixation,jsons/v1_VE250_randls_16_rotated.json,http://54.235.29.9/FacialAge/BNav_EC2/DepthDuration/v2_depth_duration_MTurk/v2_DepthDuration_HTML.html#404,404,1366,625,1366,768,8-29-2022,14-35-35,92,depth_duration_stimuli/001167_2014-06-17_15-38-07_260595134347_rgbf000108-resize_0/001167_2014-06-17_15-38-07_260595134347_rgbf000108-resize_0-target.png,250,1.8505,4,6225,250,feet,jsons/v1_VE250_randls_16_rotated.json,1480566,1917409,25,Woman
92,465507,DepthScenes,duration_manipulation_targetAtFixation,jsons/v1_VE250_randls_16_rotated.json,http://54.235.29.9/FacialAge/BNav_EC2/DepthDuration/v2_depth_duration_MTurk/v2_DepthDuration_HTML.html#404,404,1366,625,1366,768,8-29-2022,14-35-35,93,depth_duration_stimuli/000556_2014-06-09_22-42-56_260595134347_rgbf000214-resize_1/000556_2014-06-09_22-42-56_260595134347_rgbf000214-resize_1-target.png,250,4.8415,3,4586,251,feet,jsons/v1_VE250_randls_16_rotated.json,1480566,1917409,25,Woman
93,465507,DepthScenes,duration_manipulation_targetAtFixation,jsons/v1_VE250_randls_16_rotated.json,http://54.235.29.9/FacialAge/BNav_EC2/DepthDuration/v2_depth_duration_MTurk/v2_DepthDuration_HTML.html#404,404,1366,625,1366,768,8-29-2022,14-35-35,94,depth_duration_stimuli/001158_2014-06-17_15-32-16_260595134347_rgbf000138-resize_2/001158_2014-06-17_15-32-16_260595134347_rgbf000138-resize_2-target.png,250,4.5315,3,3895,251,feet,jsons/v1_VE250_randls_16_rotated.json,1480566,1917409,25,Woman
94,465507,DepthScenes,duration_manipulation_targetAtFixation,jsons/v1_VE250_randls_16_rotated.json,http://54.235.29.9/FacialAge/BNav_EC2/DepthDuration/v2_depth_duration_MTurk/v2_DepthDuration_HTML.html#404,404,1366,625,1366,768,8-29-2022,14-35-35,95,depth_duration_stimuli/003129_2014-05-12_10-48-10_094959634447_rgbf000100-resize_0/003129_2014-05-12_10-48-10_094959634447_rgbf000100-resize_0-target.png,250,4.9305,5,4176,251,feet,jsons/v1_VE250_randls_16_rotated.json,1480566,1917409,25,Woman
95,465507,DepthScenes,duration_manipulation_targetAtFixation,jsons/v1_VE250_randls_16_rotated.json,http://54.235.29.9/FacialAge/BNav_EC2/DepthDuration/v2_depth_duration_MTurk/v2_DepthDuration_HTML.html#404,404,1366,625,1366,768,8-29-2022,14-35-35,96,depth_duration_stimuli/000414_2014-06-04_19-49-13_260595134347_rgbf000044-resize_0/000414_2014-06-04_19-49-13_260595134347_rgbf000044-resize_0-target.png,250,4.329,5,5376,245,feet,jsons/v1_VE250_randls_16_rotated.json,1480566,1917409,25,Woman
96,465507,DepthScenes,duration_manipulation_targetAtFixation,jsons/v1_VE250_randls_16_rotated.json,http://54.235.29.9/FacialAge/BNav_EC2/DepthDuration/v2_depth_duration_MTurk/v2_DepthDuration_HTML.html#404,404,1366,625,1366,768,8-29-2022,14-35-35,97,depth_duration_stimuli/001136_2014-06-17_15-19-41_260595134347_rgbf000076-resize_3/001136_2014-06-17_15-19-41_260595134347_rgbf000076-resize_3-target.png,250,1.8655,6,3973,246,feet,jsons/v1_VE250_randls_16_rotated.json,1480566,1917409,25,Woman
97,465507,DepthScenes,duration_manipulation_targetAtFixation,jsons/v1_VE250_randls_16_rotated.json,http://54.235.29.9/FacialAge/BNav_EC2/DepthDuration/v2_depth_duration_MTurk/v2_DepthDuration_HTML.html#404,404,1366,625,1366,768,8-29-2022,14-35-35,98,depth_duration_stimuli/001164_2014-06-17_15-35-46_260595134347_rgbf000085-resize_3/001164_2014-06-17_15-35-46_260595134347_rgbf000085-resize_3-target.png,250,2.354,6,5444,248,feet,jsons/v1_VE250_randls_16_rotated.json,1480566,1917409,25,Woman
98,465507,DepthScenes,duration_manipulation_targetAtFixation,jsons/v1_VE250_randls_16_rotated.json,http://54.235.29.9/FacialAge/BNav_EC2/DepthDuration/v2_depth_duration_MTurk/v2_DepthDuration_HTML.html#404,404,1366,625,1366,768,8-29-2022,14-35-35,99,depth_duration_stimuli/001222_2014-06-17_16-24-06_260595134347_rgbf000073-resize_0/001222_2014-06-17_16-24-06_260595134347_rgbf000073-resize-original.jpg,250,1.4385,0,4864,254,feet,jsons/v1_VE250_randls_16_rotated.json,1480566,1917409,25,Woman
99,465507,DepthScenes,duration_manipulation_targetAtFixation,jsons/v1_VE250_randls_16_rotated.json,http://54.235.29.9/FacialAge/BNav_EC2/DepthDuration/v2_depth_duration_MTurk/v2_DepthDuration_HTML.html#404,404,1366,625,1366,768,8-29-2022,14-35-35,100,depth_duration_stimuli/000943_2014-06-09_19-31-07_260595134347_rgbf000128-resize_1/000943_2014-06-09_19-31-07_260595134347_rgbf000128-resize_1-target.png,250,1.9765,4,4730,247,feet,jsons/v1_VE250_randls_16_rotated.json,1480566,1917409,25,Woman
100,465507,DepthScenes,duration_manipulation_targetAtFixation,jsons/v1_VE250_randls_16_rotated.json,http://54.235.29.9/FacialAge/BNav_EC2/DepthDuration/v2_depth_duration_MTurk/v2_DepthDuration_HTML.html#404,404,1366,625,1366,768,8-29-2022,14-35-35,101,depth_duration_stimuli/003070_2014-06-15_14-58-27_094959634447_rgbf000150-resize_3/003070_2014-06-15_14-58-27_094959634447_rgbf000150-resize_3-target.png,250,2.9415,4,4494,251,feet,jsons/v1_VE250_randls_16_rotated.json,1480566,1917409,25,Woman
101,465507,DepthScenes,duration_manipulation_targetAtFixation,jsons/v1_VE250_randls_16_rotated.json,http://54.235.29.9/FacialAge/BNav_EC2/DepthDuration/v2_depth_duration_MTurk/v2_DepthDuration_HTML.html#404,404,1366,625,1366,768,8-29-2022,14-35-35,102,depth_duration_stimuli/002444_2014-06-28_20-32-08_260595134347_rgbf000027-resize_0/002444_2014-06-28_20-32-08_260595134347_rgbf000027-resize_0-target.png,250,4.388999999999999,5,5845,246,feet,jsons/v1_VE250_randls_16_rotated.json,1480566,1917409,25,Woman
102,465507,DepthScenes,duration_manipulation_targetAtFixation,jsons/v1_VE250_randls_16_rotated.json,http://54.235.29.9/FacialAge/BNav_EC2/DepthDuration/v2_depth_duration_MTurk/v2_DepthDuration_HTML.html#404,404,1366,625,1366,768,8-29-2022,14-35-35,103,depth_duration_stimuli/000436_2014-06-09_22-25-11_260595134347_rgbf000137-resize_1/000436_2014-06-09_22-25-11_260595134347_rgbf000137-resize_1-target.png,250,4.0705,4,4738,250,feet,jsons/v1_VE250_randls_16_rotated.json,1480566,1917409,25,Woman
103,465507,DepthScenes,duration_manipulation_targetAtFixation,jsons/v1_VE250_randls_16_rotated.json,http://54.235.29.9/FacialAge/BNav_EC2/DepthDuration/v2_depth_duration_MTurk/v2_DepthDuration_HTML.html#404,404,1366,625,1366,768,8-29-2022,14-35-35,104,depth_duration_stimuli/003490_2014-05-21_15-50-11_094959634447_rgbf000101-resize_3/003490_2014-05-21_15-50-11_094959634447_rgbf000101-resize_3-target.png,250,3.6445,5,5849,257,feet,jsons/v1_VE250_randls_16_rotated.json,1480566,1917409,25,Woman
104,465507,DepthScenes,duration_manipulation_targetAtFixation,jsons/v1_VE250_randls_16_rotated.json,http://54.235.29.9/FacialAge/BNav_EC2/DepthDuration/v2_depth_duration_MTurk/v2_DepthDuration_HTML.html#404,404,1366,625,1366,768,8-29-2022,14-35-35,105,depth_duration_stimuli/001175_2014-06-17_15-45-55_260595134347_rgbf000129-resize_4/001175_2014-06-17_15-45-55_260595134347_rgbf000129-resize_4-target.png,250,4.255,6,4302,254,feet,jsons/v1_VE250_randls_16_rotated.json,1480566,1917409,25,Woman
105,465507,DepthScenes,duration_manipulation_targetAtFixation,jsons/v1_VE250_randls_16_rotated.json,http://54.235.29.9/FacialAge/BNav_EC2/DepthDuration/v2_depth_duration_MTurk/v2_DepthDuration_HTML.html#404,404,1366,625,1366,768,8-29-2022,14-35-35,106,depth_duration_stimuli/002323_2014-06-28_20-01-54_260595134347_rgbf000051-resize_4/002323_2014-06-28_20-01-54_260595134347_rgbf000051-resize_4-target.png,250,3.7310000000000003,6,5075,244,feet,jsons/v1_VE250_randls_16_rotated.json,1480566,1917409,25,Woman
106,465507,DepthScenes,duration_manipulation_targetAtFixation,jsons/v1_VE250_randls_16_rotated.json,http://54.235.29.9/FacialAge/BNav_EC2/DepthDuration/v2_depth_duration_MTurk/v2_DepthDuration_HTML.html#404,404,1366,625,1366,768,8-29-2022,14-35-35,107,depth_duration_stimuli/000917_2014-06-09_22-45-29_260595134347_rgbf000149-resize_3/000917_2014-06-09_22-45-29_260595134347_rgbf000149-resize_3-target.png,250,4.1865,6,6100,249,feet,jsons/v1_VE250_randls_16_rotated.json,1480566,1917409,25,Woman
107,465507,DepthScenes,duration_manipulation_targetAtFixation,jsons/v1_VE250_randls_16_rotated.json,http://54.235.29.9/FacialAge/BNav_EC2/DepthDuration/v2_depth_duration_MTurk/v2_DepthDuration_HTML.html#404,404,1366,625,1366,768,8-29-2022,14-35-35,108,depth_duration_stimuli/000709_2014-06-08_13-51-55_260595134347_rgbf000068-resize_3/000709_2014-06-08_13-51-55_260595134347_rgbf000068-resize_3-target.png,250,1.8030000000000002,5,143339,251,feet,jsons/v1_VE250_randls_16_rotated.json,1480566,1917409,25,Woman
108,465507,DepthScenes,duration_manipulation_targetAtFixation,jsons/v1_VE250_randls_16_rotated.json,http://54.235.29.9/FacialAge/BNav_EC2/DepthDuration/v2_depth_duration_MTurk/v2_DepthDuration_HTML.html#404,404,1366,625,1366,768,8-29-2022,14-35-35,109,depth_duration_stimuli/002057_2014-06-24_21-00-13_260595134347_rgbf000120-resize_1/002057_2014-06-24_21-00-13_260595134347_rgbf000120-resize_1-target.png,250,2.967,6,9946,247,feet,jsons/v1_VE250_randls_16_rotated.json,1480566,1917409,25,Woman
109,465507,DepthScenes,duration_manipulation_targetAtFixation,jsons/v1_VE250_randls_16_rotated.json,http://54.235.29.9/FacialAge/BNav_EC2/DepthDuration/v2_depth_duration_MTurk/v2_DepthDuration_HTML.html#404,404,1366,625,1366,768,8-29-2022,14-35-35,110,depth_duration_stimuli/001815_2014-06-26_20-52-55_260595134347_rgbf000020-resize_0/001815_2014-06-26_20-52-55_260595134347_rgbf000020-resize_0-target.png,250,3.3865,6,2613,248,feet,jsons/v1_VE250_randls_16_rotated.json,1480566,1917409,25,Woman
110,465507,DepthScenes,duration_manipulation_targetAtFixation,jsons/v1_VE250_randls_16_rotated.json,http://54.235.29.9/FacialAge/BNav_EC2/DepthDuration/v2_depth_duration_MTurk/v2_DepthDuration_HTML.html#404,404,1366,625,1366,768,8-29-2022,14-35-35,111,depth_duration_stimuli/001808_2014-06-26_20-50-58_260595134347_rgbf000029-resize_1/001808_2014-06-26_20-50-58_260595134347_rgbf000029-resize_1-target.png,250,4.249,5,3021,241,feet,jsons/v1_VE250_randls_16_rotated.json,1480566,1917409,25,Woman
111,465507,DepthScenes,duration_manipulation_targetAtFixation,jsons/v1_VE250_randls_16_rotated.json,http://54.235.29.9/FacialAge/BNav_EC2/DepthDuration/v2_depth_duration_MTurk/v2_DepthDuration_HTML.html#404,404,1366,625,1366,768,8-29-2022,14-35-35,112,depth_duration_stimuli/002209_2014-06-28_18-36-10_260595134347_rgbf000051-resize_1/002209_2014-06-28_18-36-10_260595134347_rgbf000051-resize_1-target.png,250,2.057,4,2932,242,feet,jsons/v1_VE250_randls_16_rotated.json,1480566,1917409,25,Woman
112,465507,DepthScenes,duration_manipulation_targetAtFixation,jsons/v1_VE250_randls_16_rotated.json,http://54.235.29.9/FacialAge/BNav_EC2/DepthDuration/v2_depth_duration_MTurk/v2_DepthDuration_HTML.html#404,404,1366,625,1366,768,8-29-2022,14-35-35,113,depth_duration_stimuli/002763_2014-06-22_19-13-10_094959634447_rgbf000075-resize_4/002763_2014-06-22_19-13-10_094959634447_rgbf000075-resize_4-target.png,250,1.68375,5,2963,249,feet,jsons/v1_VE250_randls_16_rotated.json,1480566,1917409,25,Woman
113,465507,DepthScenes,duration_manipulation_targetAtFixation,jsons/v1_VE250_randls_16_rotated.json,http://54.235.29.9/FacialAge/BNav_EC2/DepthDuration/v2_depth_duration_MTurk/v2_DepthDuration_HTML.html#404,404,1366,625,1366,768,8-29-2022,14-35-35,114,depth_duration_stimuli/002639_2014-06-24_14-51-37_094959634447_rgbf000074-resize_4/002639_2014-06-24_14-51-37_094959634447_rgbf000074-resize_4-target.png,250,4.0375,6,2629,260,feet,jsons/v1_VE250_randls_16_rotated.json,1480566,1917409,25,Woman
114,465507,DepthScenes,duration_manipulation_targetAtFixation,jsons/v1_VE250_randls_16_rotated.json,http://54.235.29.9/FacialAge/BNav_EC2/DepthDuration/v2_depth_duration_MTurk/v2_DepthDuration_HTML.html#404,404,1366,625,1366,768,8-29-2022,14-35-35,115,depth_duration_stimuli/003292_2014-05-14_21-53-49_094959634447_rgbf000100-resize_2/003292_2014-05-14_21-53-49_094959634447_rgbf000100-resize_2-target.png,250,3.4815,6,2636,250,feet,jsons/v1_VE250_randls_16_rotated.json,1480566,1917409,25,Woman
115,465507,DepthScenes,duration_manipulation_targetAtFixation,jsons/v1_VE250_randls_16_rotated.json,http://54.235.29.9/FacialAge/BNav_EC2/DepthDuration/v2_depth_duration_MTurk/v2_DepthDuration_HTML.html#404,404,1366,625,1366,768,8-29-2022,14-35-35,116,depth_duration_stimuli/001214_2014-06-17_16-13-55_260595134347_rgbf000111-resize_0/001214_2014-06-17_16-13-55_260595134347_rgbf000111-resize_0-target.png,250,2.6505,5,4098,242,feet,jsons/v1_VE250_randls_16_rotated.json,1480566,1917409,25,Woman
116,465507,DepthScenes,duration_manipulation_targetAtFixation,jsons/v1_VE250_randls_16_rotated.json,http://54.235.29.9/FacialAge/BNav_EC2/DepthDuration/v2_depth_duration_MTurk/v2_DepthDuration_HTML.html#404,404,1366,625,1366,768,8-29-2022,14-35-35,117,depth_duration_stimuli/000810_2014-06-08_17-20-01_260595134347_rgbf000105-resize_0/000810_2014-06-08_17-20-01_260595134347_rgbf000105-resize_0-target.png,250,1.4865,5,5457,246,feet,jsons/v1_VE250_randls_16_rotated.json,1480566,1917409,25,Woman
117,465507,DepthScenes,duration_manipulation_targetAtFixation,jsons/v1_VE250_randls_16_rotated.json,http://54.235.29.9/FacialAge/BNav_EC2/DepthDuration/v2_depth_duration_MTurk/v2_DepthDuration_HTML.html#404,404,1366,625,1366,768,8-29-2022,14-35-35,118,depth_duration_stimuli/000677_2014-06-08_23-10-32_260595134347_rgbf000158-resize_6/000677_2014-06-08_23-10-32_260595134347_rgbf000158-resize_6-target.png,250,3.556,6,3494,252,feet,jsons/v1_VE250_randls_16_rotated.json,1480566,1917409,25,Woman
118,465507,DepthScenes,duration_manipulation_targetAtFixation,jsons/v1_VE250_randls_16_rotated.json,http://54.235.29.9/FacialAge/BNav_EC2/DepthDuration/v2_depth_duration_MTurk/v2_DepthDuration_HTML.html#404,404,1366,625,1366,768,8-29-2022,14-35-35,119,depth_duration_stimuli/001029_2014-06-08_13-17-57_260595134347_rgbf000065-resize_1/001029_2014-06-08_13-17-57_260595134347_rgbf000065-resize_1-target.png,250,3.0835,6,3231,254,feet,jsons/v1_VE250_randls_16_rotated.json,1480566,1917409,25,Woman
119,465507,DepthScenes,duration_manipulation_targetAtFixation,jsons/v1_VE250_randls_16_rotated.json,http://54.235.29.9/FacialAge/BNav_EC2/DepthDuration/v2_depth_duration_MTurk/v2_DepthDuration_HTML.html#404,404,1366,625,1366,768,8-29-2022,14-35-35,120,depth_duration_stimuli/000787_2014-06-08_22-33-53_260595134347_rgbf000175-resize_1/000787_2014-06-08_22-33-53_260595134347_rgbf000175-resize-original.jpg,250,4.784,6,3905,250,feet,jsons/v1_VE250_randls_16_rotated.json,1480566,1917409,25,Woman
120,465507,DepthScenes,duration_manipulation_targetAtFixation,jsons/v1_VE250_randls_16_rotated.json,http://54.235.29.9/FacialAge/BNav_EC2/DepthDuration/v2_depth_duration_MTurk/v2_DepthDuration_HTML.html#404,404,1366,625,1366,768,8-29-2022,14-35-35,121,depth_duration_stimuli/002657_2014-06-13_15-29-54_094959634447_rgbf000150-resize_1/002657_2014-06-13_15-29-54_094959634447_rgbf000150-resize_1-target.png,250,4.919,5,4156,250,feet,jsons/v1_VE250_randls_16_rotated.json,1480566,1917409,25,Woman
121,465507,DepthScenes,duration_manipulation_targetAtFixation,jsons/v1_VE250_randls_16_rotated.json,http://54.235.29.9/FacialAge/BNav_EC2/DepthDuration/v2_depth_duration_MTurk/v2_DepthDuration_HTML.html#404,404,1366,625,1366,768,8-29-2022,14-35-35,122,depth_duration_stimuli/002375_2014-06-28_20-13-44_260595134347_rgbf000032-resize_1/002375_2014-06-28_20-13-44_260595134347_rgbf000032-resize_1-target.png,250,4.0175,5,3511,242,feet,jsons/v1_VE250_randls_16_rotated.json,1480566,1917409,25,Woman
122,465507,DepthScenes,duration_manipulation_targetAtFixation,jsons/v1_VE250_randls_16_rotated.json,http://54.235.29.9/FacialAge/BNav_EC2/DepthDuration/v2_depth_duration_MTurk/v2_DepthDuration_HTML.html#404,404,1366,625,1366,768,8-29-2022,14-35-35,123,depth_duration_stimuli/000749_2014-06-08_21-55-06_260595134347_rgbf000070-resize_2/000749_2014-06-08_21-55-06_260595134347_rgbf000070-resize_2-target.png,250,2.331,5,3927,249,feet,jsons/v1_VE250_randls_16_rotated.json,1480566,1917409,25,Woman
123,465507,DepthScenes,duration_manipulation_targetAtFixation,jsons/v1_VE250_randls_16_rotated.json,http://54.235.29.9/FacialAge/BNav_EC2/DepthDuration/v2_depth_duration_MTurk/v2_DepthDuration_HTML.html#404,404,1366,625,1366,768,8-29-2022,14-35-35,124,depth_duration_stimuli/002788_2014-06-22_19-36-03_094959634447_rgbf000088-resize_2/002788_2014-06-22_19-36-03_094959634447_rgbf000088-resize_2-target.png,250,1.6465,4,3524,250,feet,jsons/v1_VE250_randls_16_rotated.json,1480566,1917409,25,Woman
124,465507,DepthScenes,duration_manipulation_targetAtFixation,jsons/v1_VE250_randls_16_rotated.json,http://54.235.29.9/FacialAge/BNav_EC2/DepthDuration/v2_depth_duration_MTurk/v2_DepthDuration_HTML.html#404,404,1366,625,1366,768,8-29-2022,14-35-35,125,depth_duration_stimuli/001032_2014-06-08_13-23-17_260595134347_rgbf000021-resize_3/001032_2014-06-08_13-23-17_260595134347_rgbf000021-resize_3-target.png,250,3.2725,5,6702,247,feet,jsons/v1_VE250_randls_16_rotated.json,1480566,1917409,25,Woman
125,465507,DepthScenes,duration_manipulation_targetAtFixation,jsons/v1_VE250_randls_16_rotated.json,http://54.235.29.9/FacialAge/BNav_EC2/DepthDuration/v2_depth_duration_MTurk/v2_DepthDuration_HTML.html#404,404,1366,625,1366,768,8-29-2022,14-35-35,126,depth_duration_stimuli/001059_2014-06-08_21-53-27_260595134347_rgbf000061-resize_4/001059_2014-06-08_21-53-27_260595134347_rgbf000061-resize_4-target.png,250,2.4185,5,4693,250,feet,jsons/v1_VE250_randls_16_rotated.json,1480566,1917409,25,Woman
126,465507,DepthScenes,duration_manipulation_targetAtFixation,jsons/v1_VE250_randls_16_rotated.json,http://54.235.29.9/FacialAge/BNav_EC2/DepthDuration/v2_depth_duration_MTurk/v2_DepthDuration_HTML.html#404,404,1366,625,1366,768,8-29-2022,14-35-35,127,depth_duration_stimuli/001450_2014-06-19_17-02-03_260595134347_rgbf000203-resize_4/001450_2014-06-19_17-02-03_260595134347_rgbf000203-resize_4-target.png,250,4.0106666666667,5,6331,250,feet,jsons/v1_VE250_randls_16_rotated.json,1480566,1917409,25,Woman
127,465507,DepthScenes,duration_manipulation_targetAtFixation,jsons/v1_VE250_randls_16_rotated.json,http://54.235.29.9/FacialAge/BNav_EC2/DepthDuration/v2_depth_duration_MTurk/v2_DepthDuration_HTML.html#404,404,1366,625,1366,768,8-29-2022,14-35-35,128,depth_duration_stimuli/001449_2014-06-19_17-01-27_260595134347_rgbf000116-resize_2/001449_2014-06-19_17-01-27_260595134347_rgbf000116-resize_2-target.png,250,3.452,5,6476,246,feet,jsons/v1_VE250_randls_16_rotated.json,1480566,1917409,25,Woman
128,465507,DepthScenes,duration_manipulation_targetAtFixation,jsons/v1_VE250_randls_16_rotated.json,http://54.235.29.9/FacialAge/BNav_EC2/DepthDuration/v2_depth_duration_MTurk/v2_DepthDuration_HTML.html#404,404,1366,625,1366,768,8-29-2022,14-35-35,129,depth_duration_stimuli/001571_2014-06-20_17-21-32_260595134347_rgbf000089-resize_1/001571_2014-06-20_17-21-32_260595134347_rgbf000089-resize_1-target.png,250,1.86,3,6338,249,feet,jsons/v1_VE250_randls_16_rotated.json,1480566,1917409,25,Woman
129,465507,DepthScenes,duration_manipulation_targetAtFixation,jsons/v1_VE250_randls_16_rotated.json,http://54.235.29.9/FacialAge/BNav_EC2/DepthDuration/v2_depth_duration_MTurk/v2_DepthDuration_HTML.html#404,404,1366,625,1366,768,8-29-2022,14-35-35,130,depth_duration_stimuli/002272_2014-06-28_18-53-56_260595134347_rgbf000067-resize_2/002272_2014-06-28_18-53-56_260595134347_rgbf000067-resize_2-target.png,250,1.138,3,7039,249,feet,jsons/v1_VE250_randls_16_rotated.json,1480566,1917409,25,Woman
130,465507,DepthScenes,duration_manipulation_targetAtFixation,jsons/v1_VE250_randls_16_rotated.json,http://54.235.29.9/FacialAge/BNav_EC2/DepthDuration/v2_depth_duration_MTurk/v2_DepthDuration_HTML.html#404,404,1366,625,1366,768,8-29-2022,14-35-35,131,depth_duration_stimuli/001132_2014-06-17_14-48-54_260595134347_rgbf000100-resize_2/001132_2014-06-17_14-48-54_260595134347_rgbf000100-resize_2-target.png,250,3.753,5,57876,250,feet,jsons/v1_VE250_randls_16_rotated.json,1480566,1917409,25,Woman
131,465507,DepthScenes,duration_manipulation_targetAtFixation,jsons/v1_VE250_randls_16_rotated.json,http://54.235.29.9/FacialAge/BNav_EC2/DepthDuration/v2_depth_duration_MTurk/v2_DepthDuration_HTML.html#404,404,1366,625,1366,768,8-29-2022,14-35-35,132,depth_duration_stimuli/001133_2014-06-17_14-49-16_260595134347_rgbf000100-resize_0/001133_2014-06-17_14-49-16_260595134347_rgbf000100-resize_0-target.png,250,4.2115,3,10695,234,feet,jsons/v1_VE250_randls_16_rotated.json,1480566,1917409,25,Woman
132,465507,DepthScenes,duration_manipulation_targetAtFixation,jsons/v1_VE250_randls_16_rotated.json,http://54.235.29.9/FacialAge/BNav_EC2/DepthDuration/v2_depth_duration_MTurk/v2_DepthDuration_HTML.html#404,404,1366,625,1366,768,8-29-2022,14-35-35,133,depth_duration_stimuli/002467_2014-06-28_20-38-07_260595134347_rgbf000026-resize_2/002467_2014-06-28_20-38-07_260595134347_rgbf000026-resize_2-target.png,250,4.742,4,5889,255,feet,jsons/v1_VE250_randls_16_rotated.json,1480566,1917409,25,Woman
133,465507,DepthScenes,duration_manipulation_targetAtFixation,jsons/v1_VE250_randls_16_rotated.json,http://54.235.29.9/FacialAge/BNav_EC2/DepthDuration/v2_depth_duration_MTurk/v2_DepthDuration_HTML.html#404,404,1366,625,1366,768,8-29-2022,14-35-35,134,depth_duration_stimuli/002570_2014-06-24_13-59-54_094959634447_rgbf000059-resize_0/002570_2014-06-24_13-59-54_094959634447_rgbf000059-resize_0-target.png,250,4.037,4,11473,244,feet,jsons/v1_VE250_randls_16_rotated.json,1480566,1917409,25,Woman
134,465507,DepthScenes,duration_manipulation_targetAtFixation,jsons/v1_VE250_randls_16_rotated.json,http://54.235.29.9/FacialAge/BNav_EC2/DepthDuration/v2_depth_duration_MTurk/v2_DepthDuration_HTML.html#404,404,1366,625,1366,768,8-29-2022,14-35-35,135,depth_duration_stimuli/000375_2014-06-08_11-17-29_260595134347_rgbf000133-resize_2/000375_2014-06-08_11-17-29_260595134347_rgbf000133-resize-original.jpg,250,4.718,4,8740,255,feet,jsons/v1_VE250_randls_16_rotated.json,1480566,1917409,25,Woman
135,465507,DepthScenes,duration_manipulation_targetAtFixation,jsons/v1_VE250_randls_16_rotated.json,http://54.235.29.9/FacialAge/BNav_EC2/DepthDuration/v2_depth_duration_MTurk/v2_DepthDuration_HTML.html#404,404,1366,625,1366,768,8-29-2022,14-35-35,136,depth_duration_stimuli/000137_2014-05-20_17-04-49_260595134347_rgbf000120-resize_1/000137_2014-05-20_17-04-49_260595134347_rgbf000120-resize_1-target.png,250,3.786,5,9649,248,feet,jsons/v1_VE250_randls_16_rotated.json,1480566,1917409,25,Woman
136,465507,DepthScenes,duration_manipulation_targetAtFixation,jsons/v1_VE250_randls_16_rotated.json,http://54.235.29.9/FacialAge/BNav_EC2/DepthDuration/v2_depth_duration_MTurk/v2_DepthDuration_HTML.html#404,404,1366,625,1366,768,8-29-2022,14-35-35,137,depth_duration_stimuli/000736_2014-06-08_18-24-15_260595134347_rgbf000206-resize_3/000736_2014-06-08_18-24-15_260595134347_rgbf000206-resize_3-target.png,250,3.515,5,4402,244,feet,jsons/v1_VE250_randls_16_rotated.json,1480566,1917409,25,Woman
137,465507,DepthScenes,duration_manipulation_targetAtFixation,jsons/v1_VE250_randls_16_rotated.json,http://54.235.29.9/FacialAge/BNav_EC2/DepthDuration/v2_depth_duration_MTurk/v2_DepthDuration_HTML.html#404,404,1366,625,1366,768,8-29-2022,14-35-35,138,depth_duration_stimuli/002340_2014-06-28_20-05-46_260595134347_rgbf000113-resize_0/002340_2014-06-28_20-05-46_260595134347_rgbf000113-resize_0-target.png,250,2.4735,6,6173,261,feet,jsons/v1_VE250_randls_16_rotated.json,1480566,1917409,25,Woman
138,465507,DepthScenes,duration_manipulation_targetAtFixation,jsons/v1_VE250_randls_16_rotated.json,http://54.235.29.9/FacialAge/BNav_EC2/DepthDuration/v2_depth_duration_MTurk/v2_DepthDuration_HTML.html#404,404,1366,625,1366,768,8-29-2022,14-35-35,139,depth_duration_stimuli/001016_2014-06-09_16-16-10_260595134347_rgbf000112-resize_5/001016_2014-06-09_16-16-10_260595134347_rgbf000112-resize_5-target.png,250,1.6565,6,5387,255,feet,jsons/v1_VE250_randls_16_rotated.json,1480566,1917409,25,Woman
139,465507,DepthScenes,duration_manipulation_targetAtFixation,jsons/v1_VE250_randls_16_rotated.json,http://54.235.29.9/FacialAge/BNav_EC2/DepthDuration/v2_depth_duration_MTurk/v2_DepthDuration_HTML.html#404,404,1366,625,1366,768,8-29-2022,14-35-35,140,depth_duration_stimuli/000103_2014-05-14_22-01-17_260595134347_rgbf000152-resize_5/000103_2014-05-14_22-01-17_260595134347_rgbf000152-resize_5-target.png,250,1.993,5,18317,241,feet,jsons/v1_VE250_randls_16_rotated.json,1480566,1917409,25,Woman
140,465507,DepthScenes,duration_manipulation_targetAtFixation,jsons/v1_VE250_randls_16_rotated.json,http://54.235.29.9/FacialAge/BNav_EC2/DepthDuration/v2_depth_duration_MTurk/v2_DepthDuration_HTML.html#404,404,1366,625,1366,768,8-29-2022,14-35-35,141,depth_duration_stimuli/001555_2014-06-20_17-12-10_260595134347_rgbf000065-resize_4/001555_2014-06-20_17-12-10_260595134347_rgbf000065-resize_4-target.png,250,1.633,4,4286,251,feet,jsons/v1_VE250_randls_16_rotated.json,1480566,1917409,25,Woman
141,465507,DepthScenes,duration_manipulation_targetAtFixation,jsons/v1_VE250_randls_16_rotated.json,http://54.235.29.9/FacialAge/BNav_EC2/DepthDuration/v2_depth_duration_MTurk/v2_DepthDuration_HTML.html#404,404,1366,625,1366,768,8-29-2022,14-35-35,142,depth_duration_stimuli/000665_2014-06-09_20-42-35_260595134347_rgbf000110-resize_1/000665_2014-06-09_20-42-35_260595134347_rgbf000110-resize_1-target.png,250,3.057,4,4852,244,feet,jsons/v1_VE250_randls_16_rotated.json,1480566,1917409,25,Woman
142,465507,DepthScenes,duration_manipulation_targetAtFixation,jsons/v1_VE250_randls_16_rotated.json,http://54.235.29.9/FacialAge/BNav_EC2/DepthDuration/v2_depth_duration_MTurk/v2_DepthDuration_HTML.html#404,404,1366,625,1366,768,8-29-2022,14-35-35,143,depth_duration_stimuli/001150_2014-06-17_15-27-34_260595134347_rgbf000108-resize_2/001150_2014-06-17_15-27-34_260595134347_rgbf000108-resize_2-target.png,250,4.0325,5,6292,248,feet,jsons/v1_VE250_randls_16_rotated.json,1480566,1917409,25,Woman
143,465507,DepthScenes,duration_manipulation_targetAtFixation,jsons/v1_VE250_randls_16_rotated.json,http://54.235.29.9/FacialAge/BNav_EC2/DepthDuration/v2_depth_duration_MTurk/v2_DepthDuration_HTML.html#404,404,1366,625,1366,768,8-29-2022,14-35-35,144,depth_duration_stimuli/000483_2014-06-09_20-41-45_260595134347_rgbf000116-resize_4/000483_2014-06-09_20-41-45_260595134347_rgbf000116-resize_4-target.png,250,1.337,3,8159,252,feet,jsons/v1_VE250_randls_16_rotated.json,1480566,1917409,25,Woman
144,465507,DepthScenes,duration_manipulation_targetAtFixation,jsons/v1_VE250_randls_16_rotated.json,http://54.235.29.9/FacialAge/BNav_EC2/DepthDuration/v2_depth_duration_MTurk/v2_DepthDuration_HTML.html#404,404,1366,625,1366,768,8-29-2022,14-35-35,145,depth_duration_stimuli/000469_2014-06-09_19-42-10_260595134347_rgbf000081-resize_1/000469_2014-06-09_19-42-10_260595134347_rgbf000081-resize_1-target.png,250,1.652,3,5358,250,feet,jsons/v1_VE250_randls_16_rotated.json,1480566,1917409,25,Woman
145,465507,DepthScenes,duration_manipulation_targetAtFixation,jsons/v1_VE250_randls_16_rotated.json,http://54.235.29.9/FacialAge/BNav_EC2/DepthDuration/v2_depth_duration_MTurk/v2_DepthDuration_HTML.html#404,404,1366,625,1366,768,8-29-2022,14-35-35,146,depth_duration_stimuli/002425_2014-06-28_20-27-29_260595134347_rgbf000031-resize_8/002425_2014-06-28_20-27-29_260595134347_rgbf000031-resize_8-target.png,250,3.8960000000000004,3,6567,248,feet,jsons/v1_VE250_randls_16_rotated.json,1480566,1917409,25,Woman
146,465507,DepthScenes,duration_manipulation_targetAtFixation,jsons/v1_VE250_randls_16_rotated.json,http://54.235.29.9/FacialAge/BNav_EC2/DepthDuration/v2_depth_duration_MTurk/v2_DepthDuration_HTML.html#404,404,1366,625,1366,768,8-29-2022,14-35-35,147,depth_duration_stimuli/000642_2014-06-08_16-59-25_260595134347_rgbf000098-resize_2/000642_2014-06-08_16-59-25_260595134347_rgbf000098-resize_2-target.png,250,2.8815,4,6563,250,feet,jsons/v1_VE250_randls_16_rotated.json,1480566,1917409,25,Woman
147,465507,DepthScenes,duration_manipulation_targetAtFixation,jsons/v1_VE250_randls_16_rotated.json,http://54.235.29.9/FacialAge/BNav_EC2/DepthDuration/v2_depth_duration_MTurk/v2_DepthDuration_HTML.html#404,404,1366,625,1366,768,8-29-2022,14-35-35,148,depth_duration_stimuli/003010_2014-06-15_12-54-35_094959634447_rgbf000112-resize_0/003010_2014-06-15_12-54-35_094959634447_rgbf000112-resize_0-target.png,250,3.1185,7,4974,252,feet,jsons/v1_VE250_randls_16_rotated.json,1480566,1917409,25,Woman
148,465507,DepthScenes,duration_manipulation_targetAtFixation,jsons/v1_VE250_randls_16_rotated.json,http://54.235.29.9/FacialAge/BNav_EC2/DepthDuration/v2_depth_duration_MTurk/v2_DepthDuration_HTML.html#404,404,1366,625,1366,768,8-29-2022,14-35-35,149,depth_duration_stimuli/001810_2014-06-26_20-51-35_260595134347_rgbf000040-resize_3/001810_2014-06-26_20-51-35_260595134347_rgbf000040-resize_3-target.png,250,2.2525,5,4128,251,feet,jsons/v1_VE250_randls_16_rotated.json,1480566,1917409,25,Woman
149,465507,DepthScenes,duration_manipulation_targetAtFixation,jsons/v1_VE250_randls_16_rotated.json,http://54.235.29.9/FacialAge/BNav_EC2/DepthDuration/v2_depth_duration_MTurk/v2_DepthDuration_HTML.html#404,404,1366,625,1366,768,8-29-2022,14-35-35,150,depth_duration_stimuli/000927_2014-06-09_16-32-30_260595134347_rgbf000123-resize_3/000927_2014-06-09_16-32-30_260595134347_rgbf000123-resize_3-target.png,250,2.6785,5,5528,250,feet,jsons/v1_VE250_randls_16_rotated.json,1480566,1917409,25,Woman
150,465507,DepthScenes,duration_manipulation_targetAtFixation,jsons/v1_VE250_randls_16_rotated.json,http://54.235.29.9/FacialAge/BNav_EC2/DepthDuration/v2_depth_duration_MTurk/v2_DepthDuration_HTML.html#404,404,1366,625,1366,768,8-29-2022,14-35-35,151,depth_duration_stimuli/001110_2014-06-15_17-25-28_260595134347_rgbf000150-resize_1/001110_2014-06-15_17-25-28_260595134347_rgbf000150-resize_1-target.png,250,1.7115,4,3963,250,feet,jsons/v1_VE250_randls_16_rotated.json,1480566,1917409,25,Woman
151,465507,DepthScenes,duration_manipulation_targetAtFixation,jsons/v1_VE250_randls_16_rotated.json,http://54.235.29.9/FacialAge/BNav_EC2/DepthDuration/v2_depth_duration_MTurk/v2_DepthDuration_HTML.html#404,404,1366,625,1366,768,8-29-2022,14-35-35,152,depth_duration_stimuli/000569_2014-06-09_22-51-47_260595134347_rgbf000141-resize_3/000569_2014-06-09_22-51-47_260595134347_rgbf000141-resize-original.jpg,250,4.512,5,23531,250,feet,jsons/v1_VE250_randls_16_rotated.json,1480566,1917409,25,Woman
152,465507,DepthScenes,duration_manipulation_targetAtFixation,jsons/v1_VE250_randls_16_rotated.json,http://54.235.29.9/FacialAge/BNav_EC2/DepthDuration/v2_depth_duration_MTurk/v2_DepthDuration_HTML.html#404,404,1366,625,1366,768,8-29-2022,14-35-35,153,depth_duration_stimuli/003079_2014-06-15_15-18-20_094959634447_rgbf000152-resize_8/003079_2014-06-15_15-18-20_094959634447_rgbf000152-resize_8-target.png,250,2.8775,4,25770,249,feet,jsons/v1_VE250_randls_16_rotated.json,1480566,1917409,25,Woman
153,465507,DepthScenes,duration_manipulation_targetAtFixation,jsons/v1_VE250_randls_16_rotated.json,http://54.235.29.9/FacialAge/BNav_EC2/DepthDuration/v2_depth_duration_MTurk/v2_DepthDuration_HTML.html#404,404,1366,625,1366,768,8-29-2022,14-35-35,154,depth_duration_stimuli/000506_2014-06-08_23-21-00_260595134347_rgbf000070-resize_7/000506_2014-06-08_23-21-00_260595134347_rgbf000070-resize_7-target.png,250,4.0585,5,5150,250,feet,jsons/v1_VE250_randls_16_rotated.json,1480566,1917409,25,Woman
154,465507,DepthScenes,duration_manipulation_targetAtFixation,jsons/v1_VE250_randls_16_rotated.json,http://54.235.29.9/FacialAge/BNav_EC2/DepthDuration/v2_depth_duration_MTurk/v2_DepthDuration_HTML.html#404,404,1366,625,1366,768,8-29-2022,14-35-35,155,depth_duration_stimuli/000691_2014-06-08_13-08-50_260595134347_rgbf000132-resize_3/000691_2014-06-08_13-08-50_260595134347_rgbf000132-resize_3-target.png,250,4.1530000000000005,3,10983,242,feet,jsons/v1_VE250_randls_16_rotated.json,1480566,1917409,25,Woman
155,465507,DepthScenes,duration_manipulation_targetAtFixation,jsons/v1_VE250_randls_16_rotated.json,http://54.235.29.9/FacialAge/BNav_EC2/DepthDuration/v2_depth_duration_MTurk/v2_DepthDuration_HTML.html#404,404,1366,625,1366,768,8-29-2022,14-35-35,156,depth_duration_stimuli/002213_2014-06-28_18-37-58_260595134347_rgbf000055-resize_1/002213_2014-06-28_18-37-58_260595134347_rgbf000055-resize_1-target.png,250,3.62,5,66655,243,feet,jsons/v1_VE250_randls_16_rotated.json,1480566,1917409,25,Woman
156,465507,DepthScenes,duration_manipulation_targetAtFixation,jsons/v1_VE250_randls_16_rotated.json,http://54.235.29.9/FacialAge/BNav_EC2/DepthDuration/v2_depth_duration_MTurk/v2_DepthDuration_HTML.html#404,404,1366,625,1366,768,8-29-2022,14-35-35,157,depth_duration_stimuli/001828_2014-06-26_21-40-03_260595134347_rgbf000024-resize_0/001828_2014-06-26_21-40-03_260595134347_rgbf000024-resize_0-target.png,250,4.8260000000000005,6,5230,236,feet,jsons/v1_VE250_randls_16_rotated.json,1480566,1917409,25,Woman
157,465507,DepthScenes,duration_manipulation_targetAtFixation,jsons/v1_VE250_randls_16_rotated.json,http://54.235.29.9/FacialAge/BNav_EC2/DepthDuration/v2_depth_duration_MTurk/v2_DepthDuration_HTML.html#404,404,1366,625,1366,768,8-29-2022,14-35-35,158,depth_duration_stimuli/000009_2014-05-26_14-32-05_260595134347_rgbf000034-resize_3/000009_2014-05-26_14-32-05_260595134347_rgbf000034-resize_3-target.png,250,3.8715,6,4203,246,feet,jsons/v1_VE250_randls_16_rotated.json,1480566,1917409,25,Woman
158,465507,DepthScenes,duration_manipulation_targetAtFixation,jsons/v1_VE250_randls_16_rotated.json,http://54.235.29.9/FacialAge/BNav_EC2/DepthDuration/v2_depth_duration_MTurk/v2_DepthDuration_HTML.html#404,404,1366,625,1366,768,8-29-2022,14-35-35,159,depth_duration_stimuli/000854_2014-06-09_19-43-13_260595134347_rgbf000066-resize_0/000854_2014-06-09_19-43-13_260595134347_rgbf000066-resize_0-target.png,250,3.068,5,3325,250,feet,jsons/v1_VE250_randls_16_rotated.json,1480566,1917409,25,Woman
159,465507,DepthScenes,duration_manipulation_targetAtFixation,jsons/v1_VE250_randls_16_rotated.json,http://54.235.29.9/FacialAge/BNav_EC2/DepthDuration/v2_depth_duration_MTurk/v2_DepthDuration_HTML.html#404,404,1366,625,1366,768,8-29-2022,14-35-35,160,depth_duration_stimuli/000758_2014-06-08_22-05-08_260595134347_rgbf000085-resize_0/000758_2014-06-08_22-05-08_260595134347_rgbf000085-resize_0-target.png,250,3.3810000000000002,3,28837,253,feet,jsons/v1_VE250_randls_16_rotated.json,1480566,1917409,25,Woman
160,465507,DepthScenes,duration_manipulation_targetAtFixation,jsons/v1_VE250_randls_16_rotated.json,http://54.235.29.9/FacialAge/BNav_EC2/DepthDuration/v2_depth_duration_MTurk/v2_DepthDuration_HTML.html#404,404,1366,625,1366,768,8-29-2022,14-35-35,161,depth_duration_stimuli/000409_2014-06-04_19-23-33_260595134347_rgbf000067-resize_0/000409_2014-06-04_19-23-33_260595134347_rgbf000067-resize_0-target.png,250,3.7335,3,3179,258,feet,jsons/v1_VE250_randls_16_rotated.json,1480566,1917409,25,Woman
161,465507,DepthScenes,duration_manipulation_targetAtFixation,jsons/v1_VE250_randls_16_rotated.json,http://54.235.29.9/FacialAge/BNav_EC2/DepthDuration/v2_depth_duration_MTurk/v2_DepthDuration_HTML.html#404,404,1366,625,1366,768,8-29-2022,14-35-35,162,depth_duration_stimuli/002663_2014-06-13_15-50-26_094959634447_rgbf000075-resize_1/002663_2014-06-13_15-50-26_094959634447_rgbf000075-resize_1-target.png,250,4.7495,5,7063,242,feet,jsons/v1_VE250_randls_16_rotated.json,1480566,1917409,25,Woman
162,465507,DepthScenes,duration_manipulation_targetAtFixation,jsons/v1_VE250_randls_16_rotated.json,http://54.235.29.9/FacialAge/BNav_EC2/DepthDuration/v2_depth_duration_MTurk/v2_DepthDuration_HTML.html#404,404,1366,625,1366,768,8-29-2022,14-35-35,163,depth_duration_stimuli/002995_2014-06-15_12-31-26_094959634447_rgbf000150-resize_1/002995_2014-06-15_12-31-26_094959634447_rgbf000150-resize_1-target.png,250,3.8360000000000003,6,4178,256,feet,jsons/v1_VE250_randls_16_rotated.json,1480566,1917409,25,Woman
163,465507,DepthScenes,duration_manipulation_targetAtFixation,jsons/v1_VE250_randls_16_rotated.json,http://54.235.29.9/FacialAge/BNav_EC2/DepthDuration/v2_depth_duration_MTurk/v2_DepthDuration_HTML.html#404,404,1366,625,1366,768,8-29-2022,14-35-35,164,depth_duration_stimuli/002748_2014-06-22_19-07-22_094959634447_rgbf000078-resize_1/002748_2014-06-22_19-07-22_094959634447_rgbf000078-resize_1-target.png,250,4.6705,6,3959,258,feet,jsons/v1_VE250_randls_16_rotated.json,1480566,1917409,25,Woman
