,subjID,experimentName,versionName,sequenceName,url,selected_row,windowWidth,windowHeight,screenWidth,screenHeight,startDate,startTime,trial,stimulus,duration,actual_depth,depth_estimate,trial_RT,log_sceneDuration,unitSelection,seq_filepath,experimentTime,totalTime,age,gender
0,466947,DepthScenes,duration_manipulation_targetAtFixation,jsons/v1_VE1000_randls_61.json,http://54.235.29.9/FacialAge/BNav_EC2/DepthDuration/v2_depth_duration_MTurk/v2_DepthDuration_HTML.html#75,75,1366,657,1366,768,8-29-2022,8-41-21,1,depth_duration_stimuli/000447_2014-06-08_16-15-46_260595134347_rgbf000130-resize_1/000447_2014-06-08_16-15-46_260595134347_rgbf000130-resize_1-target.png,1000,4.479,9,5815,1000,feet,jsons/v1_VE1000_randls_61.json,1869339,2597719,26,Woman
1,466947,DepthScenes,duration_manipulation_targetAtFixation,jsons/v1_VE1000_randls_61.json,http://54.235.29.9/FacialAge/BNav_EC2/DepthDuration/v2_depth_duration_MTurk/v2_DepthDuration_HTML.html#75,75,1366,657,1366,768,8-29-2022,8-41-21,2,depth_duration_stimuli/001447_2014-06-19_17-00-32_260595134347_rgbf000082-resize_5/001447_2014-06-19_17-00-32_260595134347_rgbf000082-resize_5-target.png,1000,4.13775,8,5636,1001,feet,jsons/v1_VE1000_randls_61.json,1869339,2597719,26,Woman
2,466947,DepthScenes,duration_manipulation_targetAtFixation,jsons/v1_VE1000_randls_61.json,http://54.235.29.9/FacialAge/BNav_EC2/DepthDuration/v2_depth_duration_MTurk/v2_DepthDuration_HTML.html#75,75,1366,657,1366,768,8-29-2022,8-41-21,3,depth_duration_stimuli/001244_2014-06-17_16-47-45_260595134347_rgbf000030-resize_4/001244_2014-06-17_16-47-45_260595134347_rgbf000030-resize_4-target.png,1000,2.0425,10,5365,999,feet,jsons/v1_VE1000_randls_61.json,1869339,2597719,26,Woman
3,466947,DepthScenes,duration_manipulation_targetAtFixation,jsons/v1_VE1000_randls_61.json,http://54.235.29.9/FacialAge/BNav_EC2/DepthDuration/v2_depth_duration_MTurk/v2_DepthDuration_HTML.html#75,75,1366,657,1366,768,8-29-2022,8-41-21,4,depth_duration_stimuli/003495_2014-05-21_16-01-51_094959634447_rgbf000100-resize_3/003495_2014-05-21_16-01-51_094959634447_rgbf000100-resize_3-target.png,1000,1.6255,4,4581,999,feet,jsons/v1_VE1000_randls_61.json,1869339,2597719,26,Woman
4,466947,DepthScenes,duration_manipulation_targetAtFixation,jsons/v1_VE1000_randls_61.json,http://54.235.29.9/FacialAge/BNav_EC2/DepthDuration/v2_depth_duration_MTurk/v2_DepthDuration_HTML.html#75,75,1366,657,1366,768,8-29-2022,8-41-21,5,depth_duration_stimuli/001066_2014-06-08_22-03-20_260595134347_rgbf000066-resize_4/001066_2014-06-08_22-03-20_260595134347_rgbf000066-resize_4-target.png,1000,4.2330000000000005,16,5489,1000,feet,jsons/v1_VE1000_randls_61.json,1869339,2597719,26,Woman
5,466947,DepthScenes,duration_manipulation_targetAtFixation,jsons/v1_VE1000_randls_61.json,http://54.235.29.9/FacialAge/BNav_EC2/DepthDuration/v2_depth_duration_MTurk/v2_DepthDuration_HTML.html#75,75,1366,657,1366,768,8-29-2022,8-41-21,6,depth_duration_stimuli/000742_2014-06-08_18-48-09_260595134347_rgbf000164-resize_4/000742_2014-06-08_18-48-09_260595134347_rgbf000164-resize_4-target.png,1000,4.632,18,5287,998,feet,jsons/v1_VE1000_randls_61.json,1869339,2597719,26,Woman
6,466947,DepthScenes,duration_manipulation_targetAtFixation,jsons/v1_VE1000_randls_61.json,http://54.235.29.9/FacialAge/BNav_EC2/DepthDuration/v2_depth_duration_MTurk/v2_DepthDuration_HTML.html#75,75,1366,657,1366,768,8-29-2022,8-41-21,7,depth_duration_stimuli/002905_2014-06-03_18-04-43_094959634447_rgbf000151-resize_2/002905_2014-06-03_18-04-43_094959634447_rgbf000151-resize_2-target.png,1000,2.0295,8,4631,1001,feet,jsons/v1_VE1000_randls_61.json,1869339,2597719,26,Woman
7,466947,DepthScenes,duration_manipulation_targetAtFixation,jsons/v1_VE1000_randls_61.json,http://54.235.29.9/FacialAge/BNav_EC2/DepthDuration/v2_depth_duration_MTurk/v2_DepthDuration_HTML.html#75,75,1366,657,1366,768,8-29-2022,8-41-21,8,depth_duration_stimuli/003423_2014-05-21_10-23-26_094959634447_rgbf002665-resize_2/003423_2014-05-21_10-23-26_094959634447_rgbf002665-resize_2-target.png,1000,3.2575,13,4934,999,feet,jsons/v1_VE1000_randls_61.json,1869339,2597719,26,Woman
8,466947,DepthScenes,duration_manipulation_targetAtFixation,jsons/v1_VE1000_randls_61.json,http://54.235.29.9/FacialAge/BNav_EC2/DepthDuration/v2_depth_duration_MTurk/v2_DepthDuration_HTML.html#75,75,1366,657,1366,768,8-29-2022,8-41-21,9,depth_duration_stimuli/000692_2014-06-08_13-09-42_260595134347_rgbf000199-resize_2/000692_2014-06-08_13-09-42_260595134347_rgbf000199-resize_2-target.png,1000,3.661,20,4779,1000,feet,jsons/v1_VE1000_randls_61.json,1869339,2597719,26,Woman
9,466947,DepthScenes,duration_manipulation_targetAtFixation,jsons/v1_VE1000_randls_61.json,http://54.235.29.9/FacialAge/BNav_EC2/DepthDuration/v2_depth_duration_MTurk/v2_DepthDuration_HTML.html#75,75,1366,657,1366,768,8-29-2022,8-41-21,10,depth_duration_stimuli/001094_2014-06-15_17-36-00_260595134347_rgbf000205-resize_0/001094_2014-06-15_17-36-00_260595134347_rgbf000205-resize_0-target.png,1000,4.2175,20,5769,999,feet,jsons/v1_VE1000_randls_61.json,1869339,2597719,26,Woman
10,466947,DepthScenes,duration_manipulation_targetAtFixation,jsons/v1_VE1000_randls_61.json,http://54.235.29.9/FacialAge/BNav_EC2/DepthDuration/v2_depth_duration_MTurk/v2_DepthDuration_HTML.html#75,75,1366,657,1366,768,8-29-2022,8-41-21,11,depth_duration_stimuli/002600_2014-06-24_14-27-04_094959634447_rgbf000074-resize_2/002600_2014-06-24_14-27-04_094959634447_rgbf000074-resize_2-target.png,1000,2.7575,11,4889,1000,feet,jsons/v1_VE1000_randls_61.json,1869339,2597719,26,Woman
11,466947,DepthScenes,duration_manipulation_targetAtFixation,jsons/v1_VE1000_randls_61.json,http://54.235.29.9/FacialAge/BNav_EC2/DepthDuration/v2_depth_duration_MTurk/v2_DepthDuration_HTML.html#75,75,1366,657,1366,768,8-29-2022,8-41-21,12,depth_duration_stimuli/003228_2014-05-14_13-42-35_094959634447_rgbf000101-resize_1/003228_2014-05-14_13-42-35_094959634447_rgbf000101-resize_1-target.png,1000,1.9680000000000002,8,5117,999,feet,jsons/v1_VE1000_randls_61.json,1869339,2597719,26,Woman
12,466947,DepthScenes,duration_manipulation_targetAtFixation,jsons/v1_VE1000_randls_61.json,http://54.235.29.9/FacialAge/BNav_EC2/DepthDuration/v2_depth_duration_MTurk/v2_DepthDuration_HTML.html#75,75,1366,657,1366,768,8-29-2022,8-41-21,13,depth_duration_stimuli/000569_2014-06-09_22-51-47_260595134347_rgbf000141-resize_3/000569_2014-06-09_22-51-47_260595134347_rgbf000141-resize-original.jpg,1000,4.512,0,10209,1000,feet,jsons/v1_VE1000_randls_61.json,1869339,2597719,26,Woman
13,466947,DepthScenes,duration_manipulation_targetAtFixation,jsons/v1_VE1000_randls_61.json,http://54.235.29.9/FacialAge/BNav_EC2/DepthDuration/v2_depth_duration_MTurk/v2_DepthDuration_HTML.html#75,75,1366,657,1366,768,8-29-2022,8-41-21,14,depth_duration_stimuli/001449_2014-06-19_17-01-27_260595134347_rgbf000116-resize_2/001449_2014-06-19_17-01-27_260595134347_rgbf000116-resize_2-target.png,1000,3.452,13,4874,999,feet,jsons/v1_VE1000_randls_61.json,1869339,2597719,26,Woman
14,466947,DepthScenes,duration_manipulation_targetAtFixation,jsons/v1_VE1000_randls_61.json,http://54.235.29.9/FacialAge/BNav_EC2/DepthDuration/v2_depth_duration_MTurk/v2_DepthDuration_HTML.html#75,75,1366,657,1366,768,8-29-2022,8-41-21,15,depth_duration_stimuli/001450_2014-06-19_17-02-03_260595134347_rgbf000203-resize_4/001450_2014-06-19_17-02-03_260595134347_rgbf000203-resize_4-target.png,1000,4.0106666666667,22,6100,1000,feet,jsons/v1_VE1000_randls_61.json,1869339,2597719,26,Woman
15,466947,DepthScenes,duration_manipulation_targetAtFixation,jsons/v1_VE1000_randls_61.json,http://54.235.29.9/FacialAge/BNav_EC2/DepthDuration/v2_depth_duration_MTurk/v2_DepthDuration_HTML.html#75,75,1366,657,1366,768,8-29-2022,8-41-21,16,depth_duration_stimuli/002725_2014-06-22_11-47-51_094959634447_rgbf000070-resize_1/002725_2014-06-22_11-47-51_094959634447_rgbf000070-resize_1-target.png,1000,2.195,16,5098,999,feet,jsons/v1_VE1000_randls_61.json,1869339,2597719,26,Woman
16,466947,DepthScenes,duration_manipulation_targetAtFixation,jsons/v1_VE1000_randls_61.json,http://54.235.29.9/FacialAge/BNav_EC2/DepthDuration/v2_depth_duration_MTurk/v2_DepthDuration_HTML.html#75,75,1366,657,1366,768,8-29-2022,8-41-21,17,depth_duration_stimuli/002344_2014-06-28_20-06-29_260595134347_rgbf000030-resize_1/002344_2014-06-28_20-06-29_260595134347_rgbf000030-resize_1-target.png,1000,1.5795,4,5284,999,feet,jsons/v1_VE1000_randls_61.json,1869339,2597719,26,Woman
17,466947,DepthScenes,duration_manipulation_targetAtFixation,jsons/v1_VE1000_randls_61.json,http://54.235.29.9/FacialAge/BNav_EC2/DepthDuration/v2_depth_duration_MTurk/v2_DepthDuration_HTML.html#75,75,1366,657,1366,768,8-29-2022,8-41-21,18,depth_duration_stimuli/002213_2014-06-28_18-37-58_260595134347_rgbf000055-resize_1/002213_2014-06-28_18-37-58_260595134347_rgbf000055-resize_1-target.png,1000,3.62,7,7181,1000,feet,jsons/v1_VE1000_randls_61.json,1869339,2597719,26,Woman
18,466947,DepthScenes,duration_manipulation_targetAtFixation,jsons/v1_VE1000_randls_61.json,http://54.235.29.9/FacialAge/BNav_EC2/DepthDuration/v2_depth_duration_MTurk/v2_DepthDuration_HTML.html#75,75,1366,657,1366,768,8-29-2022,8-41-21,19,depth_duration_stimuli/000691_2014-06-08_13-08-50_260595134347_rgbf000132-resize_3/000691_2014-06-08_13-08-50_260595134347_rgbf000132-resize_3-target.png,1000,4.1530000000000005,14,5674,999,feet,jsons/v1_VE1000_randls_61.json,1869339,2597719,26,Woman
19,466947,DepthScenes,duration_manipulation_targetAtFixation,jsons/v1_VE1000_randls_61.json,http://54.235.29.9/FacialAge/BNav_EC2/DepthDuration/v2_depth_duration_MTurk/v2_DepthDuration_HTML.html#75,75,1366,657,1366,768,8-29-2022,8-41-21,20,depth_duration_stimuli/000436_2014-06-09_22-25-11_260595134347_rgbf000137-resize_1/000436_2014-06-09_22-25-11_260595134347_rgbf000137-resize_1-target.png,1000,4.0705,22,4412,1000,feet,jsons/v1_VE1000_randls_61.json,1869339,2597719,26,Woman
20,466947,DepthScenes,duration_manipulation_targetAtFixation,jsons/v1_VE1000_randls_61.json,http://54.235.29.9/FacialAge/BNav_EC2/DepthDuration/v2_depth_duration_MTurk/v2_DepthDuration_HTML.html#75,75,1366,657,1366,768,8-29-2022,8-41-21,21,depth_duration_stimuli/002444_2014-06-28_20-32-08_260595134347_rgbf000027-resize_0/002444_2014-06-28_20-32-08_260595134347_rgbf000027-resize_0-target.png,1000,4.388999999999999,18,5559,1000,feet,jsons/v1_VE1000_randls_61.json,1869339,2597719,26,Woman
21,466947,DepthScenes,duration_manipulation_targetAtFixation,jsons/v1_VE1000_randls_61.json,http://54.235.29.9/FacialAge/BNav_EC2/DepthDuration/v2_depth_duration_MTurk/v2_DepthDuration_HTML.html#75,75,1366,657,1366,768,8-29-2022,8-41-21,22,depth_duration_stimuli/000758_2014-06-08_22-05-08_260595134347_rgbf000085-resize_0/000758_2014-06-08_22-05-08_260595134347_rgbf000085-resize_0-target.png,1000,3.3810000000000002,19,6038,1000,feet,jsons/v1_VE1000_randls_61.json,1869339,2597719,26,Woman
22,466947,DepthScenes,duration_manipulation_targetAtFixation,jsons/v1_VE1000_randls_61.json,http://54.235.29.9/FacialAge/BNav_EC2/DepthDuration/v2_depth_duration_MTurk/v2_DepthDuration_HTML.html#75,75,1366,657,1366,768,8-29-2022,8-41-21,23,depth_duration_stimuli/000854_2014-06-09_19-43-13_260595134347_rgbf000066-resize_0/000854_2014-06-09_19-43-13_260595134347_rgbf000066-resize_0-target.png,1000,3.068,10,5756,1001,feet,jsons/v1_VE1000_randls_61.json,1869339,2597719,26,Woman
23,466947,DepthScenes,duration_manipulation_targetAtFixation,jsons/v1_VE1000_randls_61.json,http://54.235.29.9/FacialAge/BNav_EC2/DepthDuration/v2_depth_duration_MTurk/v2_DepthDuration_HTML.html#75,75,1366,657,1366,768,8-29-2022,8-41-21,24,depth_duration_stimuli/001570_2014-06-20_17-21-09_260595134347_rgbf000135-resize_4/001570_2014-06-20_17-21-09_260595134347_rgbf000135-resize_4-target.png,1000,4.467,22,4708,1000,feet,jsons/v1_VE1000_randls_61.json,1869339,2597719,26,Woman
24,466947,DepthScenes,duration_manipulation_targetAtFixation,jsons/v1_VE1000_randls_61.json,http://54.235.29.9/FacialAge/BNav_EC2/DepthDuration/v2_depth_duration_MTurk/v2_DepthDuration_HTML.html#75,75,1366,657,1366,768,8-29-2022,8-41-21,25,depth_duration_stimuli/001392_2014-06-19_16-07-59_260595134347_rgbf000046-resize_1/001392_2014-06-19_16-07-59_260595134347_rgbf000046-resize_1-target.png,1000,4.135,24,4793,1001,feet,jsons/v1_VE1000_randls_61.json,1869339,2597719,26,Woman
25,466947,DepthScenes,duration_manipulation_targetAtFixation,jsons/v1_VE1000_randls_61.json,http://54.235.29.9/FacialAge/BNav_EC2/DepthDuration/v2_depth_duration_MTurk/v2_DepthDuration_HTML.html#75,75,1366,657,1366,768,8-29-2022,8-41-21,26,depth_duration_stimuli/000682_2014-06-08_23-14-58_260595134347_rgbf000041-resize_5/000682_2014-06-08_23-14-58_260595134347_rgbf000041-resize_5-target.png,1000,2.7239999999999998,9,4168,999,feet,jsons/v1_VE1000_randls_61.json,1869339,2597719,26,Woman
26,466947,DepthScenes,duration_manipulation_targetAtFixation,jsons/v1_VE1000_randls_61.json,http://54.235.29.9/FacialAge/BNav_EC2/DepthDuration/v2_depth_duration_MTurk/v2_DepthDuration_HTML.html#75,75,1366,657,1366,768,8-29-2022,8-41-21,27,depth_duration_stimuli/001650_2014-06-20_12-09-00_260595134347_rgbf000087-resize_3/001650_2014-06-20_12-09-00_260595134347_rgbf000087-resize_3-target.png,1000,1.9505,6,4822,1002,feet,jsons/v1_VE1000_randls_61.json,1869339,2597719,26,Woman
27,466947,DepthScenes,duration_manipulation_targetAtFixation,jsons/v1_VE1000_randls_61.json,http://54.235.29.9/FacialAge/BNav_EC2/DepthDuration/v2_depth_duration_MTurk/v2_DepthDuration_HTML.html#75,75,1366,657,1366,768,8-29-2022,8-41-21,28,depth_duration_stimuli/001175_2014-06-17_15-45-55_260595134347_rgbf000129-resize_4/001175_2014-06-17_15-45-55_260595134347_rgbf000129-resize_4-target.png,1000,4.255,25,5745,999,feet,jsons/v1_VE1000_randls_61.json,1869339,2597719,26,Woman
28,466947,DepthScenes,duration_manipulation_targetAtFixation,jsons/v1_VE1000_randls_61.json,http://54.235.29.9/FacialAge/BNav_EC2/DepthDuration/v2_depth_duration_MTurk/v2_DepthDuration_HTML.html#75,75,1366,657,1366,768,8-29-2022,8-41-21,29,depth_duration_stimuli/003490_2014-05-21_15-50-11_094959634447_rgbf000101-resize_3/003490_2014-05-21_15-50-11_094959634447_rgbf000101-resize_3-target.png,1000,3.6445,24,5621,1000,feet,jsons/v1_VE1000_randls_61.json,1869339,2597719,26,Woman
29,466947,DepthScenes,duration_manipulation_targetAtFixation,jsons/v1_VE1000_randls_61.json,http://54.235.29.9/FacialAge/BNav_EC2/DepthDuration/v2_depth_duration_MTurk/v2_DepthDuration_HTML.html#75,75,1366,657,1366,768,8-29-2022,8-41-21,30,depth_duration_stimuli/000375_2014-06-08_11-17-29_260595134347_rgbf000133-resize_2/000375_2014-06-08_11-17-29_260595134347_rgbf000133-resize-original.jpg,1000,4.718,0,4536,999,feet,jsons/v1_VE1000_randls_61.json,1869339,2597719,26,Woman
30,466947,DepthScenes,duration_manipulation_targetAtFixation,jsons/v1_VE1000_randls_61.json,http://54.235.29.9/FacialAge/BNav_EC2/DepthDuration/v2_depth_duration_MTurk/v2_DepthDuration_HTML.html#75,75,1366,657,1366,768,8-29-2022,8-41-21,31,depth_duration_stimuli/001011_2014-06-08_23-18-54_260595134347_rgbf000044-resize_4/001011_2014-06-08_23-18-54_260595134347_rgbf000044-resize_4-target.png,1000,2.4730000000000003,9,5132,1001,feet,jsons/v1_VE1000_randls_61.json,1869339,2597719,26,Woman
31,466947,DepthScenes,duration_manipulation_targetAtFixation,jsons/v1_VE1000_randls_61.json,http://54.235.29.9/FacialAge/BNav_EC2/DepthDuration/v2_depth_duration_MTurk/v2_DepthDuration_HTML.html#75,75,1366,657,1366,768,8-29-2022,8-41-21,32,depth_duration_stimuli/002875_2014-06-01_15-19-00_094959634447_rgbf000151-resize_1/002875_2014-06-01_15-19-00_094959634447_rgbf000151-resize_1-target.png,1000,1.9675,11,6155,998,feet,jsons/v1_VE1000_randls_61.json,1869339,2597719,26,Woman
32,466947,DepthScenes,duration_manipulation_targetAtFixation,jsons/v1_VE1000_randls_61.json,http://54.235.29.9/FacialAge/BNav_EC2/DepthDuration/v2_depth_duration_MTurk/v2_DepthDuration_HTML.html#75,75,1366,657,1366,768,8-29-2022,8-41-21,33,depth_duration_stimuli/002988_2014-06-15_12-24-20_094959634447_rgbf000150-resize_1/002988_2014-06-15_12-24-20_094959634447_rgbf000150-resize_1-target.png,1000,4.7669999999999995,16,5288,1000,feet,jsons/v1_VE1000_randls_61.json,1869339,2597719,26,Woman
33,466947,DepthScenes,duration_manipulation_targetAtFixation,jsons/v1_VE1000_randls_61.json,http://54.235.29.9/FacialAge/BNav_EC2/DepthDuration/v2_depth_duration_MTurk/v2_DepthDuration_HTML.html#75,75,1366,657,1366,768,8-29-2022,8-41-21,34,depth_duration_stimuli/001052_2014-06-08_18-24-54_260595134347_rgbf000130-resize_1/001052_2014-06-08_18-24-54_260595134347_rgbf000130-resize_1-target.png,1000,4.1045,17,6739,998,feet,jsons/v1_VE1000_randls_61.json,1869339,2597719,26,Woman
34,466947,DepthScenes,duration_manipulation_targetAtFixation,jsons/v1_VE1000_randls_61.json,http://54.235.29.9/FacialAge/BNav_EC2/DepthDuration/v2_depth_duration_MTurk/v2_DepthDuration_HTML.html#75,75,1366,657,1366,768,8-29-2022,8-41-21,35,depth_duration_stimuli/002549_2014-06-24_13-41-39_094959634447_rgbf000022-resize_3/002549_2014-06-24_13-41-39_094959634447_rgbf000022-resize_3-target.png,1000,1.476,9,5847,998,feet,jsons/v1_VE1000_randls_61.json,1869339,2597719,26,Woman
35,466947,DepthScenes,duration_manipulation_targetAtFixation,jsons/v1_VE1000_randls_61.json,http://54.235.29.9/FacialAge/BNav_EC2/DepthDuration/v2_depth_duration_MTurk/v2_DepthDuration_HTML.html#75,75,1366,657,1366,768,8-29-2022,8-41-21,36,depth_duration_stimuli/002750_2014-06-22_19-08-03_094959634447_rgbf000094-resize_4/002750_2014-06-22_19-08-03_094959634447_rgbf000094-resize_4-target.png,1000,2.354,14,9481,999,feet,jsons/v1_VE1000_randls_61.json,1869339,2597719,26,Woman
36,466947,DepthScenes,duration_manipulation_targetAtFixation,jsons/v1_VE1000_randls_61.json,http://54.235.29.9/FacialAge/BNav_EC2/DepthDuration/v2_depth_duration_MTurk/v2_DepthDuration_HTML.html#75,75,1366,657,1366,768,8-29-2022,8-41-21,37,depth_duration_stimuli/002118_2014-06-25_20-32-08_260595134347_rgbf000078-resize_1/002118_2014-06-25_20-32-08_260595134347_rgbf000078-resize_1-target.png,1000,2.6460000000000004,12,6846,999,feet,jsons/v1_VE1000_randls_61.json,1869339,2597719,26,Woman
37,466947,DepthScenes,duration_manipulation_targetAtFixation,jsons/v1_VE1000_randls_61.json,http://54.235.29.9/FacialAge/BNav_EC2/DepthDuration/v2_depth_duration_MTurk/v2_DepthDuration_HTML.html#75,75,1366,657,1366,768,8-29-2022,8-41-21,38,depth_duration_stimuli/001516_2014-06-20_16-25-09_260595134347_rgbf000076-resize_2/001516_2014-06-20_16-25-09_260595134347_rgbf000076-resize_2-target.png,1000,1.7445,9,4669,1000,feet,jsons/v1_VE1000_randls_61.json,1869339,2597719,26,Woman
38,466947,DepthScenes,duration_manipulation_targetAtFixation,jsons/v1_VE1000_randls_61.json,http://54.235.29.9/FacialAge/BNav_EC2/DepthDuration/v2_depth_duration_MTurk/v2_DepthDuration_HTML.html#75,75,1366,657,1366,768,8-29-2022,8-41-21,39,depth_duration_stimuli/002788_2014-06-22_19-36-03_094959634447_rgbf000088-resize_2/002788_2014-06-22_19-36-03_094959634447_rgbf000088-resize_2-target.png,1000,1.6465,18,5516,999,feet,jsons/v1_VE1000_randls_61.json,1869339,2597719,26,Woman
39,466947,DepthScenes,duration_manipulation_targetAtFixation,jsons/v1_VE1000_randls_61.json,http://54.235.29.9/FacialAge/BNav_EC2/DepthDuration/v2_depth_duration_MTurk/v2_DepthDuration_HTML.html#75,75,1366,657,1366,768,8-29-2022,8-41-21,40,depth_duration_stimuli/000749_2014-06-08_21-55-06_260595134347_rgbf000070-resize_2/000749_2014-06-08_21-55-06_260595134347_rgbf000070-resize_2-target.png,1000,2.331,7,5418,997,feet,jsons/v1_VE1000_randls_61.json,1869339,2597719,26,Woman
40,466947,DepthScenes,duration_manipulation_targetAtFixation,jsons/v1_VE1000_randls_61.json,http://54.235.29.9/FacialAge/BNav_EC2/DepthDuration/v2_depth_duration_MTurk/v2_DepthDuration_HTML.html#75,75,1366,657,1366,768,8-29-2022,8-41-21,41,depth_duration_stimuli/002445_2014-06-28_20-32-16_260595134347_rgbf000029-resize_4/002445_2014-06-28_20-32-16_260595134347_rgbf000029-resize_4-target.png,1000,2.5315,6,5266,1000,feet,jsons/v1_VE1000_randls_61.json,1869339,2597719,26,Woman
41,466947,DepthScenes,duration_manipulation_targetAtFixation,jsons/v1_VE1000_randls_61.json,http://54.235.29.9/FacialAge/BNav_EC2/DepthDuration/v2_depth_duration_MTurk/v2_DepthDuration_HTML.html#75,75,1366,657,1366,768,8-29-2022,8-41-21,42,depth_duration_stimuli/000780_2014-06-08_22-28-29_260595134347_rgbf000126-resize_1/000780_2014-06-08_22-28-29_260595134347_rgbf000126-resize_1-target.png,1000,3.3825,15,4886,999,feet,jsons/v1_VE1000_randls_61.json,1869339,2597719,26,Woman
42,466947,DepthScenes,duration_manipulation_targetAtFixation,jsons/v1_VE1000_randls_61.json,http://54.235.29.9/FacialAge/BNav_EC2/DepthDuration/v2_depth_duration_MTurk/v2_DepthDuration_HTML.html#75,75,1366,657,1366,768,8-29-2022,8-41-21,43,depth_duration_stimuli/001055_2014-06-08_18-45-35_260595134347_rgbf000111-resize_4/001055_2014-06-08_18-45-35_260595134347_rgbf000111-resize_4-target.png,1000,2.4290000000000003,18,4751,1001,feet,jsons/v1_VE1000_randls_61.json,1869339,2597719,26,Woman
43,466947,DepthScenes,duration_manipulation_targetAtFixation,jsons/v1_VE1000_randls_61.json,http://54.235.29.9/FacialAge/BNav_EC2/DepthDuration/v2_depth_duration_MTurk/v2_DepthDuration_HTML.html#75,75,1366,657,1366,768,8-29-2022,8-41-21,44,depth_duration_stimuli/000549_2014-06-08_22-10-24_260595134347_rgbf000247-resize_3/000549_2014-06-08_22-10-24_260595134347_rgbf000247-resize_3-target.png,1000,1.841,3,3736,999,feet,jsons/v1_VE1000_randls_61.json,1869339,2597719,26,Woman
44,466947,DepthScenes,duration_manipulation_targetAtFixation,jsons/v1_VE1000_randls_61.json,http://54.235.29.9/FacialAge/BNav_EC2/DepthDuration/v2_depth_duration_MTurk/v2_DepthDuration_HTML.html#75,75,1366,657,1366,768,8-29-2022,8-41-21,45,depth_duration_stimuli/000787_2014-06-08_22-33-53_260595134347_rgbf000175-resize_1/000787_2014-06-08_22-33-53_260595134347_rgbf000175-resize-original.jpg,1000,4.784,0,4039,1000,feet,jsons/v1_VE1000_randls_61.json,1869339,2597719,26,Woman
45,466947,DepthScenes,duration_manipulation_targetAtFixation,jsons/v1_VE1000_randls_61.json,http://54.235.29.9/FacialAge/BNav_EC2/DepthDuration/v2_depth_duration_MTurk/v2_DepthDuration_HTML.html#75,75,1366,657,1366,768,8-29-2022,8-41-21,46,depth_duration_stimuli/002570_2014-06-24_13-59-54_094959634447_rgbf000059-resize_0/002570_2014-06-24_13-59-54_094959634447_rgbf000059-resize_0-target.png,1000,4.037,10,5278,999,feet,jsons/v1_VE1000_randls_61.json,1869339,2597719,26,Woman
46,466947,DepthScenes,duration_manipulation_targetAtFixation,jsons/v1_VE1000_randls_61.json,http://54.235.29.9/FacialAge/BNav_EC2/DepthDuration/v2_depth_duration_MTurk/v2_DepthDuration_HTML.html#75,75,1366,657,1366,768,8-29-2022,8-41-21,47,depth_duration_stimuli/002467_2014-06-28_20-38-07_260595134347_rgbf000026-resize_2/002467_2014-06-28_20-38-07_260595134347_rgbf000026-resize_2-target.png,1000,4.742,12,5589,1001,feet,jsons/v1_VE1000_randls_61.json,1869339,2597719,26,Woman
47,466947,DepthScenes,duration_manipulation_targetAtFixation,jsons/v1_VE1000_randls_61.json,http://54.235.29.9/FacialAge/BNav_EC2/DepthDuration/v2_depth_duration_MTurk/v2_DepthDuration_HTML.html#75,75,1366,657,1366,768,8-29-2022,8-41-21,48,depth_duration_stimuli/003534_2014-05-22_15-06-10_094959634447_rgbf000102-resize_4/003534_2014-05-22_15-06-10_094959634447_rgbf000102-resize_4-target.png,1000,1.426,2,4157,999,feet,jsons/v1_VE1000_randls_61.json,1869339,2597719,26,Woman
48,466947,DepthScenes,duration_manipulation_targetAtFixation,jsons/v1_VE1000_randls_61.json,http://54.235.29.9/FacialAge/BNav_EC2/DepthDuration/v2_depth_duration_MTurk/v2_DepthDuration_HTML.html#75,75,1366,657,1366,768,8-29-2022,8-41-21,49,depth_duration_stimuli/002637_2014-06-24_14-51-13_094959634447_rgbf000066-resize_4/002637_2014-06-24_14-51-13_094959634447_rgbf000066-resize_4-target.png,1000,1.9955,10,3749,1000,feet,jsons/v1_VE1000_randls_61.json,1869339,2597719,26,Woman
49,466947,DepthScenes,duration_manipulation_targetAtFixation,jsons/v1_VE1000_randls_61.json,http://54.235.29.9/FacialAge/BNav_EC2/DepthDuration/v2_depth_duration_MTurk/v2_DepthDuration_HTML.html#75,75,1366,657,1366,768,8-29-2022,8-41-21,50,depth_duration_stimuli/000486_2014-06-09_20-47-20_260595134347_rgbf000143-resize_2/000486_2014-06-09_20-47-20_260595134347_rgbf000143-resize_2-target.png,1000,4.8325,13,4322,1001,feet,jsons/v1_VE1000_randls_61.json,1869339,2597719,26,Woman
50,466947,DepthScenes,duration_manipulation_targetAtFixation,jsons/v1_VE1000_randls_61.json,http://54.235.29.9/FacialAge/BNav_EC2/DepthDuration/v2_depth_duration_MTurk/v2_DepthDuration_HTML.html#75,75,1366,657,1366,768,8-29-2022,8-41-21,51,depth_duration_stimuli/003083_2014-06-15_15-21-03_094959634447_rgbf000063-resize_1/003083_2014-06-15_15-21-03_094959634447_rgbf000063-resize_1-target.png,1000,4.1405,17,5716,1000,feet,jsons/v1_VE1000_randls_61.json,1869339,2597719,26,Woman
51,466947,DepthScenes,duration_manipulation_targetAtFixation,jsons/v1_VE1000_randls_61.json,http://54.235.29.9/FacialAge/BNav_EC2/DepthDuration/v2_depth_duration_MTurk/v2_DepthDuration_HTML.html#75,75,1366,657,1366,768,8-29-2022,8-41-21,52,depth_duration_stimuli/000773_2014-06-08_22-24-54_260595134347_rgbf000093-resize_1/000773_2014-06-08_22-24-54_260595134347_rgbf000093-resize_1-target.png,1000,4.973,15,5377,999,feet,jsons/v1_VE1000_randls_61.json,1869339,2597719,26,Woman
52,466947,DepthScenes,duration_manipulation_targetAtFixation,jsons/v1_VE1000_randls_61.json,http://54.235.29.9/FacialAge/BNav_EC2/DepthDuration/v2_depth_duration_MTurk/v2_DepthDuration_HTML.html#75,75,1366,657,1366,768,8-29-2022,8-41-21,53,depth_duration_stimuli/002414_2014-06-28_20-24-58_260595134347_rgbf000067-resize_4/002414_2014-06-28_20-24-58_260595134347_rgbf000067-resize_4-target.png,1000,4.363,17,4511,1000,feet,jsons/v1_VE1000_randls_61.json,1869339,2597719,26,Woman
53,466947,DepthScenes,duration_manipulation_targetAtFixation,jsons/v1_VE1000_randls_61.json,http://54.235.29.9/FacialAge/BNav_EC2/DepthDuration/v2_depth_duration_MTurk/v2_DepthDuration_HTML.html#75,75,1366,657,1366,768,8-29-2022,8-41-21,54,depth_duration_stimuli/000506_2014-06-08_23-21-00_260595134347_rgbf000070-resize_7/000506_2014-06-08_23-21-00_260595134347_rgbf000070-resize_7-target.png,1000,4.0585,15,3919,999,feet,jsons/v1_VE1000_randls_61.json,1869339,2597719,26,Woman
54,466947,DepthScenes,duration_manipulation_targetAtFixation,jsons/v1_VE1000_randls_61.json,http://54.235.29.9/FacialAge/BNav_EC2/DepthDuration/v2_depth_duration_MTurk/v2_DepthDuration_HTML.html#75,75,1366,657,1366,768,8-29-2022,8-41-21,55,depth_duration_stimuli/003079_2014-06-15_15-18-20_094959634447_rgbf000152-resize_8/003079_2014-06-15_15-18-20_094959634447_rgbf000152-resize_8-target.png,1000,2.8775,20,4636,1001,feet,jsons/v1_VE1000_randls_61.json,1869339,2597719,26,Woman
55,466947,DepthScenes,duration_manipulation_targetAtFixation,jsons/v1_VE1000_randls_61.json,http://54.235.29.9/FacialAge/BNav_EC2/DepthDuration/v2_depth_duration_MTurk/v2_DepthDuration_HTML.html#75,75,1366,657,1366,768,8-29-2022,8-41-21,56,depth_duration_stimuli/000642_2014-06-08_16-59-25_260595134347_rgbf000098-resize_2/000642_2014-06-08_16-59-25_260595134347_rgbf000098-resize_2-target.png,1000,2.8815,15,107570,999,feet,jsons/v1_VE1000_randls_61.json,1869339,2597719,26,Woman
56,466947,DepthScenes,duration_manipulation_targetAtFixation,jsons/v1_VE1000_randls_61.json,http://54.235.29.9/FacialAge/BNav_EC2/DepthDuration/v2_depth_duration_MTurk/v2_DepthDuration_HTML.html#75,75,1366,657,1366,768,8-29-2022,8-41-21,57,depth_duration_stimuli/002425_2014-06-28_20-27-29_260595134347_rgbf000031-resize_8/002425_2014-06-28_20-27-29_260595134347_rgbf000031-resize_8-target.png,1000,3.8960000000000004,16,13211,1001,feet,jsons/v1_VE1000_randls_61.json,1869339,2597719,26,Woman
57,466947,DepthScenes,duration_manipulation_targetAtFixation,jsons/v1_VE1000_randls_61.json,http://54.235.29.9/FacialAge/BNav_EC2/DepthDuration/v2_depth_duration_MTurk/v2_DepthDuration_HTML.html#75,75,1366,657,1366,768,8-29-2022,8-41-21,58,depth_duration_stimuli/001110_2014-06-15_17-25-28_260595134347_rgbf000150-resize_1/001110_2014-06-15_17-25-28_260595134347_rgbf000150-resize_1-target.png,1000,1.7115,13,5298,999,feet,jsons/v1_VE1000_randls_61.json,1869339,2597719,26,Woman
58,466947,DepthScenes,duration_manipulation_targetAtFixation,jsons/v1_VE1000_randls_61.json,http://54.235.29.9/FacialAge/BNav_EC2/DepthDuration/v2_depth_duration_MTurk/v2_DepthDuration_HTML.html#75,75,1366,657,1366,768,8-29-2022,8-41-21,59,depth_duration_stimuli/000927_2014-06-09_16-32-30_260595134347_rgbf000123-resize_3/000927_2014-06-09_16-32-30_260595134347_rgbf000123-resize_3-target.png,1000,2.6785,14,4959,1000,feet,jsons/v1_VE1000_randls_61.json,1869339,2597719,26,Woman
59,466947,DepthScenes,duration_manipulation_targetAtFixation,jsons/v1_VE1000_randls_61.json,http://54.235.29.9/FacialAge/BNav_EC2/DepthDuration/v2_depth_duration_MTurk/v2_DepthDuration_HTML.html#75,75,1366,657,1366,768,8-29-2022,8-41-21,60,depth_duration_stimuli/001056_2014-06-08_18-46-44_260595134347_rgbf000068-resize_0/001056_2014-06-08_18-46-44_260595134347_rgbf000068-resize_0-target.png,1000,2.6625,14,4969,1001,feet,jsons/v1_VE1000_randls_61.json,1869339,2597719,26,Woman
60,466947,DepthScenes,duration_manipulation_targetAtFixation,jsons/v1_VE1000_randls_61.json,http://54.235.29.9/FacialAge/BNav_EC2/DepthDuration/v2_depth_duration_MTurk/v2_DepthDuration_HTML.html#75,75,1366,657,1366,768,8-29-2022,8-41-21,61,depth_duration_stimuli/002199_2014-06-28_18-33-56_260595134347_rgbf000074-resize_0/002199_2014-06-28_18-33-56_260595134347_rgbf000074-resize_0-target.png,1000,1.996,5,4888,1000,feet,jsons/v1_VE1000_randls_61.json,1869339,2597719,26,Woman
61,466947,DepthScenes,duration_manipulation_targetAtFixation,jsons/v1_VE1000_randls_61.json,http://54.235.29.9/FacialAge/BNav_EC2/DepthDuration/v2_depth_duration_MTurk/v2_DepthDuration_HTML.html#75,75,1366,657,1366,768,8-29-2022,8-41-21,62,depth_duration_stimuli/002057_2014-06-24_21-00-13_260595134347_rgbf000120-resize_1/002057_2014-06-24_21-00-13_260595134347_rgbf000120-resize_1-target.png,1000,2.967,6,5130,1001,feet,jsons/v1_VE1000_randls_61.json,1869339,2597719,26,Woman
62,466947,DepthScenes,duration_manipulation_targetAtFixation,jsons/v1_VE1000_randls_61.json,http://54.235.29.9/FacialAge/BNav_EC2/DepthDuration/v2_depth_duration_MTurk/v2_DepthDuration_HTML.html#75,75,1366,657,1366,768,8-29-2022,8-41-21,63,depth_duration_stimuli/000709_2014-06-08_13-51-55_260595134347_rgbf000068-resize_3/000709_2014-06-08_13-51-55_260595134347_rgbf000068-resize_3-target.png,1000,1.8030000000000002,9,6040,1000,feet,jsons/v1_VE1000_randls_61.json,1869339,2597719,26,Woman
63,466947,DepthScenes,duration_manipulation_targetAtFixation,jsons/v1_VE1000_randls_61.json,http://54.235.29.9/FacialAge/BNav_EC2/DepthDuration/v2_depth_duration_MTurk/v2_DepthDuration_HTML.html#75,75,1366,657,1366,768,8-29-2022,8-41-21,64,depth_duration_stimuli/002784_2014-06-22_19-26-30_094959634447_rgbf000083-resize_3/002784_2014-06-22_19-26-30_094959634447_rgbf000083-resize_3-target.png,1000,1.8046666666667,4,4927,998,feet,jsons/v1_VE1000_randls_61.json,1869339,2597719,26,Woman
64,466947,DepthScenes,duration_manipulation_targetAtFixation,jsons/v1_VE1000_randls_61.json,http://54.235.29.9/FacialAge/BNav_EC2/DepthDuration/v2_depth_duration_MTurk/v2_DepthDuration_HTML.html#75,75,1366,657,1366,768,8-29-2022,8-41-21,65,depth_duration_stimuli/001100_2014-06-15_17-46-26_260595134347_rgbf000225-resize_2/001100_2014-06-15_17-46-26_260595134347_rgbf000225-resize_2-target.png,1000,2.24,5,5937,1000,feet,jsons/v1_VE1000_randls_61.json,1869339,2597719,26,Woman
65,466947,DepthScenes,duration_manipulation_targetAtFixation,jsons/v1_VE1000_randls_61.json,http://54.235.29.9/FacialAge/BNav_EC2/DepthDuration/v2_depth_duration_MTurk/v2_DepthDuration_HTML.html#75,75,1366,657,1366,768,8-29-2022,8-41-21,66,depth_duration_stimuli/001222_2014-06-17_16-24-06_260595134347_rgbf000073-resize_0/001222_2014-06-17_16-24-06_260595134347_rgbf000073-resize-original.jpg,1000,1.4385,0,107490,1000,feet,jsons/v1_VE1000_randls_61.json,1869339,2597719,26,Woman
66,466947,DepthScenes,duration_manipulation_targetAtFixation,jsons/v1_VE1000_randls_61.json,http://54.235.29.9/FacialAge/BNav_EC2/DepthDuration/v2_depth_duration_MTurk/v2_DepthDuration_HTML.html#75,75,1366,657,1366,768,8-29-2022,8-41-21,67,depth_duration_stimuli/002630_2014-06-24_14-47-50_094959634447_rgbf000055-resize_1/002630_2014-06-24_14-47-50_094959634447_rgbf000055-resize_1-target.png,1000,3.0095,11,4830,1001,feet,jsons/v1_VE1000_randls_61.json,1869339,2597719,26,Woman
67,466947,DepthScenes,duration_manipulation_targetAtFixation,jsons/v1_VE1000_randls_61.json,http://54.235.29.9/FacialAge/BNav_EC2/DepthDuration/v2_depth_duration_MTurk/v2_DepthDuration_HTML.html#75,75,1366,657,1366,768,8-29-2022,8-41-21,68,depth_duration_stimuli/002758_2014-06-22_19-11-20_094959634447_rgbf000128-resize_1/002758_2014-06-22_19-11-20_094959634447_rgbf000128-resize_1-target.png,1000,2.555,8,5961,1000,feet,jsons/v1_VE1000_randls_61.json,1869339,2597719,26,Woman
68,466947,DepthScenes,duration_manipulation_targetAtFixation,jsons/v1_VE1000_randls_61.json,http://54.235.29.9/FacialAge/BNav_EC2/DepthDuration/v2_depth_duration_MTurk/v2_DepthDuration_HTML.html#75,75,1366,657,1366,768,8-29-2022,8-41-21,69,depth_duration_stimuli/002375_2014-06-28_20-13-44_260595134347_rgbf000032-resize_1/002375_2014-06-28_20-13-44_260595134347_rgbf000032-resize_1-target.png,1000,4.0175,9,4388,999,feet,jsons/v1_VE1000_randls_61.json,1869339,2597719,26,Woman
69,466947,DepthScenes,duration_manipulation_targetAtFixation,jsons/v1_VE1000_randls_61.json,http://54.235.29.9/FacialAge/BNav_EC2/DepthDuration/v2_depth_duration_MTurk/v2_DepthDuration_HTML.html#75,75,1366,657,1366,768,8-29-2022,8-41-21,70,depth_duration_stimuli/002657_2014-06-13_15-29-54_094959634447_rgbf000150-resize_1/002657_2014-06-13_15-29-54_094959634447_rgbf000150-resize_1-target.png,1000,4.919,11,6461,999,feet,jsons/v1_VE1000_randls_61.json,1869339,2597719,26,Woman
70,466947,DepthScenes,duration_manipulation_targetAtFixation,jsons/v1_VE1000_randls_61.json,http://54.235.29.9/FacialAge/BNav_EC2/DepthDuration/v2_depth_duration_MTurk/v2_DepthDuration_HTML.html#75,75,1366,657,1366,768,8-29-2022,8-41-21,71,depth_duration_stimuli/003492_2014-05-21_15-50-55_094959634447_rgbf000828-resize_1/003492_2014-05-21_15-50-55_094959634447_rgbf000828-resize_1-target.png,1000,4.06875,12,4933,1001,feet,jsons/v1_VE1000_randls_61.json,1869339,2597719,26,Woman
71,466947,DepthScenes,duration_manipulation_targetAtFixation,jsons/v1_VE1000_randls_61.json,http://54.235.29.9/FacialAge/BNav_EC2/DepthDuration/v2_depth_duration_MTurk/v2_DepthDuration_HTML.html#75,75,1366,657,1366,768,8-29-2022,8-41-21,72,depth_duration_stimuli/002568_2014-06-24_13-59-21_094959634447_rgbf000062-resize_4/002568_2014-06-24_13-59-21_094959634447_rgbf000062-resize_4-target.png,1000,3.015,11,7542,998,feet,jsons/v1_VE1000_randls_61.json,1869339,2597719,26,Woman
72,466947,DepthScenes,duration_manipulation_targetAtFixation,jsons/v1_VE1000_randls_61.json,http://54.235.29.9/FacialAge/BNav_EC2/DepthDuration/v2_depth_duration_MTurk/v2_DepthDuration_HTML.html#75,75,1366,657,1366,768,8-29-2022,8-41-21,73,depth_duration_stimuli/002763_2014-06-22_19-13-10_094959634447_rgbf000075-resize_4/002763_2014-06-22_19-13-10_094959634447_rgbf000075-resize_4-target.png,1000,1.68375,8,12965,1000,feet,jsons/v1_VE1000_randls_61.json,1869339,2597719,26,Woman
73,466947,DepthScenes,duration_manipulation_targetAtFixation,jsons/v1_VE1000_randls_61.json,http://54.235.29.9/FacialAge/BNav_EC2/DepthDuration/v2_depth_duration_MTurk/v2_DepthDuration_HTML.html#75,75,1366,657,1366,768,8-29-2022,8-41-21,74,depth_duration_stimuli/002209_2014-06-28_18-36-10_260595134347_rgbf000051-resize_1/002209_2014-06-28_18-36-10_260595134347_rgbf000051-resize_1-target.png,1000,2.057,6,4500,1001,feet,jsons/v1_VE1000_randls_61.json,1869339,2597719,26,Woman
74,466947,DepthScenes,duration_manipulation_targetAtFixation,jsons/v1_VE1000_randls_61.json,http://54.235.29.9/FacialAge/BNav_EC2/DepthDuration/v2_depth_duration_MTurk/v2_DepthDuration_HTML.html#75,75,1366,657,1366,768,8-29-2022,8-41-21,75,depth_duration_stimuli/001808_2014-06-26_20-50-58_260595134347_rgbf000029-resize_1/001808_2014-06-26_20-50-58_260595134347_rgbf000029-resize_1-target.png,1000,4.249,11,4560,1001,feet,jsons/v1_VE1000_randls_61.json,1869339,2597719,26,Woman
75,466947,DepthScenes,duration_manipulation_targetAtFixation,jsons/v1_VE1000_randls_61.json,http://54.235.29.9/FacialAge/BNav_EC2/DepthDuration/v2_depth_duration_MTurk/v2_DepthDuration_HTML.html#75,75,1366,657,1366,768,8-29-2022,8-41-21,76,depth_duration_stimuli/001815_2014-06-26_20-52-55_260595134347_rgbf000020-resize_0/001815_2014-06-26_20-52-55_260595134347_rgbf000020-resize_0-target.png,1000,3.3865,12,4228,999,feet,jsons/v1_VE1000_randls_61.json,1869339,2597719,26,Woman
76,466947,DepthScenes,duration_manipulation_targetAtFixation,jsons/v1_VE1000_randls_61.json,http://54.235.29.9/FacialAge/BNav_EC2/DepthDuration/v2_depth_duration_MTurk/v2_DepthDuration_HTML.html#75,75,1366,657,1366,768,8-29-2022,8-41-21,77,depth_duration_stimuli/000788_2014-06-08_22-34-36_260595134347_rgbf000131-resize_1/000788_2014-06-08_22-34-36_260595134347_rgbf000131-resize_1-target.png,1000,3.359,12,4409,1001,feet,jsons/v1_VE1000_randls_61.json,1869339,2597719,26,Woman
77,466947,DepthScenes,duration_manipulation_targetAtFixation,jsons/v1_VE1000_randls_61.json,http://54.235.29.9/FacialAge/BNav_EC2/DepthDuration/v2_depth_duration_MTurk/v2_DepthDuration_HTML.html#75,75,1366,657,1366,768,8-29-2022,8-41-21,78,depth_duration_stimuli/001235_2014-06-17_16-37-36_260595134347_rgbf000084-resize_4/001235_2014-06-17_16-37-36_260595134347_rgbf000084-resize_4-target.png,1000,3.6605,13,4796,999,feet,jsons/v1_VE1000_randls_61.json,1869339,2597719,26,Woman
78,466947,DepthScenes,duration_manipulation_targetAtFixation,jsons/v1_VE1000_randls_61.json,http://54.235.29.9/FacialAge/BNav_EC2/DepthDuration/v2_depth_duration_MTurk/v2_DepthDuration_HTML.html#75,75,1366,657,1366,768,8-29-2022,8-41-21,79,depth_duration_stimuli/000470_2014-06-09_19-42-40_260595134347_rgbf000094-resize_1/000470_2014-06-09_19-42-40_260595134347_rgbf000094-resize_1-target.png,1000,1.831,7,4699,998,feet,jsons/v1_VE1000_randls_61.json,1869339,2597719,26,Woman
79,466947,DepthScenes,duration_manipulation_targetAtFixation,jsons/v1_VE1000_randls_61.json,http://54.235.29.9/FacialAge/BNav_EC2/DepthDuration/v2_depth_duration_MTurk/v2_DepthDuration_HTML.html#75,75,1366,657,1366,768,8-29-2022,8-41-21,80,depth_duration_stimuli/000109_2014-05-14_23-41-52_260595134347_rgbf000035-resize_9/000109_2014-05-14_23-41-52_260595134347_rgbf000035-resize_9-target.png,1000,1.3545,3,15099,1001,feet,jsons/v1_VE1000_randls_61.json,1869339,2597719,26,Woman
80,466947,DepthScenes,duration_manipulation_targetAtFixation,jsons/v1_VE1000_randls_61.json,http://54.235.29.9/FacialAge/BNav_EC2/DepthDuration/v2_depth_duration_MTurk/v2_DepthDuration_HTML.html#75,75,1366,657,1366,768,8-29-2022,8-41-21,81,depth_duration_stimuli/001150_2014-06-17_15-27-34_260595134347_rgbf000108-resize_2/001150_2014-06-17_15-27-34_260595134347_rgbf000108-resize_2-target.png,1000,4.0325,14,4639,1000,feet,jsons/v1_VE1000_randls_61.json,1869339,2597719,26,Woman
81,466947,DepthScenes,duration_manipulation_targetAtFixation,jsons/v1_VE1000_randls_61.json,http://54.235.29.9/FacialAge/BNav_EC2/DepthDuration/v2_depth_duration_MTurk/v2_DepthDuration_HTML.html#75,75,1366,657,1366,768,8-29-2022,8-41-21,82,depth_duration_stimuli/000665_2014-06-09_20-42-35_260595134347_rgbf000110-resize_1/000665_2014-06-09_20-42-35_260595134347_rgbf000110-resize_1-target.png,1000,3.057,7,4496,999,feet,jsons/v1_VE1000_randls_61.json,1869339,2597719,26,Woman
82,466947,DepthScenes,duration_manipulation_targetAtFixation,jsons/v1_VE1000_randls_61.json,http://54.235.29.9/FacialAge/BNav_EC2/DepthDuration/v2_depth_duration_MTurk/v2_DepthDuration_HTML.html#75,75,1366,657,1366,768,8-29-2022,8-41-21,83,depth_duration_stimuli/000522_2014-06-08_13-35-06_260595134347_rgbf000244-resize_1/000522_2014-06-08_13-35-06_260595134347_rgbf000244-resize_1-target.png,1000,2.3715,6,11629,1000,feet,jsons/v1_VE1000_randls_61.json,1869339,2597719,26,Woman
83,466947,DepthScenes,duration_manipulation_targetAtFixation,jsons/v1_VE1000_randls_61.json,http://54.235.29.9/FacialAge/BNav_EC2/DepthDuration/v2_depth_duration_MTurk/v2_DepthDuration_HTML.html#75,75,1366,657,1366,768,8-29-2022,8-41-21,84,depth_duration_stimuli/002949_2014-06-26_15-57-42_094959634447_rgbf000079-resize_1/002949_2014-06-26_15-57-42_094959634447_rgbf000079-resize_1-target.png,1000,1.8915,9,4030,1000,feet,jsons/v1_VE1000_randls_61.json,1869339,2597719,26,Woman
84,466947,DepthScenes,duration_manipulation_targetAtFixation,jsons/v1_VE1000_randls_61.json,http://54.235.29.9/FacialAge/BNav_EC2/DepthDuration/v2_depth_duration_MTurk/v2_DepthDuration_HTML.html#75,75,1366,657,1366,768,8-29-2022,8-41-21,85,depth_duration_stimuli/000929_2014-06-09_16-33-19_260595134347_rgbf000139-resize_0/000929_2014-06-09_16-33-19_260595134347_rgbf000139-resize_0-target.png,1000,2.8680000000000003,10,4369,1002,feet,jsons/v1_VE1000_randls_61.json,1869339,2597719,26,Woman
85,466947,DepthScenes,duration_manipulation_targetAtFixation,jsons/v1_VE1000_randls_61.json,http://54.235.29.9/FacialAge/BNav_EC2/DepthDuration/v2_depth_duration_MTurk/v2_DepthDuration_HTML.html#75,75,1366,657,1366,768,8-29-2022,8-41-21,86,depth_duration_stimuli/000457_2014-06-08_16-52-43_260595134347_rgbf000199-resize_1/000457_2014-06-08_16-52-43_260595134347_rgbf000199-resize_1-target.png,1000,3.6489999999999996,9,4247,999,feet,jsons/v1_VE1000_randls_61.json,1869339,2597719,26,Woman
86,466947,DepthScenes,duration_manipulation_targetAtFixation,jsons/v1_VE1000_randls_61.json,http://54.235.29.9/FacialAge/BNav_EC2/DepthDuration/v2_depth_duration_MTurk/v2_DepthDuration_HTML.html#75,75,1366,657,1366,768,8-29-2022,8-41-21,87,depth_duration_stimuli/001555_2014-06-20_17-12-10_260595134347_rgbf000065-resize_4/001555_2014-06-20_17-12-10_260595134347_rgbf000065-resize_4-target.png,1000,1.633,7,4430,1000,feet,jsons/v1_VE1000_randls_61.json,1869339,2597719,26,Woman
87,466947,DepthScenes,duration_manipulation_targetAtFixation,jsons/v1_VE1000_randls_61.json,http://54.235.29.9/FacialAge/BNav_EC2/DepthDuration/v2_depth_duration_MTurk/v2_DepthDuration_HTML.html#75,75,1366,657,1366,768,8-29-2022,8-41-21,88,depth_duration_stimuli/000103_2014-05-14_22-01-17_260595134347_rgbf000152-resize_5/000103_2014-05-14_22-01-17_260595134347_rgbf000152-resize_5-target.png,1000,1.993,8,4038,1000,feet,jsons/v1_VE1000_randls_61.json,1869339,2597719,26,Woman
88,466947,DepthScenes,duration_manipulation_targetAtFixation,jsons/v1_VE1000_randls_61.json,http://54.235.29.9/FacialAge/BNav_EC2/DepthDuration/v2_depth_duration_MTurk/v2_DepthDuration_HTML.html#75,75,1366,657,1366,768,8-29-2022,8-41-21,89,depth_duration_stimuli/002989_2014-06-15_12-25-03_094959634447_rgbf000150-resize_3/002989_2014-06-15_12-25-03_094959634447_rgbf000150-resize_3-target.png,1000,4.1975,18,4828,999,feet,jsons/v1_VE1000_randls_61.json,1869339,2597719,26,Woman
89,466947,DepthScenes,duration_manipulation_targetAtFixation,jsons/v1_VE1000_randls_61.json,http://54.235.29.9/FacialAge/BNav_EC2/DepthDuration/v2_depth_duration_MTurk/v2_DepthDuration_HTML.html#75,75,1366,657,1366,768,8-29-2022,8-41-21,90,depth_duration_stimuli/000866_2014-06-09_20-45-42_260595134347_rgbf000139-resize_1/000866_2014-06-09_20-45-42_260595134347_rgbf000139-resize_1-target.png,1000,3.2155,11,7711,1001,feet,jsons/v1_VE1000_randls_61.json,1869339,2597719,26,Woman
90,466947,DepthScenes,duration_manipulation_targetAtFixation,jsons/v1_VE1000_randls_61.json,http://54.235.29.9/FacialAge/BNav_EC2/DepthDuration/v2_depth_duration_MTurk/v2_DepthDuration_HTML.html#75,75,1366,657,1366,768,8-29-2022,8-41-21,91,depth_duration_stimuli/001806_2014-06-26_20-50-20_260595134347_rgbf000091-resize_1/001806_2014-06-26_20-50-20_260595134347_rgbf000091-resize_1-target.png,1000,2.7305,6,3856,999,feet,jsons/v1_VE1000_randls_61.json,1869339,2597719,26,Woman
91,466947,DepthScenes,duration_manipulation_targetAtFixation,jsons/v1_VE1000_randls_61.json,http://54.235.29.9/FacialAge/BNav_EC2/DepthDuration/v2_depth_duration_MTurk/v2_DepthDuration_HTML.html#75,75,1366,657,1366,768,8-29-2022,8-41-21,92,depth_duration_stimuli/001617_2014-06-20_11-35-32_260595134347_rgbf000066-resize_1/001617_2014-06-20_11-35-32_260595134347_rgbf000066-resize_1-target.png,1000,3.7910000000000004,16,4767,999,feet,jsons/v1_VE1000_randls_61.json,1869339,2597719,26,Woman
92,466947,DepthScenes,duration_manipulation_targetAtFixation,jsons/v1_VE1000_randls_61.json,http://54.235.29.9/FacialAge/BNav_EC2/DepthDuration/v2_depth_duration_MTurk/v2_DepthDuration_HTML.html#75,75,1366,657,1366,768,8-29-2022,8-41-21,93,depth_duration_stimuli/000736_2014-06-08_18-24-15_260595134347_rgbf000206-resize_3/000736_2014-06-08_18-24-15_260595134347_rgbf000206-resize_3-target.png,1000,3.515,11,4508,1000,feet,jsons/v1_VE1000_randls_61.json,1869339,2597719,26,Woman
93,466947,DepthScenes,duration_manipulation_targetAtFixation,jsons/v1_VE1000_randls_61.json,http://54.235.29.9/FacialAge/BNav_EC2/DepthDuration/v2_depth_duration_MTurk/v2_DepthDuration_HTML.html#75,75,1366,657,1366,768,8-29-2022,8-41-21,94,depth_duration_stimuli/000137_2014-05-20_17-04-49_260595134347_rgbf000120-resize_1/000137_2014-05-20_17-04-49_260595134347_rgbf000120-resize_1-target.png,1000,3.786,17,4369,999,feet,jsons/v1_VE1000_randls_61.json,1869339,2597719,26,Woman
94,466947,DepthScenes,duration_manipulation_targetAtFixation,jsons/v1_VE1000_randls_61.json,http://54.235.29.9/FacialAge/BNav_EC2/DepthDuration/v2_depth_duration_MTurk/v2_DepthDuration_HTML.html#75,75,1366,657,1366,768,8-29-2022,8-41-21,95,depth_duration_stimuli/002509_2014-06-24_13-19-22_094959634447_rgbf000077-resize_0/002509_2014-06-24_13-19-22_094959634447_rgbf000077-resize_0-target.png,1000,1.3065,17,4619,999,feet,jsons/v1_VE1000_randls_61.json,1869339,2597719,26,Woman
95,466947,DepthScenes,duration_manipulation_targetAtFixation,jsons/v1_VE1000_randls_61.json,http://54.235.29.9/FacialAge/BNav_EC2/DepthDuration/v2_depth_duration_MTurk/v2_DepthDuration_HTML.html#75,75,1366,657,1366,768,8-29-2022,8-41-21,96,depth_duration_stimuli/003338_2014-05-20_11-01-23_094959634447_rgbf000051-resize_6/003338_2014-05-20_11-01-23_094959634447_rgbf000051-resize_6-target.png,1000,1.693,5,8700,1000,feet,jsons/v1_VE1000_randls_61.json,1869339,2597719,26,Woman
96,466947,DepthScenes,duration_manipulation_targetAtFixation,jsons/v1_VE1000_randls_61.json,http://54.235.29.9/FacialAge/BNav_EC2/DepthDuration/v2_depth_duration_MTurk/v2_DepthDuration_HTML.html#75,75,1366,657,1366,768,8-29-2022,8-41-21,97,depth_duration_stimuli/001417_2014-06-19_16-25-36_260595134347_rgbf000115-resize_5/001417_2014-06-19_16-25-36_260595134347_rgbf000115-resize_5-target.png,1000,4.6255,16,4887,1000,feet,jsons/v1_VE1000_randls_61.json,1869339,2597719,26,Woman
97,466947,DepthScenes,duration_manipulation_targetAtFixation,jsons/v1_VE1000_randls_61.json,http://54.235.29.9/FacialAge/BNav_EC2/DepthDuration/v2_depth_duration_MTurk/v2_DepthDuration_HTML.html#75,75,1366,657,1366,768,8-29-2022,8-41-21,98,depth_duration_stimuli/003081_2014-06-15_15-19-16_094959634447_rgbf000150-resize_1/003081_2014-06-15_15-19-16_094959634447_rgbf000150-resize_1-target.png,1000,3.9125,17,4865,1000,feet,jsons/v1_VE1000_randls_61.json,1869339,2597719,26,Woman
98,466947,DepthScenes,duration_manipulation_targetAtFixation,jsons/v1_VE1000_randls_61.json,http://54.235.29.9/FacialAge/BNav_EC2/DepthDuration/v2_depth_duration_MTurk/v2_DepthDuration_HTML.html#75,75,1366,657,1366,768,8-29-2022,8-41-21,99,depth_duration_stimuli/001540_2014-06-20_17-01-05_260595134347_rgbf000086-resize_2/001540_2014-06-20_17-01-05_260595134347_rgbf000086-resize-original.jpg,1000,1.459,0,3894,999,feet,jsons/v1_VE1000_randls_61.json,1869339,2597719,26,Woman
99,466947,DepthScenes,duration_manipulation_targetAtFixation,jsons/v1_VE1000_randls_61.json,http://54.235.29.9/FacialAge/BNav_EC2/DepthDuration/v2_depth_duration_MTurk/v2_DepthDuration_HTML.html#75,75,1366,657,1366,768,8-29-2022,8-41-21,100,depth_duration_stimuli/002663_2014-06-13_15-50-26_094959634447_rgbf000075-resize_1/002663_2014-06-13_15-50-26_094959634447_rgbf000075-resize_1-target.png,1000,4.7495,15,19812,999,feet,jsons/v1_VE1000_randls_61.json,1869339,2597719,26,Woman
100,466947,DepthScenes,duration_manipulation_targetAtFixation,jsons/v1_VE1000_randls_61.json,http://54.235.29.9/FacialAge/BNav_EC2/DepthDuration/v2_depth_duration_MTurk/v2_DepthDuration_HTML.html#75,75,1366,657,1366,768,8-29-2022,8-41-21,101,depth_duration_stimuli/000409_2014-06-04_19-23-33_260595134347_rgbf000067-resize_0/000409_2014-06-04_19-23-33_260595134347_rgbf000067-resize_0-target.png,1000,3.7335,10,6925,1001,feet,jsons/v1_VE1000_randls_61.json,1869339,2597719,26,Woman
101,466947,DepthScenes,duration_manipulation_targetAtFixation,jsons/v1_VE1000_randls_61.json,http://54.235.29.9/FacialAge/BNav_EC2/DepthDuration/v2_depth_duration_MTurk/v2_DepthDuration_HTML.html#75,75,1366,657,1366,768,8-29-2022,8-41-21,102,depth_duration_stimuli/002043_2014-06-24_20-29-38_260595134347_rgbf000039-resize_4/002043_2014-06-24_20-29-38_260595134347_rgbf000039-resize_4-target.png,1000,2.8435,15,5640,999,feet,jsons/v1_VE1000_randls_61.json,1869339,2597719,26,Woman
102,466947,DepthScenes,duration_manipulation_targetAtFixation,jsons/v1_VE1000_randls_61.json,http://54.235.29.9/FacialAge/BNav_EC2/DepthDuration/v2_depth_duration_MTurk/v2_DepthDuration_HTML.html#75,75,1366,657,1366,768,8-29-2022,8-41-21,103,depth_duration_stimuli/003048_2014-06-15_13-49-43_094959634447_rgbf000150-resize_1/003048_2014-06-15_13-49-43_094959634447_rgbf000150-resize_1-target.png,1000,4.0035,15,5034,999,feet,jsons/v1_VE1000_randls_61.json,1869339,2597719,26,Woman
103,466947,DepthScenes,duration_manipulation_targetAtFixation,jsons/v1_VE1000_randls_61.json,http://54.235.29.9/FacialAge/BNav_EC2/DepthDuration/v2_depth_duration_MTurk/v2_DepthDuration_HTML.html#75,75,1366,657,1366,768,8-29-2022,8-41-21,104,depth_duration_stimuli/000414_2014-06-04_19-49-13_260595134347_rgbf000044-resize_0/000414_2014-06-04_19-49-13_260595134347_rgbf000044-resize_0-target.png,1000,4.329,10,5480,998,feet,jsons/v1_VE1000_randls_61.json,1869339,2597719,26,Woman
104,466947,DepthScenes,duration_manipulation_targetAtFixation,jsons/v1_VE1000_randls_61.json,http://54.235.29.9/FacialAge/BNav_EC2/DepthDuration/v2_depth_duration_MTurk/v2_DepthDuration_HTML.html#75,75,1366,657,1366,768,8-29-2022,8-41-21,105,depth_duration_stimuli/003129_2014-05-12_10-48-10_094959634447_rgbf000100-resize_0/003129_2014-05-12_10-48-10_094959634447_rgbf000100-resize_0-target.png,1000,4.9305,16,4920,999,feet,jsons/v1_VE1000_randls_61.json,1869339,2597719,26,Woman
105,466947,DepthScenes,duration_manipulation_targetAtFixation,jsons/v1_VE1000_randls_61.json,http://54.235.29.9/FacialAge/BNav_EC2/DepthDuration/v2_depth_duration_MTurk/v2_DepthDuration_HTML.html#75,75,1366,657,1366,768,8-29-2022,8-41-21,106,depth_duration_stimuli/002748_2014-06-22_19-07-22_094959634447_rgbf000078-resize_1/002748_2014-06-22_19-07-22_094959634447_rgbf000078-resize_1-target.png,1000,4.6705,19,8406,1000,feet,jsons/v1_VE1000_randls_61.json,1869339,2597719,26,Woman
106,466947,DepthScenes,duration_manipulation_targetAtFixation,jsons/v1_VE1000_randls_61.json,http://54.235.29.9/FacialAge/BNav_EC2/DepthDuration/v2_depth_duration_MTurk/v2_DepthDuration_HTML.html#75,75,1366,657,1366,768,8-29-2022,8-41-21,107,depth_duration_stimuli/002995_2014-06-15_12-31-26_094959634447_rgbf000150-resize_1/002995_2014-06-15_12-31-26_094959634447_rgbf000150-resize_1-target.png,1000,3.8360000000000003,15,28140,1000,feet,jsons/v1_VE1000_randls_61.json,1869339,2597719,26,Woman
107,466947,DepthScenes,duration_manipulation_targetAtFixation,jsons/v1_VE1000_randls_61.json,http://54.235.29.9/FacialAge/BNav_EC2/DepthDuration/v2_depth_duration_MTurk/v2_DepthDuration_HTML.html#75,75,1366,657,1366,768,8-29-2022,8-41-21,108,depth_duration_stimuli/000917_2014-06-09_22-45-29_260595134347_rgbf000149-resize_3/000917_2014-06-09_22-45-29_260595134347_rgbf000149-resize_3-target.png,1000,4.1865,20,5055,999,feet,jsons/v1_VE1000_randls_61.json,1869339,2597719,26,Woman
108,466947,DepthScenes,duration_manipulation_targetAtFixation,jsons/v1_VE1000_randls_61.json,http://54.235.29.9/FacialAge/BNav_EC2/DepthDuration/v2_depth_duration_MTurk/v2_DepthDuration_HTML.html#75,75,1366,657,1366,768,8-29-2022,8-41-21,109,depth_duration_stimuli/002323_2014-06-28_20-01-54_260595134347_rgbf000051-resize_4/002323_2014-06-28_20-01-54_260595134347_rgbf000051-resize_4-target.png,1000,3.7310000000000003,18,7201,1001,feet,jsons/v1_VE1000_randls_61.json,1869339,2597719,26,Woman
109,466947,DepthScenes,duration_manipulation_targetAtFixation,jsons/v1_VE1000_randls_61.json,http://54.235.29.9/FacialAge/BNav_EC2/DepthDuration/v2_depth_duration_MTurk/v2_DepthDuration_HTML.html#75,75,1366,657,1366,768,8-29-2022,8-41-21,110,depth_duration_stimuli/000368_2014-06-09_15-53-01_260595134347_rgbf000155-resize_2/000368_2014-06-09_15-53-01_260595134347_rgbf000155-resize_2-target.png,1000,2.4859999999999998,8,115942,1000,feet,jsons/v1_VE1000_randls_61.json,1869339,2597719,26,Woman
110,466947,DepthScenes,duration_manipulation_targetAtFixation,jsons/v1_VE1000_randls_61.json,http://54.235.29.9/FacialAge/BNav_EC2/DepthDuration/v2_depth_duration_MTurk/v2_DepthDuration_HTML.html#75,75,1366,657,1366,768,8-29-2022,8-41-21,111,depth_duration_stimuli/002678_2014-06-13_16-15-32_094959634447_rgbf000151-resize_6/002678_2014-06-13_16-15-32_094959634447_rgbf000151-resize_6-target.png,1000,2.1830000000000003,10,5036,999,feet,jsons/v1_VE1000_randls_61.json,1869339,2597719,26,Woman
111,466947,DepthScenes,duration_manipulation_targetAtFixation,jsons/v1_VE1000_randls_61.json,http://54.235.29.9/FacialAge/BNav_EC2/DepthDuration/v2_depth_duration_MTurk/v2_DepthDuration_HTML.html#75,75,1366,657,1366,768,8-29-2022,8-41-21,112,depth_duration_stimuli/003621_2014-05-23_18-06-08_094959634447_rgbf000101-resize_1/003621_2014-05-23_18-06-08_094959634447_rgbf000101-resize_1-target.png,1000,3.9835,12,4816,999,feet,jsons/v1_VE1000_randls_61.json,1869339,2597719,26,Woman
112,466947,DepthScenes,duration_manipulation_targetAtFixation,jsons/v1_VE1000_randls_61.json,http://54.235.29.9/FacialAge/BNav_EC2/DepthDuration/v2_depth_duration_MTurk/v2_DepthDuration_HTML.html#75,75,1366,657,1366,768,8-29-2022,8-41-21,113,depth_duration_stimuli/001584_2014-06-20_11-07-43_260595134347_rgbf000002-resize_1/001584_2014-06-20_11-07-43_260595134347_rgbf000002-resize_1-target.png,1000,3.53,15,4859,999,feet,jsons/v1_VE1000_randls_61.json,1869339,2597719,26,Woman
113,466947,DepthScenes,duration_manipulation_targetAtFixation,jsons/v1_VE1000_randls_61.json,http://54.235.29.9/FacialAge/BNav_EC2/DepthDuration/v2_depth_duration_MTurk/v2_DepthDuration_HTML.html#75,75,1366,657,1366,768,8-29-2022,8-41-21,114,depth_duration_stimuli/000878_2014-06-08_22-52-45_260595134347_rgbf000045-resize_2/000878_2014-06-08_22-52-45_260595134347_rgbf000045-resize_2-target.png,1000,2.092,16,5156,999,feet,jsons/v1_VE1000_randls_61.json,1869339,2597719,26,Woman
114,466947,DepthScenes,duration_manipulation_targetAtFixation,jsons/v1_VE1000_randls_61.json,http://54.235.29.9/FacialAge/BNav_EC2/DepthDuration/v2_depth_duration_MTurk/v2_DepthDuration_HTML.html#75,75,1366,657,1366,768,8-29-2022,8-41-21,115,depth_duration_stimuli/002953_2014-06-08_17-32-18_094959634447_rgbf000059-resize_5/002953_2014-06-08_17-32-18_094959634447_rgbf000059-resize_5-target.png,1000,1.551,4,3849,1001,feet,jsons/v1_VE1000_randls_61.json,1869339,2597719,26,Woman
115,466947,DepthScenes,duration_manipulation_targetAtFixation,jsons/v1_VE1000_randls_61.json,http://54.235.29.9/FacialAge/BNav_EC2/DepthDuration/v2_depth_duration_MTurk/v2_DepthDuration_HTML.html#75,75,1366,657,1366,768,8-29-2022,8-41-21,116,depth_duration_stimuli/001170_2014-06-17_15-43-44_260595134347_rgbf000096-resize_6/001170_2014-06-17_15-43-44_260595134347_rgbf000096-resize-original.jpg,1000,1.1909999999999998,0,5719,999,feet,jsons/v1_VE1000_randls_61.json,1869339,2597719,26,Woman
116,466947,DepthScenes,duration_manipulation_targetAtFixation,jsons/v1_VE1000_randls_61.json,http://54.235.29.9/FacialAge/BNav_EC2/DepthDuration/v2_depth_duration_MTurk/v2_DepthDuration_HTML.html#75,75,1366,657,1366,768,8-29-2022,8-41-21,117,depth_duration_stimuli/001164_2014-06-17_15-35-46_260595134347_rgbf000085-resize_3/001164_2014-06-17_15-35-46_260595134347_rgbf000085-resize_3-target.png,1000,2.354,14,4528,999,feet,jsons/v1_VE1000_randls_61.json,1869339,2597719,26,Woman
117,466947,DepthScenes,duration_manipulation_targetAtFixation,jsons/v1_VE1000_randls_61.json,http://54.235.29.9/FacialAge/BNav_EC2/DepthDuration/v2_depth_duration_MTurk/v2_DepthDuration_HTML.html#75,75,1366,657,1366,768,8-29-2022,8-41-21,118,depth_duration_stimuli/001136_2014-06-17_15-19-41_260595134347_rgbf000076-resize_3/001136_2014-06-17_15-19-41_260595134347_rgbf000076-resize_3-target.png,1000,1.8655,10,4017,1001,feet,jsons/v1_VE1000_randls_61.json,1869339,2597719,26,Woman
118,466947,DepthScenes,duration_manipulation_targetAtFixation,jsons/v1_VE1000_randls_61.json,http://54.235.29.9/FacialAge/BNav_EC2/DepthDuration/v2_depth_duration_MTurk/v2_DepthDuration_HTML.html#75,75,1366,657,1366,768,8-29-2022,8-41-21,119,depth_duration_stimuli/000009_2014-05-26_14-32-05_260595134347_rgbf000034-resize_3/000009_2014-05-26_14-32-05_260595134347_rgbf000034-resize_3-target.png,1000,3.8715,9,219991,1000,feet,jsons/v1_VE1000_randls_61.json,1869339,2597719,26,Woman
119,466947,DepthScenes,duration_manipulation_targetAtFixation,jsons/v1_VE1000_randls_61.json,http://54.235.29.9/FacialAge/BNav_EC2/DepthDuration/v2_depth_duration_MTurk/v2_DepthDuration_HTML.html#75,75,1366,657,1366,768,8-29-2022,8-41-21,120,depth_duration_stimuli/001828_2014-06-26_21-40-03_260595134347_rgbf000024-resize_0/001828_2014-06-26_21-40-03_260595134347_rgbf000024-resize_0-target.png,1000,4.8260000000000005,7,5428,1000,feet,jsons/v1_VE1000_randls_61.json,1869339,2597719,26,Woman
120,466947,DepthScenes,duration_manipulation_targetAtFixation,jsons/v1_VE1000_randls_61.json,http://54.235.29.9/FacialAge/BNav_EC2/DepthDuration/v2_depth_duration_MTurk/v2_DepthDuration_HTML.html#75,75,1366,657,1366,768,8-29-2022,8-41-21,121,depth_duration_stimuli/001133_2014-06-17_14-49-16_260595134347_rgbf000100-resize_0/001133_2014-06-17_14-49-16_260595134347_rgbf000100-resize_0-target.png,1000,4.2115,9,4279,1000,feet,jsons/v1_VE1000_randls_61.json,1869339,2597719,26,Woman
121,466947,DepthScenes,duration_manipulation_targetAtFixation,jsons/v1_VE1000_randls_61.json,http://54.235.29.9/FacialAge/BNav_EC2/DepthDuration/v2_depth_duration_MTurk/v2_DepthDuration_HTML.html#75,75,1366,657,1366,768,8-29-2022,8-41-21,122,depth_duration_stimuli/001132_2014-06-17_14-48-54_260595134347_rgbf000100-resize_2/001132_2014-06-17_14-48-54_260595134347_rgbf000100-resize_2-target.png,1000,3.753,15,4249,1001,feet,jsons/v1_VE1000_randls_61.json,1869339,2597719,26,Woman
122,466947,DepthScenes,duration_manipulation_targetAtFixation,jsons/v1_VE1000_randls_61.json,http://54.235.29.9/FacialAge/BNav_EC2/DepthDuration/v2_depth_duration_MTurk/v2_DepthDuration_HTML.html#75,75,1366,657,1366,768,8-29-2022,8-41-21,123,depth_duration_stimuli/003292_2014-05-14_21-53-49_094959634447_rgbf000100-resize_2/003292_2014-05-14_21-53-49_094959634447_rgbf000100-resize_2-target.png,1000,3.4815,14,4270,999,feet,jsons/v1_VE1000_randls_61.json,1869339,2597719,26,Woman
123,466947,DepthScenes,duration_manipulation_targetAtFixation,jsons/v1_VE1000_randls_61.json,http://54.235.29.9/FacialAge/BNav_EC2/DepthDuration/v2_depth_duration_MTurk/v2_DepthDuration_HTML.html#75,75,1366,657,1366,768,8-29-2022,8-41-21,124,depth_duration_stimuli/002639_2014-06-24_14-51-37_094959634447_rgbf000074-resize_4/002639_2014-06-24_14-51-37_094959634447_rgbf000074-resize_4-target.png,1000,4.0375,20,3666,999,feet,jsons/v1_VE1000_randls_61.json,1869339,2597719,26,Woman
124,466947,DepthScenes,duration_manipulation_targetAtFixation,jsons/v1_VE1000_randls_61.json,http://54.235.29.9/FacialAge/BNav_EC2/DepthDuration/v2_depth_duration_MTurk/v2_DepthDuration_HTML.html#75,75,1366,657,1366,768,8-29-2022,8-41-21,125,depth_duration_stimuli/001167_2014-06-17_15-38-07_260595134347_rgbf000108-resize_0/001167_2014-06-17_15-38-07_260595134347_rgbf000108-resize_0-target.png,1000,1.8505,12,6156,999,feet,jsons/v1_VE1000_randls_61.json,1869339,2597719,26,Woman
125,466947,DepthScenes,duration_manipulation_targetAtFixation,jsons/v1_VE1000_randls_61.json,http://54.235.29.9/FacialAge/BNav_EC2/DepthDuration/v2_depth_duration_MTurk/v2_DepthDuration_HTML.html#75,75,1366,657,1366,768,8-29-2022,8-41-21,126,depth_duration_stimuli/003587_2014-05-23_16-48-02_094959634447_rgbf002384-resize_2/003587_2014-05-23_16-48-02_094959634447_rgbf002384-resize_2-target.png,1000,1.357,3,4603,1001,feet,jsons/v1_VE1000_randls_61.json,1869339,2597719,26,Woman
126,466947,DepthScenes,duration_manipulation_targetAtFixation,jsons/v1_VE1000_randls_61.json,http://54.235.29.9/FacialAge/BNav_EC2/DepthDuration/v2_depth_duration_MTurk/v2_DepthDuration_HTML.html#75,75,1366,657,1366,768,8-29-2022,8-41-21,127,depth_duration_stimuli/001158_2014-06-17_15-32-16_260595134347_rgbf000138-resize_2/001158_2014-06-17_15-32-16_260595134347_rgbf000138-resize_2-target.png,1000,4.5315,15,5418,1000,feet,jsons/v1_VE1000_randls_61.json,1869339,2597719,26,Woman
127,466947,DepthScenes,duration_manipulation_targetAtFixation,jsons/v1_VE1000_randls_61.json,http://54.235.29.9/FacialAge/BNav_EC2/DepthDuration/v2_depth_duration_MTurk/v2_DepthDuration_HTML.html#75,75,1366,657,1366,768,8-29-2022,8-41-21,128,depth_duration_stimuli/000556_2014-06-09_22-42-56_260595134347_rgbf000214-resize_1/000556_2014-06-09_22-42-56_260595134347_rgbf000214-resize_1-target.png,1000,4.8415,14,9049,1000,feet,jsons/v1_VE1000_randls_61.json,1869339,2597719,26,Woman
128,466947,DepthScenes,duration_manipulation_targetAtFixation,jsons/v1_VE1000_randls_61.json,http://54.235.29.9/FacialAge/BNav_EC2/DepthDuration/v2_depth_duration_MTurk/v2_DepthDuration_HTML.html#75,75,1366,657,1366,768,8-29-2022,8-41-21,129,depth_duration_stimuli/000469_2014-06-09_19-42-10_260595134347_rgbf000081-resize_1/000469_2014-06-09_19-42-10_260595134347_rgbf000081-resize_1-target.png,1000,1.652,6,4438,998,feet,jsons/v1_VE1000_randls_61.json,1869339,2597719,26,Woman
129,466947,DepthScenes,duration_manipulation_targetAtFixation,jsons/v1_VE1000_randls_61.json,http://54.235.29.9/FacialAge/BNav_EC2/DepthDuration/v2_depth_duration_MTurk/v2_DepthDuration_HTML.html#75,75,1366,657,1366,768,8-29-2022,8-41-21,130,depth_duration_stimuli/000483_2014-06-09_20-41-45_260595134347_rgbf000116-resize_4/000483_2014-06-09_20-41-45_260595134347_rgbf000116-resize_4-target.png,1000,1.337,7,4658,999,feet,jsons/v1_VE1000_randls_61.json,1869339,2597719,26,Woman
130,466947,DepthScenes,duration_manipulation_targetAtFixation,jsons/v1_VE1000_randls_61.json,http://54.235.29.9/FacialAge/BNav_EC2/DepthDuration/v2_depth_duration_MTurk/v2_DepthDuration_HTML.html#75,75,1366,657,1366,768,8-29-2022,8-41-21,131,depth_duration_stimuli/002272_2014-06-28_18-53-56_260595134347_rgbf000067-resize_2/002272_2014-06-28_18-53-56_260595134347_rgbf000067-resize_2-target.png,1000,1.138,4,7008,999,feet,jsons/v1_VE1000_randls_61.json,1869339,2597719,26,Woman
131,466947,DepthScenes,duration_manipulation_targetAtFixation,jsons/v1_VE1000_randls_61.json,http://54.235.29.9/FacialAge/BNav_EC2/DepthDuration/v2_depth_duration_MTurk/v2_DepthDuration_HTML.html#75,75,1366,657,1366,768,8-29-2022,8-41-21,132,depth_duration_stimuli/001571_2014-06-20_17-21-32_260595134347_rgbf000089-resize_1/001571_2014-06-20_17-21-32_260595134347_rgbf000089-resize_1-target.png,1000,1.86,10,4007,1001,feet,jsons/v1_VE1000_randls_61.json,1869339,2597719,26,Woman
132,466947,DepthScenes,duration_manipulation_targetAtFixation,jsons/v1_VE1000_randls_61.json,http://54.235.29.9/FacialAge/BNav_EC2/DepthDuration/v2_depth_duration_MTurk/v2_DepthDuration_HTML.html#75,75,1366,657,1366,768,8-29-2022,8-41-21,133,depth_duration_stimuli/000906_2014-06-08_13-35-43_260595134347_rgbf000155-resize_1/000906_2014-06-08_13-35-43_260595134347_rgbf000155-resize_1-target.png,1000,2.8489999999999998,18,49910,1000,feet,jsons/v1_VE1000_randls_61.json,1869339,2597719,26,Woman
133,466947,DepthScenes,duration_manipulation_targetAtFixation,jsons/v1_VE1000_randls_61.json,http://54.235.29.9/FacialAge/BNav_EC2/DepthDuration/v2_depth_duration_MTurk/v2_DepthDuration_HTML.html#75,75,1366,657,1366,768,8-29-2022,8-41-21,134,depth_duration_stimuli/002805_2014-06-22_19-54-03_094959634447_rgbf000079-resize_1/002805_2014-06-22_19-54-03_094959634447_rgbf000079-resize_1-target.png,1000,3.1439999999999997,20,4476,999,feet,jsons/v1_VE1000_randls_61.json,1869339,2597719,26,Woman
134,466947,DepthScenes,duration_manipulation_targetAtFixation,jsons/v1_VE1000_randls_61.json,http://54.235.29.9/FacialAge/BNav_EC2/DepthDuration/v2_depth_duration_MTurk/v2_DepthDuration_HTML.html#75,75,1366,657,1366,768,8-29-2022,8-41-21,135,depth_duration_stimuli/002072_2014-06-24_21-48-06_260595134347_rgbf000115-resize_0/002072_2014-06-24_21-48-06_260595134347_rgbf000115-resize-original.jpg,1000,4.702,0,21812,1001,feet,jsons/v1_VE1000_randls_61.json,1869339,2597719,26,Woman
135,466947,DepthScenes,duration_manipulation_targetAtFixation,jsons/v1_VE1000_randls_61.json,http://54.235.29.9/FacialAge/BNav_EC2/DepthDuration/v2_depth_duration_MTurk/v2_DepthDuration_HTML.html#75,75,1366,657,1366,768,8-29-2022,8-41-21,136,depth_duration_stimuli/001016_2014-06-09_16-16-10_260595134347_rgbf000112-resize_5/001016_2014-06-09_16-16-10_260595134347_rgbf000112-resize_5-target.png,1000,1.6565,9,6168,999,feet,jsons/v1_VE1000_randls_61.json,1869339,2597719,26,Woman
136,466947,DepthScenes,duration_manipulation_targetAtFixation,jsons/v1_VE1000_randls_61.json,http://54.235.29.9/FacialAge/BNav_EC2/DepthDuration/v2_depth_duration_MTurk/v2_DepthDuration_HTML.html#75,75,1366,657,1366,768,8-29-2022,8-41-21,137,depth_duration_stimuli/002340_2014-06-28_20-05-46_260595134347_rgbf000113-resize_0/002340_2014-06-28_20-05-46_260595134347_rgbf000113-resize_0-target.png,1000,2.4735,15,6026,1000,feet,jsons/v1_VE1000_randls_61.json,1869339,2597719,26,Woman
137,466947,DepthScenes,duration_manipulation_targetAtFixation,jsons/v1_VE1000_randls_61.json,http://54.235.29.9/FacialAge/BNav_EC2/DepthDuration/v2_depth_duration_MTurk/v2_DepthDuration_HTML.html#75,75,1366,657,1366,768,8-29-2022,8-41-21,138,depth_duration_stimuli/000810_2014-06-08_17-20-01_260595134347_rgbf000105-resize_0/000810_2014-06-08_17-20-01_260595134347_rgbf000105-resize_0-target.png,1000,1.4865,9,4380,1001,feet,jsons/v1_VE1000_randls_61.json,1869339,2597719,26,Woman
138,466947,DepthScenes,duration_manipulation_targetAtFixation,jsons/v1_VE1000_randls_61.json,http://54.235.29.9/FacialAge/BNav_EC2/DepthDuration/v2_depth_duration_MTurk/v2_DepthDuration_HTML.html#75,75,1366,657,1366,768,8-29-2022,8-41-21,139,depth_duration_stimuli/001214_2014-06-17_16-13-55_260595134347_rgbf000111-resize_0/001214_2014-06-17_16-13-55_260595134347_rgbf000111-resize_0-target.png,1000,2.6505,9,4499,1000,feet,jsons/v1_VE1000_randls_61.json,1869339,2597719,26,Woman
139,466947,DepthScenes,duration_manipulation_targetAtFixation,jsons/v1_VE1000_randls_61.json,http://54.235.29.9/FacialAge/BNav_EC2/DepthDuration/v2_depth_duration_MTurk/v2_DepthDuration_HTML.html#75,75,1366,657,1366,768,8-29-2022,8-41-21,140,depth_duration_stimuli/001810_2014-06-26_20-51-35_260595134347_rgbf000040-resize_3/001810_2014-06-26_20-51-35_260595134347_rgbf000040-resize_3-target.png,1000,2.2525,9,5739,1001,feet,jsons/v1_VE1000_randls_61.json,1869339,2597719,26,Woman
140,466947,DepthScenes,duration_manipulation_targetAtFixation,jsons/v1_VE1000_randls_61.json,http://54.235.29.9/FacialAge/BNav_EC2/DepthDuration/v2_depth_duration_MTurk/v2_DepthDuration_HTML.html#75,75,1366,657,1366,768,8-29-2022,8-41-21,141,depth_duration_stimuli/003010_2014-06-15_12-54-35_094959634447_rgbf000112-resize_0/003010_2014-06-15_12-54-35_094959634447_rgbf000112-resize_0-target.png,1000,3.1185,17,6879,1001,feet,jsons/v1_VE1000_randls_61.json,1869339,2597719,26,Woman
141,466947,DepthScenes,duration_manipulation_targetAtFixation,jsons/v1_VE1000_randls_61.json,http://54.235.29.9/FacialAge/BNav_EC2/DepthDuration/v2_depth_duration_MTurk/v2_DepthDuration_HTML.html#75,75,1366,657,1366,768,8-29-2022,8-41-21,142,depth_duration_stimuli/001059_2014-06-08_21-53-27_260595134347_rgbf000061-resize_4/001059_2014-06-08_21-53-27_260595134347_rgbf000061-resize_4-target.png,1000,2.4185,15,4759,1000,feet,jsons/v1_VE1000_randls_61.json,1869339,2597719,26,Woman
142,466947,DepthScenes,duration_manipulation_targetAtFixation,jsons/v1_VE1000_randls_61.json,http://54.235.29.9/FacialAge/BNav_EC2/DepthDuration/v2_depth_duration_MTurk/v2_DepthDuration_HTML.html#75,75,1366,657,1366,768,8-29-2022,8-41-21,143,depth_duration_stimuli/001032_2014-06-08_13-23-17_260595134347_rgbf000021-resize_3/001032_2014-06-08_13-23-17_260595134347_rgbf000021-resize_3-target.png,1000,3.2725,14,5299,999,feet,jsons/v1_VE1000_randls_61.json,1869339,2597719,26,Woman
143,466947,DepthScenes,duration_manipulation_targetAtFixation,jsons/v1_VE1000_randls_61.json,http://54.235.29.9/FacialAge/BNav_EC2/DepthDuration/v2_depth_duration_MTurk/v2_DepthDuration_HTML.html#75,75,1366,657,1366,768,8-29-2022,8-41-21,144,depth_duration_stimuli/003070_2014-06-15_14-58-27_094959634447_rgbf000150-resize_3/003070_2014-06-15_14-58-27_094959634447_rgbf000150-resize_3-target.png,1000,2.9415,10,68185,1001,feet,jsons/v1_VE1000_randls_61.json,1869339,2597719,26,Woman
144,466947,DepthScenes,duration_manipulation_targetAtFixation,jsons/v1_VE1000_randls_61.json,http://54.235.29.9/FacialAge/BNav_EC2/DepthDuration/v2_depth_duration_MTurk/v2_DepthDuration_HTML.html#75,75,1366,657,1366,768,8-29-2022,8-41-21,145,depth_duration_stimuli/000943_2014-06-09_19-31-07_260595134347_rgbf000128-resize_1/000943_2014-06-09_19-31-07_260595134347_rgbf000128-resize_1-target.png,1000,1.9765,7,5343,1001,feet,jsons/v1_VE1000_randls_61.json,1869339,2597719,26,Woman
145,466947,DepthScenes,duration_manipulation_targetAtFixation,jsons/v1_VE1000_randls_61.json,http://54.235.29.9/FacialAge/BNav_EC2/DepthDuration/v2_depth_duration_MTurk/v2_DepthDuration_HTML.html#75,75,1366,657,1366,768,8-29-2022,8-41-21,146,depth_duration_stimuli/001498_2014-06-19_17-45-14_260595134347_rgbf000129-resize_4/001498_2014-06-19_17-45-14_260595134347_rgbf000129-resize-original.jpg,1000,1.4075,0,5099,1001,feet,jsons/v1_VE1000_randls_61.json,1869339,2597719,26,Woman
146,466947,DepthScenes,duration_manipulation_targetAtFixation,jsons/v1_VE1000_randls_61.json,http://54.235.29.9/FacialAge/BNav_EC2/DepthDuration/v2_depth_duration_MTurk/v2_DepthDuration_HTML.html#75,75,1366,657,1366,768,8-29-2022,8-41-21,147,depth_duration_stimuli/002964_2014-06-08_17-46-11_094959634447_rgbf000091-resize_4/002964_2014-06-08_17-46-11_094959634447_rgbf000091-resize_4-target.png,1000,1.6909999999999998,2,6271,999,feet,jsons/v1_VE1000_randls_61.json,1869339,2597719,26,Woman
147,466947,DepthScenes,duration_manipulation_targetAtFixation,jsons/v1_VE1000_randls_61.json,http://54.235.29.9/FacialAge/BNav_EC2/DepthDuration/v2_depth_duration_MTurk/v2_DepthDuration_HTML.html#75,75,1366,657,1366,768,8-29-2022,8-41-21,148,depth_duration_stimuli/002136_2014-06-25_21-18-03_260595134347_rgbf000109-resize_3/002136_2014-06-25_21-18-03_260595134347_rgbf000109-resize_3-target.png,1000,1.9569999999999999,6,4236,1000,feet,jsons/v1_VE1000_randls_61.json,1869339,2597719,26,Woman
148,466947,DepthScenes,duration_manipulation_targetAtFixation,jsons/v1_VE1000_randls_61.json,http://54.235.29.9/FacialAge/BNav_EC2/DepthDuration/v2_depth_duration_MTurk/v2_DepthDuration_HTML.html#75,75,1366,657,1366,768,8-29-2022,8-41-21,149,depth_duration_stimuli/002039_2014-06-24_20-22-38_260595134347_rgbf000084-resize_1/002039_2014-06-24_20-22-38_260595134347_rgbf000084-resize_1-target.png,1000,4.408,5,9709,1000,feet,jsons/v1_VE1000_randls_61.json,1869339,2597719,26,Woman
149,466947,DepthScenes,duration_manipulation_targetAtFixation,jsons/v1_VE1000_randls_61.json,http://54.235.29.9/FacialAge/BNav_EC2/DepthDuration/v2_depth_duration_MTurk/v2_DepthDuration_HTML.html#75,75,1366,657,1366,768,8-29-2022,8-41-21,150,depth_duration_stimuli/002103_2014-06-25_20-00-40_260595134347_rgbf000049-resize_0/002103_2014-06-25_20-00-40_260595134347_rgbf000049-resize_0-target.png,1000,4.105,8,5036,1001,feet,jsons/v1_VE1000_randls_61.json,1869339,2597719,26,Woman
150,466947,DepthScenes,duration_manipulation_targetAtFixation,jsons/v1_VE1000_randls_61.json,http://54.235.29.9/FacialAge/BNav_EC2/DepthDuration/v2_depth_duration_MTurk/v2_DepthDuration_HTML.html#75,75,1366,657,1366,768,8-29-2022,8-41-21,151,depth_duration_stimuli/001029_2014-06-08_13-17-57_260595134347_rgbf000065-resize_1/001029_2014-06-08_13-17-57_260595134347_rgbf000065-resize_1-target.png,1000,3.0835,9,189390,999,feet,jsons/v1_VE1000_randls_61.json,1869339,2597719,26,Woman
151,466947,DepthScenes,duration_manipulation_targetAtFixation,jsons/v1_VE1000_randls_61.json,http://54.235.29.9/FacialAge/BNav_EC2/DepthDuration/v2_depth_duration_MTurk/v2_DepthDuration_HTML.html#75,75,1366,657,1366,768,8-29-2022,8-41-21,152,depth_duration_stimuli/000677_2014-06-08_23-10-32_260595134347_rgbf000158-resize_6/000677_2014-06-08_23-10-32_260595134347_rgbf000158-resize_6-target.png,1000,3.556,10,4319,1000,feet,jsons/v1_VE1000_randls_61.json,1869339,2597719,26,Woman
152,466947,DepthScenes,duration_manipulation_targetAtFixation,jsons/v1_VE1000_randls_61.json,http://54.235.29.9/FacialAge/BNav_EC2/DepthDuration/v2_depth_duration_MTurk/v2_DepthDuration_HTML.html#75,75,1366,657,1366,768,8-29-2022,8-41-21,153,depth_duration_stimuli/001199_2014-06-17_16-03-48_260595134347_rgbf000077-resize_0/001199_2014-06-17_16-03-48_260595134347_rgbf000077-resize_0-target.png,1000,3.4375,13,6200,1004,feet,jsons/v1_VE1000_randls_61.json,1869339,2597719,26,Woman
153,466947,DepthScenes,duration_manipulation_targetAtFixation,jsons/v1_VE1000_randls_61.json,http://54.235.29.9/FacialAge/BNav_EC2/DepthDuration/v2_depth_duration_MTurk/v2_DepthDuration_HTML.html#75,75,1366,657,1366,768,8-29-2022,8-41-21,154,depth_duration_stimuli/000502_2014-06-08_23-02-32_260595134347_rgbf000063-resize_4/000502_2014-06-08_23-02-32_260595134347_rgbf000063-resize_4-target.png,1000,2.431,6,4739,1001,feet,jsons/v1_VE1000_randls_61.json,1869339,2597719,26,Woman
154,466947,DepthScenes,duration_manipulation_targetAtFixation,jsons/v1_VE1000_randls_61.json,http://54.235.29.9/FacialAge/BNav_EC2/DepthDuration/v2_depth_duration_MTurk/v2_DepthDuration_HTML.html#75,75,1366,657,1366,768,8-29-2022,8-41-21,155,depth_duration_stimuli/001092_2014-06-15_17-34-58_260595134347_rgbf000171-resize_3/001092_2014-06-15_17-34-58_260595134347_rgbf000171-resize_3-target.png,1000,2.6935,9,9190,1001,feet,jsons/v1_VE1000_randls_61.json,1869339,2597719,26,Woman
155,466947,DepthScenes,duration_manipulation_targetAtFixation,jsons/v1_VE1000_randls_61.json,http://54.235.29.9/FacialAge/BNav_EC2/DepthDuration/v2_depth_duration_MTurk/v2_DepthDuration_HTML.html#75,75,1366,657,1366,768,8-29-2022,8-41-21,156,depth_duration_stimuli/002545_2014-06-24_13-38-53_094959634447_rgbf000080-resize_4/002545_2014-06-24_13-38-53_094959634447_rgbf000080-resize_4-target.png,1000,1.9205,10,4289,1001,feet,jsons/v1_VE1000_randls_61.json,1869339,2597719,26,Woman
156,466947,DepthScenes,duration_manipulation_targetAtFixation,jsons/v1_VE1000_randls_61.json,http://54.235.29.9/FacialAge/BNav_EC2/DepthDuration/v2_depth_duration_MTurk/v2_DepthDuration_HTML.html#75,75,1366,657,1366,768,8-29-2022,8-41-21,157,depth_duration_stimuli/002279_2014-06-28_18-55-32_260595134347_rgbf000040-resize_5/002279_2014-06-28_18-55-32_260595134347_rgbf000040-resize_5-target.png,1000,1.5043333333333,9,10219,1001,feet,jsons/v1_VE1000_randls_61.json,1869339,2597719,26,Woman
157,466947,DepthScenes,duration_manipulation_targetAtFixation,jsons/v1_VE1000_randls_61.json,http://54.235.29.9/FacialAge/BNav_EC2/DepthDuration/v2_depth_duration_MTurk/v2_DepthDuration_HTML.html#75,75,1366,657,1366,768,8-29-2022,8-41-21,158,depth_duration_stimuli/000635_2014-06-08_16-38-42_260595134347_rgbf000106-resize_1/000635_2014-06-08_16-38-42_260595134347_rgbf000106-resize_1-target.png,1000,2.074,9,4238,1000,feet,jsons/v1_VE1000_randls_61.json,1869339,2597719,26,Woman
158,466947,DepthScenes,duration_manipulation_targetAtFixation,jsons/v1_VE1000_randls_61.json,http://54.235.29.9/FacialAge/BNav_EC2/DepthDuration/v2_depth_duration_MTurk/v2_DepthDuration_HTML.html#75,75,1366,657,1366,768,8-29-2022,8-41-21,159,depth_duration_stimuli/002153_2014-06-25_21-27-18_260595134347_rgbf000038-resize_5/002153_2014-06-25_21-27-18_260595134347_rgbf000038-resize_5-target.png,1000,2.505,9,15434,1001,feet,jsons/v1_VE1000_randls_61.json,1869339,2597719,26,Woman
159,466947,DepthScenes,duration_manipulation_targetAtFixation,jsons/v1_VE1000_randls_61.json,http://54.235.29.9/FacialAge/BNav_EC2/DepthDuration/v2_depth_duration_MTurk/v2_DepthDuration_HTML.html#75,75,1366,657,1366,768,8-29-2022,8-41-21,160,depth_duration_stimuli/002660_2014-06-13_15-44-18_094959634447_rgbf001878-resize_2/002660_2014-06-13_15-44-18_094959634447_rgbf001878-resize_2-target.png,1000,3.576,9,4992,1000,feet,jsons/v1_VE1000_randls_61.json,1869339,2597719,26,Woman
160,466947,DepthScenes,duration_manipulation_targetAtFixation,jsons/v1_VE1000_randls_61.json,http://54.235.29.9/FacialAge/BNav_EC2/DepthDuration/v2_depth_duration_MTurk/v2_DepthDuration_HTML.html#75,75,1366,657,1366,768,8-29-2022,8-41-21,161,depth_duration_stimuli/000493_2014-06-09_21-01-18_260595134347_rgbf000196-resize_3/000493_2014-06-09_21-01-18_260595134347_rgbf000196-resize_3-target.png,1000,3.44,10,4639,1000,feet,jsons/v1_VE1000_randls_61.json,1869339,2597719,26,Woman
161,466947,DepthScenes,duration_manipulation_targetAtFixation,jsons/v1_VE1000_randls_61.json,http://54.235.29.9/FacialAge/BNav_EC2/DepthDuration/v2_depth_duration_MTurk/v2_DepthDuration_HTML.html#75,75,1366,657,1366,768,8-29-2022,8-41-21,162,depth_duration_stimuli/000191_2014-05-12_17-07-38_260595134347_rgbf000199-resize_0/000191_2014-05-12_17-07-38_260595134347_rgbf000199-resize_0-target.png,1000,3.7995,13,5738,1001,feet,jsons/v1_VE1000_randls_61.json,1869339,2597719,26,Woman
162,466947,DepthScenes,duration_manipulation_targetAtFixation,jsons/v1_VE1000_randls_61.json,http://54.235.29.9/FacialAge/BNav_EC2/DepthDuration/v2_depth_duration_MTurk/v2_DepthDuration_HTML.html#75,75,1366,657,1366,768,8-29-2022,8-41-21,163,depth_duration_stimuli/000739_2014-06-08_18-45-58_260595134347_rgbf000068-resize_1/000739_2014-06-08_18-45-58_260595134347_rgbf000068-resize_1-target.png,1000,3.534,15,4949,1002,feet,jsons/v1_VE1000_randls_61.json,1869339,2597719,26,Woman
163,466947,DepthScenes,duration_manipulation_targetAtFixation,jsons/v1_VE1000_randls_61.json,http://54.235.29.9/FacialAge/BNav_EC2/DepthDuration/v2_depth_duration_MTurk/v2_DepthDuration_HTML.html#75,75,1366,657,1366,768,8-29-2022,8-41-21,164,depth_duration_stimuli/000734_2014-06-08_17-39-11_260595134347_rgbf000128-resize_2/000734_2014-06-08_17-39-11_260595134347_rgbf000128-resize_2-target.png,1000,4.098,14,4610,999,feet,jsons/v1_VE1000_randls_61.json,1869339,2597719,26,Woman
