,subjID,experimentName,versionName,sequenceName,url,selected_row,windowWidth,windowHeight,screenWidth,screenHeight,startDate,startTime,trial,stimulus,duration,actual_depth,depth_estimate,trial_RT,log_sceneDuration,unitSelection,seq_filepath,experimentTime,totalTime,age,gender
0,467485,DepthScenes,duration_manipulation_targetAtFixation,jsons/v1_VE250_randls_70.json,http://54.235.29.9/FacialAge/BNav_EC2/DepthDuration/v2_depth_duration_MTurk/v2_DepthDuration_HTML.html#103,103,1600,900,1600,900,8-20-2022,10-22-57,1,depth_duration_stimuli/002725_2014-06-22_11-47-51_094959634447_rgbf000070-resize_1/002725_2014-06-22_11-47-51_094959634447_rgbf000070-resize_1-target.png,250,2.195,5,2158,249,feet,jsons/v1_VE250_randls_70.json,402793,631101,34,Man
1,467485,DepthScenes,duration_manipulation_targetAtFixation,jsons/v1_VE250_randls_70.json,http://54.235.29.9/FacialAge/BNav_EC2/DepthDuration/v2_depth_duration_MTurk/v2_DepthDuration_HTML.html#103,103,1600,900,1600,900,8-20-2022,10-22-57,2,depth_duration_stimuli/002344_2014-06-28_20-06-29_260595134347_rgbf000030-resize_1/002344_2014-06-28_20-06-29_260595134347_rgbf000030-resize_1-target.png,250,1.5795,2,2054,262,feet,jsons/v1_VE250_randls_70.json,402793,631101,34,Man
2,467485,DepthScenes,duration_manipulation_targetAtFixation,jsons/v1_VE250_randls_70.json,http://54.235.29.9/FacialAge/BNav_EC2/DepthDuration/v2_depth_duration_MTurk/v2_DepthDuration_HTML.html#103,103,1600,900,1600,900,8-20-2022,10-22-57,3,depth_duration_stimuli/001808_2014-06-26_20-50-58_260595134347_rgbf000029-resize_1/001808_2014-06-26_20-50-58_260595134347_rgbf000029-resize_1-target.png,250,4.249,6,2194,239,feet,jsons/v1_VE250_randls_70.json,402793,631101,34,Man
3,467485,DepthScenes,duration_manipulation_targetAtFixation,jsons/v1_VE250_randls_70.json,http://54.235.29.9/FacialAge/BNav_EC2/DepthDuration/v2_depth_duration_MTurk/v2_DepthDuration_HTML.html#103,103,1600,900,1600,900,8-20-2022,10-22-57,4,depth_duration_stimuli/001815_2014-06-26_20-52-55_260595134347_rgbf000020-resize_0/001815_2014-06-26_20-52-55_260595134347_rgbf000020-resize_0-target.png,250,3.3865,4,1825,236,feet,jsons/v1_VE250_randls_70.json,402793,631101,34,Man
4,467485,DepthScenes,duration_manipulation_targetAtFixation,jsons/v1_VE250_randls_70.json,http://54.235.29.9/FacialAge/BNav_EC2/DepthDuration/v2_depth_duration_MTurk/v2_DepthDuration_HTML.html#103,103,1600,900,1600,900,8-20-2022,10-22-57,5,depth_duration_stimuli/000486_2014-06-09_20-47-20_260595134347_rgbf000143-resize_2/000486_2014-06-09_20-47-20_260595134347_rgbf000143-resize_2-target.png,250,4.8325,7,2076,251,feet,jsons/v1_VE250_randls_70.json,402793,631101,34,Man
5,467485,DepthScenes,duration_manipulation_targetAtFixation,jsons/v1_VE250_randls_70.json,http://54.235.29.9/FacialAge/BNav_EC2/DepthDuration/v2_depth_duration_MTurk/v2_DepthDuration_HTML.html#103,103,1600,900,1600,900,8-20-2022,10-22-57,6,depth_duration_stimuli/003083_2014-06-15_15-21-03_094959634447_rgbf000063-resize_1/003083_2014-06-15_15-21-03_094959634447_rgbf000063-resize_1-target.png,250,4.1405,9,2248,240,feet,jsons/v1_VE250_randls_70.json,402793,631101,34,Man
6,467485,DepthScenes,duration_manipulation_targetAtFixation,jsons/v1_VE250_randls_70.json,http://54.235.29.9/FacialAge/BNav_EC2/DepthDuration/v2_depth_duration_MTurk/v2_DepthDuration_HTML.html#103,103,1600,900,1600,900,8-20-2022,10-22-57,7,depth_duration_stimuli/000414_2014-06-04_19-49-13_260595134347_rgbf000044-resize_0/000414_2014-06-04_19-49-13_260595134347_rgbf000044-resize_0-target.png,250,4.329,10,2788,248,feet,jsons/v1_VE250_randls_70.json,402793,631101,34,Man
7,467485,DepthScenes,duration_manipulation_targetAtFixation,jsons/v1_VE250_randls_70.json,http://54.235.29.9/FacialAge/BNav_EC2/DepthDuration/v2_depth_duration_MTurk/v2_DepthDuration_HTML.html#103,103,1600,900,1600,900,8-20-2022,10-22-57,8,depth_duration_stimuli/003129_2014-05-12_10-48-10_094959634447_rgbf000100-resize_0/003129_2014-05-12_10-48-10_094959634447_rgbf000100-resize_0-target.png,250,4.9305,8,2923,248,feet,jsons/v1_VE250_randls_70.json,402793,631101,34,Man
8,467485,DepthScenes,duration_manipulation_targetAtFixation,jsons/v1_VE250_randls_70.json,http://54.235.29.9/FacialAge/BNav_EC2/DepthDuration/v2_depth_duration_MTurk/v2_DepthDuration_HTML.html#103,103,1600,900,1600,900,8-20-2022,10-22-57,9,depth_duration_stimuli/003621_2014-05-23_18-06-08_094959634447_rgbf000101-resize_1/003621_2014-05-23_18-06-08_094959634447_rgbf000101-resize_1-target.png,250,3.9835,12,2457,262,feet,jsons/v1_VE250_randls_70.json,402793,631101,34,Man
9,467485,DepthScenes,duration_manipulation_targetAtFixation,jsons/v1_VE250_randls_70.json,http://54.235.29.9/FacialAge/BNav_EC2/DepthDuration/v2_depth_duration_MTurk/v2_DepthDuration_HTML.html#103,103,1600,900,1600,900,8-20-2022,10-22-57,10,depth_duration_stimuli/001584_2014-06-20_11-07-43_260595134347_rgbf000002-resize_1/001584_2014-06-20_11-07-43_260595134347_rgbf000002-resize_1-target.png,250,3.53,6,1829,252,feet,jsons/v1_VE250_randls_70.json,402793,631101,34,Man
10,467485,DepthScenes,duration_manipulation_targetAtFixation,jsons/v1_VE250_randls_70.json,http://54.235.29.9/FacialAge/BNav_EC2/DepthDuration/v2_depth_duration_MTurk/v2_DepthDuration_HTML.html#103,103,1600,900,1600,900,8-20-2022,10-22-57,11,depth_duration_stimuli/002748_2014-06-22_19-07-22_094959634447_rgbf000078-resize_1/002748_2014-06-22_19-07-22_094959634447_rgbf000078-resize_1-target.png,250,4.6705,12,3037,250,feet,jsons/v1_VE250_randls_70.json,402793,631101,34,Man
11,467485,DepthScenes,duration_manipulation_targetAtFixation,jsons/v1_VE250_randls_70.json,http://54.235.29.9/FacialAge/BNav_EC2/DepthDuration/v2_depth_duration_MTurk/v2_DepthDuration_HTML.html#103,103,1600,900,1600,900,8-20-2022,10-22-57,12,depth_duration_stimuli/002995_2014-06-15_12-31-26_094959634447_rgbf000150-resize_1/002995_2014-06-15_12-31-26_094959634447_rgbf000150-resize_1-target.png,250,3.8360000000000003,8,1767,264,feet,jsons/v1_VE250_randls_70.json,402793,631101,34,Man
12,467485,DepthScenes,duration_manipulation_targetAtFixation,jsons/v1_VE250_randls_70.json,http://54.235.29.9/FacialAge/BNav_EC2/DepthDuration/v2_depth_duration_MTurk/v2_DepthDuration_HTML.html#103,103,1600,900,1600,900,8-20-2022,10-22-57,13,depth_duration_stimuli/000569_2014-06-09_22-51-47_260595134347_rgbf000141-resize_3/000569_2014-06-09_22-51-47_260595134347_rgbf000141-resize-original.jpg,250,4.512,0,1681,250,feet,jsons/v1_VE250_randls_70.json,402793,631101,34,Man
13,467485,DepthScenes,duration_manipulation_targetAtFixation,jsons/v1_VE250_randls_70.json,http://54.235.29.9/FacialAge/BNav_EC2/DepthDuration/v2_depth_duration_MTurk/v2_DepthDuration_HTML.html#103,103,1600,900,1600,900,8-20-2022,10-22-57,14,depth_duration_stimuli/001011_2014-06-08_23-18-54_260595134347_rgbf000044-resize_4/001011_2014-06-08_23-18-54_260595134347_rgbf000044-resize_4-target.png,250,2.4730000000000003,4,1667,243,feet,jsons/v1_VE250_randls_70.json,402793,631101,34,Man
14,467485,DepthScenes,duration_manipulation_targetAtFixation,jsons/v1_VE250_randls_70.json,http://54.235.29.9/FacialAge/BNav_EC2/DepthDuration/v2_depth_duration_MTurk/v2_DepthDuration_HTML.html#103,103,1600,900,1600,900,8-20-2022,10-22-57,15,depth_duration_stimuli/002875_2014-06-01_15-19-00_094959634447_rgbf000151-resize_1/002875_2014-06-01_15-19-00_094959634447_rgbf000151-resize_1-target.png,250,1.9675,2,1733,249,feet,jsons/v1_VE250_randls_70.json,402793,631101,34,Man
15,467485,DepthScenes,duration_manipulation_targetAtFixation,jsons/v1_VE250_randls_70.json,http://54.235.29.9/FacialAge/BNav_EC2/DepthDuration/v2_depth_duration_MTurk/v2_DepthDuration_HTML.html#103,103,1600,900,1600,900,8-20-2022,10-22-57,16,depth_duration_stimuli/002763_2014-06-22_19-13-10_094959634447_rgbf000075-resize_4/002763_2014-06-22_19-13-10_094959634447_rgbf000075-resize_4-target.png,250,1.68375,3,1963,246,feet,jsons/v1_VE250_randls_70.json,402793,631101,34,Man
16,467485,DepthScenes,duration_manipulation_targetAtFixation,jsons/v1_VE250_randls_70.json,http://54.235.29.9/FacialAge/BNav_EC2/DepthDuration/v2_depth_duration_MTurk/v2_DepthDuration_HTML.html#103,103,1600,900,1600,900,8-20-2022,10-22-57,17,depth_duration_stimuli/002209_2014-06-28_18-36-10_260595134347_rgbf000051-resize_1/002209_2014-06-28_18-36-10_260595134347_rgbf000051-resize_1-target.png,250,2.057,4,3318,249,feet,jsons/v1_VE250_randls_70.json,402793,631101,34,Man
17,467485,DepthScenes,duration_manipulation_targetAtFixation,jsons/v1_VE250_randls_70.json,http://54.235.29.9/FacialAge/BNav_EC2/DepthDuration/v2_depth_duration_MTurk/v2_DepthDuration_HTML.html#103,103,1600,900,1600,900,8-20-2022,10-22-57,18,depth_duration_stimuli/002905_2014-06-03_18-04-43_094959634447_rgbf000151-resize_2/002905_2014-06-03_18-04-43_094959634447_rgbf000151-resize_2-target.png,250,2.0295,3,1825,249,feet,jsons/v1_VE250_randls_70.json,402793,631101,34,Man
18,467485,DepthScenes,duration_manipulation_targetAtFixation,jsons/v1_VE250_randls_70.json,http://54.235.29.9/FacialAge/BNav_EC2/DepthDuration/v2_depth_duration_MTurk/v2_DepthDuration_HTML.html#103,103,1600,900,1600,900,8-20-2022,10-22-57,19,depth_duration_stimuli/003423_2014-05-21_10-23-26_094959634447_rgbf002665-resize_2/003423_2014-05-21_10-23-26_094959634447_rgbf002665-resize_2-target.png,250,3.2575,8,2051,248,feet,jsons/v1_VE250_randls_70.json,402793,631101,34,Man
19,467485,DepthScenes,duration_manipulation_targetAtFixation,jsons/v1_VE250_randls_70.json,http://54.235.29.9/FacialAge/BNav_EC2/DepthDuration/v2_depth_duration_MTurk/v2_DepthDuration_HTML.html#103,103,1600,900,1600,900,8-20-2022,10-22-57,20,depth_duration_stimuli/000929_2014-06-09_16-33-19_260595134347_rgbf000139-resize_0/000929_2014-06-09_16-33-19_260595134347_rgbf000139-resize_0-target.png,250,2.8680000000000003,6,1747,247,feet,jsons/v1_VE250_randls_70.json,402793,631101,34,Man
20,467485,DepthScenes,duration_manipulation_targetAtFixation,jsons/v1_VE250_randls_70.json,http://54.235.29.9/FacialAge/BNav_EC2/DepthDuration/v2_depth_duration_MTurk/v2_DepthDuration_HTML.html#103,103,1600,900,1600,900,8-20-2022,10-22-57,21,depth_duration_stimuli/000457_2014-06-08_16-52-43_260595134347_rgbf000199-resize_1/000457_2014-06-08_16-52-43_260595134347_rgbf000199-resize_1-target.png,250,3.6489999999999996,5,1641,251,feet,jsons/v1_VE250_randls_70.json,402793,631101,34,Man
21,467485,DepthScenes,duration_manipulation_targetAtFixation,jsons/v1_VE250_randls_70.json,http://54.235.29.9/FacialAge/BNav_EC2/DepthDuration/v2_depth_duration_MTurk/v2_DepthDuration_HTML.html#103,103,1600,900,1600,900,8-20-2022,10-22-57,22,depth_duration_stimuli/001244_2014-06-17_16-47-45_260595134347_rgbf000030-resize_4/001244_2014-06-17_16-47-45_260595134347_rgbf000030-resize_4-target.png,250,2.0425,3,2140,250,feet,jsons/v1_VE250_randls_70.json,402793,631101,34,Man
22,467485,DepthScenes,duration_manipulation_targetAtFixation,jsons/v1_VE250_randls_70.json,http://54.235.29.9/FacialAge/BNav_EC2/DepthDuration/v2_depth_duration_MTurk/v2_DepthDuration_HTML.html#103,103,1600,900,1600,900,8-20-2022,10-22-57,23,depth_duration_stimuli/003495_2014-05-21_16-01-51_094959634447_rgbf000100-resize_3/003495_2014-05-21_16-01-51_094959634447_rgbf000100-resize_3-target.png,250,1.6255,2,1527,262,feet,jsons/v1_VE250_randls_70.json,402793,631101,34,Man
23,467485,DepthScenes,duration_manipulation_targetAtFixation,jsons/v1_VE250_randls_70.json,http://54.235.29.9/FacialAge/BNav_EC2/DepthDuration/v2_depth_duration_MTurk/v2_DepthDuration_HTML.html#103,103,1600,900,1600,900,8-20-2022,10-22-57,24,depth_duration_stimuli/000682_2014-06-08_23-14-58_260595134347_rgbf000041-resize_5/000682_2014-06-08_23-14-58_260595134347_rgbf000041-resize_5-target.png,250,2.7239999999999998,4,1670,254,feet,jsons/v1_VE250_randls_70.json,402793,631101,34,Man
24,467485,DepthScenes,duration_manipulation_targetAtFixation,jsons/v1_VE250_randls_70.json,http://54.235.29.9/FacialAge/BNav_EC2/DepthDuration/v2_depth_duration_MTurk/v2_DepthDuration_HTML.html#103,103,1600,900,1600,900,8-20-2022,10-22-57,25,depth_duration_stimuli/001650_2014-06-20_12-09-00_260595134347_rgbf000087-resize_3/001650_2014-06-20_12-09-00_260595134347_rgbf000087-resize_3-target.png,250,1.9505,3,2730,249,feet,jsons/v1_VE250_randls_70.json,402793,631101,34,Man
25,467485,DepthScenes,duration_manipulation_targetAtFixation,jsons/v1_VE250_randls_70.json,http://54.235.29.9/FacialAge/BNav_EC2/DepthDuration/v2_depth_duration_MTurk/v2_DepthDuration_HTML.html#103,103,1600,900,1600,900,8-20-2022,10-22-57,26,depth_duration_stimuli/000739_2014-06-08_18-45-58_260595134347_rgbf000068-resize_1/000739_2014-06-08_18-45-58_260595134347_rgbf000068-resize_1-target.png,250,3.534,6,1649,247,feet,jsons/v1_VE250_randls_70.json,402793,631101,34,Man
26,467485,DepthScenes,duration_manipulation_targetAtFixation,jsons/v1_VE250_randls_70.json,http://54.235.29.9/FacialAge/BNav_EC2/DepthDuration/v2_depth_duration_MTurk/v2_DepthDuration_HTML.html#103,103,1600,900,1600,900,8-20-2022,10-22-57,27,depth_duration_stimuli/000734_2014-06-08_17-39-11_260595134347_rgbf000128-resize_2/000734_2014-06-08_17-39-11_260595134347_rgbf000128-resize_2-target.png,250,4.098,5,1445,246,feet,jsons/v1_VE250_randls_70.json,402793,631101,34,Man
27,467485,DepthScenes,duration_manipulation_targetAtFixation,jsons/v1_VE250_randls_70.json,http://54.235.29.9/FacialAge/BNav_EC2/DepthDuration/v2_depth_duration_MTurk/v2_DepthDuration_HTML.html#103,103,1600,900,1600,900,8-20-2022,10-22-57,28,depth_duration_stimuli/000368_2014-06-09_15-53-01_260595134347_rgbf000155-resize_2/000368_2014-06-09_15-53-01_260595134347_rgbf000155-resize_2-target.png,250,2.4859999999999998,3,1878,252,feet,jsons/v1_VE250_randls_70.json,402793,631101,34,Man
28,467485,DepthScenes,duration_manipulation_targetAtFixation,jsons/v1_VE250_randls_70.json,http://54.235.29.9/FacialAge/BNav_EC2/DepthDuration/v2_depth_duration_MTurk/v2_DepthDuration_HTML.html#103,103,1600,900,1600,900,8-20-2022,10-22-57,29,depth_duration_stimuli/002678_2014-06-13_16-15-32_094959634447_rgbf000151-resize_6/002678_2014-06-13_16-15-32_094959634447_rgbf000151-resize_6-target.png,250,2.1830000000000003,4,1978,248,feet,jsons/v1_VE250_randls_70.json,402793,631101,34,Man
29,467485,DepthScenes,duration_manipulation_targetAtFixation,jsons/v1_VE250_randls_70.json,http://54.235.29.9/FacialAge/BNav_EC2/DepthDuration/v2_depth_duration_MTurk/v2_DepthDuration_HTML.html#103,103,1600,900,1600,900,8-20-2022,10-22-57,30,depth_duration_stimuli/000375_2014-06-08_11-17-29_260595134347_rgbf000133-resize_2/000375_2014-06-08_11-17-29_260595134347_rgbf000133-resize-original.jpg,250,4.718,0,1731,263,feet,jsons/v1_VE250_randls_70.json,402793,631101,34,Man
30,467485,DepthScenes,duration_manipulation_targetAtFixation,jsons/v1_VE250_randls_70.json,http://54.235.29.9/FacialAge/BNav_EC2/DepthDuration/v2_depth_duration_MTurk/v2_DepthDuration_HTML.html#103,103,1600,900,1600,900,8-20-2022,10-22-57,31,depth_duration_stimuli/002788_2014-06-22_19-36-03_094959634447_rgbf000088-resize_2/002788_2014-06-22_19-36-03_094959634447_rgbf000088-resize_2-target.png,250,1.6465,5,2161,248,feet,jsons/v1_VE250_randls_70.json,402793,631101,34,Man
31,467485,DepthScenes,duration_manipulation_targetAtFixation,jsons/v1_VE250_randls_70.json,http://54.235.29.9/FacialAge/BNav_EC2/DepthDuration/v2_depth_duration_MTurk/v2_DepthDuration_HTML.html#103,103,1600,900,1600,900,8-20-2022,10-22-57,32,depth_duration_stimuli/000749_2014-06-08_21-55-06_260595134347_rgbf000070-resize_2/000749_2014-06-08_21-55-06_260595134347_rgbf000070-resize_2-target.png,250,2.331,6,2807,261,feet,jsons/v1_VE250_randls_70.json,402793,631101,34,Man
32,467485,DepthScenes,duration_manipulation_targetAtFixation,jsons/v1_VE250_randls_70.json,http://54.235.29.9/FacialAge/BNav_EC2/DepthDuration/v2_depth_duration_MTurk/v2_DepthDuration_HTML.html#103,103,1600,900,1600,900,8-20-2022,10-22-57,33,depth_duration_stimuli/001199_2014-06-17_16-03-48_260595134347_rgbf000077-resize_0/001199_2014-06-17_16-03-48_260595134347_rgbf000077-resize_0-target.png,250,3.4375,8,1765,248,feet,jsons/v1_VE250_randls_70.json,402793,631101,34,Man
33,467485,DepthScenes,duration_manipulation_targetAtFixation,jsons/v1_VE250_randls_70.json,http://54.235.29.9/FacialAge/BNav_EC2/DepthDuration/v2_depth_duration_MTurk/v2_DepthDuration_HTML.html#103,103,1600,900,1600,900,8-20-2022,10-22-57,34,depth_duration_stimuli/000502_2014-06-08_23-02-32_260595134347_rgbf000063-resize_4/000502_2014-06-08_23-02-32_260595134347_rgbf000063-resize_4-target.png,250,2.431,3,1609,245,feet,jsons/v1_VE250_randls_70.json,402793,631101,34,Man
34,467485,DepthScenes,duration_manipulation_targetAtFixation,jsons/v1_VE250_randls_70.json,http://54.235.29.9/FacialAge/BNav_EC2/DepthDuration/v2_depth_duration_MTurk/v2_DepthDuration_HTML.html#103,103,1600,900,1600,900,8-20-2022,10-22-57,35,depth_duration_stimuli/001158_2014-06-17_15-32-16_260595134347_rgbf000138-resize_2/001158_2014-06-17_15-32-16_260595134347_rgbf000138-resize_2-target.png,250,4.5315,7,1898,250,feet,jsons/v1_VE250_randls_70.json,402793,631101,34,Man
35,467485,DepthScenes,duration_manipulation_targetAtFixation,jsons/v1_VE250_randls_70.json,http://54.235.29.9/FacialAge/BNav_EC2/DepthDuration/v2_depth_duration_MTurk/v2_DepthDuration_HTML.html#103,103,1600,900,1600,900,8-20-2022,10-22-57,36,depth_duration_stimuli/000556_2014-06-09_22-42-56_260595134347_rgbf000214-resize_1/000556_2014-06-09_22-42-56_260595134347_rgbf000214-resize_1-target.png,250,4.8415,7,1774,252,feet,jsons/v1_VE250_randls_70.json,402793,631101,34,Man
36,467485,DepthScenes,duration_manipulation_targetAtFixation,jsons/v1_VE250_randls_70.json,http://54.235.29.9/FacialAge/BNav_EC2/DepthDuration/v2_depth_duration_MTurk/v2_DepthDuration_HTML.html#103,103,1600,900,1600,900,8-20-2022,10-22-57,37,depth_duration_stimuli/002988_2014-06-15_12-24-20_094959634447_rgbf000150-resize_1/002988_2014-06-15_12-24-20_094959634447_rgbf000150-resize_1-target.png,250,4.7669999999999995,9,2004,248,feet,jsons/v1_VE250_randls_70.json,402793,631101,34,Man
37,467485,DepthScenes,duration_manipulation_targetAtFixation,jsons/v1_VE250_randls_70.json,http://54.235.29.9/FacialAge/BNav_EC2/DepthDuration/v2_depth_duration_MTurk/v2_DepthDuration_HTML.html#103,103,1600,900,1600,900,8-20-2022,10-22-57,38,depth_duration_stimuli/001052_2014-06-08_18-24-54_260595134347_rgbf000130-resize_1/001052_2014-06-08_18-24-54_260595134347_rgbf000130-resize_1-target.png,250,4.1045,6,1619,247,feet,jsons/v1_VE250_randls_70.json,402793,631101,34,Man
38,467485,DepthScenes,duration_manipulation_targetAtFixation,jsons/v1_VE250_randls_70.json,http://54.235.29.9/FacialAge/BNav_EC2/DepthDuration/v2_depth_duration_MTurk/v2_DepthDuration_HTML.html#103,103,1600,900,1600,900,8-20-2022,10-22-57,39,depth_duration_stimuli/000773_2014-06-08_22-24-54_260595134347_rgbf000093-resize_1/000773_2014-06-08_22-24-54_260595134347_rgbf000093-resize_1-target.png,250,4.973,8,2072,263,feet,jsons/v1_VE250_randls_70.json,402793,631101,34,Man
39,467485,DepthScenes,duration_manipulation_targetAtFixation,jsons/v1_VE250_randls_70.json,http://54.235.29.9/FacialAge/BNav_EC2/DepthDuration/v2_depth_duration_MTurk/v2_DepthDuration_HTML.html#103,103,1600,900,1600,900,8-20-2022,10-22-57,40,depth_duration_stimuli/002414_2014-06-28_20-24-58_260595134347_rgbf000067-resize_4/002414_2014-06-28_20-24-58_260595134347_rgbf000067-resize_4-target.png,250,4.363,10,1877,252,feet,jsons/v1_VE250_randls_70.json,402793,631101,34,Man
40,467485,DepthScenes,duration_manipulation_targetAtFixation,jsons/v1_VE250_randls_70.json,http://54.235.29.9/FacialAge/BNav_EC2/DepthDuration/v2_depth_duration_MTurk/v2_DepthDuration_HTML.html#103,103,1600,900,1600,900,8-20-2022,10-22-57,41,depth_duration_stimuli/001570_2014-06-20_17-21-09_260595134347_rgbf000135-resize_4/001570_2014-06-20_17-21-09_260595134347_rgbf000135-resize_4-target.png,250,4.467,9,1854,248,feet,jsons/v1_VE250_randls_70.json,402793,631101,34,Man
41,467485,DepthScenes,duration_manipulation_targetAtFixation,jsons/v1_VE250_randls_70.json,http://54.235.29.9/FacialAge/BNav_EC2/DepthDuration/v2_depth_duration_MTurk/v2_DepthDuration_HTML.html#103,103,1600,900,1600,900,8-20-2022,10-22-57,42,depth_duration_stimuli/001392_2014-06-19_16-07-59_260595134347_rgbf000046-resize_1/001392_2014-06-19_16-07-59_260595134347_rgbf000046-resize_1-target.png,250,4.135,8,1637,250,feet,jsons/v1_VE250_randls_70.json,402793,631101,34,Man
42,467485,DepthScenes,duration_manipulation_targetAtFixation,jsons/v1_VE250_randls_70.json,http://54.235.29.9/FacialAge/BNav_EC2/DepthDuration/v2_depth_duration_MTurk/v2_DepthDuration_HTML.html#103,103,1600,900,1600,900,8-20-2022,10-22-57,43,depth_duration_stimuli/002549_2014-06-24_13-41-39_094959634447_rgbf000022-resize_3/002549_2014-06-24_13-41-39_094959634447_rgbf000022-resize_3-target.png,250,1.476,3,2492,251,feet,jsons/v1_VE250_randls_70.json,402793,631101,34,Man
43,467485,DepthScenes,duration_manipulation_targetAtFixation,jsons/v1_VE250_randls_70.json,http://54.235.29.9/FacialAge/BNav_EC2/DepthDuration/v2_depth_duration_MTurk/v2_DepthDuration_HTML.html#103,103,1600,900,1600,900,8-20-2022,10-22-57,44,depth_duration_stimuli/002750_2014-06-22_19-08-03_094959634447_rgbf000094-resize_4/002750_2014-06-22_19-08-03_094959634447_rgbf000094-resize_4-target.png,250,2.354,6,3529,248,feet,jsons/v1_VE250_randls_70.json,402793,631101,34,Man
44,467485,DepthScenes,duration_manipulation_targetAtFixation,jsons/v1_VE250_randls_70.json,http://54.235.29.9/FacialAge/BNav_EC2/DepthDuration/v2_depth_duration_MTurk/v2_DepthDuration_HTML.html#103,103,1600,900,1600,900,8-20-2022,10-22-57,45,depth_duration_stimuli/000787_2014-06-08_22-33-53_260595134347_rgbf000175-resize_1/000787_2014-06-08_22-33-53_260595134347_rgbf000175-resize-original.jpg,250,4.784,0,2423,250,feet,jsons/v1_VE250_randls_70.json,402793,631101,34,Man
45,467485,DepthScenes,duration_manipulation_targetAtFixation,jsons/v1_VE250_randls_70.json,http://54.235.29.9/FacialAge/BNav_EC2/DepthDuration/v2_depth_duration_MTurk/v2_DepthDuration_HTML.html#103,103,1600,900,1600,900,8-20-2022,10-22-57,46,depth_duration_stimuli/001175_2014-06-17_15-45-55_260595134347_rgbf000129-resize_4/001175_2014-06-17_15-45-55_260595134347_rgbf000129-resize_4-target.png,250,4.255,7,2255,249,feet,jsons/v1_VE250_randls_70.json,402793,631101,34,Man
46,467485,DepthScenes,duration_manipulation_targetAtFixation,jsons/v1_VE250_randls_70.json,http://54.235.29.9/FacialAge/BNav_EC2/DepthDuration/v2_depth_duration_MTurk/v2_DepthDuration_HTML.html#103,103,1600,900,1600,900,8-20-2022,10-22-57,47,depth_duration_stimuli/003490_2014-05-21_15-50-11_094959634447_rgbf000101-resize_3/003490_2014-05-21_15-50-11_094959634447_rgbf000101-resize_3-target.png,250,3.6445,6,2004,250,feet,jsons/v1_VE250_randls_70.json,402793,631101,34,Man
47,467485,DepthScenes,duration_manipulation_targetAtFixation,jsons/v1_VE250_randls_70.json,http://54.235.29.9/FacialAge/BNav_EC2/DepthDuration/v2_depth_duration_MTurk/v2_DepthDuration_HTML.html#103,103,1600,900,1600,900,8-20-2022,10-22-57,48,depth_duration_stimuli/000917_2014-06-09_22-45-29_260595134347_rgbf000149-resize_3/000917_2014-06-09_22-45-29_260595134347_rgbf000149-resize_3-target.png,250,4.1865,8,2404,248,feet,jsons/v1_VE250_randls_70.json,402793,631101,34,Man
48,467485,DepthScenes,duration_manipulation_targetAtFixation,jsons/v1_VE250_randls_70.json,http://54.235.29.9/FacialAge/BNav_EC2/DepthDuration/v2_depth_duration_MTurk/v2_DepthDuration_HTML.html#103,103,1600,900,1600,900,8-20-2022,10-22-57,49,depth_duration_stimuli/002323_2014-06-28_20-01-54_260595134347_rgbf000051-resize_4/002323_2014-06-28_20-01-54_260595134347_rgbf000051-resize_4-target.png,250,3.7310000000000003,10,3204,250,feet,jsons/v1_VE250_randls_70.json,402793,631101,34,Man
49,467485,DepthScenes,duration_manipulation_targetAtFixation,jsons/v1_VE250_randls_70.json,http://54.235.29.9/FacialAge/BNav_EC2/DepthDuration/v2_depth_duration_MTurk/v2_DepthDuration_HTML.html#103,103,1600,900,1600,900,8-20-2022,10-22-57,50,depth_duration_stimuli/003534_2014-05-22_15-06-10_094959634447_rgbf000102-resize_4/003534_2014-05-22_15-06-10_094959634447_rgbf000102-resize_4-target.png,250,1.426,2,1930,237,feet,jsons/v1_VE250_randls_70.json,402793,631101,34,Man
50,467485,DepthScenes,duration_manipulation_targetAtFixation,jsons/v1_VE250_randls_70.json,http://54.235.29.9/FacialAge/BNav_EC2/DepthDuration/v2_depth_duration_MTurk/v2_DepthDuration_HTML.html#103,103,1600,900,1600,900,8-20-2022,10-22-57,51,depth_duration_stimuli/002637_2014-06-24_14-51-13_094959634447_rgbf000066-resize_4/002637_2014-06-24_14-51-13_094959634447_rgbf000066-resize_4-target.png,250,1.9955,4,1652,256,feet,jsons/v1_VE250_randls_70.json,402793,631101,34,Man
51,467485,DepthScenes,duration_manipulation_targetAtFixation,jsons/v1_VE250_randls_70.json,http://54.235.29.9/FacialAge/BNav_EC2/DepthDuration/v2_depth_duration_MTurk/v2_DepthDuration_HTML.html#103,103,1600,900,1600,900,8-20-2022,10-22-57,52,depth_duration_stimuli/000522_2014-06-08_13-35-06_260595134347_rgbf000244-resize_1/000522_2014-06-08_13-35-06_260595134347_rgbf000244-resize_1-target.png,250,2.3715,2,2022,247,feet,jsons/v1_VE250_randls_70.json,402793,631101,34,Man
52,467485,DepthScenes,duration_manipulation_targetAtFixation,jsons/v1_VE250_randls_70.json,http://54.235.29.9/FacialAge/BNav_EC2/DepthDuration/v2_depth_duration_MTurk/v2_DepthDuration_HTML.html#103,103,1600,900,1600,900,8-20-2022,10-22-57,53,depth_duration_stimuli/002949_2014-06-26_15-57-42_094959634447_rgbf000079-resize_1/002949_2014-06-26_15-57-42_094959634447_rgbf000079-resize_1-target.png,250,1.8915,6,1615,264,feet,jsons/v1_VE250_randls_70.json,402793,631101,34,Man
53,467485,DepthScenes,duration_manipulation_targetAtFixation,jsons/v1_VE250_randls_70.json,http://54.235.29.9/FacialAge/BNav_EC2/DepthDuration/v2_depth_duration_MTurk/v2_DepthDuration_HTML.html#103,103,1600,900,1600,900,8-20-2022,10-22-57,54,depth_duration_stimuli/002630_2014-06-24_14-47-50_094959634447_rgbf000055-resize_1/002630_2014-06-24_14-47-50_094959634447_rgbf000055-resize_1-target.png,250,3.0095,8,1749,245,feet,jsons/v1_VE250_randls_70.json,402793,631101,34,Man
54,467485,DepthScenes,duration_manipulation_targetAtFixation,jsons/v1_VE250_randls_70.json,http://54.235.29.9/FacialAge/BNav_EC2/DepthDuration/v2_depth_duration_MTurk/v2_DepthDuration_HTML.html#103,103,1600,900,1600,900,8-20-2022,10-22-57,55,depth_duration_stimuli/002758_2014-06-22_19-11-20_094959634447_rgbf000128-resize_1/002758_2014-06-22_19-11-20_094959634447_rgbf000128-resize_1-target.png,250,2.555,4,2129,249,feet,jsons/v1_VE250_randls_70.json,402793,631101,34,Man
55,467485,DepthScenes,duration_manipulation_targetAtFixation,jsons/v1_VE250_randls_70.json,http://54.235.29.9/FacialAge/BNav_EC2/DepthDuration/v2_depth_duration_MTurk/v2_DepthDuration_HTML.html#103,103,1600,900,1600,900,8-20-2022,10-22-57,56,depth_duration_stimuli/000506_2014-06-08_23-21-00_260595134347_rgbf000070-resize_7/000506_2014-06-08_23-21-00_260595134347_rgbf000070-resize_7-target.png,250,4.0585,7,1882,262,feet,jsons/v1_VE250_randls_70.json,402793,631101,34,Man
56,467485,DepthScenes,duration_manipulation_targetAtFixation,jsons/v1_VE250_randls_70.json,http://54.235.29.9/FacialAge/BNav_EC2/DepthDuration/v2_depth_duration_MTurk/v2_DepthDuration_HTML.html#103,103,1600,900,1600,900,8-20-2022,10-22-57,57,depth_duration_stimuli/003079_2014-06-15_15-18-20_094959634447_rgbf000152-resize_8/003079_2014-06-15_15-18-20_094959634447_rgbf000152-resize_8-target.png,250,2.8775,8,1908,247,feet,jsons/v1_VE250_randls_70.json,402793,631101,34,Man
57,467485,DepthScenes,duration_manipulation_targetAtFixation,jsons/v1_VE250_randls_70.json,http://54.235.29.9/FacialAge/BNav_EC2/DepthDuration/v2_depth_duration_MTurk/v2_DepthDuration_HTML.html#103,103,1600,900,1600,900,8-20-2022,10-22-57,58,depth_duration_stimuli/001806_2014-06-26_20-50-20_260595134347_rgbf000091-resize_1/001806_2014-06-26_20-50-20_260595134347_rgbf000091-resize_1-target.png,250,2.7305,2,1807,250,feet,jsons/v1_VE250_randls_70.json,402793,631101,34,Man
58,467485,DepthScenes,duration_manipulation_targetAtFixation,jsons/v1_VE250_randls_70.json,http://54.235.29.9/FacialAge/BNav_EC2/DepthDuration/v2_depth_duration_MTurk/v2_DepthDuration_HTML.html#103,103,1600,900,1600,900,8-20-2022,10-22-57,59,depth_duration_stimuli/001617_2014-06-20_11-35-32_260595134347_rgbf000066-resize_1/001617_2014-06-20_11-35-32_260595134347_rgbf000066-resize_1-target.png,250,3.7910000000000004,6,1628,249,feet,jsons/v1_VE250_randls_70.json,402793,631101,34,Man
59,467485,DepthScenes,duration_manipulation_targetAtFixation,jsons/v1_VE250_randls_70.json,http://54.235.29.9/FacialAge/BNav_EC2/DepthDuration/v2_depth_duration_MTurk/v2_DepthDuration_HTML.html#103,103,1600,900,1600,900,8-20-2022,10-22-57,60,depth_duration_stimuli/002279_2014-06-28_18-55-32_260595134347_rgbf000040-resize_5/002279_2014-06-28_18-55-32_260595134347_rgbf000040-resize_5-target.png,250,1.5043333333333,3,1762,236,feet,jsons/v1_VE250_randls_70.json,402793,631101,34,Man
60,467485,DepthScenes,duration_manipulation_targetAtFixation,jsons/v1_VE250_randls_70.json,http://54.235.29.9/FacialAge/BNav_EC2/DepthDuration/v2_depth_duration_MTurk/v2_DepthDuration_HTML.html#103,103,1600,900,1600,900,8-20-2022,10-22-57,61,depth_duration_stimuli/000635_2014-06-08_16-38-42_260595134347_rgbf000106-resize_1/000635_2014-06-08_16-38-42_260595134347_rgbf000106-resize_1-target.png,250,2.074,4,1748,254,feet,jsons/v1_VE250_randls_70.json,402793,631101,34,Man
61,467485,DepthScenes,duration_manipulation_targetAtFixation,jsons/v1_VE250_randls_70.json,http://54.235.29.9/FacialAge/BNav_EC2/DepthDuration/v2_depth_duration_MTurk/v2_DepthDuration_HTML.html#103,103,1600,900,1600,900,8-20-2022,10-22-57,62,depth_duration_stimuli/001029_2014-06-08_13-17-57_260595134347_rgbf000065-resize_1/001029_2014-06-08_13-17-57_260595134347_rgbf000065-resize_1-target.png,250,3.0835,8,2038,249,feet,jsons/v1_VE250_randls_70.json,402793,631101,34,Man
62,467485,DepthScenes,duration_manipulation_targetAtFixation,jsons/v1_VE250_randls_70.json,http://54.235.29.9/FacialAge/BNav_EC2/DepthDuration/v2_depth_duration_MTurk/v2_DepthDuration_HTML.html#103,103,1600,900,1600,900,8-20-2022,10-22-57,63,depth_duration_stimuli/000677_2014-06-08_23-10-32_260595134347_rgbf000158-resize_6/000677_2014-06-08_23-10-32_260595134347_rgbf000158-resize_6-target.png,250,3.556,7,1722,246,feet,jsons/v1_VE250_randls_70.json,402793,631101,34,Man
63,467485,DepthScenes,duration_manipulation_targetAtFixation,jsons/v1_VE250_randls_70.json,http://54.235.29.9/FacialAge/BNav_EC2/DepthDuration/v2_depth_duration_MTurk/v2_DepthDuration_HTML.html#103,103,1600,900,1600,900,8-20-2022,10-22-57,64,depth_duration_stimuli/002663_2014-06-13_15-50-26_094959634447_rgbf000075-resize_1/002663_2014-06-13_15-50-26_094959634447_rgbf000075-resize_1-target.png,250,4.7495,6,2514,251,feet,jsons/v1_VE250_randls_70.json,402793,631101,34,Man
64,467485,DepthScenes,duration_manipulation_targetAtFixation,jsons/v1_VE250_randls_70.json,http://54.235.29.9/FacialAge/BNav_EC2/DepthDuration/v2_depth_duration_MTurk/v2_DepthDuration_HTML.html#103,103,1600,900,1600,900,8-20-2022,10-22-57,65,depth_duration_stimuli/000409_2014-06-04_19-23-33_260595134347_rgbf000067-resize_0/000409_2014-06-04_19-23-33_260595134347_rgbf000067-resize_0-target.png,250,3.7335,6,1724,247,feet,jsons/v1_VE250_randls_70.json,402793,631101,34,Man
65,467485,DepthScenes,duration_manipulation_targetAtFixation,jsons/v1_VE250_randls_70.json,http://54.235.29.9/FacialAge/BNav_EC2/DepthDuration/v2_depth_duration_MTurk/v2_DepthDuration_HTML.html#103,103,1600,900,1600,900,8-20-2022,10-22-57,66,depth_duration_stimuli/001222_2014-06-17_16-24-06_260595134347_rgbf000073-resize_0/001222_2014-06-17_16-24-06_260595134347_rgbf000073-resize-original.jpg,250,1.4385,0,1692,248,feet,jsons/v1_VE250_randls_70.json,402793,631101,34,Man
66,467485,DepthScenes,duration_manipulation_targetAtFixation,jsons/v1_VE250_randls_70.json,http://54.235.29.9/FacialAge/BNav_EC2/DepthDuration/v2_depth_duration_MTurk/v2_DepthDuration_HTML.html#103,103,1600,900,1600,900,8-20-2022,10-22-57,67,depth_duration_stimuli/000788_2014-06-08_22-34-36_260595134347_rgbf000131-resize_1/000788_2014-06-08_22-34-36_260595134347_rgbf000131-resize_1-target.png,250,3.359,4,2744,259,feet,jsons/v1_VE250_randls_70.json,402793,631101,34,Man
67,467485,DepthScenes,duration_manipulation_targetAtFixation,jsons/v1_VE250_randls_70.json,http://54.235.29.9/FacialAge/BNav_EC2/DepthDuration/v2_depth_duration_MTurk/v2_DepthDuration_HTML.html#103,103,1600,900,1600,900,8-20-2022,10-22-57,68,depth_duration_stimuli/001235_2014-06-17_16-37-36_260595134347_rgbf000084-resize_4/001235_2014-06-17_16-37-36_260595134347_rgbf000084-resize_4-target.png,250,3.6605,6,1468,250,feet,jsons/v1_VE250_randls_70.json,402793,631101,34,Man
68,467485,DepthScenes,duration_manipulation_targetAtFixation,jsons/v1_VE250_randls_70.json,http://54.235.29.9/FacialAge/BNav_EC2/DepthDuration/v2_depth_duration_MTurk/v2_DepthDuration_HTML.html#103,103,1600,900,1600,900,8-20-2022,10-22-57,69,depth_duration_stimuli/001092_2014-06-15_17-34-58_260595134347_rgbf000171-resize_3/001092_2014-06-15_17-34-58_260595134347_rgbf000171-resize_3-target.png,250,2.6935,3,1525,249,feet,jsons/v1_VE250_randls_70.json,402793,631101,34,Man
69,467485,DepthScenes,duration_manipulation_targetAtFixation,jsons/v1_VE250_randls_70.json,http://54.235.29.9/FacialAge/BNav_EC2/DepthDuration/v2_depth_duration_MTurk/v2_DepthDuration_HTML.html#103,103,1600,900,1600,900,8-20-2022,10-22-57,70,depth_duration_stimuli/002545_2014-06-24_13-38-53_094959634447_rgbf000080-resize_4/002545_2014-06-24_13-38-53_094959634447_rgbf000080-resize_4-target.png,250,1.9205,4,1604,249,feet,jsons/v1_VE250_randls_70.json,402793,631101,34,Man
70,467485,DepthScenes,duration_manipulation_targetAtFixation,jsons/v1_VE250_randls_70.json,http://54.235.29.9/FacialAge/BNav_EC2/DepthDuration/v2_depth_duration_MTurk/v2_DepthDuration_HTML.html#103,103,1600,900,1600,900,8-20-2022,10-22-57,71,depth_duration_stimuli/001066_2014-06-08_22-03-20_260595134347_rgbf000066-resize_4/001066_2014-06-08_22-03-20_260595134347_rgbf000066-resize_4-target.png,250,4.2330000000000005,8,1607,250,feet,jsons/v1_VE250_randls_70.json,402793,631101,34,Man
71,467485,DepthScenes,duration_manipulation_targetAtFixation,jsons/v1_VE250_randls_70.json,http://54.235.29.9/FacialAge/BNav_EC2/DepthDuration/v2_depth_duration_MTurk/v2_DepthDuration_HTML.html#103,103,1600,900,1600,900,8-20-2022,10-22-57,72,depth_duration_stimuli/000742_2014-06-08_18-48-09_260595134347_rgbf000164-resize_4/000742_2014-06-08_18-48-09_260595134347_rgbf000164-resize_4-target.png,250,4.632,6,1583,237,feet,jsons/v1_VE250_randls_70.json,402793,631101,34,Man
72,467485,DepthScenes,duration_manipulation_targetAtFixation,jsons/v1_VE250_randls_70.json,http://54.235.29.9/FacialAge/BNav_EC2/DepthDuration/v2_depth_duration_MTurk/v2_DepthDuration_HTML.html#103,103,1600,900,1600,900,8-20-2022,10-22-57,73,depth_duration_stimuli/001150_2014-06-17_15-27-34_260595134347_rgbf000108-resize_2/001150_2014-06-17_15-27-34_260595134347_rgbf000108-resize_2-target.png,250,4.0325,4,2104,250,feet,jsons/v1_VE250_randls_70.json,402793,631101,34,Man
73,467485,DepthScenes,duration_manipulation_targetAtFixation,jsons/v1_VE250_randls_70.json,http://54.235.29.9/FacialAge/BNav_EC2/DepthDuration/v2_depth_duration_MTurk/v2_DepthDuration_HTML.html#103,103,1600,900,1600,900,8-20-2022,10-22-57,74,depth_duration_stimuli/000665_2014-06-09_20-42-35_260595134347_rgbf000110-resize_1/000665_2014-06-09_20-42-35_260595134347_rgbf000110-resize_1-target.png,250,3.057,4,4009,247,feet,jsons/v1_VE250_randls_70.json,402793,631101,34,Man
74,467485,DepthScenes,duration_manipulation_targetAtFixation,jsons/v1_VE250_randls_70.json,http://54.235.29.9/FacialAge/BNav_EC2/DepthDuration/v2_depth_duration_MTurk/v2_DepthDuration_HTML.html#103,103,1600,900,1600,900,8-20-2022,10-22-57,75,depth_duration_stimuli/001110_2014-06-15_17-25-28_260595134347_rgbf000150-resize_1/001110_2014-06-15_17-25-28_260595134347_rgbf000150-resize_1-target.png,250,1.7115,3,2815,240,feet,jsons/v1_VE250_randls_70.json,402793,631101,34,Man
75,467485,DepthScenes,duration_manipulation_targetAtFixation,jsons/v1_VE250_randls_70.json,http://54.235.29.9/FacialAge/BNav_EC2/DepthDuration/v2_depth_duration_MTurk/v2_DepthDuration_HTML.html#103,103,1600,900,1600,900,8-20-2022,10-22-57,76,depth_duration_stimuli/000927_2014-06-09_16-32-30_260595134347_rgbf000123-resize_3/000927_2014-06-09_16-32-30_260595134347_rgbf000123-resize_3-target.png,250,2.6785,4,1501,237,feet,jsons/v1_VE250_randls_70.json,402793,631101,34,Man
76,467485,DepthScenes,duration_manipulation_targetAtFixation,jsons/v1_VE250_randls_70.json,http://54.235.29.9/FacialAge/BNav_EC2/DepthDuration/v2_depth_duration_MTurk/v2_DepthDuration_HTML.html#103,103,1600,900,1600,900,8-20-2022,10-22-57,77,depth_duration_stimuli/002213_2014-06-28_18-37-58_260595134347_rgbf000055-resize_1/002213_2014-06-28_18-37-58_260595134347_rgbf000055-resize_1-target.png,250,3.62,7,2858,248,feet,jsons/v1_VE250_randls_70.json,402793,631101,34,Man
77,467485,DepthScenes,duration_manipulation_targetAtFixation,jsons/v1_VE250_randls_70.json,http://54.235.29.9/FacialAge/BNav_EC2/DepthDuration/v2_depth_duration_MTurk/v2_DepthDuration_HTML.html#103,103,1600,900,1600,900,8-20-2022,10-22-57,78,depth_duration_stimuli/000691_2014-06-08_13-08-50_260595134347_rgbf000132-resize_3/000691_2014-06-08_13-08-50_260595134347_rgbf000132-resize_3-target.png,250,4.1530000000000005,6,1496,251,feet,jsons/v1_VE250_randls_70.json,402793,631101,34,Man
78,467485,DepthScenes,duration_manipulation_targetAtFixation,jsons/v1_VE250_randls_70.json,http://54.235.29.9/FacialAge/BNav_EC2/DepthDuration/v2_depth_duration_MTurk/v2_DepthDuration_HTML.html#103,103,1600,900,1600,900,8-20-2022,10-22-57,79,depth_duration_stimuli/002989_2014-06-15_12-25-03_094959634447_rgbf000150-resize_3/002989_2014-06-15_12-25-03_094959634447_rgbf000150-resize_3-target.png,250,4.1975,8,1518,247,feet,jsons/v1_VE250_randls_70.json,402793,631101,34,Man
79,467485,DepthScenes,duration_manipulation_targetAtFixation,jsons/v1_VE250_randls_70.json,http://54.235.29.9/FacialAge/BNav_EC2/DepthDuration/v2_depth_duration_MTurk/v2_DepthDuration_HTML.html#103,103,1600,900,1600,900,8-20-2022,10-22-57,80,depth_duration_stimuli/000866_2014-06-09_20-45-42_260595134347_rgbf000139-resize_1/000866_2014-06-09_20-45-42_260595134347_rgbf000139-resize_1-target.png,250,3.2155,3,2100,249,feet,jsons/v1_VE250_randls_70.json,402793,631101,34,Man
80,467485,DepthScenes,duration_manipulation_targetAtFixation,jsons/v1_VE250_randls_70.json,http://54.235.29.9/FacialAge/BNav_EC2/DepthDuration/v2_depth_duration_MTurk/v2_DepthDuration_HTML.html#103,103,1600,900,1600,900,8-20-2022,10-22-57,81,depth_duration_stimuli/000493_2014-06-09_21-01-18_260595134347_rgbf000196-resize_3/000493_2014-06-09_21-01-18_260595134347_rgbf000196-resize_3-target.png,250,3.44,4,1479,247,feet,jsons/v1_VE250_randls_70.json,402793,631101,34,Man
81,467485,DepthScenes,duration_manipulation_targetAtFixation,jsons/v1_VE250_randls_70.json,http://54.235.29.9/FacialAge/BNav_EC2/DepthDuration/v2_depth_duration_MTurk/v2_DepthDuration_HTML.html#103,103,1600,900,1600,900,8-20-2022,10-22-57,82,depth_duration_stimuli/000191_2014-05-12_17-07-38_260595134347_rgbf000199-resize_0/000191_2014-05-12_17-07-38_260595134347_rgbf000199-resize_0-target.png,250,3.7995,6,1692,247,feet,jsons/v1_VE250_randls_70.json,402793,631101,34,Man
82,467485,DepthScenes,duration_manipulation_targetAtFixation,jsons/v1_VE250_randls_70.json,http://54.235.29.9/FacialAge/BNav_EC2/DepthDuration/v2_depth_duration_MTurk/v2_DepthDuration_HTML.html#103,103,1600,900,1600,900,8-20-2022,10-22-57,83,depth_duration_stimuli/001133_2014-06-17_14-49-16_260595134347_rgbf000100-resize_0/001133_2014-06-17_14-49-16_260595134347_rgbf000100-resize_0-target.png,250,4.2115,7,1691,251,feet,jsons/v1_VE250_randls_70.json,402793,631101,34,Man
83,467485,DepthScenes,duration_manipulation_targetAtFixation,jsons/v1_VE250_randls_70.json,http://54.235.29.9/FacialAge/BNav_EC2/DepthDuration/v2_depth_duration_MTurk/v2_DepthDuration_HTML.html#103,103,1600,900,1600,900,8-20-2022,10-22-57,84,depth_duration_stimuli/001132_2014-06-17_14-48-54_260595134347_rgbf000100-resize_2/001132_2014-06-17_14-48-54_260595134347_rgbf000100-resize_2-target.png,250,3.753,4,1971,248,feet,jsons/v1_VE250_randls_70.json,402793,631101,34,Man
84,467485,DepthScenes,duration_manipulation_targetAtFixation,jsons/v1_VE250_randls_70.json,http://54.235.29.9/FacialAge/BNav_EC2/DepthDuration/v2_depth_duration_MTurk/v2_DepthDuration_HTML.html#103,103,1600,900,1600,900,8-20-2022,10-22-57,85,depth_duration_stimuli/002600_2014-06-24_14-27-04_094959634447_rgbf000074-resize_2/002600_2014-06-24_14-27-04_094959634447_rgbf000074-resize_2-target.png,250,2.7575,4,2652,248,feet,jsons/v1_VE250_randls_70.json,402793,631101,34,Man
85,467485,DepthScenes,duration_manipulation_targetAtFixation,jsons/v1_VE250_randls_70.json,http://54.235.29.9/FacialAge/BNav_EC2/DepthDuration/v2_depth_duration_MTurk/v2_DepthDuration_HTML.html#103,103,1600,900,1600,900,8-20-2022,10-22-57,86,depth_duration_stimuli/003228_2014-05-14_13-42-35_094959634447_rgbf000101-resize_1/003228_2014-05-14_13-42-35_094959634447_rgbf000101-resize_1-target.png,250,1.9680000000000002,3,1812,264,feet,jsons/v1_VE250_randls_70.json,402793,631101,34,Man
86,467485,DepthScenes,duration_manipulation_targetAtFixation,jsons/v1_VE250_randls_70.json,http://54.235.29.9/FacialAge/BNav_EC2/DepthDuration/v2_depth_duration_MTurk/v2_DepthDuration_HTML.html#103,103,1600,900,1600,900,8-20-2022,10-22-57,87,depth_duration_stimuli/001164_2014-06-17_15-35-46_260595134347_rgbf000085-resize_3/001164_2014-06-17_15-35-46_260595134347_rgbf000085-resize_3-target.png,250,2.354,4,1511,247,feet,jsons/v1_VE250_randls_70.json,402793,631101,34,Man
87,467485,DepthScenes,duration_manipulation_targetAtFixation,jsons/v1_VE250_randls_70.json,http://54.235.29.9/FacialAge/BNav_EC2/DepthDuration/v2_depth_duration_MTurk/v2_DepthDuration_HTML.html#103,103,1600,900,1600,900,8-20-2022,10-22-57,88,depth_duration_stimuli/001136_2014-06-17_15-19-41_260595134347_rgbf000076-resize_3/001136_2014-06-17_15-19-41_260595134347_rgbf000076-resize_3-target.png,250,1.8655,4,2669,249,feet,jsons/v1_VE250_randls_70.json,402793,631101,34,Man
88,467485,DepthScenes,duration_manipulation_targetAtFixation,jsons/v1_VE250_randls_70.json,http://54.235.29.9/FacialAge/BNav_EC2/DepthDuration/v2_depth_duration_MTurk/v2_DepthDuration_HTML.html#103,103,1600,900,1600,900,8-20-2022,10-22-57,89,depth_duration_stimuli/003492_2014-05-21_15-50-55_094959634447_rgbf000828-resize_1/003492_2014-05-21_15-50-55_094959634447_rgbf000828-resize_1-target.png,250,4.06875,6,2916,254,feet,jsons/v1_VE250_randls_70.json,402793,631101,34,Man
89,467485,DepthScenes,duration_manipulation_targetAtFixation,jsons/v1_VE250_randls_70.json,http://54.235.29.9/FacialAge/BNav_EC2/DepthDuration/v2_depth_duration_MTurk/v2_DepthDuration_HTML.html#103,103,1600,900,1600,900,8-20-2022,10-22-57,90,depth_duration_stimuli/002568_2014-06-24_13-59-21_094959634447_rgbf000062-resize_4/002568_2014-06-24_13-59-21_094959634447_rgbf000062-resize_4-target.png,250,3.015,6,1618,249,feet,jsons/v1_VE250_randls_70.json,402793,631101,34,Man
90,467485,DepthScenes,duration_manipulation_targetAtFixation,jsons/v1_VE250_randls_70.json,http://54.235.29.9/FacialAge/BNav_EC2/DepthDuration/v2_depth_duration_MTurk/v2_DepthDuration_HTML.html#103,103,1600,900,1600,900,8-20-2022,10-22-57,91,depth_duration_stimuli/001417_2014-06-19_16-25-36_260595134347_rgbf000115-resize_5/001417_2014-06-19_16-25-36_260595134347_rgbf000115-resize_5-target.png,250,4.6255,7,1707,254,feet,jsons/v1_VE250_randls_70.json,402793,631101,34,Man
91,467485,DepthScenes,duration_manipulation_targetAtFixation,jsons/v1_VE250_randls_70.json,http://54.235.29.9/FacialAge/BNav_EC2/DepthDuration/v2_depth_duration_MTurk/v2_DepthDuration_HTML.html#103,103,1600,900,1600,900,8-20-2022,10-22-57,92,depth_duration_stimuli/003081_2014-06-15_15-19-16_094959634447_rgbf000150-resize_1/003081_2014-06-15_15-19-16_094959634447_rgbf000150-resize_1-target.png,250,3.9125,8,1419,235,feet,jsons/v1_VE250_randls_70.json,402793,631101,34,Man
92,467485,DepthScenes,duration_manipulation_targetAtFixation,jsons/v1_VE250_randls_70.json,http://54.235.29.9/FacialAge/BNav_EC2/DepthDuration/v2_depth_duration_MTurk/v2_DepthDuration_HTML.html#103,103,1600,900,1600,900,8-20-2022,10-22-57,93,depth_duration_stimuli/000447_2014-06-08_16-15-46_260595134347_rgbf000130-resize_1/000447_2014-06-08_16-15-46_260595134347_rgbf000130-resize_1-target.png,250,4.479,8,1838,247,feet,jsons/v1_VE250_randls_70.json,402793,631101,34,Man
93,467485,DepthScenes,duration_manipulation_targetAtFixation,jsons/v1_VE250_randls_70.json,http://54.235.29.9/FacialAge/BNav_EC2/DepthDuration/v2_depth_duration_MTurk/v2_DepthDuration_HTML.html#103,103,1600,900,1600,900,8-20-2022,10-22-57,94,depth_duration_stimuli/001447_2014-06-19_17-00-32_260595134347_rgbf000082-resize_5/001447_2014-06-19_17-00-32_260595134347_rgbf000082-resize_5-target.png,250,4.13775,6,1657,247,feet,jsons/v1_VE250_randls_70.json,402793,631101,34,Man
94,467485,DepthScenes,duration_manipulation_targetAtFixation,jsons/v1_VE250_randls_70.json,http://54.235.29.9/FacialAge/BNav_EC2/DepthDuration/v2_depth_duration_MTurk/v2_DepthDuration_HTML.html#103,103,1600,900,1600,900,8-20-2022,10-22-57,95,depth_duration_stimuli/001449_2014-06-19_17-01-27_260595134347_rgbf000116-resize_2/001449_2014-06-19_17-01-27_260595134347_rgbf000116-resize_2-target.png,250,3.452,4,1909,248,feet,jsons/v1_VE250_randls_70.json,402793,631101,34,Man
95,467485,DepthScenes,duration_manipulation_targetAtFixation,jsons/v1_VE250_randls_70.json,http://54.235.29.9/FacialAge/BNav_EC2/DepthDuration/v2_depth_duration_MTurk/v2_DepthDuration_HTML.html#103,103,1600,900,1600,900,8-20-2022,10-22-57,96,depth_duration_stimuli/001450_2014-06-19_17-02-03_260595134347_rgbf000203-resize_4/001450_2014-06-19_17-02-03_260595134347_rgbf000203-resize_4-target.png,250,4.0106666666667,6,1616,253,feet,jsons/v1_VE250_randls_70.json,402793,631101,34,Man
96,467485,DepthScenes,duration_manipulation_targetAtFixation,jsons/v1_VE250_randls_70.json,http://54.235.29.9/FacialAge/BNav_EC2/DepthDuration/v2_depth_duration_MTurk/v2_DepthDuration_HTML.html#103,103,1600,900,1600,900,8-20-2022,10-22-57,97,depth_duration_stimuli/000469_2014-06-09_19-42-10_260595134347_rgbf000081-resize_1/000469_2014-06-09_19-42-10_260595134347_rgbf000081-resize_1-target.png,250,1.652,3,1604,249,feet,jsons/v1_VE250_randls_70.json,402793,631101,34,Man
97,467485,DepthScenes,duration_manipulation_targetAtFixation,jsons/v1_VE250_randls_70.json,http://54.235.29.9/FacialAge/BNav_EC2/DepthDuration/v2_depth_duration_MTurk/v2_DepthDuration_HTML.html#103,103,1600,900,1600,900,8-20-2022,10-22-57,98,depth_duration_stimuli/000483_2014-06-09_20-41-45_260595134347_rgbf000116-resize_4/000483_2014-06-09_20-41-45_260595134347_rgbf000116-resize_4-target.png,250,1.337,22,1768,261,feet,jsons/v1_VE250_randls_70.json,402793,631101,34,Man
98,467485,DepthScenes,duration_manipulation_targetAtFixation,jsons/v1_VE250_randls_70.json,http://54.235.29.9/FacialAge/BNav_EC2/DepthDuration/v2_depth_duration_MTurk/v2_DepthDuration_HTML.html#103,103,1600,900,1600,900,8-20-2022,10-22-57,99,depth_duration_stimuli/001540_2014-06-20_17-01-05_260595134347_rgbf000086-resize_2/001540_2014-06-20_17-01-05_260595134347_rgbf000086-resize-original.jpg,250,1.459,0,2182,249,feet,jsons/v1_VE250_randls_70.json,402793,631101,34,Man
99,467485,DepthScenes,duration_manipulation_targetAtFixation,jsons/v1_VE250_randls_70.json,http://54.235.29.9/FacialAge/BNav_EC2/DepthDuration/v2_depth_duration_MTurk/v2_DepthDuration_HTML.html#103,103,1600,900,1600,900,8-20-2022,10-22-57,100,depth_duration_stimuli/002509_2014-06-24_13-19-22_094959634447_rgbf000077-resize_0/002509_2014-06-24_13-19-22_094959634447_rgbf000077-resize_0-target.png,250,1.3065,2,2233,258,feet,jsons/v1_VE250_randls_70.json,402793,631101,34,Man
100,467485,DepthScenes,duration_manipulation_targetAtFixation,jsons/v1_VE250_randls_70.json,http://54.235.29.9/FacialAge/BNav_EC2/DepthDuration/v2_depth_duration_MTurk/v2_DepthDuration_HTML.html#103,103,1600,900,1600,900,8-20-2022,10-22-57,101,depth_duration_stimuli/003338_2014-05-20_11-01-23_094959634447_rgbf000051-resize_6/003338_2014-05-20_11-01-23_094959634447_rgbf000051-resize_6-target.png,250,1.693,2,1580,250,feet,jsons/v1_VE250_randls_70.json,402793,631101,34,Man
101,467485,DepthScenes,duration_manipulation_targetAtFixation,jsons/v1_VE250_randls_70.json,http://54.235.29.9/FacialAge/BNav_EC2/DepthDuration/v2_depth_duration_MTurk/v2_DepthDuration_HTML.html#103,103,1600,900,1600,900,8-20-2022,10-22-57,102,depth_duration_stimuli/002375_2014-06-28_20-13-44_260595134347_rgbf000032-resize_1/002375_2014-06-28_20-13-44_260595134347_rgbf000032-resize_1-target.png,250,4.0175,4,1803,251,feet,jsons/v1_VE250_randls_70.json,402793,631101,34,Man
102,467485,DepthScenes,duration_manipulation_targetAtFixation,jsons/v1_VE250_randls_70.json,http://54.235.29.9/FacialAge/BNav_EC2/DepthDuration/v2_depth_duration_MTurk/v2_DepthDuration_HTML.html#103,103,1600,900,1600,900,8-20-2022,10-22-57,103,depth_duration_stimuli/002657_2014-06-13_15-29-54_094959634447_rgbf000150-resize_1/002657_2014-06-13_15-29-54_094959634447_rgbf000150-resize_1-target.png,250,4.919,4,2676,247,feet,jsons/v1_VE250_randls_70.json,402793,631101,34,Man
103,467485,DepthScenes,duration_manipulation_targetAtFixation,jsons/v1_VE250_randls_70.json,http://54.235.29.9/FacialAge/BNav_EC2/DepthDuration/v2_depth_duration_MTurk/v2_DepthDuration_HTML.html#103,103,1600,900,1600,900,8-20-2022,10-22-57,104,depth_duration_stimuli/002272_2014-06-28_18-53-56_260595134347_rgbf000067-resize_2/002272_2014-06-28_18-53-56_260595134347_rgbf000067-resize_2-target.png,250,1.138,2,1895,262,feet,jsons/v1_VE250_randls_70.json,402793,631101,34,Man
104,467485,DepthScenes,duration_manipulation_targetAtFixation,jsons/v1_VE250_randls_70.json,http://54.235.29.9/FacialAge/BNav_EC2/DepthDuration/v2_depth_duration_MTurk/v2_DepthDuration_HTML.html#103,103,1600,900,1600,900,8-20-2022,10-22-57,105,depth_duration_stimuli/001571_2014-06-20_17-21-32_260595134347_rgbf000089-resize_1/001571_2014-06-20_17-21-32_260595134347_rgbf000089-resize_1-target.png,250,1.86,3,1651,238,feet,jsons/v1_VE250_randls_70.json,402793,631101,34,Man
105,467485,DepthScenes,duration_manipulation_targetAtFixation,jsons/v1_VE250_randls_70.json,http://54.235.29.9/FacialAge/BNav_EC2/DepthDuration/v2_depth_duration_MTurk/v2_DepthDuration_HTML.html#103,103,1600,900,1600,900,8-20-2022,10-22-57,106,depth_duration_stimuli/002043_2014-06-24_20-29-38_260595134347_rgbf000039-resize_4/002043_2014-06-24_20-29-38_260595134347_rgbf000039-resize_4-target.png,250,2.8435,6,1851,248,feet,jsons/v1_VE250_randls_70.json,402793,631101,34,Man
106,467485,DepthScenes,duration_manipulation_targetAtFixation,jsons/v1_VE250_randls_70.json,http://54.235.29.9/FacialAge/BNav_EC2/DepthDuration/v2_depth_duration_MTurk/v2_DepthDuration_HTML.html#103,103,1600,900,1600,900,8-20-2022,10-22-57,107,depth_duration_stimuli/003048_2014-06-15_13-49-43_094959634447_rgbf000150-resize_1/003048_2014-06-15_13-49-43_094959634447_rgbf000150-resize_1-target.png,250,4.0035,7,2071,245,feet,jsons/v1_VE250_randls_70.json,402793,631101,34,Man
107,467485,DepthScenes,duration_manipulation_targetAtFixation,jsons/v1_VE250_randls_70.json,http://54.235.29.9/FacialAge/BNav_EC2/DepthDuration/v2_depth_duration_MTurk/v2_DepthDuration_HTML.html#103,103,1600,900,1600,900,8-20-2022,10-22-57,108,depth_duration_stimuli/000009_2014-05-26_14-32-05_260595134347_rgbf000034-resize_3/000009_2014-05-26_14-32-05_260595134347_rgbf000034-resize_3-target.png,250,3.8715,8,2641,263,feet,jsons/v1_VE250_randls_70.json,402793,631101,34,Man
108,467485,DepthScenes,duration_manipulation_targetAtFixation,jsons/v1_VE250_randls_70.json,http://54.235.29.9/FacialAge/BNav_EC2/DepthDuration/v2_depth_duration_MTurk/v2_DepthDuration_HTML.html#103,103,1600,900,1600,900,8-20-2022,10-22-57,109,depth_duration_stimuli/001828_2014-06-26_21-40-03_260595134347_rgbf000024-resize_0/001828_2014-06-26_21-40-03_260595134347_rgbf000024-resize_0-target.png,250,4.8260000000000005,12,2052,244,feet,jsons/v1_VE250_randls_70.json,402793,631101,34,Man
109,467485,DepthScenes,duration_manipulation_targetAtFixation,jsons/v1_VE250_randls_70.json,http://54.235.29.9/FacialAge/BNav_EC2/DepthDuration/v2_depth_duration_MTurk/v2_DepthDuration_HTML.html#103,103,1600,900,1600,900,8-20-2022,10-22-57,110,depth_duration_stimuli/000906_2014-06-08_13-35-43_260595134347_rgbf000155-resize_1/000906_2014-06-08_13-35-43_260595134347_rgbf000155-resize_1-target.png,250,2.8489999999999998,6,1557,249,feet,jsons/v1_VE250_randls_70.json,402793,631101,34,Man
110,467485,DepthScenes,duration_manipulation_targetAtFixation,jsons/v1_VE250_randls_70.json,http://54.235.29.9/FacialAge/BNav_EC2/DepthDuration/v2_depth_duration_MTurk/v2_DepthDuration_HTML.html#103,103,1600,900,1600,900,8-20-2022,10-22-57,111,depth_duration_stimuli/002805_2014-06-22_19-54-03_094959634447_rgbf000079-resize_1/002805_2014-06-22_19-54-03_094959634447_rgbf000079-resize_1-target.png,250,3.1439999999999997,8,1751,247,feet,jsons/v1_VE250_randls_70.json,402793,631101,34,Man
111,467485,DepthScenes,duration_manipulation_targetAtFixation,jsons/v1_VE250_randls_70.json,http://54.235.29.9/FacialAge/BNav_EC2/DepthDuration/v2_depth_duration_MTurk/v2_DepthDuration_HTML.html#103,103,1600,900,1600,900,8-20-2022,10-22-57,112,depth_duration_stimuli/001810_2014-06-26_20-51-35_260595134347_rgbf000040-resize_3/001810_2014-06-26_20-51-35_260595134347_rgbf000040-resize_3-target.png,250,2.2525,4,1883,251,feet,jsons/v1_VE250_randls_70.json,402793,631101,34,Man
112,467485,DepthScenes,duration_manipulation_targetAtFixation,jsons/v1_VE250_randls_70.json,http://54.235.29.9/FacialAge/BNav_EC2/DepthDuration/v2_depth_duration_MTurk/v2_DepthDuration_HTML.html#103,103,1600,900,1600,900,8-20-2022,10-22-57,113,depth_duration_stimuli/003010_2014-06-15_12-54-35_094959634447_rgbf000112-resize_0/003010_2014-06-15_12-54-35_094959634447_rgbf000112-resize_0-target.png,250,3.1185,6,2193,252,feet,jsons/v1_VE250_randls_70.json,402793,631101,34,Man
113,467485,DepthScenes,duration_manipulation_targetAtFixation,jsons/v1_VE250_randls_70.json,http://54.235.29.9/FacialAge/BNav_EC2/DepthDuration/v2_depth_duration_MTurk/v2_DepthDuration_HTML.html#103,103,1600,900,1600,900,8-20-2022,10-22-57,114,depth_duration_stimuli/001016_2014-06-09_16-16-10_260595134347_rgbf000112-resize_5/001016_2014-06-09_16-16-10_260595134347_rgbf000112-resize_5-target.png,250,1.6565,4,2019,248,feet,jsons/v1_VE250_randls_70.json,402793,631101,34,Man
114,467485,DepthScenes,duration_manipulation_targetAtFixation,jsons/v1_VE250_randls_70.json,http://54.235.29.9/FacialAge/BNav_EC2/DepthDuration/v2_depth_duration_MTurk/v2_DepthDuration_HTML.html#103,103,1600,900,1600,900,8-20-2022,10-22-57,115,depth_duration_stimuli/002340_2014-06-28_20-05-46_260595134347_rgbf000113-resize_0/002340_2014-06-28_20-05-46_260595134347_rgbf000113-resize_0-target.png,250,2.4735,8,3217,237,feet,jsons/v1_VE250_randls_70.json,402793,631101,34,Man
115,467485,DepthScenes,duration_manipulation_targetAtFixation,jsons/v1_VE250_randls_70.json,http://54.235.29.9/FacialAge/BNav_EC2/DepthDuration/v2_depth_duration_MTurk/v2_DepthDuration_HTML.html#103,103,1600,900,1600,900,8-20-2022,10-22-57,116,depth_duration_stimuli/001170_2014-06-17_15-43-44_260595134347_rgbf000096-resize_6/001170_2014-06-17_15-43-44_260595134347_rgbf000096-resize-original.jpg,250,1.1909999999999998,0,1484,262,feet,jsons/v1_VE250_randls_70.json,402793,631101,34,Man
116,467485,DepthScenes,duration_manipulation_targetAtFixation,jsons/v1_VE250_randls_70.json,http://54.235.29.9/FacialAge/BNav_EC2/DepthDuration/v2_depth_duration_MTurk/v2_DepthDuration_HTML.html#103,103,1600,900,1600,900,8-20-2022,10-22-57,117,depth_duration_stimuli/001056_2014-06-08_18-46-44_260595134347_rgbf000068-resize_0/001056_2014-06-08_18-46-44_260595134347_rgbf000068-resize_0-target.png,250,2.6625,4,1483,250,feet,jsons/v1_VE250_randls_70.json,402793,631101,34,Man
117,467485,DepthScenes,duration_manipulation_targetAtFixation,jsons/v1_VE250_randls_70.json,http://54.235.29.9/FacialAge/BNav_EC2/DepthDuration/v2_depth_duration_MTurk/v2_DepthDuration_HTML.html#103,103,1600,900,1600,900,8-20-2022,10-22-57,118,depth_duration_stimuli/002199_2014-06-28_18-33-56_260595134347_rgbf000074-resize_0/002199_2014-06-28_18-33-56_260595134347_rgbf000074-resize_0-target.png,250,1.996,3,1797,246,feet,jsons/v1_VE250_randls_70.json,402793,631101,34,Man
118,467485,DepthScenes,duration_manipulation_targetAtFixation,jsons/v1_VE250_randls_70.json,http://54.235.29.9/FacialAge/BNav_EC2/DepthDuration/v2_depth_duration_MTurk/v2_DepthDuration_HTML.html#103,103,1600,900,1600,900,8-20-2022,10-22-57,119,depth_duration_stimuli/002118_2014-06-25_20-32-08_260595134347_rgbf000078-resize_1/002118_2014-06-25_20-32-08_260595134347_rgbf000078-resize_1-target.png,250,2.6460000000000004,4,1576,251,feet,jsons/v1_VE250_randls_70.json,402793,631101,34,Man
119,467485,DepthScenes,duration_manipulation_targetAtFixation,jsons/v1_VE250_randls_70.json,http://54.235.29.9/FacialAge/BNav_EC2/DepthDuration/v2_depth_duration_MTurk/v2_DepthDuration_HTML.html#103,103,1600,900,1600,900,8-20-2022,10-22-57,120,depth_duration_stimuli/001516_2014-06-20_16-25-09_260595134347_rgbf000076-resize_2/001516_2014-06-20_16-25-09_260595134347_rgbf000076-resize_2-target.png,250,1.7445,3,1857,247,feet,jsons/v1_VE250_randls_70.json,402793,631101,34,Man
120,467485,DepthScenes,duration_manipulation_targetAtFixation,jsons/v1_VE250_randls_70.json,http://54.235.29.9/FacialAge/BNav_EC2/DepthDuration/v2_depth_duration_MTurk/v2_DepthDuration_HTML.html#103,103,1600,900,1600,900,8-20-2022,10-22-57,121,depth_duration_stimuli/002057_2014-06-24_21-00-13_260595134347_rgbf000120-resize_1/002057_2014-06-24_21-00-13_260595134347_rgbf000120-resize_1-target.png,250,2.967,6,1730,237,feet,jsons/v1_VE250_randls_70.json,402793,631101,34,Man
121,467485,DepthScenes,duration_manipulation_targetAtFixation,jsons/v1_VE250_randls_70.json,http://54.235.29.9/FacialAge/BNav_EC2/DepthDuration/v2_depth_duration_MTurk/v2_DepthDuration_HTML.html#103,103,1600,900,1600,900,8-20-2022,10-22-57,122,depth_duration_stimuli/000709_2014-06-08_13-51-55_260595134347_rgbf000068-resize_3/000709_2014-06-08_13-51-55_260595134347_rgbf000068-resize_3-target.png,250,1.8030000000000002,3,1858,248,feet,jsons/v1_VE250_randls_70.json,402793,631101,34,Man
122,467485,DepthScenes,duration_manipulation_targetAtFixation,jsons/v1_VE250_randls_70.json,http://54.235.29.9/FacialAge/BNav_EC2/DepthDuration/v2_depth_duration_MTurk/v2_DepthDuration_HTML.html#103,103,1600,900,1600,900,8-20-2022,10-22-57,123,depth_duration_stimuli/002039_2014-06-24_20-22-38_260595134347_rgbf000084-resize_1/002039_2014-06-24_20-22-38_260595134347_rgbf000084-resize_1-target.png,250,4.408,9,1921,251,feet,jsons/v1_VE250_randls_70.json,402793,631101,34,Man
123,467485,DepthScenes,duration_manipulation_targetAtFixation,jsons/v1_VE250_randls_70.json,http://54.235.29.9/FacialAge/BNav_EC2/DepthDuration/v2_depth_duration_MTurk/v2_DepthDuration_HTML.html#103,103,1600,900,1600,900,8-20-2022,10-22-57,124,depth_duration_stimuli/002103_2014-06-25_20-00-40_260595134347_rgbf000049-resize_0/002103_2014-06-25_20-00-40_260595134347_rgbf000049-resize_0-target.png,250,4.105,10,2627,247,feet,jsons/v1_VE250_randls_70.json,402793,631101,34,Man
124,467485,DepthScenes,duration_manipulation_targetAtFixation,jsons/v1_VE250_randls_70.json,http://54.235.29.9/FacialAge/BNav_EC2/DepthDuration/v2_depth_duration_MTurk/v2_DepthDuration_HTML.html#103,103,1600,900,1600,900,8-20-2022,10-22-57,125,depth_duration_stimuli/002964_2014-06-08_17-46-11_094959634447_rgbf000091-resize_4/002964_2014-06-08_17-46-11_094959634447_rgbf000091-resize_4-target.png,250,1.6909999999999998,2,1759,251,feet,jsons/v1_VE250_randls_70.json,402793,631101,34,Man
125,467485,DepthScenes,duration_manipulation_targetAtFixation,jsons/v1_VE250_randls_70.json,http://54.235.29.9/FacialAge/BNav_EC2/DepthDuration/v2_depth_duration_MTurk/v2_DepthDuration_HTML.html#103,103,1600,900,1600,900,8-20-2022,10-22-57,126,depth_duration_stimuli/002136_2014-06-25_21-18-03_260595134347_rgbf000109-resize_3/002136_2014-06-25_21-18-03_260595134347_rgbf000109-resize_3-target.png,250,1.9569999999999999,4,1595,250,feet,jsons/v1_VE250_randls_70.json,402793,631101,34,Man
126,467485,DepthScenes,duration_manipulation_targetAtFixation,jsons/v1_VE250_randls_70.json,http://54.235.29.9/FacialAge/BNav_EC2/DepthDuration/v2_depth_duration_MTurk/v2_DepthDuration_HTML.html#103,103,1600,900,1600,900,8-20-2022,10-22-57,127,depth_duration_stimuli/000642_2014-06-08_16-59-25_260595134347_rgbf000098-resize_2/000642_2014-06-08_16-59-25_260595134347_rgbf000098-resize_2-target.png,250,2.8815,3,1902,250,feet,jsons/v1_VE250_randls_70.json,402793,631101,34,Man
127,467485,DepthScenes,duration_manipulation_targetAtFixation,jsons/v1_VE250_randls_70.json,http://54.235.29.9/FacialAge/BNav_EC2/DepthDuration/v2_depth_duration_MTurk/v2_DepthDuration_HTML.html#103,103,1600,900,1600,900,8-20-2022,10-22-57,128,depth_duration_stimuli/002425_2014-06-28_20-27-29_260595134347_rgbf000031-resize_8/002425_2014-06-28_20-27-29_260595134347_rgbf000031-resize_8-target.png,250,3.8960000000000004,9,1936,246,feet,jsons/v1_VE250_randls_70.json,402793,631101,34,Man
128,467485,DepthScenes,duration_manipulation_targetAtFixation,jsons/v1_VE250_randls_70.json,http://54.235.29.9/FacialAge/BNav_EC2/DepthDuration/v2_depth_duration_MTurk/v2_DepthDuration_HTML.html#103,103,1600,900,1600,900,8-20-2022,10-22-57,129,depth_duration_stimuli/000470_2014-06-09_19-42-40_260595134347_rgbf000094-resize_1/000470_2014-06-09_19-42-40_260595134347_rgbf000094-resize_1-target.png,250,1.831,6,1618,247,feet,jsons/v1_VE250_randls_70.json,402793,631101,34,Man
129,467485,DepthScenes,duration_manipulation_targetAtFixation,jsons/v1_VE250_randls_70.json,http://54.235.29.9/FacialAge/BNav_EC2/DepthDuration/v2_depth_duration_MTurk/v2_DepthDuration_HTML.html#103,103,1600,900,1600,900,8-20-2022,10-22-57,130,depth_duration_stimuli/000109_2014-05-14_23-41-52_260595134347_rgbf000035-resize_9/000109_2014-05-14_23-41-52_260595134347_rgbf000035-resize_9-target.png,250,1.3545,3,1551,248,feet,jsons/v1_VE250_randls_70.json,402793,631101,34,Man
130,467485,DepthScenes,duration_manipulation_targetAtFixation,jsons/v1_VE250_randls_70.json,http://54.235.29.9/FacialAge/BNav_EC2/DepthDuration/v2_depth_duration_MTurk/v2_DepthDuration_HTML.html#103,103,1600,900,1600,900,8-20-2022,10-22-57,131,depth_duration_stimuli/001059_2014-06-08_21-53-27_260595134347_rgbf000061-resize_4/001059_2014-06-08_21-53-27_260595134347_rgbf000061-resize_4-target.png,250,2.4185,4,1472,247,feet,jsons/v1_VE250_randls_70.json,402793,631101,34,Man
131,467485,DepthScenes,duration_manipulation_targetAtFixation,jsons/v1_VE250_randls_70.json,http://54.235.29.9/FacialAge/BNav_EC2/DepthDuration/v2_depth_duration_MTurk/v2_DepthDuration_HTML.html#103,103,1600,900,1600,900,8-20-2022,10-22-57,132,depth_duration_stimuli/001032_2014-06-08_13-23-17_260595134347_rgbf000021-resize_3/001032_2014-06-08_13-23-17_260595134347_rgbf000021-resize_3-target.png,250,3.2725,6,1661,248,feet,jsons/v1_VE250_randls_70.json,402793,631101,34,Man
132,467485,DepthScenes,duration_manipulation_targetAtFixation,jsons/v1_VE250_randls_70.json,http://54.235.29.9/FacialAge/BNav_EC2/DepthDuration/v2_depth_duration_MTurk/v2_DepthDuration_HTML.html#103,103,1600,900,1600,900,8-20-2022,10-22-57,133,depth_duration_stimuli/003292_2014-05-14_21-53-49_094959634447_rgbf000100-resize_2/003292_2014-05-14_21-53-49_094959634447_rgbf000100-resize_2-target.png,250,3.4815,4,1533,238,feet,jsons/v1_VE250_randls_70.json,402793,631101,34,Man
133,467485,DepthScenes,duration_manipulation_targetAtFixation,jsons/v1_VE250_randls_70.json,http://54.235.29.9/FacialAge/BNav_EC2/DepthDuration/v2_depth_duration_MTurk/v2_DepthDuration_HTML.html#103,103,1600,900,1600,900,8-20-2022,10-22-57,134,depth_duration_stimuli/002639_2014-06-24_14-51-37_094959634447_rgbf000074-resize_4/002639_2014-06-24_14-51-37_094959634447_rgbf000074-resize_4-target.png,250,4.0375,6,2323,248,feet,jsons/v1_VE250_randls_70.json,402793,631101,34,Man
134,467485,DepthScenes,duration_manipulation_targetAtFixation,jsons/v1_VE250_randls_70.json,http://54.235.29.9/FacialAge/BNav_EC2/DepthDuration/v2_depth_duration_MTurk/v2_DepthDuration_HTML.html#103,103,1600,900,1600,900,8-20-2022,10-22-57,135,depth_duration_stimuli/002072_2014-06-24_21-48-06_260595134347_rgbf000115-resize_0/002072_2014-06-24_21-48-06_260595134347_rgbf000115-resize-original.jpg,250,4.702,0,2290,250,feet,jsons/v1_VE250_randls_70.json,402793,631101,34,Man
135,467485,DepthScenes,duration_manipulation_targetAtFixation,jsons/v1_VE250_randls_70.json,http://54.235.29.9/FacialAge/BNav_EC2/DepthDuration/v2_depth_duration_MTurk/v2_DepthDuration_HTML.html#103,103,1600,900,1600,900,8-20-2022,10-22-57,136,depth_duration_stimuli/002445_2014-06-28_20-32-16_260595134347_rgbf000029-resize_4/002445_2014-06-28_20-32-16_260595134347_rgbf000029-resize_4-target.png,250,2.5315,3,1721,249,feet,jsons/v1_VE250_randls_70.json,402793,631101,34,Man
136,467485,DepthScenes,duration_manipulation_targetAtFixation,jsons/v1_VE250_randls_70.json,http://54.235.29.9/FacialAge/BNav_EC2/DepthDuration/v2_depth_duration_MTurk/v2_DepthDuration_HTML.html#103,103,1600,900,1600,900,8-20-2022,10-22-57,137,depth_duration_stimuli/000780_2014-06-08_22-28-29_260595134347_rgbf000126-resize_1/000780_2014-06-08_22-28-29_260595134347_rgbf000126-resize_1-target.png,250,3.3825,6,1553,246,feet,jsons/v1_VE250_randls_70.json,402793,631101,34,Man
137,467485,DepthScenes,duration_manipulation_targetAtFixation,jsons/v1_VE250_randls_70.json,http://54.235.29.9/FacialAge/BNav_EC2/DepthDuration/v2_depth_duration_MTurk/v2_DepthDuration_HTML.html#103,103,1600,900,1600,900,8-20-2022,10-22-57,138,depth_duration_stimuli/002570_2014-06-24_13-59-54_094959634447_rgbf000059-resize_0/002570_2014-06-24_13-59-54_094959634447_rgbf000059-resize_0-target.png,250,4.037,7,1632,247,feet,jsons/v1_VE250_randls_70.json,402793,631101,34,Man
138,467485,DepthScenes,duration_manipulation_targetAtFixation,jsons/v1_VE250_randls_70.json,http://54.235.29.9/FacialAge/BNav_EC2/DepthDuration/v2_depth_duration_MTurk/v2_DepthDuration_HTML.html#103,103,1600,900,1600,900,8-20-2022,10-22-57,139,depth_duration_stimuli/002467_2014-06-28_20-38-07_260595134347_rgbf000026-resize_2/002467_2014-06-28_20-38-07_260595134347_rgbf000026-resize_2-target.png,250,4.742,8,1531,249,feet,jsons/v1_VE250_randls_70.json,402793,631101,34,Man
139,467485,DepthScenes,duration_manipulation_targetAtFixation,jsons/v1_VE250_randls_70.json,http://54.235.29.9/FacialAge/BNav_EC2/DepthDuration/v2_depth_duration_MTurk/v2_DepthDuration_HTML.html#103,103,1600,900,1600,900,8-20-2022,10-22-57,140,depth_duration_stimuli/002153_2014-06-25_21-27-18_260595134347_rgbf000038-resize_5/002153_2014-06-25_21-27-18_260595134347_rgbf000038-resize_5-target.png,250,2.505,3,2049,256,feet,jsons/v1_VE250_randls_70.json,402793,631101,34,Man
140,467485,DepthScenes,duration_manipulation_targetAtFixation,jsons/v1_VE250_randls_70.json,http://54.235.29.9/FacialAge/BNav_EC2/DepthDuration/v2_depth_duration_MTurk/v2_DepthDuration_HTML.html#103,103,1600,900,1600,900,8-20-2022,10-22-57,141,depth_duration_stimuli/002660_2014-06-13_15-44-18_094959634447_rgbf001878-resize_2/002660_2014-06-13_15-44-18_094959634447_rgbf001878-resize_2-target.png,250,3.576,6,1579,252,feet,jsons/v1_VE250_randls_70.json,402793,631101,34,Man
141,467485,DepthScenes,duration_manipulation_targetAtFixation,jsons/v1_VE250_randls_70.json,http://54.235.29.9/FacialAge/BNav_EC2/DepthDuration/v2_depth_duration_MTurk/v2_DepthDuration_HTML.html#103,103,1600,900,1600,900,8-20-2022,10-22-57,142,depth_duration_stimuli/001055_2014-06-08_18-45-35_260595134347_rgbf000111-resize_4/001055_2014-06-08_18-45-35_260595134347_rgbf000111-resize_4-target.png,250,2.4290000000000003,8,2056,249,feet,jsons/v1_VE250_randls_70.json,402793,631101,34,Man
142,467485,DepthScenes,duration_manipulation_targetAtFixation,jsons/v1_VE250_randls_70.json,http://54.235.29.9/FacialAge/BNav_EC2/DepthDuration/v2_depth_duration_MTurk/v2_DepthDuration_HTML.html#103,103,1600,900,1600,900,8-20-2022,10-22-57,143,depth_duration_stimuli/000549_2014-06-08_22-10-24_260595134347_rgbf000247-resize_3/000549_2014-06-08_22-10-24_260595134347_rgbf000247-resize_3-target.png,250,1.841,3,1897,251,feet,jsons/v1_VE250_randls_70.json,402793,631101,34,Man
143,467485,DepthScenes,duration_manipulation_targetAtFixation,jsons/v1_VE250_randls_70.json,http://54.235.29.9/FacialAge/BNav_EC2/DepthDuration/v2_depth_duration_MTurk/v2_DepthDuration_HTML.html#103,103,1600,900,1600,900,8-20-2022,10-22-57,144,depth_duration_stimuli/001167_2014-06-17_15-38-07_260595134347_rgbf000108-resize_0/001167_2014-06-17_15-38-07_260595134347_rgbf000108-resize_0-target.png,250,1.8505,2,1622,248,feet,jsons/v1_VE250_randls_70.json,402793,631101,34,Man
144,467485,DepthScenes,duration_manipulation_targetAtFixation,jsons/v1_VE250_randls_70.json,http://54.235.29.9/FacialAge/BNav_EC2/DepthDuration/v2_depth_duration_MTurk/v2_DepthDuration_HTML.html#103,103,1600,900,1600,900,8-20-2022,10-22-57,145,depth_duration_stimuli/003587_2014-05-23_16-48-02_094959634447_rgbf002384-resize_2/003587_2014-05-23_16-48-02_094959634447_rgbf002384-resize_2-target.png,250,1.357,1,1604,250,feet,jsons/v1_VE250_randls_70.json,402793,631101,34,Man
145,467485,DepthScenes,duration_manipulation_targetAtFixation,jsons/v1_VE250_randls_70.json,http://54.235.29.9/FacialAge/BNav_EC2/DepthDuration/v2_depth_duration_MTurk/v2_DepthDuration_HTML.html#103,103,1600,900,1600,900,8-20-2022,10-22-57,146,depth_duration_stimuli/001498_2014-06-19_17-45-14_260595134347_rgbf000129-resize_4/001498_2014-06-19_17-45-14_260595134347_rgbf000129-resize-original.jpg,250,1.4075,0,2230,246,feet,jsons/v1_VE250_randls_70.json,402793,631101,34,Man
146,467485,DepthScenes,duration_manipulation_targetAtFixation,jsons/v1_VE250_randls_70.json,http://54.235.29.9/FacialAge/BNav_EC2/DepthDuration/v2_depth_duration_MTurk/v2_DepthDuration_HTML.html#103,103,1600,900,1600,900,8-20-2022,10-22-57,147,depth_duration_stimuli/000758_2014-06-08_22-05-08_260595134347_rgbf000085-resize_0/000758_2014-06-08_22-05-08_260595134347_rgbf000085-resize_0-target.png,250,3.3810000000000002,6,2120,248,feet,jsons/v1_VE250_randls_70.json,402793,631101,34,Man
147,467485,DepthScenes,duration_manipulation_targetAtFixation,jsons/v1_VE250_randls_70.json,http://54.235.29.9/FacialAge/BNav_EC2/DepthDuration/v2_depth_duration_MTurk/v2_DepthDuration_HTML.html#103,103,1600,900,1600,900,8-20-2022,10-22-57,148,depth_duration_stimuli/000854_2014-06-09_19-43-13_260595134347_rgbf000066-resize_0/000854_2014-06-09_19-43-13_260595134347_rgbf000066-resize_0-target.png,250,3.068,4,1805,252,feet,jsons/v1_VE250_randls_70.json,402793,631101,34,Man
148,467485,DepthScenes,duration_manipulation_targetAtFixation,jsons/v1_VE250_randls_70.json,http://54.235.29.9/FacialAge/BNav_EC2/DepthDuration/v2_depth_duration_MTurk/v2_DepthDuration_HTML.html#103,103,1600,900,1600,900,8-20-2022,10-22-57,149,depth_duration_stimuli/000810_2014-06-08_17-20-01_260595134347_rgbf000105-resize_0/000810_2014-06-08_17-20-01_260595134347_rgbf000105-resize_0-target.png,250,1.4865,3,1602,253,feet,jsons/v1_VE250_randls_70.json,402793,631101,34,Man
149,467485,DepthScenes,duration_manipulation_targetAtFixation,jsons/v1_VE250_randls_70.json,http://54.235.29.9/FacialAge/BNav_EC2/DepthDuration/v2_depth_duration_MTurk/v2_DepthDuration_HTML.html#103,103,1600,900,1600,900,8-20-2022,10-22-57,150,depth_duration_stimuli/001214_2014-06-17_16-13-55_260595134347_rgbf000111-resize_0/001214_2014-06-17_16-13-55_260595134347_rgbf000111-resize_0-target.png,250,2.6505,4,1498,250,feet,jsons/v1_VE250_randls_70.json,402793,631101,34,Man
150,467485,DepthScenes,duration_manipulation_targetAtFixation,jsons/v1_VE250_randls_70.json,http://54.235.29.9/FacialAge/BNav_EC2/DepthDuration/v2_depth_duration_MTurk/v2_DepthDuration_HTML.html#103,103,1600,900,1600,900,8-20-2022,10-22-57,151,depth_duration_stimuli/000736_2014-06-08_18-24-15_260595134347_rgbf000206-resize_3/000736_2014-06-08_18-24-15_260595134347_rgbf000206-resize_3-target.png,250,3.515,4,1581,249,feet,jsons/v1_VE250_randls_70.json,402793,631101,34,Man
151,467485,DepthScenes,duration_manipulation_targetAtFixation,jsons/v1_VE250_randls_70.json,http://54.235.29.9/FacialAge/BNav_EC2/DepthDuration/v2_depth_duration_MTurk/v2_DepthDuration_HTML.html#103,103,1600,900,1600,900,8-20-2022,10-22-57,152,depth_duration_stimuli/000137_2014-05-20_17-04-49_260595134347_rgbf000120-resize_1/000137_2014-05-20_17-04-49_260595134347_rgbf000120-resize_1-target.png,250,3.786,6,1660,249,feet,jsons/v1_VE250_randls_70.json,402793,631101,34,Man
152,467485,DepthScenes,duration_manipulation_targetAtFixation,jsons/v1_VE250_randls_70.json,http://54.235.29.9/FacialAge/BNav_EC2/DepthDuration/v2_depth_duration_MTurk/v2_DepthDuration_HTML.html#103,103,1600,900,1600,900,8-20-2022,10-22-57,153,depth_duration_stimuli/003070_2014-06-15_14-58-27_094959634447_rgbf000150-resize_3/003070_2014-06-15_14-58-27_094959634447_rgbf000150-resize_3-target.png,250,2.9415,6,1735,249,feet,jsons/v1_VE250_randls_70.json,402793,631101,34,Man
153,467485,DepthScenes,duration_manipulation_targetAtFixation,jsons/v1_VE250_randls_70.json,http://54.235.29.9/FacialAge/BNav_EC2/DepthDuration/v2_depth_duration_MTurk/v2_DepthDuration_HTML.html#103,103,1600,900,1600,900,8-20-2022,10-22-57,154,depth_duration_stimuli/000943_2014-06-09_19-31-07_260595134347_rgbf000128-resize_1/000943_2014-06-09_19-31-07_260595134347_rgbf000128-resize_1-target.png,250,1.9765,4,1524,252,feet,jsons/v1_VE250_randls_70.json,402793,631101,34,Man
154,467485,DepthScenes,duration_manipulation_targetAtFixation,jsons/v1_VE250_randls_70.json,http://54.235.29.9/FacialAge/BNav_EC2/DepthDuration/v2_depth_duration_MTurk/v2_DepthDuration_HTML.html#103,103,1600,900,1600,900,8-20-2022,10-22-57,155,depth_duration_stimuli/001555_2014-06-20_17-12-10_260595134347_rgbf000065-resize_4/001555_2014-06-20_17-12-10_260595134347_rgbf000065-resize_4-target.png,250,1.633,2,1949,237,feet,jsons/v1_VE250_randls_70.json,402793,631101,34,Man
155,467485,DepthScenes,duration_manipulation_targetAtFixation,jsons/v1_VE250_randls_70.json,http://54.235.29.9/FacialAge/BNav_EC2/DepthDuration/v2_depth_duration_MTurk/v2_DepthDuration_HTML.html#103,103,1600,900,1600,900,8-20-2022,10-22-57,156,depth_duration_stimuli/000103_2014-05-14_22-01-17_260595134347_rgbf000152-resize_5/000103_2014-05-14_22-01-17_260595134347_rgbf000152-resize_5-target.png,250,1.993,6,1576,253,feet,jsons/v1_VE250_randls_70.json,402793,631101,34,Man
156,467485,DepthScenes,duration_manipulation_targetAtFixation,jsons/v1_VE250_randls_70.json,http://54.235.29.9/FacialAge/BNav_EC2/DepthDuration/v2_depth_duration_MTurk/v2_DepthDuration_HTML.html#103,103,1600,900,1600,900,8-20-2022,10-22-57,157,depth_duration_stimuli/000692_2014-06-08_13-09-42_260595134347_rgbf000199-resize_2/000692_2014-06-08_13-09-42_260595134347_rgbf000199-resize_2-target.png,250,3.661,4,1813,246,feet,jsons/v1_VE250_randls_70.json,402793,631101,34,Man
157,467485,DepthScenes,duration_manipulation_targetAtFixation,jsons/v1_VE250_randls_70.json,http://54.235.29.9/FacialAge/BNav_EC2/DepthDuration/v2_depth_duration_MTurk/v2_DepthDuration_HTML.html#103,103,1600,900,1600,900,8-20-2022,10-22-57,158,depth_duration_stimuli/001094_2014-06-15_17-36-00_260595134347_rgbf000205-resize_0/001094_2014-06-15_17-36-00_260595134347_rgbf000205-resize_0-target.png,250,4.2175,6,2224,237,feet,jsons/v1_VE250_randls_70.json,402793,631101,34,Man
158,467485,DepthScenes,duration_manipulation_targetAtFixation,jsons/v1_VE250_randls_70.json,http://54.235.29.9/FacialAge/BNav_EC2/DepthDuration/v2_depth_duration_MTurk/v2_DepthDuration_HTML.html#103,103,1600,900,1600,900,8-20-2022,10-22-57,159,depth_duration_stimuli/000436_2014-06-09_22-25-11_260595134347_rgbf000137-resize_1/000436_2014-06-09_22-25-11_260595134347_rgbf000137-resize_1-target.png,250,4.0705,8,1544,238,feet,jsons/v1_VE250_randls_70.json,402793,631101,34,Man
159,467485,DepthScenes,duration_manipulation_targetAtFixation,jsons/v1_VE250_randls_70.json,http://54.235.29.9/FacialAge/BNav_EC2/DepthDuration/v2_depth_duration_MTurk/v2_DepthDuration_HTML.html#103,103,1600,900,1600,900,8-20-2022,10-22-57,160,depth_duration_stimuli/002444_2014-06-28_20-32-08_260595134347_rgbf000027-resize_0/002444_2014-06-28_20-32-08_260595134347_rgbf000027-resize_0-target.png,250,4.388999999999999,10,1927,237,feet,jsons/v1_VE250_randls_70.json,402793,631101,34,Man
160,467485,DepthScenes,duration_manipulation_targetAtFixation,jsons/v1_VE250_randls_70.json,http://54.235.29.9/FacialAge/BNav_EC2/DepthDuration/v2_depth_duration_MTurk/v2_DepthDuration_HTML.html#103,103,1600,900,1600,900,8-20-2022,10-22-57,161,depth_duration_stimuli/002784_2014-06-22_19-26-30_094959634447_rgbf000083-resize_3/002784_2014-06-22_19-26-30_094959634447_rgbf000083-resize_3-target.png,250,1.8046666666667,2,1611,265,feet,jsons/v1_VE250_randls_70.json,402793,631101,34,Man
161,467485,DepthScenes,duration_manipulation_targetAtFixation,jsons/v1_VE250_randls_70.json,http://54.235.29.9/FacialAge/BNav_EC2/DepthDuration/v2_depth_duration_MTurk/v2_DepthDuration_HTML.html#103,103,1600,900,1600,900,8-20-2022,10-22-57,162,depth_duration_stimuli/001100_2014-06-15_17-46-26_260595134347_rgbf000225-resize_2/001100_2014-06-15_17-46-26_260595134347_rgbf000225-resize_2-target.png,250,2.24,2,1547,255,feet,jsons/v1_VE250_randls_70.json,402793,631101,34,Man
162,467485,DepthScenes,duration_manipulation_targetAtFixation,jsons/v1_VE250_randls_70.json,http://54.235.29.9/FacialAge/BNav_EC2/DepthDuration/v2_depth_duration_MTurk/v2_DepthDuration_HTML.html#103,103,1600,900,1600,900,8-20-2022,10-22-57,163,depth_duration_stimuli/000878_2014-06-08_22-52-45_260595134347_rgbf000045-resize_2/000878_2014-06-08_22-52-45_260595134347_rgbf000045-resize_2-target.png,250,2.092,4,2368,283,feet,jsons/v1_VE250_randls_70.json,402793,631101,34,Man
163,467485,DepthScenes,duration_manipulation_targetAtFixation,jsons/v1_VE250_randls_70.json,http://54.235.29.9/FacialAge/BNav_EC2/DepthDuration/v2_depth_duration_MTurk/v2_DepthDuration_HTML.html#103,103,1600,900,1600,900,8-20-2022,10-22-57,164,depth_duration_stimuli/002953_2014-06-08_17-32-18_094959634447_rgbf000059-resize_5/002953_2014-06-08_17-32-18_094959634447_rgbf000059-resize_5-target.png,250,1.551,2,1547,255,feet,jsons/v1_VE250_randls_70.json,402793,631101,34,Man
