,subjID,experimentName,versionName,sequenceName,url,selected_row,windowWidth,windowHeight,screenWidth,screenHeight,startDate,startTime,trial,stimulus,duration,actual_depth,depth_estimate,trial_RT,log_sceneDuration,unitSelection,seq_filepath,experimentTime,totalTime,age,gender
0,468031,DepthScenes,duration_manipulation_targetAtFixation,jsons/v1_VE250_randls_21.json,http://54.235.29.9/FacialAge/BNav_EC2/DepthDuration/v2_depth_duration_MTurk/v2_DepthDuration_HTML.html#156,156,1440,789,1440,900,8-20-2022,11-2-53,1,depth_duration_stimuli/000009_2014-05-26_14-32-05_260595134347_rgbf000034-resize_3/000009_2014-05-26_14-32-05_260595134347_rgbf000034-resize_3-target.png,250,3.8715,1,216969,250,feet,jsons/v1_VE250_randls_21.json,1457522,2707107,35,Man
1,468031,DepthScenes,duration_manipulation_targetAtFixation,jsons/v1_VE250_randls_21.json,http://54.235.29.9/FacialAge/BNav_EC2/DepthDuration/v2_depth_duration_MTurk/v2_DepthDuration_HTML.html#156,156,1440,789,1440,900,8-20-2022,11-2-53,2,depth_duration_stimuli/001828_2014-06-26_21-40-03_260595134347_rgbf000024-resize_0/001828_2014-06-26_21-40-03_260595134347_rgbf000024-resize_0-target.png,250,4.8260000000000005,2,3185,249,feet,jsons/v1_VE250_randls_21.json,1457522,2707107,35,Man
2,468031,DepthScenes,duration_manipulation_targetAtFixation,jsons/v1_VE250_randls_21.json,http://54.235.29.9/FacialAge/BNav_EC2/DepthDuration/v2_depth_duration_MTurk/v2_DepthDuration_HTML.html#156,156,1440,789,1440,900,8-20-2022,11-2-53,3,depth_duration_stimuli/001056_2014-06-08_18-46-44_260595134347_rgbf000068-resize_0/001056_2014-06-08_18-46-44_260595134347_rgbf000068-resize_0-target.png,250,2.6625,1,2539,251,feet,jsons/v1_VE250_randls_21.json,1457522,2707107,35,Man
3,468031,DepthScenes,duration_manipulation_targetAtFixation,jsons/v1_VE250_randls_21.json,http://54.235.29.9/FacialAge/BNav_EC2/DepthDuration/v2_depth_duration_MTurk/v2_DepthDuration_HTML.html#156,156,1440,789,1440,900,8-20-2022,11-2-53,4,depth_duration_stimuli/002199_2014-06-28_18-33-56_260595134347_rgbf000074-resize_0/002199_2014-06-28_18-33-56_260595134347_rgbf000074-resize_0-target.png,250,1.996,2,1954,250,feet,jsons/v1_VE250_randls_21.json,1457522,2707107,35,Man
4,468031,DepthScenes,duration_manipulation_targetAtFixation,jsons/v1_VE250_randls_21.json,http://54.235.29.9/FacialAge/BNav_EC2/DepthDuration/v2_depth_duration_MTurk/v2_DepthDuration_HTML.html#156,156,1440,789,1440,900,8-20-2022,11-2-53,5,depth_duration_stimuli/000469_2014-06-09_19-42-10_260595134347_rgbf000081-resize_1/000469_2014-06-09_19-42-10_260595134347_rgbf000081-resize_1-target.png,250,1.652,1,2188,250,feet,jsons/v1_VE250_randls_21.json,1457522,2707107,35,Man
5,468031,DepthScenes,duration_manipulation_targetAtFixation,jsons/v1_VE250_randls_21.json,http://54.235.29.9/FacialAge/BNav_EC2/DepthDuration/v2_depth_duration_MTurk/v2_DepthDuration_HTML.html#156,156,1440,789,1440,900,8-20-2022,11-2-53,6,depth_duration_stimuli/000483_2014-06-09_20-41-45_260595134347_rgbf000116-resize_4/000483_2014-06-09_20-41-45_260595134347_rgbf000116-resize_4-target.png,250,1.337,2,2073,249,feet,jsons/v1_VE250_randls_21.json,1457522,2707107,35,Man
6,468031,DepthScenes,duration_manipulation_targetAtFixation,jsons/v1_VE250_randls_21.json,http://54.235.29.9/FacialAge/BNav_EC2/DepthDuration/v2_depth_duration_MTurk/v2_DepthDuration_HTML.html#156,156,1440,789,1440,900,8-20-2022,11-2-53,7,depth_duration_stimuli/001175_2014-06-17_15-45-55_260595134347_rgbf000129-resize_4/001175_2014-06-17_15-45-55_260595134347_rgbf000129-resize_4-target.png,250,4.255,2,1891,264,feet,jsons/v1_VE250_randls_21.json,1457522,2707107,35,Man
7,468031,DepthScenes,duration_manipulation_targetAtFixation,jsons/v1_VE250_randls_21.json,http://54.235.29.9/FacialAge/BNav_EC2/DepthDuration/v2_depth_duration_MTurk/v2_DepthDuration_HTML.html#156,156,1440,789,1440,900,8-20-2022,11-2-53,8,depth_duration_stimuli/003490_2014-05-21_15-50-11_094959634447_rgbf000101-resize_3/003490_2014-05-21_15-50-11_094959634447_rgbf000101-resize_3-target.png,250,3.6445,2,1886,245,feet,jsons/v1_VE250_randls_21.json,1457522,2707107,35,Man
8,468031,DepthScenes,duration_manipulation_targetAtFixation,jsons/v1_VE250_randls_21.json,http://54.235.29.9/FacialAge/BNav_EC2/DepthDuration/v2_depth_duration_MTurk/v2_DepthDuration_HTML.html#156,156,1440,789,1440,900,8-20-2022,11-2-53,9,depth_duration_stimuli/002509_2014-06-24_13-19-22_094959634447_rgbf000077-resize_0/002509_2014-06-24_13-19-22_094959634447_rgbf000077-resize_0-target.png,250,1.3065,2,1914,249,feet,jsons/v1_VE250_randls_21.json,1457522,2707107,35,Man
9,468031,DepthScenes,duration_manipulation_targetAtFixation,jsons/v1_VE250_randls_21.json,http://54.235.29.9/FacialAge/BNav_EC2/DepthDuration/v2_depth_duration_MTurk/v2_DepthDuration_HTML.html#156,156,1440,789,1440,900,8-20-2022,11-2-53,10,depth_duration_stimuli/003338_2014-05-20_11-01-23_094959634447_rgbf000051-resize_6/003338_2014-05-20_11-01-23_094959634447_rgbf000051-resize_6-target.png,250,1.693,1,1971,250,feet,jsons/v1_VE250_randls_21.json,1457522,2707107,35,Man
10,468031,DepthScenes,duration_manipulation_targetAtFixation,jsons/v1_VE250_randls_21.json,http://54.235.29.9/FacialAge/BNav_EC2/DepthDuration/v2_depth_duration_MTurk/v2_DepthDuration_HTML.html#156,156,1440,789,1440,900,8-20-2022,11-2-53,11,depth_duration_stimuli/000493_2014-06-09_21-01-18_260595134347_rgbf000196-resize_3/000493_2014-06-09_21-01-18_260595134347_rgbf000196-resize_3-target.png,250,3.44,2,2098,251,feet,jsons/v1_VE250_randls_21.json,1457522,2707107,35,Man
11,468031,DepthScenes,duration_manipulation_targetAtFixation,jsons/v1_VE250_randls_21.json,http://54.235.29.9/FacialAge/BNav_EC2/DepthDuration/v2_depth_duration_MTurk/v2_DepthDuration_HTML.html#156,156,1440,789,1440,900,8-20-2022,11-2-53,12,depth_duration_stimuli/000191_2014-05-12_17-07-38_260595134347_rgbf000199-resize_0/000191_2014-05-12_17-07-38_260595134347_rgbf000199-resize_0-target.png,250,3.7995,2,1883,250,feet,jsons/v1_VE250_randls_21.json,1457522,2707107,35,Man
12,468031,DepthScenes,duration_manipulation_targetAtFixation,jsons/v1_VE250_randls_21.json,http://54.235.29.9/FacialAge/BNav_EC2/DepthDuration/v2_depth_duration_MTurk/v2_DepthDuration_HTML.html#156,156,1440,789,1440,900,8-20-2022,11-2-53,13,depth_duration_stimuli/000569_2014-06-09_22-51-47_260595134347_rgbf000141-resize_3/000569_2014-06-09_22-51-47_260595134347_rgbf000141-resize-original.jpg,250,4.512,0,2682,250,feet,jsons/v1_VE250_randls_21.json,1457522,2707107,35,Man
13,468031,DepthScenes,duration_manipulation_targetAtFixation,jsons/v1_VE250_randls_21.json,http://54.235.29.9/FacialAge/BNav_EC2/DepthDuration/v2_depth_duration_MTurk/v2_DepthDuration_HTML.html#156,156,1440,789,1440,900,8-20-2022,11-2-53,14,depth_duration_stimuli/001555_2014-06-20_17-12-10_260595134347_rgbf000065-resize_4/001555_2014-06-20_17-12-10_260595134347_rgbf000065-resize_4-target.png,250,1.633,2,2578,250,feet,jsons/v1_VE250_randls_21.json,1457522,2707107,35,Man
14,468031,DepthScenes,duration_manipulation_targetAtFixation,jsons/v1_VE250_randls_21.json,http://54.235.29.9/FacialAge/BNav_EC2/DepthDuration/v2_depth_duration_MTurk/v2_DepthDuration_HTML.html#156,156,1440,789,1440,900,8-20-2022,11-2-53,15,depth_duration_stimuli/000103_2014-05-14_22-01-17_260595134347_rgbf000152-resize_5/000103_2014-05-14_22-01-17_260595134347_rgbf000152-resize_5-target.png,250,1.993,2,2500,251,feet,jsons/v1_VE250_randls_21.json,1457522,2707107,35,Man
15,468031,DepthScenes,duration_manipulation_targetAtFixation,jsons/v1_VE250_randls_21.json,http://54.235.29.9/FacialAge/BNav_EC2/DepthDuration/v2_depth_duration_MTurk/v2_DepthDuration_HTML.html#156,156,1440,789,1440,900,8-20-2022,11-2-53,16,depth_duration_stimuli/000642_2014-06-08_16-59-25_260595134347_rgbf000098-resize_2/000642_2014-06-08_16-59-25_260595134347_rgbf000098-resize_2-target.png,250,2.8815,2,1970,251,feet,jsons/v1_VE250_randls_21.json,1457522,2707107,35,Man
16,468031,DepthScenes,duration_manipulation_targetAtFixation,jsons/v1_VE250_randls_21.json,http://54.235.29.9/FacialAge/BNav_EC2/DepthDuration/v2_depth_duration_MTurk/v2_DepthDuration_HTML.html#156,156,1440,789,1440,900,8-20-2022,11-2-53,17,depth_duration_stimuli/002425_2014-06-28_20-27-29_260595134347_rgbf000031-resize_8/002425_2014-06-28_20-27-29_260595134347_rgbf000031-resize_8-target.png,250,3.8960000000000004,2,2379,250,feet,jsons/v1_VE250_randls_21.json,1457522,2707107,35,Man
17,468031,DepthScenes,duration_manipulation_targetAtFixation,jsons/v1_VE250_randls_21.json,http://54.235.29.9/FacialAge/BNav_EC2/DepthDuration/v2_depth_duration_MTurk/v2_DepthDuration_HTML.html#156,156,1440,789,1440,900,8-20-2022,11-2-53,18,depth_duration_stimuli/001449_2014-06-19_17-01-27_260595134347_rgbf000116-resize_2/001449_2014-06-19_17-01-27_260595134347_rgbf000116-resize_2-target.png,250,3.452,2,2115,250,feet,jsons/v1_VE250_randls_21.json,1457522,2707107,35,Man
18,468031,DepthScenes,duration_manipulation_targetAtFixation,jsons/v1_VE250_randls_21.json,http://54.235.29.9/FacialAge/BNav_EC2/DepthDuration/v2_depth_duration_MTurk/v2_DepthDuration_HTML.html#156,156,1440,789,1440,900,8-20-2022,11-2-53,19,depth_duration_stimuli/001450_2014-06-19_17-02-03_260595134347_rgbf000203-resize_4/001450_2014-06-19_17-02-03_260595134347_rgbf000203-resize_4-target.png,250,4.0106666666667,0,4315,249,feet,jsons/v1_VE250_randls_21.json,1457522,2707107,35,Man
19,468031,DepthScenes,duration_manipulation_targetAtFixation,jsons/v1_VE250_randls_21.json,http://54.235.29.9/FacialAge/BNav_EC2/DepthDuration/v2_depth_duration_MTurk/v2_DepthDuration_HTML.html#156,156,1440,789,1440,900,8-20-2022,11-2-53,20,depth_duration_stimuli/001055_2014-06-08_18-45-35_260595134347_rgbf000111-resize_4/001055_2014-06-08_18-45-35_260595134347_rgbf000111-resize_4-target.png,250,2.4290000000000003,2,1962,264,feet,jsons/v1_VE250_randls_21.json,1457522,2707107,35,Man
20,468031,DepthScenes,duration_manipulation_targetAtFixation,jsons/v1_VE250_randls_21.json,http://54.235.29.9/FacialAge/BNav_EC2/DepthDuration/v2_depth_duration_MTurk/v2_DepthDuration_HTML.html#156,156,1440,789,1440,900,8-20-2022,11-2-53,21,depth_duration_stimuli/000549_2014-06-08_22-10-24_260595134347_rgbf000247-resize_3/000549_2014-06-08_22-10-24_260595134347_rgbf000247-resize_3-target.png,250,1.841,2,1988,250,feet,jsons/v1_VE250_randls_21.json,1457522,2707107,35,Man
21,468031,DepthScenes,duration_manipulation_targetAtFixation,jsons/v1_VE250_randls_21.json,http://54.235.29.9/FacialAge/BNav_EC2/DepthDuration/v2_depth_duration_MTurk/v2_DepthDuration_HTML.html#156,156,1440,789,1440,900,8-20-2022,11-2-53,22,depth_duration_stimuli/001011_2014-06-08_23-18-54_260595134347_rgbf000044-resize_4/001011_2014-06-08_23-18-54_260595134347_rgbf000044-resize_4-target.png,250,2.4730000000000003,2,2034,250,feet,jsons/v1_VE250_randls_21.json,1457522,2707107,35,Man
22,468031,DepthScenes,duration_manipulation_targetAtFixation,jsons/v1_VE250_randls_21.json,http://54.235.29.9/FacialAge/BNav_EC2/DepthDuration/v2_depth_duration_MTurk/v2_DepthDuration_HTML.html#156,156,1440,789,1440,900,8-20-2022,11-2-53,23,depth_duration_stimuli/002875_2014-06-01_15-19-00_094959634447_rgbf000151-resize_1/002875_2014-06-01_15-19-00_094959634447_rgbf000151-resize_1-target.png,250,1.9675,2,2386,251,feet,jsons/v1_VE250_randls_21.json,1457522,2707107,35,Man
23,468031,DepthScenes,duration_manipulation_targetAtFixation,jsons/v1_VE250_randls_21.json,http://54.235.29.9/FacialAge/BNav_EC2/DepthDuration/v2_depth_duration_MTurk/v2_DepthDuration_HTML.html#156,156,1440,789,1440,900,8-20-2022,11-2-53,24,depth_duration_stimuli/000758_2014-06-08_22-05-08_260595134347_rgbf000085-resize_0/000758_2014-06-08_22-05-08_260595134347_rgbf000085-resize_0-target.png,250,3.3810000000000002,2,1827,251,feet,jsons/v1_VE250_randls_21.json,1457522,2707107,35,Man
24,468031,DepthScenes,duration_manipulation_targetAtFixation,jsons/v1_VE250_randls_21.json,http://54.235.29.9/FacialAge/BNav_EC2/DepthDuration/v2_depth_duration_MTurk/v2_DepthDuration_HTML.html#156,156,1440,789,1440,900,8-20-2022,11-2-53,25,depth_duration_stimuli/000854_2014-06-09_19-43-13_260595134347_rgbf000066-resize_0/000854_2014-06-09_19-43-13_260595134347_rgbf000066-resize_0-target.png,250,3.068,2,1916,251,feet,jsons/v1_VE250_randls_21.json,1457522,2707107,35,Man
25,468031,DepthScenes,duration_manipulation_targetAtFixation,jsons/v1_VE250_randls_21.json,http://54.235.29.9/FacialAge/BNav_EC2/DepthDuration/v2_depth_duration_MTurk/v2_DepthDuration_HTML.html#156,156,1440,789,1440,900,8-20-2022,11-2-53,26,depth_duration_stimuli/000470_2014-06-09_19-42-40_260595134347_rgbf000094-resize_1/000470_2014-06-09_19-42-40_260595134347_rgbf000094-resize_1-target.png,250,1.831,0,1938,250,feet,jsons/v1_VE250_randls_21.json,1457522,2707107,35,Man
26,468031,DepthScenes,duration_manipulation_targetAtFixation,jsons/v1_VE250_randls_21.json,http://54.235.29.9/FacialAge/BNav_EC2/DepthDuration/v2_depth_duration_MTurk/v2_DepthDuration_HTML.html#156,156,1440,789,1440,900,8-20-2022,11-2-53,27,depth_duration_stimuli/000109_2014-05-14_23-41-52_260595134347_rgbf000035-resize_9/000109_2014-05-14_23-41-52_260595134347_rgbf000035-resize_9-target.png,250,1.3545,2,6234,250,feet,jsons/v1_VE250_randls_21.json,1457522,2707107,35,Man
27,468031,DepthScenes,duration_manipulation_targetAtFixation,jsons/v1_VE250_randls_21.json,http://54.235.29.9/FacialAge/BNav_EC2/DepthDuration/v2_depth_duration_MTurk/v2_DepthDuration_HTML.html#156,156,1440,789,1440,900,8-20-2022,11-2-53,28,depth_duration_stimuli/001244_2014-06-17_16-47-45_260595134347_rgbf000030-resize_4/001244_2014-06-17_16-47-45_260595134347_rgbf000030-resize_4-target.png,250,2.0425,0,1963,251,feet,jsons/v1_VE250_randls_21.json,1457522,2707107,35,Man
28,468031,DepthScenes,duration_manipulation_targetAtFixation,jsons/v1_VE250_randls_21.json,http://54.235.29.9/FacialAge/BNav_EC2/DepthDuration/v2_depth_duration_MTurk/v2_DepthDuration_HTML.html#156,156,1440,789,1440,900,8-20-2022,11-2-53,29,depth_duration_stimuli/003495_2014-05-21_16-01-51_094959634447_rgbf000100-resize_3/003495_2014-05-21_16-01-51_094959634447_rgbf000100-resize_3-target.png,250,1.6255,2,2243,251,feet,jsons/v1_VE250_randls_21.json,1457522,2707107,35,Man
29,468031,DepthScenes,duration_manipulation_targetAtFixation,jsons/v1_VE250_randls_21.json,http://54.235.29.9/FacialAge/BNav_EC2/DepthDuration/v2_depth_duration_MTurk/v2_DepthDuration_HTML.html#156,156,1440,789,1440,900,8-20-2022,11-2-53,30,depth_duration_stimuli/000375_2014-06-08_11-17-29_260595134347_rgbf000133-resize_2/000375_2014-06-08_11-17-29_260595134347_rgbf000133-resize-original.jpg,250,4.718,0,2483,252,feet,jsons/v1_VE250_randls_21.json,1457522,2707107,35,Man
30,468031,DepthScenes,duration_manipulation_targetAtFixation,jsons/v1_VE250_randls_21.json,http://54.235.29.9/FacialAge/BNav_EC2/DepthDuration/v2_depth_duration_MTurk/v2_DepthDuration_HTML.html#156,156,1440,789,1440,900,8-20-2022,11-2-53,31,depth_duration_stimuli/002905_2014-06-03_18-04-43_094959634447_rgbf000151-resize_2/002905_2014-06-03_18-04-43_094959634447_rgbf000151-resize_2-target.png,250,2.0295,1,2732,250,feet,jsons/v1_VE250_randls_21.json,1457522,2707107,35,Man
31,468031,DepthScenes,duration_manipulation_targetAtFixation,jsons/v1_VE250_randls_21.json,http://54.235.29.9/FacialAge/BNav_EC2/DepthDuration/v2_depth_duration_MTurk/v2_DepthDuration_HTML.html#156,156,1440,789,1440,900,8-20-2022,11-2-53,32,depth_duration_stimuli/003423_2014-05-21_10-23-26_094959634447_rgbf002665-resize_2/003423_2014-05-21_10-23-26_094959634447_rgbf002665-resize_2-target.png,250,3.2575,1,2086,239,feet,jsons/v1_VE250_randls_21.json,1457522,2707107,35,Man
32,468031,DepthScenes,duration_manipulation_targetAtFixation,jsons/v1_VE250_randls_21.json,http://54.235.29.9/FacialAge/BNav_EC2/DepthDuration/v2_depth_duration_MTurk/v2_DepthDuration_HTML.html#156,156,1440,789,1440,900,8-20-2022,11-2-53,33,depth_duration_stimuli/002118_2014-06-25_20-32-08_260595134347_rgbf000078-resize_1/002118_2014-06-25_20-32-08_260595134347_rgbf000078-resize_1-target.png,250,2.6460000000000004,0,1969,248,feet,jsons/v1_VE250_randls_21.json,1457522,2707107,35,Man
33,468031,DepthScenes,duration_manipulation_targetAtFixation,jsons/v1_VE250_randls_21.json,http://54.235.29.9/FacialAge/BNav_EC2/DepthDuration/v2_depth_duration_MTurk/v2_DepthDuration_HTML.html#156,156,1440,789,1440,900,8-20-2022,11-2-53,34,depth_duration_stimuli/001516_2014-06-20_16-25-09_260595134347_rgbf000076-resize_2/001516_2014-06-20_16-25-09_260595134347_rgbf000076-resize_2-target.png,250,1.7445,1,1866,250,feet,jsons/v1_VE250_randls_21.json,1457522,2707107,35,Man
34,468031,DepthScenes,duration_manipulation_targetAtFixation,jsons/v1_VE250_randls_21.json,http://54.235.29.9/FacialAge/BNav_EC2/DepthDuration/v2_depth_duration_MTurk/v2_DepthDuration_HTML.html#156,156,1440,789,1440,900,8-20-2022,11-2-53,35,depth_duration_stimuli/002153_2014-06-25_21-27-18_260595134347_rgbf000038-resize_5/002153_2014-06-25_21-27-18_260595134347_rgbf000038-resize_5-target.png,250,2.505,1,2201,239,feet,jsons/v1_VE250_randls_21.json,1457522,2707107,35,Man
35,468031,DepthScenes,duration_manipulation_targetAtFixation,jsons/v1_VE250_randls_21.json,http://54.235.29.9/FacialAge/BNav_EC2/DepthDuration/v2_depth_duration_MTurk/v2_DepthDuration_HTML.html#156,156,1440,789,1440,900,8-20-2022,11-2-53,36,depth_duration_stimuli/002660_2014-06-13_15-44-18_094959634447_rgbf001878-resize_2/002660_2014-06-13_15-44-18_094959634447_rgbf001878-resize_2-target.png,250,3.576,2,1954,250,feet,jsons/v1_VE250_randls_21.json,1457522,2707107,35,Man
36,468031,DepthScenes,duration_manipulation_targetAtFixation,jsons/v1_VE250_randls_21.json,http://54.235.29.9/FacialAge/BNav_EC2/DepthDuration/v2_depth_duration_MTurk/v2_DepthDuration_HTML.html#156,156,1440,789,1440,900,8-20-2022,11-2-53,37,depth_duration_stimuli/002600_2014-06-24_14-27-04_094959634447_rgbf000074-resize_2/002600_2014-06-24_14-27-04_094959634447_rgbf000074-resize_2-target.png,250,2.7575,1,1955,251,feet,jsons/v1_VE250_randls_21.json,1457522,2707107,35,Man
37,468031,DepthScenes,duration_manipulation_targetAtFixation,jsons/v1_VE250_randls_21.json,http://54.235.29.9/FacialAge/BNav_EC2/DepthDuration/v2_depth_duration_MTurk/v2_DepthDuration_HTML.html#156,156,1440,789,1440,900,8-20-2022,11-2-53,38,depth_duration_stimuli/003228_2014-05-14_13-42-35_094959634447_rgbf000101-resize_1/003228_2014-05-14_13-42-35_094959634447_rgbf000101-resize_1-target.png,250,1.9680000000000002,2,2378,251,feet,jsons/v1_VE250_randls_21.json,1457522,2707107,35,Man
38,468031,DepthScenes,duration_manipulation_targetAtFixation,jsons/v1_VE250_randls_21.json,http://54.235.29.9/FacialAge/BNav_EC2/DepthDuration/v2_depth_duration_MTurk/v2_DepthDuration_HTML.html#156,156,1440,789,1440,900,8-20-2022,11-2-53,39,depth_duration_stimuli/002964_2014-06-08_17-46-11_094959634447_rgbf000091-resize_4/002964_2014-06-08_17-46-11_094959634447_rgbf000091-resize_4-target.png,250,1.6909999999999998,1,539588,250,feet,jsons/v1_VE250_randls_21.json,1457522,2707107,35,Man
39,468031,DepthScenes,duration_manipulation_targetAtFixation,jsons/v1_VE250_randls_21.json,http://54.235.29.9/FacialAge/BNav_EC2/DepthDuration/v2_depth_duration_MTurk/v2_DepthDuration_HTML.html#156,156,1440,789,1440,900,8-20-2022,11-2-53,40,depth_duration_stimuli/002136_2014-06-25_21-18-03_260595134347_rgbf000109-resize_3/002136_2014-06-25_21-18-03_260595134347_rgbf000109-resize_3-target.png,250,1.9569999999999999,2,2017,249,feet,jsons/v1_VE250_randls_21.json,1457522,2707107,35,Man
40,468031,DepthScenes,duration_manipulation_targetAtFixation,jsons/v1_VE250_randls_21.json,http://54.235.29.9/FacialAge/BNav_EC2/DepthDuration/v2_depth_duration_MTurk/v2_DepthDuration_HTML.html#156,156,1440,789,1440,900,8-20-2022,11-2-53,41,depth_duration_stimuli/003070_2014-06-15_14-58-27_094959634447_rgbf000150-resize_3/003070_2014-06-15_14-58-27_094959634447_rgbf000150-resize_3-target.png,250,2.9415,2,2003,251,feet,jsons/v1_VE250_randls_21.json,1457522,2707107,35,Man
41,468031,DepthScenes,duration_manipulation_targetAtFixation,jsons/v1_VE250_randls_21.json,http://54.235.29.9/FacialAge/BNav_EC2/DepthDuration/v2_depth_duration_MTurk/v2_DepthDuration_HTML.html#156,156,1440,789,1440,900,8-20-2022,11-2-53,42,depth_duration_stimuli/000943_2014-06-09_19-31-07_260595134347_rgbf000128-resize_1/000943_2014-06-09_19-31-07_260595134347_rgbf000128-resize_1-target.png,250,1.9765,2,1899,251,feet,jsons/v1_VE250_randls_21.json,1457522,2707107,35,Man
42,468031,DepthScenes,duration_manipulation_targetAtFixation,jsons/v1_VE250_randls_21.json,http://54.235.29.9/FacialAge/BNav_EC2/DepthDuration/v2_depth_duration_MTurk/v2_DepthDuration_HTML.html#156,156,1440,789,1440,900,8-20-2022,11-2-53,43,depth_duration_stimuli/001150_2014-06-17_15-27-34_260595134347_rgbf000108-resize_2/001150_2014-06-17_15-27-34_260595134347_rgbf000108-resize_2-target.png,250,4.0325,2,2059,251,feet,jsons/v1_VE250_randls_21.json,1457522,2707107,35,Man
43,468031,DepthScenes,duration_manipulation_targetAtFixation,jsons/v1_VE250_randls_21.json,http://54.235.29.9/FacialAge/BNav_EC2/DepthDuration/v2_depth_duration_MTurk/v2_DepthDuration_HTML.html#156,156,1440,789,1440,900,8-20-2022,11-2-53,44,depth_duration_stimuli/000665_2014-06-09_20-42-35_260595134347_rgbf000110-resize_1/000665_2014-06-09_20-42-35_260595134347_rgbf000110-resize_1-target.png,250,3.057,2,1889,250,feet,jsons/v1_VE250_randls_21.json,1457522,2707107,35,Man
44,468031,DepthScenes,duration_manipulation_targetAtFixation,jsons/v1_VE250_randls_21.json,http://54.235.29.9/FacialAge/BNav_EC2/DepthDuration/v2_depth_duration_MTurk/v2_DepthDuration_HTML.html#156,156,1309,717,1440,900,8-20-2022,11-2-53,45,depth_duration_stimuli/000787_2014-06-08_22-33-53_260595134347_rgbf000175-resize_1/000787_2014-06-08_22-33-53_260595134347_rgbf000175-resize-original.jpg,250,4.784,1,3507,250,feet,jsons/v1_VE250_randls_21.json,1457522,2707107,35,Man
45,468031,DepthScenes,duration_manipulation_targetAtFixation,jsons/v1_VE250_randls_21.json,http://54.235.29.9/FacialAge/BNav_EC2/DepthDuration/v2_depth_duration_MTurk/v2_DepthDuration_HTML.html#156,156,1309,717,1440,900,8-20-2022,11-2-53,46,depth_duration_stimuli/001092_2014-06-15_17-34-58_260595134347_rgbf000171-resize_3/001092_2014-06-15_17-34-58_260595134347_rgbf000171-resize_3-target.png,250,2.6935,2,2009,249,feet,jsons/v1_VE250_randls_21.json,1457522,2707107,35,Man
46,468031,DepthScenes,duration_manipulation_targetAtFixation,jsons/v1_VE250_randls_21.json,http://54.235.29.9/FacialAge/BNav_EC2/DepthDuration/v2_depth_duration_MTurk/v2_DepthDuration_HTML.html#156,156,1309,717,1440,900,8-20-2022,11-2-53,47,depth_duration_stimuli/002545_2014-06-24_13-38-53_094959634447_rgbf000080-resize_4/002545_2014-06-24_13-38-53_094959634447_rgbf000080-resize_4-target.png,250,1.9205,1,1860,250,feet,jsons/v1_VE250_randls_21.json,1457522,2707107,35,Man
47,468031,DepthScenes,duration_manipulation_targetAtFixation,jsons/v1_VE250_randls_21.json,http://54.235.29.9/FacialAge/BNav_EC2/DepthDuration/v2_depth_duration_MTurk/v2_DepthDuration_HTML.html#156,156,1309,717,1440,900,8-20-2022,11-2-53,48,depth_duration_stimuli/002445_2014-06-28_20-32-16_260595134347_rgbf000029-resize_4/002445_2014-06-28_20-32-16_260595134347_rgbf000029-resize_4-target.png,250,2.5315,2,1786,249,feet,jsons/v1_VE250_randls_21.json,1457522,2707107,35,Man
48,468031,DepthScenes,duration_manipulation_targetAtFixation,jsons/v1_VE250_randls_21.json,http://54.235.29.9/FacialAge/BNav_EC2/DepthDuration/v2_depth_duration_MTurk/v2_DepthDuration_HTML.html#156,156,1309,717,1440,900,8-20-2022,11-2-53,49,depth_duration_stimuli/000780_2014-06-08_22-28-29_260595134347_rgbf000126-resize_1/000780_2014-06-08_22-28-29_260595134347_rgbf000126-resize_1-target.png,250,3.3825,1,3018,251,feet,jsons/v1_VE250_randls_21.json,1457522,2707107,35,Man
49,468031,DepthScenes,duration_manipulation_targetAtFixation,jsons/v1_VE250_randls_21.json,http://54.235.29.9/FacialAge/BNav_EC2/DepthDuration/v2_depth_duration_MTurk/v2_DepthDuration_HTML.html#156,156,1309,717,1440,900,8-20-2022,11-2-53,50,depth_duration_stimuli/001059_2014-06-08_21-53-27_260595134347_rgbf000061-resize_4/001059_2014-06-08_21-53-27_260595134347_rgbf000061-resize_4-target.png,250,2.4185,2,2227,250,feet,jsons/v1_VE250_randls_21.json,1457522,2707107,35,Man
50,468031,DepthScenes,duration_manipulation_targetAtFixation,jsons/v1_VE250_randls_21.json,http://54.235.29.9/FacialAge/BNav_EC2/DepthDuration/v2_depth_duration_MTurk/v2_DepthDuration_HTML.html#156,156,1309,717,1440,900,8-20-2022,11-2-53,51,depth_duration_stimuli/001032_2014-06-08_13-23-17_260595134347_rgbf000021-resize_3/001032_2014-06-08_13-23-17_260595134347_rgbf000021-resize_3-target.png,250,3.2725,1,2498,251,feet,jsons/v1_VE250_randls_21.json,1457522,2707107,35,Man
51,468031,DepthScenes,duration_manipulation_targetAtFixation,jsons/v1_VE250_randls_21.json,http://54.235.29.9/FacialAge/BNav_EC2/DepthDuration/v2_depth_duration_MTurk/v2_DepthDuration_HTML.html#156,156,1309,717,1440,900,8-20-2022,11-2-53,52,depth_duration_stimuli/003492_2014-05-21_15-50-55_094959634447_rgbf000828-resize_1/003492_2014-05-21_15-50-55_094959634447_rgbf000828-resize_1-target.png,250,4.06875,2,1963,251,feet,jsons/v1_VE250_randls_21.json,1457522,2707107,35,Man
52,468031,DepthScenes,duration_manipulation_targetAtFixation,jsons/v1_VE250_randls_21.json,http://54.235.29.9/FacialAge/BNav_EC2/DepthDuration/v2_depth_duration_MTurk/v2_DepthDuration_HTML.html#156,156,1309,717,1440,900,8-20-2022,11-2-53,53,depth_duration_stimuli/002568_2014-06-24_13-59-21_094959634447_rgbf000062-resize_4/002568_2014-06-24_13-59-21_094959634447_rgbf000062-resize_4-target.png,250,3.015,1,2027,251,feet,jsons/v1_VE250_randls_21.json,1457522,2707107,35,Man
53,468031,DepthScenes,duration_manipulation_targetAtFixation,jsons/v1_VE250_randls_21.json,http://54.235.29.9/FacialAge/BNav_EC2/DepthDuration/v2_depth_duration_MTurk/v2_DepthDuration_HTML.html#156,156,1309,717,1440,900,8-20-2022,11-2-53,54,depth_duration_stimuli/000447_2014-06-08_16-15-46_260595134347_rgbf000130-resize_1/000447_2014-06-08_16-15-46_260595134347_rgbf000130-resize_1-target.png,250,4.479,1,2364,250,feet,jsons/v1_VE250_randls_21.json,1457522,2707107,35,Man
54,468031,DepthScenes,duration_manipulation_targetAtFixation,jsons/v1_VE250_randls_21.json,http://54.235.29.9/FacialAge/BNav_EC2/DepthDuration/v2_depth_duration_MTurk/v2_DepthDuration_HTML.html#156,156,1309,717,1440,900,8-20-2022,11-2-53,55,depth_duration_stimuli/001447_2014-06-19_17-00-32_260595134347_rgbf000082-resize_5/001447_2014-06-19_17-00-32_260595134347_rgbf000082-resize_5-target.png,250,4.13775,2,1988,250,feet,jsons/v1_VE250_randls_21.json,1457522,2707107,35,Man
55,468031,DepthScenes,duration_manipulation_targetAtFixation,jsons/v1_VE250_randls_21.json,http://54.235.29.9/FacialAge/BNav_EC2/DepthDuration/v2_depth_duration_MTurk/v2_DepthDuration_HTML.html#156,156,1309,717,1440,900,8-20-2022,11-2-53,56,depth_duration_stimuli/003292_2014-05-14_21-53-49_094959634447_rgbf000100-resize_2/003292_2014-05-14_21-53-49_094959634447_rgbf000100-resize_2-target.png,250,3.4815,1,2355,250,feet,jsons/v1_VE250_randls_21.json,1457522,2707107,35,Man
56,468031,DepthScenes,duration_manipulation_targetAtFixation,jsons/v1_VE250_randls_21.json,http://54.235.29.9/FacialAge/BNav_EC2/DepthDuration/v2_depth_duration_MTurk/v2_DepthDuration_HTML.html#156,156,1309,717,1440,900,8-20-2022,11-2-53,57,depth_duration_stimuli/002639_2014-06-24_14-51-37_094959634447_rgbf000074-resize_4/002639_2014-06-24_14-51-37_094959634447_rgbf000074-resize_4-target.png,250,4.0375,2,1867,250,feet,jsons/v1_VE250_randls_21.json,1457522,2707107,35,Man
57,468031,DepthScenes,duration_manipulation_targetAtFixation,jsons/v1_VE250_randls_21.json,http://54.235.29.9/FacialAge/BNav_EC2/DepthDuration/v2_depth_duration_MTurk/v2_DepthDuration_HTML.html#156,156,1309,717,1440,900,8-20-2022,11-2-53,58,depth_duration_stimuli/002057_2014-06-24_21-00-13_260595134347_rgbf000120-resize_1/002057_2014-06-24_21-00-13_260595134347_rgbf000120-resize_1-target.png,250,2.967,1,1978,250,feet,jsons/v1_VE250_randls_21.json,1457522,2707107,35,Man
58,468031,DepthScenes,duration_manipulation_targetAtFixation,jsons/v1_VE250_randls_21.json,http://54.235.29.9/FacialAge/BNav_EC2/DepthDuration/v2_depth_duration_MTurk/v2_DepthDuration_HTML.html#156,156,1309,717,1440,900,8-20-2022,11-2-53,59,depth_duration_stimuli/000709_2014-06-08_13-51-55_260595134347_rgbf000068-resize_3/000709_2014-06-08_13-51-55_260595134347_rgbf000068-resize_3-target.png,250,1.8030000000000002,2,2020,251,feet,jsons/v1_VE250_randls_21.json,1457522,2707107,35,Man
59,468031,DepthScenes,duration_manipulation_targetAtFixation,jsons/v1_VE250_randls_21.json,http://54.235.29.9/FacialAge/BNav_EC2/DepthDuration/v2_depth_duration_MTurk/v2_DepthDuration_HTML.html#156,156,1309,717,1440,900,8-20-2022,11-2-53,60,depth_duration_stimuli/000736_2014-06-08_18-24-15_260595134347_rgbf000206-resize_3/000736_2014-06-08_18-24-15_260595134347_rgbf000206-resize_3-target.png,250,3.515,1,2490,250,feet,jsons/v1_VE250_randls_21.json,1457522,2707107,35,Man
60,468031,DepthScenes,duration_manipulation_targetAtFixation,jsons/v1_VE250_randls_21.json,http://54.235.29.9/FacialAge/BNav_EC2/DepthDuration/v2_depth_duration_MTurk/v2_DepthDuration_HTML.html#156,156,1309,717,1440,900,8-20-2022,11-2-53,61,depth_duration_stimuli/000137_2014-05-20_17-04-49_260595134347_rgbf000120-resize_1/000137_2014-05-20_17-04-49_260595134347_rgbf000120-resize_1-target.png,250,3.786,2,3155,259,feet,jsons/v1_VE250_randls_21.json,1457522,2707107,35,Man
61,468031,DepthScenes,duration_manipulation_targetAtFixation,jsons/v1_VE250_randls_21.json,http://54.235.29.9/FacialAge/BNav_EC2/DepthDuration/v2_depth_duration_MTurk/v2_DepthDuration_HTML.html#156,156,1309,717,1440,900,8-20-2022,11-2-53,62,depth_duration_stimuli/000788_2014-06-08_22-34-36_260595134347_rgbf000131-resize_1/000788_2014-06-08_22-34-36_260595134347_rgbf000131-resize_1-target.png,250,3.359,1,2155,250,feet,jsons/v1_VE250_randls_21.json,1457522,2707107,35,Man
62,468031,DepthScenes,duration_manipulation_targetAtFixation,jsons/v1_VE250_randls_21.json,http://54.235.29.9/FacialAge/BNav_EC2/DepthDuration/v2_depth_duration_MTurk/v2_DepthDuration_HTML.html#156,156,1309,717,1440,900,8-20-2022,11-2-53,63,depth_duration_stimuli/001235_2014-06-17_16-37-36_260595134347_rgbf000084-resize_4/001235_2014-06-17_16-37-36_260595134347_rgbf000084-resize_4-target.png,250,3.6605,2,1891,251,feet,jsons/v1_VE250_randls_21.json,1457522,2707107,35,Man
63,468031,DepthScenes,duration_manipulation_targetAtFixation,jsons/v1_VE250_randls_21.json,http://54.235.29.9/FacialAge/BNav_EC2/DepthDuration/v2_depth_duration_MTurk/v2_DepthDuration_HTML.html#156,156,1309,717,1440,900,8-20-2022,11-2-53,64,depth_duration_stimuli/002272_2014-06-28_18-53-56_260595134347_rgbf000067-resize_2/002272_2014-06-28_18-53-56_260595134347_rgbf000067-resize_2-target.png,250,1.138,1,6978,249,feet,jsons/v1_VE250_randls_21.json,1457522,2707107,35,Man
64,468031,DepthScenes,duration_manipulation_targetAtFixation,jsons/v1_VE250_randls_21.json,http://54.235.29.9/FacialAge/BNav_EC2/DepthDuration/v2_depth_duration_MTurk/v2_DepthDuration_HTML.html#156,156,1309,717,1440,900,8-20-2022,11-2-53,65,depth_duration_stimuli/001571_2014-06-20_17-21-32_260595134347_rgbf000089-resize_1/001571_2014-06-20_17-21-32_260595134347_rgbf000089-resize_1-target.png,250,1.86,2,2451,251,feet,jsons/v1_VE250_randls_21.json,1457522,2707107,35,Man
65,468031,DepthScenes,duration_manipulation_targetAtFixation,jsons/v1_VE250_randls_21.json,http://54.235.29.9/FacialAge/BNav_EC2/DepthDuration/v2_depth_duration_MTurk/v2_DepthDuration_HTML.html#156,156,1309,717,1440,900,8-20-2022,11-2-53,66,depth_duration_stimuli/001222_2014-06-17_16-24-06_260595134347_rgbf000073-resize_0/001222_2014-06-17_16-24-06_260595134347_rgbf000073-resize-original.jpg,250,1.4385,2,2667,249,feet,jsons/v1_VE250_randls_21.json,1457522,2707107,35,Man
66,468031,DepthScenes,duration_manipulation_targetAtFixation,jsons/v1_VE250_randls_21.json,http://54.235.29.9/FacialAge/BNav_EC2/DepthDuration/v2_depth_duration_MTurk/v2_DepthDuration_HTML.html#156,156,1309,717,1440,900,8-20-2022,11-2-53,67,depth_duration_stimuli/000739_2014-06-08_18-45-58_260595134347_rgbf000068-resize_1/000739_2014-06-08_18-45-58_260595134347_rgbf000068-resize_1-target.png,250,3.534,1,2131,251,feet,jsons/v1_VE250_randls_21.json,1457522,2707107,35,Man
67,468031,DepthScenes,duration_manipulation_targetAtFixation,jsons/v1_VE250_randls_21.json,http://54.235.29.9/FacialAge/BNav_EC2/DepthDuration/v2_depth_duration_MTurk/v2_DepthDuration_HTML.html#156,156,1309,717,1440,900,8-20-2022,11-2-53,68,depth_duration_stimuli/000734_2014-06-08_17-39-11_260595134347_rgbf000128-resize_2/000734_2014-06-08_17-39-11_260595134347_rgbf000128-resize_2-target.png,250,4.098,2,1834,250,feet,jsons/v1_VE250_randls_21.json,1457522,2707107,35,Man
68,468031,DepthScenes,duration_manipulation_targetAtFixation,jsons/v1_VE250_randls_21.json,http://54.235.29.9/FacialAge/BNav_EC2/DepthDuration/v2_depth_duration_MTurk/v2_DepthDuration_HTML.html#156,156,1309,717,1440,900,8-20-2022,11-2-53,69,depth_duration_stimuli/001016_2014-06-09_16-16-10_260595134347_rgbf000112-resize_5/001016_2014-06-09_16-16-10_260595134347_rgbf000112-resize_5-target.png,250,1.6565,1,1851,250,feet,jsons/v1_VE250_randls_21.json,1457522,2707107,35,Man
69,468031,DepthScenes,duration_manipulation_targetAtFixation,jsons/v1_VE250_randls_21.json,http://54.235.29.9/FacialAge/BNav_EC2/DepthDuration/v2_depth_duration_MTurk/v2_DepthDuration_HTML.html#156,156,1309,717,1440,900,8-20-2022,11-2-53,70,depth_duration_stimuli/002340_2014-06-28_20-05-46_260595134347_rgbf000113-resize_0/002340_2014-06-28_20-05-46_260595134347_rgbf000113-resize_0-target.png,250,2.4735,2,75784,250,feet,jsons/v1_VE250_randls_21.json,1457522,2707107,35,Man
70,468031,DepthScenes,duration_manipulation_targetAtFixation,jsons/v1_VE250_randls_21.json,http://54.235.29.9/FacialAge/BNav_EC2/DepthDuration/v2_depth_duration_MTurk/v2_DepthDuration_HTML.html#156,156,1309,717,1440,900,8-20-2022,11-2-53,71,depth_duration_stimuli/001110_2014-06-15_17-25-28_260595134347_rgbf000150-resize_1/001110_2014-06-15_17-25-28_260595134347_rgbf000150-resize_1-target.png,250,1.7115,1,2009,248,feet,jsons/v1_VE250_randls_21.json,1457522,2707107,35,Man
71,468031,DepthScenes,duration_manipulation_targetAtFixation,jsons/v1_VE250_randls_21.json,http://54.235.29.9/FacialAge/BNav_EC2/DepthDuration/v2_depth_duration_MTurk/v2_DepthDuration_HTML.html#156,156,1309,717,1440,900,8-20-2022,11-2-53,72,depth_duration_stimuli/000927_2014-06-09_16-32-30_260595134347_rgbf000123-resize_3/000927_2014-06-09_16-32-30_260595134347_rgbf000123-resize_3-target.png,250,2.6785,2,1899,250,feet,jsons/v1_VE250_randls_21.json,1457522,2707107,35,Man
72,468031,DepthScenes,duration_manipulation_targetAtFixation,jsons/v1_VE250_randls_21.json,http://54.235.29.9/FacialAge/BNav_EC2/DepthDuration/v2_depth_duration_MTurk/v2_DepthDuration_HTML.html#156,156,1309,717,1440,900,8-20-2022,11-2-53,73,depth_duration_stimuli/002375_2014-06-28_20-13-44_260595134347_rgbf000032-resize_1/002375_2014-06-28_20-13-44_260595134347_rgbf000032-resize_1-target.png,250,4.0175,2,1899,249,feet,jsons/v1_VE250_randls_21.json,1457522,2707107,35,Man
73,468031,DepthScenes,duration_manipulation_targetAtFixation,jsons/v1_VE250_randls_21.json,http://54.235.29.9/FacialAge/BNav_EC2/DepthDuration/v2_depth_duration_MTurk/v2_DepthDuration_HTML.html#156,156,1309,717,1440,900,8-20-2022,11-2-53,74,depth_duration_stimuli/002657_2014-06-13_15-29-54_094959634447_rgbf000150-resize_1/002657_2014-06-13_15-29-54_094959634447_rgbf000150-resize_1-target.png,250,4.919,1,1940,250,feet,jsons/v1_VE250_randls_21.json,1457522,2707107,35,Man
74,468031,DepthScenes,duration_manipulation_targetAtFixation,jsons/v1_VE250_randls_21.json,http://54.235.29.9/FacialAge/BNav_EC2/DepthDuration/v2_depth_duration_MTurk/v2_DepthDuration_HTML.html#156,156,1309,717,1440,900,8-20-2022,11-2-53,75,depth_duration_stimuli/000773_2014-06-08_22-24-54_260595134347_rgbf000093-resize_1/000773_2014-06-08_22-24-54_260595134347_rgbf000093-resize_1-target.png,250,4.973,2,5091,250,feet,jsons/v1_VE250_randls_21.json,1457522,2707107,35,Man
75,468031,DepthScenes,duration_manipulation_targetAtFixation,jsons/v1_VE250_randls_21.json,http://54.235.29.9/FacialAge/BNav_EC2/DepthDuration/v2_depth_duration_MTurk/v2_DepthDuration_HTML.html#156,156,1309,717,1440,900,8-20-2022,11-2-53,76,depth_duration_stimuli/002414_2014-06-28_20-24-58_260595134347_rgbf000067-resize_4/002414_2014-06-28_20-24-58_260595134347_rgbf000067-resize_4-target.png,250,4.363,1,1802,250,feet,jsons/v1_VE250_randls_21.json,1457522,2707107,35,Man
76,468031,DepthScenes,duration_manipulation_targetAtFixation,jsons/v1_VE250_randls_21.json,http://54.235.29.9/FacialAge/BNav_EC2/DepthDuration/v2_depth_duration_MTurk/v2_DepthDuration_HTML.html#156,156,1309,717,1440,900,8-20-2022,11-2-53,77,depth_duration_stimuli/000436_2014-06-09_22-25-11_260595134347_rgbf000137-resize_1/000436_2014-06-09_22-25-11_260595134347_rgbf000137-resize_1-target.png,250,4.0705,2,1836,243,feet,jsons/v1_VE250_randls_21.json,1457522,2707107,35,Man
77,468031,DepthScenes,duration_manipulation_targetAtFixation,jsons/v1_VE250_randls_21.json,http://54.235.29.9/FacialAge/BNav_EC2/DepthDuration/v2_depth_duration_MTurk/v2_DepthDuration_HTML.html#156,156,1309,717,1440,900,8-20-2022,11-2-53,78,depth_duration_stimuli/002444_2014-06-28_20-32-08_260595134347_rgbf000027-resize_0/002444_2014-06-28_20-32-08_260595134347_rgbf000027-resize_0-target.png,250,4.388999999999999,1,2178,251,feet,jsons/v1_VE250_randls_21.json,1457522,2707107,35,Man
78,468031,DepthScenes,duration_manipulation_targetAtFixation,jsons/v1_VE250_randls_21.json,http://54.235.29.9/FacialAge/BNav_EC2/DepthDuration/v2_depth_duration_MTurk/v2_DepthDuration_HTML.html#156,156,1309,717,1440,900,8-20-2022,11-2-53,79,depth_duration_stimuli/002570_2014-06-24_13-59-54_094959634447_rgbf000059-resize_0/002570_2014-06-24_13-59-54_094959634447_rgbf000059-resize_0-target.png,250,4.037,2,2473,248,feet,jsons/v1_VE250_randls_21.json,1457522,2707107,35,Man
79,468031,DepthScenes,duration_manipulation_targetAtFixation,jsons/v1_VE250_randls_21.json,http://54.235.29.9/FacialAge/BNav_EC2/DepthDuration/v2_depth_duration_MTurk/v2_DepthDuration_HTML.html#156,156,1309,717,1440,900,8-20-2022,11-2-53,80,depth_duration_stimuli/002467_2014-06-28_20-38-07_260595134347_rgbf000026-resize_2/002467_2014-06-28_20-38-07_260595134347_rgbf000026-resize_2-target.png,250,4.742,1,1938,250,feet,jsons/v1_VE250_randls_21.json,1457522,2707107,35,Man
80,468031,DepthScenes,duration_manipulation_targetAtFixation,jsons/v1_VE250_randls_21.json,http://54.235.29.9/FacialAge/BNav_EC2/DepthDuration/v2_depth_duration_MTurk/v2_DepthDuration_HTML.html#156,156,1309,717,1440,900,8-20-2022,11-2-53,81,depth_duration_stimuli/002725_2014-06-22_11-47-51_094959634447_rgbf000070-resize_1/002725_2014-06-22_11-47-51_094959634447_rgbf000070-resize_1-target.png,250,2.195,2,1754,257,feet,jsons/v1_VE250_randls_21.json,1457522,2707107,35,Man
81,468031,DepthScenes,duration_manipulation_targetAtFixation,jsons/v1_VE250_randls_21.json,http://54.235.29.9/FacialAge/BNav_EC2/DepthDuration/v2_depth_duration_MTurk/v2_DepthDuration_HTML.html#156,156,1309,717,1440,900,8-20-2022,11-2-53,82,depth_duration_stimuli/002344_2014-06-28_20-06-29_260595134347_rgbf000030-resize_1/002344_2014-06-28_20-06-29_260595134347_rgbf000030-resize_1-target.png,250,1.5795,1,1875,250,feet,jsons/v1_VE250_randls_21.json,1457522,2707107,35,Man
82,468031,DepthScenes,duration_manipulation_targetAtFixation,jsons/v1_VE250_randls_21.json,http://54.235.29.9/FacialAge/BNav_EC2/DepthDuration/v2_depth_duration_MTurk/v2_DepthDuration_HTML.html#156,156,1309,717,1440,900,8-20-2022,11-2-53,83,depth_duration_stimuli/003534_2014-05-22_15-06-10_094959634447_rgbf000102-resize_4/003534_2014-05-22_15-06-10_094959634447_rgbf000102-resize_4-target.png,250,1.426,2,2050,251,feet,jsons/v1_VE250_randls_21.json,1457522,2707107,35,Man
83,468031,DepthScenes,duration_manipulation_targetAtFixation,jsons/v1_VE250_randls_21.json,http://54.235.29.9/FacialAge/BNav_EC2/DepthDuration/v2_depth_duration_MTurk/v2_DepthDuration_HTML.html#156,156,1309,717,1440,900,8-20-2022,11-2-53,84,depth_duration_stimuli/002637_2014-06-24_14-51-13_094959634447_rgbf000066-resize_4/002637_2014-06-24_14-51-13_094959634447_rgbf000066-resize_4-target.png,250,1.9955,1,2139,250,feet,jsons/v1_VE250_randls_21.json,1457522,2707107,35,Man
84,468031,DepthScenes,duration_manipulation_targetAtFixation,jsons/v1_VE250_randls_21.json,http://54.235.29.9/FacialAge/BNav_EC2/DepthDuration/v2_depth_duration_MTurk/v2_DepthDuration_HTML.html#156,156,1309,717,1440,900,8-20-2022,11-2-53,85,depth_duration_stimuli/000878_2014-06-08_22-52-45_260595134347_rgbf000045-resize_2/000878_2014-06-08_22-52-45_260595134347_rgbf000045-resize_2-target.png,250,2.092,2,1867,250,feet,jsons/v1_VE250_randls_21.json,1457522,2707107,35,Man
85,468031,DepthScenes,duration_manipulation_targetAtFixation,jsons/v1_VE250_randls_21.json,http://54.235.29.9/FacialAge/BNav_EC2/DepthDuration/v2_depth_duration_MTurk/v2_DepthDuration_HTML.html#156,156,1309,717,1440,900,8-20-2022,11-2-53,86,depth_duration_stimuli/002953_2014-06-08_17-32-18_094959634447_rgbf000059-resize_5/002953_2014-06-08_17-32-18_094959634447_rgbf000059-resize_5-target.png,250,1.551,1,1850,246,feet,jsons/v1_VE250_randls_21.json,1457522,2707107,35,Man
86,468031,DepthScenes,duration_manipulation_targetAtFixation,jsons/v1_VE250_randls_21.json,http://54.235.29.9/FacialAge/BNav_EC2/DepthDuration/v2_depth_duration_MTurk/v2_DepthDuration_HTML.html#156,156,1309,717,1440,900,8-20-2022,11-2-53,87,depth_duration_stimuli/001133_2014-06-17_14-49-16_260595134347_rgbf000100-resize_0/001133_2014-06-17_14-49-16_260595134347_rgbf000100-resize_0-target.png,250,4.2115,2,1827,250,feet,jsons/v1_VE250_randls_21.json,1457522,2707107,35,Man
87,468031,DepthScenes,duration_manipulation_targetAtFixation,jsons/v1_VE250_randls_21.json,http://54.235.29.9/FacialAge/BNav_EC2/DepthDuration/v2_depth_duration_MTurk/v2_DepthDuration_HTML.html#156,156,1309,717,1440,900,8-20-2022,11-2-53,88,depth_duration_stimuli/001132_2014-06-17_14-48-54_260595134347_rgbf000100-resize_2/001132_2014-06-17_14-48-54_260595134347_rgbf000100-resize_2-target.png,250,3.753,2,1914,251,feet,jsons/v1_VE250_randls_21.json,1457522,2707107,35,Man
88,468031,DepthScenes,duration_manipulation_targetAtFixation,jsons/v1_VE250_randls_21.json,http://54.235.29.9/FacialAge/BNav_EC2/DepthDuration/v2_depth_duration_MTurk/v2_DepthDuration_HTML.html#156,156,1309,717,1440,900,8-20-2022,11-2-53,89,depth_duration_stimuli/002788_2014-06-22_19-36-03_094959634447_rgbf000088-resize_2/002788_2014-06-22_19-36-03_094959634447_rgbf000088-resize_2-target.png,250,1.6465,1,2539,250,feet,jsons/v1_VE250_randls_21.json,1457522,2707107,35,Man
89,468031,DepthScenes,duration_manipulation_targetAtFixation,jsons/v1_VE250_randls_21.json,http://54.235.29.9/FacialAge/BNav_EC2/DepthDuration/v2_depth_duration_MTurk/v2_DepthDuration_HTML.html#156,156,1309,717,1440,900,8-20-2022,11-2-53,90,depth_duration_stimuli/000749_2014-06-08_21-55-06_260595134347_rgbf000070-resize_2/000749_2014-06-08_21-55-06_260595134347_rgbf000070-resize_2-target.png,250,2.331,2,2082,250,feet,jsons/v1_VE250_randls_21.json,1457522,2707107,35,Man
90,468031,DepthScenes,duration_manipulation_targetAtFixation,jsons/v1_VE250_randls_21.json,http://54.235.29.9/FacialAge/BNav_EC2/DepthDuration/v2_depth_duration_MTurk/v2_DepthDuration_HTML.html#156,156,1309,717,1440,900,8-20-2022,11-2-53,91,depth_duration_stimuli/002988_2014-06-15_12-24-20_094959634447_rgbf000150-resize_1/002988_2014-06-15_12-24-20_094959634447_rgbf000150-resize_1-target.png,250,4.7669999999999995,1,1948,249,feet,jsons/v1_VE250_randls_21.json,1457522,2707107,35,Man
91,468031,DepthScenes,duration_manipulation_targetAtFixation,jsons/v1_VE250_randls_21.json,http://54.235.29.9/FacialAge/BNav_EC2/DepthDuration/v2_depth_duration_MTurk/v2_DepthDuration_HTML.html#156,156,1309,717,1440,900,8-20-2022,11-2-53,92,depth_duration_stimuli/001052_2014-06-08_18-24-54_260595134347_rgbf000130-resize_1/001052_2014-06-08_18-24-54_260595134347_rgbf000130-resize_1-target.png,250,4.1045,2,1858,250,feet,jsons/v1_VE250_randls_21.json,1457522,2707107,35,Man
92,468031,DepthScenes,duration_manipulation_targetAtFixation,jsons/v1_VE250_randls_21.json,http://54.235.29.9/FacialAge/BNav_EC2/DepthDuration/v2_depth_duration_MTurk/v2_DepthDuration_HTML.html#156,156,1309,717,1440,900,8-20-2022,11-2-53,93,depth_duration_stimuli/000368_2014-06-09_15-53-01_260595134347_rgbf000155-resize_2/000368_2014-06-09_15-53-01_260595134347_rgbf000155-resize_2-target.png,250,2.4859999999999998,2,1794,251,feet,jsons/v1_VE250_randls_21.json,1457522,2707107,35,Man
93,468031,DepthScenes,duration_manipulation_targetAtFixation,jsons/v1_VE250_randls_21.json,http://54.235.29.9/FacialAge/BNav_EC2/DepthDuration/v2_depth_duration_MTurk/v2_DepthDuration_HTML.html#156,156,1309,717,1440,900,8-20-2022,11-2-53,94,depth_duration_stimuli/002678_2014-06-13_16-15-32_094959634447_rgbf000151-resize_6/002678_2014-06-13_16-15-32_094959634447_rgbf000151-resize_6-target.png,250,2.1830000000000003,2,1793,249,feet,jsons/v1_VE250_randls_21.json,1457522,2707107,35,Man
94,468031,DepthScenes,duration_manipulation_targetAtFixation,jsons/v1_VE250_randls_21.json,http://54.235.29.9/FacialAge/BNav_EC2/DepthDuration/v2_depth_duration_MTurk/v2_DepthDuration_HTML.html#156,156,1309,717,1440,900,8-20-2022,11-2-53,95,depth_duration_stimuli/001066_2014-06-08_22-03-20_260595134347_rgbf000066-resize_4/001066_2014-06-08_22-03-20_260595134347_rgbf000066-resize_4-target.png,250,4.2330000000000005,2,1931,251,feet,jsons/v1_VE250_randls_21.json,1457522,2707107,35,Man
95,468031,DepthScenes,duration_manipulation_targetAtFixation,jsons/v1_VE250_randls_21.json,http://54.235.29.9/FacialAge/BNav_EC2/DepthDuration/v2_depth_duration_MTurk/v2_DepthDuration_HTML.html#156,156,1309,717,1440,900,8-20-2022,11-2-53,96,depth_duration_stimuli/000742_2014-06-08_18-48-09_260595134347_rgbf000164-resize_4/000742_2014-06-08_18-48-09_260595134347_rgbf000164-resize_4-target.png,250,4.632,1,1850,250,feet,jsons/v1_VE250_randls_21.json,1457522,2707107,35,Man
96,468031,DepthScenes,duration_manipulation_targetAtFixation,jsons/v1_VE250_randls_21.json,http://54.235.29.9/FacialAge/BNav_EC2/DepthDuration/v2_depth_duration_MTurk/v2_DepthDuration_HTML.html#156,156,1309,717,1440,900,8-20-2022,11-2-53,97,depth_duration_stimuli/001808_2014-06-26_20-50-58_260595134347_rgbf000029-resize_1/001808_2014-06-26_20-50-58_260595134347_rgbf000029-resize_1-target.png,250,4.249,2,1827,249,feet,jsons/v1_VE250_randls_21.json,1457522,2707107,35,Man
97,468031,DepthScenes,duration_manipulation_targetAtFixation,jsons/v1_VE250_randls_21.json,http://54.235.29.9/FacialAge/BNav_EC2/DepthDuration/v2_depth_duration_MTurk/v2_DepthDuration_HTML.html#156,156,1309,717,1440,900,8-20-2022,11-2-53,98,depth_duration_stimuli/001815_2014-06-26_20-52-55_260595134347_rgbf000020-resize_0/001815_2014-06-26_20-52-55_260595134347_rgbf000020-resize_0-target.png,250,3.3865,2,1882,250,feet,jsons/v1_VE250_randls_21.json,1457522,2707107,35,Man
98,468031,DepthScenes,duration_manipulation_targetAtFixation,jsons/v1_VE250_randls_21.json,http://54.235.29.9/FacialAge/BNav_EC2/DepthDuration/v2_depth_duration_MTurk/v2_DepthDuration_HTML.html#156,156,1309,717,1440,900,8-20-2022,11-2-53,99,depth_duration_stimuli/001540_2014-06-20_17-01-05_260595134347_rgbf000086-resize_2/001540_2014-06-20_17-01-05_260595134347_rgbf000086-resize-original.jpg,250,1.459,1,2059,252,feet,jsons/v1_VE250_randls_21.json,1457522,2707107,35,Man
99,468031,DepthScenes,duration_manipulation_targetAtFixation,jsons/v1_VE250_randls_21.json,http://54.235.29.9/FacialAge/BNav_EC2/DepthDuration/v2_depth_duration_MTurk/v2_DepthDuration_HTML.html#156,156,1309,717,1440,900,8-20-2022,11-2-53,100,depth_duration_stimuli/002763_2014-06-22_19-13-10_094959634447_rgbf000075-resize_4/002763_2014-06-22_19-13-10_094959634447_rgbf000075-resize_4-target.png,250,1.68375,2,1795,250,feet,jsons/v1_VE250_randls_21.json,1457522,2707107,35,Man
100,468031,DepthScenes,duration_manipulation_targetAtFixation,jsons/v1_VE250_randls_21.json,http://54.235.29.9/FacialAge/BNav_EC2/DepthDuration/v2_depth_duration_MTurk/v2_DepthDuration_HTML.html#156,156,1309,717,1440,900,8-20-2022,11-2-53,101,depth_duration_stimuli/002209_2014-06-28_18-36-10_260595134347_rgbf000051-resize_1/002209_2014-06-28_18-36-10_260595134347_rgbf000051-resize_1-target.png,250,2.057,1,1851,249,feet,jsons/v1_VE250_randls_21.json,1457522,2707107,35,Man
101,468031,DepthScenes,duration_manipulation_targetAtFixation,jsons/v1_VE250_randls_21.json,http://54.235.29.9/FacialAge/BNav_EC2/DepthDuration/v2_depth_duration_MTurk/v2_DepthDuration_HTML.html#156,156,1309,717,1440,900,8-20-2022,11-2-53,102,depth_duration_stimuli/000682_2014-06-08_23-14-58_260595134347_rgbf000041-resize_5/000682_2014-06-08_23-14-58_260595134347_rgbf000041-resize_5-target.png,250,2.7239999999999998,2,1923,251,feet,jsons/v1_VE250_randls_21.json,1457522,2707107,35,Man
102,468031,DepthScenes,duration_manipulation_targetAtFixation,jsons/v1_VE250_randls_21.json,http://54.235.29.9/FacialAge/BNav_EC2/DepthDuration/v2_depth_duration_MTurk/v2_DepthDuration_HTML.html#156,156,1309,717,1440,900,8-20-2022,11-2-53,103,depth_duration_stimuli/001650_2014-06-20_12-09-00_260595134347_rgbf000087-resize_3/001650_2014-06-20_12-09-00_260595134347_rgbf000087-resize_3-target.png,250,1.9505,1,1962,250,feet,jsons/v1_VE250_randls_21.json,1457522,2707107,35,Man
103,468031,DepthScenes,duration_manipulation_targetAtFixation,jsons/v1_VE250_randls_21.json,http://54.235.29.9/FacialAge/BNav_EC2/DepthDuration/v2_depth_duration_MTurk/v2_DepthDuration_HTML.html#156,156,1309,717,1440,900,8-20-2022,11-2-53,104,depth_duration_stimuli/001164_2014-06-17_15-35-46_260595134347_rgbf000085-resize_3/001164_2014-06-17_15-35-46_260595134347_rgbf000085-resize_3-target.png,250,2.354,2,2100,250,feet,jsons/v1_VE250_randls_21.json,1457522,2707107,35,Man
104,468031,DepthScenes,duration_manipulation_targetAtFixation,jsons/v1_VE250_randls_21.json,http://54.235.29.9/FacialAge/BNav_EC2/DepthDuration/v2_depth_duration_MTurk/v2_DepthDuration_HTML.html#156,156,1309,717,1440,900,8-20-2022,11-2-53,105,depth_duration_stimuli/001136_2014-06-17_15-19-41_260595134347_rgbf000076-resize_3/001136_2014-06-17_15-19-41_260595134347_rgbf000076-resize_3-target.png,250,1.8655,1,2323,261,feet,jsons/v1_VE250_randls_21.json,1457522,2707107,35,Man
105,468031,DepthScenes,duration_manipulation_targetAtFixation,jsons/v1_VE250_randls_21.json,http://54.235.29.9/FacialAge/BNav_EC2/DepthDuration/v2_depth_duration_MTurk/v2_DepthDuration_HTML.html#156,156,1309,717,1440,900,8-20-2022,11-2-53,106,depth_duration_stimuli/002039_2014-06-24_20-22-38_260595134347_rgbf000084-resize_1/002039_2014-06-24_20-22-38_260595134347_rgbf000084-resize_1-target.png,250,4.408,2,2157,257,feet,jsons/v1_VE250_randls_21.json,1457522,2707107,35,Man
106,468031,DepthScenes,duration_manipulation_targetAtFixation,jsons/v1_VE250_randls_21.json,http://54.235.29.9/FacialAge/BNav_EC2/DepthDuration/v2_depth_duration_MTurk/v2_DepthDuration_HTML.html#156,156,1309,717,1440,900,8-20-2022,11-2-53,107,depth_duration_stimuli/002103_2014-06-25_20-00-40_260595134347_rgbf000049-resize_0/002103_2014-06-25_20-00-40_260595134347_rgbf000049-resize_0-target.png,250,4.105,1,2371,250,feet,jsons/v1_VE250_randls_21.json,1457522,2707107,35,Man
107,468031,DepthScenes,duration_manipulation_targetAtFixation,jsons/v1_VE250_randls_21.json,http://54.235.29.9/FacialAge/BNav_EC2/DepthDuration/v2_depth_duration_MTurk/v2_DepthDuration_HTML.html#156,156,1309,717,1440,900,8-20-2022,11-2-53,108,depth_duration_stimuli/001158_2014-06-17_15-32-16_260595134347_rgbf000138-resize_2/001158_2014-06-17_15-32-16_260595134347_rgbf000138-resize_2-target.png,250,4.5315,2,91144,261,feet,jsons/v1_VE250_randls_21.json,1457522,2707107,35,Man
108,468031,DepthScenes,duration_manipulation_targetAtFixation,jsons/v1_VE250_randls_21.json,http://54.235.29.9/FacialAge/BNav_EC2/DepthDuration/v2_depth_duration_MTurk/v2_DepthDuration_HTML.html#156,156,1309,717,1440,900,8-20-2022,11-2-53,109,depth_duration_stimuli/000556_2014-06-09_22-42-56_260595134347_rgbf000214-resize_1/000556_2014-06-09_22-42-56_260595134347_rgbf000214-resize_1-target.png,250,4.8415,2,2028,245,feet,jsons/v1_VE250_randls_21.json,1457522,2707107,35,Man
109,468031,DepthScenes,duration_manipulation_targetAtFixation,jsons/v1_VE250_randls_21.json,http://54.235.29.9/FacialAge/BNav_EC2/DepthDuration/v2_depth_duration_MTurk/v2_DepthDuration_HTML.html#156,156,1309,717,1440,900,8-20-2022,11-2-53,110,depth_duration_stimuli/002549_2014-06-24_13-41-39_094959634447_rgbf000022-resize_3/002549_2014-06-24_13-41-39_094959634447_rgbf000022-resize_3-target.png,250,1.476,2,1874,259,feet,jsons/v1_VE250_randls_21.json,1457522,2707107,35,Man
110,468031,DepthScenes,duration_manipulation_targetAtFixation,jsons/v1_VE250_randls_21.json,http://54.235.29.9/FacialAge/BNav_EC2/DepthDuration/v2_depth_duration_MTurk/v2_DepthDuration_HTML.html#156,156,1309,717,1440,900,8-20-2022,11-2-53,111,depth_duration_stimuli/002750_2014-06-22_19-08-03_094959634447_rgbf000094-resize_4/002750_2014-06-22_19-08-03_094959634447_rgbf000094-resize_4-target.png,250,2.354,2,1796,251,feet,jsons/v1_VE250_randls_21.json,1457522,2707107,35,Man
111,468031,DepthScenes,duration_manipulation_targetAtFixation,jsons/v1_VE250_randls_21.json,http://54.235.29.9/FacialAge/BNav_EC2/DepthDuration/v2_depth_duration_MTurk/v2_DepthDuration_HTML.html#156,156,1309,717,1440,900,8-20-2022,11-2-53,112,depth_duration_stimuli/001570_2014-06-20_17-21-09_260595134347_rgbf000135-resize_4/001570_2014-06-20_17-21-09_260595134347_rgbf000135-resize_4-target.png,250,4.467,2,1834,249,feet,jsons/v1_VE250_randls_21.json,1457522,2707107,35,Man
112,468031,DepthScenes,duration_manipulation_targetAtFixation,jsons/v1_VE250_randls_21.json,http://54.235.29.9/FacialAge/BNav_EC2/DepthDuration/v2_depth_duration_MTurk/v2_DepthDuration_HTML.html#156,156,1309,717,1440,900,8-20-2022,11-2-53,113,depth_duration_stimuli/001392_2014-06-19_16-07-59_260595134347_rgbf000046-resize_1/001392_2014-06-19_16-07-59_260595134347_rgbf000046-resize_1-target.png,250,4.135,2,1889,256,feet,jsons/v1_VE250_randls_21.json,1457522,2707107,35,Man
113,468031,DepthScenes,duration_manipulation_targetAtFixation,jsons/v1_VE250_randls_21.json,http://54.235.29.9/FacialAge/BNav_EC2/DepthDuration/v2_depth_duration_MTurk/v2_DepthDuration_HTML.html#156,156,1309,717,1440,900,8-20-2022,11-2-53,114,depth_duration_stimuli/001810_2014-06-26_20-51-35_260595134347_rgbf000040-resize_3/001810_2014-06-26_20-51-35_260595134347_rgbf000040-resize_3-target.png,250,2.2525,2,1931,249,feet,jsons/v1_VE250_randls_21.json,1457522,2707107,35,Man
114,468031,DepthScenes,duration_manipulation_targetAtFixation,jsons/v1_VE250_randls_21.json,http://54.235.29.9/FacialAge/BNav_EC2/DepthDuration/v2_depth_duration_MTurk/v2_DepthDuration_HTML.html#156,156,1309,717,1440,900,8-20-2022,11-2-53,115,depth_duration_stimuli/003010_2014-06-15_12-54-35_094959634447_rgbf000112-resize_0/003010_2014-06-15_12-54-35_094959634447_rgbf000112-resize_0-target.png,250,3.1185,2,1922,251,feet,jsons/v1_VE250_randls_21.json,1457522,2707107,35,Man
115,468031,DepthScenes,duration_manipulation_targetAtFixation,jsons/v1_VE250_randls_21.json,http://54.235.29.9/FacialAge/BNav_EC2/DepthDuration/v2_depth_duration_MTurk/v2_DepthDuration_HTML.html#156,156,1309,717,1440,900,8-20-2022,11-2-53,116,depth_duration_stimuli/001170_2014-06-17_15-43-44_260595134347_rgbf000096-resize_6/001170_2014-06-17_15-43-44_260595134347_rgbf000096-resize-original.jpg,250,1.1909999999999998,1,1867,253,feet,jsons/v1_VE250_randls_21.json,1457522,2707107,35,Man
116,468031,DepthScenes,duration_manipulation_targetAtFixation,jsons/v1_VE250_randls_21.json,http://54.235.29.9/FacialAge/BNav_EC2/DepthDuration/v2_depth_duration_MTurk/v2_DepthDuration_HTML.html#156,156,1309,717,1440,900,8-20-2022,11-2-53,117,depth_duration_stimuli/003621_2014-05-23_18-06-08_094959634447_rgbf000101-resize_1/003621_2014-05-23_18-06-08_094959634447_rgbf000101-resize_1-target.png,250,3.9835,2,1931,249,feet,jsons/v1_VE250_randls_21.json,1457522,2707107,35,Man
117,468031,DepthScenes,duration_manipulation_targetAtFixation,jsons/v1_VE250_randls_21.json,http://54.235.29.9/FacialAge/BNav_EC2/DepthDuration/v2_depth_duration_MTurk/v2_DepthDuration_HTML.html#156,156,1309,717,1440,900,8-20-2022,11-2-53,118,depth_duration_stimuli/001584_2014-06-20_11-07-43_260595134347_rgbf000002-resize_1/001584_2014-06-20_11-07-43_260595134347_rgbf000002-resize_1-target.png,250,3.53,2,1930,263,feet,jsons/v1_VE250_randls_21.json,1457522,2707107,35,Man
118,468031,DepthScenes,duration_manipulation_targetAtFixation,jsons/v1_VE250_randls_21.json,http://54.235.29.9/FacialAge/BNav_EC2/DepthDuration/v2_depth_duration_MTurk/v2_DepthDuration_HTML.html#156,156,1309,717,1440,900,8-20-2022,11-2-53,119,depth_duration_stimuli/002663_2014-06-13_15-50-26_094959634447_rgbf000075-resize_1/002663_2014-06-13_15-50-26_094959634447_rgbf000075-resize_1-target.png,250,4.7495,2,2020,250,feet,jsons/v1_VE250_randls_21.json,1457522,2707107,35,Man
119,468031,DepthScenes,duration_manipulation_targetAtFixation,jsons/v1_VE250_randls_21.json,http://54.235.29.9/FacialAge/BNav_EC2/DepthDuration/v2_depth_duration_MTurk/v2_DepthDuration_HTML.html#156,156,1309,717,1440,900,8-20-2022,11-2-53,120,depth_duration_stimuli/000409_2014-06-04_19-23-33_260595134347_rgbf000067-resize_0/000409_2014-06-04_19-23-33_260595134347_rgbf000067-resize_0-target.png,250,3.7335,1,2027,250,feet,jsons/v1_VE250_randls_21.json,1457522,2707107,35,Man
120,468031,DepthScenes,duration_manipulation_targetAtFixation,jsons/v1_VE250_randls_21.json,http://54.235.29.9/FacialAge/BNav_EC2/DepthDuration/v2_depth_duration_MTurk/v2_DepthDuration_HTML.html#156,156,1309,717,1440,900,8-20-2022,11-2-53,121,depth_duration_stimuli/000917_2014-06-09_22-45-29_260595134347_rgbf000149-resize_3/000917_2014-06-09_22-45-29_260595134347_rgbf000149-resize_3-target.png,250,4.1865,2,2051,251,feet,jsons/v1_VE250_randls_21.json,1457522,2707107,35,Man
121,468031,DepthScenes,duration_manipulation_targetAtFixation,jsons/v1_VE250_randls_21.json,http://54.235.29.9/FacialAge/BNav_EC2/DepthDuration/v2_depth_duration_MTurk/v2_DepthDuration_HTML.html#156,156,1309,717,1440,900,8-20-2022,11-2-53,122,depth_duration_stimuli/002323_2014-06-28_20-01-54_260595134347_rgbf000051-resize_4/002323_2014-06-28_20-01-54_260595134347_rgbf000051-resize_4-target.png,250,3.7310000000000003,2,2443,251,feet,jsons/v1_VE250_randls_21.json,1457522,2707107,35,Man
122,468031,DepthScenes,duration_manipulation_targetAtFixation,jsons/v1_VE250_randls_21.json,http://54.235.29.9/FacialAge/BNav_EC2/DepthDuration/v2_depth_duration_MTurk/v2_DepthDuration_HTML.html#156,156,1309,717,1440,900,8-20-2022,11-2-53,123,depth_duration_stimuli/001167_2014-06-17_15-38-07_260595134347_rgbf000108-resize_0/001167_2014-06-17_15-38-07_260595134347_rgbf000108-resize_0-target.png,250,1.8505,2,1970,249,feet,jsons/v1_VE250_randls_21.json,1457522,2707107,35,Man
123,468031,DepthScenes,duration_manipulation_targetAtFixation,jsons/v1_VE250_randls_21.json,http://54.235.29.9/FacialAge/BNav_EC2/DepthDuration/v2_depth_duration_MTurk/v2_DepthDuration_HTML.html#156,156,1309,717,1440,900,8-20-2022,11-2-53,124,depth_duration_stimuli/003587_2014-05-23_16-48-02_094959634447_rgbf002384-resize_2/003587_2014-05-23_16-48-02_094959634447_rgbf002384-resize_2-target.png,250,1.357,2,1875,250,feet,jsons/v1_VE250_randls_21.json,1457522,2707107,35,Man
124,468031,DepthScenes,duration_manipulation_targetAtFixation,jsons/v1_VE250_randls_21.json,http://54.235.29.9/FacialAge/BNav_EC2/DepthDuration/v2_depth_duration_MTurk/v2_DepthDuration_HTML.html#156,156,1309,717,1440,900,8-20-2022,11-2-53,125,depth_duration_stimuli/002748_2014-06-22_19-07-22_094959634447_rgbf000078-resize_1/002748_2014-06-22_19-07-22_094959634447_rgbf000078-resize_1-target.png,250,4.6705,2,2163,250,feet,jsons/v1_VE250_randls_21.json,1457522,2707107,35,Man
125,468031,DepthScenes,duration_manipulation_targetAtFixation,jsons/v1_VE250_randls_21.json,http://54.235.29.9/FacialAge/BNav_EC2/DepthDuration/v2_depth_duration_MTurk/v2_DepthDuration_HTML.html#156,156,1309,717,1440,900,8-20-2022,11-2-53,126,depth_duration_stimuli/002995_2014-06-15_12-31-26_094959634447_rgbf000150-resize_1/002995_2014-06-15_12-31-26_094959634447_rgbf000150-resize_1-target.png,250,3.8360000000000003,2,1964,236,feet,jsons/v1_VE250_randls_21.json,1457522,2707107,35,Man
126,468031,DepthScenes,duration_manipulation_targetAtFixation,jsons/v1_VE250_randls_21.json,http://54.235.29.9/FacialAge/BNav_EC2/DepthDuration/v2_depth_duration_MTurk/v2_DepthDuration_HTML.html#156,156,1309,717,1440,900,8-20-2022,11-2-53,127,depth_duration_stimuli/002989_2014-06-15_12-25-03_094959634447_rgbf000150-resize_3/002989_2014-06-15_12-25-03_094959634447_rgbf000150-resize_3-target.png,250,4.1975,2,2442,250,feet,jsons/v1_VE250_randls_21.json,1457522,2707107,35,Man
127,468031,DepthScenes,duration_manipulation_targetAtFixation,jsons/v1_VE250_randls_21.json,http://54.235.29.9/FacialAge/BNav_EC2/DepthDuration/v2_depth_duration_MTurk/v2_DepthDuration_HTML.html#156,156,1309,717,1440,900,8-20-2022,11-2-53,128,depth_duration_stimuli/000866_2014-06-09_20-45-42_260595134347_rgbf000139-resize_1/000866_2014-06-09_20-45-42_260595134347_rgbf000139-resize_1-target.png,250,3.2155,2,2024,239,feet,jsons/v1_VE250_randls_21.json,1457522,2707107,35,Man
128,468031,DepthScenes,duration_manipulation_targetAtFixation,jsons/v1_VE250_randls_21.json,http://54.235.29.9/FacialAge/BNav_EC2/DepthDuration/v2_depth_duration_MTurk/v2_DepthDuration_HTML.html#156,156,1309,717,1440,900,8-20-2022,11-2-53,129,depth_duration_stimuli/001029_2014-06-08_13-17-57_260595134347_rgbf000065-resize_1/001029_2014-06-08_13-17-57_260595134347_rgbf000065-resize_1-target.png,250,3.0835,2,1794,249,feet,jsons/v1_VE250_randls_21.json,1457522,2707107,35,Man
129,468031,DepthScenes,duration_manipulation_targetAtFixation,jsons/v1_VE250_randls_21.json,http://54.235.29.9/FacialAge/BNav_EC2/DepthDuration/v2_depth_duration_MTurk/v2_DepthDuration_HTML.html#156,156,1309,717,1440,900,8-20-2022,11-2-53,130,depth_duration_stimuli/000677_2014-06-08_23-10-32_260595134347_rgbf000158-resize_6/000677_2014-06-08_23-10-32_260595134347_rgbf000158-resize_6-target.png,250,3.556,2,1865,240,feet,jsons/v1_VE250_randls_21.json,1457522,2707107,35,Man
130,468031,DepthScenes,duration_manipulation_targetAtFixation,jsons/v1_VE250_randls_21.json,http://54.235.29.9/FacialAge/BNav_EC2/DepthDuration/v2_depth_duration_MTurk/v2_DepthDuration_HTML.html#156,156,1309,717,1440,900,8-20-2022,11-2-53,131,depth_duration_stimuli/000906_2014-06-08_13-35-43_260595134347_rgbf000155-resize_1/000906_2014-06-08_13-35-43_260595134347_rgbf000155-resize_1-target.png,250,2.8489999999999998,2,1905,256,feet,jsons/v1_VE250_randls_21.json,1457522,2707107,35,Man
131,468031,DepthScenes,duration_manipulation_targetAtFixation,jsons/v1_VE250_randls_21.json,http://54.235.29.9/FacialAge/BNav_EC2/DepthDuration/v2_depth_duration_MTurk/v2_DepthDuration_HTML.html#156,156,1309,717,1440,900,8-20-2022,11-2-53,132,depth_duration_stimuli/002805_2014-06-22_19-54-03_094959634447_rgbf000079-resize_1/002805_2014-06-22_19-54-03_094959634447_rgbf000079-resize_1-target.png,250,3.1439999999999997,2,1834,254,feet,jsons/v1_VE250_randls_21.json,1457522,2707107,35,Man
132,468031,DepthScenes,duration_manipulation_targetAtFixation,jsons/v1_VE250_randls_21.json,http://54.235.29.9/FacialAge/BNav_EC2/DepthDuration/v2_depth_duration_MTurk/v2_DepthDuration_HTML.html#156,156,1309,717,1440,900,8-20-2022,11-2-53,133,depth_duration_stimuli/001417_2014-06-19_16-25-36_260595134347_rgbf000115-resize_5/001417_2014-06-19_16-25-36_260595134347_rgbf000115-resize_5-target.png,250,4.6255,2,1875,250,feet,jsons/v1_VE250_randls_21.json,1457522,2707107,35,Man
133,468031,DepthScenes,duration_manipulation_targetAtFixation,jsons/v1_VE250_randls_21.json,http://54.235.29.9/FacialAge/BNav_EC2/DepthDuration/v2_depth_duration_MTurk/v2_DepthDuration_HTML.html#156,156,1309,717,1440,900,8-20-2022,11-2-53,134,depth_duration_stimuli/003081_2014-06-15_15-19-16_094959634447_rgbf000150-resize_1/003081_2014-06-15_15-19-16_094959634447_rgbf000150-resize_1-target.png,250,3.9125,2,2003,262,feet,jsons/v1_VE250_randls_21.json,1457522,2707107,35,Man
134,468031,DepthScenes,duration_manipulation_targetAtFixation,jsons/v1_VE250_randls_21.json,http://54.235.29.9/FacialAge/BNav_EC2/DepthDuration/v2_depth_duration_MTurk/v2_DepthDuration_HTML.html#156,156,1309,717,1440,900,8-20-2022,11-2-53,135,depth_duration_stimuli/002072_2014-06-24_21-48-06_260595134347_rgbf000115-resize_0/002072_2014-06-24_21-48-06_260595134347_rgbf000115-resize-original.jpg,250,4.702,4,2538,250,feet,jsons/v1_VE250_randls_21.json,1457522,2707107,35,Man
135,468031,DepthScenes,duration_manipulation_targetAtFixation,jsons/v1_VE250_randls_21.json,http://54.235.29.9/FacialAge/BNav_EC2/DepthDuration/v2_depth_duration_MTurk/v2_DepthDuration_HTML.html#156,156,1309,717,1440,900,8-20-2022,11-2-53,136,depth_duration_stimuli/000486_2014-06-09_20-47-20_260595134347_rgbf000143-resize_2/000486_2014-06-09_20-47-20_260595134347_rgbf000143-resize_2-target.png,250,4.8325,5,2051,252,feet,jsons/v1_VE250_randls_21.json,1457522,2707107,35,Man
136,468031,DepthScenes,duration_manipulation_targetAtFixation,jsons/v1_VE250_randls_21.json,http://54.235.29.9/FacialAge/BNav_EC2/DepthDuration/v2_depth_duration_MTurk/v2_DepthDuration_HTML.html#156,156,1309,717,1440,900,8-20-2022,11-2-53,137,depth_duration_stimuli/003083_2014-06-15_15-21-03_094959634447_rgbf000063-resize_1/003083_2014-06-15_15-21-03_094959634447_rgbf000063-resize_1-target.png,250,4.1405,5,2025,240,feet,jsons/v1_VE250_randls_21.json,1457522,2707107,35,Man
137,468031,DepthScenes,duration_manipulation_targetAtFixation,jsons/v1_VE250_randls_21.json,http://54.235.29.9/FacialAge/BNav_EC2/DepthDuration/v2_depth_duration_MTurk/v2_DepthDuration_HTML.html#156,156,1309,717,1440,900,8-20-2022,11-2-53,138,depth_duration_stimuli/002043_2014-06-24_20-29-38_260595134347_rgbf000039-resize_4/002043_2014-06-24_20-29-38_260595134347_rgbf000039-resize_4-target.png,250,2.8435,5,2250,708,feet,jsons/v1_VE250_randls_21.json,1457522,2707107,35,Man
138,468031,DepthScenes,duration_manipulation_targetAtFixation,jsons/v1_VE250_randls_21.json,http://54.235.29.9/FacialAge/BNav_EC2/DepthDuration/v2_depth_duration_MTurk/v2_DepthDuration_HTML.html#156,156,1309,717,1440,900,8-20-2022,11-2-53,139,depth_duration_stimuli/003048_2014-06-15_13-49-43_094959634447_rgbf000150-resize_1/003048_2014-06-15_13-49-43_094959634447_rgbf000150-resize_1-target.png,250,4.0035,5,1845,244,feet,jsons/v1_VE250_randls_21.json,1457522,2707107,35,Man
139,468031,DepthScenes,duration_manipulation_targetAtFixation,jsons/v1_VE250_randls_21.json,http://54.235.29.9/FacialAge/BNav_EC2/DepthDuration/v2_depth_duration_MTurk/v2_DepthDuration_HTML.html#156,156,1309,717,1440,900,8-20-2022,11-2-53,140,depth_duration_stimuli/002213_2014-06-28_18-37-58_260595134347_rgbf000055-resize_1/002213_2014-06-28_18-37-58_260595134347_rgbf000055-resize_1-target.png,250,3.62,4,1930,250,feet,jsons/v1_VE250_randls_21.json,1457522,2707107,35,Man
140,468031,DepthScenes,duration_manipulation_targetAtFixation,jsons/v1_VE250_randls_21.json,http://54.235.29.9/FacialAge/BNav_EC2/DepthDuration/v2_depth_duration_MTurk/v2_DepthDuration_HTML.html#156,156,1309,717,1440,900,8-20-2022,11-2-53,141,depth_duration_stimuli/000691_2014-06-08_13-08-50_260595134347_rgbf000132-resize_3/000691_2014-06-08_13-08-50_260595134347_rgbf000132-resize_3-target.png,250,4.1530000000000005,5,1788,250,feet,jsons/v1_VE250_randls_21.json,1457522,2707107,35,Man
141,468031,DepthScenes,duration_manipulation_targetAtFixation,jsons/v1_VE250_randls_21.json,http://54.235.29.9/FacialAge/BNav_EC2/DepthDuration/v2_depth_duration_MTurk/v2_DepthDuration_HTML.html#156,156,1309,717,1440,900,8-20-2022,11-2-53,142,depth_duration_stimuli/001806_2014-06-26_20-50-20_260595134347_rgbf000091-resize_1/001806_2014-06-26_20-50-20_260595134347_rgbf000091-resize_1-target.png,250,2.7305,5,2074,251,feet,jsons/v1_VE250_randls_21.json,1457522,2707107,35,Man
142,468031,DepthScenes,duration_manipulation_targetAtFixation,jsons/v1_VE250_randls_21.json,http://54.235.29.9/FacialAge/BNav_EC2/DepthDuration/v2_depth_duration_MTurk/v2_DepthDuration_HTML.html#156,156,1309,717,1440,900,8-20-2022,11-2-53,143,depth_duration_stimuli/001617_2014-06-20_11-35-32_260595134347_rgbf000066-resize_1/001617_2014-06-20_11-35-32_260595134347_rgbf000066-resize_1-target.png,250,3.7910000000000004,4,1835,251,feet,jsons/v1_VE250_randls_21.json,1457522,2707107,35,Man
143,468031,DepthScenes,duration_manipulation_targetAtFixation,jsons/v1_VE250_randls_21.json,http://54.235.29.9/FacialAge/BNav_EC2/DepthDuration/v2_depth_duration_MTurk/v2_DepthDuration_HTML.html#156,156,1309,717,1440,900,8-20-2022,11-2-53,144,depth_duration_stimuli/000506_2014-06-08_23-21-00_260595134347_rgbf000070-resize_7/000506_2014-06-08_23-21-00_260595134347_rgbf000070-resize_7-target.png,250,4.0585,5,1905,249,feet,jsons/v1_VE250_randls_21.json,1457522,2707107,35,Man
144,468031,DepthScenes,duration_manipulation_targetAtFixation,jsons/v1_VE250_randls_21.json,http://54.235.29.9/FacialAge/BNav_EC2/DepthDuration/v2_depth_duration_MTurk/v2_DepthDuration_HTML.html#156,156,1309,717,1440,900,8-20-2022,11-2-53,145,depth_duration_stimuli/003079_2014-06-15_15-18-20_094959634447_rgbf000152-resize_8/003079_2014-06-15_15-18-20_094959634447_rgbf000152-resize_8-target.png,250,2.8775,4,4825,240,feet,jsons/v1_VE250_randls_21.json,1457522,2707107,35,Man
145,468031,DepthScenes,duration_manipulation_targetAtFixation,jsons/v1_VE250_randls_21.json,http://54.235.29.9/FacialAge/BNav_EC2/DepthDuration/v2_depth_duration_MTurk/v2_DepthDuration_HTML.html#156,156,1309,717,1440,900,8-20-2022,11-2-53,146,depth_duration_stimuli/001498_2014-06-19_17-45-14_260595134347_rgbf000129-resize_4/001498_2014-06-19_17-45-14_260595134347_rgbf000129-resize-original.jpg,250,1.4075,5,2700,249,feet,jsons/v1_VE250_randls_21.json,1457522,2707107,35,Man
146,468031,DepthScenes,duration_manipulation_targetAtFixation,jsons/v1_VE250_randls_21.json,http://54.235.29.9/FacialAge/BNav_EC2/DepthDuration/v2_depth_duration_MTurk/v2_DepthDuration_HTML.html#156,156,1309,717,1440,900,8-20-2022,11-2-53,147,depth_duration_stimuli/002784_2014-06-22_19-26-30_094959634447_rgbf000083-resize_3/002784_2014-06-22_19-26-30_094959634447_rgbf000083-resize_3-target.png,250,1.8046666666667,4,2189,251,feet,jsons/v1_VE250_randls_21.json,1457522,2707107,35,Man
147,468031,DepthScenes,duration_manipulation_targetAtFixation,jsons/v1_VE250_randls_21.json,http://54.235.29.9/FacialAge/BNav_EC2/DepthDuration/v2_depth_duration_MTurk/v2_DepthDuration_HTML.html#156,156,1309,717,1440,900,8-20-2022,11-2-53,148,depth_duration_stimuli/001100_2014-06-15_17-46-26_260595134347_rgbf000225-resize_2/001100_2014-06-15_17-46-26_260595134347_rgbf000225-resize_2-target.png,250,2.24,5,1825,250,feet,jsons/v1_VE250_randls_21.json,1457522,2707107,35,Man
148,468031,DepthScenes,duration_manipulation_targetAtFixation,jsons/v1_VE250_randls_21.json,http://54.235.29.9/FacialAge/BNav_EC2/DepthDuration/v2_depth_duration_MTurk/v2_DepthDuration_HTML.html#156,156,1309,717,1440,900,8-20-2022,11-2-53,149,depth_duration_stimuli/000692_2014-06-08_13-09-42_260595134347_rgbf000199-resize_2/000692_2014-06-08_13-09-42_260595134347_rgbf000199-resize_2-target.png,250,3.661,5,106599,250,feet,jsons/v1_VE250_randls_21.json,1457522,2707107,35,Man
149,468031,DepthScenes,duration_manipulation_targetAtFixation,jsons/v1_VE250_randls_21.json,http://54.235.29.9/FacialAge/BNav_EC2/DepthDuration/v2_depth_duration_MTurk/v2_DepthDuration_HTML.html#156,156,1309,717,1440,900,8-20-2022,11-2-53,150,depth_duration_stimuli/001094_2014-06-15_17-36-00_260595134347_rgbf000205-resize_0/001094_2014-06-15_17-36-00_260595134347_rgbf000205-resize_0-target.png,250,4.2175,4,1801,249,feet,jsons/v1_VE250_randls_21.json,1457522,2707107,35,Man
150,468031,DepthScenes,duration_manipulation_targetAtFixation,jsons/v1_VE250_randls_21.json,http://54.235.29.9/FacialAge/BNav_EC2/DepthDuration/v2_depth_duration_MTurk/v2_DepthDuration_HTML.html#156,156,1309,717,1440,900,8-20-2022,11-2-53,151,depth_duration_stimuli/001199_2014-06-17_16-03-48_260595134347_rgbf000077-resize_0/001199_2014-06-17_16-03-48_260595134347_rgbf000077-resize_0-target.png,250,3.4375,5,1979,249,feet,jsons/v1_VE250_randls_21.json,1457522,2707107,35,Man
151,468031,DepthScenes,duration_manipulation_targetAtFixation,jsons/v1_VE250_randls_21.json,http://54.235.29.9/FacialAge/BNav_EC2/DepthDuration/v2_depth_duration_MTurk/v2_DepthDuration_HTML.html#156,156,1309,717,1440,900,8-20-2022,11-2-53,152,depth_duration_stimuli/000502_2014-06-08_23-02-32_260595134347_rgbf000063-resize_4/000502_2014-06-08_23-02-32_260595134347_rgbf000063-resize_4-target.png,250,2.431,4,1931,256,feet,jsons/v1_VE250_randls_21.json,1457522,2707107,35,Man
152,468031,DepthScenes,duration_manipulation_targetAtFixation,jsons/v1_VE250_randls_21.json,http://54.235.29.9/FacialAge/BNav_EC2/DepthDuration/v2_depth_duration_MTurk/v2_DepthDuration_HTML.html#156,156,1309,717,1440,900,8-20-2022,11-2-53,153,depth_duration_stimuli/002630_2014-06-24_14-47-50_094959634447_rgbf000055-resize_1/002630_2014-06-24_14-47-50_094959634447_rgbf000055-resize_1-target.png,250,3.0095,5,1835,250,feet,jsons/v1_VE250_randls_21.json,1457522,2707107,35,Man
153,468031,DepthScenes,duration_manipulation_targetAtFixation,jsons/v1_VE250_randls_21.json,http://54.235.29.9/FacialAge/BNav_EC2/DepthDuration/v2_depth_duration_MTurk/v2_DepthDuration_HTML.html#156,156,1309,717,1440,900,8-20-2022,11-2-53,154,depth_duration_stimuli/002758_2014-06-22_19-11-20_094959634447_rgbf000128-resize_1/002758_2014-06-22_19-11-20_094959634447_rgbf000128-resize_1-target.png,250,2.555,4,2394,251,feet,jsons/v1_VE250_randls_21.json,1457522,2707107,35,Man
154,468031,DepthScenes,duration_manipulation_targetAtFixation,jsons/v1_VE250_randls_21.json,http://54.235.29.9/FacialAge/BNav_EC2/DepthDuration/v2_depth_duration_MTurk/v2_DepthDuration_HTML.html#156,156,1309,717,1440,900,8-20-2022,11-2-53,155,depth_duration_stimuli/000810_2014-06-08_17-20-01_260595134347_rgbf000105-resize_0/000810_2014-06-08_17-20-01_260595134347_rgbf000105-resize_0-target.png,250,1.4865,5,1758,245,feet,jsons/v1_VE250_randls_21.json,1457522,2707107,35,Man
155,468031,DepthScenes,duration_manipulation_targetAtFixation,jsons/v1_VE250_randls_21.json,http://54.235.29.9/FacialAge/BNav_EC2/DepthDuration/v2_depth_duration_MTurk/v2_DepthDuration_HTML.html#156,156,1309,717,1440,900,8-20-2022,11-2-53,156,depth_duration_stimuli/001214_2014-06-17_16-13-55_260595134347_rgbf000111-resize_0/001214_2014-06-17_16-13-55_260595134347_rgbf000111-resize_0-target.png,250,2.6505,5,2034,250,feet,jsons/v1_VE250_randls_21.json,1457522,2707107,35,Man
156,468031,DepthScenes,duration_manipulation_targetAtFixation,jsons/v1_VE250_randls_21.json,http://54.235.29.9/FacialAge/BNav_EC2/DepthDuration/v2_depth_duration_MTurk/v2_DepthDuration_HTML.html#156,156,1309,717,1440,900,8-20-2022,11-2-53,157,depth_duration_stimuli/000929_2014-06-09_16-33-19_260595134347_rgbf000139-resize_0/000929_2014-06-09_16-33-19_260595134347_rgbf000139-resize_0-target.png,250,2.8680000000000003,5,1891,250,feet,jsons/v1_VE250_randls_21.json,1457522,2707107,35,Man
157,468031,DepthScenes,duration_manipulation_targetAtFixation,jsons/v1_VE250_randls_21.json,http://54.235.29.9/FacialAge/BNav_EC2/DepthDuration/v2_depth_duration_MTurk/v2_DepthDuration_HTML.html#156,156,1309,717,1440,900,8-20-2022,11-2-53,158,depth_duration_stimuli/000457_2014-06-08_16-52-43_260595134347_rgbf000199-resize_1/000457_2014-06-08_16-52-43_260595134347_rgbf000199-resize_1-target.png,250,3.6489999999999996,4,1876,251,feet,jsons/v1_VE250_randls_21.json,1457522,2707107,35,Man
158,468031,DepthScenes,duration_manipulation_targetAtFixation,jsons/v1_VE250_randls_21.json,http://54.235.29.9/FacialAge/BNav_EC2/DepthDuration/v2_depth_duration_MTurk/v2_DepthDuration_HTML.html#156,156,1309,717,1440,900,8-20-2022,11-2-53,159,depth_duration_stimuli/002279_2014-06-28_18-55-32_260595134347_rgbf000040-resize_5/002279_2014-06-28_18-55-32_260595134347_rgbf000040-resize_5-target.png,250,1.5043333333333,5,1795,251,feet,jsons/v1_VE250_randls_21.json,1457522,2707107,35,Man
159,468031,DepthScenes,duration_manipulation_targetAtFixation,jsons/v1_VE250_randls_21.json,http://54.235.29.9/FacialAge/BNav_EC2/DepthDuration/v2_depth_duration_MTurk/v2_DepthDuration_HTML.html#156,156,1309,717,1440,900,8-20-2022,11-2-53,160,depth_duration_stimuli/000635_2014-06-08_16-38-42_260595134347_rgbf000106-resize_1/000635_2014-06-08_16-38-42_260595134347_rgbf000106-resize_1-target.png,250,2.074,4,2075,251,feet,jsons/v1_VE250_randls_21.json,1457522,2707107,35,Man
160,468031,DepthScenes,duration_manipulation_targetAtFixation,jsons/v1_VE250_randls_21.json,http://54.235.29.9/FacialAge/BNav_EC2/DepthDuration/v2_depth_duration_MTurk/v2_DepthDuration_HTML.html#156,156,1309,717,1440,900,8-20-2022,11-2-53,161,depth_duration_stimuli/000414_2014-06-04_19-49-13_260595134347_rgbf000044-resize_0/000414_2014-06-04_19-49-13_260595134347_rgbf000044-resize_0-target.png,250,4.329,5,1771,250,feet,jsons/v1_VE250_randls_21.json,1457522,2707107,35,Man
161,468031,DepthScenes,duration_manipulation_targetAtFixation,jsons/v1_VE250_randls_21.json,http://54.235.29.9/FacialAge/BNav_EC2/DepthDuration/v2_depth_duration_MTurk/v2_DepthDuration_HTML.html#156,156,1309,717,1440,900,8-20-2022,11-2-53,162,depth_duration_stimuli/003129_2014-05-12_10-48-10_094959634447_rgbf000100-resize_0/003129_2014-05-12_10-48-10_094959634447_rgbf000100-resize_0-target.png,250,4.9305,4,1739,251,feet,jsons/v1_VE250_randls_21.json,1457522,2707107,35,Man
162,468031,DepthScenes,duration_manipulation_targetAtFixation,jsons/v1_VE250_randls_21.json,http://54.235.29.9/FacialAge/BNav_EC2/DepthDuration/v2_depth_duration_MTurk/v2_DepthDuration_HTML.html#156,156,1309,717,1440,900,8-20-2022,11-2-53,163,depth_duration_stimuli/000522_2014-06-08_13-35-06_260595134347_rgbf000244-resize_1/000522_2014-06-08_13-35-06_260595134347_rgbf000244-resize_1-target.png,250,2.3715,5,1763,250,feet,jsons/v1_VE250_randls_21.json,1457522,2707107,35,Man
163,468031,DepthScenes,duration_manipulation_targetAtFixation,jsons/v1_VE250_randls_21.json,http://54.235.29.9/FacialAge/BNav_EC2/DepthDuration/v2_depth_duration_MTurk/v2_DepthDuration_HTML.html#156,156,1309,717,1440,900,8-20-2022,11-2-53,164,depth_duration_stimuli/002949_2014-06-26_15-57-42_094959634447_rgbf000079-resize_1/002949_2014-06-26_15-57-42_094959634447_rgbf000079-resize_1-target.png,250,1.8915,4,1858,249,feet,jsons/v1_VE250_randls_21.json,1457522,2707107,35,Man
