,subjID,experimentName,versionName,sequenceName,url,selected_row,windowWidth,windowHeight,screenWidth,screenHeight,startDate,startTime,trial,stimulus,duration,actual_depth,depth_estimate,trial_RT,log_sceneDuration,unitSelection,seq_filepath,experimentTime,totalTime,age,gender
0,468789,DepthScenes,duration_manipulation_targetAtFixation,jsons/v1_VE1000_randls_36_rotated.json,http://54.235.29.9/FacialAge/BNav_EC2/DepthDuration/v2_depth_duration_MTurk/v2_DepthDuration_HTML.html#58,58,1920,929,1920,1080,8-22-2022,7-59-18,1,depth_duration_stimuli/002750_2014-06-22_19-08-03_094959634447_rgbf000094-resize_4/002750_2014-06-22_19-08-03_094959634447_rgbf000094-resize_4-target.png,1000,2.354,8,3995,1011,feet,jsons/v1_VE1000_randls_36_rotated.json,701685,846746,45,Man
1,468789,DepthScenes,duration_manipulation_targetAtFixation,jsons/v1_VE1000_randls_36_rotated.json,http://54.235.29.9/FacialAge/BNav_EC2/DepthDuration/v2_depth_duration_MTurk/v2_DepthDuration_HTML.html#58,58,1920,929,1920,1080,8-22-2022,7-59-18,2,depth_duration_stimuli/002549_2014-06-24_13-41-39_094959634447_rgbf000022-resize_3/002549_2014-06-24_13-41-39_094959634447_rgbf000022-resize_3-target.png,1000,1.476,4,3757,992,feet,jsons/v1_VE1000_randls_36_rotated.json,701685,846746,45,Man
2,468789,DepthScenes,duration_manipulation_targetAtFixation,jsons/v1_VE1000_randls_36_rotated.json,http://54.235.29.9/FacialAge/BNav_EC2/DepthDuration/v2_depth_duration_MTurk/v2_DepthDuration_HTML.html#58,58,1920,929,1920,1080,8-22-2022,7-59-18,3,depth_duration_stimuli/003490_2014-05-21_15-50-11_094959634447_rgbf000101-resize_3/003490_2014-05-21_15-50-11_094959634447_rgbf000101-resize_3-target.png,1000,3.6445,10,4473,1001,feet,jsons/v1_VE1000_randls_36_rotated.json,701685,846746,45,Man
3,468789,DepthScenes,duration_manipulation_targetAtFixation,jsons/v1_VE1000_randls_36_rotated.json,http://54.235.29.9/FacialAge/BNav_EC2/DepthDuration/v2_depth_duration_MTurk/v2_DepthDuration_HTML.html#58,58,1920,929,1920,1080,8-22-2022,7-59-18,4,depth_duration_stimuli/001175_2014-06-17_15-45-55_260595134347_rgbf000129-resize_4/001175_2014-06-17_15-45-55_260595134347_rgbf000129-resize_4-target.png,1000,4.255,15,4185,1003,feet,jsons/v1_VE1000_randls_36_rotated.json,701685,846746,45,Man
4,468789,DepthScenes,duration_manipulation_targetAtFixation,jsons/v1_VE1000_randls_36_rotated.json,http://54.235.29.9/FacialAge/BNav_EC2/DepthDuration/v2_depth_duration_MTurk/v2_DepthDuration_HTML.html#58,58,1920,929,1920,1080,8-22-2022,7-59-18,5,depth_duration_stimuli/003495_2014-05-21_16-01-51_094959634447_rgbf000100-resize_3/003495_2014-05-21_16-01-51_094959634447_rgbf000100-resize_3-target.png,1000,1.6255,3,3965,999,feet,jsons/v1_VE1000_randls_36_rotated.json,701685,846746,45,Man
5,468789,DepthScenes,duration_manipulation_targetAtFixation,jsons/v1_VE1000_randls_36_rotated.json,http://54.235.29.9/FacialAge/BNav_EC2/DepthDuration/v2_depth_duration_MTurk/v2_DepthDuration_HTML.html#58,58,1920,929,1920,1080,8-22-2022,7-59-18,6,depth_duration_stimuli/001244_2014-06-17_16-47-45_260595134347_rgbf000030-resize_4/001244_2014-06-17_16-47-45_260595134347_rgbf000030-resize_4-target.png,1000,2.0425,6,3645,1000,feet,jsons/v1_VE1000_randls_36_rotated.json,701685,846746,45,Man
6,468789,DepthScenes,duration_manipulation_targetAtFixation,jsons/v1_VE1000_randls_36_rotated.json,http://54.235.29.9/FacialAge/BNav_EC2/DepthDuration/v2_depth_duration_MTurk/v2_DepthDuration_HTML.html#58,58,1920,929,1920,1080,8-22-2022,7-59-18,7,depth_duration_stimuli/001571_2014-06-20_17-21-32_260595134347_rgbf000089-resize_1/001571_2014-06-20_17-21-32_260595134347_rgbf000089-resize_1-target.png,1000,1.86,5,3568,1000,feet,jsons/v1_VE1000_randls_36_rotated.json,701685,846746,45,Man
7,468789,DepthScenes,duration_manipulation_targetAtFixation,jsons/v1_VE1000_randls_36_rotated.json,http://54.235.29.9/FacialAge/BNav_EC2/DepthDuration/v2_depth_duration_MTurk/v2_DepthDuration_HTML.html#58,58,1920,929,1920,1080,8-22-2022,7-59-18,8,depth_duration_stimuli/002272_2014-06-28_18-53-56_260595134347_rgbf000067-resize_2/002272_2014-06-28_18-53-56_260595134347_rgbf000067-resize_2-target.png,1000,1.138,4,4305,1001,feet,jsons/v1_VE1000_randls_36_rotated.json,701685,846746,45,Man
8,468789,DepthScenes,duration_manipulation_targetAtFixation,jsons/v1_VE1000_randls_36_rotated.json,http://54.235.29.9/FacialAge/BNav_EC2/DepthDuration/v2_depth_duration_MTurk/v2_DepthDuration_HTML.html#58,58,1920,929,1920,1080,8-22-2022,7-59-18,9,depth_duration_stimuli/002103_2014-06-25_20-00-40_260595134347_rgbf000049-resize_0/002103_2014-06-25_20-00-40_260595134347_rgbf000049-resize_0-target.png,1000,4.105,15,3937,1000,feet,jsons/v1_VE1000_randls_36_rotated.json,701685,846746,45,Man
9,468789,DepthScenes,duration_manipulation_targetAtFixation,jsons/v1_VE1000_randls_36_rotated.json,http://54.235.29.9/FacialAge/BNav_EC2/DepthDuration/v2_depth_duration_MTurk/v2_DepthDuration_HTML.html#58,58,1920,929,1920,1080,8-22-2022,7-59-18,10,depth_duration_stimuli/002039_2014-06-24_20-22-38_260595134347_rgbf000084-resize_1/002039_2014-06-24_20-22-38_260595134347_rgbf000084-resize_1-target.png,1000,4.408,17,4604,1014,feet,jsons/v1_VE1000_randls_36_rotated.json,701685,846746,45,Man
10,468789,DepthScenes,duration_manipulation_targetAtFixation,jsons/v1_VE1000_randls_36_rotated.json,http://54.235.29.9/FacialAge/BNav_EC2/DepthDuration/v2_depth_duration_MTurk/v2_DepthDuration_HTML.html#58,58,1920,929,1920,1080,8-22-2022,7-59-18,11,depth_duration_stimuli/002657_2014-06-13_15-29-54_094959634447_rgbf000150-resize_1/002657_2014-06-13_15-29-54_094959634447_rgbf000150-resize_1-target.png,1000,4.919,13,4226,987,feet,jsons/v1_VE1000_randls_36_rotated.json,701685,846746,45,Man
11,468789,DepthScenes,duration_manipulation_targetAtFixation,jsons/v1_VE1000_randls_36_rotated.json,http://54.235.29.9/FacialAge/BNav_EC2/DepthDuration/v2_depth_duration_MTurk/v2_DepthDuration_HTML.html#58,58,1920,929,1920,1080,8-22-2022,7-59-18,12,depth_duration_stimuli/002375_2014-06-28_20-13-44_260595134347_rgbf000032-resize_1/002375_2014-06-28_20-13-44_260595134347_rgbf000032-resize_1-target.png,1000,4.0175,8,3616,991,feet,jsons/v1_VE1000_randls_36_rotated.json,701685,846746,45,Man
12,468789,DepthScenes,duration_manipulation_targetAtFixation,jsons/v1_VE1000_randls_36_rotated.json,http://54.235.29.9/FacialAge/BNav_EC2/DepthDuration/v2_depth_duration_MTurk/v2_DepthDuration_HTML.html#58,58,1920,929,1920,1080,8-22-2022,7-59-18,13,depth_duration_stimuli/002758_2014-06-22_19-11-20_094959634447_rgbf000128-resize_1/002758_2014-06-22_19-11-20_094959634447_rgbf000128-resize_1-target.png,1000,2.555,6,4115,994,feet,jsons/v1_VE1000_randls_36_rotated.json,701685,846746,45,Man
13,468789,DepthScenes,duration_manipulation_targetAtFixation,jsons/v1_VE1000_randls_36_rotated.json,http://54.235.29.9/FacialAge/BNav_EC2/DepthDuration/v2_depth_duration_MTurk/v2_DepthDuration_HTML.html#58,58,1920,929,1920,1080,8-22-2022,7-59-18,14,depth_duration_stimuli/002630_2014-06-24_14-47-50_094959634447_rgbf000055-resize_1/002630_2014-06-24_14-47-50_094959634447_rgbf000055-resize_1-target.png,1000,3.0095,11,3875,985,feet,jsons/v1_VE1000_randls_36_rotated.json,701685,846746,45,Man
14,468789,DepthScenes,duration_manipulation_targetAtFixation,jsons/v1_VE1000_randls_36_rotated.json,http://54.235.29.9/FacialAge/BNav_EC2/DepthDuration/v2_depth_duration_MTurk/v2_DepthDuration_HTML.html#58,58,1920,929,1920,1080,8-22-2022,7-59-18,15,depth_duration_stimuli/002340_2014-06-28_20-05-46_260595134347_rgbf000113-resize_0/002340_2014-06-28_20-05-46_260595134347_rgbf000113-resize_0-target.png,1000,2.4735,9,3961,1003,feet,jsons/v1_VE1000_randls_36_rotated.json,701685,846746,45,Man
15,468789,DepthScenes,duration_manipulation_targetAtFixation,jsons/v1_VE1000_randls_36_rotated.json,http://54.235.29.9/FacialAge/BNav_EC2/DepthDuration/v2_depth_duration_MTurk/v2_DepthDuration_HTML.html#58,58,1920,929,1920,1080,8-22-2022,7-59-18,16,depth_duration_stimuli/001016_2014-06-09_16-16-10_260595134347_rgbf000112-resize_5/001016_2014-06-09_16-16-10_260595134347_rgbf000112-resize_5-target.png,1000,1.6565,7,3838,1003,feet,jsons/v1_VE1000_randls_36_rotated.json,701685,846746,45,Man
16,468789,DepthScenes,duration_manipulation_targetAtFixation,jsons/v1_VE1000_randls_36_rotated.json,http://54.235.29.9/FacialAge/BNav_EC2/DepthDuration/v2_depth_duration_MTurk/v2_DepthDuration_HTML.html#58,58,1920,929,1920,1080,8-22-2022,7-59-18,17,depth_duration_stimuli/000502_2014-06-08_23-02-32_260595134347_rgbf000063-resize_4/000502_2014-06-08_23-02-32_260595134347_rgbf000063-resize_4-target.png,1000,2.431,8,3502,1005,feet,jsons/v1_VE1000_randls_36_rotated.json,701685,846746,45,Man
17,468789,DepthScenes,duration_manipulation_targetAtFixation,jsons/v1_VE1000_randls_36_rotated.json,http://54.235.29.9/FacialAge/BNav_EC2/DepthDuration/v2_depth_duration_MTurk/v2_DepthDuration_HTML.html#58,58,1920,929,1920,1080,8-22-2022,7-59-18,18,depth_duration_stimuli/001199_2014-06-17_16-03-48_260595134347_rgbf000077-resize_0/001199_2014-06-17_16-03-48_260595134347_rgbf000077-resize_0-target.png,1000,3.4375,13,3829,1010,feet,jsons/v1_VE1000_randls_36_rotated.json,701685,846746,45,Man
18,468789,DepthScenes,duration_manipulation_targetAtFixation,jsons/v1_VE1000_randls_36_rotated.json,http://54.235.29.9/FacialAge/BNav_EC2/DepthDuration/v2_depth_duration_MTurk/v2_DepthDuration_HTML.html#58,58,1920,929,1920,1080,8-22-2022,7-59-18,19,depth_duration_stimuli/001498_2014-06-19_17-45-14_260595134347_rgbf000129-resize_4/001498_2014-06-19_17-45-14_260595134347_rgbf000129-resize-original.jpg,1000,1.4075,0,3725,1009,feet,jsons/v1_VE1000_randls_36_rotated.json,701685,846746,45,Man
19,468789,DepthScenes,duration_manipulation_targetAtFixation,jsons/v1_VE1000_randls_36_rotated.json,http://54.235.29.9/FacialAge/BNav_EC2/DepthDuration/v2_depth_duration_MTurk/v2_DepthDuration_HTML.html#58,58,1920,929,1920,1080,8-22-2022,7-59-18,20,depth_duration_stimuli/000191_2014-05-12_17-07-38_260595134347_rgbf000199-resize_0/000191_2014-05-12_17-07-38_260595134347_rgbf000199-resize_0-target.png,1000,3.7995,17,4262,990,feet,jsons/v1_VE1000_randls_36_rotated.json,701685,846746,45,Man
20,468789,DepthScenes,duration_manipulation_targetAtFixation,jsons/v1_VE1000_randls_36_rotated.json,http://54.235.29.9/FacialAge/BNav_EC2/DepthDuration/v2_depth_duration_MTurk/v2_DepthDuration_HTML.html#58,58,1920,929,1920,1080,8-22-2022,7-59-18,21,depth_duration_stimuli/000493_2014-06-09_21-01-18_260595134347_rgbf000196-resize_3/000493_2014-06-09_21-01-18_260595134347_rgbf000196-resize_3-target.png,1000,3.44,13,3524,995,feet,jsons/v1_VE1000_randls_36_rotated.json,701685,846746,45,Man
21,468789,DepthScenes,duration_manipulation_targetAtFixation,jsons/v1_VE1000_randls_36_rotated.json,http://54.235.29.9/FacialAge/BNav_EC2/DepthDuration/v2_depth_duration_MTurk/v2_DepthDuration_HTML.html#58,58,1920,929,1920,1080,8-22-2022,7-59-18,22,depth_duration_stimuli/002995_2014-06-15_12-31-26_094959634447_rgbf000150-resize_1/002995_2014-06-15_12-31-26_094959634447_rgbf000150-resize_1-target.png,1000,3.8360000000000003,17,3942,1013,feet,jsons/v1_VE1000_randls_36_rotated.json,701685,846746,45,Man
22,468789,DepthScenes,duration_manipulation_targetAtFixation,jsons/v1_VE1000_randls_36_rotated.json,http://54.235.29.9/FacialAge/BNav_EC2/DepthDuration/v2_depth_duration_MTurk/v2_DepthDuration_HTML.html#58,58,1920,929,1920,1080,8-22-2022,7-59-18,23,depth_duration_stimuli/002748_2014-06-22_19-07-22_094959634447_rgbf000078-resize_1/002748_2014-06-22_19-07-22_094959634447_rgbf000078-resize_1-target.png,1000,4.6705,8,22906,1011,feet,jsons/v1_VE1000_randls_36_rotated.json,701685,846746,45,Man
23,468789,DepthScenes,duration_manipulation_targetAtFixation,jsons/v1_VE1000_randls_36_rotated.json,http://54.235.29.9/FacialAge/BNav_EC2/DepthDuration/v2_depth_duration_MTurk/v2_DepthDuration_HTML.html#58,58,1920,929,1920,1080,8-22-2022,7-59-18,24,depth_duration_stimuli/001094_2014-06-15_17-36-00_260595134347_rgbf000205-resize_0/001094_2014-06-15_17-36-00_260595134347_rgbf000205-resize_0-target.png,1000,4.2175,12,3578,989,feet,jsons/v1_VE1000_randls_36_rotated.json,701685,846746,45,Man
24,468789,DepthScenes,duration_manipulation_targetAtFixation,jsons/v1_VE1000_randls_36_rotated.json,http://54.235.29.9/FacialAge/BNav_EC2/DepthDuration/v2_depth_duration_MTurk/v2_DepthDuration_HTML.html#58,58,1920,929,1920,1080,8-22-2022,7-59-18,25,depth_duration_stimuli/000692_2014-06-08_13-09-42_260595134347_rgbf000199-resize_2/000692_2014-06-08_13-09-42_260595134347_rgbf000199-resize_2-target.png,1000,3.661,15,3860,999,feet,jsons/v1_VE1000_randls_36_rotated.json,701685,846746,45,Man
25,468789,DepthScenes,duration_manipulation_targetAtFixation,jsons/v1_VE1000_randls_36_rotated.json,http://54.235.29.9/FacialAge/BNav_EC2/DepthDuration/v2_depth_duration_MTurk/v2_DepthDuration_HTML.html#58,58,1920,929,1920,1080,8-22-2022,7-59-18,26,depth_duration_stimuli/002639_2014-06-24_14-51-37_094959634447_rgbf000074-resize_4/002639_2014-06-24_14-51-37_094959634447_rgbf000074-resize_4-target.png,1000,4.0375,9,3521,1000,feet,jsons/v1_VE1000_randls_36_rotated.json,701685,846746,45,Man
26,468789,DepthScenes,duration_manipulation_targetAtFixation,jsons/v1_VE1000_randls_36_rotated.json,http://54.235.29.9/FacialAge/BNav_EC2/DepthDuration/v2_depth_duration_MTurk/v2_DepthDuration_HTML.html#58,58,1920,929,1920,1080,8-22-2022,7-59-18,27,depth_duration_stimuli/003292_2014-05-14_21-53-49_094959634447_rgbf000100-resize_2/003292_2014-05-14_21-53-49_094959634447_rgbf000100-resize_2-target.png,1000,3.4815,8,3814,991,feet,jsons/v1_VE1000_randls_36_rotated.json,701685,846746,45,Man
27,468789,DepthScenes,duration_manipulation_targetAtFixation,jsons/v1_VE1000_randls_36_rotated.json,http://54.235.29.9/FacialAge/BNav_EC2/DepthDuration/v2_depth_duration_MTurk/v2_DepthDuration_HTML.html#58,58,1920,929,1920,1080,8-22-2022,7-59-18,28,depth_duration_stimuli/000409_2014-06-04_19-23-33_260595134347_rgbf000067-resize_0/000409_2014-06-04_19-23-33_260595134347_rgbf000067-resize_0-target.png,1000,3.7335,12,3588,1007,feet,jsons/v1_VE1000_randls_36_rotated.json,701685,846746,45,Man
28,468789,DepthScenes,duration_manipulation_targetAtFixation,jsons/v1_VE1000_randls_36_rotated.json,http://54.235.29.9/FacialAge/BNav_EC2/DepthDuration/v2_depth_duration_MTurk/v2_DepthDuration_HTML.html#58,58,1920,929,1920,1080,8-22-2022,7-59-18,29,depth_duration_stimuli/002663_2014-06-13_15-50-26_094959634447_rgbf000075-resize_1/002663_2014-06-13_15-50-26_094959634447_rgbf000075-resize_1-target.png,1000,4.7495,20,4085,990,feet,jsons/v1_VE1000_randls_36_rotated.json,701685,846746,45,Man
29,468789,DepthScenes,duration_manipulation_targetAtFixation,jsons/v1_VE1000_randls_36_rotated.json,http://54.235.29.9/FacialAge/BNav_EC2/DepthDuration/v2_depth_duration_MTurk/v2_DepthDuration_HTML.html#58,58,1920,929,1920,1080,8-22-2022,7-59-18,30,depth_duration_stimuli/002072_2014-06-24_21-48-06_260595134347_rgbf000115-resize_0/002072_2014-06-24_21-48-06_260595134347_rgbf000115-resize-original.jpg,1000,4.702,0,3353,1005,feet,jsons/v1_VE1000_randls_36_rotated.json,701685,846746,45,Man
30,468789,DepthScenes,duration_manipulation_targetAtFixation,jsons/v1_VE1000_randls_36_rotated.json,http://54.235.29.9/FacialAge/BNav_EC2/DepthDuration/v2_depth_duration_MTurk/v2_DepthDuration_HTML.html#58,58,1920,929,1920,1080,8-22-2022,7-59-18,31,depth_duration_stimuli/000109_2014-05-14_23-41-52_260595134347_rgbf000035-resize_9/000109_2014-05-14_23-41-52_260595134347_rgbf000035-resize_9-target.png,1000,1.3545,3,3192,1006,feet,jsons/v1_VE1000_randls_36_rotated.json,701685,846746,45,Man
31,468789,DepthScenes,duration_manipulation_targetAtFixation,jsons/v1_VE1000_randls_36_rotated.json,http://54.235.29.9/FacialAge/BNav_EC2/DepthDuration/v2_depth_duration_MTurk/v2_DepthDuration_HTML.html#58,58,1920,929,1920,1080,8-22-2022,7-59-18,32,depth_duration_stimuli/000470_2014-06-09_19-42-40_260595134347_rgbf000094-resize_1/000470_2014-06-09_19-42-40_260595134347_rgbf000094-resize_1-target.png,1000,1.831,4,3525,1000,feet,jsons/v1_VE1000_randls_36_rotated.json,701685,846746,45,Man
32,468789,DepthScenes,duration_manipulation_targetAtFixation,jsons/v1_VE1000_randls_36_rotated.json,http://54.235.29.9/FacialAge/BNav_EC2/DepthDuration/v2_depth_duration_MTurk/v2_DepthDuration_HTML.html#58,58,1920,929,1920,1080,8-22-2022,7-59-18,33,depth_duration_stimuli/001650_2014-06-20_12-09-00_260595134347_rgbf000087-resize_3/001650_2014-06-20_12-09-00_260595134347_rgbf000087-resize_3-target.png,1000,1.9505,2,3313,1006,feet,jsons/v1_VE1000_randls_36_rotated.json,701685,846746,45,Man
33,468789,DepthScenes,duration_manipulation_targetAtFixation,jsons/v1_VE1000_randls_36_rotated.json,http://54.235.29.9/FacialAge/BNav_EC2/DepthDuration/v2_depth_duration_MTurk/v2_DepthDuration_HTML.html#58,58,1920,929,1920,1080,8-22-2022,7-59-18,34,depth_duration_stimuli/000682_2014-06-08_23-14-58_260595134347_rgbf000041-resize_5/000682_2014-06-08_23-14-58_260595134347_rgbf000041-resize_5-target.png,1000,2.7239999999999998,6,3748,999,feet,jsons/v1_VE1000_randls_36_rotated.json,701685,846746,45,Man
34,468789,DepthScenes,duration_manipulation_targetAtFixation,jsons/v1_VE1000_randls_36_rotated.json,http://54.235.29.9/FacialAge/BNav_EC2/DepthDuration/v2_depth_duration_MTurk/v2_DepthDuration_HTML.html#58,58,1920,929,1920,1080,8-22-2022,7-59-18,35,depth_duration_stimuli/000103_2014-05-14_22-01-17_260595134347_rgbf000152-resize_5/000103_2014-05-14_22-01-17_260595134347_rgbf000152-resize_5-target.png,1000,1.993,9,3431,993,feet,jsons/v1_VE1000_randls_36_rotated.json,701685,846746,45,Man
35,468789,DepthScenes,duration_manipulation_targetAtFixation,jsons/v1_VE1000_randls_36_rotated.json,http://54.235.29.9/FacialAge/BNav_EC2/DepthDuration/v2_depth_duration_MTurk/v2_DepthDuration_HTML.html#58,58,1920,929,1920,1080,8-22-2022,7-59-18,36,depth_duration_stimuli/001555_2014-06-20_17-12-10_260595134347_rgbf000065-resize_4/001555_2014-06-20_17-12-10_260595134347_rgbf000065-resize_4-target.png,1000,1.633,3,3386,996,feet,jsons/v1_VE1000_randls_36_rotated.json,701685,846746,45,Man
36,468789,DepthScenes,duration_manipulation_targetAtFixation,jsons/v1_VE1000_randls_36_rotated.json,http://54.235.29.9/FacialAge/BNav_EC2/DepthDuration/v2_depth_duration_MTurk/v2_DepthDuration_HTML.html#58,58,1920,929,1920,1080,8-22-2022,7-59-18,37,depth_duration_stimuli/001214_2014-06-17_16-13-55_260595134347_rgbf000111-resize_0/001214_2014-06-17_16-13-55_260595134347_rgbf000111-resize_0-target.png,1000,2.6505,7,3329,998,feet,jsons/v1_VE1000_randls_36_rotated.json,701685,846746,45,Man
37,468789,DepthScenes,duration_manipulation_targetAtFixation,jsons/v1_VE1000_randls_36_rotated.json,http://54.235.29.9/FacialAge/BNav_EC2/DepthDuration/v2_depth_duration_MTurk/v2_DepthDuration_HTML.html#58,58,1920,929,1920,1080,8-22-2022,7-59-18,38,depth_duration_stimuli/000810_2014-06-08_17-20-01_260595134347_rgbf000105-resize_0/000810_2014-06-08_17-20-01_260595134347_rgbf000105-resize_0-target.png,1000,1.4865,7,3293,1004,feet,jsons/v1_VE1000_randls_36_rotated.json,701685,846746,45,Man
38,468789,DepthScenes,duration_manipulation_targetAtFixation,jsons/v1_VE1000_randls_36_rotated.json,http://54.235.29.9/FacialAge/BNav_EC2/DepthDuration/v2_depth_duration_MTurk/v2_DepthDuration_HTML.html#58,58,1920,929,1920,1080,8-22-2022,7-59-18,39,depth_duration_stimuli/000677_2014-06-08_23-10-32_260595134347_rgbf000158-resize_6/000677_2014-06-08_23-10-32_260595134347_rgbf000158-resize_6-target.png,1000,3.556,11,3320,1004,feet,jsons/v1_VE1000_randls_36_rotated.json,701685,846746,45,Man
39,468789,DepthScenes,duration_manipulation_targetAtFixation,jsons/v1_VE1000_randls_36_rotated.json,http://54.235.29.9/FacialAge/BNav_EC2/DepthDuration/v2_depth_duration_MTurk/v2_DepthDuration_HTML.html#58,58,1920,929,1920,1080,8-22-2022,7-59-18,40,depth_duration_stimuli/001029_2014-06-08_13-17-57_260595134347_rgbf000065-resize_1/001029_2014-06-08_13-17-57_260595134347_rgbf000065-resize_1-target.png,1000,3.0835,9,3649,1001,feet,jsons/v1_VE1000_randls_36_rotated.json,701685,846746,45,Man
40,468789,DepthScenes,duration_manipulation_targetAtFixation,jsons/v1_VE1000_randls_36_rotated.json,http://54.235.29.9/FacialAge/BNav_EC2/DepthDuration/v2_depth_duration_MTurk/v2_DepthDuration_HTML.html#58,58,1920,929,1920,1080,8-22-2022,7-59-18,41,depth_duration_stimuli/002637_2014-06-24_14-51-13_094959634447_rgbf000066-resize_4/002637_2014-06-24_14-51-13_094959634447_rgbf000066-resize_4-target.png,1000,1.9955,8,3149,996,feet,jsons/v1_VE1000_randls_36_rotated.json,701685,846746,45,Man
41,468789,DepthScenes,duration_manipulation_targetAtFixation,jsons/v1_VE1000_randls_36_rotated.json,http://54.235.29.9/FacialAge/BNav_EC2/DepthDuration/v2_depth_duration_MTurk/v2_DepthDuration_HTML.html#58,58,1920,929,1920,1080,8-22-2022,7-59-18,42,depth_duration_stimuli/003534_2014-05-22_15-06-10_094959634447_rgbf000102-resize_4/003534_2014-05-22_15-06-10_094959634447_rgbf000102-resize_4-target.png,1000,1.426,3,3147,999,feet,jsons/v1_VE1000_randls_36_rotated.json,701685,846746,45,Man
42,468789,DepthScenes,duration_manipulation_targetAtFixation,jsons/v1_VE1000_randls_36_rotated.json,http://54.235.29.9/FacialAge/BNav_EC2/DepthDuration/v2_depth_duration_MTurk/v2_DepthDuration_HTML.html#58,58,1920,929,1920,1080,8-22-2022,7-59-18,43,depth_duration_stimuli/001584_2014-06-20_11-07-43_260595134347_rgbf000002-resize_1/001584_2014-06-20_11-07-43_260595134347_rgbf000002-resize_1-target.png,1000,3.53,10,6105,994,feet,jsons/v1_VE1000_randls_36_rotated.json,701685,846746,45,Man
43,468789,DepthScenes,duration_manipulation_targetAtFixation,jsons/v1_VE1000_randls_36_rotated.json,http://54.235.29.9/FacialAge/BNav_EC2/DepthDuration/v2_depth_duration_MTurk/v2_DepthDuration_HTML.html#58,58,1920,929,1920,1080,8-22-2022,7-59-18,44,depth_duration_stimuli/003621_2014-05-23_18-06-08_094959634447_rgbf000101-resize_1/003621_2014-05-23_18-06-08_094959634447_rgbf000101-resize_1-target.png,1000,3.9835,14,3936,1001,feet,jsons/v1_VE1000_randls_36_rotated.json,701685,846746,45,Man
44,468789,DepthScenes,duration_manipulation_targetAtFixation,jsons/v1_VE1000_randls_36_rotated.json,http://54.235.29.9/FacialAge/BNav_EC2/DepthDuration/v2_depth_duration_MTurk/v2_DepthDuration_HTML.html#58,58,1920,929,1920,1080,8-22-2022,7-59-18,45,depth_duration_stimuli/002678_2014-06-13_16-15-32_094959634447_rgbf000151-resize_6/002678_2014-06-13_16-15-32_094959634447_rgbf000151-resize_6-target.png,1000,2.1830000000000003,7,3921,998,feet,jsons/v1_VE1000_randls_36_rotated.json,701685,846746,45,Man
45,468789,DepthScenes,duration_manipulation_targetAtFixation,jsons/v1_VE1000_randls_36_rotated.json,http://54.235.29.9/FacialAge/BNav_EC2/DepthDuration/v2_depth_duration_MTurk/v2_DepthDuration_HTML.html#58,58,1920,929,1920,1080,8-22-2022,7-59-18,46,depth_duration_stimuli/000368_2014-06-09_15-53-01_260595134347_rgbf000155-resize_2/000368_2014-06-09_15-53-01_260595134347_rgbf000155-resize_2-target.png,1000,2.4859999999999998,5,3204,995,feet,jsons/v1_VE1000_randls_36_rotated.json,701685,846746,45,Man
46,468789,DepthScenes,duration_manipulation_targetAtFixation,jsons/v1_VE1000_randls_36_rotated.json,http://54.235.29.9/FacialAge/BNav_EC2/DepthDuration/v2_depth_duration_MTurk/v2_DepthDuration_HTML.html#58,58,1920,929,1920,1080,8-22-2022,7-59-18,47,depth_duration_stimuli/003083_2014-06-15_15-21-03_094959634447_rgbf000063-resize_1/003083_2014-06-15_15-21-03_094959634447_rgbf000063-resize_1-target.png,1000,4.1405,18,4200,1000,feet,jsons/v1_VE1000_randls_36_rotated.json,701685,846746,45,Man
47,468789,DepthScenes,duration_manipulation_targetAtFixation,jsons/v1_VE1000_randls_36_rotated.json,http://54.235.29.9/FacialAge/BNav_EC2/DepthDuration/v2_depth_duration_MTurk/v2_DepthDuration_HTML.html#58,58,1920,929,1920,1080,8-22-2022,7-59-18,48,depth_duration_stimuli/000486_2014-06-09_20-47-20_260595134347_rgbf000143-resize_2/000486_2014-06-09_20-47-20_260595134347_rgbf000143-resize_2-target.png,1000,4.8325,16,4006,1020,feet,jsons/v1_VE1000_randls_36_rotated.json,701685,846746,45,Man
48,468789,DepthScenes,duration_manipulation_targetAtFixation,jsons/v1_VE1000_randls_36_rotated.json,http://54.235.29.9/FacialAge/BNav_EC2/DepthDuration/v2_depth_duration_MTurk/v2_DepthDuration_HTML.html#58,58,1920,929,1920,1080,8-22-2022,7-59-18,49,depth_duration_stimuli/001170_2014-06-17_15-43-44_260595134347_rgbf000096-resize_6/001170_2014-06-17_15-43-44_260595134347_rgbf000096-resize-original.jpg,1000,1.1909999999999998,0,3453,1012,feet,jsons/v1_VE1000_randls_36_rotated.json,701685,846746,45,Man
49,468789,DepthScenes,duration_manipulation_targetAtFixation,jsons/v1_VE1000_randls_36_rotated.json,http://54.235.29.9/FacialAge/BNav_EC2/DepthDuration/v2_depth_duration_MTurk/v2_DepthDuration_HTML.html#58,58,1920,929,1920,1080,8-22-2022,7-59-18,50,depth_duration_stimuli/000709_2014-06-08_13-51-55_260595134347_rgbf000068-resize_3/000709_2014-06-08_13-51-55_260595134347_rgbf000068-resize_3-target.png,1000,1.8030000000000002,7,3450,1002,feet,jsons/v1_VE1000_randls_36_rotated.json,701685,846746,45,Man
50,468789,DepthScenes,duration_manipulation_targetAtFixation,jsons/v1_VE1000_randls_36_rotated.json,http://54.235.29.9/FacialAge/BNav_EC2/DepthDuration/v2_depth_duration_MTurk/v2_DepthDuration_HTML.html#58,58,1920,929,1920,1080,8-22-2022,7-59-18,51,depth_duration_stimuli/002057_2014-06-24_21-00-13_260595134347_rgbf000120-resize_1/002057_2014-06-24_21-00-13_260595134347_rgbf000120-resize_1-target.png,1000,2.967,11,3410,1002,feet,jsons/v1_VE1000_randls_36_rotated.json,701685,846746,45,Man
51,468789,DepthScenes,duration_manipulation_targetAtFixation,jsons/v1_VE1000_randls_36_rotated.json,http://54.235.29.9/FacialAge/BNav_EC2/DepthDuration/v2_depth_duration_MTurk/v2_DepthDuration_HTML.html#58,58,1920,929,1920,1080,8-22-2022,7-59-18,52,depth_duration_stimuli/002444_2014-06-28_20-32-08_260595134347_rgbf000027-resize_0/002444_2014-06-28_20-32-08_260595134347_rgbf000027-resize_0-target.png,1000,4.388999999999999,14,3905,1006,feet,jsons/v1_VE1000_randls_36_rotated.json,701685,846746,45,Man
52,468789,DepthScenes,duration_manipulation_targetAtFixation,jsons/v1_VE1000_randls_36_rotated.json,http://54.235.29.9/FacialAge/BNav_EC2/DepthDuration/v2_depth_duration_MTurk/v2_DepthDuration_HTML.html#58,58,1920,929,1920,1080,8-22-2022,7-59-18,53,depth_duration_stimuli/000436_2014-06-09_22-25-11_260595134347_rgbf000137-resize_1/000436_2014-06-09_22-25-11_260595134347_rgbf000137-resize_1-target.png,1000,4.0705,17,3778,990,feet,jsons/v1_VE1000_randls_36_rotated.json,701685,846746,45,Man
53,468789,DepthScenes,duration_manipulation_targetAtFixation,jsons/v1_VE1000_randls_36_rotated.json,http://54.235.29.9/FacialAge/BNav_EC2/DepthDuration/v2_depth_duration_MTurk/v2_DepthDuration_HTML.html#58,58,1920,929,1920,1080,8-22-2022,7-59-18,54,depth_duration_stimuli/000780_2014-06-08_22-28-29_260595134347_rgbf000126-resize_1/000780_2014-06-08_22-28-29_260595134347_rgbf000126-resize_1-target.png,1000,3.3825,15,3842,1009,feet,jsons/v1_VE1000_randls_36_rotated.json,701685,846746,45,Man
54,468789,DepthScenes,duration_manipulation_targetAtFixation,jsons/v1_VE1000_randls_36_rotated.json,http://54.235.29.9/FacialAge/BNav_EC2/DepthDuration/v2_depth_duration_MTurk/v2_DepthDuration_HTML.html#58,58,1920,929,1920,1080,8-22-2022,7-59-18,55,depth_duration_stimuli/002445_2014-06-28_20-32-16_260595134347_rgbf000029-resize_4/002445_2014-06-28_20-32-16_260595134347_rgbf000029-resize_4-target.png,1000,2.5315,7,3497,1003,feet,jsons/v1_VE1000_randls_36_rotated.json,701685,846746,45,Man
55,468789,DepthScenes,duration_manipulation_targetAtFixation,jsons/v1_VE1000_randls_36_rotated.json,http://54.235.29.9/FacialAge/BNav_EC2/DepthDuration/v2_depth_duration_MTurk/v2_DepthDuration_HTML.html#58,58,1920,929,1920,1080,8-22-2022,7-59-18,56,depth_duration_stimuli/003587_2014-05-23_16-48-02_094959634447_rgbf002384-resize_2/003587_2014-05-23_16-48-02_094959634447_rgbf002384-resize_2-target.png,1000,1.357,4,3576,1004,feet,jsons/v1_VE1000_randls_36_rotated.json,701685,846746,45,Man
56,468789,DepthScenes,duration_manipulation_targetAtFixation,jsons/v1_VE1000_randls_36_rotated.json,http://54.235.29.9/FacialAge/BNav_EC2/DepthDuration/v2_depth_duration_MTurk/v2_DepthDuration_HTML.html#58,58,1920,929,1920,1080,8-22-2022,7-59-18,57,depth_duration_stimuli/001167_2014-06-17_15-38-07_260595134347_rgbf000108-resize_0/001167_2014-06-17_15-38-07_260595134347_rgbf000108-resize_0-target.png,1000,1.8505,4,3660,1000,feet,jsons/v1_VE1000_randls_36_rotated.json,701685,846746,45,Man
57,468789,DepthScenes,duration_manipulation_targetAtFixation,jsons/v1_VE1000_randls_36_rotated.json,http://54.235.29.9/FacialAge/BNav_EC2/DepthDuration/v2_depth_duration_MTurk/v2_DepthDuration_HTML.html#58,58,1920,929,1920,1080,8-22-2022,7-59-18,58,depth_duration_stimuli/002467_2014-06-28_20-38-07_260595134347_rgbf000026-resize_2/002467_2014-06-28_20-38-07_260595134347_rgbf000026-resize_2-target.png,1000,4.742,18,4587,990,feet,jsons/v1_VE1000_randls_36_rotated.json,701685,846746,45,Man
58,468789,DepthScenes,duration_manipulation_targetAtFixation,jsons/v1_VE1000_randls_36_rotated.json,http://54.235.29.9/FacialAge/BNav_EC2/DepthDuration/v2_depth_duration_MTurk/v2_DepthDuration_HTML.html#58,58,1920,929,1920,1080,8-22-2022,7-59-18,59,depth_duration_stimuli/002570_2014-06-24_13-59-54_094959634447_rgbf000059-resize_0/002570_2014-06-24_13-59-54_094959634447_rgbf000059-resize_0-target.png,1000,4.037,11,3864,1011,feet,jsons/v1_VE1000_randls_36_rotated.json,701685,846746,45,Man
59,468789,DepthScenes,duration_manipulation_targetAtFixation,jsons/v1_VE1000_randls_36_rotated.json,http://54.235.29.9/FacialAge/BNav_EC2/DepthDuration/v2_depth_duration_MTurk/v2_DepthDuration_HTML.html#58,58,1920,929,1920,1080,8-22-2022,7-59-18,60,depth_duration_stimuli/002425_2014-06-28_20-27-29_260595134347_rgbf000031-resize_8/002425_2014-06-28_20-27-29_260595134347_rgbf000031-resize_8-target.png,1000,3.8960000000000004,12,3558,986,feet,jsons/v1_VE1000_randls_36_rotated.json,701685,846746,45,Man
60,468789,DepthScenes,duration_manipulation_targetAtFixation,jsons/v1_VE1000_randls_36_rotated.json,http://54.235.29.9/FacialAge/BNav_EC2/DepthDuration/v2_depth_duration_MTurk/v2_DepthDuration_HTML.html#58,58,1920,929,1920,1080,8-22-2022,7-59-18,61,depth_duration_stimuli/000642_2014-06-08_16-59-25_260595134347_rgbf000098-resize_2/000642_2014-06-08_16-59-25_260595134347_rgbf000098-resize_2-target.png,1000,2.8815,12,3108,998,feet,jsons/v1_VE1000_randls_36_rotated.json,701685,846746,45,Man
61,468789,DepthScenes,duration_manipulation_targetAtFixation,jsons/v1_VE1000_randls_36_rotated.json,http://54.235.29.9/FacialAge/BNav_EC2/DepthDuration/v2_depth_duration_MTurk/v2_DepthDuration_HTML.html#58,58,1920,929,1920,1080,8-22-2022,7-59-18,62,depth_duration_stimuli/001815_2014-06-26_20-52-55_260595134347_rgbf000020-resize_0/001815_2014-06-26_20-52-55_260595134347_rgbf000020-resize_0-target.png,1000,3.3865,17,3637,1003,feet,jsons/v1_VE1000_randls_36_rotated.json,701685,846746,45,Man
62,468789,DepthScenes,duration_manipulation_targetAtFixation,jsons/v1_VE1000_randls_36_rotated.json,http://54.235.29.9/FacialAge/BNav_EC2/DepthDuration/v2_depth_duration_MTurk/v2_DepthDuration_HTML.html#58,58,1920,929,1920,1080,8-22-2022,7-59-18,63,depth_duration_stimuli/001808_2014-06-26_20-50-58_260595134347_rgbf000029-resize_1/001808_2014-06-26_20-50-58_260595134347_rgbf000029-resize_1-target.png,1000,4.249,16,4458,1000,feet,jsons/v1_VE1000_randls_36_rotated.json,701685,846746,45,Man
63,468789,DepthScenes,duration_manipulation_targetAtFixation,jsons/v1_VE1000_randls_36_rotated.json,http://54.235.29.9/FacialAge/BNav_EC2/DepthDuration/v2_depth_duration_MTurk/v2_DepthDuration_HTML.html#58,58,1920,929,1920,1080,8-22-2022,7-59-18,64,depth_duration_stimuli/003423_2014-05-21_10-23-26_094959634447_rgbf002665-resize_2/003423_2014-05-21_10-23-26_094959634447_rgbf002665-resize_2-target.png,1000,3.2575,18,4089,1005,feet,jsons/v1_VE1000_randls_36_rotated.json,701685,846746,45,Man
64,468789,DepthScenes,duration_manipulation_targetAtFixation,jsons/v1_VE1000_randls_36_rotated.json,http://54.235.29.9/FacialAge/BNav_EC2/DepthDuration/v2_depth_duration_MTurk/v2_DepthDuration_HTML.html#58,58,1920,929,1920,1080,8-22-2022,7-59-18,65,depth_duration_stimuli/002905_2014-06-03_18-04-43_094959634447_rgbf000151-resize_2/002905_2014-06-03_18-04-43_094959634447_rgbf000151-resize_2-target.png,1000,2.0295,7,3169,991,feet,jsons/v1_VE1000_randls_36_rotated.json,701685,846746,45,Man
65,468789,DepthScenes,duration_manipulation_targetAtFixation,jsons/v1_VE1000_randls_36_rotated.json,http://54.235.29.9/FacialAge/BNav_EC2/DepthDuration/v2_depth_duration_MTurk/v2_DepthDuration_HTML.html#58,58,1280,569,1280,720,8-22-2022,7-59-18,66,depth_duration_stimuli/001540_2014-06-20_17-01-05_260595134347_rgbf000086-resize_2/001540_2014-06-20_17-01-05_260595134347_rgbf000086-resize-original.jpg,1000,1.459,0,5508,1008,feet,jsons/v1_VE1000_randls_36_rotated.json,701685,846746,45,Man
66,468789,DepthScenes,duration_manipulation_targetAtFixation,jsons/v1_VE1000_randls_36_rotated.json,http://54.235.29.9/FacialAge/BNav_EC2/DepthDuration/v2_depth_duration_MTurk/v2_DepthDuration_HTML.html#58,58,1280,569,1280,720,8-22-2022,7-59-18,67,depth_duration_stimuli/000943_2014-06-09_19-31-07_260595134347_rgbf000128-resize_1/000943_2014-06-09_19-31-07_260595134347_rgbf000128-resize_1-target.png,1000,1.9765,5,3549,1005,feet,jsons/v1_VE1000_randls_36_rotated.json,701685,846746,45,Man
67,468789,DepthScenes,duration_manipulation_targetAtFixation,jsons/v1_VE1000_randls_36_rotated.json,http://54.235.29.9/FacialAge/BNav_EC2/DepthDuration/v2_depth_duration_MTurk/v2_DepthDuration_HTML.html#58,58,1280,569,1280,720,8-22-2022,7-59-18,68,depth_duration_stimuli/003070_2014-06-15_14-58-27_094959634447_rgbf000150-resize_3/003070_2014-06-15_14-58-27_094959634447_rgbf000150-resize_3-target.png,1000,2.9415,7,4786,1002,feet,jsons/v1_VE1000_randls_36_rotated.json,701685,846746,45,Man
68,468789,DepthScenes,duration_manipulation_targetAtFixation,jsons/v1_VE1000_randls_36_rotated.json,http://54.235.29.9/FacialAge/BNav_EC2/DepthDuration/v2_depth_duration_MTurk/v2_DepthDuration_HTML.html#58,58,1280,569,1280,720,8-22-2022,7-59-18,69,depth_duration_stimuli/000691_2014-06-08_13-08-50_260595134347_rgbf000132-resize_3/000691_2014-06-08_13-08-50_260595134347_rgbf000132-resize_3-target.png,1000,4.1530000000000005,12,3618,996,feet,jsons/v1_VE1000_randls_36_rotated.json,701685,846746,45,Man
69,468789,DepthScenes,duration_manipulation_targetAtFixation,jsons/v1_VE1000_randls_36_rotated.json,http://54.235.29.9/FacialAge/BNav_EC2/DepthDuration/v2_depth_duration_MTurk/v2_DepthDuration_HTML.html#58,58,1280,569,1280,720,8-22-2022,7-59-18,70,depth_duration_stimuli/002213_2014-06-28_18-37-58_260595134347_rgbf000055-resize_1/002213_2014-06-28_18-37-58_260595134347_rgbf000055-resize_1-target.png,1000,3.62,14,6865,998,feet,jsons/v1_VE1000_randls_36_rotated.json,701685,846746,45,Man
70,468789,DepthScenes,duration_manipulation_targetAtFixation,jsons/v1_VE1000_randls_36_rotated.json,http://54.235.29.9/FacialAge/BNav_EC2/DepthDuration/v2_depth_duration_MTurk/v2_DepthDuration_HTML.html#58,58,1600,712,1280,720,8-22-2022,7-59-18,71,depth_duration_stimuli/001828_2014-06-26_21-40-03_260595134347_rgbf000024-resize_0/001828_2014-06-26_21-40-03_260595134347_rgbf000024-resize_0-target.png,1000,4.8260000000000005,13,4956,997,feet,jsons/v1_VE1000_randls_36_rotated.json,701685,846746,45,Man
71,468789,DepthScenes,duration_manipulation_targetAtFixation,jsons/v1_VE1000_randls_36_rotated.json,http://54.235.29.9/FacialAge/BNav_EC2/DepthDuration/v2_depth_duration_MTurk/v2_DepthDuration_HTML.html#58,58,2400,1161,1920,1080,8-22-2022,7-59-18,72,depth_duration_stimuli/000009_2014-05-26_14-32-05_260595134347_rgbf000034-resize_3/000009_2014-05-26_14-32-05_260595134347_rgbf000034-resize_3-target.png,1000,3.8715,15,7692,1007,feet,jsons/v1_VE1000_randls_36_rotated.json,701685,846746,45,Man
72,468789,DepthScenes,duration_manipulation_targetAtFixation,jsons/v1_VE1000_randls_36_rotated.json,http://54.235.29.9/FacialAge/BNav_EC2/DepthDuration/v2_depth_duration_MTurk/v2_DepthDuration_HTML.html#58,58,2400,1161,1920,1080,8-22-2022,7-59-18,73,depth_duration_stimuli/002953_2014-06-08_17-32-18_094959634447_rgbf000059-resize_5/002953_2014-06-08_17-32-18_094959634447_rgbf000059-resize_5-target.png,1000,1.551,4,3909,1002,feet,jsons/v1_VE1000_randls_36_rotated.json,701685,846746,45,Man
73,468789,DepthScenes,duration_manipulation_targetAtFixation,jsons/v1_VE1000_randls_36_rotated.json,http://54.235.29.9/FacialAge/BNav_EC2/DepthDuration/v2_depth_duration_MTurk/v2_DepthDuration_HTML.html#58,58,2400,1161,1920,1080,8-22-2022,7-59-18,74,depth_duration_stimuli/000878_2014-06-08_22-52-45_260595134347_rgbf000045-resize_2/000878_2014-06-08_22-52-45_260595134347_rgbf000045-resize_2-target.png,1000,2.092,28,3142,990,feet,jsons/v1_VE1000_randls_36_rotated.json,701685,846746,45,Man
74,468789,DepthScenes,duration_manipulation_targetAtFixation,jsons/v1_VE1000_randls_36_rotated.json,http://54.235.29.9/FacialAge/BNav_EC2/DepthDuration/v2_depth_duration_MTurk/v2_DepthDuration_HTML.html#58,58,2400,1161,1920,1080,8-22-2022,7-59-18,75,depth_duration_stimuli/000483_2014-06-09_20-41-45_260595134347_rgbf000116-resize_4/000483_2014-06-09_20-41-45_260595134347_rgbf000116-resize_4-target.png,1000,1.337,4,4804,996,feet,jsons/v1_VE1000_randls_36_rotated.json,701685,846746,45,Man
75,468789,DepthScenes,duration_manipulation_targetAtFixation,jsons/v1_VE1000_randls_36_rotated.json,http://54.235.29.9/FacialAge/BNav_EC2/DepthDuration/v2_depth_duration_MTurk/v2_DepthDuration_HTML.html#58,58,2400,1161,1920,1080,8-22-2022,7-59-18,76,depth_duration_stimuli/000469_2014-06-09_19-42-10_260595134347_rgbf000081-resize_1/000469_2014-06-09_19-42-10_260595134347_rgbf000081-resize_1-target.png,1000,1.652,5,3995,1007,feet,jsons/v1_VE1000_randls_36_rotated.json,701685,846746,45,Man
76,468789,DepthScenes,duration_manipulation_targetAtFixation,jsons/v1_VE1000_randls_36_rotated.json,http://54.235.29.9/FacialAge/BNav_EC2/DepthDuration/v2_depth_duration_MTurk/v2_DepthDuration_HTML.html#58,58,2400,1161,1920,1080,8-22-2022,7-59-18,77,depth_duration_stimuli/003129_2014-05-12_10-48-10_094959634447_rgbf000100-resize_0/003129_2014-05-12_10-48-10_094959634447_rgbf000100-resize_0-target.png,1000,4.9305,14,4473,1001,feet,jsons/v1_VE1000_randls_36_rotated.json,701685,846746,45,Man
77,468789,DepthScenes,duration_manipulation_targetAtFixation,jsons/v1_VE1000_randls_36_rotated.json,http://54.235.29.9/FacialAge/BNav_EC2/DepthDuration/v2_depth_duration_MTurk/v2_DepthDuration_HTML.html#58,58,2400,1161,1920,1080,8-22-2022,7-59-18,78,depth_duration_stimuli/000414_2014-06-04_19-49-13_260595134347_rgbf000044-resize_0/000414_2014-06-04_19-49-13_260595134347_rgbf000044-resize_0-target.png,1000,4.329,17,3406,998,feet,jsons/v1_VE1000_randls_36_rotated.json,701685,846746,45,Man
78,468789,DepthScenes,duration_manipulation_targetAtFixation,jsons/v1_VE1000_randls_36_rotated.json,http://54.235.29.9/FacialAge/BNav_EC2/DepthDuration/v2_depth_duration_MTurk/v2_DepthDuration_HTML.html#58,58,2400,1161,1920,1080,8-22-2022,7-59-18,79,depth_duration_stimuli/001100_2014-06-15_17-46-26_260595134347_rgbf000225-resize_2/001100_2014-06-15_17-46-26_260595134347_rgbf000225-resize_2-target.png,1000,2.24,5,3143,999,feet,jsons/v1_VE1000_randls_36_rotated.json,701685,846746,45,Man
79,468789,DepthScenes,duration_manipulation_targetAtFixation,jsons/v1_VE1000_randls_36_rotated.json,http://54.235.29.9/FacialAge/BNav_EC2/DepthDuration/v2_depth_duration_MTurk/v2_DepthDuration_HTML.html#58,58,2400,1161,1920,1080,8-22-2022,7-59-18,80,depth_duration_stimuli/002784_2014-06-22_19-26-30_094959634447_rgbf000083-resize_3/002784_2014-06-22_19-26-30_094959634447_rgbf000083-resize_3-target.png,1000,1.8046666666667,6,3259,1007,feet,jsons/v1_VE1000_randls_36_rotated.json,701685,846746,45,Man
80,468789,DepthScenes,duration_manipulation_targetAtFixation,jsons/v1_VE1000_randls_36_rotated.json,http://54.235.29.9/FacialAge/BNav_EC2/DepthDuration/v2_depth_duration_MTurk/v2_DepthDuration_HTML.html#58,58,2400,1161,1920,1080,8-22-2022,7-59-18,81,depth_duration_stimuli/000866_2014-06-09_20-45-42_260595134347_rgbf000139-resize_1/000866_2014-06-09_20-45-42_260595134347_rgbf000139-resize_1-target.png,1000,3.2155,10,4477,997,feet,jsons/v1_VE1000_randls_36_rotated.json,701685,846746,45,Man
81,468789,DepthScenes,duration_manipulation_targetAtFixation,jsons/v1_VE1000_randls_36_rotated.json,http://54.235.29.9/FacialAge/BNav_EC2/DepthDuration/v2_depth_duration_MTurk/v2_DepthDuration_HTML.html#58,58,2400,1161,1920,1080,8-22-2022,7-59-18,82,depth_duration_stimuli/002989_2014-06-15_12-25-03_094959634447_rgbf000150-resize_3/002989_2014-06-15_12-25-03_094959634447_rgbf000150-resize_3-target.png,1000,4.1975,15,4028,997,feet,jsons/v1_VE1000_randls_36_rotated.json,701685,846746,45,Man
82,468789,DepthScenes,duration_manipulation_targetAtFixation,jsons/v1_VE1000_randls_36_rotated.json,http://54.235.29.9/FacialAge/BNav_EC2/DepthDuration/v2_depth_duration_MTurk/v2_DepthDuration_HTML.html#58,58,2400,1161,1920,1080,8-22-2022,7-59-18,83,depth_duration_stimuli/002209_2014-06-28_18-36-10_260595134347_rgbf000051-resize_1/002209_2014-06-28_18-36-10_260595134347_rgbf000051-resize_1-target.png,1000,2.057,8,3452,1002,feet,jsons/v1_VE1000_randls_36_rotated.json,701685,846746,45,Man
83,468789,DepthScenes,duration_manipulation_targetAtFixation,jsons/v1_VE1000_randls_36_rotated.json,http://54.235.29.9/FacialAge/BNav_EC2/DepthDuration/v2_depth_duration_MTurk/v2_DepthDuration_HTML.html#58,58,2400,1161,1920,1080,8-22-2022,7-59-18,84,depth_duration_stimuli/002763_2014-06-22_19-13-10_094959634447_rgbf000075-resize_4/002763_2014-06-22_19-13-10_094959634447_rgbf000075-resize_4-target.png,1000,1.68375,6,3040,998,feet,jsons/v1_VE1000_randls_36_rotated.json,701685,846746,45,Man
84,468789,DepthScenes,duration_manipulation_targetAtFixation,jsons/v1_VE1000_randls_36_rotated.json,http://54.235.29.9/FacialAge/BNav_EC2/DepthDuration/v2_depth_duration_MTurk/v2_DepthDuration_HTML.html#58,58,2400,1161,1920,1080,8-22-2022,7-59-18,85,depth_duration_stimuli/002545_2014-06-24_13-38-53_094959634447_rgbf000080-resize_4/002545_2014-06-24_13-38-53_094959634447_rgbf000080-resize_4-target.png,1000,1.9205,10,5519,1010,feet,jsons/v1_VE1000_randls_36_rotated.json,701685,846746,45,Man
85,468789,DepthScenes,duration_manipulation_targetAtFixation,jsons/v1_VE1000_randls_36_rotated.json,http://54.235.29.9/FacialAge/BNav_EC2/DepthDuration/v2_depth_duration_MTurk/v2_DepthDuration_HTML.html#58,58,2400,1161,1920,1080,8-22-2022,7-59-18,86,depth_duration_stimuli/001092_2014-06-15_17-34-58_260595134347_rgbf000171-resize_3/001092_2014-06-15_17-34-58_260595134347_rgbf000171-resize_3-target.png,1000,2.6935,9,3793,995,feet,jsons/v1_VE1000_randls_36_rotated.json,701685,846746,45,Man
86,468789,DepthScenes,duration_manipulation_targetAtFixation,jsons/v1_VE1000_randls_36_rotated.json,http://54.235.29.9/FacialAge/BNav_EC2/DepthDuration/v2_depth_duration_MTurk/v2_DepthDuration_HTML.html#58,58,2400,1161,1920,1080,8-22-2022,7-59-18,87,depth_duration_stimuli/002805_2014-06-22_19-54-03_094959634447_rgbf000079-resize_1/002805_2014-06-22_19-54-03_094959634447_rgbf000079-resize_1-target.png,1000,3.1439999999999997,14,3615,1012,feet,jsons/v1_VE1000_randls_36_rotated.json,701685,846746,45,Man
87,468789,DepthScenes,duration_manipulation_targetAtFixation,jsons/v1_VE1000_randls_36_rotated.json,http://54.235.29.9/FacialAge/BNav_EC2/DepthDuration/v2_depth_duration_MTurk/v2_DepthDuration_HTML.html#58,58,2400,1161,1920,1080,8-22-2022,7-59-18,88,depth_duration_stimuli/000906_2014-06-08_13-35-43_260595134347_rgbf000155-resize_1/000906_2014-06-08_13-35-43_260595134347_rgbf000155-resize_1-target.png,1000,2.8489999999999998,12,3240,1010,feet,jsons/v1_VE1000_randls_36_rotated.json,701685,846746,45,Man
88,468789,DepthScenes,duration_manipulation_targetAtFixation,jsons/v1_VE1000_randls_36_rotated.json,http://54.235.29.9/FacialAge/BNav_EC2/DepthDuration/v2_depth_duration_MTurk/v2_DepthDuration_HTML.html#58,58,2400,1161,1920,1080,8-22-2022,7-59-18,89,depth_duration_stimuli/003010_2014-06-15_12-54-35_094959634447_rgbf000112-resize_0/003010_2014-06-15_12-54-35_094959634447_rgbf000112-resize_0-target.png,1000,3.1185,14,4393,990,feet,jsons/v1_VE1000_randls_36_rotated.json,701685,846746,45,Man
89,468789,DepthScenes,duration_manipulation_targetAtFixation,jsons/v1_VE1000_randls_36_rotated.json,http://54.235.29.9/FacialAge/BNav_EC2/DepthDuration/v2_depth_duration_MTurk/v2_DepthDuration_HTML.html#58,58,2400,1161,1920,1080,8-22-2022,7-59-18,90,depth_duration_stimuli/001810_2014-06-26_20-51-35_260595134347_rgbf000040-resize_3/001810_2014-06-26_20-51-35_260595134347_rgbf000040-resize_3-target.png,1000,2.2525,7,3600,999,feet,jsons/v1_VE1000_randls_36_rotated.json,701685,846746,45,Man
90,468789,DepthScenes,duration_manipulation_targetAtFixation,jsons/v1_VE1000_randls_36_rotated.json,http://54.235.29.9/FacialAge/BNav_EC2/DepthDuration/v2_depth_duration_MTurk/v2_DepthDuration_HTML.html#58,58,2400,1161,1920,1080,8-22-2022,7-59-18,91,depth_duration_stimuli/000854_2014-06-09_19-43-13_260595134347_rgbf000066-resize_0/000854_2014-06-09_19-43-13_260595134347_rgbf000066-resize_0-target.png,1000,3.068,6,3142,999,feet,jsons/v1_VE1000_randls_36_rotated.json,701685,846746,45,Man
91,468789,DepthScenes,duration_manipulation_targetAtFixation,jsons/v1_VE1000_randls_36_rotated.json,http://54.235.29.9/FacialAge/BNav_EC2/DepthDuration/v2_depth_duration_MTurk/v2_DepthDuration_HTML.html#58,58,2400,1161,1920,1080,8-22-2022,7-59-18,92,depth_duration_stimuli/000758_2014-06-08_22-05-08_260595134347_rgbf000085-resize_0/000758_2014-06-08_22-05-08_260595134347_rgbf000085-resize_0-target.png,1000,3.3810000000000002,15,2957,1002,feet,jsons/v1_VE1000_randls_36_rotated.json,701685,846746,45,Man
92,468789,DepthScenes,duration_manipulation_targetAtFixation,jsons/v1_VE1000_randls_36_rotated.json,http://54.235.29.9/FacialAge/BNav_EC2/DepthDuration/v2_depth_duration_MTurk/v2_DepthDuration_HTML.html#58,58,2400,1161,1920,1080,8-22-2022,7-59-18,93,depth_duration_stimuli/000635_2014-06-08_16-38-42_260595134347_rgbf000106-resize_1/000635_2014-06-08_16-38-42_260595134347_rgbf000106-resize_1-target.png,1000,2.074,13,3887,997,feet,jsons/v1_VE1000_randls_36_rotated.json,701685,846746,45,Man
93,468789,DepthScenes,duration_manipulation_targetAtFixation,jsons/v1_VE1000_randls_36_rotated.json,http://54.235.29.9/FacialAge/BNav_EC2/DepthDuration/v2_depth_duration_MTurk/v2_DepthDuration_HTML.html#58,58,2400,1161,1920,1080,8-22-2022,7-59-18,94,depth_duration_stimuli/002279_2014-06-28_18-55-32_260595134347_rgbf000040-resize_5/002279_2014-06-28_18-55-32_260595134347_rgbf000040-resize_5-target.png,1000,1.5043333333333,5,2814,999,feet,jsons/v1_VE1000_randls_36_rotated.json,701685,846746,45,Man
94,468789,DepthScenes,duration_manipulation_targetAtFixation,jsons/v1_VE1000_randls_36_rotated.json,http://54.235.29.9/FacialAge/BNav_EC2/DepthDuration/v2_depth_duration_MTurk/v2_DepthDuration_HTML.html#58,58,2400,1161,1920,1080,8-22-2022,7-59-18,95,depth_duration_stimuli/002344_2014-06-28_20-06-29_260595134347_rgbf000030-resize_1/002344_2014-06-28_20-06-29_260595134347_rgbf000030-resize_1-target.png,1000,1.5795,3,3136,995,feet,jsons/v1_VE1000_randls_36_rotated.json,701685,846746,45,Man
95,468789,DepthScenes,duration_manipulation_targetAtFixation,jsons/v1_VE1000_randls_36_rotated.json,http://54.235.29.9/FacialAge/BNav_EC2/DepthDuration/v2_depth_duration_MTurk/v2_DepthDuration_HTML.html#58,58,2400,1161,1920,1080,8-22-2022,7-59-18,96,depth_duration_stimuli/002725_2014-06-22_11-47-51_094959634447_rgbf000070-resize_1/002725_2014-06-22_11-47-51_094959634447_rgbf000070-resize_1-target.png,1000,2.195,7,3055,998,feet,jsons/v1_VE1000_randls_36_rotated.json,701685,846746,45,Man
96,468789,DepthScenes,duration_manipulation_targetAtFixation,jsons/v1_VE1000_randls_36_rotated.json,http://54.235.29.9/FacialAge/BNav_EC2/DepthDuration/v2_depth_duration_MTurk/v2_DepthDuration_HTML.html#58,58,2400,1161,1920,1080,8-22-2022,7-59-18,97,depth_duration_stimuli/001516_2014-06-20_16-25-09_260595134347_rgbf000076-resize_2/001516_2014-06-20_16-25-09_260595134347_rgbf000076-resize_2-target.png,1000,1.7445,6,3062,1001,feet,jsons/v1_VE1000_randls_36_rotated.json,701685,846746,45,Man
97,468789,DepthScenes,duration_manipulation_targetAtFixation,jsons/v1_VE1000_randls_36_rotated.json,http://54.235.29.9/FacialAge/BNav_EC2/DepthDuration/v2_depth_duration_MTurk/v2_DepthDuration_HTML.html#58,58,2400,1161,1920,1080,8-22-2022,7-59-18,98,depth_duration_stimuli/002118_2014-06-25_20-32-08_260595134347_rgbf000078-resize_1/002118_2014-06-25_20-32-08_260595134347_rgbf000078-resize_1-target.png,1000,2.6460000000000004,8,3089,998,feet,jsons/v1_VE1000_randls_36_rotated.json,701685,846746,45,Man
98,468789,DepthScenes,duration_manipulation_targetAtFixation,jsons/v1_VE1000_randls_36_rotated.json,http://54.235.29.9/FacialAge/BNav_EC2/DepthDuration/v2_depth_duration_MTurk/v2_DepthDuration_HTML.html#58,58,2400,1161,1920,1080,8-22-2022,7-59-18,99,depth_duration_stimuli/001222_2014-06-17_16-24-06_260595134347_rgbf000073-resize_0/001222_2014-06-17_16-24-06_260595134347_rgbf000073-resize-original.jpg,1000,1.4385,0,3098,991,feet,jsons/v1_VE1000_randls_36_rotated.json,701685,846746,45,Man
99,468789,DepthScenes,duration_manipulation_targetAtFixation,jsons/v1_VE1000_randls_36_rotated.json,http://54.235.29.9/FacialAge/BNav_EC2/DepthDuration/v2_depth_duration_MTurk/v2_DepthDuration_HTML.html#58,58,2400,1161,1920,1080,8-22-2022,7-59-18,100,depth_duration_stimuli/003081_2014-06-15_15-19-16_094959634447_rgbf000150-resize_1/003081_2014-06-15_15-19-16_094959634447_rgbf000150-resize_1-target.png,1000,3.9125,14,3149,1000,feet,jsons/v1_VE1000_randls_36_rotated.json,701685,846746,45,Man
100,468789,DepthScenes,duration_manipulation_targetAtFixation,jsons/v1_VE1000_randls_36_rotated.json,http://54.235.29.9/FacialAge/BNav_EC2/DepthDuration/v2_depth_duration_MTurk/v2_DepthDuration_HTML.html#58,58,2400,1161,1920,1080,8-22-2022,7-59-18,101,depth_duration_stimuli/001417_2014-06-19_16-25-36_260595134347_rgbf000115-resize_5/001417_2014-06-19_16-25-36_260595134347_rgbf000115-resize_5-target.png,1000,4.6255,14,3086,999,feet,jsons/v1_VE1000_randls_36_rotated.json,701685,846746,45,Man
101,468789,DepthScenes,duration_manipulation_targetAtFixation,jsons/v1_VE1000_randls_36_rotated.json,http://54.235.29.9/FacialAge/BNav_EC2/DepthDuration/v2_depth_duration_MTurk/v2_DepthDuration_HTML.html#58,58,2400,1161,1920,1080,8-22-2022,7-59-18,102,depth_duration_stimuli/001032_2014-06-08_13-23-17_260595134347_rgbf000021-resize_3/001032_2014-06-08_13-23-17_260595134347_rgbf000021-resize_3-target.png,1000,3.2725,9,3009,1003,feet,jsons/v1_VE1000_randls_36_rotated.json,701685,846746,45,Man
102,468789,DepthScenes,duration_manipulation_targetAtFixation,jsons/v1_VE1000_randls_36_rotated.json,http://54.235.29.9/FacialAge/BNav_EC2/DepthDuration/v2_depth_duration_MTurk/v2_DepthDuration_HTML.html#58,58,2400,1161,1920,1080,8-22-2022,7-59-18,103,depth_duration_stimuli/001059_2014-06-08_21-53-27_260595134347_rgbf000061-resize_4/001059_2014-06-08_21-53-27_260595134347_rgbf000061-resize_4-target.png,1000,2.4185,8,2947,997,feet,jsons/v1_VE1000_randls_36_rotated.json,701685,846746,45,Man
103,468789,DepthScenes,duration_manipulation_targetAtFixation,jsons/v1_VE1000_randls_36_rotated.json,http://54.235.29.9/FacialAge/BNav_EC2/DepthDuration/v2_depth_duration_MTurk/v2_DepthDuration_HTML.html#58,58,2400,1161,1920,1080,8-22-2022,7-59-18,104,depth_duration_stimuli/002875_2014-06-01_15-19-00_094959634447_rgbf000151-resize_1/002875_2014-06-01_15-19-00_094959634447_rgbf000151-resize_1-target.png,1000,1.9675,5,2985,990,feet,jsons/v1_VE1000_randls_36_rotated.json,701685,846746,45,Man
104,468789,DepthScenes,duration_manipulation_targetAtFixation,jsons/v1_VE1000_randls_36_rotated.json,http://54.235.29.9/FacialAge/BNav_EC2/DepthDuration/v2_depth_duration_MTurk/v2_DepthDuration_HTML.html#58,58,2400,1161,1920,1080,8-22-2022,7-59-18,105,depth_duration_stimuli/001011_2014-06-08_23-18-54_260595134347_rgbf000044-resize_4/001011_2014-06-08_23-18-54_260595134347_rgbf000044-resize_4-target.png,1000,2.4730000000000003,8,2970,997,feet,jsons/v1_VE1000_randls_36_rotated.json,701685,846746,45,Man
105,468789,DepthScenes,duration_manipulation_targetAtFixation,jsons/v1_VE1000_randls_36_rotated.json,http://54.235.29.9/FacialAge/BNav_EC2/DepthDuration/v2_depth_duration_MTurk/v2_DepthDuration_HTML.html#58,58,2400,1161,1920,1080,8-22-2022,7-59-18,106,depth_duration_stimuli/003079_2014-06-15_15-18-20_094959634447_rgbf000152-resize_8/003079_2014-06-15_15-18-20_094959634447_rgbf000152-resize_8-target.png,1000,2.8775,12,3161,995,feet,jsons/v1_VE1000_randls_36_rotated.json,701685,846746,45,Man
106,468789,DepthScenes,duration_manipulation_targetAtFixation,jsons/v1_VE1000_randls_36_rotated.json,http://54.235.29.9/FacialAge/BNav_EC2/DepthDuration/v2_depth_duration_MTurk/v2_DepthDuration_HTML.html#58,58,2400,1161,1920,1080,8-22-2022,7-59-18,107,depth_duration_stimuli/000506_2014-06-08_23-21-00_260595134347_rgbf000070-resize_7/000506_2014-06-08_23-21-00_260595134347_rgbf000070-resize_7-target.png,1000,4.0585,12,2948,1006,feet,jsons/v1_VE1000_randls_36_rotated.json,701685,846746,45,Man
107,468789,DepthScenes,duration_manipulation_targetAtFixation,jsons/v1_VE1000_randls_36_rotated.json,http://54.235.29.9/FacialAge/BNav_EC2/DepthDuration/v2_depth_duration_MTurk/v2_DepthDuration_HTML.html#58,58,2400,1161,1920,1080,8-22-2022,7-59-18,108,depth_duration_stimuli/001132_2014-06-17_14-48-54_260595134347_rgbf000100-resize_2/001132_2014-06-17_14-48-54_260595134347_rgbf000100-resize_2-target.png,1000,3.753,11,2907,1005,feet,jsons/v1_VE1000_randls_36_rotated.json,701685,846746,45,Man
108,468789,DepthScenes,duration_manipulation_targetAtFixation,jsons/v1_VE1000_randls_36_rotated.json,http://54.235.29.9/FacialAge/BNav_EC2/DepthDuration/v2_depth_duration_MTurk/v2_DepthDuration_HTML.html#58,58,2400,1161,1920,1080,8-22-2022,7-59-18,109,depth_duration_stimuli/001133_2014-06-17_14-49-16_260595134347_rgbf000100-resize_0/001133_2014-06-17_14-49-16_260595134347_rgbf000100-resize_0-target.png,1000,4.2115,14,3245,1010,feet,jsons/v1_VE1000_randls_36_rotated.json,701685,846746,45,Man
109,468789,DepthScenes,duration_manipulation_targetAtFixation,jsons/v1_VE1000_randls_36_rotated.json,http://54.235.29.9/FacialAge/BNav_EC2/DepthDuration/v2_depth_duration_MTurk/v2_DepthDuration_HTML.html#58,58,2400,1161,1920,1080,8-22-2022,7-59-18,110,depth_duration_stimuli/000927_2014-06-09_16-32-30_260595134347_rgbf000123-resize_3/000927_2014-06-09_16-32-30_260595134347_rgbf000123-resize_3-target.png,1000,2.6785,10,3721,991,feet,jsons/v1_VE1000_randls_36_rotated.json,701685,846746,45,Man
110,468789,DepthScenes,duration_manipulation_targetAtFixation,jsons/v1_VE1000_randls_36_rotated.json,http://54.235.29.9/FacialAge/BNav_EC2/DepthDuration/v2_depth_duration_MTurk/v2_DepthDuration_HTML.html#58,58,2400,1161,1920,1080,8-22-2022,7-59-18,111,depth_duration_stimuli/001110_2014-06-15_17-25-28_260595134347_rgbf000150-resize_1/001110_2014-06-15_17-25-28_260595134347_rgbf000150-resize_1-target.png,1000,1.7115,7,3059,995,feet,jsons/v1_VE1000_randls_36_rotated.json,701685,846746,45,Man
111,468789,DepthScenes,duration_manipulation_targetAtFixation,jsons/v1_VE1000_randls_36_rotated.json,http://54.235.29.9/FacialAge/BNav_EC2/DepthDuration/v2_depth_duration_MTurk/v2_DepthDuration_HTML.html#58,58,2400,1161,1920,1080,8-22-2022,7-59-18,112,depth_duration_stimuli/001136_2014-06-17_15-19-41_260595134347_rgbf000076-resize_3/001136_2014-06-17_15-19-41_260595134347_rgbf000076-resize_3-target.png,1000,1.8655,6,4448,1004,feet,jsons/v1_VE1000_randls_36_rotated.json,701685,846746,45,Man
112,468789,DepthScenes,duration_manipulation_targetAtFixation,jsons/v1_VE1000_randls_36_rotated.json,http://54.235.29.9/FacialAge/BNav_EC2/DepthDuration/v2_depth_duration_MTurk/v2_DepthDuration_HTML.html#58,58,2400,1161,1920,1080,8-22-2022,7-59-18,113,depth_duration_stimuli/001164_2014-06-17_15-35-46_260595134347_rgbf000085-resize_3/001164_2014-06-17_15-35-46_260595134347_rgbf000085-resize_3-target.png,1000,2.354,7,3499,1001,feet,jsons/v1_VE1000_randls_36_rotated.json,701685,846746,45,Man
113,468789,DepthScenes,duration_manipulation_targetAtFixation,jsons/v1_VE1000_randls_36_rotated.json,http://54.235.29.9/FacialAge/BNav_EC2/DepthDuration/v2_depth_duration_MTurk/v2_DepthDuration_HTML.html#58,58,2400,1161,1920,1080,8-22-2022,7-59-18,114,depth_duration_stimuli/001450_2014-06-19_17-02-03_260595134347_rgbf000203-resize_4/001450_2014-06-19_17-02-03_260595134347_rgbf000203-resize_4-target.png,1000,4.0106666666667,9,3905,1003,feet,jsons/v1_VE1000_randls_36_rotated.json,701685,846746,45,Man
114,468789,DepthScenes,duration_manipulation_targetAtFixation,jsons/v1_VE1000_randls_36_rotated.json,http://54.235.29.9/FacialAge/BNav_EC2/DepthDuration/v2_depth_duration_MTurk/v2_DepthDuration_HTML.html#58,58,2400,1161,1920,1080,8-22-2022,7-59-18,115,depth_duration_stimuli/001449_2014-06-19_17-01-27_260595134347_rgbf000116-resize_2/001449_2014-06-19_17-01-27_260595134347_rgbf000116-resize_2-target.png,1000,3.452,8,4973,1006,feet,jsons/v1_VE1000_randls_36_rotated.json,701685,846746,45,Man
115,468789,DepthScenes,duration_manipulation_targetAtFixation,jsons/v1_VE1000_randls_36_rotated.json,http://54.235.29.9/FacialAge/BNav_EC2/DepthDuration/v2_depth_duration_MTurk/v2_DepthDuration_HTML.html#58,58,2400,1161,1920,1080,8-22-2022,7-59-18,116,depth_duration_stimuli/000734_2014-06-08_17-39-11_260595134347_rgbf000128-resize_2/000734_2014-06-08_17-39-11_260595134347_rgbf000128-resize_2-target.png,1000,4.098,8,3404,999,feet,jsons/v1_VE1000_randls_36_rotated.json,701685,846746,45,Man
116,468789,DepthScenes,duration_manipulation_targetAtFixation,jsons/v1_VE1000_randls_36_rotated.json,http://54.235.29.9/FacialAge/BNav_EC2/DepthDuration/v2_depth_duration_MTurk/v2_DepthDuration_HTML.html#58,58,2400,1161,1920,1080,8-22-2022,7-59-18,117,depth_duration_stimuli/000739_2014-06-08_18-45-58_260595134347_rgbf000068-resize_1/000739_2014-06-08_18-45-58_260595134347_rgbf000068-resize_1-target.png,1000,3.534,10,5029,995,feet,jsons/v1_VE1000_randls_36_rotated.json,701685,846746,45,Man
117,468789,DepthScenes,duration_manipulation_targetAtFixation,jsons/v1_VE1000_randls_36_rotated.json,http://54.235.29.9/FacialAge/BNav_EC2/DepthDuration/v2_depth_duration_MTurk/v2_DepthDuration_HTML.html#58,58,2400,1161,1920,1080,8-22-2022,7-59-18,118,depth_duration_stimuli/000742_2014-06-08_18-48-09_260595134347_rgbf000164-resize_4/000742_2014-06-08_18-48-09_260595134347_rgbf000164-resize_4-target.png,1000,4.632,12,3494,990,feet,jsons/v1_VE1000_randls_36_rotated.json,701685,846746,45,Man
118,468789,DepthScenes,duration_manipulation_targetAtFixation,jsons/v1_VE1000_randls_36_rotated.json,http://54.235.29.9/FacialAge/BNav_EC2/DepthDuration/v2_depth_duration_MTurk/v2_DepthDuration_HTML.html#58,58,2400,1161,1920,1080,8-22-2022,7-59-18,119,depth_duration_stimuli/001066_2014-06-08_22-03-20_260595134347_rgbf000066-resize_4/001066_2014-06-08_22-03-20_260595134347_rgbf000066-resize_4-target.png,1000,4.2330000000000005,15,3161,1013,feet,jsons/v1_VE1000_randls_36_rotated.json,701685,846746,45,Man
119,468789,DepthScenes,duration_manipulation_targetAtFixation,jsons/v1_VE1000_randls_36_rotated.json,http://54.235.29.9/FacialAge/BNav_EC2/DepthDuration/v2_depth_duration_MTurk/v2_DepthDuration_HTML.html#58,58,2400,1161,1920,1080,8-22-2022,7-59-18,120,depth_duration_stimuli/000787_2014-06-08_22-33-53_260595134347_rgbf000175-resize_1/000787_2014-06-08_22-33-53_260595134347_rgbf000175-resize-original.jpg,1000,4.784,0,3425,984,feet,jsons/v1_VE1000_randls_36_rotated.json,701685,846746,45,Man
120,468789,DepthScenes,duration_manipulation_targetAtFixation,jsons/v1_VE1000_randls_36_rotated.json,http://54.235.29.9/FacialAge/BNav_EC2/DepthDuration/v2_depth_duration_MTurk/v2_DepthDuration_HTML.html#58,58,2400,1161,1920,1080,8-22-2022,7-59-18,121,depth_duration_stimuli/003338_2014-05-20_11-01-23_094959634447_rgbf000051-resize_6/003338_2014-05-20_11-01-23_094959634447_rgbf000051-resize_6-target.png,1000,1.693,4,5424,994,feet,jsons/v1_VE1000_randls_36_rotated.json,701685,846746,45,Man
121,468789,DepthScenes,duration_manipulation_targetAtFixation,jsons/v1_VE1000_randls_36_rotated.json,http://54.235.29.9/FacialAge/BNav_EC2/DepthDuration/v2_depth_duration_MTurk/v2_DepthDuration_HTML.html#58,58,2400,1161,1920,1080,8-22-2022,7-59-18,122,depth_duration_stimuli/002509_2014-06-24_13-19-22_094959634447_rgbf000077-resize_0/002509_2014-06-24_13-19-22_094959634447_rgbf000077-resize_0-target.png,1000,1.3065,3,2990,992,feet,jsons/v1_VE1000_randls_36_rotated.json,701685,846746,45,Man
122,468789,DepthScenes,duration_manipulation_targetAtFixation,jsons/v1_VE1000_randls_36_rotated.json,http://54.235.29.9/FacialAge/BNav_EC2/DepthDuration/v2_depth_duration_MTurk/v2_DepthDuration_HTML.html#58,58,2400,1161,1920,1080,8-22-2022,7-59-18,123,depth_duration_stimuli/002199_2014-06-28_18-33-56_260595134347_rgbf000074-resize_0/002199_2014-06-28_18-33-56_260595134347_rgbf000074-resize_0-target.png,1000,1.996,3,2889,999,feet,jsons/v1_VE1000_randls_36_rotated.json,701685,846746,45,Man
123,468789,DepthScenes,duration_manipulation_targetAtFixation,jsons/v1_VE1000_randls_36_rotated.json,http://54.235.29.9/FacialAge/BNav_EC2/DepthDuration/v2_depth_duration_MTurk/v2_DepthDuration_HTML.html#58,58,2400,1161,1920,1080,8-22-2022,7-59-18,124,depth_duration_stimuli/001056_2014-06-08_18-46-44_260595134347_rgbf000068-resize_0/001056_2014-06-08_18-46-44_260595134347_rgbf000068-resize_0-target.png,1000,2.6625,9,3387,1004,feet,jsons/v1_VE1000_randls_36_rotated.json,701685,846746,45,Man
124,468789,DepthScenes,duration_manipulation_targetAtFixation,jsons/v1_VE1000_randls_36_rotated.json,http://54.235.29.9/FacialAge/BNav_EC2/DepthDuration/v2_depth_duration_MTurk/v2_DepthDuration_HTML.html#58,58,2400,1161,1920,1080,8-22-2022,7-59-18,125,depth_duration_stimuli/001052_2014-06-08_18-24-54_260595134347_rgbf000130-resize_1/001052_2014-06-08_18-24-54_260595134347_rgbf000130-resize_1-target.png,1000,4.1045,10,3114,987,feet,jsons/v1_VE1000_randls_36_rotated.json,701685,846746,45,Man
125,468789,DepthScenes,duration_manipulation_targetAtFixation,jsons/v1_VE1000_randls_36_rotated.json,http://54.235.29.9/FacialAge/BNav_EC2/DepthDuration/v2_depth_duration_MTurk/v2_DepthDuration_HTML.html#58,58,2400,1161,1920,1080,8-22-2022,7-59-18,126,depth_duration_stimuli/002988_2014-06-15_12-24-20_094959634447_rgbf000150-resize_1/002988_2014-06-15_12-24-20_094959634447_rgbf000150-resize_1-target.png,1000,4.7669999999999995,15,3821,991,feet,jsons/v1_VE1000_randls_36_rotated.json,701685,846746,45,Man
126,468789,DepthScenes,duration_manipulation_targetAtFixation,jsons/v1_VE1000_randls_36_rotated.json,http://54.235.29.9/FacialAge/BNav_EC2/DepthDuration/v2_depth_duration_MTurk/v2_DepthDuration_HTML.html#58,58,2400,1161,1920,1080,8-22-2022,7-59-18,127,depth_duration_stimuli/001617_2014-06-20_11-35-32_260595134347_rgbf000066-resize_1/001617_2014-06-20_11-35-32_260595134347_rgbf000066-resize_1-target.png,1000,3.7910000000000004,13,3309,999,feet,jsons/v1_VE1000_randls_36_rotated.json,701685,846746,45,Man
127,468789,DepthScenes,duration_manipulation_targetAtFixation,jsons/v1_VE1000_randls_36_rotated.json,http://54.235.29.9/FacialAge/BNav_EC2/DepthDuration/v2_depth_duration_MTurk/v2_DepthDuration_HTML.html#58,58,2400,1161,1920,1080,8-22-2022,7-59-18,128,depth_duration_stimuli/001806_2014-06-26_20-50-20_260595134347_rgbf000091-resize_1/001806_2014-06-26_20-50-20_260595134347_rgbf000091-resize_1-target.png,1000,2.7305,7,4266,998,feet,jsons/v1_VE1000_randls_36_rotated.json,701685,846746,45,Man
128,468789,DepthScenes,duration_manipulation_targetAtFixation,jsons/v1_VE1000_randls_36_rotated.json,http://54.235.29.9/FacialAge/BNav_EC2/DepthDuration/v2_depth_duration_MTurk/v2_DepthDuration_HTML.html#58,58,2400,1161,1920,1080,8-22-2022,7-59-18,129,depth_duration_stimuli/001447_2014-06-19_17-00-32_260595134347_rgbf000082-resize_5/001447_2014-06-19_17-00-32_260595134347_rgbf000082-resize_5-target.png,1000,4.13775,7,4329,1001,feet,jsons/v1_VE1000_randls_36_rotated.json,701685,846746,45,Man
129,468789,DepthScenes,duration_manipulation_targetAtFixation,jsons/v1_VE1000_randls_36_rotated.json,http://54.235.29.9/FacialAge/BNav_EC2/DepthDuration/v2_depth_duration_MTurk/v2_DepthDuration_HTML.html#58,58,2400,1161,1920,1080,8-22-2022,7-59-18,130,depth_duration_stimuli/000447_2014-06-08_16-15-46_260595134347_rgbf000130-resize_1/000447_2014-06-08_16-15-46_260595134347_rgbf000130-resize_1-target.png,1000,4.479,12,3027,1005,feet,jsons/v1_VE1000_randls_36_rotated.json,701685,846746,45,Man
130,468789,DepthScenes,duration_manipulation_targetAtFixation,jsons/v1_VE1000_randls_36_rotated.json,http://54.235.29.9/FacialAge/BNav_EC2/DepthDuration/v2_depth_duration_MTurk/v2_DepthDuration_HTML.html#58,58,2400,1161,1920,1080,8-22-2022,7-59-18,131,depth_duration_stimuli/000556_2014-06-09_22-42-56_260595134347_rgbf000214-resize_1/000556_2014-06-09_22-42-56_260595134347_rgbf000214-resize_1-target.png,1000,4.8415,15,3758,993,feet,jsons/v1_VE1000_randls_36_rotated.json,701685,846746,45,Man
131,468789,DepthScenes,duration_manipulation_targetAtFixation,jsons/v1_VE1000_randls_36_rotated.json,http://54.235.29.9/FacialAge/BNav_EC2/DepthDuration/v2_depth_duration_MTurk/v2_DepthDuration_HTML.html#58,58,2400,1161,1920,1080,8-22-2022,7-59-18,132,depth_duration_stimuli/001158_2014-06-17_15-32-16_260595134347_rgbf000138-resize_2/001158_2014-06-17_15-32-16_260595134347_rgbf000138-resize_2-target.png,1000,4.5315,14,2979,1002,feet,jsons/v1_VE1000_randls_36_rotated.json,701685,846746,45,Man
132,468789,DepthScenes,duration_manipulation_targetAtFixation,jsons/v1_VE1000_randls_36_rotated.json,http://54.235.29.9/FacialAge/BNav_EC2/DepthDuration/v2_depth_duration_MTurk/v2_DepthDuration_HTML.html#58,58,2400,1161,1920,1080,8-22-2022,7-59-18,133,depth_duration_stimuli/000549_2014-06-08_22-10-24_260595134347_rgbf000247-resize_3/000549_2014-06-08_22-10-24_260595134347_rgbf000247-resize_3-target.png,1000,1.841,4,2802,1003,feet,jsons/v1_VE1000_randls_36_rotated.json,701685,846746,45,Man
133,468789,DepthScenes,duration_manipulation_targetAtFixation,jsons/v1_VE1000_randls_36_rotated.json,http://54.235.29.9/FacialAge/BNav_EC2/DepthDuration/v2_depth_duration_MTurk/v2_DepthDuration_HTML.html#58,58,2400,1161,1920,1080,8-22-2022,7-59-18,134,depth_duration_stimuli/001055_2014-06-08_18-45-35_260595134347_rgbf000111-resize_4/001055_2014-06-08_18-45-35_260595134347_rgbf000111-resize_4-target.png,1000,2.4290000000000003,11,3659,1012,feet,jsons/v1_VE1000_randls_36_rotated.json,701685,846746,45,Man
134,468789,DepthScenes,duration_manipulation_targetAtFixation,jsons/v1_VE1000_randls_36_rotated.json,http://54.235.29.9/FacialAge/BNav_EC2/DepthDuration/v2_depth_duration_MTurk/v2_DepthDuration_HTML.html#58,58,2400,1161,1920,1080,8-22-2022,7-59-18,135,depth_duration_stimuli/000375_2014-06-08_11-17-29_260595134347_rgbf000133-resize_2/000375_2014-06-08_11-17-29_260595134347_rgbf000133-resize-original.jpg,1000,4.718,0,3657,1000,feet,jsons/v1_VE1000_randls_36_rotated.json,701685,846746,45,Man
135,468789,DepthScenes,duration_manipulation_targetAtFixation,jsons/v1_VE1000_randls_36_rotated.json,http://54.235.29.9/FacialAge/BNav_EC2/DepthDuration/v2_depth_duration_MTurk/v2_DepthDuration_HTML.html#58,58,2400,1161,1920,1080,8-22-2022,7-59-18,136,depth_duration_stimuli/002568_2014-06-24_13-59-21_094959634447_rgbf000062-resize_4/002568_2014-06-24_13-59-21_094959634447_rgbf000062-resize_4-target.png,1000,3.015,11,3016,999,feet,jsons/v1_VE1000_randls_36_rotated.json,701685,846746,45,Man
136,468789,DepthScenes,duration_manipulation_targetAtFixation,jsons/v1_VE1000_randls_36_rotated.json,http://54.235.29.9/FacialAge/BNav_EC2/DepthDuration/v2_depth_duration_MTurk/v2_DepthDuration_HTML.html#58,58,2400,1161,1920,1080,8-22-2022,7-59-18,137,depth_duration_stimuli/003492_2014-05-21_15-50-55_094959634447_rgbf000828-resize_1/003492_2014-05-21_15-50-55_094959634447_rgbf000828-resize_1-target.png,1000,4.06875,13,3133,1009,feet,jsons/v1_VE1000_randls_36_rotated.json,701685,846746,45,Man
137,468789,DepthScenes,duration_manipulation_targetAtFixation,jsons/v1_VE1000_randls_36_rotated.json,http://54.235.29.9/FacialAge/BNav_EC2/DepthDuration/v2_depth_duration_MTurk/v2_DepthDuration_HTML.html#58,58,2400,1161,1920,1080,8-22-2022,7-59-18,138,depth_duration_stimuli/003048_2014-06-15_13-49-43_094959634447_rgbf000150-resize_1/003048_2014-06-15_13-49-43_094959634447_rgbf000150-resize_1-target.png,1000,4.0035,15,2997,1009,feet,jsons/v1_VE1000_randls_36_rotated.json,701685,846746,45,Man
138,468789,DepthScenes,duration_manipulation_targetAtFixation,jsons/v1_VE1000_randls_36_rotated.json,http://54.235.29.9/FacialAge/BNav_EC2/DepthDuration/v2_depth_duration_MTurk/v2_DepthDuration_HTML.html#58,58,2400,1161,1920,1080,8-22-2022,7-59-18,139,depth_duration_stimuli/002043_2014-06-24_20-29-38_260595134347_rgbf000039-resize_4/002043_2014-06-24_20-29-38_260595134347_rgbf000039-resize_4-target.png,1000,2.8435,13,3587,996,feet,jsons/v1_VE1000_randls_36_rotated.json,701685,846746,45,Man
139,468789,DepthScenes,duration_manipulation_targetAtFixation,jsons/v1_VE1000_randls_36_rotated.json,http://54.235.29.9/FacialAge/BNav_EC2/DepthDuration/v2_depth_duration_MTurk/v2_DepthDuration_HTML.html#58,58,2400,1161,1920,1080,8-22-2022,7-59-18,140,depth_duration_stimuli/000665_2014-06-09_20-42-35_260595134347_rgbf000110-resize_1/000665_2014-06-09_20-42-35_260595134347_rgbf000110-resize_1-target.png,1000,3.057,10,3497,991,feet,jsons/v1_VE1000_randls_36_rotated.json,701685,846746,45,Man
140,468789,DepthScenes,duration_manipulation_targetAtFixation,jsons/v1_VE1000_randls_36_rotated.json,http://54.235.29.9/FacialAge/BNav_EC2/DepthDuration/v2_depth_duration_MTurk/v2_DepthDuration_HTML.html#58,58,2400,1161,1920,1080,8-22-2022,7-59-18,141,depth_duration_stimuli/001150_2014-06-17_15-27-34_260595134347_rgbf000108-resize_2/001150_2014-06-17_15-27-34_260595134347_rgbf000108-resize_2-target.png,1000,4.0325,14,2972,1008,feet,jsons/v1_VE1000_randls_36_rotated.json,701685,846746,45,Man
141,468789,DepthScenes,duration_manipulation_targetAtFixation,jsons/v1_VE1000_randls_36_rotated.json,http://54.235.29.9/FacialAge/BNav_EC2/DepthDuration/v2_depth_duration_MTurk/v2_DepthDuration_HTML.html#58,58,2400,1161,1920,1080,8-22-2022,7-59-18,142,depth_duration_stimuli/003228_2014-05-14_13-42-35_094959634447_rgbf000101-resize_1/003228_2014-05-14_13-42-35_094959634447_rgbf000101-resize_1-target.png,1000,1.9680000000000002,5,2883,1000,feet,jsons/v1_VE1000_randls_36_rotated.json,701685,846746,45,Man
142,468789,DepthScenes,duration_manipulation_targetAtFixation,jsons/v1_VE1000_randls_36_rotated.json,http://54.235.29.9/FacialAge/BNav_EC2/DepthDuration/v2_depth_duration_MTurk/v2_DepthDuration_HTML.html#58,58,2400,1161,1920,1080,8-22-2022,7-59-18,143,depth_duration_stimuli/002600_2014-06-24_14-27-04_094959634447_rgbf000074-resize_2/002600_2014-06-24_14-27-04_094959634447_rgbf000074-resize_2-target.png,1000,2.7575,9,3015,990,feet,jsons/v1_VE1000_randls_36_rotated.json,701685,846746,45,Man
143,468789,DepthScenes,duration_manipulation_targetAtFixation,jsons/v1_VE1000_randls_36_rotated.json,http://54.235.29.9/FacialAge/BNav_EC2/DepthDuration/v2_depth_duration_MTurk/v2_DepthDuration_HTML.html#58,58,2400,1161,1920,1080,8-22-2022,7-59-18,144,depth_duration_stimuli/002323_2014-06-28_20-01-54_260595134347_rgbf000051-resize_4/002323_2014-06-28_20-01-54_260595134347_rgbf000051-resize_4-target.png,1000,3.7310000000000003,15,3137,997,feet,jsons/v1_VE1000_randls_36_rotated.json,701685,846746,45,Man
144,468789,DepthScenes,duration_manipulation_targetAtFixation,jsons/v1_VE1000_randls_36_rotated.json,http://54.235.29.9/FacialAge/BNav_EC2/DepthDuration/v2_depth_duration_MTurk/v2_DepthDuration_HTML.html#58,58,2400,1161,1920,1080,8-22-2022,7-59-18,145,depth_duration_stimuli/000917_2014-06-09_22-45-29_260595134347_rgbf000149-resize_3/000917_2014-06-09_22-45-29_260595134347_rgbf000149-resize_3-target.png,1000,4.1865,14,3109,990,feet,jsons/v1_VE1000_randls_36_rotated.json,701685,846746,45,Man
145,468789,DepthScenes,duration_manipulation_targetAtFixation,jsons/v1_VE1000_randls_36_rotated.json,http://54.235.29.9/FacialAge/BNav_EC2/DepthDuration/v2_depth_duration_MTurk/v2_DepthDuration_HTML.html#58,58,2400,1161,1920,1080,8-22-2022,7-59-18,146,depth_duration_stimuli/001235_2014-06-17_16-37-36_260595134347_rgbf000084-resize_4/001235_2014-06-17_16-37-36_260595134347_rgbf000084-resize_4-target.png,1000,3.6605,14,3205,1002,feet,jsons/v1_VE1000_randls_36_rotated.json,701685,846746,45,Man
146,468789,DepthScenes,duration_manipulation_targetAtFixation,jsons/v1_VE1000_randls_36_rotated.json,http://54.235.29.9/FacialAge/BNav_EC2/DepthDuration/v2_depth_duration_MTurk/v2_DepthDuration_HTML.html#58,58,2400,1161,1920,1080,8-22-2022,7-59-18,147,depth_duration_stimuli/000788_2014-06-08_22-34-36_260595134347_rgbf000131-resize_1/000788_2014-06-08_22-34-36_260595134347_rgbf000131-resize_1-target.png,1000,3.359,12,3085,991,feet,jsons/v1_VE1000_randls_36_rotated.json,701685,846746,45,Man
147,468789,DepthScenes,duration_manipulation_targetAtFixation,jsons/v1_VE1000_randls_36_rotated.json,http://54.235.29.9/FacialAge/BNav_EC2/DepthDuration/v2_depth_duration_MTurk/v2_DepthDuration_HTML.html#58,58,2400,1161,1920,1080,8-22-2022,7-59-18,148,depth_duration_stimuli/000457_2014-06-08_16-52-43_260595134347_rgbf000199-resize_1/000457_2014-06-08_16-52-43_260595134347_rgbf000199-resize_1-target.png,1000,3.6489999999999996,13,3511,1004,feet,jsons/v1_VE1000_randls_36_rotated.json,701685,846746,45,Man
148,468789,DepthScenes,duration_manipulation_targetAtFixation,jsons/v1_VE1000_randls_36_rotated.json,http://54.235.29.9/FacialAge/BNav_EC2/DepthDuration/v2_depth_duration_MTurk/v2_DepthDuration_HTML.html#58,58,2400,1161,1920,1080,8-22-2022,7-59-18,149,depth_duration_stimuli/000929_2014-06-09_16-33-19_260595134347_rgbf000139-resize_0/000929_2014-06-09_16-33-19_260595134347_rgbf000139-resize_0-target.png,1000,2.8680000000000003,11,3084,1002,feet,jsons/v1_VE1000_randls_36_rotated.json,701685,846746,45,Man
149,468789,DepthScenes,duration_manipulation_targetAtFixation,jsons/v1_VE1000_randls_36_rotated.json,http://54.235.29.9/FacialAge/BNav_EC2/DepthDuration/v2_depth_duration_MTurk/v2_DepthDuration_HTML.html#58,58,2400,1161,1920,1080,8-22-2022,7-59-18,150,depth_duration_stimuli/002414_2014-06-28_20-24-58_260595134347_rgbf000067-resize_4/002414_2014-06-28_20-24-58_260595134347_rgbf000067-resize_4-target.png,1000,4.363,16,3181,1012,feet,jsons/v1_VE1000_randls_36_rotated.json,701685,846746,45,Man
150,468789,DepthScenes,duration_manipulation_targetAtFixation,jsons/v1_VE1000_randls_36_rotated.json,http://54.235.29.9/FacialAge/BNav_EC2/DepthDuration/v2_depth_duration_MTurk/v2_DepthDuration_HTML.html#58,58,2400,1161,1920,1080,8-22-2022,7-59-18,151,depth_duration_stimuli/000773_2014-06-08_22-24-54_260595134347_rgbf000093-resize_1/000773_2014-06-08_22-24-54_260595134347_rgbf000093-resize_1-target.png,1000,4.973,16,3205,1004,feet,jsons/v1_VE1000_randls_36_rotated.json,701685,846746,45,Man
151,468789,DepthScenes,duration_manipulation_targetAtFixation,jsons/v1_VE1000_randls_36_rotated.json,http://54.235.29.9/FacialAge/BNav_EC2/DepthDuration/v2_depth_duration_MTurk/v2_DepthDuration_HTML.html#58,58,2400,1161,1920,1080,8-22-2022,7-59-18,152,depth_duration_stimuli/000569_2014-06-09_22-51-47_260595134347_rgbf000141-resize_3/000569_2014-06-09_22-51-47_260595134347_rgbf000141-resize-original.jpg,1000,4.512,0,3280,1010,feet,jsons/v1_VE1000_randls_36_rotated.json,701685,846746,45,Man
152,468789,DepthScenes,duration_manipulation_targetAtFixation,jsons/v1_VE1000_randls_36_rotated.json,http://54.235.29.9/FacialAge/BNav_EC2/DepthDuration/v2_depth_duration_MTurk/v2_DepthDuration_HTML.html#58,58,2400,1161,1920,1080,8-22-2022,7-59-18,153,depth_duration_stimuli/002949_2014-06-26_15-57-42_094959634447_rgbf000079-resize_1/002949_2014-06-26_15-57-42_094959634447_rgbf000079-resize_1-target.png,1000,1.8915,6,3034,1007,feet,jsons/v1_VE1000_randls_36_rotated.json,701685,846746,45,Man
153,468789,DepthScenes,duration_manipulation_targetAtFixation,jsons/v1_VE1000_randls_36_rotated.json,http://54.235.29.9/FacialAge/BNav_EC2/DepthDuration/v2_depth_duration_MTurk/v2_DepthDuration_HTML.html#58,58,2400,1161,1920,1080,8-22-2022,7-59-18,154,depth_duration_stimuli/000522_2014-06-08_13-35-06_260595134347_rgbf000244-resize_1/000522_2014-06-08_13-35-06_260595134347_rgbf000244-resize_1-target.png,1000,2.3715,4,3577,1010,feet,jsons/v1_VE1000_randls_36_rotated.json,701685,846746,45,Man
154,468789,DepthScenes,duration_manipulation_targetAtFixation,jsons/v1_VE1000_randls_36_rotated.json,http://54.235.29.9/FacialAge/BNav_EC2/DepthDuration/v2_depth_duration_MTurk/v2_DepthDuration_HTML.html#58,58,2400,1161,1920,1080,8-22-2022,7-59-18,155,depth_duration_stimuli/002660_2014-06-13_15-44-18_094959634447_rgbf001878-resize_2/002660_2014-06-13_15-44-18_094959634447_rgbf001878-resize_2-target.png,1000,3.576,11,4127,1001,feet,jsons/v1_VE1000_randls_36_rotated.json,701685,846746,45,Man
155,468789,DepthScenes,duration_manipulation_targetAtFixation,jsons/v1_VE1000_randls_36_rotated.json,http://54.235.29.9/FacialAge/BNav_EC2/DepthDuration/v2_depth_duration_MTurk/v2_DepthDuration_HTML.html#58,58,2400,1161,1920,1080,8-22-2022,7-59-18,156,depth_duration_stimuli/002153_2014-06-25_21-27-18_260595134347_rgbf000038-resize_5/002153_2014-06-25_21-27-18_260595134347_rgbf000038-resize_5-target.png,1000,2.505,8,2933,992,feet,jsons/v1_VE1000_randls_36_rotated.json,701685,846746,45,Man
156,468789,DepthScenes,duration_manipulation_targetAtFixation,jsons/v1_VE1000_randls_36_rotated.json,http://54.235.29.9/FacialAge/BNav_EC2/DepthDuration/v2_depth_duration_MTurk/v2_DepthDuration_HTML.html#58,58,2400,1161,1920,1080,8-22-2022,7-59-18,157,depth_duration_stimuli/002136_2014-06-25_21-18-03_260595134347_rgbf000109-resize_3/002136_2014-06-25_21-18-03_260595134347_rgbf000109-resize_3-target.png,1000,1.9569999999999999,6,3313,992,feet,jsons/v1_VE1000_randls_36_rotated.json,701685,846746,45,Man
157,468789,DepthScenes,duration_manipulation_targetAtFixation,jsons/v1_VE1000_randls_36_rotated.json,http://54.235.29.9/FacialAge/BNav_EC2/DepthDuration/v2_depth_duration_MTurk/v2_DepthDuration_HTML.html#58,58,2400,1161,1920,1080,8-22-2022,7-59-18,158,depth_duration_stimuli/002964_2014-06-08_17-46-11_094959634447_rgbf000091-resize_4/002964_2014-06-08_17-46-11_094959634447_rgbf000091-resize_4-target.png,1000,1.6909999999999998,6,2809,1005,feet,jsons/v1_VE1000_randls_36_rotated.json,701685,846746,45,Man
158,468789,DepthScenes,duration_manipulation_targetAtFixation,jsons/v1_VE1000_randls_36_rotated.json,http://54.235.29.9/FacialAge/BNav_EC2/DepthDuration/v2_depth_duration_MTurk/v2_DepthDuration_HTML.html#58,58,2400,1161,1920,1080,8-22-2022,7-59-18,159,depth_duration_stimuli/001392_2014-06-19_16-07-59_260595134347_rgbf000046-resize_1/001392_2014-06-19_16-07-59_260595134347_rgbf000046-resize_1-target.png,1000,4.135,12,3151,1002,feet,jsons/v1_VE1000_randls_36_rotated.json,701685,846746,45,Man
159,468789,DepthScenes,duration_manipulation_targetAtFixation,jsons/v1_VE1000_randls_36_rotated.json,http://54.235.29.9/FacialAge/BNav_EC2/DepthDuration/v2_depth_duration_MTurk/v2_DepthDuration_HTML.html#58,58,2400,1161,1920,1080,8-22-2022,7-59-18,160,depth_duration_stimuli/001570_2014-06-20_17-21-09_260595134347_rgbf000135-resize_4/001570_2014-06-20_17-21-09_260595134347_rgbf000135-resize_4-target.png,1000,4.467,13,3695,995,feet,jsons/v1_VE1000_randls_36_rotated.json,701685,846746,45,Man
160,468789,DepthScenes,duration_manipulation_targetAtFixation,jsons/v1_VE1000_randls_36_rotated.json,http://54.235.29.9/FacialAge/BNav_EC2/DepthDuration/v2_depth_duration_MTurk/v2_DepthDuration_HTML.html#58,58,2400,1161,1920,1080,8-22-2022,7-59-18,161,depth_duration_stimuli/000137_2014-05-20_17-04-49_260595134347_rgbf000120-resize_1/000137_2014-05-20_17-04-49_260595134347_rgbf000120-resize_1-target.png,1000,3.786,13,3331,998,feet,jsons/v1_VE1000_randls_36_rotated.json,701685,846746,45,Man
161,468789,DepthScenes,duration_manipulation_targetAtFixation,jsons/v1_VE1000_randls_36_rotated.json,http://54.235.29.9/FacialAge/BNav_EC2/DepthDuration/v2_depth_duration_MTurk/v2_DepthDuration_HTML.html#58,58,2400,1161,1920,1080,8-22-2022,7-59-18,162,depth_duration_stimuli/000736_2014-06-08_18-24-15_260595134347_rgbf000206-resize_3/000736_2014-06-08_18-24-15_260595134347_rgbf000206-resize_3-target.png,1000,3.515,12,3598,1000,feet,jsons/v1_VE1000_randls_36_rotated.json,701685,846746,45,Man
162,468789,DepthScenes,duration_manipulation_targetAtFixation,jsons/v1_VE1000_randls_36_rotated.json,http://54.235.29.9/FacialAge/BNav_EC2/DepthDuration/v2_depth_duration_MTurk/v2_DepthDuration_HTML.html#58,58,2400,1161,1920,1080,8-22-2022,7-59-18,163,depth_duration_stimuli/000749_2014-06-08_21-55-06_260595134347_rgbf000070-resize_2/000749_2014-06-08_21-55-06_260595134347_rgbf000070-resize_2-target.png,1000,2.331,11,3135,1004,feet,jsons/v1_VE1000_randls_36_rotated.json,701685,846746,45,Man
163,468789,DepthScenes,duration_manipulation_targetAtFixation,jsons/v1_VE1000_randls_36_rotated.json,http://54.235.29.9/FacialAge/BNav_EC2/DepthDuration/v2_depth_duration_MTurk/v2_DepthDuration_HTML.html#58,58,2400,1161,1920,1080,8-22-2022,7-59-18,164,depth_duration_stimuli/002788_2014-06-22_19-36-03_094959634447_rgbf000088-resize_2/002788_2014-06-22_19-36-03_094959634447_rgbf000088-resize_2-target.png,1000,1.6465,12,2998,996,feet,jsons/v1_VE1000_randls_36_rotated.json,701685,846746,45,Man
