,subjID,experimentName,versionName,sequenceName,url,selected_row,windowWidth,windowHeight,screenWidth,screenHeight,startDate,startTime,trial,stimulus,duration,actual_depth,depth_estimate,trial_RT,log_sceneDuration,unitSelection,seq_filepath,experimentTime,totalTime,age,gender
0,469479,DepthScenes,duration_manipulation_targetAtFixation,jsons/VE125_randls_49_rotated.json,http://54.235.29.9/FacialAge/BNav_EC2/DepthDuration/v2_depth_duration_MTurk/v2_DepthDuration_HTML.html#135,135,1024,625,1024,768,8-21-2022,8-0-50,1,depth_duration_stimuli/000665_2014-06-09_20-42-35_260595134347_rgbf000110-resize_1/000665_2014-06-09_20-42-35_260595134347_rgbf000110-resize_1-target.png,125,3.057,2,17861,126,meters,jsons/VE125_randls_49_rotated.json,700112,873412,30,Woman
1,469479,DepthScenes,duration_manipulation_targetAtFixation,jsons/VE125_randls_49_rotated.json,http://54.235.29.9/FacialAge/BNav_EC2/DepthDuration/v2_depth_duration_MTurk/v2_DepthDuration_HTML.html#135,135,1024,625,1024,768,8-21-2022,8-0-50,2,depth_duration_stimuli/001150_2014-06-17_15-27-34_260595134347_rgbf000108-resize_2/001150_2014-06-17_15-27-34_260595134347_rgbf000108-resize_2-target.png,125,4.0325,2,2684,126,meters,jsons/VE125_randls_49_rotated.json,700112,873412,30,Woman
2,469479,DepthScenes,duration_manipulation_targetAtFixation,jsons/VE125_randls_49_rotated.json,http://54.235.29.9/FacialAge/BNav_EC2/DepthDuration/v2_depth_duration_MTurk/v2_DepthDuration_HTML.html#135,135,1024,625,1024,768,8-21-2022,8-0-50,3,depth_duration_stimuli/002444_2014-06-28_20-32-08_260595134347_rgbf000027-resize_0/002444_2014-06-28_20-32-08_260595134347_rgbf000027-resize_0-target.png,125,4.388999999999999,3,3260,124,meters,jsons/VE125_randls_49_rotated.json,700112,873412,30,Woman
3,469479,DepthScenes,duration_manipulation_targetAtFixation,jsons/VE125_randls_49_rotated.json,http://54.235.29.9/FacialAge/BNav_EC2/DepthDuration/v2_depth_duration_MTurk/v2_DepthDuration_HTML.html#135,135,1024,625,1024,768,8-21-2022,8-0-50,4,depth_duration_stimuli/000436_2014-06-09_22-25-11_260595134347_rgbf000137-resize_1/000436_2014-06-09_22-25-11_260595134347_rgbf000137-resize_1-target.png,125,4.0705,1,10807,125,meters,jsons/VE125_randls_49_rotated.json,700112,873412,30,Woman
4,469479,DepthScenes,duration_manipulation_targetAtFixation,jsons/VE125_randls_49_rotated.json,http://54.235.29.9/FacialAge/BNav_EC2/DepthDuration/v2_depth_duration_MTurk/v2_DepthDuration_HTML.html#135,135,1024,625,1024,768,8-21-2022,8-0-50,5,depth_duration_stimuli/001032_2014-06-08_13-23-17_260595134347_rgbf000021-resize_3/001032_2014-06-08_13-23-17_260595134347_rgbf000021-resize_3-target.png,125,3.2725,3,3168,124,meters,jsons/VE125_randls_49_rotated.json,700112,873412,30,Woman
5,469479,DepthScenes,duration_manipulation_targetAtFixation,jsons/VE125_randls_49_rotated.json,http://54.235.29.9/FacialAge/BNav_EC2/DepthDuration/v2_depth_duration_MTurk/v2_DepthDuration_HTML.html#135,135,1024,625,1024,768,8-21-2022,8-0-50,6,depth_duration_stimuli/001059_2014-06-08_21-53-27_260595134347_rgbf000061-resize_4/001059_2014-06-08_21-53-27_260595134347_rgbf000061-resize_4-target.png,125,2.4185,2,2514,119,meters,jsons/VE125_randls_49_rotated.json,700112,873412,30,Woman
6,469479,DepthScenes,duration_manipulation_targetAtFixation,jsons/VE125_randls_49_rotated.json,http://54.235.29.9/FacialAge/BNav_EC2/DepthDuration/v2_depth_duration_MTurk/v2_DepthDuration_HTML.html#135,135,1024,625,1024,768,8-21-2022,8-0-50,7,depth_duration_stimuli/002323_2014-06-28_20-01-54_260595134347_rgbf000051-resize_4/002323_2014-06-28_20-01-54_260595134347_rgbf000051-resize_4-target.png,125,3.7310000000000003,5,2617,142,meters,jsons/VE125_randls_49_rotated.json,700112,873412,30,Woman
7,469479,DepthScenes,duration_manipulation_targetAtFixation,jsons/VE125_randls_49_rotated.json,http://54.235.29.9/FacialAge/BNav_EC2/DepthDuration/v2_depth_duration_MTurk/v2_DepthDuration_HTML.html#135,135,1024,625,1024,768,8-21-2022,8-0-50,8,depth_duration_stimuli/000917_2014-06-09_22-45-29_260595134347_rgbf000149-resize_3/000917_2014-06-09_22-45-29_260595134347_rgbf000149-resize_3-target.png,125,4.1865,3,2683,122,meters,jsons/VE125_randls_49_rotated.json,700112,873412,30,Woman
8,469479,DepthScenes,duration_manipulation_targetAtFixation,jsons/VE125_randls_49_rotated.json,http://54.235.29.9/FacialAge/BNav_EC2/DepthDuration/v2_depth_duration_MTurk/v2_DepthDuration_HTML.html#135,135,1024,625,1024,768,8-21-2022,8-0-50,9,depth_duration_stimuli/000691_2014-06-08_13-08-50_260595134347_rgbf000132-resize_3/000691_2014-06-08_13-08-50_260595134347_rgbf000132-resize_3-target.png,125,4.1530000000000005,2,2554,123,meters,jsons/VE125_randls_49_rotated.json,700112,873412,30,Woman
9,469479,DepthScenes,duration_manipulation_targetAtFixation,jsons/VE125_randls_49_rotated.json,http://54.235.29.9/FacialAge/BNav_EC2/DepthDuration/v2_depth_duration_MTurk/v2_DepthDuration_HTML.html#135,135,1024,625,1024,768,8-21-2022,8-0-50,10,depth_duration_stimuli/002213_2014-06-28_18-37-58_260595134347_rgbf000055-resize_1/002213_2014-06-28_18-37-58_260595134347_rgbf000055-resize_1-target.png,125,3.62,3,2517,124,meters,jsons/VE125_randls_49_rotated.json,700112,873412,30,Woman
10,469479,DepthScenes,duration_manipulation_targetAtFixation,jsons/VE125_randls_49_rotated.json,http://54.235.29.9/FacialAge/BNav_EC2/DepthDuration/v2_depth_duration_MTurk/v2_DepthDuration_HTML.html#135,135,1024,625,1024,768,8-21-2022,8-0-50,11,depth_duration_stimuli/000457_2014-06-08_16-52-43_260595134347_rgbf000199-resize_1/000457_2014-06-08_16-52-43_260595134347_rgbf000199-resize_1-target.png,125,3.6489999999999996,2,2620,119,meters,jsons/VE125_randls_49_rotated.json,700112,873412,30,Woman
11,469479,DepthScenes,duration_manipulation_targetAtFixation,jsons/VE125_randls_49_rotated.json,http://54.235.29.9/FacialAge/BNav_EC2/DepthDuration/v2_depth_duration_MTurk/v2_DepthDuration_HTML.html#135,135,1024,625,1024,768,8-21-2022,8-0-50,12,depth_duration_stimuli/000929_2014-06-09_16-33-19_260595134347_rgbf000139-resize_0/000929_2014-06-09_16-33-19_260595134347_rgbf000139-resize_0-target.png,125,2.8680000000000003,2,3865,120,meters,jsons/VE125_randls_49_rotated.json,700112,873412,30,Woman
12,469479,DepthScenes,duration_manipulation_targetAtFixation,jsons/VE125_randls_49_rotated.json,http://54.235.29.9/FacialAge/BNav_EC2/DepthDuration/v2_depth_duration_MTurk/v2_DepthDuration_HTML.html#135,135,1024,625,1024,768,8-21-2022,8-0-50,13,depth_duration_stimuli/001584_2014-06-20_11-07-43_260595134347_rgbf000002-resize_1/001584_2014-06-20_11-07-43_260595134347_rgbf000002-resize_1-target.png,125,3.53,4,3165,124,meters,jsons/VE125_randls_49_rotated.json,700112,873412,30,Woman
13,469479,DepthScenes,duration_manipulation_targetAtFixation,jsons/VE125_randls_49_rotated.json,http://54.235.29.9/FacialAge/BNav_EC2/DepthDuration/v2_depth_duration_MTurk/v2_DepthDuration_HTML.html#135,135,1024,625,1024,768,8-21-2022,8-0-50,14,depth_duration_stimuli/003621_2014-05-23_18-06-08_094959634447_rgbf000101-resize_1/003621_2014-05-23_18-06-08_094959634447_rgbf000101-resize_1-target.png,125,3.9835,4,4975,122,meters,jsons/VE125_randls_49_rotated.json,700112,873412,30,Woman
14,469479,DepthScenes,duration_manipulation_targetAtFixation,jsons/VE125_randls_49_rotated.json,http://54.235.29.9/FacialAge/BNav_EC2/DepthDuration/v2_depth_duration_MTurk/v2_DepthDuration_HTML.html#135,135,1024,625,1024,768,8-21-2022,8-0-50,15,depth_duration_stimuli/003228_2014-05-14_13-42-35_094959634447_rgbf000101-resize_1/003228_2014-05-14_13-42-35_094959634447_rgbf000101-resize_1-target.png,125,1.9680000000000002,5,3713,134,meters,jsons/VE125_randls_49_rotated.json,700112,873412,30,Woman
15,469479,DepthScenes,duration_manipulation_targetAtFixation,jsons/VE125_randls_49_rotated.json,http://54.235.29.9/FacialAge/BNav_EC2/DepthDuration/v2_depth_duration_MTurk/v2_DepthDuration_HTML.html#135,135,1024,625,1024,768,8-21-2022,8-0-50,16,depth_duration_stimuli/002600_2014-06-24_14-27-04_094959634447_rgbf000074-resize_2/002600_2014-06-24_14-27-04_094959634447_rgbf000074-resize_2-target.png,125,2.7575,5,2861,141,meters,jsons/VE125_randls_49_rotated.json,700112,873412,30,Woman
16,469479,DepthScenes,duration_manipulation_targetAtFixation,jsons/VE125_randls_49_rotated.json,http://54.235.29.9/FacialAge/BNav_EC2/DepthDuration/v2_depth_duration_MTurk/v2_DepthDuration_HTML.html#135,135,1024,625,1024,768,8-21-2022,8-0-50,17,depth_duration_stimuli/000191_2014-05-12_17-07-38_260595134347_rgbf000199-resize_0/000191_2014-05-12_17-07-38_260595134347_rgbf000199-resize_0-target.png,125,3.7995,3,2591,126,meters,jsons/VE125_randls_49_rotated.json,700112,873412,30,Woman
17,469479,DepthScenes,duration_manipulation_targetAtFixation,jsons/VE125_randls_49_rotated.json,http://54.235.29.9/FacialAge/BNav_EC2/DepthDuration/v2_depth_duration_MTurk/v2_DepthDuration_HTML.html#135,135,1024,625,1024,768,8-21-2022,8-0-50,18,depth_duration_stimuli/000493_2014-06-09_21-01-18_260595134347_rgbf000196-resize_3/000493_2014-06-09_21-01-18_260595134347_rgbf000196-resize_3-target.png,125,3.44,5,4673,119,meters,jsons/VE125_randls_49_rotated.json,700112,873412,30,Woman
18,469479,DepthScenes,duration_manipulation_targetAtFixation,jsons/VE125_randls_49_rotated.json,http://54.235.29.9/FacialAge/BNav_EC2/DepthDuration/v2_depth_duration_MTurk/v2_DepthDuration_HTML.html#135,135,1024,625,1024,768,8-21-2022,8-0-50,19,depth_duration_stimuli/001498_2014-06-19_17-45-14_260595134347_rgbf000129-resize_4/001498_2014-06-19_17-45-14_260595134347_rgbf000129-resize-original.jpg,125,1.4075,8,3041,127,meters,jsons/VE125_randls_49_rotated.json,700112,873412,30,Woman
19,469479,DepthScenes,duration_manipulation_targetAtFixation,jsons/VE125_randls_49_rotated.json,http://54.235.29.9/FacialAge/BNav_EC2/DepthDuration/v2_depth_duration_MTurk/v2_DepthDuration_HTML.html#135,135,1024,625,1024,768,8-21-2022,8-0-50,20,depth_duration_stimuli/000635_2014-06-08_16-38-42_260595134347_rgbf000106-resize_1/000635_2014-06-08_16-38-42_260595134347_rgbf000106-resize_1-target.png,125,2.074,6,4195,112,meters,jsons/VE125_randls_49_rotated.json,700112,873412,30,Woman
20,469479,DepthScenes,duration_manipulation_targetAtFixation,jsons/VE125_randls_49_rotated.json,http://54.235.29.9/FacialAge/BNav_EC2/DepthDuration/v2_depth_duration_MTurk/v2_DepthDuration_HTML.html#135,135,1024,625,1024,768,8-21-2022,8-0-50,21,depth_duration_stimuli/002279_2014-06-28_18-55-32_260595134347_rgbf000040-resize_5/002279_2014-06-28_18-55-32_260595134347_rgbf000040-resize_5-target.png,125,1.5043333333333,6,2556,124,meters,jsons/VE125_randls_49_rotated.json,700112,873412,30,Woman
21,469479,DepthScenes,duration_manipulation_targetAtFixation,jsons/VE125_randls_49_rotated.json,http://54.235.29.9/FacialAge/BNav_EC2/DepthDuration/v2_depth_duration_MTurk/v2_DepthDuration_HTML.html#135,135,1024,625,1024,768,8-21-2022,8-0-50,22,depth_duration_stimuli/002545_2014-06-24_13-38-53_094959634447_rgbf000080-resize_4/002545_2014-06-24_13-38-53_094959634447_rgbf000080-resize_4-target.png,125,1.9205,2,2521,121,meters,jsons/VE125_randls_49_rotated.json,700112,873412,30,Woman
22,469479,DepthScenes,duration_manipulation_targetAtFixation,jsons/VE125_randls_49_rotated.json,http://54.235.29.9/FacialAge/BNav_EC2/DepthDuration/v2_depth_duration_MTurk/v2_DepthDuration_HTML.html#135,135,1024,625,1024,768,8-21-2022,8-0-50,23,depth_duration_stimuli/001092_2014-06-15_17-34-58_260595134347_rgbf000171-resize_3/001092_2014-06-15_17-34-58_260595134347_rgbf000171-resize_3-target.png,125,2.6935,6,2323,125,meters,jsons/VE125_randls_49_rotated.json,700112,873412,30,Woman
23,469479,DepthScenes,duration_manipulation_targetAtFixation,jsons/VE125_randls_49_rotated.json,http://54.235.29.9/FacialAge/BNav_EC2/DepthDuration/v2_depth_duration_MTurk/v2_DepthDuration_HTML.html#135,135,1024,625,1024,768,8-21-2022,8-0-50,24,depth_duration_stimuli/002758_2014-06-22_19-11-20_094959634447_rgbf000128-resize_1/002758_2014-06-22_19-11-20_094959634447_rgbf000128-resize_1-target.png,125,2.555,5,3212,131,meters,jsons/VE125_randls_49_rotated.json,700112,873412,30,Woman
24,469479,DepthScenes,duration_manipulation_targetAtFixation,jsons/VE125_randls_49_rotated.json,http://54.235.29.9/FacialAge/BNav_EC2/DepthDuration/v2_depth_duration_MTurk/v2_DepthDuration_HTML.html#135,135,1024,625,1024,768,8-21-2022,8-0-50,25,depth_duration_stimuli/002630_2014-06-24_14-47-50_094959634447_rgbf000055-resize_1/002630_2014-06-24_14-47-50_094959634447_rgbf000055-resize_1-target.png,125,3.0095,5,3407,130,meters,jsons/VE125_randls_49_rotated.json,700112,873412,30,Woman
25,469479,DepthScenes,duration_manipulation_targetAtFixation,jsons/VE125_randls_49_rotated.json,http://54.235.29.9/FacialAge/BNav_EC2/DepthDuration/v2_depth_duration_MTurk/v2_DepthDuration_HTML.html#135,135,1024,625,1024,768,8-21-2022,8-0-50,26,depth_duration_stimuli/002875_2014-06-01_15-19-00_094959634447_rgbf000151-resize_1/002875_2014-06-01_15-19-00_094959634447_rgbf000151-resize_1-target.png,125,1.9675,2,2317,122,meters,jsons/VE125_randls_49_rotated.json,700112,873412,30,Woman
26,469479,DepthScenes,duration_manipulation_targetAtFixation,jsons/VE125_randls_49_rotated.json,http://54.235.29.9/FacialAge/BNav_EC2/DepthDuration/v2_depth_duration_MTurk/v2_DepthDuration_HTML.html#135,135,1024,625,1024,768,8-21-2022,8-0-50,27,depth_duration_stimuli/001011_2014-06-08_23-18-54_260595134347_rgbf000044-resize_4/001011_2014-06-08_23-18-54_260595134347_rgbf000044-resize_4-target.png,125,2.4730000000000003,2,13708,133,meters,jsons/VE125_randls_49_rotated.json,700112,873412,30,Woman
27,469479,DepthScenes,duration_manipulation_targetAtFixation,jsons/VE125_randls_49_rotated.json,http://54.235.29.9/FacialAge/BNav_EC2/DepthDuration/v2_depth_duration_MTurk/v2_DepthDuration_HTML.html#135,135,1024,625,1024,768,8-21-2022,8-0-50,28,depth_duration_stimuli/000709_2014-06-08_13-51-55_260595134347_rgbf000068-resize_3/000709_2014-06-08_13-51-55_260595134347_rgbf000068-resize_3-target.png,125,1.8030000000000002,2,3273,124,meters,jsons/VE125_randls_49_rotated.json,700112,873412,30,Woman
28,469479,DepthScenes,duration_manipulation_targetAtFixation,jsons/VE125_randls_49_rotated.json,http://54.235.29.9/FacialAge/BNav_EC2/DepthDuration/v2_depth_duration_MTurk/v2_DepthDuration_HTML.html#135,135,1024,625,1024,768,8-21-2022,8-0-50,29,depth_duration_stimuli/002057_2014-06-24_21-00-13_260595134347_rgbf000120-resize_1/002057_2014-06-24_21-00-13_260595134347_rgbf000120-resize_1-target.png,125,2.967,2,2339,109,meters,jsons/VE125_randls_49_rotated.json,700112,873412,30,Woman
29,469479,DepthScenes,duration_manipulation_targetAtFixation,jsons/VE125_randls_49_rotated.json,http://54.235.29.9/FacialAge/BNav_EC2/DepthDuration/v2_depth_duration_MTurk/v2_DepthDuration_HTML.html#135,135,1024,625,1024,768,8-21-2022,8-0-50,30,depth_duration_stimuli/002072_2014-06-24_21-48-06_260595134347_rgbf000115-resize_0/002072_2014-06-24_21-48-06_260595134347_rgbf000115-resize-original.jpg,125,4.702,5,2310,133,meters,jsons/VE125_randls_49_rotated.json,700112,873412,30,Woman
30,469479,DepthScenes,duration_manipulation_targetAtFixation,jsons/VE125_randls_49_rotated.json,http://54.235.29.9/FacialAge/BNav_EC2/DepthDuration/v2_depth_duration_MTurk/v2_DepthDuration_HTML.html#135,135,1024,625,1024,768,8-21-2022,8-0-50,31,depth_duration_stimuli/001516_2014-06-20_16-25-09_260595134347_rgbf000076-resize_2/001516_2014-06-20_16-25-09_260595134347_rgbf000076-resize_2-target.png,125,1.7445,3,2592,118,meters,jsons/VE125_randls_49_rotated.json,700112,873412,30,Woman
31,469479,DepthScenes,duration_manipulation_targetAtFixation,jsons/VE125_randls_49_rotated.json,http://54.235.29.9/FacialAge/BNav_EC2/DepthDuration/v2_depth_duration_MTurk/v2_DepthDuration_HTML.html#135,135,1024,625,1024,768,8-21-2022,8-0-50,32,depth_duration_stimuli/002118_2014-06-25_20-32-08_260595134347_rgbf000078-resize_1/002118_2014-06-25_20-32-08_260595134347_rgbf000078-resize_1-target.png,125,2.6460000000000004,5,4665,123,meters,jsons/VE125_randls_49_rotated.json,700112,873412,30,Woman
32,469479,DepthScenes,duration_manipulation_targetAtFixation,jsons/VE125_randls_49_rotated.json,http://54.235.29.9/FacialAge/BNav_EC2/DepthDuration/v2_depth_duration_MTurk/v2_DepthDuration_HTML.html#135,135,1024,625,1024,768,8-21-2022,8-0-50,33,depth_duration_stimuli/000854_2014-06-09_19-43-13_260595134347_rgbf000066-resize_0/000854_2014-06-09_19-43-13_260595134347_rgbf000066-resize_0-target.png,125,3.068,5,2845,119,meters,jsons/VE125_randls_49_rotated.json,700112,873412,30,Woman
33,469479,DepthScenes,duration_manipulation_targetAtFixation,jsons/VE125_randls_49_rotated.json,http://54.235.29.9/FacialAge/BNav_EC2/DepthDuration/v2_depth_duration_MTurk/v2_DepthDuration_HTML.html#135,135,1024,625,1024,768,8-21-2022,8-0-50,34,depth_duration_stimuli/000758_2014-06-08_22-05-08_260595134347_rgbf000085-resize_0/000758_2014-06-08_22-05-08_260595134347_rgbf000085-resize_0-target.png,125,3.3810000000000002,3,2482,127,meters,jsons/VE125_randls_49_rotated.json,700112,873412,30,Woman
34,469479,DepthScenes,duration_manipulation_targetAtFixation,jsons/VE125_randls_49_rotated.json,http://54.235.29.9/FacialAge/BNav_EC2/DepthDuration/v2_depth_duration_MTurk/v2_DepthDuration_HTML.html#135,135,1024,625,1024,768,8-21-2022,8-0-50,35,depth_duration_stimuli/000137_2014-05-20_17-04-49_260595134347_rgbf000120-resize_1/000137_2014-05-20_17-04-49_260595134347_rgbf000120-resize_1-target.png,125,3.786,5,73211,118,meters,jsons/VE125_randls_49_rotated.json,700112,873412,30,Woman
35,469479,DepthScenes,duration_manipulation_targetAtFixation,jsons/VE125_randls_49_rotated.json,http://54.235.29.9/FacialAge/BNav_EC2/DepthDuration/v2_depth_duration_MTurk/v2_DepthDuration_HTML.html#135,135,1024,625,1024,768,8-21-2022,8-0-50,36,depth_duration_stimuli/000736_2014-06-08_18-24-15_260595134347_rgbf000206-resize_3/000736_2014-06-08_18-24-15_260595134347_rgbf000206-resize_3-target.png,125,3.515,5,4484,143,meters,jsons/VE125_randls_49_rotated.json,700112,873412,30,Woman
36,469479,DepthScenes,duration_manipulation_targetAtFixation,jsons/VE125_randls_49_rotated.json,http://54.235.29.9/FacialAge/BNav_EC2/DepthDuration/v2_depth_duration_MTurk/v2_DepthDuration_HTML.html#135,135,1024,625,1024,768,8-21-2022,8-0-50,37,depth_duration_stimuli/002199_2014-06-28_18-33-56_260595134347_rgbf000074-resize_0/002199_2014-06-28_18-33-56_260595134347_rgbf000074-resize_0-target.png,125,1.996,5,35304,121,meters,jsons/VE125_randls_49_rotated.json,700112,873412,30,Woman
37,469479,DepthScenes,duration_manipulation_targetAtFixation,jsons/VE125_randls_49_rotated.json,http://54.235.29.9/FacialAge/BNav_EC2/DepthDuration/v2_depth_duration_MTurk/v2_DepthDuration_HTML.html#135,135,1024,625,1024,768,8-21-2022,8-0-50,38,depth_duration_stimuli/001056_2014-06-08_18-46-44_260595134347_rgbf000068-resize_0/001056_2014-06-08_18-46-44_260595134347_rgbf000068-resize_0-target.png,125,2.6625,5,2428,125,meters,jsons/VE125_randls_49_rotated.json,700112,873412,30,Woman
38,469479,DepthScenes,duration_manipulation_targetAtFixation,jsons/VE125_randls_49_rotated.json,http://54.235.29.9/FacialAge/BNav_EC2/DepthDuration/v2_depth_duration_MTurk/v2_DepthDuration_HTML.html#135,135,1024,625,1024,768,8-21-2022,8-0-50,39,depth_duration_stimuli/000409_2014-06-04_19-23-33_260595134347_rgbf000067-resize_0/000409_2014-06-04_19-23-33_260595134347_rgbf000067-resize_0-target.png,125,3.7335,5,3894,130,meters,jsons/VE125_randls_49_rotated.json,700112,873412,30,Woman
39,469479,DepthScenes,duration_manipulation_targetAtFixation,jsons/VE125_randls_49_rotated.json,http://54.235.29.9/FacialAge/BNav_EC2/DepthDuration/v2_depth_duration_MTurk/v2_DepthDuration_HTML.html#135,135,1024,625,1024,768,8-21-2022,8-0-50,40,depth_duration_stimuli/002663_2014-06-13_15-50-26_094959634447_rgbf000075-resize_1/002663_2014-06-13_15-50-26_094959634447_rgbf000075-resize_1-target.png,125,4.7495,5,13285,132,meters,jsons/VE125_randls_49_rotated.json,700112,873412,30,Woman
40,469479,DepthScenes,duration_manipulation_targetAtFixation,jsons/VE125_randls_49_rotated.json,http://54.235.29.9/FacialAge/BNav_EC2/DepthDuration/v2_depth_duration_MTurk/v2_DepthDuration_HTML.html#135,135,1024,625,1024,768,8-21-2022,8-0-50,41,depth_duration_stimuli/001052_2014-06-08_18-24-54_260595134347_rgbf000130-resize_1/001052_2014-06-08_18-24-54_260595134347_rgbf000130-resize_1-target.png,125,4.1045,5,2013,113,meters,jsons/VE125_randls_49_rotated.json,700112,873412,30,Woman
41,469479,DepthScenes,duration_manipulation_targetAtFixation,jsons/VE125_randls_49_rotated.json,http://54.235.29.9/FacialAge/BNav_EC2/DepthDuration/v2_depth_duration_MTurk/v2_DepthDuration_HTML.html#135,135,1024,625,1024,768,8-21-2022,8-0-50,42,depth_duration_stimuli/002988_2014-06-15_12-24-20_094959634447_rgbf000150-resize_1/002988_2014-06-15_12-24-20_094959634447_rgbf000150-resize_1-target.png,125,4.7669999999999995,5,2266,124,meters,jsons/VE125_randls_49_rotated.json,700112,873412,30,Woman
42,469479,DepthScenes,duration_manipulation_targetAtFixation,jsons/VE125_randls_49_rotated.json,http://54.235.29.9/FacialAge/BNav_EC2/DepthDuration/v2_depth_duration_MTurk/v2_DepthDuration_HTML.html#135,135,1024,625,1024,768,8-21-2022,8-0-50,43,depth_duration_stimuli/002750_2014-06-22_19-08-03_094959634447_rgbf000094-resize_4/002750_2014-06-22_19-08-03_094959634447_rgbf000094-resize_4-target.png,125,2.354,5,2151,127,meters,jsons/VE125_randls_49_rotated.json,700112,873412,30,Woman
43,469479,DepthScenes,duration_manipulation_targetAtFixation,jsons/VE125_randls_49_rotated.json,http://54.235.29.9/FacialAge/BNav_EC2/DepthDuration/v2_depth_duration_MTurk/v2_DepthDuration_HTML.html#135,135,1024,625,1024,768,8-21-2022,8-0-50,44,depth_duration_stimuli/002549_2014-06-24_13-41-39_094959634447_rgbf000022-resize_3/002549_2014-06-24_13-41-39_094959634447_rgbf000022-resize_3-target.png,125,1.476,6,2739,116,meters,jsons/VE125_randls_49_rotated.json,700112,873412,30,Woman
44,469479,DepthScenes,duration_manipulation_targetAtFixation,jsons/VE125_randls_49_rotated.json,http://54.235.29.9/FacialAge/BNav_EC2/DepthDuration/v2_depth_duration_MTurk/v2_DepthDuration_HTML.html#135,135,1024,625,1024,768,8-21-2022,8-0-50,45,depth_duration_stimuli/001392_2014-06-19_16-07-59_260595134347_rgbf000046-resize_1/001392_2014-06-19_16-07-59_260595134347_rgbf000046-resize_1-target.png,125,4.135,2,2120,157,meters,jsons/VE125_randls_49_rotated.json,700112,873412,30,Woman
45,469479,DepthScenes,duration_manipulation_targetAtFixation,jsons/VE125_randls_49_rotated.json,http://54.235.29.9/FacialAge/BNav_EC2/DepthDuration/v2_depth_duration_MTurk/v2_DepthDuration_HTML.html#135,135,1024,625,1024,768,8-21-2022,8-0-50,46,depth_duration_stimuli/001570_2014-06-20_17-21-09_260595134347_rgbf000135-resize_4/001570_2014-06-20_17-21-09_260595134347_rgbf000135-resize_4-target.png,125,4.467,3,2979,138,meters,jsons/VE125_randls_49_rotated.json,700112,873412,30,Woman
46,469479,DepthScenes,duration_manipulation_targetAtFixation,jsons/VE125_randls_49_rotated.json,http://54.235.29.9/FacialAge/BNav_EC2/DepthDuration/v2_depth_duration_MTurk/v2_DepthDuration_HTML.html#135,135,1024,625,1024,768,8-21-2022,8-0-50,47,depth_duration_stimuli/001571_2014-06-20_17-21-32_260595134347_rgbf000089-resize_1/001571_2014-06-20_17-21-32_260595134347_rgbf000089-resize_1-target.png,125,1.86,2,2183,116,meters,jsons/VE125_randls_49_rotated.json,700112,873412,30,Woman
47,469479,DepthScenes,duration_manipulation_targetAtFixation,jsons/VE125_randls_49_rotated.json,http://54.235.29.9/FacialAge/BNav_EC2/DepthDuration/v2_depth_duration_MTurk/v2_DepthDuration_HTML.html#135,135,1024,625,1024,768,8-21-2022,8-0-50,48,depth_duration_stimuli/002272_2014-06-28_18-53-56_260595134347_rgbf000067-resize_2/002272_2014-06-28_18-53-56_260595134347_rgbf000067-resize_2-target.png,125,1.138,2,2255,124,meters,jsons/VE125_randls_49_rotated.json,700112,873412,30,Woman
48,469479,DepthScenes,duration_manipulation_targetAtFixation,jsons/VE125_randls_49_rotated.json,http://54.235.29.9/FacialAge/BNav_EC2/DepthDuration/v2_depth_duration_MTurk/v2_DepthDuration_HTML.html#135,135,1024,625,1024,768,8-21-2022,8-0-50,49,depth_duration_stimuli/001170_2014-06-17_15-43-44_260595134347_rgbf000096-resize_6/001170_2014-06-17_15-43-44_260595134347_rgbf000096-resize-original.jpg,125,1.1909999999999998,1,1937,122,meters,jsons/VE125_randls_49_rotated.json,700112,873412,30,Woman
49,469479,DepthScenes,duration_manipulation_targetAtFixation,jsons/VE125_randls_49_rotated.json,http://54.235.29.9/FacialAge/BNav_EC2/DepthDuration/v2_depth_duration_MTurk/v2_DepthDuration_HTML.html#135,135,1024,625,1024,768,8-21-2022,8-0-50,50,depth_duration_stimuli/000742_2014-06-08_18-48-09_260595134347_rgbf000164-resize_4/000742_2014-06-08_18-48-09_260595134347_rgbf000164-resize_4-target.png,125,4.632,2,2041,128,meters,jsons/VE125_randls_49_rotated.json,700112,873412,30,Woman
50,469479,DepthScenes,duration_manipulation_targetAtFixation,jsons/VE125_randls_49_rotated.json,http://54.235.29.9/FacialAge/BNav_EC2/DepthDuration/v2_depth_duration_MTurk/v2_DepthDuration_HTML.html#135,135,1024,625,1024,768,8-21-2022,8-0-50,51,depth_duration_stimuli/001066_2014-06-08_22-03-20_260595134347_rgbf000066-resize_4/001066_2014-06-08_22-03-20_260595134347_rgbf000066-resize_4-target.png,125,4.2330000000000005,2,2306,124,meters,jsons/VE125_randls_49_rotated.json,700112,873412,30,Woman
51,469479,DepthScenes,duration_manipulation_targetAtFixation,jsons/VE125_randls_49_rotated.json,http://54.235.29.9/FacialAge/BNav_EC2/DepthDuration/v2_depth_duration_MTurk/v2_DepthDuration_HTML.html#135,135,1024,625,1024,768,8-21-2022,8-0-50,52,depth_duration_stimuli/000780_2014-06-08_22-28-29_260595134347_rgbf000126-resize_1/000780_2014-06-08_22-28-29_260595134347_rgbf000126-resize_1-target.png,125,3.3825,2,1617,130,meters,jsons/VE125_randls_49_rotated.json,700112,873412,30,Woman
52,469479,DepthScenes,duration_manipulation_targetAtFixation,jsons/VE125_randls_49_rotated.json,http://54.235.29.9/FacialAge/BNav_EC2/DepthDuration/v2_depth_duration_MTurk/v2_DepthDuration_HTML.html#135,135,1024,625,1024,768,8-21-2022,8-0-50,53,depth_duration_stimuli/002445_2014-06-28_20-32-16_260595134347_rgbf000029-resize_4/002445_2014-06-28_20-32-16_260595134347_rgbf000029-resize_4-target.png,125,2.5315,2,1475,123,meters,jsons/VE125_randls_49_rotated.json,700112,873412,30,Woman
53,469479,DepthScenes,duration_manipulation_targetAtFixation,jsons/VE125_randls_49_rotated.json,http://54.235.29.9/FacialAge/BNav_EC2/DepthDuration/v2_depth_duration_MTurk/v2_DepthDuration_HTML.html#135,135,1024,625,1024,768,8-21-2022,8-0-50,54,depth_duration_stimuli/002995_2014-06-15_12-31-26_094959634447_rgbf000150-resize_1/002995_2014-06-15_12-31-26_094959634447_rgbf000150-resize_1-target.png,125,3.8360000000000003,2,3949,127,meters,jsons/VE125_randls_49_rotated.json,700112,873412,30,Woman
54,469479,DepthScenes,duration_manipulation_targetAtFixation,jsons/VE125_randls_49_rotated.json,http://54.235.29.9/FacialAge/BNav_EC2/DepthDuration/v2_depth_duration_MTurk/v2_DepthDuration_HTML.html#135,135,1024,625,1024,768,8-21-2022,8-0-50,55,depth_duration_stimuli/002748_2014-06-22_19-07-22_094959634447_rgbf000078-resize_1/002748_2014-06-22_19-07-22_094959634447_rgbf000078-resize_1-target.png,125,4.6705,2,1723,128,meters,jsons/VE125_randls_49_rotated.json,700112,873412,30,Woman
55,469479,DepthScenes,duration_manipulation_targetAtFixation,jsons/VE125_randls_49_rotated.json,http://54.235.29.9/FacialAge/BNav_EC2/DepthDuration/v2_depth_duration_MTurk/v2_DepthDuration_HTML.html#135,135,1024,625,1024,768,8-21-2022,8-0-50,56,depth_duration_stimuli/002949_2014-06-26_15-57-42_094959634447_rgbf000079-resize_1/002949_2014-06-26_15-57-42_094959634447_rgbf000079-resize_1-target.png,125,1.8915,4,1955,111,meters,jsons/VE125_randls_49_rotated.json,700112,873412,30,Woman
56,469479,DepthScenes,duration_manipulation_targetAtFixation,jsons/VE125_randls_49_rotated.json,http://54.235.29.9/FacialAge/BNav_EC2/DepthDuration/v2_depth_duration_MTurk/v2_DepthDuration_HTML.html#135,135,1024,625,1024,768,8-21-2022,8-0-50,57,depth_duration_stimuli/000522_2014-06-08_13-35-06_260595134347_rgbf000244-resize_1/000522_2014-06-08_13-35-06_260595134347_rgbf000244-resize_1-target.png,125,2.3715,2,2038,121,meters,jsons/VE125_randls_49_rotated.json,700112,873412,30,Woman
57,469479,DepthScenes,duration_manipulation_targetAtFixation,jsons/VE125_randls_49_rotated.json,http://54.235.29.9/FacialAge/BNav_EC2/DepthDuration/v2_depth_duration_MTurk/v2_DepthDuration_HTML.html#135,135,1024,625,1024,768,8-21-2022,8-0-50,58,depth_duration_stimuli/002660_2014-06-13_15-44-18_094959634447_rgbf001878-resize_2/002660_2014-06-13_15-44-18_094959634447_rgbf001878-resize_2-target.png,125,3.576,2,2042,131,meters,jsons/VE125_randls_49_rotated.json,700112,873412,30,Woman
58,469479,DepthScenes,duration_manipulation_targetAtFixation,jsons/VE125_randls_49_rotated.json,http://54.235.29.9/FacialAge/BNav_EC2/DepthDuration/v2_depth_duration_MTurk/v2_DepthDuration_HTML.html#135,135,1024,625,1024,768,8-21-2022,8-0-50,59,depth_duration_stimuli/002153_2014-06-25_21-27-18_260595134347_rgbf000038-resize_5/002153_2014-06-25_21-27-18_260595134347_rgbf000038-resize_5-target.png,125,2.505,2,1657,131,meters,jsons/VE125_randls_49_rotated.json,700112,873412,30,Woman
59,469479,DepthScenes,duration_manipulation_targetAtFixation,jsons/VE125_randls_49_rotated.json,http://54.235.29.9/FacialAge/BNav_EC2/DepthDuration/v2_depth_duration_MTurk/v2_DepthDuration_HTML.html#135,135,1024,625,1024,768,8-21-2022,8-0-50,60,depth_duration_stimuli/001450_2014-06-19_17-02-03_260595134347_rgbf000203-resize_4/001450_2014-06-19_17-02-03_260595134347_rgbf000203-resize_4-target.png,125,4.0106666666667,2,1929,125,meters,jsons/VE125_randls_49_rotated.json,700112,873412,30,Woman
60,469479,DepthScenes,duration_manipulation_targetAtFixation,jsons/VE125_randls_49_rotated.json,http://54.235.29.9/FacialAge/BNav_EC2/DepthDuration/v2_depth_duration_MTurk/v2_DepthDuration_HTML.html#135,135,1024,625,1024,768,8-21-2022,8-0-50,61,depth_duration_stimuli/001449_2014-06-19_17-01-27_260595134347_rgbf000116-resize_2/001449_2014-06-19_17-01-27_260595134347_rgbf000116-resize_2-target.png,125,3.452,3,1727,126,meters,jsons/VE125_randls_49_rotated.json,700112,873412,30,Woman
61,469479,DepthScenes,duration_manipulation_targetAtFixation,jsons/VE125_randls_49_rotated.json,http://54.235.29.9/FacialAge/BNav_EC2/DepthDuration/v2_depth_duration_MTurk/v2_DepthDuration_HTML.html#135,135,1024,625,1024,768,8-21-2022,8-0-50,62,depth_duration_stimuli/003495_2014-05-21_16-01-51_094959634447_rgbf000100-resize_3/003495_2014-05-21_16-01-51_094959634447_rgbf000100-resize_3-target.png,125,1.6255,2,2137,116,meters,jsons/VE125_randls_49_rotated.json,700112,873412,30,Woman
62,469479,DepthScenes,duration_manipulation_targetAtFixation,jsons/VE125_randls_49_rotated.json,http://54.235.29.9/FacialAge/BNav_EC2/DepthDuration/v2_depth_duration_MTurk/v2_DepthDuration_HTML.html#135,135,1024,625,1024,768,8-21-2022,8-0-50,63,depth_duration_stimuli/001244_2014-06-17_16-47-45_260595134347_rgbf000030-resize_4/001244_2014-06-17_16-47-45_260595134347_rgbf000030-resize_4-target.png,125,2.0425,2,1936,147,meters,jsons/VE125_randls_49_rotated.json,700112,873412,30,Woman
63,469479,DepthScenes,duration_manipulation_targetAtFixation,jsons/VE125_randls_49_rotated.json,http://54.235.29.9/FacialAge/BNav_EC2/DepthDuration/v2_depth_duration_MTurk/v2_DepthDuration_HTML.html#135,135,1024,625,1024,768,8-21-2022,8-0-50,64,depth_duration_stimuli/002639_2014-06-24_14-51-37_094959634447_rgbf000074-resize_4/002639_2014-06-24_14-51-37_094959634447_rgbf000074-resize_4-target.png,125,4.0375,2,2348,121,meters,jsons/VE125_randls_49_rotated.json,700112,873412,30,Woman
64,469479,DepthScenes,duration_manipulation_targetAtFixation,jsons/VE125_randls_49_rotated.json,http://54.235.29.9/FacialAge/BNav_EC2/DepthDuration/v2_depth_duration_MTurk/v2_DepthDuration_HTML.html#135,135,1024,625,1024,768,8-21-2022,8-0-50,65,depth_duration_stimuli/003292_2014-05-14_21-53-49_094959634447_rgbf000100-resize_2/003292_2014-05-14_21-53-49_094959634447_rgbf000100-resize_2-target.png,125,3.4815,1,1747,147,meters,jsons/VE125_randls_49_rotated.json,700112,873412,30,Woman
65,469479,DepthScenes,duration_manipulation_targetAtFixation,jsons/VE125_randls_49_rotated.json,http://54.235.29.9/FacialAge/BNav_EC2/DepthDuration/v2_depth_duration_MTurk/v2_DepthDuration_HTML.html#135,135,1024,625,1024,768,8-21-2022,8-0-50,66,depth_duration_stimuli/001540_2014-06-20_17-01-05_260595134347_rgbf000086-resize_2/001540_2014-06-20_17-01-05_260595134347_rgbf000086-resize-original.jpg,125,1.459,2,1808,140,meters,jsons/VE125_randls_49_rotated.json,700112,873412,30,Woman
66,469479,DepthScenes,duration_manipulation_targetAtFixation,jsons/VE125_randls_49_rotated.json,http://54.235.29.9/FacialAge/BNav_EC2/DepthDuration/v2_depth_duration_MTurk/v2_DepthDuration_HTML.html#135,135,1024,625,1024,768,8-21-2022,8-0-50,67,depth_duration_stimuli/002568_2014-06-24_13-59-21_094959634447_rgbf000062-resize_4/002568_2014-06-24_13-59-21_094959634447_rgbf000062-resize_4-target.png,125,3.015,2,2831,124,meters,jsons/VE125_randls_49_rotated.json,700112,873412,30,Woman
67,469479,DepthScenes,duration_manipulation_targetAtFixation,jsons/VE125_randls_49_rotated.json,http://54.235.29.9/FacialAge/BNav_EC2/DepthDuration/v2_depth_duration_MTurk/v2_DepthDuration_HTML.html#135,135,1024,625,1024,768,8-21-2022,8-0-50,68,depth_duration_stimuli/003492_2014-05-21_15-50-55_094959634447_rgbf000828-resize_1/003492_2014-05-21_15-50-55_094959634447_rgbf000828-resize_1-target.png,125,4.06875,2,1690,154,meters,jsons/VE125_randls_49_rotated.json,700112,873412,30,Woman
68,469479,DepthScenes,duration_manipulation_targetAtFixation,jsons/VE125_randls_49_rotated.json,http://54.235.29.9/FacialAge/BNav_EC2/DepthDuration/v2_depth_duration_MTurk/v2_DepthDuration_HTML.html#135,135,1024,625,1024,768,8-21-2022,8-0-50,69,depth_duration_stimuli/002414_2014-06-28_20-24-58_260595134347_rgbf000067-resize_4/002414_2014-06-28_20-24-58_260595134347_rgbf000067-resize_4-target.png,125,4.363,2,3903,119,meters,jsons/VE125_randls_49_rotated.json,700112,873412,30,Woman
69,469479,DepthScenes,duration_manipulation_targetAtFixation,jsons/VE125_randls_49_rotated.json,http://54.235.29.9/FacialAge/BNav_EC2/DepthDuration/v2_depth_duration_MTurk/v2_DepthDuration_HTML.html#135,135,1024,625,1024,768,8-21-2022,8-0-50,70,depth_duration_stimuli/000773_2014-06-08_22-24-54_260595134347_rgbf000093-resize_1/000773_2014-06-08_22-24-54_260595134347_rgbf000093-resize_1-target.png,125,4.973,5,4881,124,meters,jsons/VE125_randls_49_rotated.json,700112,873412,30,Woman
70,469479,DepthScenes,duration_manipulation_targetAtFixation,jsons/VE125_randls_49_rotated.json,http://54.235.29.9/FacialAge/BNav_EC2/DepthDuration/v2_depth_duration_MTurk/v2_DepthDuration_HTML.html#135,135,1024,625,1024,768,8-21-2022,8-0-50,71,depth_duration_stimuli/001235_2014-06-17_16-37-36_260595134347_rgbf000084-resize_4/001235_2014-06-17_16-37-36_260595134347_rgbf000084-resize_4-target.png,125,3.6605,5,1596,125,meters,jsons/VE125_randls_49_rotated.json,700112,873412,30,Woman
71,469479,DepthScenes,duration_manipulation_targetAtFixation,jsons/VE125_randls_49_rotated.json,http://54.235.29.9/FacialAge/BNav_EC2/DepthDuration/v2_depth_duration_MTurk/v2_DepthDuration_HTML.html#135,135,1024,625,1024,768,8-21-2022,8-0-50,72,depth_duration_stimuli/000788_2014-06-08_22-34-36_260595134347_rgbf000131-resize_1/000788_2014-06-08_22-34-36_260595134347_rgbf000131-resize_1-target.png,125,3.359,5,1619,121,meters,jsons/VE125_randls_49_rotated.json,700112,873412,30,Woman
72,469479,DepthScenes,duration_manipulation_targetAtFixation,jsons/VE125_randls_49_rotated.json,http://54.235.29.9/FacialAge/BNav_EC2/DepthDuration/v2_depth_duration_MTurk/v2_DepthDuration_HTML.html#135,135,1024,625,1024,768,8-21-2022,8-0-50,73,depth_duration_stimuli/000103_2014-05-14_22-01-17_260595134347_rgbf000152-resize_5/000103_2014-05-14_22-01-17_260595134347_rgbf000152-resize_5-target.png,125,1.993,4,1822,114,meters,jsons/VE125_randls_49_rotated.json,700112,873412,30,Woman
73,469479,DepthScenes,duration_manipulation_targetAtFixation,jsons/VE125_randls_49_rotated.json,http://54.235.29.9/FacialAge/BNav_EC2/DepthDuration/v2_depth_duration_MTurk/v2_DepthDuration_HTML.html#135,135,1024,625,1024,768,8-21-2022,8-0-50,74,depth_duration_stimuli/001555_2014-06-20_17-12-10_260595134347_rgbf000065-resize_4/001555_2014-06-20_17-12-10_260595134347_rgbf000065-resize_4-target.png,125,1.633,4,1570,147,meters,jsons/VE125_randls_49_rotated.json,700112,873412,30,Woman
74,469479,DepthScenes,duration_manipulation_targetAtFixation,jsons/VE125_randls_49_rotated.json,http://54.235.29.9/FacialAge/BNav_EC2/DepthDuration/v2_depth_duration_MTurk/v2_DepthDuration_HTML.html#135,135,1024,625,1024,768,8-21-2022,8-0-50,75,depth_duration_stimuli/000549_2014-06-08_22-10-24_260595134347_rgbf000247-resize_3/000549_2014-06-08_22-10-24_260595134347_rgbf000247-resize_3-target.png,125,1.841,4,2098,126,meters,jsons/VE125_randls_49_rotated.json,700112,873412,30,Woman
75,469479,DepthScenes,duration_manipulation_targetAtFixation,jsons/VE125_randls_49_rotated.json,http://54.235.29.9/FacialAge/BNav_EC2/DepthDuration/v2_depth_duration_MTurk/v2_DepthDuration_HTML.html#135,135,1024,625,1024,768,8-21-2022,8-0-50,76,depth_duration_stimuli/001055_2014-06-08_18-45-35_260595134347_rgbf000111-resize_4/001055_2014-06-08_18-45-35_260595134347_rgbf000111-resize_4-target.png,125,2.4290000000000003,2,2043,122,meters,jsons/VE125_randls_49_rotated.json,700112,873412,30,Woman
76,469479,DepthScenes,duration_manipulation_targetAtFixation,jsons/VE125_randls_49_rotated.json,http://54.235.29.9/FacialAge/BNav_EC2/DepthDuration/v2_depth_duration_MTurk/v2_DepthDuration_HTML.html#135,135,1024,625,1024,768,8-21-2022,8-0-50,77,depth_duration_stimuli/002637_2014-06-24_14-51-13_094959634447_rgbf000066-resize_4/002637_2014-06-24_14-51-13_094959634447_rgbf000066-resize_4-target.png,125,1.9955,2,2256,126,meters,jsons/VE125_randls_49_rotated.json,700112,873412,30,Woman
77,469479,DepthScenes,duration_manipulation_targetAtFixation,jsons/VE125_randls_49_rotated.json,http://54.235.29.9/FacialAge/BNav_EC2/DepthDuration/v2_depth_duration_MTurk/v2_DepthDuration_HTML.html#135,135,1024,625,1024,768,8-21-2022,8-0-50,78,depth_duration_stimuli/003534_2014-05-22_15-06-10_094959634447_rgbf000102-resize_4/003534_2014-05-22_15-06-10_094959634447_rgbf000102-resize_4-target.png,125,1.426,2,2106,127,meters,jsons/VE125_randls_49_rotated.json,700112,873412,30,Woman
78,469479,DepthScenes,duration_manipulation_targetAtFixation,jsons/VE125_randls_49_rotated.json,http://54.235.29.9/FacialAge/BNav_EC2/DepthDuration/v2_depth_duration_MTurk/v2_DepthDuration_HTML.html#135,135,1024,625,1024,768,8-21-2022,8-0-50,79,depth_duration_stimuli/000734_2014-06-08_17-39-11_260595134347_rgbf000128-resize_2/000734_2014-06-08_17-39-11_260595134347_rgbf000128-resize_2-target.png,125,4.098,3,2237,128,meters,jsons/VE125_randls_49_rotated.json,700112,873412,30,Woman
79,469479,DepthScenes,duration_manipulation_targetAtFixation,jsons/VE125_randls_49_rotated.json,http://54.235.29.9/FacialAge/BNav_EC2/DepthDuration/v2_depth_duration_MTurk/v2_DepthDuration_HTML.html#135,135,1024,625,1024,768,8-21-2022,8-0-50,80,depth_duration_stimuli/000739_2014-06-08_18-45-58_260595134347_rgbf000068-resize_1/000739_2014-06-08_18-45-58_260595134347_rgbf000068-resize_1-target.png,125,3.534,2,2030,125,meters,jsons/VE125_randls_49_rotated.json,700112,873412,30,Woman
80,469479,DepthScenes,duration_manipulation_targetAtFixation,jsons/VE125_randls_49_rotated.json,http://54.235.29.9/FacialAge/BNav_EC2/DepthDuration/v2_depth_duration_MTurk/v2_DepthDuration_HTML.html#135,135,1024,625,1024,768,8-21-2022,8-0-50,81,depth_duration_stimuli/000943_2014-06-09_19-31-07_260595134347_rgbf000128-resize_1/000943_2014-06-09_19-31-07_260595134347_rgbf000128-resize_1-target.png,125,1.9765,2,4656,124,meters,jsons/VE125_randls_49_rotated.json,700112,873412,30,Woman
81,469479,DepthScenes,duration_manipulation_targetAtFixation,jsons/VE125_randls_49_rotated.json,http://54.235.29.9/FacialAge/BNav_EC2/DepthDuration/v2_depth_duration_MTurk/v2_DepthDuration_HTML.html#135,135,1024,625,1024,768,8-21-2022,8-0-50,82,depth_duration_stimuli/003070_2014-06-15_14-58-27_094959634447_rgbf000150-resize_3/003070_2014-06-15_14-58-27_094959634447_rgbf000150-resize_3-target.png,125,2.9415,2,2403,132,meters,jsons/VE125_randls_49_rotated.json,700112,873412,30,Woman
82,469479,DepthScenes,duration_manipulation_targetAtFixation,jsons/VE125_randls_49_rotated.json,http://54.235.29.9/FacialAge/BNav_EC2/DepthDuration/v2_depth_duration_MTurk/v2_DepthDuration_HTML.html#135,135,1024,625,1024,768,8-21-2022,8-0-50,83,depth_duration_stimuli/002805_2014-06-22_19-54-03_094959634447_rgbf000079-resize_1/002805_2014-06-22_19-54-03_094959634447_rgbf000079-resize_1-target.png,125,3.1439999999999997,3,1868,123,meters,jsons/VE125_randls_49_rotated.json,700112,873412,30,Woman
83,469479,DepthScenes,duration_manipulation_targetAtFixation,jsons/VE125_randls_49_rotated.json,http://54.235.29.9/FacialAge/BNav_EC2/DepthDuration/v2_depth_duration_MTurk/v2_DepthDuration_HTML.html#135,135,1024,625,1024,768,8-21-2022,8-0-50,84,depth_duration_stimuli/000906_2014-06-08_13-35-43_260595134347_rgbf000155-resize_1/000906_2014-06-08_13-35-43_260595134347_rgbf000155-resize_1-target.png,125,2.8489999999999998,2,2457,122,meters,jsons/VE125_randls_49_rotated.json,700112,873412,30,Woman
84,469479,DepthScenes,duration_manipulation_targetAtFixation,jsons/VE125_randls_49_rotated.json,http://54.235.29.9/FacialAge/BNav_EC2/DepthDuration/v2_depth_duration_MTurk/v2_DepthDuration_HTML.html#135,135,1024,625,1024,768,8-21-2022,8-0-50,85,depth_duration_stimuli/002136_2014-06-25_21-18-03_260595134347_rgbf000109-resize_3/002136_2014-06-25_21-18-03_260595134347_rgbf000109-resize_3-target.png,125,1.9569999999999999,1,2497,124,meters,jsons/VE125_randls_49_rotated.json,700112,873412,30,Woman
85,469479,DepthScenes,duration_manipulation_targetAtFixation,jsons/VE125_randls_49_rotated.json,http://54.235.29.9/FacialAge/BNav_EC2/DepthDuration/v2_depth_duration_MTurk/v2_DepthDuration_HTML.html#135,135,1024,625,1024,768,8-21-2022,8-0-50,86,depth_duration_stimuli/002964_2014-06-08_17-46-11_094959634447_rgbf000091-resize_4/002964_2014-06-08_17-46-11_094959634447_rgbf000091-resize_4-target.png,125,1.6909999999999998,2,2513,121,meters,jsons/VE125_randls_49_rotated.json,700112,873412,30,Woman
86,469479,DepthScenes,duration_manipulation_targetAtFixation,jsons/VE125_randls_49_rotated.json,http://54.235.29.9/FacialAge/BNav_EC2/DepthDuration/v2_depth_duration_MTurk/v2_DepthDuration_HTML.html#135,135,1024,625,1024,768,8-21-2022,8-0-50,87,depth_duration_stimuli/002467_2014-06-28_20-38-07_260595134347_rgbf000026-resize_2/002467_2014-06-28_20-38-07_260595134347_rgbf000026-resize_2-target.png,125,4.742,3,2381,124,meters,jsons/VE125_randls_49_rotated.json,700112,873412,30,Woman
87,469479,DepthScenes,duration_manipulation_targetAtFixation,jsons/VE125_randls_49_rotated.json,http://54.235.29.9/FacialAge/BNav_EC2/DepthDuration/v2_depth_duration_MTurk/v2_DepthDuration_HTML.html#135,135,1024,625,1024,768,8-21-2022,8-0-50,88,depth_duration_stimuli/002570_2014-06-24_13-59-54_094959634447_rgbf000059-resize_0/002570_2014-06-24_13-59-54_094959634447_rgbf000059-resize_0-target.png,125,4.037,2,1602,121,meters,jsons/VE125_randls_49_rotated.json,700112,873412,30,Woman
88,469479,DepthScenes,duration_manipulation_targetAtFixation,jsons/VE125_randls_49_rotated.json,http://54.235.29.9/FacialAge/BNav_EC2/DepthDuration/v2_depth_duration_MTurk/v2_DepthDuration_HTML.html#135,135,1024,625,1024,768,8-21-2022,8-0-50,89,depth_duration_stimuli/001136_2014-06-17_15-19-41_260595134347_rgbf000076-resize_3/001136_2014-06-17_15-19-41_260595134347_rgbf000076-resize_3-target.png,125,1.8655,2,1608,124,meters,jsons/VE125_randls_49_rotated.json,700112,873412,30,Woman
89,469479,DepthScenes,duration_manipulation_targetAtFixation,jsons/VE125_randls_49_rotated.json,http://54.235.29.9/FacialAge/BNav_EC2/DepthDuration/v2_depth_duration_MTurk/v2_DepthDuration_HTML.html#135,135,1024,625,1024,768,8-21-2022,8-0-50,90,depth_duration_stimuli/001164_2014-06-17_15-35-46_260595134347_rgbf000085-resize_3/001164_2014-06-17_15-35-46_260595134347_rgbf000085-resize_3-target.png,125,2.354,2,2200,138,meters,jsons/VE125_randls_49_rotated.json,700112,873412,30,Woman
90,469479,DepthScenes,duration_manipulation_targetAtFixation,jsons/VE125_randls_49_rotated.json,http://54.235.29.9/FacialAge/BNav_EC2/DepthDuration/v2_depth_duration_MTurk/v2_DepthDuration_HTML.html#135,135,1024,625,1024,768,8-21-2022,8-0-50,91,depth_duration_stimuli/003129_2014-05-12_10-48-10_094959634447_rgbf000100-resize_0/003129_2014-05-12_10-48-10_094959634447_rgbf000100-resize_0-target.png,125,4.9305,1,3233,125,meters,jsons/VE125_randls_49_rotated.json,700112,873412,30,Woman
91,469479,DepthScenes,duration_manipulation_targetAtFixation,jsons/VE125_randls_49_rotated.json,http://54.235.29.9/FacialAge/BNav_EC2/DepthDuration/v2_depth_duration_MTurk/v2_DepthDuration_HTML.html#135,135,1024,625,1024,768,8-21-2022,8-0-50,92,depth_duration_stimuli/000414_2014-06-04_19-49-13_260595134347_rgbf000044-resize_0/000414_2014-06-04_19-49-13_260595134347_rgbf000044-resize_0-target.png,125,4.329,5,2038,134,meters,jsons/VE125_randls_49_rotated.json,700112,873412,30,Woman
92,469479,DepthScenes,duration_manipulation_targetAtFixation,jsons/VE125_randls_49_rotated.json,http://54.235.29.9/FacialAge/BNav_EC2/DepthDuration/v2_depth_duration_MTurk/v2_DepthDuration_HTML.html#135,135,1024,625,1024,768,8-21-2022,8-0-50,93,depth_duration_stimuli/002103_2014-06-25_20-00-40_260595134347_rgbf000049-resize_0/002103_2014-06-25_20-00-40_260595134347_rgbf000049-resize_0-target.png,125,4.105,5,1605,124,meters,jsons/VE125_randls_49_rotated.json,700112,873412,30,Woman
93,469479,DepthScenes,duration_manipulation_targetAtFixation,jsons/VE125_randls_49_rotated.json,http://54.235.29.9/FacialAge/BNav_EC2/DepthDuration/v2_depth_duration_MTurk/v2_DepthDuration_HTML.html#135,135,1024,625,1024,768,8-21-2022,8-0-50,94,depth_duration_stimuli/002039_2014-06-24_20-22-38_260595134347_rgbf000084-resize_1/002039_2014-06-24_20-22-38_260595134347_rgbf000084-resize_1-target.png,125,4.408,5,1670,124,meters,jsons/VE125_randls_49_rotated.json,700112,873412,30,Woman
94,469479,DepthScenes,duration_manipulation_targetAtFixation,jsons/VE125_randls_49_rotated.json,http://54.235.29.9/FacialAge/BNav_EC2/DepthDuration/v2_depth_duration_MTurk/v2_DepthDuration_HTML.html#135,135,1024,625,1024,768,8-21-2022,8-0-50,95,depth_duration_stimuli/001132_2014-06-17_14-48-54_260595134347_rgbf000100-resize_2/001132_2014-06-17_14-48-54_260595134347_rgbf000100-resize_2-target.png,125,3.753,5,1711,113,meters,jsons/VE125_randls_49_rotated.json,700112,873412,30,Woman
95,469479,DepthScenes,duration_manipulation_targetAtFixation,jsons/VE125_randls_49_rotated.json,http://54.235.29.9/FacialAge/BNav_EC2/DepthDuration/v2_depth_duration_MTurk/v2_DepthDuration_HTML.html#135,135,1024,625,1024,768,8-21-2022,8-0-50,96,depth_duration_stimuli/001133_2014-06-17_14-49-16_260595134347_rgbf000100-resize_0/001133_2014-06-17_14-49-16_260595134347_rgbf000100-resize_0-target.png,125,4.2115,5,2653,128,meters,jsons/VE125_randls_49_rotated.json,700112,873412,30,Woman
96,469479,DepthScenes,duration_manipulation_targetAtFixation,jsons/VE125_randls_49_rotated.json,http://54.235.29.9/FacialAge/BNav_EC2/DepthDuration/v2_depth_duration_MTurk/v2_DepthDuration_HTML.html#135,135,1024,625,1024,768,8-21-2022,8-0-50,97,depth_duration_stimuli/002657_2014-06-13_15-29-54_094959634447_rgbf000150-resize_1/002657_2014-06-13_15-29-54_094959634447_rgbf000150-resize_1-target.png,125,4.919,5,1754,125,meters,jsons/VE125_randls_49_rotated.json,700112,873412,30,Woman
97,469479,DepthScenes,duration_manipulation_targetAtFixation,jsons/VE125_randls_49_rotated.json,http://54.235.29.9/FacialAge/BNav_EC2/DepthDuration/v2_depth_duration_MTurk/v2_DepthDuration_HTML.html#135,135,1024,625,1024,768,8-21-2022,8-0-50,98,depth_duration_stimuli/002375_2014-06-28_20-13-44_260595134347_rgbf000032-resize_1/002375_2014-06-28_20-13-44_260595134347_rgbf000032-resize_1-target.png,125,4.0175,5,1782,125,meters,jsons/VE125_randls_49_rotated.json,700112,873412,30,Woman
98,469479,DepthScenes,duration_manipulation_targetAtFixation,jsons/VE125_randls_49_rotated.json,http://54.235.29.9/FacialAge/BNav_EC2/DepthDuration/v2_depth_duration_MTurk/v2_DepthDuration_HTML.html#135,135,1024,625,1024,768,8-21-2022,8-0-50,99,depth_duration_stimuli/001222_2014-06-17_16-24-06_260595134347_rgbf000073-resize_0/001222_2014-06-17_16-24-06_260595134347_rgbf000073-resize-original.jpg,125,1.4385,2,4732,116,meters,jsons/VE125_randls_49_rotated.json,700112,873412,30,Woman
99,469479,DepthScenes,duration_manipulation_targetAtFixation,jsons/VE125_randls_49_rotated.json,http://54.235.29.9/FacialAge/BNav_EC2/DepthDuration/v2_depth_duration_MTurk/v2_DepthDuration_HTML.html#135,135,1024,625,1024,768,8-21-2022,8-0-50,100,depth_duration_stimuli/000749_2014-06-08_21-55-06_260595134347_rgbf000070-resize_2/000749_2014-06-08_21-55-06_260595134347_rgbf000070-resize_2-target.png,125,2.331,2,1617,120,meters,jsons/VE125_randls_49_rotated.json,700112,873412,30,Woman
100,469479,DepthScenes,duration_manipulation_targetAtFixation,jsons/VE125_randls_49_rotated.json,http://54.235.29.9/FacialAge/BNav_EC2/DepthDuration/v2_depth_duration_MTurk/v2_DepthDuration_HTML.html#135,135,1024,625,1024,768,8-21-2022,8-0-50,101,depth_duration_stimuli/002788_2014-06-22_19-36-03_094959634447_rgbf000088-resize_2/002788_2014-06-22_19-36-03_094959634447_rgbf000088-resize_2-target.png,125,1.6465,1,1557,125,meters,jsons/VE125_randls_49_rotated.json,700112,873412,30,Woman
101,469479,DepthScenes,duration_manipulation_targetAtFixation,jsons/VE125_randls_49_rotated.json,http://54.235.29.9/FacialAge/BNav_EC2/DepthDuration/v2_depth_duration_MTurk/v2_DepthDuration_HTML.html#135,135,1024,625,1024,768,8-21-2022,8-0-50,102,depth_duration_stimuli/003083_2014-06-15_15-21-03_094959634447_rgbf000063-resize_1/003083_2014-06-15_15-21-03_094959634447_rgbf000063-resize_1-target.png,125,4.1405,2,1570,133,meters,jsons/VE125_randls_49_rotated.json,700112,873412,30,Woman
102,469479,DepthScenes,duration_manipulation_targetAtFixation,jsons/VE125_randls_49_rotated.json,http://54.235.29.9/FacialAge/BNav_EC2/DepthDuration/v2_depth_duration_MTurk/v2_DepthDuration_HTML.html#135,135,1024,625,1024,768,8-21-2022,8-0-50,103,depth_duration_stimuli/000486_2014-06-09_20-47-20_260595134347_rgbf000143-resize_2/000486_2014-06-09_20-47-20_260595134347_rgbf000143-resize_2-target.png,125,4.8325,2,1683,120,meters,jsons/VE125_randls_49_rotated.json,700112,873412,30,Woman
103,469479,DepthScenes,duration_manipulation_targetAtFixation,jsons/VE125_randls_49_rotated.json,http://54.235.29.9/FacialAge/BNav_EC2/DepthDuration/v2_depth_duration_MTurk/v2_DepthDuration_HTML.html#135,135,1024,625,1024,768,8-21-2022,8-0-50,104,depth_duration_stimuli/000866_2014-06-09_20-45-42_260595134347_rgbf000139-resize_1/000866_2014-06-09_20-45-42_260595134347_rgbf000139-resize_1-target.png,125,3.2155,3,1755,123,meters,jsons/VE125_randls_49_rotated.json,700112,873412,30,Woman
104,469479,DepthScenes,duration_manipulation_targetAtFixation,jsons/VE125_randls_49_rotated.json,http://54.235.29.9/FacialAge/BNav_EC2/DepthDuration/v2_depth_duration_MTurk/v2_DepthDuration_HTML.html#135,135,1024,625,1024,768,8-21-2022,8-0-50,105,depth_duration_stimuli/002989_2014-06-15_12-25-03_094959634447_rgbf000150-resize_3/002989_2014-06-15_12-25-03_094959634447_rgbf000150-resize_3-target.png,125,4.1975,3,9395,125,meters,jsons/VE125_randls_49_rotated.json,700112,873412,30,Woman
105,469479,DepthScenes,duration_manipulation_targetAtFixation,jsons/VE125_randls_49_rotated.json,http://54.235.29.9/FacialAge/BNav_EC2/DepthDuration/v2_depth_duration_MTurk/v2_DepthDuration_HTML.html#135,135,1024,625,1024,768,8-21-2022,8-0-50,106,depth_duration_stimuli/003048_2014-06-15_13-49-43_094959634447_rgbf000150-resize_1/003048_2014-06-15_13-49-43_094959634447_rgbf000150-resize_1-target.png,125,4.0035,3,1690,127,meters,jsons/VE125_randls_49_rotated.json,700112,873412,30,Woman
106,469479,DepthScenes,duration_manipulation_targetAtFixation,jsons/VE125_randls_49_rotated.json,http://54.235.29.9/FacialAge/BNav_EC2/DepthDuration/v2_depth_duration_MTurk/v2_DepthDuration_HTML.html#135,135,1024,625,1024,768,8-21-2022,8-0-50,107,depth_duration_stimuli/002043_2014-06-24_20-29-38_260595134347_rgbf000039-resize_4/002043_2014-06-24_20-29-38_260595134347_rgbf000039-resize_4-target.png,125,2.8435,3,1737,126,meters,jsons/VE125_randls_49_rotated.json,700112,873412,30,Woman
107,469479,DepthScenes,duration_manipulation_targetAtFixation,jsons/VE125_randls_49_rotated.json,http://54.235.29.9/FacialAge/BNav_EC2/DepthDuration/v2_depth_duration_MTurk/v2_DepthDuration_HTML.html#135,135,1024,625,1024,768,8-21-2022,8-0-50,108,depth_duration_stimuli/000556_2014-06-09_22-42-56_260595134347_rgbf000214-resize_1/000556_2014-06-09_22-42-56_260595134347_rgbf000214-resize_1-target.png,125,4.8415,2,1622,125,meters,jsons/VE125_randls_49_rotated.json,700112,873412,30,Woman
108,469479,DepthScenes,duration_manipulation_targetAtFixation,jsons/VE125_randls_49_rotated.json,http://54.235.29.9/FacialAge/BNav_EC2/DepthDuration/v2_depth_duration_MTurk/v2_DepthDuration_HTML.html#135,135,1024,625,1024,768,8-21-2022,8-0-50,109,depth_duration_stimuli/001158_2014-06-17_15-32-16_260595134347_rgbf000138-resize_2/001158_2014-06-17_15-32-16_260595134347_rgbf000138-resize_2-target.png,125,4.5315,2,2529,45,meters,jsons/VE125_randls_49_rotated.json,700112,873412,30,Woman
109,469479,DepthScenes,duration_manipulation_targetAtFixation,jsons/VE125_randls_49_rotated.json,http://54.235.29.9/FacialAge/BNav_EC2/DepthDuration/v2_depth_duration_MTurk/v2_DepthDuration_HTML.html#135,135,1024,625,1024,768,8-21-2022,8-0-50,110,depth_duration_stimuli/001828_2014-06-26_21-40-03_260595134347_rgbf000024-resize_0/001828_2014-06-26_21-40-03_260595134347_rgbf000024-resize_0-target.png,125,4.8260000000000005,2,3378,125,meters,jsons/VE125_randls_49_rotated.json,700112,873412,30,Woman
110,469479,DepthScenes,duration_manipulation_targetAtFixation,jsons/VE125_randls_49_rotated.json,http://54.235.29.9/FacialAge/BNav_EC2/DepthDuration/v2_depth_duration_MTurk/v2_DepthDuration_HTML.html#135,135,1024,625,1024,768,8-21-2022,8-0-50,111,depth_duration_stimuli/000009_2014-05-26_14-32-05_260595134347_rgbf000034-resize_3/000009_2014-05-26_14-32-05_260595134347_rgbf000034-resize_3-target.png,125,3.8715,2,3380,124,meters,jsons/VE125_randls_49_rotated.json,700112,873412,30,Woman
111,469479,DepthScenes,duration_manipulation_targetAtFixation,jsons/VE125_randls_49_rotated.json,http://54.235.29.9/FacialAge/BNav_EC2/DepthDuration/v2_depth_duration_MTurk/v2_DepthDuration_HTML.html#135,135,1024,625,1024,768,8-21-2022,8-0-50,112,depth_duration_stimuli/003079_2014-06-15_15-18-20_094959634447_rgbf000152-resize_8/003079_2014-06-15_15-18-20_094959634447_rgbf000152-resize_8-target.png,125,2.8775,2,3682,125,meters,jsons/VE125_randls_49_rotated.json,700112,873412,30,Woman
112,469479,DepthScenes,duration_manipulation_targetAtFixation,jsons/VE125_randls_49_rotated.json,http://54.235.29.9/FacialAge/BNav_EC2/DepthDuration/v2_depth_duration_MTurk/v2_DepthDuration_HTML.html#135,135,1024,625,1024,768,8-21-2022,8-0-50,113,depth_duration_stimuli/000506_2014-06-08_23-21-00_260595134347_rgbf000070-resize_7/000506_2014-06-08_23-21-00_260595134347_rgbf000070-resize_7-target.png,125,4.0585,5,9460,125,meters,jsons/VE125_randls_49_rotated.json,700112,873412,30,Woman
113,469479,DepthScenes,duration_manipulation_targetAtFixation,jsons/VE125_randls_49_rotated.json,http://54.235.29.9/FacialAge/BNav_EC2/DepthDuration/v2_depth_duration_MTurk/v2_DepthDuration_HTML.html#135,135,1024,625,1024,768,8-21-2022,8-0-50,114,depth_duration_stimuli/000677_2014-06-08_23-10-32_260595134347_rgbf000158-resize_6/000677_2014-06-08_23-10-32_260595134347_rgbf000158-resize_6-target.png,125,3.556,2,2140,122,meters,jsons/VE125_randls_49_rotated.json,700112,873412,30,Woman
114,469479,DepthScenes,duration_manipulation_targetAtFixation,jsons/VE125_randls_49_rotated.json,http://54.235.29.9/FacialAge/BNav_EC2/DepthDuration/v2_depth_duration_MTurk/v2_DepthDuration_HTML.html#135,135,1024,625,1024,768,8-21-2022,8-0-50,115,depth_duration_stimuli/001029_2014-06-08_13-17-57_260595134347_rgbf000065-resize_1/001029_2014-06-08_13-17-57_260595134347_rgbf000065-resize_1-target.png,125,3.0835,2,1568,128,meters,jsons/VE125_randls_49_rotated.json,700112,873412,30,Woman
115,469479,DepthScenes,duration_manipulation_targetAtFixation,jsons/VE125_randls_49_rotated.json,http://54.235.29.9/FacialAge/BNav_EC2/DepthDuration/v2_depth_duration_MTurk/v2_DepthDuration_HTML.html#135,135,1024,625,1024,768,8-21-2022,8-0-50,116,depth_duration_stimuli/003423_2014-05-21_10-23-26_094959634447_rgbf002665-resize_2/003423_2014-05-21_10-23-26_094959634447_rgbf002665-resize_2-target.png,125,3.2575,2,1503,113,meters,jsons/VE125_randls_49_rotated.json,700112,873412,30,Woman
116,469479,DepthScenes,duration_manipulation_targetAtFixation,jsons/VE125_randls_49_rotated.json,http://54.235.29.9/FacialAge/BNav_EC2/DepthDuration/v2_depth_duration_MTurk/v2_DepthDuration_HTML.html#135,135,1024,625,1024,768,8-21-2022,8-0-50,117,depth_duration_stimuli/002905_2014-06-03_18-04-43_094959634447_rgbf000151-resize_2/002905_2014-06-03_18-04-43_094959634447_rgbf000151-resize_2-target.png,125,2.0295,2,1710,124,meters,jsons/VE125_randls_49_rotated.json,700112,873412,30,Woman
117,469479,DepthScenes,duration_manipulation_targetAtFixation,jsons/VE125_randls_49_rotated.json,http://54.235.29.9/FacialAge/BNav_EC2/DepthDuration/v2_depth_duration_MTurk/v2_DepthDuration_HTML.html#135,135,1024,625,1024,768,8-21-2022,8-0-50,118,depth_duration_stimuli/003587_2014-05-23_16-48-02_094959634447_rgbf002384-resize_2/003587_2014-05-23_16-48-02_094959634447_rgbf002384-resize_2-target.png,125,1.357,2,1446,123,meters,jsons/VE125_randls_49_rotated.json,700112,873412,30,Woman
118,469479,DepthScenes,duration_manipulation_targetAtFixation,jsons/VE125_randls_49_rotated.json,http://54.235.29.9/FacialAge/BNav_EC2/DepthDuration/v2_depth_duration_MTurk/v2_DepthDuration_HTML.html#135,135,1024,625,1024,768,8-21-2022,8-0-50,119,depth_duration_stimuli/001167_2014-06-17_15-38-07_260595134347_rgbf000108-resize_0/001167_2014-06-17_15-38-07_260595134347_rgbf000108-resize_0-target.png,125,1.8505,1,1497,123,meters,jsons/VE125_randls_49_rotated.json,700112,873412,30,Woman
119,469479,DepthScenes,duration_manipulation_targetAtFixation,jsons/VE125_randls_49_rotated.json,http://54.235.29.9/FacialAge/BNav_EC2/DepthDuration/v2_depth_duration_MTurk/v2_DepthDuration_HTML.html#135,135,1024,625,1024,768,8-21-2022,8-0-50,120,depth_duration_stimuli/000787_2014-06-08_22-33-53_260595134347_rgbf000175-resize_1/000787_2014-06-08_22-33-53_260595134347_rgbf000175-resize-original.jpg,125,4.784,2,2029,125,meters,jsons/VE125_randls_49_rotated.json,700112,873412,30,Woman
120,469479,DepthScenes,duration_manipulation_targetAtFixation,jsons/VE125_randls_49_rotated.json,http://54.235.29.9/FacialAge/BNav_EC2/DepthDuration/v2_depth_duration_MTurk/v2_DepthDuration_HTML.html#135,135,1024,625,1024,768,8-21-2022,8-0-50,121,depth_duration_stimuli/001100_2014-06-15_17-46-26_260595134347_rgbf000225-resize_2/001100_2014-06-15_17-46-26_260595134347_rgbf000225-resize_2-target.png,125,2.24,2,3102,139,meters,jsons/VE125_randls_49_rotated.json,700112,873412,30,Woman
121,469479,DepthScenes,duration_manipulation_targetAtFixation,jsons/VE125_randls_49_rotated.json,http://54.235.29.9/FacialAge/BNav_EC2/DepthDuration/v2_depth_duration_MTurk/v2_DepthDuration_HTML.html#135,135,1024,625,1024,768,8-21-2022,8-0-50,122,depth_duration_stimuli/002784_2014-06-22_19-26-30_094959634447_rgbf000083-resize_3/002784_2014-06-22_19-26-30_094959634447_rgbf000083-resize_3-target.png,125,1.8046666666667,3,1925,120,meters,jsons/VE125_randls_49_rotated.json,700112,873412,30,Woman
122,469479,DepthScenes,duration_manipulation_targetAtFixation,jsons/VE125_randls_49_rotated.json,http://54.235.29.9/FacialAge/BNav_EC2/DepthDuration/v2_depth_duration_MTurk/v2_DepthDuration_HTML.html#135,135,1024,625,1024,768,8-21-2022,8-0-50,123,depth_duration_stimuli/003338_2014-05-20_11-01-23_094959634447_rgbf000051-resize_6/003338_2014-05-20_11-01-23_094959634447_rgbf000051-resize_6-target.png,125,1.693,2,1834,128,meters,jsons/VE125_randls_49_rotated.json,700112,873412,30,Woman
123,469479,DepthScenes,duration_manipulation_targetAtFixation,jsons/VE125_randls_49_rotated.json,http://54.235.29.9/FacialAge/BNav_EC2/DepthDuration/v2_depth_duration_MTurk/v2_DepthDuration_HTML.html#135,135,1024,625,1024,768,8-21-2022,8-0-50,124,depth_duration_stimuli/002509_2014-06-24_13-19-22_094959634447_rgbf000077-resize_0/002509_2014-06-24_13-19-22_094959634447_rgbf000077-resize_0-target.png,125,1.3065,2,2652,125,meters,jsons/VE125_randls_49_rotated.json,700112,873412,30,Woman
124,469479,DepthScenes,duration_manipulation_targetAtFixation,jsons/VE125_randls_49_rotated.json,http://54.235.29.9/FacialAge/BNav_EC2/DepthDuration/v2_depth_duration_MTurk/v2_DepthDuration_HTML.html#135,135,1024,625,1024,768,8-21-2022,8-0-50,125,depth_duration_stimuli/000502_2014-06-08_23-02-32_260595134347_rgbf000063-resize_4/000502_2014-06-08_23-02-32_260595134347_rgbf000063-resize_4-target.png,125,2.431,2,1801,126,meters,jsons/VE125_randls_49_rotated.json,700112,873412,30,Woman
125,469479,DepthScenes,duration_manipulation_targetAtFixation,jsons/VE125_randls_49_rotated.json,http://54.235.29.9/FacialAge/BNav_EC2/DepthDuration/v2_depth_duration_MTurk/v2_DepthDuration_HTML.html#135,135,1024,625,1024,768,8-21-2022,8-0-50,126,depth_duration_stimuli/001199_2014-06-17_16-03-48_260595134347_rgbf000077-resize_0/001199_2014-06-17_16-03-48_260595134347_rgbf000077-resize_0-target.png,125,3.4375,4,1819,126,meters,jsons/VE125_randls_49_rotated.json,700112,873412,30,Woman
126,469479,DepthScenes,duration_manipulation_targetAtFixation,jsons/VE125_randls_49_rotated.json,http://54.235.29.9/FacialAge/BNav_EC2/DepthDuration/v2_depth_duration_MTurk/v2_DepthDuration_HTML.html#135,135,1024,625,1024,768,8-21-2022,8-0-50,127,depth_duration_stimuli/000483_2014-06-09_20-41-45_260595134347_rgbf000116-resize_4/000483_2014-06-09_20-41-45_260595134347_rgbf000116-resize_4-target.png,125,1.337,4,1802,124,meters,jsons/VE125_randls_49_rotated.json,700112,873412,30,Woman
127,469479,DepthScenes,duration_manipulation_targetAtFixation,jsons/VE125_randls_49_rotated.json,http://54.235.29.9/FacialAge/BNav_EC2/DepthDuration/v2_depth_duration_MTurk/v2_DepthDuration_HTML.html#135,135,1024,625,1024,768,8-21-2022,8-0-50,128,depth_duration_stimuli/000469_2014-06-09_19-42-10_260595134347_rgbf000081-resize_1/000469_2014-06-09_19-42-10_260595134347_rgbf000081-resize_1-target.png,125,1.652,4,2186,122,meters,jsons/VE125_randls_49_rotated.json,700112,873412,30,Woman
128,469479,DepthScenes,duration_manipulation_targetAtFixation,jsons/VE125_randls_49_rotated.json,http://54.235.29.9/FacialAge/BNav_EC2/DepthDuration/v2_depth_duration_MTurk/v2_DepthDuration_HTML.html#135,135,1024,625,1024,768,8-21-2022,8-0-50,129,depth_duration_stimuli/003490_2014-05-21_15-50-11_094959634447_rgbf000101-resize_3/003490_2014-05-21_15-50-11_094959634447_rgbf000101-resize_3-target.png,125,3.6445,2,2115,129,meters,jsons/VE125_randls_49_rotated.json,700112,873412,30,Woman
129,469479,DepthScenes,duration_manipulation_targetAtFixation,jsons/VE125_randls_49_rotated.json,http://54.235.29.9/FacialAge/BNav_EC2/DepthDuration/v2_depth_duration_MTurk/v2_DepthDuration_HTML.html#135,135,1024,625,1024,768,8-21-2022,8-0-50,130,depth_duration_stimuli/001175_2014-06-17_15-45-55_260595134347_rgbf000129-resize_4/001175_2014-06-17_15-45-55_260595134347_rgbf000129-resize_4-target.png,125,4.255,2,1379,126,meters,jsons/VE125_randls_49_rotated.json,700112,873412,30,Woman
130,469479,DepthScenes,duration_manipulation_targetAtFixation,jsons/VE125_randls_49_rotated.json,http://54.235.29.9/FacialAge/BNav_EC2/DepthDuration/v2_depth_duration_MTurk/v2_DepthDuration_HTML.html#135,135,1024,625,1024,768,8-21-2022,8-0-50,131,depth_duration_stimuli/000109_2014-05-14_23-41-52_260595134347_rgbf000035-resize_9/000109_2014-05-14_23-41-52_260595134347_rgbf000035-resize_9-target.png,125,1.3545,3,1506,121,meters,jsons/VE125_randls_49_rotated.json,700112,873412,30,Woman
131,469479,DepthScenes,duration_manipulation_targetAtFixation,jsons/VE125_randls_49_rotated.json,http://54.235.29.9/FacialAge/BNav_EC2/DepthDuration/v2_depth_duration_MTurk/v2_DepthDuration_HTML.html#135,135,1024,625,1024,768,8-21-2022,8-0-50,132,depth_duration_stimuli/000470_2014-06-09_19-42-40_260595134347_rgbf000094-resize_1/000470_2014-06-09_19-42-40_260595134347_rgbf000094-resize_1-target.png,125,1.831,2,1844,125,meters,jsons/VE125_randls_49_rotated.json,700112,873412,30,Woman
132,469479,DepthScenes,duration_manipulation_targetAtFixation,jsons/VE125_randls_49_rotated.json,http://54.235.29.9/FacialAge/BNav_EC2/DepthDuration/v2_depth_duration_MTurk/v2_DepthDuration_HTML.html#135,135,1024,625,1024,768,8-21-2022,8-0-50,133,depth_duration_stimuli/001094_2014-06-15_17-36-00_260595134347_rgbf000205-resize_0/001094_2014-06-15_17-36-00_260595134347_rgbf000205-resize_0-target.png,125,4.2175,1,1654,122,meters,jsons/VE125_randls_49_rotated.json,700112,873412,30,Woman
133,469479,DepthScenes,duration_manipulation_targetAtFixation,jsons/VE125_randls_49_rotated.json,http://54.235.29.9/FacialAge/BNav_EC2/DepthDuration/v2_depth_duration_MTurk/v2_DepthDuration_HTML.html#135,135,1024,625,1024,768,8-21-2022,8-0-50,134,depth_duration_stimuli/000692_2014-06-08_13-09-42_260595134347_rgbf000199-resize_2/000692_2014-06-08_13-09-42_260595134347_rgbf000199-resize_2-target.png,125,3.661,2,1623,122,meters,jsons/VE125_randls_49_rotated.json,700112,873412,30,Woman
134,469479,DepthScenes,duration_manipulation_targetAtFixation,jsons/VE125_randls_49_rotated.json,http://54.235.29.9/FacialAge/BNav_EC2/DepthDuration/v2_depth_duration_MTurk/v2_DepthDuration_HTML.html#135,135,1024,625,1024,768,8-21-2022,8-0-50,135,depth_duration_stimuli/000375_2014-06-08_11-17-29_260595134347_rgbf000133-resize_2/000375_2014-06-08_11-17-29_260595134347_rgbf000133-resize-original.jpg,125,4.718,2,1782,126,meters,jsons/VE125_randls_49_rotated.json,700112,873412,30,Woman
135,469479,DepthScenes,duration_manipulation_targetAtFixation,jsons/VE125_randls_49_rotated.json,http://54.235.29.9/FacialAge/BNav_EC2/DepthDuration/v2_depth_duration_MTurk/v2_DepthDuration_HTML.html#135,135,1024,625,1024,768,8-21-2022,8-0-50,136,depth_duration_stimuli/001214_2014-06-17_16-13-55_260595134347_rgbf000111-resize_0/001214_2014-06-17_16-13-55_260595134347_rgbf000111-resize_0-target.png,125,2.6505,2,1712,124,meters,jsons/VE125_randls_49_rotated.json,700112,873412,30,Woman
136,469479,DepthScenes,duration_manipulation_targetAtFixation,jsons/VE125_randls_49_rotated.json,http://54.235.29.9/FacialAge/BNav_EC2/DepthDuration/v2_depth_duration_MTurk/v2_DepthDuration_HTML.html#135,135,1024,625,1024,768,8-21-2022,8-0-50,137,depth_duration_stimuli/000810_2014-06-08_17-20-01_260595134347_rgbf000105-resize_0/000810_2014-06-08_17-20-01_260595134347_rgbf000105-resize_0-target.png,125,1.4865,1,1764,114,meters,jsons/VE125_randls_49_rotated.json,700112,873412,30,Woman
137,469479,DepthScenes,duration_manipulation_targetAtFixation,jsons/VE125_randls_49_rotated.json,http://54.235.29.9/FacialAge/BNav_EC2/DepthDuration/v2_depth_duration_MTurk/v2_DepthDuration_HTML.html#135,135,1024,625,1024,768,8-21-2022,8-0-50,138,depth_duration_stimuli/002209_2014-06-28_18-36-10_260595134347_rgbf000051-resize_1/002209_2014-06-28_18-36-10_260595134347_rgbf000051-resize_1-target.png,125,2.057,2,1524,86,meters,jsons/VE125_randls_49_rotated.json,700112,873412,30,Woman
138,469479,DepthScenes,duration_manipulation_targetAtFixation,jsons/VE125_randls_49_rotated.json,http://54.235.29.9/FacialAge/BNav_EC2/DepthDuration/v2_depth_duration_MTurk/v2_DepthDuration_HTML.html#135,135,1024,625,1024,768,8-21-2022,8-0-50,139,depth_duration_stimuli/002763_2014-06-22_19-13-10_094959634447_rgbf000075-resize_4/002763_2014-06-22_19-13-10_094959634447_rgbf000075-resize_4-target.png,125,1.68375,3,1745,43,meters,jsons/VE125_randls_49_rotated.json,700112,873412,30,Woman
139,469479,DepthScenes,duration_manipulation_targetAtFixation,jsons/VE125_randls_49_rotated.json,http://54.235.29.9/FacialAge/BNav_EC2/DepthDuration/v2_depth_duration_MTurk/v2_DepthDuration_HTML.html#135,135,1024,625,1024,768,8-21-2022,8-0-50,140,depth_duration_stimuli/000927_2014-06-09_16-32-30_260595134347_rgbf000123-resize_3/000927_2014-06-09_16-32-30_260595134347_rgbf000123-resize_3-target.png,125,2.6785,2,1601,134,meters,jsons/VE125_randls_49_rotated.json,700112,873412,30,Woman
140,469479,DepthScenes,duration_manipulation_targetAtFixation,jsons/VE125_randls_49_rotated.json,http://54.235.29.9/FacialAge/BNav_EC2/DepthDuration/v2_depth_duration_MTurk/v2_DepthDuration_HTML.html#135,135,1024,625,1024,768,8-21-2022,8-0-50,141,depth_duration_stimuli/001110_2014-06-15_17-25-28_260595134347_rgbf000150-resize_1/001110_2014-06-15_17-25-28_260595134347_rgbf000150-resize_1-target.png,125,1.7115,2,2149,62,meters,jsons/VE125_randls_49_rotated.json,700112,873412,30,Woman
141,469479,DepthScenes,duration_manipulation_targetAtFixation,jsons/VE125_randls_49_rotated.json,http://54.235.29.9/FacialAge/BNav_EC2/DepthDuration/v2_depth_duration_MTurk/v2_DepthDuration_HTML.html#135,135,1024,625,1024,768,8-21-2022,8-0-50,142,depth_duration_stimuli/003081_2014-06-15_15-19-16_094959634447_rgbf000150-resize_1/003081_2014-06-15_15-19-16_094959634447_rgbf000150-resize_1-target.png,125,3.9125,2,3669,124,meters,jsons/VE125_randls_49_rotated.json,700112,873412,30,Woman
142,469479,DepthScenes,duration_manipulation_targetAtFixation,jsons/VE125_randls_49_rotated.json,http://54.235.29.9/FacialAge/BNav_EC2/DepthDuration/v2_depth_duration_MTurk/v2_DepthDuration_HTML.html#135,135,1024,625,1024,768,8-21-2022,8-0-50,143,depth_duration_stimuli/001417_2014-06-19_16-25-36_260595134347_rgbf000115-resize_5/001417_2014-06-19_16-25-36_260595134347_rgbf000115-resize_5-target.png,125,4.6255,2,2289,2,meters,jsons/VE125_randls_49_rotated.json,700112,873412,30,Woman
143,469479,DepthScenes,duration_manipulation_targetAtFixation,jsons/VE125_randls_49_rotated.json,http://54.235.29.9/FacialAge/BNav_EC2/DepthDuration/v2_depth_duration_MTurk/v2_DepthDuration_HTML.html#135,135,1024,625,1024,768,8-21-2022,8-0-50,144,depth_duration_stimuli/003010_2014-06-15_12-54-35_094959634447_rgbf000112-resize_0/003010_2014-06-15_12-54-35_094959634447_rgbf000112-resize_0-target.png,125,3.1185,3,2616,124,meters,jsons/VE125_randls_49_rotated.json,700112,873412,30,Woman
144,469479,DepthScenes,duration_manipulation_targetAtFixation,jsons/VE125_randls_49_rotated.json,http://54.235.29.9/FacialAge/BNav_EC2/DepthDuration/v2_depth_duration_MTurk/v2_DepthDuration_HTML.html#135,135,1024,625,1024,768,8-21-2022,8-0-50,145,depth_duration_stimuli/001810_2014-06-26_20-51-35_260595134347_rgbf000040-resize_3/001810_2014-06-26_20-51-35_260595134347_rgbf000040-resize_3-target.png,125,2.2525,3,2752,124,meters,jsons/VE125_randls_49_rotated.json,700112,873412,30,Woman
145,469479,DepthScenes,duration_manipulation_targetAtFixation,jsons/VE125_randls_49_rotated.json,http://54.235.29.9/FacialAge/BNav_EC2/DepthDuration/v2_depth_duration_MTurk/v2_DepthDuration_HTML.html#135,135,1024,625,1024,768,8-21-2022,8-0-50,146,depth_duration_stimuli/001617_2014-06-20_11-35-32_260595134347_rgbf000066-resize_1/001617_2014-06-20_11-35-32_260595134347_rgbf000066-resize_1-target.png,125,3.7910000000000004,2,1853,125,meters,jsons/VE125_randls_49_rotated.json,700112,873412,30,Woman
146,469479,DepthScenes,duration_manipulation_targetAtFixation,jsons/VE125_randls_49_rotated.json,http://54.235.29.9/FacialAge/BNav_EC2/DepthDuration/v2_depth_duration_MTurk/v2_DepthDuration_HTML.html#135,135,1024,625,1024,768,8-21-2022,8-0-50,147,depth_duration_stimuli/001806_2014-06-26_20-50-20_260595134347_rgbf000091-resize_1/001806_2014-06-26_20-50-20_260595134347_rgbf000091-resize_1-target.png,125,2.7305,2,2507,125,meters,jsons/VE125_randls_49_rotated.json,700112,873412,30,Woman
147,469479,DepthScenes,duration_manipulation_targetAtFixation,jsons/VE125_randls_49_rotated.json,http://54.235.29.9/FacialAge/BNav_EC2/DepthDuration/v2_depth_duration_MTurk/v2_DepthDuration_HTML.html#135,135,1024,625,1024,768,8-21-2022,8-0-50,148,depth_duration_stimuli/001650_2014-06-20_12-09-00_260595134347_rgbf000087-resize_3/001650_2014-06-20_12-09-00_260595134347_rgbf000087-resize_3-target.png,125,1.9505,2,1541,119,meters,jsons/VE125_randls_49_rotated.json,700112,873412,30,Woman
148,469479,DepthScenes,duration_manipulation_targetAtFixation,jsons/VE125_randls_49_rotated.json,http://54.235.29.9/FacialAge/BNav_EC2/DepthDuration/v2_depth_duration_MTurk/v2_DepthDuration_HTML.html#135,135,1024,625,1024,768,8-21-2022,8-0-50,149,depth_duration_stimuli/000682_2014-06-08_23-14-58_260595134347_rgbf000041-resize_5/000682_2014-06-08_23-14-58_260595134347_rgbf000041-resize_5-target.png,125,2.7239999999999998,2,2215,127,meters,jsons/VE125_randls_49_rotated.json,700112,873412,30,Woman
149,469479,DepthScenes,duration_manipulation_targetAtFixation,jsons/VE125_randls_49_rotated.json,http://54.235.29.9/FacialAge/BNav_EC2/DepthDuration/v2_depth_duration_MTurk/v2_DepthDuration_HTML.html#135,135,1024,625,1024,768,8-21-2022,8-0-50,150,depth_duration_stimuli/002344_2014-06-28_20-06-29_260595134347_rgbf000030-resize_1/002344_2014-06-28_20-06-29_260595134347_rgbf000030-resize_1-target.png,125,1.5795,4,2351,121,meters,jsons/VE125_randls_49_rotated.json,700112,873412,30,Woman
150,469479,DepthScenes,duration_manipulation_targetAtFixation,jsons/VE125_randls_49_rotated.json,http://54.235.29.9/FacialAge/BNav_EC2/DepthDuration/v2_depth_duration_MTurk/v2_DepthDuration_HTML.html#135,135,1024,625,1024,768,8-21-2022,8-0-50,151,depth_duration_stimuli/002725_2014-06-22_11-47-51_094959634447_rgbf000070-resize_1/002725_2014-06-22_11-47-51_094959634447_rgbf000070-resize_1-target.png,125,2.195,1,4431,126,meters,jsons/VE125_randls_49_rotated.json,700112,873412,30,Woman
151,469479,DepthScenes,duration_manipulation_targetAtFixation,jsons/VE125_randls_49_rotated.json,http://54.235.29.9/FacialAge/BNav_EC2/DepthDuration/v2_depth_duration_MTurk/v2_DepthDuration_HTML.html#135,135,1024,625,1024,768,8-21-2022,8-0-50,152,depth_duration_stimuli/000569_2014-06-09_22-51-47_260595134347_rgbf000141-resize_3/000569_2014-06-09_22-51-47_260595134347_rgbf000141-resize-original.jpg,125,4.512,2,57880,124,meters,jsons/VE125_randls_49_rotated.json,700112,873412,30,Woman
152,469479,DepthScenes,duration_manipulation_targetAtFixation,jsons/VE125_randls_49_rotated.json,http://54.235.29.9/FacialAge/BNav_EC2/DepthDuration/v2_depth_duration_MTurk/v2_DepthDuration_HTML.html#135,135,1024,625,1024,768,8-21-2022,8-0-50,153,depth_duration_stimuli/001447_2014-06-19_17-00-32_260595134347_rgbf000082-resize_5/001447_2014-06-19_17-00-32_260595134347_rgbf000082-resize_5-target.png,125,4.13775,3,1528,124,meters,jsons/VE125_randls_49_rotated.json,700112,873412,30,Woman
153,469479,DepthScenes,duration_manipulation_targetAtFixation,jsons/VE125_randls_49_rotated.json,http://54.235.29.9/FacialAge/BNav_EC2/DepthDuration/v2_depth_duration_MTurk/v2_DepthDuration_HTML.html#135,135,1024,625,1024,768,8-21-2022,8-0-50,154,depth_duration_stimuli/000447_2014-06-08_16-15-46_260595134347_rgbf000130-resize_1/000447_2014-06-08_16-15-46_260595134347_rgbf000130-resize_1-target.png,125,4.479,2,1451,60,meters,jsons/VE125_randls_49_rotated.json,700112,873412,30,Woman
154,469479,DepthScenes,duration_manipulation_targetAtFixation,jsons/VE125_randls_49_rotated.json,http://54.235.29.9/FacialAge/BNav_EC2/DepthDuration/v2_depth_duration_MTurk/v2_DepthDuration_HTML.html#135,135,1024,625,1024,768,8-21-2022,8-0-50,155,depth_duration_stimuli/002678_2014-06-13_16-15-32_094959634447_rgbf000151-resize_6/002678_2014-06-13_16-15-32_094959634447_rgbf000151-resize_6-target.png,125,2.1830000000000003,1,1612,124,meters,jsons/VE125_randls_49_rotated.json,700112,873412,30,Woman
155,469479,DepthScenes,duration_manipulation_targetAtFixation,jsons/VE125_randls_49_rotated.json,http://54.235.29.9/FacialAge/BNav_EC2/DepthDuration/v2_depth_duration_MTurk/v2_DepthDuration_HTML.html#135,135,1024,625,1024,768,8-21-2022,8-0-50,156,depth_duration_stimuli/000368_2014-06-09_15-53-01_260595134347_rgbf000155-resize_2/000368_2014-06-09_15-53-01_260595134347_rgbf000155-resize_2-target.png,125,2.4859999999999998,2,1682,124,meters,jsons/VE125_randls_49_rotated.json,700112,873412,30,Woman
156,469479,DepthScenes,duration_manipulation_targetAtFixation,jsons/VE125_randls_49_rotated.json,http://54.235.29.9/FacialAge/BNav_EC2/DepthDuration/v2_depth_duration_MTurk/v2_DepthDuration_HTML.html#135,135,1024,625,1024,768,8-21-2022,8-0-50,157,depth_duration_stimuli/002953_2014-06-08_17-32-18_094959634447_rgbf000059-resize_5/002953_2014-06-08_17-32-18_094959634447_rgbf000059-resize_5-target.png,125,1.551,3,1829,124,meters,jsons/VE125_randls_49_rotated.json,700112,873412,30,Woman
157,469479,DepthScenes,duration_manipulation_targetAtFixation,jsons/VE125_randls_49_rotated.json,http://54.235.29.9/FacialAge/BNav_EC2/DepthDuration/v2_depth_duration_MTurk/v2_DepthDuration_HTML.html#135,135,1024,625,1024,768,8-21-2022,8-0-50,158,depth_duration_stimuli/000878_2014-06-08_22-52-45_260595134347_rgbf000045-resize_2/000878_2014-06-08_22-52-45_260595134347_rgbf000045-resize_2-target.png,125,2.092,3,13768,124,meters,jsons/VE125_randls_49_rotated.json,700112,873412,30,Woman
158,469479,DepthScenes,duration_manipulation_targetAtFixation,jsons/VE125_randls_49_rotated.json,http://54.235.29.9/FacialAge/BNav_EC2/DepthDuration/v2_depth_duration_MTurk/v2_DepthDuration_HTML.html#135,135,1024,625,1024,768,8-21-2022,8-0-50,159,depth_duration_stimuli/001815_2014-06-26_20-52-55_260595134347_rgbf000020-resize_0/001815_2014-06-26_20-52-55_260595134347_rgbf000020-resize_0-target.png,125,3.3865,2,2108,124,meters,jsons/VE125_randls_49_rotated.json,700112,873412,30,Woman
159,469479,DepthScenes,duration_manipulation_targetAtFixation,jsons/VE125_randls_49_rotated.json,http://54.235.29.9/FacialAge/BNav_EC2/DepthDuration/v2_depth_duration_MTurk/v2_DepthDuration_HTML.html#135,135,1024,625,1024,768,8-21-2022,8-0-50,160,depth_duration_stimuli/001808_2014-06-26_20-50-58_260595134347_rgbf000029-resize_1/001808_2014-06-26_20-50-58_260595134347_rgbf000029-resize_1-target.png,125,4.249,2,1835,125,meters,jsons/VE125_randls_49_rotated.json,700112,873412,30,Woman
160,469479,DepthScenes,duration_manipulation_targetAtFixation,jsons/VE125_randls_49_rotated.json,http://54.235.29.9/FacialAge/BNav_EC2/DepthDuration/v2_depth_duration_MTurk/v2_DepthDuration_HTML.html#135,135,1024,625,1024,768,8-21-2022,8-0-50,161,depth_duration_stimuli/002340_2014-06-28_20-05-46_260595134347_rgbf000113-resize_0/002340_2014-06-28_20-05-46_260595134347_rgbf000113-resize_0-target.png,125,2.4735,1,1948,125,meters,jsons/VE125_randls_49_rotated.json,700112,873412,30,Woman
161,469479,DepthScenes,duration_manipulation_targetAtFixation,jsons/VE125_randls_49_rotated.json,http://54.235.29.9/FacialAge/BNav_EC2/DepthDuration/v2_depth_duration_MTurk/v2_DepthDuration_HTML.html#135,135,1024,625,1024,768,8-21-2022,8-0-50,162,depth_duration_stimuli/001016_2014-06-09_16-16-10_260595134347_rgbf000112-resize_5/001016_2014-06-09_16-16-10_260595134347_rgbf000112-resize_5-target.png,125,1.6565,1,2075,124,meters,jsons/VE125_randls_49_rotated.json,700112,873412,30,Woman
162,469479,DepthScenes,duration_manipulation_targetAtFixation,jsons/VE125_randls_49_rotated.json,http://54.235.29.9/FacialAge/BNav_EC2/DepthDuration/v2_depth_duration_MTurk/v2_DepthDuration_HTML.html#135,135,1024,625,1024,768,8-21-2022,8-0-50,163,depth_duration_stimuli/002425_2014-06-28_20-27-29_260595134347_rgbf000031-resize_8/002425_2014-06-28_20-27-29_260595134347_rgbf000031-resize_8-target.png,125,3.8960000000000004,1,2011,125,meters,jsons/VE125_randls_49_rotated.json,700112,873412,30,Woman
163,469479,DepthScenes,duration_manipulation_targetAtFixation,jsons/VE125_randls_49_rotated.json,http://54.235.29.9/FacialAge/BNav_EC2/DepthDuration/v2_depth_duration_MTurk/v2_DepthDuration_HTML.html#135,135,1024,625,1024,768,8-21-2022,8-0-50,164,depth_duration_stimuli/000642_2014-06-08_16-59-25_260595134347_rgbf000098-resize_2/000642_2014-06-08_16-59-25_260595134347_rgbf000098-resize_2-target.png,125,2.8815,2,1667,124,meters,jsons/VE125_randls_49_rotated.json,700112,873412,30,Woman
