,subjID,experimentName,versionName,sequenceName,url,selected_row,windowWidth,windowHeight,screenWidth,screenHeight,startDate,startTime,trial,stimulus,duration,actual_depth,depth_estimate,trial_RT,log_sceneDuration,unitSelection,seq_filepath,experimentTime,totalTime,age,gender
0,471013,DepthScenes,duration_manipulation_targetAtFixation,jsons/v1_VE1000_randls_10_rotated.json,http://54.235.29.9/FacialAge/BNav_EC2/DepthDuration/v2_depth_duration_MTurk/v2_DepthDuration_HTML.html#289,289,1366,625,1366,768,8-29-2022,14-47-21,1,depth_duration_stimuli/003423_2014-05-21_10-23-26_094959634447_rgbf002665-resize_2/003423_2014-05-21_10-23-26_094959634447_rgbf002665-resize_2-target.png,1000,3.2575,1,7257,999,meters,jsons/v1_VE1000_randls_10_rotated.json,970960,1111361,61,Man
1,471013,DepthScenes,duration_manipulation_targetAtFixation,jsons/v1_VE1000_randls_10_rotated.json,http://54.235.29.9/FacialAge/BNav_EC2/DepthDuration/v2_depth_duration_MTurk/v2_DepthDuration_HTML.html#289,289,1366,625,1366,768,8-29-2022,14-47-21,2,depth_duration_stimuli/002905_2014-06-03_18-04-43_094959634447_rgbf000151-resize_2/002905_2014-06-03_18-04-43_094959634447_rgbf000151-resize_2-target.png,1000,2.0295,1,4340,998,meters,jsons/v1_VE1000_randls_10_rotated.json,970960,1111361,61,Man
2,471013,DepthScenes,duration_manipulation_targetAtFixation,jsons/v1_VE1000_randls_10_rotated.json,http://54.235.29.9/FacialAge/BNav_EC2/DepthDuration/v2_depth_duration_MTurk/v2_DepthDuration_HTML.html#289,289,1366,625,1366,768,8-29-2022,14-47-21,3,depth_duration_stimuli/003495_2014-05-21_16-01-51_094959634447_rgbf000100-resize_3/003495_2014-05-21_16-01-51_094959634447_rgbf000100-resize_3-target.png,1000,1.6255,1,5212,998,meters,jsons/v1_VE1000_randls_10_rotated.json,970960,1111361,61,Man
3,471013,DepthScenes,duration_manipulation_targetAtFixation,jsons/v1_VE1000_randls_10_rotated.json,http://54.235.29.9/FacialAge/BNav_EC2/DepthDuration/v2_depth_duration_MTurk/v2_DepthDuration_HTML.html#289,289,1366,625,1366,768,8-29-2022,14-47-21,4,depth_duration_stimuli/001244_2014-06-17_16-47-45_260595134347_rgbf000030-resize_4/001244_2014-06-17_16-47-45_260595134347_rgbf000030-resize_4-target.png,1000,2.0425,1,3920,1000,meters,jsons/v1_VE1000_randls_10_rotated.json,970960,1111361,61,Man
4,471013,DepthScenes,duration_manipulation_targetAtFixation,jsons/v1_VE1000_randls_10_rotated.json,http://54.235.29.9/FacialAge/BNav_EC2/DepthDuration/v2_depth_duration_MTurk/v2_DepthDuration_HTML.html#289,289,1366,625,1366,768,8-29-2022,14-47-21,5,depth_duration_stimuli/002545_2014-06-24_13-38-53_094959634447_rgbf000080-resize_4/002545_2014-06-24_13-38-53_094959634447_rgbf000080-resize_4-target.png,1000,1.9205,1,3417,998,meters,jsons/v1_VE1000_randls_10_rotated.json,970960,1111361,61,Man
5,471013,DepthScenes,duration_manipulation_targetAtFixation,jsons/v1_VE1000_randls_10_rotated.json,http://54.235.29.9/FacialAge/BNav_EC2/DepthDuration/v2_depth_duration_MTurk/v2_DepthDuration_HTML.html#289,289,1366,625,1366,768,8-29-2022,14-47-21,6,depth_duration_stimuli/001092_2014-06-15_17-34-58_260595134347_rgbf000171-resize_3/001092_2014-06-15_17-34-58_260595134347_rgbf000171-resize_3-target.png,1000,2.6935,1,3679,1000,meters,jsons/v1_VE1000_randls_10_rotated.json,970960,1111361,61,Man
6,471013,DepthScenes,duration_manipulation_targetAtFixation,jsons/v1_VE1000_randls_10_rotated.json,http://54.235.29.9/FacialAge/BNav_EC2/DepthDuration/v2_depth_duration_MTurk/v2_DepthDuration_HTML.html#289,289,1366,625,1366,768,8-29-2022,14-47-21,7,depth_duration_stimuli/001136_2014-06-17_15-19-41_260595134347_rgbf000076-resize_3/001136_2014-06-17_15-19-41_260595134347_rgbf000076-resize_3-target.png,1000,1.8655,1,3556,1000,meters,jsons/v1_VE1000_randls_10_rotated.json,970960,1111361,61,Man
7,471013,DepthScenes,duration_manipulation_targetAtFixation,jsons/v1_VE1000_randls_10_rotated.json,http://54.235.29.9/FacialAge/BNav_EC2/DepthDuration/v2_depth_duration_MTurk/v2_DepthDuration_HTML.html#289,289,1366,625,1366,768,8-29-2022,14-47-21,8,depth_duration_stimuli/001164_2014-06-17_15-35-46_260595134347_rgbf000085-resize_3/001164_2014-06-17_15-35-46_260595134347_rgbf000085-resize_3-target.png,1000,2.354,1,4643,999,meters,jsons/v1_VE1000_randls_10_rotated.json,970960,1111361,61,Man
8,471013,DepthScenes,duration_manipulation_targetAtFixation,jsons/v1_VE1000_randls_10_rotated.json,http://54.235.29.9/FacialAge/BNav_EC2/DepthDuration/v2_depth_duration_MTurk/v2_DepthDuration_HTML.html#289,289,1366,625,1366,768,8-29-2022,14-47-21,9,depth_duration_stimuli/003490_2014-05-21_15-50-11_094959634447_rgbf000101-resize_3/003490_2014-05-21_15-50-11_094959634447_rgbf000101-resize_3-target.png,1000,3.6445,1,3832,1000,meters,jsons/v1_VE1000_randls_10_rotated.json,970960,1111361,61,Man
9,471013,DepthScenes,duration_manipulation_targetAtFixation,jsons/v1_VE1000_randls_10_rotated.json,http://54.235.29.9/FacialAge/BNav_EC2/DepthDuration/v2_depth_duration_MTurk/v2_DepthDuration_HTML.html#289,289,1366,625,1366,768,8-29-2022,14-47-21,10,depth_duration_stimuli/001175_2014-06-17_15-45-55_260595134347_rgbf000129-resize_4/001175_2014-06-17_15-45-55_260595134347_rgbf000129-resize_4-target.png,1000,4.255,1,3819,1000,meters,jsons/v1_VE1000_randls_10_rotated.json,970960,1111361,61,Man
10,471013,DepthScenes,duration_manipulation_targetAtFixation,jsons/v1_VE1000_randls_10_rotated.json,http://54.235.29.9/FacialAge/BNav_EC2/DepthDuration/v2_depth_duration_MTurk/v2_DepthDuration_HTML.html#289,289,1366,625,1366,768,8-29-2022,14-47-21,11,depth_duration_stimuli/000137_2014-05-20_17-04-49_260595134347_rgbf000120-resize_1/000137_2014-05-20_17-04-49_260595134347_rgbf000120-resize_1-target.png,1000,3.786,1,8256,998,meters,jsons/v1_VE1000_randls_10_rotated.json,970960,1111361,61,Man
11,471013,DepthScenes,duration_manipulation_targetAtFixation,jsons/v1_VE1000_randls_10_rotated.json,http://54.235.29.9/FacialAge/BNav_EC2/DepthDuration/v2_depth_duration_MTurk/v2_DepthDuration_HTML.html#289,289,1366,625,1366,768,8-29-2022,14-47-21,12,depth_duration_stimuli/000736_2014-06-08_18-24-15_260595134347_rgbf000206-resize_3/000736_2014-06-08_18-24-15_260595134347_rgbf000206-resize_3-target.png,1000,3.515,1,4030,1000,meters,jsons/v1_VE1000_randls_10_rotated.json,970960,1111361,61,Man
12,471013,DepthScenes,duration_manipulation_targetAtFixation,jsons/v1_VE1000_randls_10_rotated.json,http://54.235.29.9/FacialAge/BNav_EC2/DepthDuration/v2_depth_duration_MTurk/v2_DepthDuration_HTML.html#289,289,1366,625,1366,768,8-29-2022,14-47-21,13,depth_duration_stimuli/002340_2014-06-28_20-05-46_260595134347_rgbf000113-resize_0/002340_2014-06-28_20-05-46_260595134347_rgbf000113-resize_0-target.png,1000,2.4735,1,4209,999,meters,jsons/v1_VE1000_randls_10_rotated.json,970960,1111361,61,Man
13,471013,DepthScenes,duration_manipulation_targetAtFixation,jsons/v1_VE1000_randls_10_rotated.json,http://54.235.29.9/FacialAge/BNav_EC2/DepthDuration/v2_depth_duration_MTurk/v2_DepthDuration_HTML.html#289,289,1366,625,1366,768,8-29-2022,14-47-21,14,depth_duration_stimuli/001016_2014-06-09_16-16-10_260595134347_rgbf000112-resize_5/001016_2014-06-09_16-16-10_260595134347_rgbf000112-resize_5-target.png,1000,1.6565,1,3917,1000,meters,jsons/v1_VE1000_randls_10_rotated.json,970960,1111361,61,Man
14,471013,DepthScenes,duration_manipulation_targetAtFixation,jsons/v1_VE1000_randls_10_rotated.json,http://54.235.29.9/FacialAge/BNav_EC2/DepthDuration/v2_depth_duration_MTurk/v2_DepthDuration_HTML.html#289,289,1366,625,1366,768,8-29-2022,14-47-21,15,depth_duration_stimuli/001584_2014-06-20_11-07-43_260595134347_rgbf000002-resize_1/001584_2014-06-20_11-07-43_260595134347_rgbf000002-resize_1-target.png,1000,3.53,1,4159,999,meters,jsons/v1_VE1000_randls_10_rotated.json,970960,1111361,61,Man
15,471013,DepthScenes,duration_manipulation_targetAtFixation,jsons/v1_VE1000_randls_10_rotated.json,http://54.235.29.9/FacialAge/BNav_EC2/DepthDuration/v2_depth_duration_MTurk/v2_DepthDuration_HTML.html#289,289,1366,625,1366,768,8-29-2022,14-47-21,16,depth_duration_stimuli/003621_2014-05-23_18-06-08_094959634447_rgbf000101-resize_1/003621_2014-05-23_18-06-08_094959634447_rgbf000101-resize_1-target.png,1000,3.9835,1,6598,1000,meters,jsons/v1_VE1000_randls_10_rotated.json,970960,1111361,61,Man
16,471013,DepthScenes,duration_manipulation_targetAtFixation,jsons/v1_VE1000_randls_10_rotated.json,http://54.235.29.9/FacialAge/BNav_EC2/DepthDuration/v2_depth_duration_MTurk/v2_DepthDuration_HTML.html#289,289,1366,625,1366,768,8-29-2022,14-47-21,17,depth_duration_stimuli/002103_2014-06-25_20-00-40_260595134347_rgbf000049-resize_0/002103_2014-06-25_20-00-40_260595134347_rgbf000049-resize_0-target.png,1000,4.105,1,5097,999,meters,jsons/v1_VE1000_randls_10_rotated.json,970960,1111361,61,Man
17,471013,DepthScenes,duration_manipulation_targetAtFixation,jsons/v1_VE1000_randls_10_rotated.json,http://54.235.29.9/FacialAge/BNav_EC2/DepthDuration/v2_depth_duration_MTurk/v2_DepthDuration_HTML.html#289,289,1366,625,1366,768,8-29-2022,14-47-21,18,depth_duration_stimuli/002039_2014-06-24_20-22-38_260595134347_rgbf000084-resize_1/002039_2014-06-24_20-22-38_260595134347_rgbf000084-resize_1-target.png,1000,4.408,1,4917,999,meters,jsons/v1_VE1000_randls_10_rotated.json,970960,1111361,61,Man
18,471013,DepthScenes,duration_manipulation_targetAtFixation,jsons/v1_VE1000_randls_10_rotated.json,http://54.235.29.9/FacialAge/BNav_EC2/DepthDuration/v2_depth_duration_MTurk/v2_DepthDuration_HTML.html#289,289,1366,625,1366,768,8-29-2022,14-47-21,19,depth_duration_stimuli/001498_2014-06-19_17-45-14_260595134347_rgbf000129-resize_4/001498_2014-06-19_17-45-14_260595134347_rgbf000129-resize-original.jpg,1000,1.4075,0,7721,1000,meters,jsons/v1_VE1000_randls_10_rotated.json,970960,1111361,61,Man
19,471013,DepthScenes,duration_manipulation_targetAtFixation,jsons/v1_VE1000_randls_10_rotated.json,http://54.235.29.9/FacialAge/BNav_EC2/DepthDuration/v2_depth_duration_MTurk/v2_DepthDuration_HTML.html#289,289,1366,625,1366,768,8-29-2022,14-47-21,20,depth_duration_stimuli/002660_2014-06-13_15-44-18_094959634447_rgbf001878-resize_2/002660_2014-06-13_15-44-18_094959634447_rgbf001878-resize_2-target.png,1000,3.576,1,4734,998,meters,jsons/v1_VE1000_randls_10_rotated.json,970960,1111361,61,Man
20,471013,DepthScenes,duration_manipulation_targetAtFixation,jsons/v1_VE1000_randls_10_rotated.json,http://54.235.29.9/FacialAge/BNav_EC2/DepthDuration/v2_depth_duration_MTurk/v2_DepthDuration_HTML.html#289,289,1366,625,1366,768,8-29-2022,14-47-21,21,depth_duration_stimuli/002153_2014-06-25_21-27-18_260595134347_rgbf000038-resize_5/002153_2014-06-25_21-27-18_260595134347_rgbf000038-resize_5-target.png,1000,2.505,1,13332,992,meters,jsons/v1_VE1000_randls_10_rotated.json,970960,1111361,61,Man
21,471013,DepthScenes,duration_manipulation_targetAtFixation,jsons/v1_VE1000_randls_10_rotated.json,http://54.235.29.9/FacialAge/BNav_EC2/DepthDuration/v2_depth_duration_MTurk/v2_DepthDuration_HTML.html#289,289,1366,625,1366,768,8-29-2022,14-47-21,22,depth_duration_stimuli/002209_2014-06-28_18-36-10_260595134347_rgbf000051-resize_1/002209_2014-06-28_18-36-10_260595134347_rgbf000051-resize_1-target.png,1000,2.057,1,7861,998,meters,jsons/v1_VE1000_randls_10_rotated.json,970960,1111361,61,Man
22,471013,DepthScenes,duration_manipulation_targetAtFixation,jsons/v1_VE1000_randls_10_rotated.json,http://54.235.29.9/FacialAge/BNav_EC2/DepthDuration/v2_depth_duration_MTurk/v2_DepthDuration_HTML.html#289,289,1366,625,1366,768,8-29-2022,14-47-21,23,depth_duration_stimuli/002763_2014-06-22_19-13-10_094959634447_rgbf000075-resize_4/002763_2014-06-22_19-13-10_094959634447_rgbf000075-resize_4-target.png,1000,1.68375,1,3735,979,meters,jsons/v1_VE1000_randls_10_rotated.json,970960,1111361,61,Man
23,471013,DepthScenes,duration_manipulation_targetAtFixation,jsons/v1_VE1000_randls_10_rotated.json,http://54.235.29.9/FacialAge/BNav_EC2/DepthDuration/v2_depth_duration_MTurk/v2_DepthDuration_HTML.html#289,289,1366,625,1366,768,8-29-2022,14-47-21,24,depth_duration_stimuli/002568_2014-06-24_13-59-21_094959634447_rgbf000062-resize_4/002568_2014-06-24_13-59-21_094959634447_rgbf000062-resize_4-target.png,1000,3.015,1,3837,999,meters,jsons/v1_VE1000_randls_10_rotated.json,970960,1111361,61,Man
24,471013,DepthScenes,duration_manipulation_targetAtFixation,jsons/v1_VE1000_randls_10_rotated.json,http://54.235.29.9/FacialAge/BNav_EC2/DepthDuration/v2_depth_duration_MTurk/v2_DepthDuration_HTML.html#289,289,1366,625,1366,768,8-29-2022,14-47-21,25,depth_duration_stimuli/003492_2014-05-21_15-50-55_094959634447_rgbf000828-resize_1/003492_2014-05-21_15-50-55_094959634447_rgbf000828-resize_1-target.png,1000,4.06875,1,3737,1000,meters,jsons/v1_VE1000_randls_10_rotated.json,970960,1111361,61,Man
25,471013,DepthScenes,duration_manipulation_targetAtFixation,jsons/v1_VE1000_randls_10_rotated.json,http://54.235.29.9/FacialAge/BNav_EC2/DepthDuration/v2_depth_duration_MTurk/v2_DepthDuration_HTML.html#289,289,1366,625,1366,768,8-29-2022,14-47-21,26,depth_duration_stimuli/003079_2014-06-15_15-18-20_094959634447_rgbf000152-resize_8/003079_2014-06-15_15-18-20_094959634447_rgbf000152-resize_8-target.png,1000,2.8775,1,3425,987,meters,jsons/v1_VE1000_randls_10_rotated.json,970960,1111361,61,Man
26,471013,DepthScenes,duration_manipulation_targetAtFixation,jsons/v1_VE1000_randls_10_rotated.json,http://54.235.29.9/FacialAge/BNav_EC2/DepthDuration/v2_depth_duration_MTurk/v2_DepthDuration_HTML.html#289,289,1366,625,1366,768,8-29-2022,14-47-21,27,depth_duration_stimuli/000506_2014-06-08_23-21-00_260595134347_rgbf000070-resize_7/000506_2014-06-08_23-21-00_260595134347_rgbf000070-resize_7-target.png,1000,4.0585,1,3519,996,meters,jsons/v1_VE1000_randls_10_rotated.json,970960,1111361,61,Man
27,471013,DepthScenes,duration_manipulation_targetAtFixation,jsons/v1_VE1000_randls_10_rotated.json,http://54.235.29.9/FacialAge/BNav_EC2/DepthDuration/v2_depth_duration_MTurk/v2_DepthDuration_HTML.html#289,289,1366,625,1366,768,8-29-2022,14-47-21,28,depth_duration_stimuli/003129_2014-05-12_10-48-10_094959634447_rgbf000100-resize_0/003129_2014-05-12_10-48-10_094959634447_rgbf000100-resize_0-target.png,1000,4.9305,1,4058,999,meters,jsons/v1_VE1000_randls_10_rotated.json,970960,1111361,61,Man
28,471013,DepthScenes,duration_manipulation_targetAtFixation,jsons/v1_VE1000_randls_10_rotated.json,http://54.235.29.9/FacialAge/BNav_EC2/DepthDuration/v2_depth_duration_MTurk/v2_DepthDuration_HTML.html#289,289,1366,625,1366,768,8-29-2022,14-47-21,29,depth_duration_stimuli/000414_2014-06-04_19-49-13_260595134347_rgbf000044-resize_0/000414_2014-06-04_19-49-13_260595134347_rgbf000044-resize_0-target.png,1000,4.329,1,3696,998,meters,jsons/v1_VE1000_randls_10_rotated.json,970960,1111361,61,Man
29,471013,DepthScenes,duration_manipulation_targetAtFixation,jsons/v1_VE1000_randls_10_rotated.json,http://54.235.29.9/FacialAge/BNav_EC2/DepthDuration/v2_depth_duration_MTurk/v2_DepthDuration_HTML.html#289,289,1366,625,1366,768,8-29-2022,14-47-21,30,depth_duration_stimuli/002072_2014-06-24_21-48-06_260595134347_rgbf000115-resize_0/002072_2014-06-24_21-48-06_260595134347_rgbf000115-resize-original.jpg,1000,4.702,0,6160,999,meters,jsons/v1_VE1000_randls_10_rotated.json,970960,1111361,61,Man
30,471013,DepthScenes,duration_manipulation_targetAtFixation,jsons/v1_VE1000_randls_10_rotated.json,http://54.235.29.9/FacialAge/BNav_EC2/DepthDuration/v2_depth_duration_MTurk/v2_DepthDuration_HTML.html#289,289,1366,625,1366,768,8-29-2022,14-47-21,31,depth_duration_stimuli/000780_2014-06-08_22-28-29_260595134347_rgbf000126-resize_1/000780_2014-06-08_22-28-29_260595134347_rgbf000126-resize_1-target.png,1000,3.3825,1,8479,999,meters,jsons/v1_VE1000_randls_10_rotated.json,970960,1111361,61,Man
31,471013,DepthScenes,duration_manipulation_targetAtFixation,jsons/v1_VE1000_randls_10_rotated.json,http://54.235.29.9/FacialAge/BNav_EC2/DepthDuration/v2_depth_duration_MTurk/v2_DepthDuration_HTML.html#289,289,1366,625,1366,768,8-29-2022,14-47-21,32,depth_duration_stimuli/002445_2014-06-28_20-32-16_260595134347_rgbf000029-resize_4/002445_2014-06-28_20-32-16_260595134347_rgbf000029-resize_4-target.png,1000,2.5315,1,4235,999,meters,jsons/v1_VE1000_randls_10_rotated.json,970960,1111361,61,Man
32,471013,DepthScenes,duration_manipulation_targetAtFixation,jsons/v1_VE1000_randls_10_rotated.json,http://54.235.29.9/FacialAge/BNav_EC2/DepthDuration/v2_depth_duration_MTurk/v2_DepthDuration_HTML.html#289,289,1366,625,1366,768,8-29-2022,14-47-21,33,depth_duration_stimuli/002750_2014-06-22_19-08-03_094959634447_rgbf000094-resize_4/002750_2014-06-22_19-08-03_094959634447_rgbf000094-resize_4-target.png,1000,2.354,1,4096,998,meters,jsons/v1_VE1000_randls_10_rotated.json,970960,1111361,61,Man
33,471013,DepthScenes,duration_manipulation_targetAtFixation,jsons/v1_VE1000_randls_10_rotated.json,http://54.235.29.9/FacialAge/BNav_EC2/DepthDuration/v2_depth_duration_MTurk/v2_DepthDuration_HTML.html#289,289,1366,625,1366,768,8-29-2022,14-47-21,34,depth_duration_stimuli/002549_2014-06-24_13-41-39_094959634447_rgbf000022-resize_3/002549_2014-06-24_13-41-39_094959634447_rgbf000022-resize_3-target.png,1000,1.476,1,3280,1000,meters,jsons/v1_VE1000_randls_10_rotated.json,970960,1111361,61,Man
34,471013,DepthScenes,duration_manipulation_targetAtFixation,jsons/v1_VE1000_randls_10_rotated.json,http://54.235.29.9/FacialAge/BNav_EC2/DepthDuration/v2_depth_duration_MTurk/v2_DepthDuration_HTML.html#289,289,1366,625,1366,768,8-29-2022,14-47-21,35,depth_duration_stimuli/001235_2014-06-17_16-37-36_260595134347_rgbf000084-resize_4/001235_2014-06-17_16-37-36_260595134347_rgbf000084-resize_4-target.png,1000,3.6605,1,3461,999,meters,jsons/v1_VE1000_randls_10_rotated.json,970960,1111361,61,Man
35,471013,DepthScenes,duration_manipulation_targetAtFixation,jsons/v1_VE1000_randls_10_rotated.json,http://54.235.29.9/FacialAge/BNav_EC2/DepthDuration/v2_depth_duration_MTurk/v2_DepthDuration_HTML.html#289,289,1366,625,1366,768,8-29-2022,14-47-21,36,depth_duration_stimuli/000788_2014-06-08_22-34-36_260595134347_rgbf000131-resize_1/000788_2014-06-08_22-34-36_260595134347_rgbf000131-resize_1-target.png,1000,3.359,1,4592,999,meters,jsons/v1_VE1000_randls_10_rotated.json,970960,1111361,61,Man
36,471013,DepthScenes,duration_manipulation_targetAtFixation,jsons/v1_VE1000_randls_10_rotated.json,http://54.235.29.9/FacialAge/BNav_EC2/DepthDuration/v2_depth_duration_MTurk/v2_DepthDuration_HTML.html#289,289,1366,625,1366,768,8-29-2022,14-47-21,37,depth_duration_stimuli/002995_2014-06-15_12-31-26_094959634447_rgbf000150-resize_1/002995_2014-06-15_12-31-26_094959634447_rgbf000150-resize_1-target.png,1000,3.8360000000000003,1,5920,999,meters,jsons/v1_VE1000_randls_10_rotated.json,970960,1111361,61,Man
37,471013,DepthScenes,duration_manipulation_targetAtFixation,jsons/v1_VE1000_randls_10_rotated.json,http://54.235.29.9/FacialAge/BNav_EC2/DepthDuration/v2_depth_duration_MTurk/v2_DepthDuration_HTML.html#289,289,1366,625,1366,768,8-29-2022,14-47-21,38,depth_duration_stimuli/002748_2014-06-22_19-07-22_094959634447_rgbf000078-resize_1/002748_2014-06-22_19-07-22_094959634447_rgbf000078-resize_1-target.png,1000,4.6705,1,3979,1000,meters,jsons/v1_VE1000_randls_10_rotated.json,970960,1111361,61,Man
38,471013,DepthScenes,duration_manipulation_targetAtFixation,jsons/v1_VE1000_randls_10_rotated.json,http://54.235.29.9/FacialAge/BNav_EC2/DepthDuration/v2_depth_duration_MTurk/v2_DepthDuration_HTML.html#289,289,1366,625,1366,768,8-29-2022,14-47-21,39,depth_duration_stimuli/000943_2014-06-09_19-31-07_260595134347_rgbf000128-resize_1/000943_2014-06-09_19-31-07_260595134347_rgbf000128-resize_1-target.png,1000,1.9765,1,4917,1000,meters,jsons/v1_VE1000_randls_10_rotated.json,970960,1111361,61,Man
39,471013,DepthScenes,duration_manipulation_targetAtFixation,jsons/v1_VE1000_randls_10_rotated.json,http://54.235.29.9/FacialAge/BNav_EC2/DepthDuration/v2_depth_duration_MTurk/v2_DepthDuration_HTML.html#289,289,1366,625,1366,768,8-29-2022,14-47-21,40,depth_duration_stimuli/003070_2014-06-15_14-58-27_094959634447_rgbf000150-resize_3/003070_2014-06-15_14-58-27_094959634447_rgbf000150-resize_3-target.png,1000,2.9415,1,3702,998,meters,jsons/v1_VE1000_randls_10_rotated.json,970960,1111361,61,Man
40,471013,DepthScenes,duration_manipulation_targetAtFixation,jsons/v1_VE1000_randls_10_rotated.json,http://54.235.29.9/FacialAge/BNav_EC2/DepthDuration/v2_depth_duration_MTurk/v2_DepthDuration_HTML.html#289,289,1366,625,1366,768,8-29-2022,14-47-21,41,depth_duration_stimuli/002805_2014-06-22_19-54-03_094959634447_rgbf000079-resize_1/002805_2014-06-22_19-54-03_094959634447_rgbf000079-resize_1-target.png,1000,3.1439999999999997,1,3973,1000,meters,jsons/v1_VE1000_randls_10_rotated.json,970960,1111361,61,Man
41,471013,DepthScenes,duration_manipulation_targetAtFixation,jsons/v1_VE1000_randls_10_rotated.json,http://54.235.29.9/FacialAge/BNav_EC2/DepthDuration/v2_depth_duration_MTurk/v2_DepthDuration_HTML.html#289,289,1366,625,1366,768,8-29-2022,14-47-21,42,depth_duration_stimuli/000906_2014-06-08_13-35-43_260595134347_rgbf000155-resize_1/000906_2014-06-08_13-35-43_260595134347_rgbf000155-resize_1-target.png,1000,2.8489999999999998,1,3701,1000,meters,jsons/v1_VE1000_randls_10_rotated.json,970960,1111361,61,Man
42,471013,DepthScenes,duration_manipulation_targetAtFixation,jsons/v1_VE1000_randls_10_rotated.json,http://54.235.29.9/FacialAge/BNav_EC2/DepthDuration/v2_depth_duration_MTurk/v2_DepthDuration_HTML.html#289,289,1366,625,1366,768,8-29-2022,14-47-21,43,depth_duration_stimuli/002344_2014-06-28_20-06-29_260595134347_rgbf000030-resize_1/002344_2014-06-28_20-06-29_260595134347_rgbf000030-resize_1-target.png,1000,1.5795,1,4400,1000,meters,jsons/v1_VE1000_randls_10_rotated.json,970960,1111361,61,Man
43,471013,DepthScenes,duration_manipulation_targetAtFixation,jsons/v1_VE1000_randls_10_rotated.json,http://54.235.29.9/FacialAge/BNav_EC2/DepthDuration/v2_depth_duration_MTurk/v2_DepthDuration_HTML.html#289,289,1366,625,1366,768,8-29-2022,14-47-21,44,depth_duration_stimuli/002725_2014-06-22_11-47-51_094959634447_rgbf000070-resize_1/002725_2014-06-22_11-47-51_094959634447_rgbf000070-resize_1-target.png,1000,2.195,1,3934,998,meters,jsons/v1_VE1000_randls_10_rotated.json,970960,1111361,61,Man
44,471013,DepthScenes,duration_manipulation_targetAtFixation,jsons/v1_VE1000_randls_10_rotated.json,http://54.235.29.9/FacialAge/BNav_EC2/DepthDuration/v2_depth_duration_MTurk/v2_DepthDuration_HTML.html#289,289,1366,625,1366,768,8-29-2022,14-47-21,45,depth_duration_stimuli/000734_2014-06-08_17-39-11_260595134347_rgbf000128-resize_2/000734_2014-06-08_17-39-11_260595134347_rgbf000128-resize_2-target.png,1000,4.098,1,3300,999,meters,jsons/v1_VE1000_randls_10_rotated.json,970960,1111361,61,Man
45,471013,DepthScenes,duration_manipulation_targetAtFixation,jsons/v1_VE1000_randls_10_rotated.json,http://54.235.29.9/FacialAge/BNav_EC2/DepthDuration/v2_depth_duration_MTurk/v2_DepthDuration_HTML.html#289,289,1366,625,1366,768,8-29-2022,14-47-21,46,depth_duration_stimuli/000739_2014-06-08_18-45-58_260595134347_rgbf000068-resize_1/000739_2014-06-08_18-45-58_260595134347_rgbf000068-resize_1-target.png,1000,3.534,1,3698,999,meters,jsons/v1_VE1000_randls_10_rotated.json,970960,1111361,61,Man
46,471013,DepthScenes,duration_manipulation_targetAtFixation,jsons/v1_VE1000_randls_10_rotated.json,http://54.235.29.9/FacialAge/BNav_EC2/DepthDuration/v2_depth_duration_MTurk/v2_DepthDuration_HTML.html#289,289,1366,625,1366,768,8-29-2022,14-47-21,47,depth_duration_stimuli/001650_2014-06-20_12-09-00_260595134347_rgbf000087-resize_3/001650_2014-06-20_12-09-00_260595134347_rgbf000087-resize_3-target.png,1000,1.9505,1,3718,998,meters,jsons/v1_VE1000_randls_10_rotated.json,970960,1111361,61,Man
47,471013,DepthScenes,duration_manipulation_targetAtFixation,jsons/v1_VE1000_randls_10_rotated.json,http://54.235.29.9/FacialAge/BNav_EC2/DepthDuration/v2_depth_duration_MTurk/v2_DepthDuration_HTML.html#289,289,1366,625,1366,768,8-29-2022,14-47-21,48,depth_duration_stimuli/000682_2014-06-08_23-14-58_260595134347_rgbf000041-resize_5/000682_2014-06-08_23-14-58_260595134347_rgbf000041-resize_5-target.png,1000,2.7239999999999998,1,3277,999,meters,jsons/v1_VE1000_randls_10_rotated.json,970960,1111361,61,Man
48,471013,DepthScenes,duration_manipulation_targetAtFixation,jsons/v1_VE1000_randls_10_rotated.json,http://54.235.29.9/FacialAge/BNav_EC2/DepthDuration/v2_depth_duration_MTurk/v2_DepthDuration_HTML.html#289,289,1366,625,1366,768,8-29-2022,14-47-21,49,depth_duration_stimuli/001170_2014-06-17_15-43-44_260595134347_rgbf000096-resize_6/001170_2014-06-17_15-43-44_260595134347_rgbf000096-resize-original.jpg,1000,1.1909999999999998,0,6676,999,meters,jsons/v1_VE1000_randls_10_rotated.json,970960,1111361,61,Man
49,471013,DepthScenes,duration_manipulation_targetAtFixation,jsons/v1_VE1000_randls_10_rotated.json,http://54.235.29.9/FacialAge/BNav_EC2/DepthDuration/v2_depth_duration_MTurk/v2_DepthDuration_HTML.html#289,289,1366,625,1366,768,8-29-2022,14-47-21,50,depth_duration_stimuli/002467_2014-06-28_20-38-07_260595134347_rgbf000026-resize_2/002467_2014-06-28_20-38-07_260595134347_rgbf000026-resize_2-target.png,1000,4.742,0,9098,999,meters,jsons/v1_VE1000_randls_10_rotated.json,970960,1111361,61,Man
50,471013,DepthScenes,duration_manipulation_targetAtFixation,jsons/v1_VE1000_randls_10_rotated.json,http://54.235.29.9/FacialAge/BNav_EC2/DepthDuration/v2_depth_duration_MTurk/v2_DepthDuration_HTML.html#289,289,1366,625,1366,768,8-29-2022,14-47-21,51,depth_duration_stimuli/002570_2014-06-24_13-59-54_094959634447_rgbf000059-resize_0/002570_2014-06-24_13-59-54_094959634447_rgbf000059-resize_0-target.png,1000,4.037,1,13103,998,meters,jsons/v1_VE1000_randls_10_rotated.json,970960,1111361,61,Man
51,471013,DepthScenes,duration_manipulation_targetAtFixation,jsons/v1_VE1000_randls_10_rotated.json,http://54.235.29.9/FacialAge/BNav_EC2/DepthDuration/v2_depth_duration_MTurk/v2_DepthDuration_HTML.html#289,289,1366,625,1366,768,8-29-2022,14-47-21,52,depth_duration_stimuli/000502_2014-06-08_23-02-32_260595134347_rgbf000063-resize_4/000502_2014-06-08_23-02-32_260595134347_rgbf000063-resize_4-target.png,1000,2.431,1,4736,999,meters,jsons/v1_VE1000_randls_10_rotated.json,970960,1111361,61,Man
52,471013,DepthScenes,duration_manipulation_targetAtFixation,jsons/v1_VE1000_randls_10_rotated.json,http://54.235.29.9/FacialAge/BNav_EC2/DepthDuration/v2_depth_duration_MTurk/v2_DepthDuration_HTML.html#289,289,1366,625,1366,768,8-29-2022,14-47-21,53,depth_duration_stimuli/001199_2014-06-17_16-03-48_260595134347_rgbf000077-resize_0/001199_2014-06-17_16-03-48_260595134347_rgbf000077-resize_0-target.png,1000,3.4375,1,6734,999,meters,jsons/v1_VE1000_randls_10_rotated.json,970960,1111361,61,Man
53,471013,DepthScenes,duration_manipulation_targetAtFixation,jsons/v1_VE1000_randls_10_rotated.json,http://54.235.29.9/FacialAge/BNav_EC2/DepthDuration/v2_depth_duration_MTurk/v2_DepthDuration_HTML.html#289,289,1366,625,1366,768,8-29-2022,14-47-21,54,depth_duration_stimuli/003010_2014-06-15_12-54-35_094959634447_rgbf000112-resize_0/003010_2014-06-15_12-54-35_094959634447_rgbf000112-resize_0-target.png,1000,3.1185,1,6537,999,meters,jsons/v1_VE1000_randls_10_rotated.json,970960,1111361,61,Man
54,471013,DepthScenes,duration_manipulation_targetAtFixation,jsons/v1_VE1000_randls_10_rotated.json,http://54.235.29.9/FacialAge/BNav_EC2/DepthDuration/v2_depth_duration_MTurk/v2_DepthDuration_HTML.html#289,289,1366,625,1366,768,8-29-2022,14-47-21,55,depth_duration_stimuli/001810_2014-06-26_20-51-35_260595134347_rgbf000040-resize_3/001810_2014-06-26_20-51-35_260595134347_rgbf000040-resize_3-target.png,1000,2.2525,1,4302,1000,meters,jsons/v1_VE1000_randls_10_rotated.json,970960,1111361,61,Man
55,471013,DepthScenes,duration_manipulation_targetAtFixation,jsons/v1_VE1000_randls_10_rotated.json,http://54.235.29.9/FacialAge/BNav_EC2/DepthDuration/v2_depth_duration_MTurk/v2_DepthDuration_HTML.html#289,289,1366,625,1366,768,8-29-2022,14-47-21,56,depth_duration_stimuli/000854_2014-06-09_19-43-13_260595134347_rgbf000066-resize_0/000854_2014-06-09_19-43-13_260595134347_rgbf000066-resize_0-target.png,1000,3.068,2,5877,999,meters,jsons/v1_VE1000_randls_10_rotated.json,970960,1111361,61,Man
56,471013,DepthScenes,duration_manipulation_targetAtFixation,jsons/v1_VE1000_randls_10_rotated.json,http://54.235.29.9/FacialAge/BNav_EC2/DepthDuration/v2_depth_duration_MTurk/v2_DepthDuration_HTML.html#289,289,1366,625,1366,768,8-29-2022,14-47-21,57,depth_duration_stimuli/000758_2014-06-08_22-05-08_260595134347_rgbf000085-resize_0/000758_2014-06-08_22-05-08_260595134347_rgbf000085-resize_0-target.png,1000,3.3810000000000002,1,9780,999,meters,jsons/v1_VE1000_randls_10_rotated.json,970960,1111361,61,Man
57,471013,DepthScenes,duration_manipulation_targetAtFixation,jsons/v1_VE1000_randls_10_rotated.json,http://54.235.29.9/FacialAge/BNav_EC2/DepthDuration/v2_depth_duration_MTurk/v2_DepthDuration_HTML.html#289,289,1366,625,1366,768,8-29-2022,14-47-21,58,depth_duration_stimuli/003338_2014-05-20_11-01-23_094959634447_rgbf000051-resize_6/003338_2014-05-20_11-01-23_094959634447_rgbf000051-resize_6-target.png,1000,1.693,1,6117,999,meters,jsons/v1_VE1000_randls_10_rotated.json,970960,1111361,61,Man
58,471013,DepthScenes,duration_manipulation_targetAtFixation,jsons/v1_VE1000_randls_10_rotated.json,http://54.235.29.9/FacialAge/BNav_EC2/DepthDuration/v2_depth_duration_MTurk/v2_DepthDuration_HTML.html#289,289,1366,625,1366,768,8-29-2022,14-47-21,59,depth_duration_stimuli/002509_2014-06-24_13-19-22_094959634447_rgbf000077-resize_0/002509_2014-06-24_13-19-22_094959634447_rgbf000077-resize_0-target.png,1000,1.3065,1,3475,998,meters,jsons/v1_VE1000_randls_10_rotated.json,970960,1111361,61,Man
59,471013,DepthScenes,duration_manipulation_targetAtFixation,jsons/v1_VE1000_randls_10_rotated.json,http://54.235.29.9/FacialAge/BNav_EC2/DepthDuration/v2_depth_duration_MTurk/v2_DepthDuration_HTML.html#289,289,1366,625,1366,768,8-29-2022,14-47-21,60,depth_duration_stimuli/000677_2014-06-08_23-10-32_260595134347_rgbf000158-resize_6/000677_2014-06-08_23-10-32_260595134347_rgbf000158-resize_6-target.png,1000,3.556,1,4797,999,meters,jsons/v1_VE1000_randls_10_rotated.json,970960,1111361,61,Man
60,471013,DepthScenes,duration_manipulation_targetAtFixation,jsons/v1_VE1000_randls_10_rotated.json,http://54.235.29.9/FacialAge/BNav_EC2/DepthDuration/v2_depth_duration_MTurk/v2_DepthDuration_HTML.html#289,289,1366,625,1366,768,8-29-2022,14-47-21,61,depth_duration_stimuli/001029_2014-06-08_13-17-57_260595134347_rgbf000065-resize_1/001029_2014-06-08_13-17-57_260595134347_rgbf000065-resize_1-target.png,1000,3.0835,1,8779,1000,meters,jsons/v1_VE1000_randls_10_rotated.json,970960,1111361,61,Man
61,471013,DepthScenes,duration_manipulation_targetAtFixation,jsons/v1_VE1000_randls_10_rotated.json,http://54.235.29.9/FacialAge/BNav_EC2/DepthDuration/v2_depth_duration_MTurk/v2_DepthDuration_HTML.html#289,289,1366,625,1366,768,8-29-2022,14-47-21,62,depth_duration_stimuli/001447_2014-06-19_17-00-32_260595134347_rgbf000082-resize_5/001447_2014-06-19_17-00-32_260595134347_rgbf000082-resize_5-target.png,1000,4.13775,1,3840,999,meters,jsons/v1_VE1000_randls_10_rotated.json,970960,1111361,61,Man
62,471013,DepthScenes,duration_manipulation_targetAtFixation,jsons/v1_VE1000_randls_10_rotated.json,http://54.235.29.9/FacialAge/BNav_EC2/DepthDuration/v2_depth_duration_MTurk/v2_DepthDuration_HTML.html#289,289,1366,625,1366,768,8-29-2022,14-47-21,63,depth_duration_stimuli/000447_2014-06-08_16-15-46_260595134347_rgbf000130-resize_1/000447_2014-06-08_16-15-46_260595134347_rgbf000130-resize_1-target.png,1000,4.479,1,3836,1000,meters,jsons/v1_VE1000_randls_10_rotated.json,970960,1111361,61,Man
63,471013,DepthScenes,duration_manipulation_targetAtFixation,jsons/v1_VE1000_randls_10_rotated.json,http://54.235.29.9/FacialAge/BNav_EC2/DepthDuration/v2_depth_duration_MTurk/v2_DepthDuration_HTML.html#289,289,1366,625,1366,768,8-29-2022,14-47-21,64,depth_duration_stimuli/000866_2014-06-09_20-45-42_260595134347_rgbf000139-resize_1/000866_2014-06-09_20-45-42_260595134347_rgbf000139-resize_1-target.png,1000,3.2155,1,3840,1000,meters,jsons/v1_VE1000_randls_10_rotated.json,970960,1111361,61,Man
64,471013,DepthScenes,duration_manipulation_targetAtFixation,jsons/v1_VE1000_randls_10_rotated.json,http://54.235.29.9/FacialAge/BNav_EC2/DepthDuration/v2_depth_duration_MTurk/v2_DepthDuration_HTML.html#289,289,1366,625,1366,768,8-29-2022,14-47-21,65,depth_duration_stimuli/002989_2014-06-15_12-25-03_094959634447_rgbf000150-resize_3/002989_2014-06-15_12-25-03_094959634447_rgbf000150-resize_3-target.png,1000,4.1975,1,4256,999,meters,jsons/v1_VE1000_randls_10_rotated.json,970960,1111361,61,Man
65,471013,DepthScenes,duration_manipulation_targetAtFixation,jsons/v1_VE1000_randls_10_rotated.json,http://54.235.29.9/FacialAge/BNav_EC2/DepthDuration/v2_depth_duration_MTurk/v2_DepthDuration_HTML.html#289,289,1366,625,1366,768,8-29-2022,14-47-21,66,depth_duration_stimuli/001540_2014-06-20_17-01-05_260595134347_rgbf000086-resize_2/001540_2014-06-20_17-01-05_260595134347_rgbf000086-resize-original.jpg,1000,1.459,1,3717,999,meters,jsons/v1_VE1000_randls_10_rotated.json,970960,1111361,61,Man
66,471013,DepthScenes,duration_manipulation_targetAtFixation,jsons/v1_VE1000_randls_10_rotated.json,http://54.235.29.9/FacialAge/BNav_EC2/DepthDuration/v2_depth_duration_MTurk/v2_DepthDuration_HTML.html#289,289,1366,625,1366,768,8-29-2022,14-47-21,67,depth_duration_stimuli/000635_2014-06-08_16-38-42_260595134347_rgbf000106-resize_1/000635_2014-06-08_16-38-42_260595134347_rgbf000106-resize_1-target.png,1000,2.074,1,6042,1001,meters,jsons/v1_VE1000_randls_10_rotated.json,970960,1111361,61,Man
67,471013,DepthScenes,duration_manipulation_targetAtFixation,jsons/v1_VE1000_randls_10_rotated.json,http://54.235.29.9/FacialAge/BNav_EC2/DepthDuration/v2_depth_duration_MTurk/v2_DepthDuration_HTML.html#289,289,1366,625,1366,768,8-29-2022,14-47-21,68,depth_duration_stimuli/002279_2014-06-28_18-55-32_260595134347_rgbf000040-resize_5/002279_2014-06-28_18-55-32_260595134347_rgbf000040-resize_5-target.png,1000,1.5043333333333,1,3737,998,meters,jsons/v1_VE1000_randls_10_rotated.json,970960,1111361,61,Man
68,471013,DepthScenes,duration_manipulation_targetAtFixation,jsons/v1_VE1000_randls_10_rotated.json,http://54.235.29.9/FacialAge/BNav_EC2/DepthDuration/v2_depth_duration_MTurk/v2_DepthDuration_HTML.html#289,289,1366,625,1366,768,8-29-2022,14-47-21,69,depth_duration_stimuli/002875_2014-06-01_15-19-00_094959634447_rgbf000151-resize_1/002875_2014-06-01_15-19-00_094959634447_rgbf000151-resize_1-target.png,1000,1.9675,1,3853,998,meters,jsons/v1_VE1000_randls_10_rotated.json,970960,1111361,61,Man
69,471013,DepthScenes,duration_manipulation_targetAtFixation,jsons/v1_VE1000_randls_10_rotated.json,http://54.235.29.9/FacialAge/BNav_EC2/DepthDuration/v2_depth_duration_MTurk/v2_DepthDuration_HTML.html#289,289,1366,625,1366,768,8-29-2022,14-47-21,70,depth_duration_stimuli/001011_2014-06-08_23-18-54_260595134347_rgbf000044-resize_4/001011_2014-06-08_23-18-54_260595134347_rgbf000044-resize_4-target.png,1000,2.4730000000000003,1,4063,999,meters,jsons/v1_VE1000_randls_10_rotated.json,970960,1111361,61,Man
70,471013,DepthScenes,duration_manipulation_targetAtFixation,jsons/v1_VE1000_randls_10_rotated.json,http://54.235.29.9/FacialAge/BNav_EC2/DepthDuration/v2_depth_duration_MTurk/v2_DepthDuration_HTML.html#289,289,1366,625,1366,768,8-29-2022,14-47-21,71,depth_duration_stimuli/003228_2014-05-14_13-42-35_094959634447_rgbf000101-resize_1/003228_2014-05-14_13-42-35_094959634447_rgbf000101-resize_1-target.png,1000,1.9680000000000002,1,4497,999,meters,jsons/v1_VE1000_randls_10_rotated.json,970960,1111361,61,Man
71,471013,DepthScenes,duration_manipulation_targetAtFixation,jsons/v1_VE1000_randls_10_rotated.json,http://54.235.29.9/FacialAge/BNav_EC2/DepthDuration/v2_depth_duration_MTurk/v2_DepthDuration_HTML.html#289,289,1366,625,1366,768,8-29-2022,14-47-21,72,depth_duration_stimuli/002600_2014-06-24_14-27-04_094959634447_rgbf000074-resize_2/002600_2014-06-24_14-27-04_094959634447_rgbf000074-resize_2-target.png,1000,2.7575,1,3873,999,meters,jsons/v1_VE1000_randls_10_rotated.json,970960,1111361,61,Man
72,471013,DepthScenes,duration_manipulation_targetAtFixation,jsons/v1_VE1000_randls_10_rotated.json,http://54.235.29.9/FacialAge/BNav_EC2/DepthDuration/v2_depth_duration_MTurk/v2_DepthDuration_HTML.html#289,289,1366,625,1366,768,8-29-2022,14-47-21,73,depth_duration_stimuli/000483_2014-06-09_20-41-45_260595134347_rgbf000116-resize_4/000483_2014-06-09_20-41-45_260595134347_rgbf000116-resize_4-target.png,1000,1.337,1,4697,999,meters,jsons/v1_VE1000_randls_10_rotated.json,970960,1111361,61,Man
73,471013,DepthScenes,duration_manipulation_targetAtFixation,jsons/v1_VE1000_randls_10_rotated.json,http://54.235.29.9/FacialAge/BNav_EC2/DepthDuration/v2_depth_duration_MTurk/v2_DepthDuration_HTML.html#289,289,1366,625,1366,768,8-29-2022,14-47-21,74,depth_duration_stimuli/000469_2014-06-09_19-42-10_260595134347_rgbf000081-resize_1/000469_2014-06-09_19-42-10_260595134347_rgbf000081-resize_1-target.png,1000,1.652,1,3519,1001,meters,jsons/v1_VE1000_randls_10_rotated.json,970960,1111361,61,Man
74,471013,DepthScenes,duration_manipulation_targetAtFixation,jsons/v1_VE1000_randls_10_rotated.json,http://54.235.29.9/FacialAge/BNav_EC2/DepthDuration/v2_depth_duration_MTurk/v2_DepthDuration_HTML.html#289,289,1366,625,1366,768,8-29-2022,14-47-21,75,depth_duration_stimuli/000665_2014-06-09_20-42-35_260595134347_rgbf000110-resize_1/000665_2014-06-09_20-42-35_260595134347_rgbf000110-resize_1-target.png,1000,3.057,1,5278,999,meters,jsons/v1_VE1000_randls_10_rotated.json,970960,1111361,61,Man
75,471013,DepthScenes,duration_manipulation_targetAtFixation,jsons/v1_VE1000_randls_10_rotated.json,http://54.235.29.9/FacialAge/BNav_EC2/DepthDuration/v2_depth_duration_MTurk/v2_DepthDuration_HTML.html#289,289,1366,625,1366,768,8-29-2022,14-47-21,76,depth_duration_stimuli/001150_2014-06-17_15-27-34_260595134347_rgbf000108-resize_2/001150_2014-06-17_15-27-34_260595134347_rgbf000108-resize_2-target.png,1000,4.0325,1,4041,999,meters,jsons/v1_VE1000_randls_10_rotated.json,970960,1111361,61,Man
76,471013,DepthScenes,duration_manipulation_targetAtFixation,jsons/v1_VE1000_randls_10_rotated.json,http://54.235.29.9/FacialAge/BNav_EC2/DepthDuration/v2_depth_duration_MTurk/v2_DepthDuration_HTML.html#289,289,1366,625,1366,768,8-29-2022,14-47-21,77,depth_duration_stimuli/002758_2014-06-22_19-11-20_094959634447_rgbf000128-resize_1/002758_2014-06-22_19-11-20_094959634447_rgbf000128-resize_1-target.png,1000,2.555,1,5136,999,meters,jsons/v1_VE1000_randls_10_rotated.json,970960,1111361,61,Man
77,471013,DepthScenes,duration_manipulation_targetAtFixation,jsons/v1_VE1000_randls_10_rotated.json,http://54.235.29.9/FacialAge/BNav_EC2/DepthDuration/v2_depth_duration_MTurk/v2_DepthDuration_HTML.html#289,289,1366,625,1366,768,8-29-2022,14-47-21,78,depth_duration_stimuli/002630_2014-06-24_14-47-50_094959634447_rgbf000055-resize_1/002630_2014-06-24_14-47-50_094959634447_rgbf000055-resize_1-target.png,1000,3.0095,1,7818,998,meters,jsons/v1_VE1000_randls_10_rotated.json,970960,1111361,61,Man
78,471013,DepthScenes,duration_manipulation_targetAtFixation,jsons/v1_VE1000_randls_10_rotated.json,http://54.235.29.9/FacialAge/BNav_EC2/DepthDuration/v2_depth_duration_MTurk/v2_DepthDuration_HTML.html#289,289,1366,625,1366,768,8-29-2022,14-47-21,79,depth_duration_stimuli/003048_2014-06-15_13-49-43_094959634447_rgbf000150-resize_1/003048_2014-06-15_13-49-43_094959634447_rgbf000150-resize_1-target.png,1000,4.0035,1,6738,1000,meters,jsons/v1_VE1000_randls_10_rotated.json,970960,1111361,61,Man
79,471013,DepthScenes,duration_manipulation_targetAtFixation,jsons/v1_VE1000_randls_10_rotated.json,http://54.235.29.9/FacialAge/BNav_EC2/DepthDuration/v2_depth_duration_MTurk/v2_DepthDuration_HTML.html#289,289,1366,625,1366,768,8-29-2022,14-47-21,80,depth_duration_stimuli/002043_2014-06-24_20-29-38_260595134347_rgbf000039-resize_4/002043_2014-06-24_20-29-38_260595134347_rgbf000039-resize_4-target.png,1000,2.8435,1,4141,999,meters,jsons/v1_VE1000_randls_10_rotated.json,970960,1111361,61,Man
80,471013,DepthScenes,duration_manipulation_targetAtFixation,jsons/v1_VE1000_randls_10_rotated.json,http://54.235.29.9/FacialAge/BNav_EC2/DepthDuration/v2_depth_duration_MTurk/v2_DepthDuration_HTML.html#289,289,1366,625,1366,768,8-29-2022,14-47-21,81,depth_duration_stimuli/001571_2014-06-20_17-21-32_260595134347_rgbf000089-resize_1/001571_2014-06-20_17-21-32_260595134347_rgbf000089-resize_1-target.png,1000,1.86,1,4097,999,meters,jsons/v1_VE1000_randls_10_rotated.json,970960,1111361,61,Man
81,471013,DepthScenes,duration_manipulation_targetAtFixation,jsons/v1_VE1000_randls_10_rotated.json,http://54.235.29.9/FacialAge/BNav_EC2/DepthDuration/v2_depth_duration_MTurk/v2_DepthDuration_HTML.html#289,289,1366,625,1366,768,8-29-2022,14-47-21,82,depth_duration_stimuli/002272_2014-06-28_18-53-56_260595134347_rgbf000067-resize_2/002272_2014-06-28_18-53-56_260595134347_rgbf000067-resize_2-target.png,1000,1.138,1,3959,1001,meters,jsons/v1_VE1000_randls_10_rotated.json,970960,1111361,61,Man
82,471013,DepthScenes,duration_manipulation_targetAtFixation,jsons/v1_VE1000_randls_10_rotated.json,http://54.235.29.9/FacialAge/BNav_EC2/DepthDuration/v2_depth_duration_MTurk/v2_DepthDuration_HTML.html#289,289,1366,625,1366,768,8-29-2022,14-47-21,83,depth_duration_stimuli/001828_2014-06-26_21-40-03_260595134347_rgbf000024-resize_0/001828_2014-06-26_21-40-03_260595134347_rgbf000024-resize_0-target.png,1000,4.8260000000000005,1,5274,1000,meters,jsons/v1_VE1000_randls_10_rotated.json,970960,1111361,61,Man
83,471013,DepthScenes,duration_manipulation_targetAtFixation,jsons/v1_VE1000_randls_10_rotated.json,http://54.235.29.9/FacialAge/BNav_EC2/DepthDuration/v2_depth_duration_MTurk/v2_DepthDuration_HTML.html#289,289,1366,625,1366,768,8-29-2022,14-47-21,84,depth_duration_stimuli/000009_2014-05-26_14-32-05_260595134347_rgbf000034-resize_3/000009_2014-05-26_14-32-05_260595134347_rgbf000034-resize_3-target.png,1000,3.8715,1,4419,1000,meters,jsons/v1_VE1000_randls_10_rotated.json,970960,1111361,61,Man
84,471013,DepthScenes,duration_manipulation_targetAtFixation,jsons/v1_VE1000_randls_10_rotated.json,http://54.235.29.9/FacialAge/BNav_EC2/DepthDuration/v2_depth_duration_MTurk/v2_DepthDuration_HTML.html#289,289,1366,625,1366,768,8-29-2022,14-47-21,85,depth_duration_stimuli/000457_2014-06-08_16-52-43_260595134347_rgbf000199-resize_1/000457_2014-06-08_16-52-43_260595134347_rgbf000199-resize_1-target.png,1000,3.6489999999999996,1,4760,999,meters,jsons/v1_VE1000_randls_10_rotated.json,970960,1111361,61,Man
85,471013,DepthScenes,duration_manipulation_targetAtFixation,jsons/v1_VE1000_randls_10_rotated.json,http://54.235.29.9/FacialAge/BNav_EC2/DepthDuration/v2_depth_duration_MTurk/v2_DepthDuration_HTML.html#289,289,1366,625,1366,768,8-29-2022,14-47-21,86,depth_duration_stimuli/000929_2014-06-09_16-33-19_260595134347_rgbf000139-resize_0/000929_2014-06-09_16-33-19_260595134347_rgbf000139-resize_0-target.png,1000,2.8680000000000003,1,4222,1001,meters,jsons/v1_VE1000_randls_10_rotated.json,970960,1111361,61,Man
86,471013,DepthScenes,duration_manipulation_targetAtFixation,jsons/v1_VE1000_randls_10_rotated.json,http://54.235.29.9/FacialAge/BNav_EC2/DepthDuration/v2_depth_duration_MTurk/v2_DepthDuration_HTML.html#289,289,1366,625,1366,768,8-29-2022,14-47-21,87,depth_duration_stimuli/000709_2014-06-08_13-51-55_260595134347_rgbf000068-resize_3/000709_2014-06-08_13-51-55_260595134347_rgbf000068-resize_3-target.png,1000,1.8030000000000002,1,3714,998,meters,jsons/v1_VE1000_randls_10_rotated.json,970960,1111361,61,Man
87,471013,DepthScenes,duration_manipulation_targetAtFixation,jsons/v1_VE1000_randls_10_rotated.json,http://54.235.29.9/FacialAge/BNav_EC2/DepthDuration/v2_depth_duration_MTurk/v2_DepthDuration_HTML.html#289,289,1366,625,1366,768,8-29-2022,14-47-21,88,depth_duration_stimuli/002057_2014-06-24_21-00-13_260595134347_rgbf000120-resize_1/002057_2014-06-24_21-00-13_260595134347_rgbf000120-resize_1-target.png,1000,2.967,1,3418,998,meters,jsons/v1_VE1000_randls_10_rotated.json,970960,1111361,61,Man
88,471013,DepthScenes,duration_manipulation_targetAtFixation,jsons/v1_VE1000_randls_10_rotated.json,http://54.235.29.9/FacialAge/BNav_EC2/DepthDuration/v2_depth_duration_MTurk/v2_DepthDuration_HTML.html#289,289,1366,625,1366,768,8-29-2022,14-47-21,89,depth_duration_stimuli/001516_2014-06-20_16-25-09_260595134347_rgbf000076-resize_2/001516_2014-06-20_16-25-09_260595134347_rgbf000076-resize_2-target.png,1000,1.7445,1,5337,998,meters,jsons/v1_VE1000_randls_10_rotated.json,970960,1111361,61,Man
89,471013,DepthScenes,duration_manipulation_targetAtFixation,jsons/v1_VE1000_randls_10_rotated.json,http://54.235.29.9/FacialAge/BNav_EC2/DepthDuration/v2_depth_duration_MTurk/v2_DepthDuration_HTML.html#289,289,1366,625,1366,768,8-29-2022,14-47-21,90,depth_duration_stimuli/002118_2014-06-25_20-32-08_260595134347_rgbf000078-resize_1/002118_2014-06-25_20-32-08_260595134347_rgbf000078-resize_1-target.png,1000,2.6460000000000004,1,4100,1000,meters,jsons/v1_VE1000_randls_10_rotated.json,970960,1111361,61,Man
90,471013,DepthScenes,duration_manipulation_targetAtFixation,jsons/v1_VE1000_randls_10_rotated.json,http://54.235.29.9/FacialAge/BNav_EC2/DepthDuration/v2_depth_duration_MTurk/v2_DepthDuration_HTML.html#289,289,1366,625,1366,768,8-29-2022,14-47-21,91,depth_duration_stimuli/001032_2014-06-08_13-23-17_260595134347_rgbf000021-resize_3/001032_2014-06-08_13-23-17_260595134347_rgbf000021-resize_3-target.png,1000,3.2725,1,4557,999,meters,jsons/v1_VE1000_randls_10_rotated.json,970960,1111361,61,Man
91,471013,DepthScenes,duration_manipulation_targetAtFixation,jsons/v1_VE1000_randls_10_rotated.json,http://54.235.29.9/FacialAge/BNav_EC2/DepthDuration/v2_depth_duration_MTurk/v2_DepthDuration_HTML.html#289,289,1366,625,1366,768,8-29-2022,14-47-21,92,depth_duration_stimuli/001059_2014-06-08_21-53-27_260595134347_rgbf000061-resize_4/001059_2014-06-08_21-53-27_260595134347_rgbf000061-resize_4-target.png,1000,2.4185,1,3658,1000,meters,jsons/v1_VE1000_randls_10_rotated.json,970960,1111361,61,Man
92,471013,DepthScenes,duration_manipulation_targetAtFixation,jsons/v1_VE1000_randls_10_rotated.json,http://54.235.29.9/FacialAge/BNav_EC2/DepthDuration/v2_depth_duration_MTurk/v2_DepthDuration_HTML.html#289,289,1366,625,1366,768,8-29-2022,14-47-21,93,depth_duration_stimuli/001052_2014-06-08_18-24-54_260595134347_rgbf000130-resize_1/001052_2014-06-08_18-24-54_260595134347_rgbf000130-resize_1-target.png,1000,4.1045,1,3417,999,meters,jsons/v1_VE1000_randls_10_rotated.json,970960,1111361,61,Man
93,471013,DepthScenes,duration_manipulation_targetAtFixation,jsons/v1_VE1000_randls_10_rotated.json,http://54.235.29.9/FacialAge/BNav_EC2/DepthDuration/v2_depth_duration_MTurk/v2_DepthDuration_HTML.html#289,289,1366,625,1366,768,8-29-2022,14-47-21,94,depth_duration_stimuli/002988_2014-06-15_12-24-20_094959634447_rgbf000150-resize_1/002988_2014-06-15_12-24-20_094959634447_rgbf000150-resize_1-target.png,1000,4.7669999999999995,1,4180,1000,meters,jsons/v1_VE1000_randls_10_rotated.json,970960,1111361,61,Man
94,471013,DepthScenes,duration_manipulation_targetAtFixation,jsons/v1_VE1000_randls_10_rotated.json,http://54.235.29.9/FacialAge/BNav_EC2/DepthDuration/v2_depth_duration_MTurk/v2_DepthDuration_HTML.html#289,289,1366,625,1366,768,8-29-2022,14-47-21,95,depth_duration_stimuli/001617_2014-06-20_11-35-32_260595134347_rgbf000066-resize_1/001617_2014-06-20_11-35-32_260595134347_rgbf000066-resize_1-target.png,1000,3.7910000000000004,1,4056,999,meters,jsons/v1_VE1000_randls_10_rotated.json,970960,1111361,61,Man
95,471013,DepthScenes,duration_manipulation_targetAtFixation,jsons/v1_VE1000_randls_10_rotated.json,http://54.235.29.9/FacialAge/BNav_EC2/DepthDuration/v2_depth_duration_MTurk/v2_DepthDuration_HTML.html#289,289,1366,625,1366,768,8-29-2022,14-47-21,96,depth_duration_stimuli/001806_2014-06-26_20-50-20_260595134347_rgbf000091-resize_1/001806_2014-06-26_20-50-20_260595134347_rgbf000091-resize_1-target.png,1000,2.7305,1,9740,999,meters,jsons/v1_VE1000_randls_10_rotated.json,970960,1111361,61,Man
96,471013,DepthScenes,duration_manipulation_targetAtFixation,jsons/v1_VE1000_randls_10_rotated.json,http://54.235.29.9/FacialAge/BNav_EC2/DepthDuration/v2_depth_duration_MTurk/v2_DepthDuration_HTML.html#289,289,1366,625,1366,768,8-29-2022,14-47-21,97,depth_duration_stimuli/002414_2014-06-28_20-24-58_260595134347_rgbf000067-resize_4/002414_2014-06-28_20-24-58_260595134347_rgbf000067-resize_4-target.png,1000,4.363,1,4075,999,meters,jsons/v1_VE1000_randls_10_rotated.json,970960,1111361,61,Man
97,471013,DepthScenes,duration_manipulation_targetAtFixation,jsons/v1_VE1000_randls_10_rotated.json,http://54.235.29.9/FacialAge/BNav_EC2/DepthDuration/v2_depth_duration_MTurk/v2_DepthDuration_HTML.html#289,289,1366,625,1366,768,8-29-2022,14-47-21,98,depth_duration_stimuli/000773_2014-06-08_22-24-54_260595134347_rgbf000093-resize_1/000773_2014-06-08_22-24-54_260595134347_rgbf000093-resize_1-target.png,1000,4.973,1,4499,1001,meters,jsons/v1_VE1000_randls_10_rotated.json,970960,1111361,61,Man
98,471013,DepthScenes,duration_manipulation_targetAtFixation,jsons/v1_VE1000_randls_10_rotated.json,http://54.235.29.9/FacialAge/BNav_EC2/DepthDuration/v2_depth_duration_MTurk/v2_DepthDuration_HTML.html#289,289,1366,625,1366,768,8-29-2022,14-47-21,99,depth_duration_stimuli/001222_2014-06-17_16-24-06_260595134347_rgbf000073-resize_0/001222_2014-06-17_16-24-06_260595134347_rgbf000073-resize-original.jpg,1000,1.4385,1,4339,999,meters,jsons/v1_VE1000_randls_10_rotated.json,970960,1111361,61,Man
99,471013,DepthScenes,duration_manipulation_targetAtFixation,jsons/v1_VE1000_randls_10_rotated.json,http://54.235.29.9/FacialAge/BNav_EC2/DepthDuration/v2_depth_duration_MTurk/v2_DepthDuration_HTML.html#289,289,1366,625,1366,768,8-29-2022,14-47-21,100,depth_duration_stimuli/000556_2014-06-09_22-42-56_260595134347_rgbf000214-resize_1/000556_2014-06-09_22-42-56_260595134347_rgbf000214-resize_1-target.png,1000,4.8415,1,9895,1000,meters,jsons/v1_VE1000_randls_10_rotated.json,970960,1111361,61,Man
100,471013,DepthScenes,duration_manipulation_targetAtFixation,jsons/v1_VE1000_randls_10_rotated.json,http://54.235.29.9/FacialAge/BNav_EC2/DepthDuration/v2_depth_duration_MTurk/v2_DepthDuration_HTML.html#289,289,1366,625,1366,768,8-29-2022,14-47-21,101,depth_duration_stimuli/001158_2014-06-17_15-32-16_260595134347_rgbf000138-resize_2/001158_2014-06-17_15-32-16_260595134347_rgbf000138-resize_2-target.png,1000,4.5315,1,3878,1000,meters,jsons/v1_VE1000_randls_10_rotated.json,970960,1111361,61,Man
101,471013,DepthScenes,duration_manipulation_targetAtFixation,jsons/v1_VE1000_randls_10_rotated.json,http://54.235.29.9/FacialAge/BNav_EC2/DepthDuration/v2_depth_duration_MTurk/v2_DepthDuration_HTML.html#289,289,1366,625,1366,768,8-29-2022,14-47-21,102,depth_duration_stimuli/000691_2014-06-08_13-08-50_260595134347_rgbf000132-resize_3/000691_2014-06-08_13-08-50_260595134347_rgbf000132-resize_3-target.png,1000,4.1530000000000005,1,5370,1000,meters,jsons/v1_VE1000_randls_10_rotated.json,970960,1111361,61,Man
102,471013,DepthScenes,duration_manipulation_targetAtFixation,jsons/v1_VE1000_randls_10_rotated.json,http://54.235.29.9/FacialAge/BNav_EC2/DepthDuration/v2_depth_duration_MTurk/v2_DepthDuration_HTML.html#289,289,1366,625,1366,768,8-29-2022,14-47-21,103,depth_duration_stimuli/002213_2014-06-28_18-37-58_260595134347_rgbf000055-resize_1/002213_2014-06-28_18-37-58_260595134347_rgbf000055-resize_1-target.png,1000,3.62,1,3869,1000,meters,jsons/v1_VE1000_randls_10_rotated.json,970960,1111361,61,Man
103,471013,DepthScenes,duration_manipulation_targetAtFixation,jsons/v1_VE1000_randls_10_rotated.json,http://54.235.29.9/FacialAge/BNav_EC2/DepthDuration/v2_depth_duration_MTurk/v2_DepthDuration_HTML.html#289,289,1366,625,1366,768,8-29-2022,14-47-21,104,depth_duration_stimuli/002953_2014-06-08_17-32-18_094959634447_rgbf000059-resize_5/002953_2014-06-08_17-32-18_094959634447_rgbf000059-resize_5-target.png,1000,1.551,1,4747,1001,meters,jsons/v1_VE1000_randls_10_rotated.json,970960,1111361,61,Man
104,471013,DepthScenes,duration_manipulation_targetAtFixation,jsons/v1_VE1000_randls_10_rotated.json,http://54.235.29.9/FacialAge/BNav_EC2/DepthDuration/v2_depth_duration_MTurk/v2_DepthDuration_HTML.html#289,289,1366,625,1366,768,8-29-2022,14-47-21,105,depth_duration_stimuli/000878_2014-06-08_22-52-45_260595134347_rgbf000045-resize_2/000878_2014-06-08_22-52-45_260595134347_rgbf000045-resize_2-target.png,1000,2.092,1,4384,1000,meters,jsons/v1_VE1000_randls_10_rotated.json,970960,1111361,61,Man
105,471013,DepthScenes,duration_manipulation_targetAtFixation,jsons/v1_VE1000_randls_10_rotated.json,http://54.235.29.9/FacialAge/BNav_EC2/DepthDuration/v2_depth_duration_MTurk/v2_DepthDuration_HTML.html#289,289,1366,625,1366,768,8-29-2022,14-47-21,106,depth_duration_stimuli/002444_2014-06-28_20-32-08_260595134347_rgbf000027-resize_0/002444_2014-06-28_20-32-08_260595134347_rgbf000027-resize_0-target.png,1000,4.388999999999999,1,5642,1001,meters,jsons/v1_VE1000_randls_10_rotated.json,970960,1111361,61,Man
106,471013,DepthScenes,duration_manipulation_targetAtFixation,jsons/v1_VE1000_randls_10_rotated.json,http://54.235.29.9/FacialAge/BNav_EC2/DepthDuration/v2_depth_duration_MTurk/v2_DepthDuration_HTML.html#289,289,1366,625,1366,768,8-29-2022,14-47-21,107,depth_duration_stimuli/000436_2014-06-09_22-25-11_260595134347_rgbf000137-resize_1/000436_2014-06-09_22-25-11_260595134347_rgbf000137-resize_1-target.png,1000,4.0705,1,4121,999,meters,jsons/v1_VE1000_randls_10_rotated.json,970960,1111361,61,Man
107,471013,DepthScenes,duration_manipulation_targetAtFixation,jsons/v1_VE1000_randls_10_rotated.json,http://54.235.29.9/FacialAge/BNav_EC2/DepthDuration/v2_depth_duration_MTurk/v2_DepthDuration_HTML.html#289,289,1366,625,1366,768,8-29-2022,14-47-21,108,depth_duration_stimuli/000749_2014-06-08_21-55-06_260595134347_rgbf000070-resize_2/000749_2014-06-08_21-55-06_260595134347_rgbf000070-resize_2-target.png,1000,2.331,1,11097,999,meters,jsons/v1_VE1000_randls_10_rotated.json,970960,1111361,61,Man
108,471013,DepthScenes,duration_manipulation_targetAtFixation,jsons/v1_VE1000_randls_10_rotated.json,http://54.235.29.9/FacialAge/BNav_EC2/DepthDuration/v2_depth_duration_MTurk/v2_DepthDuration_HTML.html#289,289,1366,625,1366,768,8-29-2022,14-47-21,109,depth_duration_stimuli/002788_2014-06-22_19-36-03_094959634447_rgbf000088-resize_2/002788_2014-06-22_19-36-03_094959634447_rgbf000088-resize_2-target.png,1000,1.6465,1,3658,1000,meters,jsons/v1_VE1000_randls_10_rotated.json,970960,1111361,61,Man
109,471013,DepthScenes,duration_manipulation_targetAtFixation,jsons/v1_VE1000_randls_10_rotated.json,http://54.235.29.9/FacialAge/BNav_EC2/DepthDuration/v2_depth_duration_MTurk/v2_DepthDuration_HTML.html#289,289,1366,625,1366,768,8-29-2022,14-47-21,110,depth_duration_stimuli/000409_2014-06-04_19-23-33_260595134347_rgbf000067-resize_0/000409_2014-06-04_19-23-33_260595134347_rgbf000067-resize_0-target.png,1000,3.7335,1,4260,1000,meters,jsons/v1_VE1000_randls_10_rotated.json,970960,1111361,61,Man
110,471013,DepthScenes,duration_manipulation_targetAtFixation,jsons/v1_VE1000_randls_10_rotated.json,http://54.235.29.9/FacialAge/BNav_EC2/DepthDuration/v2_depth_duration_MTurk/v2_DepthDuration_HTML.html#289,289,1366,625,1366,768,8-29-2022,14-47-21,111,depth_duration_stimuli/002663_2014-06-13_15-50-26_094959634447_rgbf000075-resize_1/002663_2014-06-13_15-50-26_094959634447_rgbf000075-resize_1-target.png,1000,4.7495,1,4179,1001,meters,jsons/v1_VE1000_randls_10_rotated.json,970960,1111361,61,Man
111,471013,DepthScenes,duration_manipulation_targetAtFixation,jsons/v1_VE1000_randls_10_rotated.json,http://54.235.29.9/FacialAge/BNav_EC2/DepthDuration/v2_depth_duration_MTurk/v2_DepthDuration_HTML.html#289,289,1366,625,1366,768,8-29-2022,14-47-21,112,depth_duration_stimuli/001450_2014-06-19_17-02-03_260595134347_rgbf000203-resize_4/001450_2014-06-19_17-02-03_260595134347_rgbf000203-resize_4-target.png,1000,4.0106666666667,1,4427,999,meters,jsons/v1_VE1000_randls_10_rotated.json,970960,1111361,61,Man
112,471013,DepthScenes,duration_manipulation_targetAtFixation,jsons/v1_VE1000_randls_10_rotated.json,http://54.235.29.9/FacialAge/BNav_EC2/DepthDuration/v2_depth_duration_MTurk/v2_DepthDuration_HTML.html#289,289,1366,625,1366,768,8-29-2022,14-47-21,113,depth_duration_stimuli/001449_2014-06-19_17-01-27_260595134347_rgbf000116-resize_2/001449_2014-06-19_17-01-27_260595134347_rgbf000116-resize_2-target.png,1000,3.452,1,7027,998,meters,jsons/v1_VE1000_randls_10_rotated.json,970960,1111361,61,Man
113,471013,DepthScenes,duration_manipulation_targetAtFixation,jsons/v1_VE1000_randls_10_rotated.json,http://54.235.29.9/FacialAge/BNav_EC2/DepthDuration/v2_depth_duration_MTurk/v2_DepthDuration_HTML.html#289,289,1366,625,1366,768,8-29-2022,14-47-21,114,depth_duration_stimuli/002199_2014-06-28_18-33-56_260595134347_rgbf000074-resize_0/002199_2014-06-28_18-33-56_260595134347_rgbf000074-resize_0-target.png,1000,1.996,1,8317,998,meters,jsons/v1_VE1000_randls_10_rotated.json,970960,1111361,61,Man
114,471013,DepthScenes,duration_manipulation_targetAtFixation,jsons/v1_VE1000_randls_10_rotated.json,http://54.235.29.9/FacialAge/BNav_EC2/DepthDuration/v2_depth_duration_MTurk/v2_DepthDuration_HTML.html#289,289,1366,625,1366,768,8-29-2022,14-47-21,115,depth_duration_stimuli/001056_2014-06-08_18-46-44_260595134347_rgbf000068-resize_0/001056_2014-06-08_18-46-44_260595134347_rgbf000068-resize_0-target.png,1000,2.6625,1,6241,999,meters,jsons/v1_VE1000_randls_10_rotated.json,970960,1111361,61,Man
115,471013,DepthScenes,duration_manipulation_targetAtFixation,jsons/v1_VE1000_randls_10_rotated.json,http://54.235.29.9/FacialAge/BNav_EC2/DepthDuration/v2_depth_duration_MTurk/v2_DepthDuration_HTML.html#289,289,1366,625,1366,768,8-29-2022,14-47-21,116,depth_duration_stimuli/000191_2014-05-12_17-07-38_260595134347_rgbf000199-resize_0/000191_2014-05-12_17-07-38_260595134347_rgbf000199-resize_0-target.png,1000,3.7995,1,4558,1002,meters,jsons/v1_VE1000_randls_10_rotated.json,970960,1111361,61,Man
116,471013,DepthScenes,duration_manipulation_targetAtFixation,jsons/v1_VE1000_randls_10_rotated.json,http://54.235.29.9/FacialAge/BNav_EC2/DepthDuration/v2_depth_duration_MTurk/v2_DepthDuration_HTML.html#289,289,1366,625,1366,768,8-29-2022,14-47-21,117,depth_duration_stimuli/000493_2014-06-09_21-01-18_260595134347_rgbf000196-resize_3/000493_2014-06-09_21-01-18_260595134347_rgbf000196-resize_3-target.png,1000,3.44,1,4659,1003,meters,jsons/v1_VE1000_randls_10_rotated.json,970960,1111361,61,Man
117,471013,DepthScenes,duration_manipulation_targetAtFixation,jsons/v1_VE1000_randls_10_rotated.json,http://54.235.29.9/FacialAge/BNav_EC2/DepthDuration/v2_depth_duration_MTurk/v2_DepthDuration_HTML.html#289,289,1366,625,1366,768,8-29-2022,14-47-21,118,depth_duration_stimuli/002637_2014-06-24_14-51-13_094959634447_rgbf000066-resize_4/002637_2014-06-24_14-51-13_094959634447_rgbf000066-resize_4-target.png,1000,1.9955,1,3712,998,meters,jsons/v1_VE1000_randls_10_rotated.json,970960,1111361,61,Man
118,471013,DepthScenes,duration_manipulation_targetAtFixation,jsons/v1_VE1000_randls_10_rotated.json,http://54.235.29.9/FacialAge/BNav_EC2/DepthDuration/v2_depth_duration_MTurk/v2_DepthDuration_HTML.html#289,289,1366,625,1366,768,8-29-2022,14-47-21,119,depth_duration_stimuli/003534_2014-05-22_15-06-10_094959634447_rgbf000102-resize_4/003534_2014-05-22_15-06-10_094959634447_rgbf000102-resize_4-target.png,1000,1.426,1,3977,999,meters,jsons/v1_VE1000_randls_10_rotated.json,970960,1111361,61,Man
119,471013,DepthScenes,duration_manipulation_targetAtFixation,jsons/v1_VE1000_randls_10_rotated.json,http://54.235.29.9/FacialAge/BNav_EC2/DepthDuration/v2_depth_duration_MTurk/v2_DepthDuration_HTML.html#289,289,1366,625,1366,768,8-29-2022,14-47-21,120,depth_duration_stimuli/000787_2014-06-08_22-33-53_260595134347_rgbf000175-resize_1/000787_2014-06-08_22-33-53_260595134347_rgbf000175-resize-original.jpg,1000,4.784,0,14509,999,meters,jsons/v1_VE1000_randls_10_rotated.json,970960,1111361,61,Man
120,471013,DepthScenes,duration_manipulation_targetAtFixation,jsons/v1_VE1000_randls_10_rotated.json,http://54.235.29.9/FacialAge/BNav_EC2/DepthDuration/v2_depth_duration_MTurk/v2_DepthDuration_HTML.html#289,289,1366,625,1366,768,8-29-2022,14-47-21,121,depth_duration_stimuli/001094_2014-06-15_17-36-00_260595134347_rgbf000205-resize_0/001094_2014-06-15_17-36-00_260595134347_rgbf000205-resize_0-target.png,1000,4.2175,1,4368,998,meters,jsons/v1_VE1000_randls_10_rotated.json,970960,1111361,61,Man
121,471013,DepthScenes,duration_manipulation_targetAtFixation,jsons/v1_VE1000_randls_10_rotated.json,http://54.235.29.9/FacialAge/BNav_EC2/DepthDuration/v2_depth_duration_MTurk/v2_DepthDuration_HTML.html#289,289,1366,625,1366,768,8-29-2022,14-47-21,122,depth_duration_stimuli/000692_2014-06-08_13-09-42_260595134347_rgbf000199-resize_2/000692_2014-06-08_13-09-42_260595134347_rgbf000199-resize_2-target.png,1000,3.661,1,3818,1003,meters,jsons/v1_VE1000_randls_10_rotated.json,970960,1111361,61,Man
122,471013,DepthScenes,duration_manipulation_targetAtFixation,jsons/v1_VE1000_randls_10_rotated.json,http://54.235.29.9/FacialAge/BNav_EC2/DepthDuration/v2_depth_duration_MTurk/v2_DepthDuration_HTML.html#289,289,1366,625,1366,768,8-29-2022,14-47-21,123,depth_duration_stimuli/001214_2014-06-17_16-13-55_260595134347_rgbf000111-resize_0/001214_2014-06-17_16-13-55_260595134347_rgbf000111-resize_0-target.png,1000,2.6505,1,3416,998,meters,jsons/v1_VE1000_randls_10_rotated.json,970960,1111361,61,Man
123,471013,DepthScenes,duration_manipulation_targetAtFixation,jsons/v1_VE1000_randls_10_rotated.json,http://54.235.29.9/FacialAge/BNav_EC2/DepthDuration/v2_depth_duration_MTurk/v2_DepthDuration_HTML.html#289,289,1366,625,1366,768,8-29-2022,14-47-21,124,depth_duration_stimuli/000810_2014-06-08_17-20-01_260595134347_rgbf000105-resize_0/000810_2014-06-08_17-20-01_260595134347_rgbf000105-resize_0-target.png,1000,1.4865,1,11960,1001,meters,jsons/v1_VE1000_randls_10_rotated.json,970960,1111361,61,Man
124,471013,DepthScenes,duration_manipulation_targetAtFixation,jsons/v1_VE1000_randls_10_rotated.json,http://54.235.29.9/FacialAge/BNav_EC2/DepthDuration/v2_depth_duration_MTurk/v2_DepthDuration_HTML.html#289,289,1366,625,1366,768,8-29-2022,14-47-21,125,depth_duration_stimuli/003083_2014-06-15_15-21-03_094959634447_rgbf000063-resize_1/003083_2014-06-15_15-21-03_094959634447_rgbf000063-resize_1-target.png,1000,4.1405,1,6495,999,meters,jsons/v1_VE1000_randls_10_rotated.json,970960,1111361,61,Man
125,471013,DepthScenes,duration_manipulation_targetAtFixation,jsons/v1_VE1000_randls_10_rotated.json,http://54.235.29.9/FacialAge/BNav_EC2/DepthDuration/v2_depth_duration_MTurk/v2_DepthDuration_HTML.html#289,289,1366,625,1366,768,8-29-2022,14-47-21,126,depth_duration_stimuli/000486_2014-06-09_20-47-20_260595134347_rgbf000143-resize_2/000486_2014-06-09_20-47-20_260595134347_rgbf000143-resize_2-target.png,1000,4.8325,1,4024,1003,meters,jsons/v1_VE1000_randls_10_rotated.json,970960,1111361,61,Man
126,471013,DepthScenes,duration_manipulation_targetAtFixation,jsons/v1_VE1000_randls_10_rotated.json,http://54.235.29.9/FacialAge/BNav_EC2/DepthDuration/v2_depth_duration_MTurk/v2_DepthDuration_HTML.html#289,289,1366,625,1366,768,8-29-2022,14-47-21,127,depth_duration_stimuli/003587_2014-05-23_16-48-02_094959634447_rgbf002384-resize_2/003587_2014-05-23_16-48-02_094959634447_rgbf002384-resize_2-target.png,1000,1.357,1,9917,1000,meters,jsons/v1_VE1000_randls_10_rotated.json,970960,1111361,61,Man
127,471013,DepthScenes,duration_manipulation_targetAtFixation,jsons/v1_VE1000_randls_10_rotated.json,http://54.235.29.9/FacialAge/BNav_EC2/DepthDuration/v2_depth_duration_MTurk/v2_DepthDuration_HTML.html#289,289,1366,625,1366,768,8-29-2022,14-47-21,128,depth_duration_stimuli/001167_2014-06-17_15-38-07_260595134347_rgbf000108-resize_0/001167_2014-06-17_15-38-07_260595134347_rgbf000108-resize_0-target.png,1000,1.8505,1,23946,990,meters,jsons/v1_VE1000_randls_10_rotated.json,970960,1111361,61,Man
128,471013,DepthScenes,duration_manipulation_targetAtFixation,jsons/v1_VE1000_randls_10_rotated.json,http://54.235.29.9/FacialAge/BNav_EC2/DepthDuration/v2_depth_duration_MTurk/v2_DepthDuration_HTML.html#289,289,1366,625,1366,768,8-29-2022,14-47-21,129,depth_duration_stimuli/001392_2014-06-19_16-07-59_260595134347_rgbf000046-resize_1/001392_2014-06-19_16-07-59_260595134347_rgbf000046-resize_1-target.png,1000,4.135,1,4197,999,meters,jsons/v1_VE1000_randls_10_rotated.json,970960,1111361,61,Man
129,471013,DepthScenes,duration_manipulation_targetAtFixation,jsons/v1_VE1000_randls_10_rotated.json,http://54.235.29.9/FacialAge/BNav_EC2/DepthDuration/v2_depth_duration_MTurk/v2_DepthDuration_HTML.html#289,289,1366,625,1366,768,8-29-2022,14-47-21,130,depth_duration_stimuli/001570_2014-06-20_17-21-09_260595134347_rgbf000135-resize_4/001570_2014-06-20_17-21-09_260595134347_rgbf000135-resize_4-target.png,1000,4.467,1,4287,999,meters,jsons/v1_VE1000_randls_10_rotated.json,970960,1111361,61,Man
130,471013,DepthScenes,duration_manipulation_targetAtFixation,jsons/v1_VE1000_randls_10_rotated.json,http://54.235.29.9/FacialAge/BNav_EC2/DepthDuration/v2_depth_duration_MTurk/v2_DepthDuration_HTML.html#289,289,1366,625,1366,768,8-29-2022,14-47-21,131,depth_duration_stimuli/002678_2014-06-13_16-15-32_094959634447_rgbf000151-resize_6/002678_2014-06-13_16-15-32_094959634447_rgbf000151-resize_6-target.png,1000,2.1830000000000003,1,4287,999,meters,jsons/v1_VE1000_randls_10_rotated.json,970960,1111361,61,Man
131,471013,DepthScenes,duration_manipulation_targetAtFixation,jsons/v1_VE1000_randls_10_rotated.json,http://54.235.29.9/FacialAge/BNav_EC2/DepthDuration/v2_depth_duration_MTurk/v2_DepthDuration_HTML.html#289,289,1366,625,1366,768,8-29-2022,14-47-21,132,depth_duration_stimuli/000368_2014-06-09_15-53-01_260595134347_rgbf000155-resize_2/000368_2014-06-09_15-53-01_260595134347_rgbf000155-resize_2-target.png,1000,2.4859999999999998,1,3531,1000,meters,jsons/v1_VE1000_randls_10_rotated.json,970960,1111361,61,Man
132,471013,DepthScenes,duration_manipulation_targetAtFixation,jsons/v1_VE1000_randls_10_rotated.json,http://54.235.29.9/FacialAge/BNav_EC2/DepthDuration/v2_depth_duration_MTurk/v2_DepthDuration_HTML.html#289,289,1366,625,1366,768,8-29-2022,14-47-21,133,depth_duration_stimuli/002639_2014-06-24_14-51-37_094959634447_rgbf000074-resize_4/002639_2014-06-24_14-51-37_094959634447_rgbf000074-resize_4-target.png,1000,4.0375,1,3467,999,meters,jsons/v1_VE1000_randls_10_rotated.json,970960,1111361,61,Man
133,471013,DepthScenes,duration_manipulation_targetAtFixation,jsons/v1_VE1000_randls_10_rotated.json,http://54.235.29.9/FacialAge/BNav_EC2/DepthDuration/v2_depth_duration_MTurk/v2_DepthDuration_HTML.html#289,289,1366,625,1366,768,8-29-2022,14-47-21,134,depth_duration_stimuli/003292_2014-05-14_21-53-49_094959634447_rgbf000100-resize_2/003292_2014-05-14_21-53-49_094959634447_rgbf000100-resize_2-target.png,1000,3.4815,1,3919,1000,meters,jsons/v1_VE1000_randls_10_rotated.json,970960,1111361,61,Man
134,471013,DepthScenes,duration_manipulation_targetAtFixation,jsons/v1_VE1000_randls_10_rotated.json,http://54.235.29.9/FacialAge/BNav_EC2/DepthDuration/v2_depth_duration_MTurk/v2_DepthDuration_HTML.html#289,289,1366,625,1366,768,8-29-2022,14-47-21,135,depth_duration_stimuli/000375_2014-06-08_11-17-29_260595134347_rgbf000133-resize_2/000375_2014-06-08_11-17-29_260595134347_rgbf000133-resize-original.jpg,1000,4.718,1,4302,1000,meters,jsons/v1_VE1000_randls_10_rotated.json,970960,1111361,61,Man
135,471013,DepthScenes,duration_manipulation_targetAtFixation,jsons/v1_VE1000_randls_10_rotated.json,http://54.235.29.9/FacialAge/BNav_EC2/DepthDuration/v2_depth_duration_MTurk/v2_DepthDuration_HTML.html#289,289,1366,625,1366,768,8-29-2022,14-47-21,136,depth_duration_stimuli/000927_2014-06-09_16-32-30_260595134347_rgbf000123-resize_3/000927_2014-06-09_16-32-30_260595134347_rgbf000123-resize_3-target.png,1000,2.6785,1,5214,999,meters,jsons/v1_VE1000_randls_10_rotated.json,970960,1111361,61,Man
136,471013,DepthScenes,duration_manipulation_targetAtFixation,jsons/v1_VE1000_randls_10_rotated.json,http://54.235.29.9/FacialAge/BNav_EC2/DepthDuration/v2_depth_duration_MTurk/v2_DepthDuration_HTML.html#289,289,1366,625,1366,768,8-29-2022,14-47-21,137,depth_duration_stimuli/001110_2014-06-15_17-25-28_260595134347_rgbf000150-resize_1/001110_2014-06-15_17-25-28_260595134347_rgbf000150-resize_1-target.png,1000,1.7115,1,3921,1000,meters,jsons/v1_VE1000_randls_10_rotated.json,970960,1111361,61,Man
137,471013,DepthScenes,duration_manipulation_targetAtFixation,jsons/v1_VE1000_randls_10_rotated.json,http://54.235.29.9/FacialAge/BNav_EC2/DepthDuration/v2_depth_duration_MTurk/v2_DepthDuration_HTML.html#289,289,1366,625,1366,768,8-29-2022,14-47-21,138,depth_duration_stimuli/000103_2014-05-14_22-01-17_260595134347_rgbf000152-resize_5/000103_2014-05-14_22-01-17_260595134347_rgbf000152-resize_5-target.png,1000,1.993,1,9460,999,meters,jsons/v1_VE1000_randls_10_rotated.json,970960,1111361,61,Man
138,471013,DepthScenes,duration_manipulation_targetAtFixation,jsons/v1_VE1000_randls_10_rotated.json,http://54.235.29.9/FacialAge/BNav_EC2/DepthDuration/v2_depth_duration_MTurk/v2_DepthDuration_HTML.html#289,289,1366,625,1366,768,8-29-2022,14-47-21,139,depth_duration_stimuli/001555_2014-06-20_17-12-10_260595134347_rgbf000065-resize_4/001555_2014-06-20_17-12-10_260595134347_rgbf000065-resize_4-target.png,1000,1.633,1,9093,998,meters,jsons/v1_VE1000_randls_10_rotated.json,970960,1111361,61,Man
139,471013,DepthScenes,duration_manipulation_targetAtFixation,jsons/v1_VE1000_randls_10_rotated.json,http://54.235.29.9/FacialAge/BNav_EC2/DepthDuration/v2_depth_duration_MTurk/v2_DepthDuration_HTML.html#289,289,1366,625,1366,768,8-29-2022,14-47-21,140,depth_duration_stimuli/000109_2014-05-14_23-41-52_260595134347_rgbf000035-resize_9/000109_2014-05-14_23-41-52_260595134347_rgbf000035-resize_9-target.png,1000,1.3545,1,4109,999,meters,jsons/v1_VE1000_randls_10_rotated.json,970960,1111361,61,Man
140,471013,DepthScenes,duration_manipulation_targetAtFixation,jsons/v1_VE1000_randls_10_rotated.json,http://54.235.29.9/FacialAge/BNav_EC2/DepthDuration/v2_depth_duration_MTurk/v2_DepthDuration_HTML.html#289,289,1366,625,1366,768,8-29-2022,14-47-21,141,depth_duration_stimuli/000470_2014-06-09_19-42-40_260595134347_rgbf000094-resize_1/000470_2014-06-09_19-42-40_260595134347_rgbf000094-resize_1-target.png,1000,1.831,1,3750,999,meters,jsons/v1_VE1000_randls_10_rotated.json,970960,1111361,61,Man
141,471013,DepthScenes,duration_manipulation_targetAtFixation,jsons/v1_VE1000_randls_10_rotated.json,http://54.235.29.9/FacialAge/BNav_EC2/DepthDuration/v2_depth_duration_MTurk/v2_DepthDuration_HTML.html#289,289,1366,625,1366,768,8-29-2022,14-47-21,142,depth_duration_stimuli/001100_2014-06-15_17-46-26_260595134347_rgbf000225-resize_2/001100_2014-06-15_17-46-26_260595134347_rgbf000225-resize_2-target.png,1000,2.24,1,3784,999,meters,jsons/v1_VE1000_randls_10_rotated.json,970960,1111361,61,Man
142,471013,DepthScenes,duration_manipulation_targetAtFixation,jsons/v1_VE1000_randls_10_rotated.json,http://54.235.29.9/FacialAge/BNav_EC2/DepthDuration/v2_depth_duration_MTurk/v2_DepthDuration_HTML.html#289,289,1366,625,1366,768,8-29-2022,14-47-21,143,depth_duration_stimuli/002784_2014-06-22_19-26-30_094959634447_rgbf000083-resize_3/002784_2014-06-22_19-26-30_094959634447_rgbf000083-resize_3-target.png,1000,1.8046666666667,1,4034,1000,meters,jsons/v1_VE1000_randls_10_rotated.json,970960,1111361,61,Man
143,471013,DepthScenes,duration_manipulation_targetAtFixation,jsons/v1_VE1000_randls_10_rotated.json,http://54.235.29.9/FacialAge/BNav_EC2/DepthDuration/v2_depth_duration_MTurk/v2_DepthDuration_HTML.html#289,289,1366,625,1366,768,8-29-2022,14-47-21,144,depth_duration_stimuli/002425_2014-06-28_20-27-29_260595134347_rgbf000031-resize_8/002425_2014-06-28_20-27-29_260595134347_rgbf000031-resize_8-target.png,1000,3.8960000000000004,1,3978,1000,meters,jsons/v1_VE1000_randls_10_rotated.json,970960,1111361,61,Man
144,471013,DepthScenes,duration_manipulation_targetAtFixation,jsons/v1_VE1000_randls_10_rotated.json,http://54.235.29.9/FacialAge/BNav_EC2/DepthDuration/v2_depth_duration_MTurk/v2_DepthDuration_HTML.html#289,289,1366,625,1366,768,8-29-2022,14-47-21,145,depth_duration_stimuli/000642_2014-06-08_16-59-25_260595134347_rgbf000098-resize_2/000642_2014-06-08_16-59-25_260595134347_rgbf000098-resize_2-target.png,1000,2.8815,1,3356,998,meters,jsons/v1_VE1000_randls_10_rotated.json,970960,1111361,61,Man
145,471013,DepthScenes,duration_manipulation_targetAtFixation,jsons/v1_VE1000_randls_10_rotated.json,http://54.235.29.9/FacialAge/BNav_EC2/DepthDuration/v2_depth_duration_MTurk/v2_DepthDuration_HTML.html#289,289,1366,625,1366,768,8-29-2022,14-47-21,146,depth_duration_stimuli/003081_2014-06-15_15-19-16_094959634447_rgbf000150-resize_1/003081_2014-06-15_15-19-16_094959634447_rgbf000150-resize_1-target.png,1000,3.9125,1,3288,1000,meters,jsons/v1_VE1000_randls_10_rotated.json,970960,1111361,61,Man
146,471013,DepthScenes,duration_manipulation_targetAtFixation,jsons/v1_VE1000_randls_10_rotated.json,http://54.235.29.9/FacialAge/BNav_EC2/DepthDuration/v2_depth_duration_MTurk/v2_DepthDuration_HTML.html#289,289,1366,625,1366,768,8-29-2022,14-47-21,147,depth_duration_stimuli/001417_2014-06-19_16-25-36_260595134347_rgbf000115-resize_5/001417_2014-06-19_16-25-36_260595134347_rgbf000115-resize_5-target.png,1000,4.6255,1,3410,1000,meters,jsons/v1_VE1000_randls_10_rotated.json,970960,1111361,61,Man
147,471013,DepthScenes,duration_manipulation_targetAtFixation,jsons/v1_VE1000_randls_10_rotated.json,http://54.235.29.9/FacialAge/BNav_EC2/DepthDuration/v2_depth_duration_MTurk/v2_DepthDuration_HTML.html#289,289,1366,625,1366,768,8-29-2022,14-47-21,148,depth_duration_stimuli/000742_2014-06-08_18-48-09_260595134347_rgbf000164-resize_4/000742_2014-06-08_18-48-09_260595134347_rgbf000164-resize_4-target.png,1000,4.632,1,3497,998,meters,jsons/v1_VE1000_randls_10_rotated.json,970960,1111361,61,Man
148,471013,DepthScenes,duration_manipulation_targetAtFixation,jsons/v1_VE1000_randls_10_rotated.json,http://54.235.29.9/FacialAge/BNav_EC2/DepthDuration/v2_depth_duration_MTurk/v2_DepthDuration_HTML.html#289,289,1366,625,1366,768,8-29-2022,14-47-21,149,depth_duration_stimuli/001066_2014-06-08_22-03-20_260595134347_rgbf000066-resize_4/001066_2014-06-08_22-03-20_260595134347_rgbf000066-resize_4-target.png,1000,4.2330000000000005,1,3420,1002,meters,jsons/v1_VE1000_randls_10_rotated.json,970960,1111361,61,Man
149,471013,DepthScenes,duration_manipulation_targetAtFixation,jsons/v1_VE1000_randls_10_rotated.json,http://54.235.29.9/FacialAge/BNav_EC2/DepthDuration/v2_depth_duration_MTurk/v2_DepthDuration_HTML.html#289,289,1366,625,1366,768,8-29-2022,14-47-21,150,depth_duration_stimuli/001815_2014-06-26_20-52-55_260595134347_rgbf000020-resize_0/001815_2014-06-26_20-52-55_260595134347_rgbf000020-resize_0-target.png,1000,3.3865,1,3517,1001,meters,jsons/v1_VE1000_randls_10_rotated.json,970960,1111361,61,Man
150,471013,DepthScenes,duration_manipulation_targetAtFixation,jsons/v1_VE1000_randls_10_rotated.json,http://54.235.29.9/FacialAge/BNav_EC2/DepthDuration/v2_depth_duration_MTurk/v2_DepthDuration_HTML.html#289,289,1366,625,1366,768,8-29-2022,14-47-21,151,depth_duration_stimuli/001808_2014-06-26_20-50-58_260595134347_rgbf000029-resize_1/001808_2014-06-26_20-50-58_260595134347_rgbf000029-resize_1-target.png,1000,4.249,1,3339,1000,meters,jsons/v1_VE1000_randls_10_rotated.json,970960,1111361,61,Man
151,471013,DepthScenes,duration_manipulation_targetAtFixation,jsons/v1_VE1000_randls_10_rotated.json,http://54.235.29.9/FacialAge/BNav_EC2/DepthDuration/v2_depth_duration_MTurk/v2_DepthDuration_HTML.html#289,289,1366,625,1366,768,8-29-2022,14-47-21,152,depth_duration_stimuli/000569_2014-06-09_22-51-47_260595134347_rgbf000141-resize_3/000569_2014-06-09_22-51-47_260595134347_rgbf000141-resize-original.jpg,1000,4.512,0,38329,999,meters,jsons/v1_VE1000_randls_10_rotated.json,970960,1111361,61,Man
152,471013,DepthScenes,duration_manipulation_targetAtFixation,jsons/v1_VE1000_randls_10_rotated.json,http://54.235.29.9/FacialAge/BNav_EC2/DepthDuration/v2_depth_duration_MTurk/v2_DepthDuration_HTML.html#289,289,1366,625,1366,768,8-29-2022,14-47-21,153,depth_duration_stimuli/002657_2014-06-13_15-29-54_094959634447_rgbf000150-resize_1/002657_2014-06-13_15-29-54_094959634447_rgbf000150-resize_1-target.png,1000,4.919,1,5196,999,meters,jsons/v1_VE1000_randls_10_rotated.json,970960,1111361,61,Man
153,471013,DepthScenes,duration_manipulation_targetAtFixation,jsons/v1_VE1000_randls_10_rotated.json,http://54.235.29.9/FacialAge/BNav_EC2/DepthDuration/v2_depth_duration_MTurk/v2_DepthDuration_HTML.html#289,289,1366,625,1366,768,8-29-2022,14-47-21,154,depth_duration_stimuli/002375_2014-06-28_20-13-44_260595134347_rgbf000032-resize_1/002375_2014-06-28_20-13-44_260595134347_rgbf000032-resize_1-target.png,1000,4.0175,1,3969,1000,meters,jsons/v1_VE1000_randls_10_rotated.json,970960,1111361,61,Man
154,471013,DepthScenes,duration_manipulation_targetAtFixation,jsons/v1_VE1000_randls_10_rotated.json,http://54.235.29.9/FacialAge/BNav_EC2/DepthDuration/v2_depth_duration_MTurk/v2_DepthDuration_HTML.html#289,289,1366,625,1366,768,8-29-2022,14-47-21,155,depth_duration_stimuli/002136_2014-06-25_21-18-03_260595134347_rgbf000109-resize_3/002136_2014-06-25_21-18-03_260595134347_rgbf000109-resize_3-target.png,1000,1.9569999999999999,1,4629,997,meters,jsons/v1_VE1000_randls_10_rotated.json,970960,1111361,61,Man
155,471013,DepthScenes,duration_manipulation_targetAtFixation,jsons/v1_VE1000_randls_10_rotated.json,http://54.235.29.9/FacialAge/BNav_EC2/DepthDuration/v2_depth_duration_MTurk/v2_DepthDuration_HTML.html#289,289,1366,625,1366,768,8-29-2022,14-47-21,156,depth_duration_stimuli/002964_2014-06-08_17-46-11_094959634447_rgbf000091-resize_4/002964_2014-06-08_17-46-11_094959634447_rgbf000091-resize_4-target.png,1000,1.6909999999999998,1,4036,999,meters,jsons/v1_VE1000_randls_10_rotated.json,970960,1111361,61,Man
156,471013,DepthScenes,duration_manipulation_targetAtFixation,jsons/v1_VE1000_randls_10_rotated.json,http://54.235.29.9/FacialAge/BNav_EC2/DepthDuration/v2_depth_duration_MTurk/v2_DepthDuration_HTML.html#289,289,1366,625,1366,768,8-29-2022,14-47-21,157,depth_duration_stimuli/000549_2014-06-08_22-10-24_260595134347_rgbf000247-resize_3/000549_2014-06-08_22-10-24_260595134347_rgbf000247-resize_3-target.png,1000,1.841,1,3560,998,meters,jsons/v1_VE1000_randls_10_rotated.json,970960,1111361,61,Man
157,471013,DepthScenes,duration_manipulation_targetAtFixation,jsons/v1_VE1000_randls_10_rotated.json,http://54.235.29.9/FacialAge/BNav_EC2/DepthDuration/v2_depth_duration_MTurk/v2_DepthDuration_HTML.html#289,289,1366,625,1366,768,8-29-2022,14-47-21,158,depth_duration_stimuli/001055_2014-06-08_18-45-35_260595134347_rgbf000111-resize_4/001055_2014-06-08_18-45-35_260595134347_rgbf000111-resize_4-target.png,1000,2.4290000000000003,1,6312,998,meters,jsons/v1_VE1000_randls_10_rotated.json,970960,1111361,61,Man
158,471013,DepthScenes,duration_manipulation_targetAtFixation,jsons/v1_VE1000_randls_10_rotated.json,http://54.235.29.9/FacialAge/BNav_EC2/DepthDuration/v2_depth_duration_MTurk/v2_DepthDuration_HTML.html#289,289,1366,625,1366,768,8-29-2022,14-47-21,159,depth_duration_stimuli/002949_2014-06-26_15-57-42_094959634447_rgbf000079-resize_1/002949_2014-06-26_15-57-42_094959634447_rgbf000079-resize_1-target.png,1000,1.8915,1,3471,999,meters,jsons/v1_VE1000_randls_10_rotated.json,970960,1111361,61,Man
159,471013,DepthScenes,duration_manipulation_targetAtFixation,jsons/v1_VE1000_randls_10_rotated.json,http://54.235.29.9/FacialAge/BNav_EC2/DepthDuration/v2_depth_duration_MTurk/v2_DepthDuration_HTML.html#289,289,1366,625,1366,768,8-29-2022,14-47-21,160,depth_duration_stimuli/000522_2014-06-08_13-35-06_260595134347_rgbf000244-resize_1/000522_2014-06-08_13-35-06_260595134347_rgbf000244-resize_1-target.png,1000,2.3715,1,3186,1001,meters,jsons/v1_VE1000_randls_10_rotated.json,970960,1111361,61,Man
160,471013,DepthScenes,duration_manipulation_targetAtFixation,jsons/v1_VE1000_randls_10_rotated.json,http://54.235.29.9/FacialAge/BNav_EC2/DepthDuration/v2_depth_duration_MTurk/v2_DepthDuration_HTML.html#289,289,1366,625,1366,768,8-29-2022,14-47-21,161,depth_duration_stimuli/001132_2014-06-17_14-48-54_260595134347_rgbf000100-resize_2/001132_2014-06-17_14-48-54_260595134347_rgbf000100-resize_2-target.png,1000,3.753,1,7008,998,meters,jsons/v1_VE1000_randls_10_rotated.json,970960,1111361,61,Man
161,471013,DepthScenes,duration_manipulation_targetAtFixation,jsons/v1_VE1000_randls_10_rotated.json,http://54.235.29.9/FacialAge/BNav_EC2/DepthDuration/v2_depth_duration_MTurk/v2_DepthDuration_HTML.html#289,289,1366,625,1366,768,8-29-2022,14-47-21,162,depth_duration_stimuli/001133_2014-06-17_14-49-16_260595134347_rgbf000100-resize_0/001133_2014-06-17_14-49-16_260595134347_rgbf000100-resize_0-target.png,1000,4.2115,1,13517,999,meters,jsons/v1_VE1000_randls_10_rotated.json,970960,1111361,61,Man
162,471013,DepthScenes,duration_manipulation_targetAtFixation,jsons/v1_VE1000_randls_10_rotated.json,http://54.235.29.9/FacialAge/BNav_EC2/DepthDuration/v2_depth_duration_MTurk/v2_DepthDuration_HTML.html#289,289,1366,625,1366,768,8-29-2022,14-47-21,163,depth_duration_stimuli/002323_2014-06-28_20-01-54_260595134347_rgbf000051-resize_4/002323_2014-06-28_20-01-54_260595134347_rgbf000051-resize_4-target.png,1000,3.7310000000000003,1,6736,999,meters,jsons/v1_VE1000_randls_10_rotated.json,970960,1111361,61,Man
163,471013,DepthScenes,duration_manipulation_targetAtFixation,jsons/v1_VE1000_randls_10_rotated.json,http://54.235.29.9/FacialAge/BNav_EC2/DepthDuration/v2_depth_duration_MTurk/v2_DepthDuration_HTML.html#289,289,1366,625,1366,768,8-29-2022,14-47-21,164,depth_duration_stimuli/000917_2014-06-09_22-45-29_260595134347_rgbf000149-resize_3/000917_2014-06-09_22-45-29_260595134347_rgbf000149-resize_3-target.png,1000,4.1865,1,8901,999,meters,jsons/v1_VE1000_randls_10_rotated.json,970960,1111361,61,Man
