,subjID,experimentName,versionName,sequenceName,url,selected_row,windowWidth,windowHeight,screenWidth,screenHeight,startDate,startTime,trial,stimulus,duration,actual_depth,depth_estimate,trial_RT,log_sceneDuration,unitSelection,seq_filepath,experimentTime,totalTime,age,gender
0,471848,DepthScenes,duration_manipulation_targetAtFixation,jsons/VE125_randls_53.json,http://54.235.29.9/FacialAge/BNav_EC2/DepthDuration/v2_depth_duration_MTurk/v2_DepthDuration_HTML.html#68,68,2048,1010,2048,1152,8-21-2022,9-37-34,1,depth_duration_stimuli/001244_2014-06-17_16-47-45_260595134347_rgbf000030-resize_4/001244_2014-06-17_16-47-45_260595134347_rgbf000030-resize_4-target.png,125,2.0425,0,1974,123,feet,jsons/VE125_randls_53.json,501171,703485,37,Man
1,471848,DepthScenes,duration_manipulation_targetAtFixation,jsons/VE125_randls_53.json,http://54.235.29.9/FacialAge/BNav_EC2/DepthDuration/v2_depth_duration_MTurk/v2_DepthDuration_HTML.html#68,68,2048,1010,2048,1152,8-21-2022,9-37-34,2,depth_duration_stimuli/003495_2014-05-21_16-01-51_094959634447_rgbf000100-resize_3/003495_2014-05-21_16-01-51_094959634447_rgbf000100-resize_3-target.png,125,1.6255,2,1868,123,feet,jsons/VE125_randls_53.json,501171,703485,37,Man
2,471848,DepthScenes,duration_manipulation_targetAtFixation,jsons/VE125_randls_53.json,http://54.235.29.9/FacialAge/BNav_EC2/DepthDuration/v2_depth_duration_MTurk/v2_DepthDuration_HTML.html#68,68,2048,1010,2048,1152,8-21-2022,9-37-34,3,depth_duration_stimuli/000878_2014-06-08_22-52-45_260595134347_rgbf000045-resize_2/000878_2014-06-08_22-52-45_260595134347_rgbf000045-resize_2-target.png,125,2.092,4,2019,124,feet,jsons/VE125_randls_53.json,501171,703485,37,Man
3,471848,DepthScenes,duration_manipulation_targetAtFixation,jsons/VE125_randls_53.json,http://54.235.29.9/FacialAge/BNav_EC2/DepthDuration/v2_depth_duration_MTurk/v2_DepthDuration_HTML.html#68,68,2048,1010,2048,1152,8-21-2022,9-37-34,4,depth_duration_stimuli/002953_2014-06-08_17-32-18_094959634447_rgbf000059-resize_5/002953_2014-06-08_17-32-18_094959634447_rgbf000059-resize_5-target.png,125,1.551,2,1748,124,feet,jsons/VE125_randls_53.json,501171,703485,37,Man
4,471848,DepthScenes,duration_manipulation_targetAtFixation,jsons/VE125_randls_53.json,http://54.235.29.9/FacialAge/BNav_EC2/DepthDuration/v2_depth_duration_MTurk/v2_DepthDuration_HTML.html#68,68,2048,1010,2048,1152,8-21-2022,9-37-34,5,depth_duration_stimuli/000692_2014-06-08_13-09-42_260595134347_rgbf000199-resize_2/000692_2014-06-08_13-09-42_260595134347_rgbf000199-resize_2-target.png,125,3.661,6,2404,124,feet,jsons/VE125_randls_53.json,501171,703485,37,Man
5,471848,DepthScenes,duration_manipulation_targetAtFixation,jsons/VE125_randls_53.json,http://54.235.29.9/FacialAge/BNav_EC2/DepthDuration/v2_depth_duration_MTurk/v2_DepthDuration_HTML.html#68,68,2048,1010,2048,1152,8-21-2022,9-37-34,6,depth_duration_stimuli/001094_2014-06-15_17-36-00_260595134347_rgbf000205-resize_0/001094_2014-06-15_17-36-00_260595134347_rgbf000205-resize_0-target.png,125,4.2175,8,1952,124,feet,jsons/VE125_randls_53.json,501171,703485,37,Man
6,471848,DepthScenes,duration_manipulation_targetAtFixation,jsons/VE125_randls_53.json,http://54.235.29.9/FacialAge/BNav_EC2/DepthDuration/v2_depth_duration_MTurk/v2_DepthDuration_HTML.html#68,68,2048,1010,2048,1152,8-21-2022,9-37-34,7,depth_duration_stimuli/002039_2014-06-24_20-22-38_260595134347_rgbf000084-resize_1/002039_2014-06-24_20-22-38_260595134347_rgbf000084-resize_1-target.png,125,4.408,6,2131,124,feet,jsons/VE125_randls_53.json,501171,703485,37,Man
7,471848,DepthScenes,duration_manipulation_targetAtFixation,jsons/VE125_randls_53.json,http://54.235.29.9/FacialAge/BNav_EC2/DepthDuration/v2_depth_duration_MTurk/v2_DepthDuration_HTML.html#68,68,2048,1010,2048,1152,8-21-2022,9-37-34,8,depth_duration_stimuli/002103_2014-06-25_20-00-40_260595134347_rgbf000049-resize_0/002103_2014-06-25_20-00-40_260595134347_rgbf000049-resize_0-target.png,125,4.105,5,1773,124,feet,jsons/VE125_randls_53.json,501171,703485,37,Man
8,471848,DepthScenes,duration_manipulation_targetAtFixation,jsons/VE125_randls_53.json,http://54.235.29.9/FacialAge/BNav_EC2/DepthDuration/v2_depth_duration_MTurk/v2_DepthDuration_HTML.html#68,68,2048,1010,2048,1152,8-21-2022,9-37-34,9,depth_duration_stimuli/000929_2014-06-09_16-33-19_260595134347_rgbf000139-resize_0/000929_2014-06-09_16-33-19_260595134347_rgbf000139-resize_0-target.png,125,2.8680000000000003,5,3158,124,feet,jsons/VE125_randls_53.json,501171,703485,37,Man
9,471848,DepthScenes,duration_manipulation_targetAtFixation,jsons/VE125_randls_53.json,http://54.235.29.9/FacialAge/BNav_EC2/DepthDuration/v2_depth_duration_MTurk/v2_DepthDuration_HTML.html#68,68,2048,1010,2048,1152,8-21-2022,9-37-34,10,depth_duration_stimuli/000457_2014-06-08_16-52-43_260595134347_rgbf000199-resize_1/000457_2014-06-08_16-52-43_260595134347_rgbf000199-resize_1-target.png,125,3.6489999999999996,7,1700,124,feet,jsons/VE125_randls_53.json,501171,703485,37,Man
10,471848,DepthScenes,duration_manipulation_targetAtFixation,jsons/VE125_randls_53.json,http://54.235.29.9/FacialAge/BNav_EC2/DepthDuration/v2_depth_duration_MTurk/v2_DepthDuration_HTML.html#68,68,2048,1010,2048,1152,8-21-2022,9-37-34,11,depth_duration_stimuli/002213_2014-06-28_18-37-58_260595134347_rgbf000055-resize_1/002213_2014-06-28_18-37-58_260595134347_rgbf000055-resize_1-target.png,125,3.62,8,2407,124,feet,jsons/VE125_randls_53.json,501171,703485,37,Man
11,471848,DepthScenes,duration_manipulation_targetAtFixation,jsons/VE125_randls_53.json,http://54.235.29.9/FacialAge/BNav_EC2/DepthDuration/v2_depth_duration_MTurk/v2_DepthDuration_HTML.html#68,68,2048,1010,2048,1152,8-21-2022,9-37-34,12,depth_duration_stimuli/000691_2014-06-08_13-08-50_260595134347_rgbf000132-resize_3/000691_2014-06-08_13-08-50_260595134347_rgbf000132-resize_3-target.png,125,4.1530000000000005,6,2261,127,feet,jsons/VE125_randls_53.json,501171,703485,37,Man
12,471848,DepthScenes,duration_manipulation_targetAtFixation,jsons/VE125_randls_53.json,http://54.235.29.9/FacialAge/BNav_EC2/DepthDuration/v2_depth_duration_MTurk/v2_DepthDuration_HTML.html#68,68,2048,1010,2048,1152,8-21-2022,9-37-34,13,depth_duration_stimuli/000569_2014-06-09_22-51-47_260595134347_rgbf000141-resize_3/000569_2014-06-09_22-51-47_260595134347_rgbf000141-resize-original.jpg,125,4.512,6,1932,124,feet,jsons/VE125_randls_53.json,501171,703485,37,Man
13,471848,DepthScenes,duration_manipulation_targetAtFixation,jsons/VE125_randls_53.json,http://54.235.29.9/FacialAge/BNav_EC2/DepthDuration/v2_depth_duration_MTurk/v2_DepthDuration_HTML.html#68,68,2048,1010,2048,1152,8-21-2022,9-37-34,14,depth_duration_stimuli/001133_2014-06-17_14-49-16_260595134347_rgbf000100-resize_0/001133_2014-06-17_14-49-16_260595134347_rgbf000100-resize_0-target.png,125,4.2115,7,1759,128,feet,jsons/VE125_randls_53.json,501171,703485,37,Man
14,471848,DepthScenes,duration_manipulation_targetAtFixation,jsons/VE125_randls_53.json,http://54.235.29.9/FacialAge/BNav_EC2/DepthDuration/v2_depth_duration_MTurk/v2_DepthDuration_HTML.html#68,68,2048,1010,2048,1152,8-21-2022,9-37-34,15,depth_duration_stimuli/001132_2014-06-17_14-48-54_260595134347_rgbf000100-resize_2/001132_2014-06-17_14-48-54_260595134347_rgbf000100-resize_2-target.png,125,3.753,8,2712,124,feet,jsons/VE125_randls_53.json,501171,703485,37,Man
15,471848,DepthScenes,duration_manipulation_targetAtFixation,jsons/VE125_randls_53.json,http://54.235.29.9/FacialAge/BNav_EC2/DepthDuration/v2_depth_duration_MTurk/v2_DepthDuration_HTML.html#68,68,2048,1010,2048,1152,8-21-2022,9-37-34,16,depth_duration_stimuli/001011_2014-06-08_23-18-54_260595134347_rgbf000044-resize_4/001011_2014-06-08_23-18-54_260595134347_rgbf000044-resize_4-target.png,125,2.4730000000000003,6,1524,124,feet,jsons/VE125_randls_53.json,501171,703485,37,Man
16,471848,DepthScenes,duration_manipulation_targetAtFixation,jsons/VE125_randls_53.json,http://54.235.29.9/FacialAge/BNav_EC2/DepthDuration/v2_depth_duration_MTurk/v2_DepthDuration_HTML.html#68,68,2048,1010,2048,1152,8-21-2022,9-37-34,17,depth_duration_stimuli/002875_2014-06-01_15-19-00_094959634447_rgbf000151-resize_1/002875_2014-06-01_15-19-00_094959634447_rgbf000151-resize_1-target.png,125,1.9675,6,2051,124,feet,jsons/VE125_randls_53.json,501171,703485,37,Man
17,471848,DepthScenes,duration_manipulation_targetAtFixation,jsons/VE125_randls_53.json,http://54.235.29.9/FacialAge/BNav_EC2/DepthDuration/v2_depth_duration_MTurk/v2_DepthDuration_HTML.html#68,68,2048,1010,2048,1152,8-21-2022,9-37-34,18,depth_duration_stimuli/001110_2014-06-15_17-25-28_260595134347_rgbf000150-resize_1/001110_2014-06-15_17-25-28_260595134347_rgbf000150-resize_1-target.png,125,1.7115,2,1592,123,feet,jsons/VE125_randls_53.json,501171,703485,37,Man
18,471848,DepthScenes,duration_manipulation_targetAtFixation,jsons/VE125_randls_53.json,http://54.235.29.9/FacialAge/BNav_EC2/DepthDuration/v2_depth_duration_MTurk/v2_DepthDuration_HTML.html#68,68,2048,1010,2048,1152,8-21-2022,9-37-34,19,depth_duration_stimuli/000927_2014-06-09_16-32-30_260595134347_rgbf000123-resize_3/000927_2014-06-09_16-32-30_260595134347_rgbf000123-resize_3-target.png,125,2.6785,4,1790,124,feet,jsons/VE125_randls_53.json,501171,703485,37,Man
19,471848,DepthScenes,duration_manipulation_targetAtFixation,jsons/VE125_randls_53.json,http://54.235.29.9/FacialAge/BNav_EC2/DepthDuration/v2_depth_duration_MTurk/v2_DepthDuration_HTML.html#68,68,2048,1010,2048,1152,8-21-2022,9-37-34,20,depth_duration_stimuli/002043_2014-06-24_20-29-38_260595134347_rgbf000039-resize_4/002043_2014-06-24_20-29-38_260595134347_rgbf000039-resize_4-target.png,125,2.8435,0,2340,123,feet,jsons/VE125_randls_53.json,501171,703485,37,Man
20,471848,DepthScenes,duration_manipulation_targetAtFixation,jsons/VE125_randls_53.json,http://54.235.29.9/FacialAge/BNav_EC2/DepthDuration/v2_depth_duration_MTurk/v2_DepthDuration_HTML.html#68,68,2048,1010,2048,1152,8-21-2022,9-37-34,21,depth_duration_stimuli/003048_2014-06-15_13-49-43_094959634447_rgbf000150-resize_1/003048_2014-06-15_13-49-43_094959634447_rgbf000150-resize_1-target.png,125,4.0035,5,1681,123,feet,jsons/VE125_randls_53.json,501171,703485,37,Man
21,471848,DepthScenes,duration_manipulation_targetAtFixation,jsons/VE125_randls_53.json,http://54.235.29.9/FacialAge/BNav_EC2/DepthDuration/v2_depth_duration_MTurk/v2_DepthDuration_HTML.html#68,68,2048,1010,2048,1152,8-21-2022,9-37-34,22,depth_duration_stimuli/001164_2014-06-17_15-35-46_260595134347_rgbf000085-resize_3/001164_2014-06-17_15-35-46_260595134347_rgbf000085-resize_3-target.png,125,2.354,6,2297,124,feet,jsons/VE125_randls_53.json,501171,703485,37,Man
22,471848,DepthScenes,duration_manipulation_targetAtFixation,jsons/VE125_randls_53.json,http://54.235.29.9/FacialAge/BNav_EC2/DepthDuration/v2_depth_duration_MTurk/v2_DepthDuration_HTML.html#68,68,2048,1010,2048,1152,8-21-2022,9-37-34,23,depth_duration_stimuli/001136_2014-06-17_15-19-41_260595134347_rgbf000076-resize_3/001136_2014-06-17_15-19-41_260595134347_rgbf000076-resize_3-target.png,125,1.8655,4,1598,124,feet,jsons/VE125_randls_53.json,501171,703485,37,Man
23,471848,DepthScenes,duration_manipulation_targetAtFixation,jsons/VE125_randls_53.json,http://54.235.29.9/FacialAge/BNav_EC2/DepthDuration/v2_depth_duration_MTurk/v2_DepthDuration_HTML.html#68,68,2048,1010,2048,1152,8-21-2022,9-37-34,24,depth_duration_stimuli/001059_2014-06-08_21-53-27_260595134347_rgbf000061-resize_4/001059_2014-06-08_21-53-27_260595134347_rgbf000061-resize_4-target.png,125,2.4185,4,1771,124,feet,jsons/VE125_randls_53.json,501171,703485,37,Man
24,471848,DepthScenes,duration_manipulation_targetAtFixation,jsons/VE125_randls_53.json,http://54.235.29.9/FacialAge/BNav_EC2/DepthDuration/v2_depth_duration_MTurk/v2_DepthDuration_HTML.html#68,68,2048,1010,2048,1152,8-21-2022,9-37-34,25,depth_duration_stimuli/001032_2014-06-08_13-23-17_260595134347_rgbf000021-resize_3/001032_2014-06-08_13-23-17_260595134347_rgbf000021-resize_3-target.png,125,3.2725,5,2290,125,feet,jsons/VE125_randls_53.json,501171,703485,37,Man
25,471848,DepthScenes,duration_manipulation_targetAtFixation,jsons/VE125_randls_53.json,http://54.235.29.9/FacialAge/BNav_EC2/DepthDuration/v2_depth_duration_MTurk/v2_DepthDuration_HTML.html#68,68,2048,1010,2048,1152,8-21-2022,9-37-34,26,depth_duration_stimuli/002600_2014-06-24_14-27-04_094959634447_rgbf000074-resize_2/002600_2014-06-24_14-27-04_094959634447_rgbf000074-resize_2-target.png,125,2.7575,5,3375,124,feet,jsons/VE125_randls_53.json,501171,703485,37,Man
26,471848,DepthScenes,duration_manipulation_targetAtFixation,jsons/VE125_randls_53.json,http://54.235.29.9/FacialAge/BNav_EC2/DepthDuration/v2_depth_duration_MTurk/v2_DepthDuration_HTML.html#68,68,2048,1010,2048,1152,8-21-2022,9-37-34,27,depth_duration_stimuli/003228_2014-05-14_13-42-35_094959634447_rgbf000101-resize_1/003228_2014-05-14_13-42-35_094959634447_rgbf000101-resize_1-target.png,125,1.9680000000000002,3,2002,128,feet,jsons/VE125_randls_53.json,501171,703485,37,Man
27,471848,DepthScenes,duration_manipulation_targetAtFixation,jsons/VE125_randls_53.json,http://54.235.29.9/FacialAge/BNav_EC2/DepthDuration/v2_depth_duration_MTurk/v2_DepthDuration_HTML.html#68,68,2048,1010,2048,1152,8-21-2022,9-37-34,28,depth_duration_stimuli/002509_2014-06-24_13-19-22_094959634447_rgbf000077-resize_0/002509_2014-06-24_13-19-22_094959634447_rgbf000077-resize_0-target.png,125,1.3065,3,1511,125,feet,jsons/VE125_randls_53.json,501171,703485,37,Man
28,471848,DepthScenes,duration_manipulation_targetAtFixation,jsons/VE125_randls_53.json,http://54.235.29.9/FacialAge/BNav_EC2/DepthDuration/v2_depth_duration_MTurk/v2_DepthDuration_HTML.html#68,68,2048,1010,2048,1152,8-21-2022,9-37-34,29,depth_duration_stimuli/003338_2014-05-20_11-01-23_094959634447_rgbf000051-resize_6/003338_2014-05-20_11-01-23_094959634447_rgbf000051-resize_6-target.png,125,1.693,2,1495,124,feet,jsons/VE125_randls_53.json,501171,703485,37,Man
29,471848,DepthScenes,duration_manipulation_targetAtFixation,jsons/VE125_randls_53.json,http://54.235.29.9/FacialAge/BNav_EC2/DepthDuration/v2_depth_duration_MTurk/v2_DepthDuration_HTML.html#68,68,2048,1010,2048,1152,8-21-2022,9-37-34,30,depth_duration_stimuli/000375_2014-06-08_11-17-29_260595134347_rgbf000133-resize_2/000375_2014-06-08_11-17-29_260595134347_rgbf000133-resize-original.jpg,125,4.718,5,1775,123,feet,jsons/VE125_randls_53.json,501171,703485,37,Man
30,471848,DepthScenes,duration_manipulation_targetAtFixation,jsons/VE125_randls_53.json,http://54.235.29.9/FacialAge/BNav_EC2/DepthDuration/v2_depth_duration_MTurk/v2_DepthDuration_HTML.html#68,68,2048,1010,2048,1152,8-21-2022,9-37-34,31,depth_duration_stimuli/002153_2014-06-25_21-27-18_260595134347_rgbf000038-resize_5/002153_2014-06-25_21-27-18_260595134347_rgbf000038-resize_5-target.png,125,2.505,3,2816,127,feet,jsons/VE125_randls_53.json,501171,703485,37,Man
31,471848,DepthScenes,duration_manipulation_targetAtFixation,jsons/VE125_randls_53.json,http://54.235.29.9/FacialAge/BNav_EC2/DepthDuration/v2_depth_duration_MTurk/v2_DepthDuration_HTML.html#68,68,2048,1010,2048,1152,8-21-2022,9-37-34,32,depth_duration_stimuli/002660_2014-06-13_15-44-18_094959634447_rgbf001878-resize_2/002660_2014-06-13_15-44-18_094959634447_rgbf001878-resize_2-target.png,125,3.576,4,5383,124,feet,jsons/VE125_randls_53.json,501171,703485,37,Man
32,471848,DepthScenes,duration_manipulation_targetAtFixation,jsons/VE125_randls_53.json,http://54.235.29.9/FacialAge/BNav_EC2/DepthDuration/v2_depth_duration_MTurk/v2_DepthDuration_HTML.html#68,68,2048,1010,2048,1152,8-21-2022,9-37-34,33,depth_duration_stimuli/002989_2014-06-15_12-25-03_094959634447_rgbf000150-resize_3/002989_2014-06-15_12-25-03_094959634447_rgbf000150-resize_3-target.png,125,4.1975,6,3850,123,feet,jsons/VE125_randls_53.json,501171,703485,37,Man
33,471848,DepthScenes,duration_manipulation_targetAtFixation,jsons/VE125_randls_53.json,http://54.235.29.9/FacialAge/BNav_EC2/DepthDuration/v2_depth_duration_MTurk/v2_DepthDuration_HTML.html#68,68,2048,1010,2048,1152,8-21-2022,9-37-34,34,depth_duration_stimuli/000866_2014-06-09_20-45-42_260595134347_rgbf000139-resize_1/000866_2014-06-09_20-45-42_260595134347_rgbf000139-resize_1-target.png,125,3.2155,4,2460,124,feet,jsons/VE125_randls_53.json,501171,703485,37,Man
34,471848,DepthScenes,duration_manipulation_targetAtFixation,jsons/VE125_randls_53.json,http://54.235.29.9/FacialAge/BNav_EC2/DepthDuration/v2_depth_duration_MTurk/v2_DepthDuration_HTML.html#68,68,2048,1010,2048,1152,8-21-2022,9-37-34,35,depth_duration_stimuli/000788_2014-06-08_22-34-36_260595134347_rgbf000131-resize_1/000788_2014-06-08_22-34-36_260595134347_rgbf000131-resize_1-target.png,125,3.359,5,2351,124,feet,jsons/VE125_randls_53.json,501171,703485,37,Man
35,471848,DepthScenes,duration_manipulation_targetAtFixation,jsons/VE125_randls_53.json,http://54.235.29.9/FacialAge/BNav_EC2/DepthDuration/v2_depth_duration_MTurk/v2_DepthDuration_HTML.html#68,68,2048,1010,2048,1152,8-21-2022,9-37-34,36,depth_duration_stimuli/001235_2014-06-17_16-37-36_260595134347_rgbf000084-resize_4/001235_2014-06-17_16-37-36_260595134347_rgbf000084-resize_4-target.png,125,3.6605,5,1538,123,feet,jsons/VE125_randls_53.json,501171,703485,37,Man
36,471848,DepthScenes,duration_manipulation_targetAtFixation,jsons/VE125_randls_53.json,http://54.235.29.9/FacialAge/BNav_EC2/DepthDuration/v2_depth_duration_MTurk/v2_DepthDuration_HTML.html#68,68,2048,1010,2048,1152,8-21-2022,9-37-34,37,depth_duration_stimuli/003492_2014-05-21_15-50-55_094959634447_rgbf000828-resize_1/003492_2014-05-21_15-50-55_094959634447_rgbf000828-resize_1-target.png,125,4.06875,4,2619,125,feet,jsons/VE125_randls_53.json,501171,703485,37,Man
37,471848,DepthScenes,duration_manipulation_targetAtFixation,jsons/VE125_randls_53.json,http://54.235.29.9/FacialAge/BNav_EC2/DepthDuration/v2_depth_duration_MTurk/v2_DepthDuration_HTML.html#68,68,2048,1010,2048,1152,8-21-2022,9-37-34,38,depth_duration_stimuli/002568_2014-06-24_13-59-21_094959634447_rgbf000062-resize_4/002568_2014-06-24_13-59-21_094959634447_rgbf000062-resize_4-target.png,125,3.015,0,1987,124,feet,jsons/VE125_randls_53.json,501171,703485,37,Man
38,471848,DepthScenes,duration_manipulation_targetAtFixation,jsons/VE125_randls_53.json,http://54.235.29.9/FacialAge/BNav_EC2/DepthDuration/v2_depth_duration_MTurk/v2_DepthDuration_HTML.html#68,68,2048,1010,2048,1152,8-21-2022,9-37-34,39,depth_duration_stimuli/000736_2014-06-08_18-24-15_260595134347_rgbf000206-resize_3/000736_2014-06-08_18-24-15_260595134347_rgbf000206-resize_3-target.png,125,3.515,3,1889,128,feet,jsons/VE125_randls_53.json,501171,703485,37,Man
39,471848,DepthScenes,duration_manipulation_targetAtFixation,jsons/VE125_randls_53.json,http://54.235.29.9/FacialAge/BNav_EC2/DepthDuration/v2_depth_duration_MTurk/v2_DepthDuration_HTML.html#68,68,2048,1010,2048,1152,8-21-2022,9-37-34,40,depth_duration_stimuli/000137_2014-05-20_17-04-49_260595134347_rgbf000120-resize_1/000137_2014-05-20_17-04-49_260595134347_rgbf000120-resize_1-target.png,125,3.786,4,3309,123,feet,jsons/VE125_randls_53.json,501171,703485,37,Man
40,471848,DepthScenes,duration_manipulation_targetAtFixation,jsons/VE125_randls_53.json,http://54.235.29.9/FacialAge/BNav_EC2/DepthDuration/v2_depth_duration_MTurk/v2_DepthDuration_HTML.html#68,68,2048,1010,2048,1152,8-21-2022,9-37-34,41,depth_duration_stimuli/000469_2014-06-09_19-42-10_260595134347_rgbf000081-resize_1/000469_2014-06-09_19-42-10_260595134347_rgbf000081-resize_1-target.png,125,1.652,3,1661,123,feet,jsons/VE125_randls_53.json,501171,703485,37,Man
41,471848,DepthScenes,duration_manipulation_targetAtFixation,jsons/VE125_randls_53.json,http://54.235.29.9/FacialAge/BNav_EC2/DepthDuration/v2_depth_duration_MTurk/v2_DepthDuration_HTML.html#68,68,2048,1010,2048,1152,8-21-2022,9-37-34,42,depth_duration_stimuli/000483_2014-06-09_20-41-45_260595134347_rgbf000116-resize_4/000483_2014-06-09_20-41-45_260595134347_rgbf000116-resize_4-target.png,125,1.337,2,1725,123,feet,jsons/VE125_randls_53.json,501171,703485,37,Man
42,471848,DepthScenes,duration_manipulation_targetAtFixation,jsons/VE125_randls_53.json,http://54.235.29.9/FacialAge/BNav_EC2/DepthDuration/v2_depth_duration_MTurk/v2_DepthDuration_HTML.html#68,68,2048,1010,2048,1152,8-21-2022,9-37-34,43,depth_duration_stimuli/001570_2014-06-20_17-21-09_260595134347_rgbf000135-resize_4/001570_2014-06-20_17-21-09_260595134347_rgbf000135-resize_4-target.png,125,4.467,6,1722,124,feet,jsons/VE125_randls_53.json,501171,703485,37,Man
43,471848,DepthScenes,duration_manipulation_targetAtFixation,jsons/VE125_randls_53.json,http://54.235.29.9/FacialAge/BNav_EC2/DepthDuration/v2_depth_duration_MTurk/v2_DepthDuration_HTML.html#68,68,2048,1010,2048,1152,8-21-2022,9-37-34,44,depth_duration_stimuli/001392_2014-06-19_16-07-59_260595134347_rgbf000046-resize_1/001392_2014-06-19_16-07-59_260595134347_rgbf000046-resize_1-target.png,125,4.135,5,1775,124,feet,jsons/VE125_randls_53.json,501171,703485,37,Man
44,471848,DepthScenes,duration_manipulation_targetAtFixation,jsons/VE125_randls_53.json,http://54.235.29.9/FacialAge/BNav_EC2/DepthDuration/v2_depth_duration_MTurk/v2_DepthDuration_HTML.html#68,68,2048,1010,2048,1152,8-21-2022,9-37-34,45,depth_duration_stimuli/000787_2014-06-08_22-33-53_260595134347_rgbf000175-resize_1/000787_2014-06-08_22-33-53_260595134347_rgbf000175-resize-original.jpg,125,4.784,0,1562,123,feet,jsons/VE125_randls_53.json,501171,703485,37,Man
45,471848,DepthScenes,duration_manipulation_targetAtFixation,jsons/VE125_randls_53.json,http://54.235.29.9/FacialAge/BNav_EC2/DepthDuration/v2_depth_duration_MTurk/v2_DepthDuration_HTML.html#68,68,2048,1010,2048,1152,8-21-2022,9-37-34,46,depth_duration_stimuli/001810_2014-06-26_20-51-35_260595134347_rgbf000040-resize_3/001810_2014-06-26_20-51-35_260595134347_rgbf000040-resize_3-target.png,125,2.2525,4,1577,128,feet,jsons/VE125_randls_53.json,501171,703485,37,Man
46,471848,DepthScenes,duration_manipulation_targetAtFixation,jsons/VE125_randls_53.json,http://54.235.29.9/FacialAge/BNav_EC2/DepthDuration/v2_depth_duration_MTurk/v2_DepthDuration_HTML.html#68,68,2048,1010,2048,1152,8-21-2022,9-37-34,47,depth_duration_stimuli/003010_2014-06-15_12-54-35_094959634447_rgbf000112-resize_0/003010_2014-06-15_12-54-35_094959634447_rgbf000112-resize_0-target.png,125,3.1185,6,2449,124,feet,jsons/VE125_randls_53.json,501171,703485,37,Man
47,471848,DepthScenes,duration_manipulation_targetAtFixation,jsons/VE125_randls_53.json,http://54.235.29.9/FacialAge/BNav_EC2/DepthDuration/v2_depth_duration_MTurk/v2_DepthDuration_HTML.html#68,68,2048,1010,2048,1152,8-21-2022,9-37-34,48,depth_duration_stimuli/002549_2014-06-24_13-41-39_094959634447_rgbf000022-resize_3/002549_2014-06-24_13-41-39_094959634447_rgbf000022-resize_3-target.png,125,1.476,3,2273,124,feet,jsons/VE125_randls_53.json,501171,703485,37,Man
48,471848,DepthScenes,duration_manipulation_targetAtFixation,jsons/VE125_randls_53.json,http://54.235.29.9/FacialAge/BNav_EC2/DepthDuration/v2_depth_duration_MTurk/v2_DepthDuration_HTML.html#68,68,2048,1010,2048,1152,8-21-2022,9-37-34,49,depth_duration_stimuli/002750_2014-06-22_19-08-03_094959634447_rgbf000094-resize_4/002750_2014-06-22_19-08-03_094959634447_rgbf000094-resize_4-target.png,125,2.354,4,3269,125,feet,jsons/VE125_randls_53.json,501171,703485,37,Man
49,471848,DepthScenes,duration_manipulation_targetAtFixation,jsons/VE125_randls_53.json,http://54.235.29.9/FacialAge/BNav_EC2/DepthDuration/v2_depth_duration_MTurk/v2_DepthDuration_HTML.html#68,68,2048,1010,2048,1152,8-21-2022,9-37-34,50,depth_duration_stimuli/003070_2014-06-15_14-58-27_094959634447_rgbf000150-resize_3/003070_2014-06-15_14-58-27_094959634447_rgbf000150-resize_3-target.png,125,2.9415,4,3084,124,feet,jsons/VE125_randls_53.json,501171,703485,37,Man
50,471848,DepthScenes,duration_manipulation_targetAtFixation,jsons/VE125_randls_53.json,http://54.235.29.9/FacialAge/BNav_EC2/DepthDuration/v2_depth_duration_MTurk/v2_DepthDuration_HTML.html#68,68,2048,1010,2048,1152,8-21-2022,9-37-34,51,depth_duration_stimuli/000943_2014-06-09_19-31-07_260595134347_rgbf000128-resize_1/000943_2014-06-09_19-31-07_260595134347_rgbf000128-resize_1-target.png,125,1.9765,4,1965,124,feet,jsons/VE125_randls_53.json,501171,703485,37,Man
51,471848,DepthScenes,duration_manipulation_targetAtFixation,jsons/VE125_randls_53.json,http://54.235.29.9/FacialAge/BNav_EC2/DepthDuration/v2_depth_duration_MTurk/v2_DepthDuration_HTML.html#68,68,2048,1010,2048,1152,8-21-2022,9-37-34,52,depth_duration_stimuli/003292_2014-05-14_21-53-49_094959634447_rgbf000100-resize_2/003292_2014-05-14_21-53-49_094959634447_rgbf000100-resize_2-target.png,125,3.4815,5,3538,124,feet,jsons/VE125_randls_53.json,501171,703485,37,Man
52,471848,DepthScenes,duration_manipulation_targetAtFixation,jsons/VE125_randls_53.json,http://54.235.29.9/FacialAge/BNav_EC2/DepthDuration/v2_depth_duration_MTurk/v2_DepthDuration_HTML.html#68,68,2048,1010,2048,1152,8-21-2022,9-37-34,53,depth_duration_stimuli/002639_2014-06-24_14-51-37_094959634447_rgbf000074-resize_4/002639_2014-06-24_14-51-37_094959634447_rgbf000074-resize_4-target.png,125,4.0375,6,1703,124,feet,jsons/VE125_randls_53.json,501171,703485,37,Man
53,471848,DepthScenes,duration_manipulation_targetAtFixation,jsons/VE125_randls_53.json,http://54.235.29.9/FacialAge/BNav_EC2/DepthDuration/v2_depth_duration_MTurk/v2_DepthDuration_HTML.html#68,68,2048,1010,2048,1152,8-21-2022,9-37-34,54,depth_duration_stimuli/002905_2014-06-03_18-04-43_094959634447_rgbf000151-resize_2/002905_2014-06-03_18-04-43_094959634447_rgbf000151-resize_2-target.png,125,2.0295,5,2591,127,feet,jsons/VE125_randls_53.json,501171,703485,37,Man
54,471848,DepthScenes,duration_manipulation_targetAtFixation,jsons/VE125_randls_53.json,http://54.235.29.9/FacialAge/BNav_EC2/DepthDuration/v2_depth_duration_MTurk/v2_DepthDuration_HTML.html#68,68,2048,1010,2048,1152,8-21-2022,9-37-34,55,depth_duration_stimuli/003423_2014-05-21_10-23-26_094959634447_rgbf002665-resize_2/003423_2014-05-21_10-23-26_094959634447_rgbf002665-resize_2-target.png,125,3.2575,6,1572,124,feet,jsons/VE125_randls_53.json,501171,703485,37,Man
55,471848,DepthScenes,duration_manipulation_targetAtFixation,jsons/VE125_randls_53.json,http://54.235.29.9/FacialAge/BNav_EC2/DepthDuration/v2_depth_duration_MTurk/v2_DepthDuration_HTML.html#68,68,2048,1010,2048,1152,8-21-2022,9-37-34,56,depth_duration_stimuli/002663_2014-06-13_15-50-26_094959634447_rgbf000075-resize_1/002663_2014-06-13_15-50-26_094959634447_rgbf000075-resize_1-target.png,125,4.7495,7,2371,126,feet,jsons/VE125_randls_53.json,501171,703485,37,Man
56,471848,DepthScenes,duration_manipulation_targetAtFixation,jsons/VE125_randls_53.json,http://54.235.29.9/FacialAge/BNav_EC2/DepthDuration/v2_depth_duration_MTurk/v2_DepthDuration_HTML.html#68,68,2048,1010,2048,1152,8-21-2022,9-37-34,57,depth_duration_stimuli/000409_2014-06-04_19-23-33_260595134347_rgbf000067-resize_0/000409_2014-06-04_19-23-33_260595134347_rgbf000067-resize_0-target.png,125,3.7335,5,1843,128,feet,jsons/VE125_randls_53.json,501171,703485,37,Man
57,471848,DepthScenes,duration_manipulation_targetAtFixation,jsons/VE125_randls_53.json,http://54.235.29.9/FacialAge/BNav_EC2/DepthDuration/v2_depth_duration_MTurk/v2_DepthDuration_HTML.html#68,68,2048,1010,2048,1152,8-21-2022,9-37-34,58,depth_duration_stimuli/000906_2014-06-08_13-35-43_260595134347_rgbf000155-resize_1/000906_2014-06-08_13-35-43_260595134347_rgbf000155-resize_1-target.png,125,2.8489999999999998,6,1659,124,feet,jsons/VE125_randls_53.json,501171,703485,37,Man
58,471848,DepthScenes,duration_manipulation_targetAtFixation,jsons/VE125_randls_53.json,http://54.235.29.9/FacialAge/BNav_EC2/DepthDuration/v2_depth_duration_MTurk/v2_DepthDuration_HTML.html#68,68,2048,1010,2048,1152,8-21-2022,9-37-34,59,depth_duration_stimuli/002805_2014-06-22_19-54-03_094959634447_rgbf000079-resize_1/002805_2014-06-22_19-54-03_094959634447_rgbf000079-resize_1-target.png,125,3.1439999999999997,6,1614,123,feet,jsons/VE125_randls_53.json,501171,703485,37,Man
59,471848,DepthScenes,duration_manipulation_targetAtFixation,jsons/VE125_randls_53.json,http://54.235.29.9/FacialAge/BNav_EC2/DepthDuration/v2_depth_duration_MTurk/v2_DepthDuration_HTML.html#68,68,2048,1010,2048,1152,8-21-2022,9-37-34,60,depth_duration_stimuli/000773_2014-06-08_22-24-54_260595134347_rgbf000093-resize_1/000773_2014-06-08_22-24-54_260595134347_rgbf000093-resize_1-target.png,125,4.973,6,1868,124,feet,jsons/VE125_randls_53.json,501171,703485,37,Man
60,471848,DepthScenes,duration_manipulation_targetAtFixation,jsons/VE125_randls_53.json,http://54.235.29.9/FacialAge/BNav_EC2/DepthDuration/v2_depth_duration_MTurk/v2_DepthDuration_HTML.html#68,68,2048,1010,2048,1152,8-21-2022,9-37-34,61,depth_duration_stimuli/002414_2014-06-28_20-24-58_260595134347_rgbf000067-resize_4/002414_2014-06-28_20-24-58_260595134347_rgbf000067-resize_4-target.png,125,4.363,7,1585,128,feet,jsons/VE125_randls_53.json,501171,703485,37,Man
61,471848,DepthScenes,duration_manipulation_targetAtFixation,jsons/VE125_randls_53.json,http://54.235.29.9/FacialAge/BNav_EC2/DepthDuration/v2_depth_duration_MTurk/v2_DepthDuration_HTML.html#68,68,2048,1010,2048,1152,8-21-2022,9-37-34,62,depth_duration_stimuli/002725_2014-06-22_11-47-51_094959634447_rgbf000070-resize_1/002725_2014-06-22_11-47-51_094959634447_rgbf000070-resize_1-target.png,125,2.195,5,2573,123,feet,jsons/VE125_randls_53.json,501171,703485,37,Man
62,471848,DepthScenes,duration_manipulation_targetAtFixation,jsons/VE125_randls_53.json,http://54.235.29.9/FacialAge/BNav_EC2/DepthDuration/v2_depth_duration_MTurk/v2_DepthDuration_HTML.html#68,68,2048,1010,2048,1152,8-21-2022,9-37-34,63,depth_duration_stimuli/002344_2014-06-28_20-06-29_260595134347_rgbf000030-resize_1/002344_2014-06-28_20-06-29_260595134347_rgbf000030-resize_1-target.png,125,1.5795,3,2209,123,feet,jsons/VE125_randls_53.json,501171,703485,37,Man
63,471848,DepthScenes,duration_manipulation_targetAtFixation,jsons/VE125_randls_53.json,http://54.235.29.9/FacialAge/BNav_EC2/DepthDuration/v2_depth_duration_MTurk/v2_DepthDuration_HTML.html#68,68,2048,1010,2048,1152,8-21-2022,9-37-34,64,depth_duration_stimuli/002445_2014-06-28_20-32-16_260595134347_rgbf000029-resize_4/002445_2014-06-28_20-32-16_260595134347_rgbf000029-resize_4-target.png,125,2.5315,4,1890,125,feet,jsons/VE125_randls_53.json,501171,703485,37,Man
64,471848,DepthScenes,duration_manipulation_targetAtFixation,jsons/VE125_randls_53.json,http://54.235.29.9/FacialAge/BNav_EC2/DepthDuration/v2_depth_duration_MTurk/v2_DepthDuration_HTML.html#68,68,2048,1010,2048,1152,8-21-2022,9-37-34,65,depth_duration_stimuli/000780_2014-06-08_22-28-29_260595134347_rgbf000126-resize_1/000780_2014-06-08_22-28-29_260595134347_rgbf000126-resize_1-target.png,125,3.3825,5,1402,124,feet,jsons/VE125_randls_53.json,501171,703485,37,Man
65,471848,DepthScenes,duration_manipulation_targetAtFixation,jsons/VE125_randls_53.json,http://54.235.29.9/FacialAge/BNav_EC2/DepthDuration/v2_depth_duration_MTurk/v2_DepthDuration_HTML.html#68,68,2048,1010,2048,1152,8-21-2022,9-37-34,66,depth_duration_stimuli/001222_2014-06-17_16-24-06_260595134347_rgbf000073-resize_0/001222_2014-06-17_16-24-06_260595134347_rgbf000073-resize-original.jpg,125,1.4385,0,1520,128,feet,jsons/VE125_randls_53.json,501171,703485,37,Man
66,471848,DepthScenes,duration_manipulation_targetAtFixation,jsons/VE125_randls_53.json,http://54.235.29.9/FacialAge/BNav_EC2/DepthDuration/v2_depth_duration_MTurk/v2_DepthDuration_HTML.html#68,68,2048,1010,2048,1152,8-21-2022,9-37-34,67,depth_duration_stimuli/002964_2014-06-08_17-46-11_094959634447_rgbf000091-resize_4/002964_2014-06-08_17-46-11_094959634447_rgbf000091-resize_4-target.png,125,1.6909999999999998,2,1579,124,feet,jsons/VE125_randls_53.json,501171,703485,37,Man
67,471848,DepthScenes,duration_manipulation_targetAtFixation,jsons/VE125_randls_53.json,http://54.235.29.9/FacialAge/BNav_EC2/DepthDuration/v2_depth_duration_MTurk/v2_DepthDuration_HTML.html#68,68,2048,1010,2048,1152,8-21-2022,9-37-34,68,depth_duration_stimuli/002136_2014-06-25_21-18-03_260595134347_rgbf000109-resize_3/002136_2014-06-25_21-18-03_260595134347_rgbf000109-resize_3-target.png,125,1.9569999999999999,6,1614,128,feet,jsons/VE125_randls_53.json,501171,703485,37,Man
68,471848,DepthScenes,duration_manipulation_targetAtFixation,jsons/VE125_randls_53.json,http://54.235.29.9/FacialAge/BNav_EC2/DepthDuration/v2_depth_duration_MTurk/v2_DepthDuration_HTML.html#68,68,2048,1010,2048,1152,8-21-2022,9-37-34,69,depth_duration_stimuli/001449_2014-06-19_17-01-27_260595134347_rgbf000116-resize_2/001449_2014-06-19_17-01-27_260595134347_rgbf000116-resize_2-target.png,125,3.452,5,2207,123,feet,jsons/VE125_randls_53.json,501171,703485,37,Man
69,471848,DepthScenes,duration_manipulation_targetAtFixation,jsons/VE125_randls_53.json,http://54.235.29.9/FacialAge/BNav_EC2/DepthDuration/v2_depth_duration_MTurk/v2_DepthDuration_HTML.html#68,68,2048,1010,2048,1152,8-21-2022,9-37-34,70,depth_duration_stimuli/001450_2014-06-19_17-02-03_260595134347_rgbf000203-resize_4/001450_2014-06-19_17-02-03_260595134347_rgbf000203-resize_4-target.png,125,4.0106666666667,7,1510,128,feet,jsons/VE125_randls_53.json,501171,703485,37,Man
70,471848,DepthScenes,duration_manipulation_targetAtFixation,jsons/VE125_randls_53.json,http://54.235.29.9/FacialAge/BNav_EC2/DepthDuration/v2_depth_duration_MTurk/v2_DepthDuration_HTML.html#68,68,2048,1010,2048,1152,8-21-2022,9-37-34,71,depth_duration_stimuli/002570_2014-06-24_13-59-54_094959634447_rgbf000059-resize_0/002570_2014-06-24_13-59-54_094959634447_rgbf000059-resize_0-target.png,125,4.037,5,1410,128,feet,jsons/VE125_randls_53.json,501171,703485,37,Man
71,471848,DepthScenes,duration_manipulation_targetAtFixation,jsons/VE125_randls_53.json,http://54.235.29.9/FacialAge/BNav_EC2/DepthDuration/v2_depth_duration_MTurk/v2_DepthDuration_HTML.html#68,68,2048,1010,2048,1152,8-21-2022,9-37-34,72,depth_duration_stimuli/002467_2014-06-28_20-38-07_260595134347_rgbf000026-resize_2/002467_2014-06-28_20-38-07_260595134347_rgbf000026-resize_2-target.png,125,4.742,7,1474,123,feet,jsons/VE125_randls_53.json,501171,703485,37,Man
72,471848,DepthScenes,duration_manipulation_targetAtFixation,jsons/VE125_randls_53.json,http://54.235.29.9/FacialAge/BNav_EC2/DepthDuration/v2_depth_duration_MTurk/v2_DepthDuration_HTML.html#68,68,2048,1010,2048,1152,8-21-2022,9-37-34,73,depth_duration_stimuli/003621_2014-05-23_18-06-08_094959634447_rgbf000101-resize_1/003621_2014-05-23_18-06-08_094959634447_rgbf000101-resize_1-target.png,125,3.9835,4,2844,123,feet,jsons/VE125_randls_53.json,501171,703485,37,Man
73,471848,DepthScenes,duration_manipulation_targetAtFixation,jsons/VE125_randls_53.json,http://54.235.29.9/FacialAge/BNav_EC2/DepthDuration/v2_depth_duration_MTurk/v2_DepthDuration_HTML.html#68,68,2048,1010,2048,1152,8-21-2022,9-37-34,74,depth_duration_stimuli/001584_2014-06-20_11-07-43_260595134347_rgbf000002-resize_1/001584_2014-06-20_11-07-43_260595134347_rgbf000002-resize_1-target.png,125,3.53,4,2126,124,feet,jsons/VE125_randls_53.json,501171,703485,37,Man
74,471848,DepthScenes,duration_manipulation_targetAtFixation,jsons/VE125_randls_53.json,http://54.235.29.9/FacialAge/BNav_EC2/DepthDuration/v2_depth_duration_MTurk/v2_DepthDuration_HTML.html#68,68,2048,1010,2048,1152,8-21-2022,9-37-34,75,depth_duration_stimuli/000758_2014-06-08_22-05-08_260595134347_rgbf000085-resize_0/000758_2014-06-08_22-05-08_260595134347_rgbf000085-resize_0-target.png,125,3.3810000000000002,6,1879,124,feet,jsons/VE125_randls_53.json,501171,703485,37,Man
75,471848,DepthScenes,duration_manipulation_targetAtFixation,jsons/VE125_randls_53.json,http://54.235.29.9/FacialAge/BNav_EC2/DepthDuration/v2_depth_duration_MTurk/v2_DepthDuration_HTML.html#68,68,2048,1010,2048,1152,8-21-2022,9-37-34,76,depth_duration_stimuli/000854_2014-06-09_19-43-13_260595134347_rgbf000066-resize_0/000854_2014-06-09_19-43-13_260595134347_rgbf000066-resize_0-target.png,125,3.068,3,1596,128,feet,jsons/VE125_randls_53.json,501171,703485,37,Man
76,471848,DepthScenes,duration_manipulation_targetAtFixation,jsons/VE125_randls_53.json,http://54.235.29.9/FacialAge/BNav_EC2/DepthDuration/v2_depth_duration_MTurk/v2_DepthDuration_HTML.html#68,68,2048,1010,2048,1152,8-21-2022,9-37-34,77,depth_duration_stimuli/002784_2014-06-22_19-26-30_094959634447_rgbf000083-resize_3/002784_2014-06-22_19-26-30_094959634447_rgbf000083-resize_3-target.png,125,1.8046666666667,2,2668,128,feet,jsons/VE125_randls_53.json,501171,703485,37,Man
77,471848,DepthScenes,duration_manipulation_targetAtFixation,jsons/VE125_randls_53.json,http://54.235.29.9/FacialAge/BNav_EC2/DepthDuration/v2_depth_duration_MTurk/v2_DepthDuration_HTML.html#68,68,2048,1010,2048,1152,8-21-2022,9-37-34,78,depth_duration_stimuli/001100_2014-06-15_17-46-26_260595134347_rgbf000225-resize_2/001100_2014-06-15_17-46-26_260595134347_rgbf000225-resize_2-target.png,125,2.24,4,3940,127,feet,jsons/VE125_randls_53.json,501171,703485,37,Man
78,471848,DepthScenes,duration_manipulation_targetAtFixation,jsons/VE125_randls_53.json,http://54.235.29.9/FacialAge/BNav_EC2/DepthDuration/v2_depth_duration_MTurk/v2_DepthDuration_HTML.html#68,68,2048,1010,2048,1152,8-21-2022,9-37-34,79,depth_duration_stimuli/001158_2014-06-17_15-32-16_260595134347_rgbf000138-resize_2/001158_2014-06-17_15-32-16_260595134347_rgbf000138-resize_2-target.png,125,4.5315,6,1457,128,feet,jsons/VE125_randls_53.json,501171,703485,37,Man
79,471848,DepthScenes,duration_manipulation_targetAtFixation,jsons/VE125_randls_53.json,http://54.235.29.9/FacialAge/BNav_EC2/DepthDuration/v2_depth_duration_MTurk/v2_DepthDuration_HTML.html#68,68,2048,1010,2048,1152,8-21-2022,9-37-34,80,depth_duration_stimuli/000556_2014-06-09_22-42-56_260595134347_rgbf000214-resize_1/000556_2014-06-09_22-42-56_260595134347_rgbf000214-resize_1-target.png,125,4.8415,7,1658,124,feet,jsons/VE125_randls_53.json,501171,703485,37,Man
80,471848,DepthScenes,duration_manipulation_targetAtFixation,jsons/VE125_randls_53.json,http://54.235.29.9/FacialAge/BNav_EC2/DepthDuration/v2_depth_duration_MTurk/v2_DepthDuration_HTML.html#68,68,2048,1010,2048,1152,8-21-2022,9-37-34,81,depth_duration_stimuli/002272_2014-06-28_18-53-56_260595134347_rgbf000067-resize_2/002272_2014-06-28_18-53-56_260595134347_rgbf000067-resize_2-target.png,125,1.138,3,1516,124,feet,jsons/VE125_randls_53.json,501171,703485,37,Man
81,471848,DepthScenes,duration_manipulation_targetAtFixation,jsons/VE125_randls_53.json,http://54.235.29.9/FacialAge/BNav_EC2/DepthDuration/v2_depth_duration_MTurk/v2_DepthDuration_HTML.html#68,68,2048,1010,2048,1152,8-21-2022,9-37-34,82,depth_duration_stimuli/001571_2014-06-20_17-21-32_260595134347_rgbf000089-resize_1/001571_2014-06-20_17-21-32_260595134347_rgbf000089-resize_1-target.png,125,1.86,3,1471,128,feet,jsons/VE125_randls_53.json,501171,703485,37,Man
82,471848,DepthScenes,duration_manipulation_targetAtFixation,jsons/VE125_randls_53.json,http://54.235.29.9/FacialAge/BNav_EC2/DepthDuration/v2_depth_duration_MTurk/v2_DepthDuration_HTML.html#68,68,2048,1010,2048,1152,8-21-2022,9-37-34,83,depth_duration_stimuli/000470_2014-06-09_19-42-40_260595134347_rgbf000094-resize_1/000470_2014-06-09_19-42-40_260595134347_rgbf000094-resize_1-target.png,125,1.831,3,1334,125,feet,jsons/VE125_randls_53.json,501171,703485,37,Man
83,471848,DepthScenes,duration_manipulation_targetAtFixation,jsons/VE125_randls_53.json,http://54.235.29.9/FacialAge/BNav_EC2/DepthDuration/v2_depth_duration_MTurk/v2_DepthDuration_HTML.html#68,68,2048,1010,2048,1152,8-21-2022,9-37-34,84,depth_duration_stimuli/000109_2014-05-14_23-41-52_260595134347_rgbf000035-resize_9/000109_2014-05-14_23-41-52_260595134347_rgbf000035-resize_9-target.png,125,1.3545,2,1370,125,feet,jsons/VE125_randls_53.json,501171,703485,37,Man
84,471848,DepthScenes,duration_manipulation_targetAtFixation,jsons/VE125_randls_53.json,http://54.235.29.9/FacialAge/BNav_EC2/DepthDuration/v2_depth_duration_MTurk/v2_DepthDuration_HTML.html#68,68,2048,1010,2048,1152,8-21-2022,9-37-34,85,depth_duration_stimuli/002375_2014-06-28_20-13-44_260595134347_rgbf000032-resize_1/002375_2014-06-28_20-13-44_260595134347_rgbf000032-resize_1-target.png,125,4.0175,3,1686,123,feet,jsons/VE125_randls_53.json,501171,703485,37,Man
85,471848,DepthScenes,duration_manipulation_targetAtFixation,jsons/VE125_randls_53.json,http://54.235.29.9/FacialAge/BNav_EC2/DepthDuration/v2_depth_duration_MTurk/v2_DepthDuration_HTML.html#68,68,2048,1010,2048,1152,8-21-2022,9-37-34,86,depth_duration_stimuli/002657_2014-06-13_15-29-54_094959634447_rgbf000150-resize_1/002657_2014-06-13_15-29-54_094959634447_rgbf000150-resize_1-target.png,125,4.919,4,1524,124,feet,jsons/VE125_randls_53.json,501171,703485,37,Man
86,471848,DepthScenes,duration_manipulation_targetAtFixation,jsons/VE125_randls_53.json,http://54.235.29.9/FacialAge/BNav_EC2/DepthDuration/v2_depth_duration_MTurk/v2_DepthDuration_HTML.html#68,68,2048,1010,2048,1152,8-21-2022,9-37-34,87,depth_duration_stimuli/002118_2014-06-25_20-32-08_260595134347_rgbf000078-resize_1/002118_2014-06-25_20-32-08_260595134347_rgbf000078-resize_1-target.png,125,2.6460000000000004,3,1400,127,feet,jsons/VE125_randls_53.json,501171,703485,37,Man
87,471848,DepthScenes,duration_manipulation_targetAtFixation,jsons/VE125_randls_53.json,http://54.235.29.9/FacialAge/BNav_EC2/DepthDuration/v2_depth_duration_MTurk/v2_DepthDuration_HTML.html#68,68,2048,1010,2048,1152,8-21-2022,9-37-34,88,depth_duration_stimuli/001516_2014-06-20_16-25-09_260595134347_rgbf000076-resize_2/001516_2014-06-20_16-25-09_260595134347_rgbf000076-resize_2-target.png,125,1.7445,3,1453,128,feet,jsons/VE125_randls_53.json,501171,703485,37,Man
88,471848,DepthScenes,duration_manipulation_targetAtFixation,jsons/VE125_randls_53.json,http://54.235.29.9/FacialAge/BNav_EC2/DepthDuration/v2_depth_duration_MTurk/v2_DepthDuration_HTML.html#68,68,2048,1010,2048,1152,8-21-2022,9-37-34,89,depth_duration_stimuli/001066_2014-06-08_22-03-20_260595134347_rgbf000066-resize_4/001066_2014-06-08_22-03-20_260595134347_rgbf000066-resize_4-target.png,125,4.2330000000000005,7,1850,123,feet,jsons/VE125_randls_53.json,501171,703485,37,Man
89,471848,DepthScenes,duration_manipulation_targetAtFixation,jsons/VE125_randls_53.json,http://54.235.29.9/FacialAge/BNav_EC2/DepthDuration/v2_depth_duration_MTurk/v2_DepthDuration_HTML.html#68,68,2048,1010,2048,1152,8-21-2022,9-37-34,90,depth_duration_stimuli/000742_2014-06-08_18-48-09_260595134347_rgbf000164-resize_4/000742_2014-06-08_18-48-09_260595134347_rgbf000164-resize_4-target.png,125,4.632,7,1637,128,feet,jsons/VE125_randls_53.json,501171,703485,37,Man
90,471848,DepthScenes,duration_manipulation_targetAtFixation,jsons/VE125_randls_53.json,http://54.235.29.9/FacialAge/BNav_EC2/DepthDuration/v2_depth_duration_MTurk/v2_DepthDuration_HTML.html#68,68,2048,1010,2048,1152,8-21-2022,9-37-34,91,depth_duration_stimuli/002057_2014-06-24_21-00-13_260595134347_rgbf000120-resize_1/002057_2014-06-24_21-00-13_260595134347_rgbf000120-resize_1-target.png,125,2.967,8,1351,124,feet,jsons/VE125_randls_53.json,501171,703485,37,Man
91,471848,DepthScenes,duration_manipulation_targetAtFixation,jsons/VE125_randls_53.json,http://54.235.29.9/FacialAge/BNav_EC2/DepthDuration/v2_depth_duration_MTurk/v2_DepthDuration_HTML.html#68,68,2048,1010,2048,1152,8-21-2022,9-37-34,92,depth_duration_stimuli/000709_2014-06-08_13-51-55_260595134347_rgbf000068-resize_3/000709_2014-06-08_13-51-55_260595134347_rgbf000068-resize_3-target.png,125,1.8030000000000002,4,2126,124,feet,jsons/VE125_randls_53.json,501171,703485,37,Man
92,471848,DepthScenes,duration_manipulation_targetAtFixation,jsons/VE125_randls_53.json,http://54.235.29.9/FacialAge/BNav_EC2/DepthDuration/v2_depth_duration_MTurk/v2_DepthDuration_HTML.html#68,68,2048,1010,2048,1152,8-21-2022,9-37-34,93,depth_duration_stimuli/002748_2014-06-22_19-07-22_094959634447_rgbf000078-resize_1/002748_2014-06-22_19-07-22_094959634447_rgbf000078-resize_1-target.png,125,4.6705,7,1376,129,feet,jsons/VE125_randls_53.json,501171,703485,37,Man
93,471848,DepthScenes,duration_manipulation_targetAtFixation,jsons/VE125_randls_53.json,http://54.235.29.9/FacialAge/BNav_EC2/DepthDuration/v2_depth_duration_MTurk/v2_DepthDuration_HTML.html#68,68,2048,1010,2048,1152,8-21-2022,9-37-34,94,depth_duration_stimuli/002995_2014-06-15_12-31-26_094959634447_rgbf000150-resize_1/002995_2014-06-15_12-31-26_094959634447_rgbf000150-resize_1-target.png,125,3.8360000000000003,6,6485,124,feet,jsons/VE125_randls_53.json,501171,703485,37,Man
94,471848,DepthScenes,duration_manipulation_targetAtFixation,jsons/VE125_randls_53.json,http://54.235.29.9/FacialAge/BNav_EC2/DepthDuration/v2_depth_duration_MTurk/v2_DepthDuration_HTML.html#68,68,2048,1010,2048,1152,8-21-2022,9-37-34,95,depth_duration_stimuli/002788_2014-06-22_19-36-03_094959634447_rgbf000088-resize_2/002788_2014-06-22_19-36-03_094959634447_rgbf000088-resize_2-target.png,125,1.6465,4,2908,124,feet,jsons/VE125_randls_53.json,501171,703485,37,Man
95,471848,DepthScenes,duration_manipulation_targetAtFixation,jsons/VE125_randls_53.json,http://54.235.29.9/FacialAge/BNav_EC2/DepthDuration/v2_depth_duration_MTurk/v2_DepthDuration_HTML.html#68,68,2048,1010,2048,1152,8-21-2022,9-37-34,96,depth_duration_stimuli/000749_2014-06-08_21-55-06_260595134347_rgbf000070-resize_2/000749_2014-06-08_21-55-06_260595134347_rgbf000070-resize_2-target.png,125,2.331,3,5189,128,feet,jsons/VE125_randls_53.json,501171,703485,37,Man
96,471848,DepthScenes,duration_manipulation_targetAtFixation,jsons/VE125_randls_53.json,http://54.235.29.9/FacialAge/BNav_EC2/DepthDuration/v2_depth_duration_MTurk/v2_DepthDuration_HTML.html#68,68,2048,1010,2048,1152,8-21-2022,9-37-34,97,depth_duration_stimuli/001199_2014-06-17_16-03-48_260595134347_rgbf000077-resize_0/001199_2014-06-17_16-03-48_260595134347_rgbf000077-resize_0-target.png,125,3.4375,5,5638,124,feet,jsons/VE125_randls_53.json,501171,703485,37,Man
97,471848,DepthScenes,duration_manipulation_targetAtFixation,jsons/VE125_randls_53.json,http://54.235.29.9/FacialAge/BNav_EC2/DepthDuration/v2_depth_duration_MTurk/v2_DepthDuration_HTML.html#68,68,2048,1010,2048,1152,8-21-2022,9-37-34,98,depth_duration_stimuli/000502_2014-06-08_23-02-32_260595134347_rgbf000063-resize_4/000502_2014-06-08_23-02-32_260595134347_rgbf000063-resize_4-target.png,125,2.431,0,8367,123,feet,jsons/VE125_randls_53.json,501171,703485,37,Man
98,471848,DepthScenes,duration_manipulation_targetAtFixation,jsons/VE125_randls_53.json,http://54.235.29.9/FacialAge/BNav_EC2/DepthDuration/v2_depth_duration_MTurk/v2_DepthDuration_HTML.html#68,68,2048,1010,2048,1152,8-21-2022,9-37-34,99,depth_duration_stimuli/001540_2014-06-20_17-01-05_260595134347_rgbf000086-resize_2/001540_2014-06-20_17-01-05_260595134347_rgbf000086-resize-original.jpg,125,1.459,0,3158,124,feet,jsons/VE125_randls_53.json,501171,703485,37,Man
99,471848,DepthScenes,duration_manipulation_targetAtFixation,jsons/VE125_randls_53.json,http://54.235.29.9/FacialAge/BNav_EC2/DepthDuration/v2_depth_duration_MTurk/v2_DepthDuration_HTML.html#68,68,2048,1010,2048,1152,8-21-2022,9-37-34,100,depth_duration_stimuli/000739_2014-06-08_18-45-58_260595134347_rgbf000068-resize_1/000739_2014-06-08_18-45-58_260595134347_rgbf000068-resize_1-target.png,125,3.534,0,3183,123,feet,jsons/VE125_randls_53.json,501171,703485,37,Man
100,471848,DepthScenes,duration_manipulation_targetAtFixation,jsons/VE125_randls_53.json,http://54.235.29.9/FacialAge/BNav_EC2/DepthDuration/v2_depth_duration_MTurk/v2_DepthDuration_HTML.html#68,68,2048,1010,2048,1152,8-21-2022,9-37-34,101,depth_duration_stimuli/000734_2014-06-08_17-39-11_260595134347_rgbf000128-resize_2/000734_2014-06-08_17-39-11_260595134347_rgbf000128-resize_2-target.png,125,4.098,5,2966,127,feet,jsons/VE125_randls_53.json,501171,703485,37,Man
101,471848,DepthScenes,duration_manipulation_targetAtFixation,jsons/VE125_randls_53.json,http://54.235.29.9/FacialAge/BNav_EC2/DepthDuration/v2_depth_duration_MTurk/v2_DepthDuration_HTML.html#68,68,2048,1010,2048,1152,8-21-2022,9-37-34,102,depth_duration_stimuli/001016_2014-06-09_16-16-10_260595134347_rgbf000112-resize_5/001016_2014-06-09_16-16-10_260595134347_rgbf000112-resize_5-target.png,125,1.6565,4,2873,126,feet,jsons/VE125_randls_53.json,501171,703485,37,Man
102,471848,DepthScenes,duration_manipulation_targetAtFixation,jsons/VE125_randls_53.json,http://54.235.29.9/FacialAge/BNav_EC2/DepthDuration/v2_depth_duration_MTurk/v2_DepthDuration_HTML.html#68,68,2048,1010,2048,1152,8-21-2022,9-37-34,103,depth_duration_stimuli/002340_2014-06-28_20-05-46_260595134347_rgbf000113-resize_0/002340_2014-06-28_20-05-46_260595134347_rgbf000113-resize_0-target.png,125,2.4735,4,2934,124,feet,jsons/VE125_randls_53.json,501171,703485,37,Man
103,471848,DepthScenes,duration_manipulation_targetAtFixation,jsons/VE125_randls_53.json,http://54.235.29.9/FacialAge/BNav_EC2/DepthDuration/v2_depth_duration_MTurk/v2_DepthDuration_HTML.html#68,68,2048,1010,2048,1152,8-21-2022,9-37-34,104,depth_duration_stimuli/000506_2014-06-08_23-21-00_260595134347_rgbf000070-resize_7/000506_2014-06-08_23-21-00_260595134347_rgbf000070-resize_7-target.png,125,4.0585,6,3055,124,feet,jsons/VE125_randls_53.json,501171,703485,37,Man
104,471848,DepthScenes,duration_manipulation_targetAtFixation,jsons/VE125_randls_53.json,http://54.235.29.9/FacialAge/BNav_EC2/DepthDuration/v2_depth_duration_MTurk/v2_DepthDuration_HTML.html#68,68,2048,1010,2048,1152,8-21-2022,9-37-34,105,depth_duration_stimuli/003079_2014-06-15_15-18-20_094959634447_rgbf000152-resize_8/003079_2014-06-15_15-18-20_094959634447_rgbf000152-resize_8-target.png,125,2.8775,5,3013,128,feet,jsons/VE125_randls_53.json,501171,703485,37,Man
105,471848,DepthScenes,duration_manipulation_targetAtFixation,jsons/VE125_randls_53.json,http://54.235.29.9/FacialAge/BNav_EC2/DepthDuration/v2_depth_duration_MTurk/v2_DepthDuration_HTML.html#68,68,2048,1010,2048,1152,8-21-2022,9-37-34,106,depth_duration_stimuli/000447_2014-06-08_16-15-46_260595134347_rgbf000130-resize_1/000447_2014-06-08_16-15-46_260595134347_rgbf000130-resize_1-target.png,125,4.479,5,2898,123,feet,jsons/VE125_randls_53.json,501171,703485,37,Man
106,471848,DepthScenes,duration_manipulation_targetAtFixation,jsons/VE125_randls_53.json,http://54.235.29.9/FacialAge/BNav_EC2/DepthDuration/v2_depth_duration_MTurk/v2_DepthDuration_HTML.html#68,68,2048,1010,2048,1152,8-21-2022,9-37-34,107,depth_duration_stimuli/001447_2014-06-19_17-00-32_260595134347_rgbf000082-resize_5/001447_2014-06-19_17-00-32_260595134347_rgbf000082-resize_5-target.png,125,4.13775,4,3264,128,feet,jsons/VE125_randls_53.json,501171,703485,37,Man
107,471848,DepthScenes,duration_manipulation_targetAtFixation,jsons/VE125_randls_53.json,http://54.235.29.9/FacialAge/BNav_EC2/DepthDuration/v2_depth_duration_MTurk/v2_DepthDuration_HTML.html#68,68,2048,1010,2048,1152,8-21-2022,9-37-34,108,depth_duration_stimuli/000368_2014-06-09_15-53-01_260595134347_rgbf000155-resize_2/000368_2014-06-09_15-53-01_260595134347_rgbf000155-resize_2-target.png,125,2.4859999999999998,4,4058,123,feet,jsons/VE125_randls_53.json,501171,703485,37,Man
108,471848,DepthScenes,duration_manipulation_targetAtFixation,jsons/VE125_randls_53.json,http://54.235.29.9/FacialAge/BNav_EC2/DepthDuration/v2_depth_duration_MTurk/v2_DepthDuration_HTML.html#68,68,2048,1010,2048,1152,8-21-2022,9-37-34,109,depth_duration_stimuli/002678_2014-06-13_16-15-32_094959634447_rgbf000151-resize_6/002678_2014-06-13_16-15-32_094959634447_rgbf000151-resize_6-target.png,125,2.1830000000000003,5,3727,125,feet,jsons/VE125_randls_53.json,501171,703485,37,Man
109,471848,DepthScenes,duration_manipulation_targetAtFixation,jsons/VE125_randls_53.json,http://54.235.29.9/FacialAge/BNav_EC2/DepthDuration/v2_depth_duration_MTurk/v2_DepthDuration_HTML.html#68,68,2048,1010,2048,1152,8-21-2022,9-37-34,110,depth_duration_stimuli/001555_2014-06-20_17-12-10_260595134347_rgbf000065-resize_4/001555_2014-06-20_17-12-10_260595134347_rgbf000065-resize_4-target.png,125,1.633,2,2658,127,feet,jsons/VE125_randls_53.json,501171,703485,37,Man
110,471848,DepthScenes,duration_manipulation_targetAtFixation,jsons/VE125_randls_53.json,http://54.235.29.9/FacialAge/BNav_EC2/DepthDuration/v2_depth_duration_MTurk/v2_DepthDuration_HTML.html#68,68,2048,1010,2048,1152,8-21-2022,9-37-34,111,depth_duration_stimuli/000103_2014-05-14_22-01-17_260595134347_rgbf000152-resize_5/000103_2014-05-14_22-01-17_260595134347_rgbf000152-resize_5-target.png,125,1.993,4,35864,128,feet,jsons/VE125_randls_53.json,501171,703485,37,Man
111,471848,DepthScenes,duration_manipulation_targetAtFixation,jsons/VE125_randls_53.json,http://54.235.29.9/FacialAge/BNav_EC2/DepthDuration/v2_depth_duration_MTurk/v2_DepthDuration_HTML.html#68,68,2048,1010,2048,1152,8-21-2022,9-37-34,112,depth_duration_stimuli/002763_2014-06-22_19-13-10_094959634447_rgbf000075-resize_4/002763_2014-06-22_19-13-10_094959634447_rgbf000075-resize_4-target.png,125,1.68375,3,1964,124,feet,jsons/VE125_randls_53.json,501171,703485,37,Man
112,471848,DepthScenes,duration_manipulation_targetAtFixation,jsons/VE125_randls_53.json,http://54.235.29.9/FacialAge/BNav_EC2/DepthDuration/v2_depth_duration_MTurk/v2_DepthDuration_HTML.html#68,68,2048,1010,2048,1152,8-21-2022,9-37-34,113,depth_duration_stimuli/002209_2014-06-28_18-36-10_260595134347_rgbf000051-resize_1/002209_2014-06-28_18-36-10_260595134347_rgbf000051-resize_1-target.png,125,2.057,3,1749,124,feet,jsons/VE125_randls_53.json,501171,703485,37,Man
113,471848,DepthScenes,duration_manipulation_targetAtFixation,jsons/VE125_randls_53.json,http://54.235.29.9/FacialAge/BNav_EC2/DepthDuration/v2_depth_duration_MTurk/v2_DepthDuration_HTML.html#68,68,2048,1010,2048,1152,8-21-2022,9-37-34,114,depth_duration_stimuli/000436_2014-06-09_22-25-11_260595134347_rgbf000137-resize_1/000436_2014-06-09_22-25-11_260595134347_rgbf000137-resize_1-target.png,125,4.0705,5,1541,124,feet,jsons/VE125_randls_53.json,501171,703485,37,Man
114,471848,DepthScenes,duration_manipulation_targetAtFixation,jsons/VE125_randls_53.json,http://54.235.29.9/FacialAge/BNav_EC2/DepthDuration/v2_depth_duration_MTurk/v2_DepthDuration_HTML.html#68,68,2048,1010,2048,1152,8-21-2022,9-37-34,115,depth_duration_stimuli/002444_2014-06-28_20-32-08_260595134347_rgbf000027-resize_0/002444_2014-06-28_20-32-08_260595134347_rgbf000027-resize_0-target.png,125,4.388999999999999,6,1827,123,feet,jsons/VE125_randls_53.json,501171,703485,37,Man
115,471848,DepthScenes,duration_manipulation_targetAtFixation,jsons/VE125_randls_53.json,http://54.235.29.9/FacialAge/BNav_EC2/DepthDuration/v2_depth_duration_MTurk/v2_DepthDuration_HTML.html#68,68,2048,1010,2048,1152,8-21-2022,9-37-34,116,depth_duration_stimuli/001170_2014-06-17_15-43-44_260595134347_rgbf000096-resize_6/001170_2014-06-17_15-43-44_260595134347_rgbf000096-resize-original.jpg,125,1.1909999999999998,0,1489,123,feet,jsons/VE125_randls_53.json,501171,703485,37,Man
116,471848,DepthScenes,duration_manipulation_targetAtFixation,jsons/VE125_randls_53.json,http://54.235.29.9/FacialAge/BNav_EC2/DepthDuration/v2_depth_duration_MTurk/v2_DepthDuration_HTML.html#68,68,2048,1010,2048,1152,8-21-2022,9-37-34,117,depth_duration_stimuli/002630_2014-06-24_14-47-50_094959634447_rgbf000055-resize_1/002630_2014-06-24_14-47-50_094959634447_rgbf000055-resize_1-target.png,125,3.0095,6,2709,123,feet,jsons/VE125_randls_53.json,501171,703485,37,Man
117,471848,DepthScenes,duration_manipulation_targetAtFixation,jsons/VE125_randls_53.json,http://54.235.29.9/FacialAge/BNav_EC2/DepthDuration/v2_depth_duration_MTurk/v2_DepthDuration_HTML.html#68,68,2048,1010,2048,1152,8-21-2022,9-37-34,118,depth_duration_stimuli/002758_2014-06-22_19-11-20_094959634447_rgbf000128-resize_1/002758_2014-06-22_19-11-20_094959634447_rgbf000128-resize_1-target.png,125,2.555,3,1563,123,feet,jsons/VE125_randls_53.json,501171,703485,37,Man
118,471848,DepthScenes,duration_manipulation_targetAtFixation,jsons/VE125_randls_53.json,http://54.235.29.9/FacialAge/BNav_EC2/DepthDuration/v2_depth_duration_MTurk/v2_DepthDuration_HTML.html#68,68,2048,1010,2048,1152,8-21-2022,9-37-34,119,depth_duration_stimuli/001808_2014-06-26_20-50-58_260595134347_rgbf000029-resize_1/001808_2014-06-26_20-50-58_260595134347_rgbf000029-resize_1-target.png,125,4.249,5,1494,128,feet,jsons/VE125_randls_53.json,501171,703485,37,Man
119,471848,DepthScenes,duration_manipulation_targetAtFixation,jsons/VE125_randls_53.json,http://54.235.29.9/FacialAge/BNav_EC2/DepthDuration/v2_depth_duration_MTurk/v2_DepthDuration_HTML.html#68,68,2048,1010,2048,1152,8-21-2022,9-37-34,120,depth_duration_stimuli/001815_2014-06-26_20-52-55_260595134347_rgbf000020-resize_0/001815_2014-06-26_20-52-55_260595134347_rgbf000020-resize_0-target.png,125,3.3865,4,1733,123,feet,jsons/VE125_randls_53.json,501171,703485,37,Man
120,471848,DepthScenes,duration_manipulation_targetAtFixation,jsons/VE125_randls_53.json,http://54.235.29.9/FacialAge/BNav_EC2/DepthDuration/v2_depth_duration_MTurk/v2_DepthDuration_HTML.html#68,68,2048,1010,2048,1152,8-21-2022,9-37-34,121,depth_duration_stimuli/000486_2014-06-09_20-47-20_260595134347_rgbf000143-resize_2/000486_2014-06-09_20-47-20_260595134347_rgbf000143-resize_2-target.png,125,4.8325,5,1915,124,feet,jsons/VE125_randls_53.json,501171,703485,37,Man
121,471848,DepthScenes,duration_manipulation_targetAtFixation,jsons/VE125_randls_53.json,http://54.235.29.9/FacialAge/BNav_EC2/DepthDuration/v2_depth_duration_MTurk/v2_DepthDuration_HTML.html#68,68,2048,1010,2048,1152,8-21-2022,9-37-34,122,depth_duration_stimuli/003083_2014-06-15_15-21-03_094959634447_rgbf000063-resize_1/003083_2014-06-15_15-21-03_094959634447_rgbf000063-resize_1-target.png,125,4.1405,8,1768,128,feet,jsons/VE125_randls_53.json,501171,703485,37,Man
122,471848,DepthScenes,duration_manipulation_targetAtFixation,jsons/VE125_randls_53.json,http://54.235.29.9/FacialAge/BNav_EC2/DepthDuration/v2_depth_duration_MTurk/v2_DepthDuration_HTML.html#68,68,2048,1010,2048,1152,8-21-2022,9-37-34,123,depth_duration_stimuli/001806_2014-06-26_20-50-20_260595134347_rgbf000091-resize_1/001806_2014-06-26_20-50-20_260595134347_rgbf000091-resize_1-target.png,125,2.7305,3,3002,124,feet,jsons/VE125_randls_53.json,501171,703485,37,Man
123,471848,DepthScenes,duration_manipulation_targetAtFixation,jsons/VE125_randls_53.json,http://54.235.29.9/FacialAge/BNav_EC2/DepthDuration/v2_depth_duration_MTurk/v2_DepthDuration_HTML.html#68,68,2048,1010,2048,1152,8-21-2022,9-37-34,124,depth_duration_stimuli/001617_2014-06-20_11-35-32_260595134347_rgbf000066-resize_1/001617_2014-06-20_11-35-32_260595134347_rgbf000066-resize_1-target.png,125,3.7910000000000004,6,1570,128,feet,jsons/VE125_randls_53.json,501171,703485,37,Man
124,471848,DepthScenes,duration_manipulation_targetAtFixation,jsons/VE125_randls_53.json,http://54.235.29.9/FacialAge/BNav_EC2/DepthDuration/v2_depth_duration_MTurk/v2_DepthDuration_HTML.html#68,68,2048,1010,2048,1152,8-21-2022,9-37-34,125,depth_duration_stimuli/001150_2014-06-17_15-27-34_260595134347_rgbf000108-resize_2/001150_2014-06-17_15-27-34_260595134347_rgbf000108-resize_2-target.png,125,4.0325,6,1475,123,feet,jsons/VE125_randls_53.json,501171,703485,37,Man
125,471848,DepthScenes,duration_manipulation_targetAtFixation,jsons/VE125_randls_53.json,http://54.235.29.9/FacialAge/BNav_EC2/DepthDuration/v2_depth_duration_MTurk/v2_DepthDuration_HTML.html#68,68,2048,1010,2048,1152,8-21-2022,9-37-34,126,depth_duration_stimuli/000665_2014-06-09_20-42-35_260595134347_rgbf000110-resize_1/000665_2014-06-09_20-42-35_260595134347_rgbf000110-resize_1-target.png,125,3.057,4,2639,128,feet,jsons/VE125_randls_53.json,501171,703485,37,Man
126,471848,DepthScenes,duration_manipulation_targetAtFixation,jsons/VE125_randls_53.json,http://54.235.29.9/FacialAge/BNav_EC2/DepthDuration/v2_depth_duration_MTurk/v2_DepthDuration_HTML.html#68,68,2048,1010,2048,1152,8-21-2022,9-37-34,127,depth_duration_stimuli/003534_2014-05-22_15-06-10_094959634447_rgbf000102-resize_4/003534_2014-05-22_15-06-10_094959634447_rgbf000102-resize_4-target.png,125,1.426,3,1347,124,feet,jsons/VE125_randls_53.json,501171,703485,37,Man
127,471848,DepthScenes,duration_manipulation_targetAtFixation,jsons/VE125_randls_53.json,http://54.235.29.9/FacialAge/BNav_EC2/DepthDuration/v2_depth_duration_MTurk/v2_DepthDuration_HTML.html#68,68,2048,1010,2048,1152,8-21-2022,9-37-34,128,depth_duration_stimuli/002637_2014-06-24_14-51-13_094959634447_rgbf000066-resize_4/002637_2014-06-24_14-51-13_094959634447_rgbf000066-resize_4-target.png,125,1.9955,4,1571,129,feet,jsons/VE125_randls_53.json,501171,703485,37,Man
128,471848,DepthScenes,duration_manipulation_targetAtFixation,jsons/VE125_randls_53.json,http://54.235.29.9/FacialAge/BNav_EC2/DepthDuration/v2_depth_duration_MTurk/v2_DepthDuration_HTML.html#68,68,2048,1010,2048,1152,8-21-2022,9-37-34,129,depth_duration_stimuli/002988_2014-06-15_12-24-20_094959634447_rgbf000150-resize_1/002988_2014-06-15_12-24-20_094959634447_rgbf000150-resize_1-target.png,125,4.7669999999999995,6,2937,127,feet,jsons/VE125_randls_53.json,501171,703485,37,Man
129,471848,DepthScenes,duration_manipulation_targetAtFixation,jsons/VE125_randls_53.json,http://54.235.29.9/FacialAge/BNav_EC2/DepthDuration/v2_depth_duration_MTurk/v2_DepthDuration_HTML.html#68,68,2048,1010,2048,1152,8-21-2022,9-37-34,130,depth_duration_stimuli/001052_2014-06-08_18-24-54_260595134347_rgbf000130-resize_1/001052_2014-06-08_18-24-54_260595134347_rgbf000130-resize_1-target.png,125,4.1045,6,1422,124,feet,jsons/VE125_randls_53.json,501171,703485,37,Man
130,471848,DepthScenes,duration_manipulation_targetAtFixation,jsons/VE125_randls_53.json,http://54.235.29.9/FacialAge/BNav_EC2/DepthDuration/v2_depth_duration_MTurk/v2_DepthDuration_HTML.html#68,68,2048,1010,2048,1152,8-21-2022,9-37-34,131,depth_duration_stimuli/000810_2014-06-08_17-20-01_260595134347_rgbf000105-resize_0/000810_2014-06-08_17-20-01_260595134347_rgbf000105-resize_0-target.png,125,1.4865,4,1648,123,feet,jsons/VE125_randls_53.json,501171,703485,37,Man
131,471848,DepthScenes,duration_manipulation_targetAtFixation,jsons/VE125_randls_53.json,http://54.235.29.9/FacialAge/BNav_EC2/DepthDuration/v2_depth_duration_MTurk/v2_DepthDuration_HTML.html#68,68,2048,1010,2048,1152,8-21-2022,9-37-34,132,depth_duration_stimuli/001214_2014-06-17_16-13-55_260595134347_rgbf000111-resize_0/001214_2014-06-17_16-13-55_260595134347_rgbf000111-resize_0-target.png,125,2.6505,3,1406,124,feet,jsons/VE125_randls_53.json,501171,703485,37,Man
132,471848,DepthScenes,duration_manipulation_targetAtFixation,jsons/VE125_randls_53.json,http://54.235.29.9/FacialAge/BNav_EC2/DepthDuration/v2_depth_duration_MTurk/v2_DepthDuration_HTML.html#68,68,2048,1010,2048,1152,8-21-2022,9-37-34,133,depth_duration_stimuli/001092_2014-06-15_17-34-58_260595134347_rgbf000171-resize_3/001092_2014-06-15_17-34-58_260595134347_rgbf000171-resize_3-target.png,125,2.6935,4,1584,125,feet,jsons/VE125_randls_53.json,501171,703485,37,Man
133,471848,DepthScenes,duration_manipulation_targetAtFixation,jsons/VE125_randls_53.json,http://54.235.29.9/FacialAge/BNav_EC2/DepthDuration/v2_depth_duration_MTurk/v2_DepthDuration_HTML.html#68,68,2048,1010,2048,1152,8-21-2022,9-37-34,134,depth_duration_stimuli/002545_2014-06-24_13-38-53_094959634447_rgbf000080-resize_4/002545_2014-06-24_13-38-53_094959634447_rgbf000080-resize_4-target.png,125,1.9205,5,1500,127,feet,jsons/VE125_randls_53.json,501171,703485,37,Man
134,471848,DepthScenes,duration_manipulation_targetAtFixation,jsons/VE125_randls_53.json,http://54.235.29.9/FacialAge/BNav_EC2/DepthDuration/v2_depth_duration_MTurk/v2_DepthDuration_HTML.html#68,68,2048,1010,2048,1152,8-21-2022,9-37-34,135,depth_duration_stimuli/002072_2014-06-24_21-48-06_260595134347_rgbf000115-resize_0/002072_2014-06-24_21-48-06_260595134347_rgbf000115-resize-original.jpg,125,4.702,0,1648,123,feet,jsons/VE125_randls_53.json,501171,703485,37,Man
135,471848,DepthScenes,duration_manipulation_targetAtFixation,jsons/VE125_randls_53.json,http://54.235.29.9/FacialAge/BNav_EC2/DepthDuration/v2_depth_duration_MTurk/v2_DepthDuration_HTML.html#68,68,2048,1010,2048,1152,8-21-2022,9-37-34,136,depth_duration_stimuli/001167_2014-06-17_15-38-07_260595134347_rgbf000108-resize_0/001167_2014-06-17_15-38-07_260595134347_rgbf000108-resize_0-target.png,125,1.8505,3,1893,126,feet,jsons/VE125_randls_53.json,501171,703485,37,Man
136,471848,DepthScenes,duration_manipulation_targetAtFixation,jsons/VE125_randls_53.json,http://54.235.29.9/FacialAge/BNav_EC2/DepthDuration/v2_depth_duration_MTurk/v2_DepthDuration_HTML.html#68,68,2048,1010,2048,1152,8-21-2022,9-37-34,137,depth_duration_stimuli/003587_2014-05-23_16-48-02_094959634447_rgbf002384-resize_2/003587_2014-05-23_16-48-02_094959634447_rgbf002384-resize_2-target.png,125,1.357,2,1795,123,feet,jsons/VE125_randls_53.json,501171,703485,37,Man
137,471848,DepthScenes,duration_manipulation_targetAtFixation,jsons/VE125_randls_53.json,http://54.235.29.9/FacialAge/BNav_EC2/DepthDuration/v2_depth_duration_MTurk/v2_DepthDuration_HTML.html#68,68,2048,1010,2048,1152,8-21-2022,9-37-34,138,depth_duration_stimuli/000642_2014-06-08_16-59-25_260595134347_rgbf000098-resize_2/000642_2014-06-08_16-59-25_260595134347_rgbf000098-resize_2-target.png,125,2.8815,4,1404,129,feet,jsons/VE125_randls_53.json,501171,703485,37,Man
138,471848,DepthScenes,duration_manipulation_targetAtFixation,jsons/VE125_randls_53.json,http://54.235.29.9/FacialAge/BNav_EC2/DepthDuration/v2_depth_duration_MTurk/v2_DepthDuration_HTML.html#68,68,2048,1010,2048,1152,8-21-2022,9-37-34,139,depth_duration_stimuli/002425_2014-06-28_20-27-29_260595134347_rgbf000031-resize_8/002425_2014-06-28_20-27-29_260595134347_rgbf000031-resize_8-target.png,125,3.8960000000000004,5,1855,124,feet,jsons/VE125_randls_53.json,501171,703485,37,Man
139,471848,DepthScenes,duration_manipulation_targetAtFixation,jsons/VE125_randls_53.json,http://54.235.29.9/FacialAge/BNav_EC2/DepthDuration/v2_depth_duration_MTurk/v2_DepthDuration_HTML.html#68,68,2048,1010,2048,1152,8-21-2022,9-37-34,140,depth_duration_stimuli/000917_2014-06-09_22-45-29_260595134347_rgbf000149-resize_3/000917_2014-06-09_22-45-29_260595134347_rgbf000149-resize_3-target.png,125,4.1865,0,34437,123,feet,jsons/VE125_randls_53.json,501171,703485,37,Man
140,471848,DepthScenes,duration_manipulation_targetAtFixation,jsons/VE125_randls_53.json,http://54.235.29.9/FacialAge/BNav_EC2/DepthDuration/v2_depth_duration_MTurk/v2_DepthDuration_HTML.html#68,68,2048,1010,2048,1152,8-21-2022,9-37-34,141,depth_duration_stimuli/002323_2014-06-28_20-01-54_260595134347_rgbf000051-resize_4/002323_2014-06-28_20-01-54_260595134347_rgbf000051-resize_4-target.png,125,3.7310000000000003,6,2345,124,feet,jsons/VE125_randls_53.json,501171,703485,37,Man
141,471848,DepthScenes,duration_manipulation_targetAtFixation,jsons/VE125_randls_53.json,http://54.235.29.9/FacialAge/BNav_EC2/DepthDuration/v2_depth_duration_MTurk/v2_DepthDuration_HTML.html#68,68,2048,1010,2048,1152,8-21-2022,9-37-34,142,depth_duration_stimuli/000493_2014-06-09_21-01-18_260595134347_rgbf000196-resize_3/000493_2014-06-09_21-01-18_260595134347_rgbf000196-resize_3-target.png,125,3.44,5,1634,125,feet,jsons/VE125_randls_53.json,501171,703485,37,Man
142,471848,DepthScenes,duration_manipulation_targetAtFixation,jsons/VE125_randls_53.json,http://54.235.29.9/FacialAge/BNav_EC2/DepthDuration/v2_depth_duration_MTurk/v2_DepthDuration_HTML.html#68,68,2048,1010,2048,1152,8-21-2022,9-37-34,143,depth_duration_stimuli/000191_2014-05-12_17-07-38_260595134347_rgbf000199-resize_0/000191_2014-05-12_17-07-38_260595134347_rgbf000199-resize_0-target.png,125,3.7995,7,1822,124,feet,jsons/VE125_randls_53.json,501171,703485,37,Man
143,471848,DepthScenes,duration_manipulation_targetAtFixation,jsons/VE125_randls_53.json,http://54.235.29.9/FacialAge/BNav_EC2/DepthDuration/v2_depth_duration_MTurk/v2_DepthDuration_HTML.html#68,68,2048,1010,2048,1152,8-21-2022,9-37-34,144,depth_duration_stimuli/001056_2014-06-08_18-46-44_260595134347_rgbf000068-resize_0/001056_2014-06-08_18-46-44_260595134347_rgbf000068-resize_0-target.png,125,2.6625,5,1494,124,feet,jsons/VE125_randls_53.json,501171,703485,37,Man
144,471848,DepthScenes,duration_manipulation_targetAtFixation,jsons/VE125_randls_53.json,http://54.235.29.9/FacialAge/BNav_EC2/DepthDuration/v2_depth_duration_MTurk/v2_DepthDuration_HTML.html#68,68,2048,1010,2048,1152,8-21-2022,9-37-34,145,depth_duration_stimuli/002199_2014-06-28_18-33-56_260595134347_rgbf000074-resize_0/002199_2014-06-28_18-33-56_260595134347_rgbf000074-resize_0-target.png,125,1.996,4,3184,124,feet,jsons/VE125_randls_53.json,501171,703485,37,Man
145,471848,DepthScenes,duration_manipulation_targetAtFixation,jsons/VE125_randls_53.json,http://54.235.29.9/FacialAge/BNav_EC2/DepthDuration/v2_depth_duration_MTurk/v2_DepthDuration_HTML.html#68,68,2048,1010,2048,1152,8-21-2022,9-37-34,146,depth_duration_stimuli/001498_2014-06-19_17-45-14_260595134347_rgbf000129-resize_4/001498_2014-06-19_17-45-14_260595134347_rgbf000129-resize-original.jpg,125,1.4075,0,2334,124,feet,jsons/VE125_randls_53.json,501171,703485,37,Man
146,471848,DepthScenes,duration_manipulation_targetAtFixation,jsons/VE125_randls_53.json,http://54.235.29.9/FacialAge/BNav_EC2/DepthDuration/v2_depth_duration_MTurk/v2_DepthDuration_HTML.html#68,68,2048,1010,2048,1152,8-21-2022,9-37-34,147,depth_duration_stimuli/000414_2014-06-04_19-49-13_260595134347_rgbf000044-resize_0/000414_2014-06-04_19-49-13_260595134347_rgbf000044-resize_0-target.png,125,4.329,5,1461,124,feet,jsons/VE125_randls_53.json,501171,703485,37,Man
147,471848,DepthScenes,duration_manipulation_targetAtFixation,jsons/VE125_randls_53.json,http://54.235.29.9/FacialAge/BNav_EC2/DepthDuration/v2_depth_duration_MTurk/v2_DepthDuration_HTML.html#68,68,2048,1010,2048,1152,8-21-2022,9-37-34,148,depth_duration_stimuli/003129_2014-05-12_10-48-10_094959634447_rgbf000100-resize_0/003129_2014-05-12_10-48-10_094959634447_rgbf000100-resize_0-target.png,125,4.9305,4,1732,124,feet,jsons/VE125_randls_53.json,501171,703485,37,Man
148,471848,DepthScenes,duration_manipulation_targetAtFixation,jsons/VE125_randls_53.json,http://54.235.29.9/FacialAge/BNav_EC2/DepthDuration/v2_depth_duration_MTurk/v2_DepthDuration_HTML.html#68,68,2048,1010,2048,1152,8-21-2022,9-37-34,149,depth_duration_stimuli/000522_2014-06-08_13-35-06_260595134347_rgbf000244-resize_1/000522_2014-06-08_13-35-06_260595134347_rgbf000244-resize_1-target.png,125,2.3715,2,2038,123,feet,jsons/VE125_randls_53.json,501171,703485,37,Man
149,471848,DepthScenes,duration_manipulation_targetAtFixation,jsons/VE125_randls_53.json,http://54.235.29.9/FacialAge/BNav_EC2/DepthDuration/v2_depth_duration_MTurk/v2_DepthDuration_HTML.html#68,68,2048,1010,2048,1152,8-21-2022,9-37-34,150,depth_duration_stimuli/002949_2014-06-26_15-57-42_094959634447_rgbf000079-resize_1/002949_2014-06-26_15-57-42_094959634447_rgbf000079-resize_1-target.png,125,1.8915,3,1379,129,feet,jsons/VE125_randls_53.json,501171,703485,37,Man
150,471848,DepthScenes,duration_manipulation_targetAtFixation,jsons/VE125_randls_53.json,http://54.235.29.9/FacialAge/BNav_EC2/DepthDuration/v2_depth_duration_MTurk/v2_DepthDuration_HTML.html#68,68,2048,1010,2048,1152,8-21-2022,9-37-34,151,depth_duration_stimuli/000009_2014-05-26_14-32-05_260595134347_rgbf000034-resize_3/000009_2014-05-26_14-32-05_260595134347_rgbf000034-resize_3-target.png,125,3.8715,6,1416,128,feet,jsons/VE125_randls_53.json,501171,703485,37,Man
151,471848,DepthScenes,duration_manipulation_targetAtFixation,jsons/VE125_randls_53.json,http://54.235.29.9/FacialAge/BNav_EC2/DepthDuration/v2_depth_duration_MTurk/v2_DepthDuration_HTML.html#68,68,2048,1010,2048,1152,8-21-2022,9-37-34,152,depth_duration_stimuli/001828_2014-06-26_21-40-03_260595134347_rgbf000024-resize_0/001828_2014-06-26_21-40-03_260595134347_rgbf000024-resize_0-target.png,125,4.8260000000000005,5,1352,123,feet,jsons/VE125_randls_53.json,501171,703485,37,Man
152,471848,DepthScenes,duration_manipulation_targetAtFixation,jsons/VE125_randls_53.json,http://54.235.29.9/FacialAge/BNav_EC2/DepthDuration/v2_depth_duration_MTurk/v2_DepthDuration_HTML.html#68,68,2048,1010,2048,1152,8-21-2022,9-37-34,153,depth_duration_stimuli/001175_2014-06-17_15-45-55_260595134347_rgbf000129-resize_4/001175_2014-06-17_15-45-55_260595134347_rgbf000129-resize_4-target.png,125,4.255,5,1488,123,feet,jsons/VE125_randls_53.json,501171,703485,37,Man
153,471848,DepthScenes,duration_manipulation_targetAtFixation,jsons/VE125_randls_53.json,http://54.235.29.9/FacialAge/BNav_EC2/DepthDuration/v2_depth_duration_MTurk/v2_DepthDuration_HTML.html#68,68,2048,1010,2048,1152,8-21-2022,9-37-34,154,depth_duration_stimuli/003490_2014-05-21_15-50-11_094959634447_rgbf000101-resize_3/003490_2014-05-21_15-50-11_094959634447_rgbf000101-resize_3-target.png,125,3.6445,7,1765,128,feet,jsons/VE125_randls_53.json,501171,703485,37,Man
154,471848,DepthScenes,duration_manipulation_targetAtFixation,jsons/VE125_randls_53.json,http://54.235.29.9/FacialAge/BNav_EC2/DepthDuration/v2_depth_duration_MTurk/v2_DepthDuration_HTML.html#68,68,2048,1010,2048,1152,8-21-2022,9-37-34,155,depth_duration_stimuli/000682_2014-06-08_23-14-58_260595134347_rgbf000041-resize_5/000682_2014-06-08_23-14-58_260595134347_rgbf000041-resize_5-target.png,125,2.7239999999999998,4,1608,124,feet,jsons/VE125_randls_53.json,501171,703485,37,Man
155,471848,DepthScenes,duration_manipulation_targetAtFixation,jsons/VE125_randls_53.json,http://54.235.29.9/FacialAge/BNav_EC2/DepthDuration/v2_depth_duration_MTurk/v2_DepthDuration_HTML.html#68,68,2048,1010,2048,1152,8-21-2022,9-37-34,156,depth_duration_stimuli/001650_2014-06-20_12-09-00_260595134347_rgbf000087-resize_3/001650_2014-06-20_12-09-00_260595134347_rgbf000087-resize_3-target.png,125,1.9505,2,1683,124,feet,jsons/VE125_randls_53.json,501171,703485,37,Man
156,471848,DepthScenes,duration_manipulation_targetAtFixation,jsons/VE125_randls_53.json,http://54.235.29.9/FacialAge/BNav_EC2/DepthDuration/v2_depth_duration_MTurk/v2_DepthDuration_HTML.html#68,68,2048,1010,2048,1152,8-21-2022,9-37-34,157,depth_duration_stimuli/001055_2014-06-08_18-45-35_260595134347_rgbf000111-resize_4/001055_2014-06-08_18-45-35_260595134347_rgbf000111-resize_4-target.png,125,2.4290000000000003,6,1593,129,feet,jsons/VE125_randls_53.json,501171,703485,37,Man
157,471848,DepthScenes,duration_manipulation_targetAtFixation,jsons/VE125_randls_53.json,http://54.235.29.9/FacialAge/BNav_EC2/DepthDuration/v2_depth_duration_MTurk/v2_DepthDuration_HTML.html#68,68,2048,1010,2048,1152,8-21-2022,9-37-34,158,depth_duration_stimuli/000549_2014-06-08_22-10-24_260595134347_rgbf000247-resize_3/000549_2014-06-08_22-10-24_260595134347_rgbf000247-resize_3-target.png,125,1.841,3,1593,123,feet,jsons/VE125_randls_53.json,501171,703485,37,Man
158,471848,DepthScenes,duration_manipulation_targetAtFixation,jsons/VE125_randls_53.json,http://54.235.29.9/FacialAge/BNav_EC2/DepthDuration/v2_depth_duration_MTurk/v2_DepthDuration_HTML.html#68,68,2048,1010,2048,1152,8-21-2022,9-37-34,159,depth_duration_stimuli/001417_2014-06-19_16-25-36_260595134347_rgbf000115-resize_5/001417_2014-06-19_16-25-36_260595134347_rgbf000115-resize_5-target.png,125,4.6255,5,1326,124,feet,jsons/VE125_randls_53.json,501171,703485,37,Man
159,471848,DepthScenes,duration_manipulation_targetAtFixation,jsons/VE125_randls_53.json,http://54.235.29.9/FacialAge/BNav_EC2/DepthDuration/v2_depth_duration_MTurk/v2_DepthDuration_HTML.html#68,68,2048,1010,2048,1152,8-21-2022,9-37-34,160,depth_duration_stimuli/003081_2014-06-15_15-19-16_094959634447_rgbf000150-resize_1/003081_2014-06-15_15-19-16_094959634447_rgbf000150-resize_1-target.png,125,3.9125,6,1457,124,feet,jsons/VE125_randls_53.json,501171,703485,37,Man
160,471848,DepthScenes,duration_manipulation_targetAtFixation,jsons/VE125_randls_53.json,http://54.235.29.9/FacialAge/BNav_EC2/DepthDuration/v2_depth_duration_MTurk/v2_DepthDuration_HTML.html#68,68,2048,1010,2048,1152,8-21-2022,9-37-34,161,depth_duration_stimuli/001029_2014-06-08_13-17-57_260595134347_rgbf000065-resize_1/001029_2014-06-08_13-17-57_260595134347_rgbf000065-resize_1-target.png,125,3.0835,5,1735,123,feet,jsons/VE125_randls_53.json,501171,703485,37,Man
161,471848,DepthScenes,duration_manipulation_targetAtFixation,jsons/VE125_randls_53.json,http://54.235.29.9/FacialAge/BNav_EC2/DepthDuration/v2_depth_duration_MTurk/v2_DepthDuration_HTML.html#68,68,2048,1010,2048,1152,8-21-2022,9-37-34,162,depth_duration_stimuli/000677_2014-06-08_23-10-32_260595134347_rgbf000158-resize_6/000677_2014-06-08_23-10-32_260595134347_rgbf000158-resize_6-target.png,125,3.556,6,1593,127,feet,jsons/VE125_randls_53.json,501171,703485,37,Man
162,471848,DepthScenes,duration_manipulation_targetAtFixation,jsons/VE125_randls_53.json,http://54.235.29.9/FacialAge/BNav_EC2/DepthDuration/v2_depth_duration_MTurk/v2_DepthDuration_HTML.html#68,68,2048,1010,2048,1152,8-21-2022,9-37-34,163,depth_duration_stimuli/002279_2014-06-28_18-55-32_260595134347_rgbf000040-resize_5/002279_2014-06-28_18-55-32_260595134347_rgbf000040-resize_5-target.png,125,1.5043333333333,4,2107,124,feet,jsons/VE125_randls_53.json,501171,703485,37,Man
163,471848,DepthScenes,duration_manipulation_targetAtFixation,jsons/VE125_randls_53.json,http://54.235.29.9/FacialAge/BNav_EC2/DepthDuration/v2_depth_duration_MTurk/v2_DepthDuration_HTML.html#68,68,2048,1010,2048,1152,8-21-2022,9-37-34,164,depth_duration_stimuli/000635_2014-06-08_16-38-42_260595134347_rgbf000106-resize_1/000635_2014-06-08_16-38-42_260595134347_rgbf000106-resize_1-target.png,125,2.074,5,1383,127,feet,jsons/VE125_randls_53.json,501171,703485,37,Man
