,subjID,experimentName,versionName,sequenceName,url,selected_row,windowWidth,windowHeight,screenWidth,screenHeight,startDate,startTime,trial,stimulus,duration,actual_depth,depth_estimate,trial_RT,log_sceneDuration,unitSelection,seq_filepath,experimentTime,totalTime,age,gender
0,472239,DepthScenes,duration_manipulation_targetAtFixation,jsons/v1_VE250_randls_44_rotated.json,http://54.235.29.9/FacialAge/BNav_EC2/DepthDuration/v2_depth_duration_MTurk/v2_DepthDuration_HTML.html#131,131,1600,789,1600,900,8-20-2022,11-44-53,1,depth_duration_stimuli/001392_2014-06-19_16-07-59_260595134347_rgbf000046-resize_1/001392_2014-06-19_16-07-59_260595134347_rgbf000046-resize_1-target.png,250,4.135,50.0,2716,249,feet,jsons/v1_VE250_randls_44_rotated.json,454215,547097,30,Woman
1,472239,DepthScenes,duration_manipulation_targetAtFixation,jsons/v1_VE250_randls_44_rotated.json,http://54.235.29.9/FacialAge/BNav_EC2/DepthDuration/v2_depth_duration_MTurk/v2_DepthDuration_HTML.html#131,131,1600,789,1600,900,8-20-2022,11-44-53,2,depth_duration_stimuli/001570_2014-06-20_17-21-09_260595134347_rgbf000135-resize_4/001570_2014-06-20_17-21-09_260595134347_rgbf000135-resize_4-target.png,250,4.467,25.0,2970,249,feet,jsons/v1_VE250_randls_44_rotated.json,454215,547097,30,Woman
2,472239,DepthScenes,duration_manipulation_targetAtFixation,jsons/v1_VE250_randls_44_rotated.json,http://54.235.29.9/FacialAge/BNav_EC2/DepthDuration/v2_depth_duration_MTurk/v2_DepthDuration_HTML.html#131,131,1600,789,1600,900,8-20-2022,11-44-53,3,depth_duration_stimuli/002660_2014-06-13_15-44-18_094959634447_rgbf001878-resize_2/002660_2014-06-13_15-44-18_094959634447_rgbf001878-resize_2-target.png,250,3.576,38.0,2746,248,feet,jsons/v1_VE250_randls_44_rotated.json,454215,547097,30,Woman
3,472239,DepthScenes,duration_manipulation_targetAtFixation,jsons/v1_VE250_randls_44_rotated.json,http://54.235.29.9/FacialAge/BNav_EC2/DepthDuration/v2_depth_duration_MTurk/v2_DepthDuration_HTML.html#131,131,1600,789,1600,900,8-20-2022,11-44-53,4,depth_duration_stimuli/002153_2014-06-25_21-27-18_260595134347_rgbf000038-resize_5/002153_2014-06-25_21-27-18_260595134347_rgbf000038-resize_5-target.png,250,2.505,78.0,2538,249,feet,jsons/v1_VE250_randls_44_rotated.json,454215,547097,30,Woman
4,472239,DepthScenes,duration_manipulation_targetAtFixation,jsons/v1_VE250_randls_44_rotated.json,http://54.235.29.9/FacialAge/BNav_EC2/DepthDuration/v2_depth_duration_MTurk/v2_DepthDuration_HTML.html#131,131,1600,789,1600,900,8-20-2022,11-44-53,5,depth_duration_stimuli/002678_2014-06-13_16-15-32_094959634447_rgbf000151-resize_6/002678_2014-06-13_16-15-32_094959634447_rgbf000151-resize_6-target.png,250,2.1830000000000003,77.0,2074,249,feet,jsons/v1_VE250_randls_44_rotated.json,454215,547097,30,Woman
5,472239,DepthScenes,duration_manipulation_targetAtFixation,jsons/v1_VE250_randls_44_rotated.json,http://54.235.29.9/FacialAge/BNav_EC2/DepthDuration/v2_depth_duration_MTurk/v2_DepthDuration_HTML.html#131,131,1600,789,1600,900,8-20-2022,11-44-53,6,depth_duration_stimuli/000368_2014-06-09_15-53-01_260595134347_rgbf000155-resize_2/000368_2014-06-09_15-53-01_260595134347_rgbf000155-resize_2-target.png,250,2.4859999999999998,98.0,2012,250,feet,jsons/v1_VE250_randls_44_rotated.json,454215,547097,30,Woman
6,472239,DepthScenes,duration_manipulation_targetAtFixation,jsons/v1_VE250_randls_44_rotated.json,http://54.235.29.9/FacialAge/BNav_EC2/DepthDuration/v2_depth_duration_MTurk/v2_DepthDuration_HTML.html#131,131,1600,789,1600,900,8-20-2022,11-44-53,7,depth_duration_stimuli/003079_2014-06-15_15-18-20_094959634447_rgbf000152-resize_8/003079_2014-06-15_15-18-20_094959634447_rgbf000152-resize_8-target.png,250,2.8775,1.0,2508,251,feet,jsons/v1_VE250_randls_44_rotated.json,454215,547097,30,Woman
7,472239,DepthScenes,duration_manipulation_targetAtFixation,jsons/v1_VE250_randls_44_rotated.json,http://54.235.29.9/FacialAge/BNav_EC2/DepthDuration/v2_depth_duration_MTurk/v2_DepthDuration_HTML.html#131,131,1600,789,1600,900,8-20-2022,11-44-53,8,depth_duration_stimuli/000506_2014-06-08_23-21-00_260595134347_rgbf000070-resize_7/000506_2014-06-08_23-21-00_260595134347_rgbf000070-resize_7-target.png,250,4.0585,10.0,2279,249,feet,jsons/v1_VE250_randls_44_rotated.json,454215,547097,30,Woman
8,472239,DepthScenes,duration_manipulation_targetAtFixation,jsons/v1_VE250_randls_44_rotated.json,http://54.235.29.9/FacialAge/BNav_EC2/DepthDuration/v2_depth_duration_MTurk/v2_DepthDuration_HTML.html#131,131,1600,789,1600,900,8-20-2022,11-44-53,9,depth_duration_stimuli/003083_2014-06-15_15-21-03_094959634447_rgbf000063-resize_1/003083_2014-06-15_15-21-03_094959634447_rgbf000063-resize_1-target.png,250,4.1405,7.0,2109,250,feet,jsons/v1_VE250_randls_44_rotated.json,454215,547097,30,Woman
9,472239,DepthScenes,duration_manipulation_targetAtFixation,jsons/v1_VE250_randls_44_rotated.json,http://54.235.29.9/FacialAge/BNav_EC2/DepthDuration/v2_depth_duration_MTurk/v2_DepthDuration_HTML.html#131,131,1600,789,1600,900,8-20-2022,11-44-53,10,depth_duration_stimuli/000486_2014-06-09_20-47-20_260595134347_rgbf000143-resize_2/000486_2014-06-09_20-47-20_260595134347_rgbf000143-resize_2-target.png,250,4.8325,90.0,1946,249,feet,jsons/v1_VE250_randls_44_rotated.json,454215,547097,30,Woman
10,472239,DepthScenes,duration_manipulation_targetAtFixation,jsons/v1_VE250_randls_44_rotated.json,http://54.235.29.9/FacialAge/BNav_EC2/DepthDuration/v2_depth_duration_MTurk/v2_DepthDuration_HTML.html#131,131,1600,789,1600,900,8-20-2022,11-44-53,11,depth_duration_stimuli/003228_2014-05-14_13-42-35_094959634447_rgbf000101-resize_1/003228_2014-05-14_13-42-35_094959634447_rgbf000101-resize_1-target.png,250,1.9680000000000002,32.0,2123,250,feet,jsons/v1_VE250_randls_44_rotated.json,454215,547097,30,Woman
11,472239,DepthScenes,duration_manipulation_targetAtFixation,jsons/v1_VE250_randls_44_rotated.json,http://54.235.29.9/FacialAge/BNav_EC2/DepthDuration/v2_depth_duration_MTurk/v2_DepthDuration_HTML.html#131,131,1600,789,1600,900,8-20-2022,11-44-53,12,depth_duration_stimuli/002600_2014-06-24_14-27-04_094959634447_rgbf000074-resize_2/002600_2014-06-24_14-27-04_094959634447_rgbf000074-resize_2-target.png,250,2.7575,10.0,2552,250,feet,jsons/v1_VE250_randls_44_rotated.json,454215,547097,30,Woman
12,472239,DepthScenes,duration_manipulation_targetAtFixation,jsons/v1_VE250_randls_44_rotated.json,http://54.235.29.9/FacialAge/BNav_EC2/DepthDuration/v2_depth_duration_MTurk/v2_DepthDuration_HTML.html#131,131,1600,789,1600,900,8-20-2022,11-44-53,13,depth_duration_stimuli/000103_2014-05-14_22-01-17_260595134347_rgbf000152-resize_5/000103_2014-05-14_22-01-17_260595134347_rgbf000152-resize_5-target.png,250,1.993,25.0,1898,250,feet,jsons/v1_VE250_randls_44_rotated.json,454215,547097,30,Woman
13,472239,DepthScenes,duration_manipulation_targetAtFixation,jsons/v1_VE250_randls_44_rotated.json,http://54.235.29.9/FacialAge/BNav_EC2/DepthDuration/v2_depth_duration_MTurk/v2_DepthDuration_HTML.html#131,131,1600,789,1600,900,8-20-2022,11-44-53,14,depth_duration_stimuli/001555_2014-06-20_17-12-10_260595134347_rgbf000065-resize_4/001555_2014-06-20_17-12-10_260595134347_rgbf000065-resize_4-target.png,250,1.633,7.0,2409,249,feet,jsons/v1_VE250_randls_44_rotated.json,454215,547097,30,Woman
14,472239,DepthScenes,duration_manipulation_targetAtFixation,jsons/v1_VE250_randls_44_rotated.json,http://54.235.29.9/FacialAge/BNav_EC2/DepthDuration/v2_depth_duration_MTurk/v2_DepthDuration_HTML.html#131,131,1600,789,1600,900,8-20-2022,11-44-53,15,depth_duration_stimuli/002639_2014-06-24_14-51-37_094959634447_rgbf000074-resize_4/002639_2014-06-24_14-51-37_094959634447_rgbf000074-resize_4-target.png,250,4.0375,88.0,2251,250,feet,jsons/v1_VE250_randls_44_rotated.json,454215,547097,30,Woman
15,472239,DepthScenes,duration_manipulation_targetAtFixation,jsons/v1_VE250_randls_44_rotated.json,http://54.235.29.9/FacialAge/BNav_EC2/DepthDuration/v2_depth_duration_MTurk/v2_DepthDuration_HTML.html#131,131,1600,789,1600,900,8-20-2022,11-44-53,16,depth_duration_stimuli/003292_2014-05-14_21-53-49_094959634447_rgbf000100-resize_2/003292_2014-05-14_21-53-49_094959634447_rgbf000100-resize_2-target.png,250,3.4815,45.0,2010,250,feet,jsons/v1_VE250_randls_44_rotated.json,454215,547097,30,Woman
16,472239,DepthScenes,duration_manipulation_targetAtFixation,jsons/v1_VE250_randls_44_rotated.json,http://54.235.29.9/FacialAge/BNav_EC2/DepthDuration/v2_depth_duration_MTurk/v2_DepthDuration_HTML.html#131,131,1600,789,1600,900,8-20-2022,11-44-53,17,depth_duration_stimuli/002995_2014-06-15_12-31-26_094959634447_rgbf000150-resize_1/002995_2014-06-15_12-31-26_094959634447_rgbf000150-resize_1-target.png,250,3.8360000000000003,54.0,1804,250,feet,jsons/v1_VE250_randls_44_rotated.json,454215,547097,30,Woman
17,472239,DepthScenes,duration_manipulation_targetAtFixation,jsons/v1_VE250_randls_44_rotated.json,http://54.235.29.9/FacialAge/BNav_EC2/DepthDuration/v2_depth_duration_MTurk/v2_DepthDuration_HTML.html#131,131,1600,789,1600,900,8-20-2022,11-44-53,18,depth_duration_stimuli/002748_2014-06-22_19-07-22_094959634447_rgbf000078-resize_1/002748_2014-06-22_19-07-22_094959634447_rgbf000078-resize_1-target.png,250,4.6705,69.0,1817,250,feet,jsons/v1_VE250_randls_44_rotated.json,454215,547097,30,Woman
18,472239,DepthScenes,duration_manipulation_targetAtFixation,jsons/v1_VE250_randls_44_rotated.json,http://54.235.29.9/FacialAge/BNav_EC2/DepthDuration/v2_depth_duration_MTurk/v2_DepthDuration_HTML.html#131,131,1600,789,1600,900,8-20-2022,11-44-53,19,depth_duration_stimuli/001498_2014-06-19_17-45-14_260595134347_rgbf000129-resize_4/001498_2014-06-19_17-45-14_260595134347_rgbf000129-resize-original.jpg,250,1.4075,0.0,4107,250,feet,jsons/v1_VE250_randls_44_rotated.json,454215,547097,30,Woman
19,472239,DepthScenes,duration_manipulation_targetAtFixation,jsons/v1_VE250_randls_44_rotated.json,http://54.235.29.9/FacialAge/BNav_EC2/DepthDuration/v2_depth_duration_MTurk/v2_DepthDuration_HTML.html#131,131,1600,789,1600,900,8-20-2022,11-44-53,20,depth_duration_stimuli/002568_2014-06-24_13-59-21_094959634447_rgbf000062-resize_4/002568_2014-06-24_13-59-21_094959634447_rgbf000062-resize_4-target.png,250,3.015,10.0,2173,186,feet,jsons/v1_VE250_randls_44_rotated.json,454215,547097,30,Woman
20,472239,DepthScenes,duration_manipulation_targetAtFixation,jsons/v1_VE250_randls_44_rotated.json,http://54.235.29.9/FacialAge/BNav_EC2/DepthDuration/v2_depth_duration_MTurk/v2_DepthDuration_HTML.html#131,131,1600,789,1600,900,8-20-2022,11-44-53,21,depth_duration_stimuli/003492_2014-05-21_15-50-55_094959634447_rgbf000828-resize_1/003492_2014-05-21_15-50-55_094959634447_rgbf000828-resize_1-target.png,250,4.06875,30.0,2151,250,feet,jsons/v1_VE250_randls_44_rotated.json,454215,547097,30,Woman
21,472239,DepthScenes,duration_manipulation_targetAtFixation,jsons/v1_VE250_randls_44_rotated.json,http://54.235.29.9/FacialAge/BNav_EC2/DepthDuration/v2_depth_duration_MTurk/v2_DepthDuration_HTML.html#131,131,1600,789,1600,900,8-20-2022,11-44-53,22,depth_duration_stimuli/000854_2014-06-09_19-43-13_260595134347_rgbf000066-resize_0/000854_2014-06-09_19-43-13_260595134347_rgbf000066-resize_0-target.png,250,3.068,47.0,1931,236,feet,jsons/v1_VE250_randls_44_rotated.json,454215,547097,30,Woman
22,472239,DepthScenes,duration_manipulation_targetAtFixation,jsons/v1_VE250_randls_44_rotated.json,http://54.235.29.9/FacialAge/BNav_EC2/DepthDuration/v2_depth_duration_MTurk/v2_DepthDuration_HTML.html#131,131,1600,789,1600,900,8-20-2022,11-44-53,23,depth_duration_stimuli/000758_2014-06-08_22-05-08_260595134347_rgbf000085-resize_0/000758_2014-06-08_22-05-08_260595134347_rgbf000085-resize_0-target.png,250,3.3810000000000002,30.0,2123,251,feet,jsons/v1_VE250_randls_44_rotated.json,454215,547097,30,Woman
23,472239,DepthScenes,duration_manipulation_targetAtFixation,jsons/v1_VE250_randls_44_rotated.json,http://54.235.29.9/FacialAge/BNav_EC2/DepthDuration/v2_depth_duration_MTurk/v2_DepthDuration_HTML.html#131,131,1600,789,1600,900,8-20-2022,11-44-53,24,depth_duration_stimuli/001235_2014-06-17_16-37-36_260595134347_rgbf000084-resize_4/001235_2014-06-17_16-37-36_260595134347_rgbf000084-resize_4-target.png,250,3.6605,89.0,2141,249,feet,jsons/v1_VE250_randls_44_rotated.json,454215,547097,30,Woman
24,472239,DepthScenes,duration_manipulation_targetAtFixation,jsons/v1_VE250_randls_44_rotated.json,http://54.235.29.9/FacialAge/BNav_EC2/DepthDuration/v2_depth_duration_MTurk/v2_DepthDuration_HTML.html#131,131,1600,789,1600,900,8-20-2022,11-44-53,25,depth_duration_stimuli/000788_2014-06-08_22-34-36_260595134347_rgbf000131-resize_1/000788_2014-06-08_22-34-36_260595134347_rgbf000131-resize_1-target.png,250,3.359,11.0,2119,256,feet,jsons/v1_VE250_randls_44_rotated.json,454215,547097,30,Woman
25,472239,DepthScenes,duration_manipulation_targetAtFixation,jsons/v1_VE250_randls_44_rotated.json,http://54.235.29.9/FacialAge/BNav_EC2/DepthDuration/v2_depth_duration_MTurk/v2_DepthDuration_HTML.html#131,131,1600,789,1600,900,8-20-2022,11-44-53,26,depth_duration_stimuli/000709_2014-06-08_13-51-55_260595134347_rgbf000068-resize_3/000709_2014-06-08_13-51-55_260595134347_rgbf000068-resize_3-target.png,250,1.8030000000000002,0.0,1802,249,feet,jsons/v1_VE250_randls_44_rotated.json,454215,547097,30,Woman
26,472239,DepthScenes,duration_manipulation_targetAtFixation,jsons/v1_VE250_randls_44_rotated.json,http://54.235.29.9/FacialAge/BNav_EC2/DepthDuration/v2_depth_duration_MTurk/v2_DepthDuration_HTML.html#131,131,1600,789,1600,900,8-20-2022,11-44-53,27,depth_duration_stimuli/002057_2014-06-24_21-00-13_260595134347_rgbf000120-resize_1/002057_2014-06-24_21-00-13_260595134347_rgbf000120-resize_1-target.png,250,2.967,25.0,1787,250,feet,jsons/v1_VE250_randls_44_rotated.json,454215,547097,30,Woman
27,472239,DepthScenes,duration_manipulation_targetAtFixation,jsons/v1_VE250_randls_44_rotated.json,http://54.235.29.9/FacialAge/BNav_EC2/DepthDuration/v2_depth_duration_MTurk/v2_DepthDuration_HTML.html#131,131,1600,789,1600,900,8-20-2022,11-44-53,28,depth_duration_stimuli/000191_2014-05-12_17-07-38_260595134347_rgbf000199-resize_0/000191_2014-05-12_17-07-38_260595134347_rgbf000199-resize_0-target.png,250,3.7995,52.0,1866,250,feet,jsons/v1_VE250_randls_44_rotated.json,454215,547097,30,Woman
28,472239,DepthScenes,duration_manipulation_targetAtFixation,jsons/v1_VE250_randls_44_rotated.json,http://54.235.29.9/FacialAge/BNav_EC2/DepthDuration/v2_depth_duration_MTurk/v2_DepthDuration_HTML.html#131,131,1600,789,1600,900,8-20-2022,11-44-53,29,depth_duration_stimuli/000493_2014-06-09_21-01-18_260595134347_rgbf000196-resize_3/000493_2014-06-09_21-01-18_260595134347_rgbf000196-resize_3-target.png,250,3.44,98.0,2091,251,feet,jsons/v1_VE250_randls_44_rotated.json,454215,547097,30,Woman
29,472239,DepthScenes,duration_manipulation_targetAtFixation,jsons/v1_VE250_randls_44_rotated.json,http://54.235.29.9/FacialAge/BNav_EC2/DepthDuration/v2_depth_duration_MTurk/v2_DepthDuration_HTML.html#131,131,1600,789,1600,900,8-20-2022,11-44-53,30,depth_duration_stimuli/002072_2014-06-24_21-48-06_260595134347_rgbf000115-resize_0/002072_2014-06-24_21-48-06_260595134347_rgbf000115-resize-original.jpg,250,4.702,78.0,2104,250,feet,jsons/v1_VE250_randls_44_rotated.json,454215,547097,30,Woman
30,472239,DepthScenes,duration_manipulation_targetAtFixation,jsons/v1_VE250_randls_44_rotated.json,http://54.235.29.9/FacialAge/BNav_EC2/DepthDuration/v2_depth_duration_MTurk/v2_DepthDuration_HTML.html#131,131,1600,789,1600,900,8-20-2022,11-44-53,31,depth_duration_stimuli/001450_2014-06-19_17-02-03_260595134347_rgbf000203-resize_4/001450_2014-06-19_17-02-03_260595134347_rgbf000203-resize_4-target.png,250,4.0106666666667,89.0,1946,250,feet,jsons/v1_VE250_randls_44_rotated.json,454215,547097,30,Woman
31,472239,DepthScenes,duration_manipulation_targetAtFixation,jsons/v1_VE250_randls_44_rotated.json,http://54.235.29.9/FacialAge/BNav_EC2/DepthDuration/v2_depth_duration_MTurk/v2_DepthDuration_HTML.html#131,131,1600,789,1600,900,8-20-2022,11-44-53,32,depth_duration_stimuli/001449_2014-06-19_17-01-27_260595134347_rgbf000116-resize_2/001449_2014-06-19_17-01-27_260595134347_rgbf000116-resize_2-target.png,250,3.452,45.0,1899,264,feet,jsons/v1_VE250_randls_44_rotated.json,454215,547097,30,Woman
32,472239,DepthScenes,duration_manipulation_targetAtFixation,jsons/v1_VE250_randls_44_rotated.json,http://54.235.29.9/FacialAge/BNav_EC2/DepthDuration/v2_depth_duration_MTurk/v2_DepthDuration_HTML.html#131,131,1600,789,1600,900,8-20-2022,11-44-53,33,depth_duration_stimuli/000549_2014-06-08_22-10-24_260595134347_rgbf000247-resize_3/000549_2014-06-08_22-10-24_260595134347_rgbf000247-resize_3-target.png,250,1.841,56.0,1867,250,feet,jsons/v1_VE250_randls_44_rotated.json,454215,547097,30,Woman
33,472239,DepthScenes,duration_manipulation_targetAtFixation,jsons/v1_VE250_randls_44_rotated.json,http://54.235.29.9/FacialAge/BNav_EC2/DepthDuration/v2_depth_duration_MTurk/v2_DepthDuration_HTML.html#131,131,1600,789,1600,900,8-20-2022,11-44-53,34,depth_duration_stimuli/001055_2014-06-08_18-45-35_260595134347_rgbf000111-resize_4/001055_2014-06-08_18-45-35_260595134347_rgbf000111-resize_4-target.png,250,2.4290000000000003,12.0,1946,251,feet,jsons/v1_VE250_randls_44_rotated.json,454215,547097,30,Woman
34,472239,DepthScenes,duration_manipulation_targetAtFixation,jsons/v1_VE250_randls_44_rotated.json,http://54.235.29.9/FacialAge/BNav_EC2/DepthDuration/v2_depth_duration_MTurk/v2_DepthDuration_HTML.html#131,131,1600,789,1600,900,8-20-2022,11-44-53,35,depth_duration_stimuli/002875_2014-06-01_15-19-00_094959634447_rgbf000151-resize_1/002875_2014-06-01_15-19-00_094959634447_rgbf000151-resize_1-target.png,250,1.9675,23.0,1689,249,feet,jsons/v1_VE250_randls_44_rotated.json,454215,547097,30,Woman
35,472239,DepthScenes,duration_manipulation_targetAtFixation,jsons/v1_VE250_randls_44_rotated.json,http://54.235.29.9/FacialAge/BNav_EC2/DepthDuration/v2_depth_duration_MTurk/v2_DepthDuration_HTML.html#131,131,1600,789,1600,900,8-20-2022,11-44-53,36,depth_duration_stimuli/001011_2014-06-08_23-18-54_260595134347_rgbf000044-resize_4/001011_2014-06-08_23-18-54_260595134347_rgbf000044-resize_4-target.png,250,2.4730000000000003,87.0,2233,248,feet,jsons/v1_VE250_randls_44_rotated.json,454215,547097,30,Woman
36,472239,DepthScenes,duration_manipulation_targetAtFixation,jsons/v1_VE250_randls_44_rotated.json,http://54.235.29.9/FacialAge/BNav_EC2/DepthDuration/v2_depth_duration_MTurk/v2_DepthDuration_HTML.html#131,131,1600,789,1600,900,8-20-2022,11-44-53,37,depth_duration_stimuli/002136_2014-06-25_21-18-03_260595134347_rgbf000109-resize_3/002136_2014-06-25_21-18-03_260595134347_rgbf000109-resize_3-target.png,250,1.9569999999999999,98.0,2074,259,feet,jsons/v1_VE250_randls_44_rotated.json,454215,547097,30,Woman
37,472239,DepthScenes,duration_manipulation_targetAtFixation,jsons/v1_VE250_randls_44_rotated.json,http://54.235.29.9/FacialAge/BNav_EC2/DepthDuration/v2_depth_duration_MTurk/v2_DepthDuration_HTML.html#131,131,1600,789,1600,900,8-20-2022,11-44-53,38,depth_duration_stimuli/002964_2014-06-08_17-46-11_094959634447_rgbf000091-resize_4/002964_2014-06-08_17-46-11_094959634447_rgbf000091-resize_4-target.png,250,1.6909999999999998,54.0,1962,250,feet,jsons/v1_VE250_randls_44_rotated.json,454215,547097,30,Woman
38,472239,DepthScenes,duration_manipulation_targetAtFixation,jsons/v1_VE250_randls_44_rotated.json,http://54.235.29.9/FacialAge/BNav_EC2/DepthDuration/v2_depth_duration_MTurk/v2_DepthDuration_HTML.html#131,131,1600,789,1600,900,8-20-2022,11-44-53,39,depth_duration_stimuli/001032_2014-06-08_13-23-17_260595134347_rgbf000021-resize_3/001032_2014-06-08_13-23-17_260595134347_rgbf000021-resize_3-target.png,250,3.2725,65.0,1947,253,feet,jsons/v1_VE250_randls_44_rotated.json,454215,547097,30,Woman
39,472239,DepthScenes,duration_manipulation_targetAtFixation,jsons/v1_VE250_randls_44_rotated.json,http://54.235.29.9/FacialAge/BNav_EC2/DepthDuration/v2_depth_duration_MTurk/v2_DepthDuration_HTML.html#131,131,1600,789,1600,900,8-20-2022,11-44-53,40,depth_duration_stimuli/001059_2014-06-08_21-53-27_260595134347_rgbf000061-resize_4/001059_2014-06-08_21-53-27_260595134347_rgbf000061-resize_4-target.png,250,2.4185,21.0,2458,250,feet,jsons/v1_VE250_randls_44_rotated.json,454215,547097,30,Woman
40,472239,DepthScenes,duration_manipulation_targetAtFixation,jsons/v1_VE250_randls_44_rotated.json,http://54.235.29.9/FacialAge/BNav_EC2/DepthDuration/v2_depth_duration_MTurk/v2_DepthDuration_HTML.html#131,131,1600,789,1600,900,8-20-2022,11-44-53,41,depth_duration_stimuli/000677_2014-06-08_23-10-32_260595134347_rgbf000158-resize_6/000677_2014-06-08_23-10-32_260595134347_rgbf000158-resize_6-target.png,250,3.556,32.0,1930,248,feet,jsons/v1_VE250_randls_44_rotated.json,454215,547097,30,Woman
41,472239,DepthScenes,duration_manipulation_targetAtFixation,jsons/v1_VE250_randls_44_rotated.json,http://54.235.29.9/FacialAge/BNav_EC2/DepthDuration/v2_depth_duration_MTurk/v2_DepthDuration_HTML.html#131,131,1600,789,1600,900,8-20-2022,11-44-53,42,depth_duration_stimuli/001029_2014-06-08_13-17-57_260595134347_rgbf000065-resize_1/001029_2014-06-08_13-17-57_260595134347_rgbf000065-resize_1-target.png,250,3.0835,20.0,1977,250,feet,jsons/v1_VE250_randls_44_rotated.json,454215,547097,30,Woman
42,472239,DepthScenes,duration_manipulation_targetAtFixation,jsons/v1_VE250_randls_44_rotated.json,http://54.235.29.9/FacialAge/BNav_EC2/DepthDuration/v2_depth_duration_MTurk/v2_DepthDuration_HTML.html#131,131,1600,789,1600,900,8-20-2022,11-44-53,43,depth_duration_stimuli/002444_2014-06-28_20-32-08_260595134347_rgbf000027-resize_0/002444_2014-06-28_20-32-08_260595134347_rgbf000027-resize_0-target.png,250,4.388999999999999,30.0,1834,250,feet,jsons/v1_VE250_randls_44_rotated.json,454215,547097,30,Woman
43,472239,DepthScenes,duration_manipulation_targetAtFixation,jsons/v1_VE250_randls_44_rotated.json,http://54.235.29.9/FacialAge/BNav_EC2/DepthDuration/v2_depth_duration_MTurk/v2_DepthDuration_HTML.html#131,131,1600,789,1600,900,8-20-2022,11-44-53,44,depth_duration_stimuli/000436_2014-06-09_22-25-11_260595134347_rgbf000137-resize_1/000436_2014-06-09_22-25-11_260595134347_rgbf000137-resize_1-target.png,250,4.0705,40.0,1930,250,feet,jsons/v1_VE250_randls_44_rotated.json,454215,547097,30,Woman
44,472239,DepthScenes,duration_manipulation_targetAtFixation,jsons/v1_VE250_randls_44_rotated.json,http://54.235.29.9/FacialAge/BNav_EC2/DepthDuration/v2_depth_duration_MTurk/v2_DepthDuration_HTML.html#131,131,1600,789,1600,900,8-20-2022,11-44-53,45,depth_duration_stimuli/002209_2014-06-28_18-36-10_260595134347_rgbf000051-resize_1/002209_2014-06-28_18-36-10_260595134347_rgbf000051-resize_1-target.png,250,2.057,0.0,1803,251,feet,jsons/v1_VE250_randls_44_rotated.json,454215,547097,30,Woman
45,472239,DepthScenes,duration_manipulation_targetAtFixation,jsons/v1_VE250_randls_44_rotated.json,http://54.235.29.9/FacialAge/BNav_EC2/DepthDuration/v2_depth_duration_MTurk/v2_DepthDuration_HTML.html#131,131,1600,789,1600,900,8-20-2022,11-44-53,46,depth_duration_stimuli/002763_2014-06-22_19-13-10_094959634447_rgbf000075-resize_4/002763_2014-06-22_19-13-10_094959634447_rgbf000075-resize_4-target.png,250,1.68375,50.0,2010,250,feet,jsons/v1_VE250_randls_44_rotated.json,454215,547097,30,Woman
46,472239,DepthScenes,duration_manipulation_targetAtFixation,jsons/v1_VE250_randls_44_rotated.json,http://54.235.29.9/FacialAge/BNav_EC2/DepthDuration/v2_depth_duration_MTurk/v2_DepthDuration_HTML.html#131,131,1600,789,1600,900,8-20-2022,11-44-53,47,depth_duration_stimuli/003129_2014-05-12_10-48-10_094959634447_rgbf000100-resize_0/003129_2014-05-12_10-48-10_094959634447_rgbf000100-resize_0-target.png,250,4.9305,60.0,1945,250,feet,jsons/v1_VE250_randls_44_rotated.json,454215,547097,30,Woman
47,472239,DepthScenes,duration_manipulation_targetAtFixation,jsons/v1_VE250_randls_44_rotated.json,http://54.235.29.9/FacialAge/BNav_EC2/DepthDuration/v2_depth_duration_MTurk/v2_DepthDuration_HTML.html#131,131,1600,789,1600,900,8-20-2022,11-44-53,48,depth_duration_stimuli/000414_2014-06-04_19-49-13_260595134347_rgbf000044-resize_0/000414_2014-06-04_19-49-13_260595134347_rgbf000044-resize_0-target.png,250,4.329,70.0,1961,249,feet,jsons/v1_VE250_randls_44_rotated.json,454215,547097,30,Woman
48,472239,DepthScenes,duration_manipulation_targetAtFixation,jsons/v1_VE250_randls_44_rotated.json,http://54.235.29.9/FacialAge/BNav_EC2/DepthDuration/v2_depth_duration_MTurk/v2_DepthDuration_HTML.html#131,131,1600,789,1600,900,8-20-2022,11-44-53,49,depth_duration_stimuli/001170_2014-06-17_15-43-44_260595134347_rgbf000096-resize_6/001170_2014-06-17_15-43-44_260595134347_rgbf000096-resize-original.jpg,250,1.1909999999999998,0.0,1882,249,feet,jsons/v1_VE250_randls_44_rotated.json,454215,547097,30,Woman
49,472239,DepthScenes,duration_manipulation_targetAtFixation,jsons/v1_VE250_randls_44_rotated.json,http://54.235.29.9/FacialAge/BNav_EC2/DepthDuration/v2_depth_duration_MTurk/v2_DepthDuration_HTML.html#131,131,1600,789,1600,900,8-20-2022,11-44-53,50,depth_duration_stimuli/002805_2014-06-22_19-54-03_094959634447_rgbf000079-resize_1/002805_2014-06-22_19-54-03_094959634447_rgbf000079-resize_1-target.png,250,3.1439999999999997,80.0,1914,250,feet,jsons/v1_VE250_randls_44_rotated.json,454215,547097,30,Woman
50,472239,DepthScenes,duration_manipulation_targetAtFixation,jsons/v1_VE250_randls_44_rotated.json,http://54.235.29.9/FacialAge/BNav_EC2/DepthDuration/v2_depth_duration_MTurk/v2_DepthDuration_HTML.html#131,131,1600,789,1600,900,8-20-2022,11-44-53,51,depth_duration_stimuli/000906_2014-06-08_13-35-43_260595134347_rgbf000155-resize_1/000906_2014-06-08_13-35-43_260595134347_rgbf000155-resize_1-target.png,250,2.8489999999999998,90.0,1849,250,feet,jsons/v1_VE250_randls_44_rotated.json,454215,547097,30,Woman
51,472239,DepthScenes,duration_manipulation_targetAtFixation,jsons/v1_VE250_randls_44_rotated.json,http://54.235.29.9/FacialAge/BNav_EC2/DepthDuration/v2_depth_duration_MTurk/v2_DepthDuration_HTML.html#131,131,1600,789,1600,900,8-20-2022,11-44-53,52,depth_duration_stimuli/003495_2014-05-21_16-01-51_094959634447_rgbf000100-resize_3/003495_2014-05-21_16-01-51_094959634447_rgbf000100-resize_3-target.png,250,1.6255,100.0,2682,251,feet,jsons/v1_VE250_randls_44_rotated.json,454215,547097,30,Woman
52,472239,DepthScenes,duration_manipulation_targetAtFixation,jsons/v1_VE250_randls_44_rotated.json,http://54.235.29.9/FacialAge/BNav_EC2/DepthDuration/v2_depth_duration_MTurk/v2_DepthDuration_HTML.html#131,131,1600,789,1600,900,8-20-2022,11-44-53,53,depth_duration_stimuli/001244_2014-06-17_16-47-45_260595134347_rgbf000030-resize_4/001244_2014-06-17_16-47-45_260595134347_rgbf000030-resize_4-target.png,250,2.0425,10.0,2627,242,feet,jsons/v1_VE250_randls_44_rotated.json,454215,547097,30,Woman
53,472239,DepthScenes,duration_manipulation_targetAtFixation,jsons/v1_VE250_randls_44_rotated.json,http://54.235.29.9/FacialAge/BNav_EC2/DepthDuration/v2_depth_duration_MTurk/v2_DepthDuration_HTML.html#131,131,1600,789,1600,900,8-20-2022,11-44-53,54,depth_duration_stimuli/000749_2014-06-08_21-55-06_260595134347_rgbf000070-resize_2/000749_2014-06-08_21-55-06_260595134347_rgbf000070-resize_2-target.png,250,2.331,35.0,4714,250,feet,jsons/v1_VE250_randls_44_rotated.json,454215,547097,30,Woman
54,472239,DepthScenes,duration_manipulation_targetAtFixation,jsons/v1_VE250_randls_44_rotated.json,http://54.235.29.9/FacialAge/BNav_EC2/DepthDuration/v2_depth_duration_MTurk/v2_DepthDuration_HTML.html#131,131,1600,789,1600,900,8-20-2022,11-44-53,55,depth_duration_stimuli/002788_2014-06-22_19-36-03_094959634447_rgbf000088-resize_2/002788_2014-06-22_19-36-03_094959634447_rgbf000088-resize_2-target.png,250,1.6465,5.0,2492,249,feet,jsons/v1_VE250_randls_44_rotated.json,454215,547097,30,Woman
55,472239,DepthScenes,duration_manipulation_targetAtFixation,jsons/v1_VE250_randls_44_rotated.json,http://54.235.29.9/FacialAge/BNav_EC2/DepthDuration/v2_depth_duration_MTurk/v2_DepthDuration_HTML.html#131,131,1600,789,1600,900,8-20-2022,11-44-53,56,depth_duration_stimuli/001571_2014-06-20_17-21-32_260595134347_rgbf000089-resize_1/001571_2014-06-20_17-21-32_260595134347_rgbf000089-resize_1-target.png,250,1.86,9.0,1642,249,feet,jsons/v1_VE250_randls_44_rotated.json,454215,547097,30,Woman
56,472239,DepthScenes,duration_manipulation_targetAtFixation,jsons/v1_VE250_randls_44_rotated.json,http://54.235.29.9/FacialAge/BNav_EC2/DepthDuration/v2_depth_duration_MTurk/v2_DepthDuration_HTML.html#131,131,1600,789,1600,900,8-20-2022,11-44-53,57,depth_duration_stimuli/002272_2014-06-28_18-53-56_260595134347_rgbf000067-resize_2/002272_2014-06-28_18-53-56_260595134347_rgbf000067-resize_2-target.png,250,1.138,0.0,2031,250,feet,jsons/v1_VE250_randls_44_rotated.json,454215,547097,30,Woman
57,472239,DepthScenes,duration_manipulation_targetAtFixation,jsons/v1_VE250_randls_44_rotated.json,http://54.235.29.9/FacialAge/BNav_EC2/DepthDuration/v2_depth_duration_MTurk/v2_DepthDuration_HTML.html#131,131,1600,789,1600,900,8-20-2022,11-44-53,58,depth_duration_stimuli/003010_2014-06-15_12-54-35_094959634447_rgbf000112-resize_0/003010_2014-06-15_12-54-35_094959634447_rgbf000112-resize_0-target.png,250,3.1185,7.0,1667,250,feet,jsons/v1_VE250_randls_44_rotated.json,454215,547097,30,Woman
58,472239,DepthScenes,duration_manipulation_targetAtFixation,jsons/v1_VE250_randls_44_rotated.json,http://54.235.29.9/FacialAge/BNav_EC2/DepthDuration/v2_depth_duration_MTurk/v2_DepthDuration_HTML.html#131,131,1600,789,1600,900,8-20-2022,11-44-53,59,depth_duration_stimuli/001810_2014-06-26_20-51-35_260595134347_rgbf000040-resize_3/001810_2014-06-26_20-51-35_260595134347_rgbf000040-resize_3-target.png,250,2.2525,778.0,4458,248,feet,jsons/v1_VE250_randls_44_rotated.json,454215,547097,30,Woman
59,472239,DepthScenes,duration_manipulation_targetAtFixation,jsons/v1_VE250_randls_44_rotated.json,http://54.235.29.9/FacialAge/BNav_EC2/DepthDuration/v2_depth_duration_MTurk/v2_DepthDuration_HTML.html#131,131,1600,789,1600,900,8-20-2022,11-44-53,60,depth_duration_stimuli/000742_2014-06-08_18-48-09_260595134347_rgbf000164-resize_4/000742_2014-06-08_18-48-09_260595134347_rgbf000164-resize_4-target.png,250,4.632,88.0,2272,249,feet,jsons/v1_VE250_randls_44_rotated.json,454215,547097,30,Woman
60,472239,DepthScenes,duration_manipulation_targetAtFixation,jsons/v1_VE250_randls_44_rotated.json,http://54.235.29.9/FacialAge/BNav_EC2/DepthDuration/v2_depth_duration_MTurk/v2_DepthDuration_HTML.html#131,131,1600,789,1600,900,8-20-2022,11-44-53,61,depth_duration_stimuli/001066_2014-06-08_22-03-20_260595134347_rgbf000066-resize_4/001066_2014-06-08_22-03-20_260595134347_rgbf000066-resize_4-target.png,250,4.2330000000000005,89.0,1923,251,feet,jsons/v1_VE250_randls_44_rotated.json,454215,547097,30,Woman
61,472239,DepthScenes,duration_manipulation_targetAtFixation,jsons/v1_VE250_randls_44_rotated.json,http://54.235.29.9/FacialAge/BNav_EC2/DepthDuration/v2_depth_duration_MTurk/v2_DepthDuration_HTML.html#131,131,1600,789,1600,900,8-20-2022,11-44-53,62,depth_duration_stimuli/003423_2014-05-21_10-23-26_094959634447_rgbf002665-resize_2/003423_2014-05-21_10-23-26_094959634447_rgbf002665-resize_2-target.png,250,3.2575,20.0,1947,250,feet,jsons/v1_VE250_randls_44_rotated.json,454215,547097,30,Woman
62,472239,DepthScenes,duration_manipulation_targetAtFixation,jsons/v1_VE250_randls_44_rotated.json,http://54.235.29.9/FacialAge/BNav_EC2/DepthDuration/v2_depth_duration_MTurk/v2_DepthDuration_HTML.html#131,131,1600,789,1600,900,8-20-2022,11-44-53,63,depth_duration_stimuli/002905_2014-06-03_18-04-43_094959634447_rgbf000151-resize_2/002905_2014-06-03_18-04-43_094959634447_rgbf000151-resize_2-target.png,250,2.0295,27.0,1882,251,feet,jsons/v1_VE250_randls_44_rotated.json,454215,547097,30,Woman
63,472239,DepthScenes,duration_manipulation_targetAtFixation,jsons/v1_VE250_randls_44_rotated.json,http://54.235.29.9/FacialAge/BNav_EC2/DepthDuration/v2_depth_duration_MTurk/v2_DepthDuration_HTML.html#131,131,1600,789,1600,900,8-20-2022,11-44-53,64,depth_duration_stimuli/002199_2014-06-28_18-33-56_260595134347_rgbf000074-resize_0/002199_2014-06-28_18-33-56_260595134347_rgbf000074-resize_0-target.png,250,1.996,47.0,1737,250,feet,jsons/v1_VE250_randls_44_rotated.json,454215,547097,30,Woman
64,472239,DepthScenes,duration_manipulation_targetAtFixation,jsons/v1_VE250_randls_44_rotated.json,http://54.235.29.9/FacialAge/BNav_EC2/DepthDuration/v2_depth_duration_MTurk/v2_DepthDuration_HTML.html#131,131,1600,789,1600,900,8-20-2022,11-44-53,65,depth_duration_stimuli/001056_2014-06-08_18-46-44_260595134347_rgbf000068-resize_0/001056_2014-06-08_18-46-44_260595134347_rgbf000068-resize_0-target.png,250,2.6625,7.0,2508,250,feet,jsons/v1_VE250_randls_44_rotated.json,454215,547097,30,Woman
65,472239,DepthScenes,duration_manipulation_targetAtFixation,jsons/v1_VE250_randls_44_rotated.json,http://54.235.29.9/FacialAge/BNav_EC2/DepthDuration/v2_depth_duration_MTurk/v2_DepthDuration_HTML.html#131,131,1600,789,1600,900,8-20-2022,11-44-53,66,depth_duration_stimuli/001540_2014-06-20_17-01-05_260595134347_rgbf000086-resize_2/001540_2014-06-20_17-01-05_260595134347_rgbf000086-resize-original.jpg,250,1.459,0.0,2007,249,feet,jsons/v1_VE250_randls_44_rotated.json,454215,547097,30,Woman
66,472239,DepthScenes,duration_manipulation_targetAtFixation,jsons/v1_VE250_randls_44_rotated.json,http://54.235.29.9/FacialAge/BNav_EC2/DepthDuration/v2_depth_duration_MTurk/v2_DepthDuration_HTML.html#131,131,1600,789,1600,900,8-20-2022,11-44-53,67,depth_duration_stimuli/002545_2014-06-24_13-38-53_094959634447_rgbf000080-resize_4/002545_2014-06-24_13-38-53_094959634447_rgbf000080-resize_4-target.png,250,1.9205,10.0,2774,247,feet,jsons/v1_VE250_randls_44_rotated.json,454215,547097,30,Woman
67,472239,DepthScenes,duration_manipulation_targetAtFixation,jsons/v1_VE250_randls_44_rotated.json,http://54.235.29.9/FacialAge/BNav_EC2/DepthDuration/v2_depth_duration_MTurk/v2_DepthDuration_HTML.html#131,131,1600,789,1600,900,8-20-2022,11-44-53,68,depth_duration_stimuli/001092_2014-06-15_17-34-58_260595134347_rgbf000171-resize_3/001092_2014-06-15_17-34-58_260595134347_rgbf000171-resize_3-target.png,250,2.6935,30.0,1883,250,feet,jsons/v1_VE250_randls_44_rotated.json,454215,547097,30,Woman
68,472239,DepthScenes,duration_manipulation_targetAtFixation,jsons/v1_VE250_randls_44_rotated.json,http://54.235.29.9/FacialAge/BNav_EC2/DepthDuration/v2_depth_duration_MTurk/v2_DepthDuration_HTML.html#131,131,1600,789,1600,900,8-20-2022,11-44-53,69,depth_duration_stimuli/000483_2014-06-09_20-41-45_260595134347_rgbf000116-resize_4/000483_2014-06-09_20-41-45_260595134347_rgbf000116-resize_4-target.png,250,1.337,54.0,2203,251,feet,jsons/v1_VE250_randls_44_rotated.json,454215,547097,30,Woman
69,472239,DepthScenes,duration_manipulation_targetAtFixation,jsons/v1_VE250_randls_44_rotated.json,http://54.235.29.9/FacialAge/BNav_EC2/DepthDuration/v2_depth_duration_MTurk/v2_DepthDuration_HTML.html#131,131,1600,789,1600,900,8-20-2022,11-44-53,70,depth_duration_stimuli/000469_2014-06-09_19-42-10_260595134347_rgbf000081-resize_1/000469_2014-06-09_19-42-10_260595134347_rgbf000081-resize_1-target.png,250,1.652,65.0,2121,249,feet,jsons/v1_VE250_randls_44_rotated.json,454215,547097,30,Woman
70,472239,DepthScenes,duration_manipulation_targetAtFixation,jsons/v1_VE250_randls_44_rotated.json,http://54.235.29.9/FacialAge/BNav_EC2/DepthDuration/v2_depth_duration_MTurk/v2_DepthDuration_HTML.html#131,131,1600,789,1600,900,8-20-2022,11-44-53,71,depth_duration_stimuli/001815_2014-06-26_20-52-55_260595134347_rgbf000020-resize_0/001815_2014-06-26_20-52-55_260595134347_rgbf000020-resize_0-target.png,250,3.3865,78.0,2597,249,feet,jsons/v1_VE250_randls_44_rotated.json,454215,547097,30,Woman
71,472239,DepthScenes,duration_manipulation_targetAtFixation,jsons/v1_VE250_randls_44_rotated.json,http://54.235.29.9/FacialAge/BNav_EC2/DepthDuration/v2_depth_duration_MTurk/v2_DepthDuration_HTML.html#131,131,1600,789,1600,900,8-20-2022,11-44-53,72,depth_duration_stimuli/001808_2014-06-26_20-50-58_260595134347_rgbf000029-resize_1/001808_2014-06-26_20-50-58_260595134347_rgbf000029-resize_1-target.png,250,4.249,88.0,2157,230,feet,jsons/v1_VE250_randls_44_rotated.json,454215,547097,30,Woman
72,472239,DepthScenes,duration_manipulation_targetAtFixation,jsons/v1_VE250_randls_44_rotated.json,http://54.235.29.9/FacialAge/BNav_EC2/DepthDuration/v2_depth_duration_MTurk/v2_DepthDuration_HTML.html#131,131,1600,789,1600,900,8-20-2022,11-44-53,73,depth_duration_stimuli/003587_2014-05-23_16-48-02_094959634447_rgbf002384-resize_2/003587_2014-05-23_16-48-02_094959634447_rgbf002384-resize_2-target.png,250,1.357,20.0,2219,249,feet,jsons/v1_VE250_randls_44_rotated.json,454215,547097,30,Woman
73,472239,DepthScenes,duration_manipulation_targetAtFixation,jsons/v1_VE250_randls_44_rotated.json,http://54.235.29.9/FacialAge/BNav_EC2/DepthDuration/v2_depth_duration_MTurk/v2_DepthDuration_HTML.html#131,131,1600,789,1600,900,8-20-2022,11-44-53,74,depth_duration_stimuli/001167_2014-06-17_15-38-07_260595134347_rgbf000108-resize_0/001167_2014-06-17_15-38-07_260595134347_rgbf000108-resize_0-target.png,250,1.8505,54.0,1900,250,feet,jsons/v1_VE250_randls_44_rotated.json,454215,547097,30,Woman
74,472239,DepthScenes,duration_manipulation_targetAtFixation,jsons/v1_VE250_randls_44_rotated.json,http://54.235.29.9/FacialAge/BNav_EC2/DepthDuration/v2_depth_duration_MTurk/v2_DepthDuration_HTML.html#131,131,1600,789,1600,900,8-20-2022,11-44-53,75,depth_duration_stimuli/003048_2014-06-15_13-49-43_094959634447_rgbf000150-resize_1/003048_2014-06-15_13-49-43_094959634447_rgbf000150-resize_1-target.png,250,4.0035,89.0,1897,249,feet,jsons/v1_VE250_randls_44_rotated.json,454215,547097,30,Woman
75,472239,DepthScenes,duration_manipulation_targetAtFixation,jsons/v1_VE250_randls_44_rotated.json,http://54.235.29.9/FacialAge/BNav_EC2/DepthDuration/v2_depth_duration_MTurk/v2_DepthDuration_HTML.html#131,131,1600,789,1600,900,8-20-2022,11-44-53,76,depth_duration_stimuli/002043_2014-06-24_20-29-38_260595134347_rgbf000039-resize_4/002043_2014-06-24_20-29-38_260595134347_rgbf000039-resize_4-target.png,250,2.8435,32.0,2074,249,feet,jsons/v1_VE250_randls_44_rotated.json,454215,547097,30,Woman
76,472239,DepthScenes,duration_manipulation_targetAtFixation,jsons/v1_VE250_randls_44_rotated.json,http://54.235.29.9/FacialAge/BNav_EC2/DepthDuration/v2_depth_duration_MTurk/v2_DepthDuration_HTML.html#131,131,1600,789,1600,900,8-20-2022,11-44-53,77,depth_duration_stimuli/000665_2014-06-09_20-42-35_260595134347_rgbf000110-resize_1/000665_2014-06-09_20-42-35_260595134347_rgbf000110-resize_1-target.png,250,3.057,17.0,1930,250,feet,jsons/v1_VE250_randls_44_rotated.json,454215,547097,30,Woman
77,472239,DepthScenes,duration_manipulation_targetAtFixation,jsons/v1_VE250_randls_44_rotated.json,http://54.235.29.9/FacialAge/BNav_EC2/DepthDuration/v2_depth_duration_MTurk/v2_DepthDuration_HTML.html#131,131,1600,789,1600,900,8-20-2022,11-44-53,78,depth_duration_stimuli/001150_2014-06-17_15-27-34_260595134347_rgbf000108-resize_2/001150_2014-06-17_15-27-34_260595134347_rgbf000108-resize_2-target.png,250,4.0325,7.0,2185,251,feet,jsons/v1_VE250_randls_44_rotated.json,454215,547097,30,Woman
78,472239,DepthScenes,duration_manipulation_targetAtFixation,jsons/v1_VE250_randls_44_rotated.json,http://54.235.29.9/FacialAge/BNav_EC2/DepthDuration/v2_depth_duration_MTurk/v2_DepthDuration_HTML.html#131,131,1600,789,1600,900,8-20-2022,11-44-53,79,depth_duration_stimuli/003338_2014-05-20_11-01-23_094959634447_rgbf000051-resize_6/003338_2014-05-20_11-01-23_094959634447_rgbf000051-resize_6-target.png,250,1.693,57.0,2314,250,feet,jsons/v1_VE250_randls_44_rotated.json,454215,547097,30,Woman
79,472239,DepthScenes,duration_manipulation_targetAtFixation,jsons/v1_VE250_randls_44_rotated.json,http://54.235.29.9/FacialAge/BNav_EC2/DepthDuration/v2_depth_duration_MTurk/v2_DepthDuration_HTML.html#131,131,1600,789,1600,900,8-20-2022,11-44-53,80,depth_duration_stimuli/002509_2014-06-24_13-19-22_094959634447_rgbf000077-resize_0/002509_2014-06-24_13-19-22_094959634447_rgbf000077-resize_0-target.png,250,1.3065,75.0,2010,249,feet,jsons/v1_VE250_randls_44_rotated.json,454215,547097,30,Woman
80,472239,DepthScenes,duration_manipulation_targetAtFixation,jsons/v1_VE250_randls_44_rotated.json,http://54.235.29.9/FacialAge/BNav_EC2/DepthDuration/v2_depth_duration_MTurk/v2_DepthDuration_HTML.html#131,131,1600,789,1600,900,8-20-2022,11-44-53,81,depth_duration_stimuli/001052_2014-06-08_18-24-54_260595134347_rgbf000130-resize_1/001052_2014-06-08_18-24-54_260595134347_rgbf000130-resize_1-target.png,250,4.1045,887.0,2746,249,feet,jsons/v1_VE250_randls_44_rotated.json,454215,547097,30,Woman
81,472239,DepthScenes,duration_manipulation_targetAtFixation,jsons/v1_VE250_randls_44_rotated.json,http://54.235.29.9/FacialAge/BNav_EC2/DepthDuration/v2_depth_duration_MTurk/v2_DepthDuration_HTML.html#131,131,1600,789,1600,900,8-20-2022,11-44-53,82,depth_duration_stimuli/002988_2014-06-15_12-24-20_094959634447_rgbf000150-resize_1/002988_2014-06-15_12-24-20_094959634447_rgbf000150-resize_1-target.png,250,4.7669999999999995,99.0,2570,249,feet,jsons/v1_VE250_randls_44_rotated.json,454215,547097,30,Woman
82,472239,DepthScenes,duration_manipulation_targetAtFixation,jsons/v1_VE250_randls_44_rotated.json,http://54.235.29.9/FacialAge/BNav_EC2/DepthDuration/v2_depth_duration_MTurk/v2_DepthDuration_HTML.html#131,131,1600,789,1600,900,8-20-2022,11-44-53,83,depth_duration_stimuli/001100_2014-06-15_17-46-26_260595134347_rgbf000225-resize_2/001100_2014-06-15_17-46-26_260595134347_rgbf000225-resize_2-target.png,250,2.24,100.0,2363,251,feet,jsons/v1_VE250_randls_44_rotated.json,454215,547097,30,Woman
83,472239,DepthScenes,duration_manipulation_targetAtFixation,jsons/v1_VE250_randls_44_rotated.json,http://54.235.29.9/FacialAge/BNav_EC2/DepthDuration/v2_depth_duration_MTurk/v2_DepthDuration_HTML.html#131,131,1600,789,1600,900,8-20-2022,11-44-53,84,depth_duration_stimuli/002784_2014-06-22_19-26-30_094959634447_rgbf000083-resize_3/002784_2014-06-22_19-26-30_094959634447_rgbf000083-resize_3-target.png,250,1.8046666666667,65.0,2344,249,feet,jsons/v1_VE250_randls_44_rotated.json,454215,547097,30,Woman
84,472239,DepthScenes,duration_manipulation_targetAtFixation,jsons/v1_VE250_randls_44_rotated.json,http://54.235.29.9/FacialAge/BNav_EC2/DepthDuration/v2_depth_duration_MTurk/v2_DepthDuration_HTML.html#131,131,1600,789,1600,900,8-20-2022,11-44-53,85,depth_duration_stimuli/000137_2014-05-20_17-04-49_260595134347_rgbf000120-resize_1/000137_2014-05-20_17-04-49_260595134347_rgbf000120-resize_1-target.png,250,3.786,20.0,2442,249,feet,jsons/v1_VE250_randls_44_rotated.json,454215,547097,30,Woman
85,472239,DepthScenes,duration_manipulation_targetAtFixation,jsons/v1_VE250_randls_44_rotated.json,http://54.235.29.9/FacialAge/BNav_EC2/DepthDuration/v2_depth_duration_MTurk/v2_DepthDuration_HTML.html#131,131,1600,789,1600,900,8-20-2022,11-44-53,86,depth_duration_stimuli/000736_2014-06-08_18-24-15_260595134347_rgbf000206-resize_3/000736_2014-06-08_18-24-15_260595134347_rgbf000206-resize_3-target.png,250,3.515,39.0,2058,254,feet,jsons/v1_VE250_randls_44_rotated.json,454215,547097,30,Woman
86,472239,DepthScenes,duration_manipulation_targetAtFixation,jsons/v1_VE250_randls_44_rotated.json,http://54.235.29.9/FacialAge/BNav_EC2/DepthDuration/v2_depth_duration_MTurk/v2_DepthDuration_HTML.html#131,131,1600,789,1600,900,8-20-2022,11-44-53,87,depth_duration_stimuli/002637_2014-06-24_14-51-13_094959634447_rgbf000066-resize_4/002637_2014-06-24_14-51-13_094959634447_rgbf000066-resize_4-target.png,250,1.9955,57.0,2090,249,feet,jsons/v1_VE250_randls_44_rotated.json,454215,547097,30,Woman
87,472239,DepthScenes,duration_manipulation_targetAtFixation,jsons/v1_VE250_randls_44_rotated.json,http://54.235.29.9/FacialAge/BNav_EC2/DepthDuration/v2_depth_duration_MTurk/v2_DepthDuration_HTML.html#131,131,1600,789,1600,900,8-20-2022,11-44-53,88,depth_duration_stimuli/003534_2014-05-22_15-06-10_094959634447_rgbf000102-resize_4/003534_2014-05-22_15-06-10_094959634447_rgbf000102-resize_4-target.png,250,1.426,60.0,2395,250,feet,jsons/v1_VE250_randls_44_rotated.json,454215,547097,30,Woman
88,472239,DepthScenes,duration_manipulation_targetAtFixation,jsons/v1_VE250_randls_44_rotated.json,http://54.235.29.9/FacialAge/BNav_EC2/DepthDuration/v2_depth_duration_MTurk/v2_DepthDuration_HTML.html#131,131,1600,789,1600,900,8-20-2022,11-44-53,89,depth_duration_stimuli/000556_2014-06-09_22-42-56_260595134347_rgbf000214-resize_1/000556_2014-06-09_22-42-56_260595134347_rgbf000214-resize_1-target.png,250,4.8415,57.0,2586,250,feet,jsons/v1_VE250_randls_44_rotated.json,454215,547097,30,Woman
89,472239,DepthScenes,duration_manipulation_targetAtFixation,jsons/v1_VE250_randls_44_rotated.json,http://54.235.29.9/FacialAge/BNav_EC2/DepthDuration/v2_depth_duration_MTurk/v2_DepthDuration_HTML.html#131,131,1600,789,1600,900,8-20-2022,11-44-53,90,depth_duration_stimuli/001158_2014-06-17_15-32-16_260595134347_rgbf000138-resize_2/001158_2014-06-17_15-32-16_260595134347_rgbf000138-resize_2-target.png,250,4.5315,87.0,2219,249,feet,jsons/v1_VE250_randls_44_rotated.json,454215,547097,30,Woman
90,472239,DepthScenes,duration_manipulation_targetAtFixation,jsons/v1_VE250_randls_44_rotated.json,http://54.235.29.9/FacialAge/BNav_EC2/DepthDuration/v2_depth_duration_MTurk/v2_DepthDuration_HTML.html#131,131,1600,789,1600,900,8-20-2022,11-44-53,91,depth_duration_stimuli/002323_2014-06-28_20-01-54_260595134347_rgbf000051-resize_4/002323_2014-06-28_20-01-54_260595134347_rgbf000051-resize_4-target.png,250,3.7310000000000003,20.0,2411,250,feet,jsons/v1_VE250_randls_44_rotated.json,454215,547097,30,Woman
91,472239,DepthScenes,duration_manipulation_targetAtFixation,jsons/v1_VE250_randls_44_rotated.json,http://54.235.29.9/FacialAge/BNav_EC2/DepthDuration/v2_depth_duration_MTurk/v2_DepthDuration_HTML.html#131,131,1600,789,1600,900,8-20-2022,11-44-53,92,depth_duration_stimuli/000917_2014-06-09_22-45-29_260595134347_rgbf000149-resize_3/000917_2014-06-09_22-45-29_260595134347_rgbf000149-resize_3-target.png,250,4.1865,57.0,2329,248,feet,jsons/v1_VE250_randls_44_rotated.json,454215,547097,30,Woman
92,472239,DepthScenes,duration_manipulation_targetAtFixation,jsons/v1_VE250_randls_44_rotated.json,http://54.235.29.9/FacialAge/BNav_EC2/DepthDuration/v2_depth_duration_MTurk/v2_DepthDuration_HTML.html#131,131,1600,789,1600,900,8-20-2022,11-44-53,93,depth_duration_stimuli/002750_2014-06-22_19-08-03_094959634447_rgbf000094-resize_4/002750_2014-06-22_19-08-03_094959634447_rgbf000094-resize_4-target.png,250,2.354,41.0,2064,249,feet,jsons/v1_VE250_randls_44_rotated.json,454215,547097,30,Woman
93,472239,DepthScenes,duration_manipulation_targetAtFixation,jsons/v1_VE250_randls_44_rotated.json,http://54.235.29.9/FacialAge/BNav_EC2/DepthDuration/v2_depth_duration_MTurk/v2_DepthDuration_HTML.html#131,131,1600,789,1600,900,8-20-2022,11-44-53,94,depth_duration_stimuli/002549_2014-06-24_13-41-39_094959634447_rgbf000022-resize_3/002549_2014-06-24_13-41-39_094959634447_rgbf000022-resize_3-target.png,250,1.476,41.0,1892,249,feet,jsons/v1_VE250_randls_44_rotated.json,454215,547097,30,Woman
94,472239,DepthScenes,duration_manipulation_targetAtFixation,jsons/v1_VE250_randls_44_rotated.json,http://54.235.29.9/FacialAge/BNav_EC2/DepthDuration/v2_depth_duration_MTurk/v2_DepthDuration_HTML.html#131,131,1600,789,1600,900,8-20-2022,11-44-53,95,depth_duration_stimuli/001650_2014-06-20_12-09-00_260595134347_rgbf000087-resize_3/001650_2014-06-20_12-09-00_260595134347_rgbf000087-resize_3-target.png,250,1.9505,25.0,2266,249,feet,jsons/v1_VE250_randls_44_rotated.json,454215,547097,30,Woman
95,472239,DepthScenes,duration_manipulation_targetAtFixation,jsons/v1_VE250_randls_44_rotated.json,http://54.235.29.9/FacialAge/BNav_EC2/DepthDuration/v2_depth_duration_MTurk/v2_DepthDuration_HTML.html#131,131,1600,789,1600,900,8-20-2022,11-44-53,96,depth_duration_stimuli/000682_2014-06-08_23-14-58_260595134347_rgbf000041-resize_5/000682_2014-06-08_23-14-58_260595134347_rgbf000041-resize_5-target.png,250,2.7239999999999998,33.0,2121,251,feet,jsons/v1_VE250_randls_44_rotated.json,454215,547097,30,Woman
96,472239,DepthScenes,duration_manipulation_targetAtFixation,jsons/v1_VE250_randls_44_rotated.json,http://54.235.29.9/FacialAge/BNav_EC2/DepthDuration/v2_depth_duration_MTurk/v2_DepthDuration_HTML.html#131,131,1600,789,1600,900,8-20-2022,11-44-53,97,depth_duration_stimuli/001447_2014-06-19_17-00-32_260595134347_rgbf000082-resize_5/001447_2014-06-19_17-00-32_260595134347_rgbf000082-resize_5-target.png,250,4.13775,63.0,1897,249,feet,jsons/v1_VE250_randls_44_rotated.json,454215,547097,30,Woman
97,472239,DepthScenes,duration_manipulation_targetAtFixation,jsons/v1_VE250_randls_44_rotated.json,http://54.235.29.9/FacialAge/BNav_EC2/DepthDuration/v2_depth_duration_MTurk/v2_DepthDuration_HTML.html#131,131,1600,789,1600,900,8-20-2022,11-44-53,98,depth_duration_stimuli/000447_2014-06-08_16-15-46_260595134347_rgbf000130-resize_1/000447_2014-06-08_16-15-46_260595134347_rgbf000130-resize_1-target.png,250,4.479,13.0,1899,250,feet,jsons/v1_VE250_randls_44_rotated.json,454215,547097,30,Woman
98,472239,DepthScenes,duration_manipulation_targetAtFixation,jsons/v1_VE250_randls_44_rotated.json,http://54.235.29.9/FacialAge/BNav_EC2/DepthDuration/v2_depth_duration_MTurk/v2_DepthDuration_HTML.html#131,131,1600,789,1600,900,8-20-2022,11-44-53,99,depth_duration_stimuli/001222_2014-06-17_16-24-06_260595134347_rgbf000073-resize_0/001222_2014-06-17_16-24-06_260595134347_rgbf000073-resize-original.jpg,250,1.4385,0.0,1820,252,feet,jsons/v1_VE250_randls_44_rotated.json,454215,547097,30,Woman
99,472239,DepthScenes,duration_manipulation_targetAtFixation,jsons/v1_VE250_randls_44_rotated.json,http://54.235.29.9/FacialAge/BNav_EC2/DepthDuration/v2_depth_duration_MTurk/v2_DepthDuration_HTML.html#131,131,1600,789,1600,900,8-20-2022,11-44-53,100,depth_duration_stimuli/000866_2014-06-09_20-45-42_260595134347_rgbf000139-resize_1/000866_2014-06-09_20-45-42_260595134347_rgbf000139-resize_1-target.png,250,3.2155,23.0,1866,249,feet,jsons/v1_VE250_randls_44_rotated.json,454215,547097,30,Woman
100,472239,DepthScenes,duration_manipulation_targetAtFixation,jsons/v1_VE250_randls_44_rotated.json,http://54.235.29.9/FacialAge/BNav_EC2/DepthDuration/v2_depth_duration_MTurk/v2_DepthDuration_HTML.html#131,131,1600,789,1600,900,8-20-2022,11-44-53,101,depth_duration_stimuli/002989_2014-06-15_12-25-03_094959634447_rgbf000150-resize_3/002989_2014-06-15_12-25-03_094959634447_rgbf000150-resize_3-target.png,250,4.1975,33.0,1802,248,feet,jsons/v1_VE250_randls_44_rotated.json,454215,547097,30,Woman
101,472239,DepthScenes,duration_manipulation_targetAtFixation,jsons/v1_VE250_randls_44_rotated.json,http://54.235.29.9/FacialAge/BNav_EC2/DepthDuration/v2_depth_duration_MTurk/v2_DepthDuration_HTML.html#131,131,1600,789,1600,900,8-20-2022,11-44-53,102,depth_duration_stimuli/002949_2014-06-26_15-57-42_094959634447_rgbf000079-resize_1/002949_2014-06-26_15-57-42_094959634447_rgbf000079-resize_1-target.png,250,1.8915,43.0,2426,250,feet,jsons/v1_VE250_randls_44_rotated.json,454215,547097,30,Woman
102,472239,DepthScenes,duration_manipulation_targetAtFixation,jsons/v1_VE250_randls_44_rotated.json,http://54.235.29.9/FacialAge/BNav_EC2/DepthDuration/v2_depth_duration_MTurk/v2_DepthDuration_HTML.html#131,131,1600,789,1600,900,8-20-2022,11-44-53,103,depth_duration_stimuli/000522_2014-06-08_13-35-06_260595134347_rgbf000244-resize_1/000522_2014-06-08_13-35-06_260595134347_rgbf000244-resize_1-target.png,250,2.3715,53.0,2041,250,feet,jsons/v1_VE250_randls_44_rotated.json,454215,547097,30,Woman
103,472239,DepthScenes,duration_manipulation_targetAtFixation,jsons/v1_VE250_randls_44_rotated.json,http://54.235.29.9/FacialAge/BNav_EC2/DepthDuration/v2_depth_duration_MTurk/v2_DepthDuration_HTML.html#131,131,1600,789,1600,900,8-20-2022,11-44-53,104,depth_duration_stimuli/002344_2014-06-28_20-06-29_260595134347_rgbf000030-resize_1/002344_2014-06-28_20-06-29_260595134347_rgbf000030-resize_1-target.png,250,1.5795,63.0,2603,250,feet,jsons/v1_VE250_randls_44_rotated.json,454215,547097,30,Woman
104,472239,DepthScenes,duration_manipulation_targetAtFixation,jsons/v1_VE250_randls_44_rotated.json,http://54.235.29.9/FacialAge/BNav_EC2/DepthDuration/v2_depth_duration_MTurk/v2_DepthDuration_HTML.html#131,131,1600,789,1600,900,8-20-2022,11-44-53,105,depth_duration_stimuli/002725_2014-06-22_11-47-51_094959634447_rgbf000070-resize_1/002725_2014-06-22_11-47-51_094959634447_rgbf000070-resize_1-target.png,250,2.195,73.0,2104,250,feet,jsons/v1_VE250_randls_44_rotated.json,454215,547097,30,Woman
105,472239,DepthScenes,duration_manipulation_targetAtFixation,jsons/v1_VE250_randls_44_rotated.json,http://54.235.29.9/FacialAge/BNav_EC2/DepthDuration/v2_depth_duration_MTurk/v2_DepthDuration_HTML.html#131,131,1600,789,1600,900,8-20-2022,11-44-53,106,depth_duration_stimuli/000943_2014-06-09_19-31-07_260595134347_rgbf000128-resize_1/000943_2014-06-09_19-31-07_260595134347_rgbf000128-resize_1-target.png,250,1.9765,83.0,2122,250,feet,jsons/v1_VE250_randls_44_rotated.json,454215,547097,30,Woman
106,472239,DepthScenes,duration_manipulation_targetAtFixation,jsons/v1_VE250_randls_44_rotated.json,http://54.235.29.9/FacialAge/BNav_EC2/DepthDuration/v2_depth_duration_MTurk/v2_DepthDuration_HTML.html#131,131,1600,789,1600,900,8-20-2022,11-44-53,107,depth_duration_stimuli/003070_2014-06-15_14-58-27_094959634447_rgbf000150-resize_3/003070_2014-06-15_14-58-27_094959634447_rgbf000150-resize_3-target.png,250,2.9415,93.0,2937,252,feet,jsons/v1_VE250_randls_44_rotated.json,454215,547097,30,Woman
107,472239,DepthScenes,duration_manipulation_targetAtFixation,jsons/v1_VE250_randls_44_rotated.json,http://54.235.29.9/FacialAge/BNav_EC2/DepthDuration/v2_depth_duration_MTurk/v2_DepthDuration_HTML.html#131,131,1600,789,1600,900,8-20-2022,11-44-53,108,depth_duration_stimuli/002758_2014-06-22_19-11-20_094959634447_rgbf000128-resize_1/002758_2014-06-22_19-11-20_094959634447_rgbf000128-resize_1-target.png,250,2.555,100.0,2121,249,feet,jsons/v1_VE250_randls_44_rotated.json,454215,547097,30,Woman
108,472239,DepthScenes,duration_manipulation_targetAtFixation,jsons/v1_VE250_randls_44_rotated.json,http://54.235.29.9/FacialAge/BNav_EC2/DepthDuration/v2_depth_duration_MTurk/v2_DepthDuration_HTML.html#131,131,1600,789,1600,900,8-20-2022,11-44-53,109,depth_duration_stimuli/002630_2014-06-24_14-47-50_094959634447_rgbf000055-resize_1/002630_2014-06-24_14-47-50_094959634447_rgbf000055-resize_1-target.png,250,3.0095,3.0,1770,250,feet,jsons/v1_VE250_randls_44_rotated.json,454215,547097,30,Woman
109,472239,DepthScenes,duration_manipulation_targetAtFixation,jsons/v1_VE250_randls_44_rotated.json,http://54.235.29.9/FacialAge/BNav_EC2/DepthDuration/v2_depth_duration_MTurk/v2_DepthDuration_HTML.html#131,131,1600,789,1600,900,8-20-2022,11-44-53,110,depth_duration_stimuli/002340_2014-06-28_20-05-46_260595134347_rgbf000113-resize_0/002340_2014-06-28_20-05-46_260595134347_rgbf000113-resize_0-target.png,250,2.4735,12.0,1994,250,feet,jsons/v1_VE250_randls_44_rotated.json,454215,547097,30,Woman
110,472239,DepthScenes,duration_manipulation_targetAtFixation,jsons/v1_VE250_randls_44_rotated.json,http://54.235.29.9/FacialAge/BNav_EC2/DepthDuration/v2_depth_duration_MTurk/v2_DepthDuration_HTML.html#131,131,1600,789,1600,900,8-20-2022,11-44-53,111,depth_duration_stimuli/001016_2014-06-09_16-16-10_260595134347_rgbf000112-resize_5/001016_2014-06-09_16-16-10_260595134347_rgbf000112-resize_5-target.png,250,1.6565,22.0,2298,255,feet,jsons/v1_VE250_randls_44_rotated.json,454215,547097,30,Woman
111,472239,DepthScenes,duration_manipulation_targetAtFixation,jsons/v1_VE250_randls_44_rotated.json,http://54.235.29.9/FacialAge/BNav_EC2/DepthDuration/v2_depth_duration_MTurk/v2_DepthDuration_HTML.html#131,131,1600,789,1600,900,8-20-2022,11-44-53,112,depth_duration_stimuli/001584_2014-06-20_11-07-43_260595134347_rgbf000002-resize_1/001584_2014-06-20_11-07-43_260595134347_rgbf000002-resize_1-target.png,250,3.53,33.0,7579,251,feet,jsons/v1_VE250_randls_44_rotated.json,454215,547097,30,Woman
112,472239,DepthScenes,duration_manipulation_targetAtFixation,jsons/v1_VE250_randls_44_rotated.json,http://54.235.29.9/FacialAge/BNav_EC2/DepthDuration/v2_depth_duration_MTurk/v2_DepthDuration_HTML.html#131,131,1600,789,1600,900,8-20-2022,11-44-53,113,depth_duration_stimuli/003621_2014-05-23_18-06-08_094959634447_rgbf000101-resize_1/003621_2014-05-23_18-06-08_094959634447_rgbf000101-resize_1-target.png,250,3.9835,32.0,2072,249,feet,jsons/v1_VE250_randls_44_rotated.json,454215,547097,30,Woman
113,472239,DepthScenes,duration_manipulation_targetAtFixation,jsons/v1_VE250_randls_44_rotated.json,http://54.235.29.9/FacialAge/BNav_EC2/DepthDuration/v2_depth_duration_MTurk/v2_DepthDuration_HTML.html#131,131,1600,789,1600,900,8-20-2022,11-44-53,114,depth_duration_stimuli/001617_2014-06-20_11-35-32_260595134347_rgbf000066-resize_1/001617_2014-06-20_11-35-32_260595134347_rgbf000066-resize_1-target.png,250,3.7910000000000004,58.0,4300,250,feet,jsons/v1_VE250_randls_44_rotated.json,454215,547097,30,Woman
114,472239,DepthScenes,duration_manipulation_targetAtFixation,jsons/v1_VE250_randls_44_rotated.json,http://54.235.29.9/FacialAge/BNav_EC2/DepthDuration/v2_depth_duration_MTurk/v2_DepthDuration_HTML.html#131,131,1600,789,1600,900,8-20-2022,11-44-53,115,depth_duration_stimuli/001806_2014-06-26_20-50-20_260595134347_rgbf000091-resize_1/001806_2014-06-26_20-50-20_260595134347_rgbf000091-resize_1-target.png,250,2.7305,25.0,2343,249,feet,jsons/v1_VE250_randls_44_rotated.json,454215,547097,30,Woman
115,472239,DepthScenes,duration_manipulation_targetAtFixation,jsons/v1_VE250_randls_44_rotated.json,http://54.235.29.9/FacialAge/BNav_EC2/DepthDuration/v2_depth_duration_MTurk/v2_DepthDuration_HTML.html#131,131,1600,789,1600,900,8-20-2022,11-44-53,116,depth_duration_stimuli/000502_2014-06-08_23-02-32_260595134347_rgbf000063-resize_4/000502_2014-06-08_23-02-32_260595134347_rgbf000063-resize_4-target.png,250,2.431,30.0,2928,249,feet,jsons/v1_VE250_randls_44_rotated.json,454215,547097,30,Woman
116,472239,DepthScenes,duration_manipulation_targetAtFixation,jsons/v1_VE250_randls_44_rotated.json,http://54.235.29.9/FacialAge/BNav_EC2/DepthDuration/v2_depth_duration_MTurk/v2_DepthDuration_HTML.html#131,131,1600,789,1600,900,8-20-2022,11-44-53,117,depth_duration_stimuli/001199_2014-06-17_16-03-48_260595134347_rgbf000077-resize_0/001199_2014-06-17_16-03-48_260595134347_rgbf000077-resize_0-target.png,250,3.4375,78.0,2227,249,feet,jsons/v1_VE250_randls_44_rotated.json,454215,547097,30,Woman
117,472239,DepthScenes,duration_manipulation_targetAtFixation,jsons/v1_VE250_randls_44_rotated.json,http://54.235.29.9/FacialAge/BNav_EC2/DepthDuration/v2_depth_duration_MTurk/v2_DepthDuration_HTML.html#131,131,1600,789,1600,900,8-20-2022,11-44-53,118,depth_duration_stimuli/002953_2014-06-08_17-32-18_094959634447_rgbf000059-resize_5/002953_2014-06-08_17-32-18_094959634447_rgbf000059-resize_5-target.png,250,1.551,99.0,3837,251,feet,jsons/v1_VE250_randls_44_rotated.json,454215,547097,30,Woman
118,472239,DepthScenes,duration_manipulation_targetAtFixation,jsons/v1_VE250_randls_44_rotated.json,http://54.235.29.9/FacialAge/BNav_EC2/DepthDuration/v2_depth_duration_MTurk/v2_DepthDuration_HTML.html#131,131,1600,789,1600,900,8-20-2022,11-44-53,119,depth_duration_stimuli/000878_2014-06-08_22-52-45_260595134347_rgbf000045-resize_2/000878_2014-06-08_22-52-45_260595134347_rgbf000045-resize_2-target.png,250,2.092,0.0,3082,249,feet,jsons/v1_VE250_randls_44_rotated.json,454215,547097,30,Woman
119,472239,DepthScenes,duration_manipulation_targetAtFixation,jsons/v1_VE250_randls_44_rotated.json,http://54.235.29.9/FacialAge/BNav_EC2/DepthDuration/v2_depth_duration_MTurk/v2_DepthDuration_HTML.html#131,131,1600,789,1600,900,8-20-2022,11-44-53,120,depth_duration_stimuli/000787_2014-06-08_22-33-53_260595134347_rgbf000175-resize_1/000787_2014-06-08_22-33-53_260595134347_rgbf000175-resize-original.jpg,250,4.784,0.0,2683,250,feet,jsons/v1_VE250_randls_44_rotated.json,454215,547097,30,Woman
120,472239,DepthScenes,duration_manipulation_targetAtFixation,jsons/v1_VE250_randls_44_rotated.json,http://54.235.29.9/FacialAge/BNav_EC2/DepthDuration/v2_depth_duration_MTurk/v2_DepthDuration_HTML.html#131,131,1600,789,1600,900,8-20-2022,11-44-53,121,depth_duration_stimuli/001136_2014-06-17_15-19-41_260595134347_rgbf000076-resize_3/001136_2014-06-17_15-19-41_260595134347_rgbf000076-resize_3-target.png,250,1.8655,36.0,2217,249,feet,jsons/v1_VE250_randls_44_rotated.json,454215,547097,30,Woman
121,472239,DepthScenes,duration_manipulation_targetAtFixation,jsons/v1_VE250_randls_44_rotated.json,http://54.235.29.9/FacialAge/BNav_EC2/DepthDuration/v2_depth_duration_MTurk/v2_DepthDuration_HTML.html#131,131,1600,789,1600,900,8-20-2022,11-44-53,122,depth_duration_stimuli/001164_2014-06-17_15-35-46_260595134347_rgbf000085-resize_3/001164_2014-06-17_15-35-46_260595134347_rgbf000085-resize_3-target.png,250,2.354,20.0,2491,251,feet,jsons/v1_VE250_randls_44_rotated.json,454215,547097,30,Woman
122,472239,DepthScenes,duration_manipulation_targetAtFixation,jsons/v1_VE250_randls_44_rotated.json,http://54.235.29.9/FacialAge/BNav_EC2/DepthDuration/v2_depth_duration_MTurk/v2_DepthDuration_HTML.html#131,131,1600,789,1600,900,8-20-2022,11-44-53,123,depth_duration_stimuli/000409_2014-06-04_19-23-33_260595134347_rgbf000067-resize_0/000409_2014-06-04_19-23-33_260595134347_rgbf000067-resize_0-target.png,250,3.7335,38.0,2267,249,feet,jsons/v1_VE250_randls_44_rotated.json,454215,547097,30,Woman
123,472239,DepthScenes,duration_manipulation_targetAtFixation,jsons/v1_VE250_randls_44_rotated.json,http://54.235.29.9/FacialAge/BNav_EC2/DepthDuration/v2_depth_duration_MTurk/v2_DepthDuration_HTML.html#131,131,1600,789,1600,900,8-20-2022,11-44-53,124,depth_duration_stimuli/002663_2014-06-13_15-50-26_094959634447_rgbf000075-resize_1/002663_2014-06-13_15-50-26_094959634447_rgbf000075-resize_1-target.png,250,4.7495,96.0,2138,249,feet,jsons/v1_VE250_randls_44_rotated.json,454215,547097,30,Woman
124,472239,DepthScenes,duration_manipulation_targetAtFixation,jsons/v1_VE250_randls_44_rotated.json,http://54.235.29.9/FacialAge/BNav_EC2/DepthDuration/v2_depth_duration_MTurk/v2_DepthDuration_HTML.html#131,131,1600,789,1600,900,8-20-2022,11-44-53,125,depth_duration_stimuli/003490_2014-05-21_15-50-11_094959634447_rgbf000101-resize_3/003490_2014-05-21_15-50-11_094959634447_rgbf000101-resize_3-target.png,250,3.6445,21.0,2457,249,feet,jsons/v1_VE250_randls_44_rotated.json,454215,547097,30,Woman
125,472239,DepthScenes,duration_manipulation_targetAtFixation,jsons/v1_VE250_randls_44_rotated.json,http://54.235.29.9/FacialAge/BNav_EC2/DepthDuration/v2_depth_duration_MTurk/v2_DepthDuration_HTML.html#131,131,1600,789,1600,900,8-20-2022,11-44-53,126,depth_duration_stimuli/001175_2014-06-17_15-45-55_260595134347_rgbf000129-resize_4/001175_2014-06-17_15-45-55_260595134347_rgbf000129-resize_4-target.png,250,4.255,20.0,2026,249,feet,jsons/v1_VE250_randls_44_rotated.json,454215,547097,30,Woman
126,472239,DepthScenes,duration_manipulation_targetAtFixation,jsons/v1_VE250_randls_44_rotated.json,http://54.235.29.9/FacialAge/BNav_EC2/DepthDuration/v2_depth_duration_MTurk/v2_DepthDuration_HTML.html#131,131,1600,789,1600,900,8-20-2022,11-44-53,127,depth_duration_stimuli/000734_2014-06-08_17-39-11_260595134347_rgbf000128-resize_2/000734_2014-06-08_17-39-11_260595134347_rgbf000128-resize_2-target.png,250,4.098,99.0,2185,250,feet,jsons/v1_VE250_randls_44_rotated.json,454215,547097,30,Woman
127,472239,DepthScenes,duration_manipulation_targetAtFixation,jsons/v1_VE250_randls_44_rotated.json,http://54.235.29.9/FacialAge/BNav_EC2/DepthDuration/v2_depth_duration_MTurk/v2_DepthDuration_HTML.html#131,131,1600,789,1600,900,8-20-2022,11-44-53,128,depth_duration_stimuli/000739_2014-06-08_18-45-58_260595134347_rgbf000068-resize_1/000739_2014-06-08_18-45-58_260595134347_rgbf000068-resize_1-target.png,250,3.534,87.0,1884,251,feet,jsons/v1_VE250_randls_44_rotated.json,454215,547097,30,Woman
128,472239,DepthScenes,duration_manipulation_targetAtFixation,jsons/v1_VE250_randls_44_rotated.json,http://54.235.29.9/FacialAge/BNav_EC2/DepthDuration/v2_depth_duration_MTurk/v2_DepthDuration_HTML.html#131,131,1600,789,1600,900,8-20-2022,11-44-53,129,depth_duration_stimuli/002103_2014-06-25_20-00-40_260595134347_rgbf000049-resize_0/002103_2014-06-25_20-00-40_260595134347_rgbf000049-resize_0-target.png,250,4.105,86.0,1978,250,feet,jsons/v1_VE250_randls_44_rotated.json,454215,547097,30,Woman
129,472239,DepthScenes,duration_manipulation_targetAtFixation,jsons/v1_VE250_randls_44_rotated.json,http://54.235.29.9/FacialAge/BNav_EC2/DepthDuration/v2_depth_duration_MTurk/v2_DepthDuration_HTML.html#131,131,1600,789,1600,900,8-20-2022,11-44-53,130,depth_duration_stimuli/002039_2014-06-24_20-22-38_260595134347_rgbf000084-resize_1/002039_2014-06-24_20-22-38_260595134347_rgbf000084-resize_1-target.png,250,4.408,527.0,2550,245,feet,jsons/v1_VE250_randls_44_rotated.json,454215,547097,30,Woman
130,472239,DepthScenes,duration_manipulation_targetAtFixation,jsons/v1_VE250_randls_44_rotated.json,http://54.235.29.9/FacialAge/BNav_EC2/DepthDuration/v2_depth_duration_MTurk/v2_DepthDuration_HTML.html#131,131,1600,789,1600,900,8-20-2022,11-44-53,131,depth_duration_stimuli/000457_2014-06-08_16-52-43_260595134347_rgbf000199-resize_1/000457_2014-06-08_16-52-43_260595134347_rgbf000199-resize_1-target.png,250,3.6489999999999996,100.0,2329,248,feet,jsons/v1_VE250_randls_44_rotated.json,454215,547097,30,Woman
131,472239,DepthScenes,duration_manipulation_targetAtFixation,jsons/v1_VE250_randls_44_rotated.json,http://54.235.29.9/FacialAge/BNav_EC2/DepthDuration/v2_depth_duration_MTurk/v2_DepthDuration_HTML.html#131,131,1600,789,1600,900,8-20-2022,11-44-53,132,depth_duration_stimuli/000929_2014-06-09_16-33-19_260595134347_rgbf000139-resize_0/000929_2014-06-09_16-33-19_260595134347_rgbf000139-resize_0-target.png,250,2.8680000000000003,52.0,1980,249,feet,jsons/v1_VE250_randls_44_rotated.json,454215,547097,30,Woman
132,472239,DepthScenes,duration_manipulation_targetAtFixation,jsons/v1_VE250_randls_44_rotated.json,http://54.235.29.9/FacialAge/BNav_EC2/DepthDuration/v2_depth_duration_MTurk/v2_DepthDuration_HTML.html#131,131,1600,789,1600,900,8-20-2022,11-44-53,133,depth_duration_stimuli/000635_2014-06-08_16-38-42_260595134347_rgbf000106-resize_1/000635_2014-06-08_16-38-42_260595134347_rgbf000106-resize_1-target.png,250,2.074,59.0,2056,250,feet,jsons/v1_VE250_randls_44_rotated.json,454215,547097,30,Woman
133,472239,DepthScenes,duration_manipulation_targetAtFixation,jsons/v1_VE250_randls_44_rotated.json,http://54.235.29.9/FacialAge/BNav_EC2/DepthDuration/v2_depth_duration_MTurk/v2_DepthDuration_HTML.html#131,131,1600,789,1600,900,8-20-2022,11-44-53,134,depth_duration_stimuli/002279_2014-06-28_18-55-32_260595134347_rgbf000040-resize_5/002279_2014-06-28_18-55-32_260595134347_rgbf000040-resize_5-target.png,250,1.5043333333333,66.0,1917,249,feet,jsons/v1_VE250_randls_44_rotated.json,454215,547097,30,Woman
134,472239,DepthScenes,duration_manipulation_targetAtFixation,jsons/v1_VE250_randls_44_rotated.json,http://54.235.29.9/FacialAge/BNav_EC2/DepthDuration/v2_depth_duration_MTurk/v2_DepthDuration_HTML.html#131,131,1600,789,1600,900,8-20-2022,11-44-53,135,depth_duration_stimuli/000375_2014-06-08_11-17-29_260595134347_rgbf000133-resize_2/000375_2014-06-08_11-17-29_260595134347_rgbf000133-resize-original.jpg,250,4.718,0.0,4487,249,feet,jsons/v1_VE250_randls_44_rotated.json,454215,547097,30,Woman
135,472239,DepthScenes,duration_manipulation_targetAtFixation,jsons/v1_VE250_randls_44_rotated.json,http://54.235.29.9/FacialAge/BNav_EC2/DepthDuration/v2_depth_duration_MTurk/v2_DepthDuration_HTML.html#131,131,1600,789,1600,900,8-20-2022,11-44-53,136,depth_duration_stimuli/003081_2014-06-15_15-19-16_094959634447_rgbf000150-resize_1/003081_2014-06-15_15-19-16_094959634447_rgbf000150-resize_1-target.png,250,3.9125,20.0,5497,250,feet,jsons/v1_VE250_randls_44_rotated.json,454215,547097,30,Woman
136,472239,DepthScenes,duration_manipulation_targetAtFixation,jsons/v1_VE250_randls_44_rotated.json,http://54.235.29.9/FacialAge/BNav_EC2/DepthDuration/v2_depth_duration_MTurk/v2_DepthDuration_HTML.html#131,131,1600,789,1600,900,8-20-2022,11-44-53,137,depth_duration_stimuli/001417_2014-06-19_16-25-36_260595134347_rgbf000115-resize_5/001417_2014-06-19_16-25-36_260595134347_rgbf000115-resize_5-target.png,250,4.6255,25.0,2218,250,feet,jsons/v1_VE250_randls_44_rotated.json,454215,547097,30,Woman
137,472239,DepthScenes,duration_manipulation_targetAtFixation,jsons/v1_VE250_randls_44_rotated.json,http://54.235.29.9/FacialAge/BNav_EC2/DepthDuration/v2_depth_duration_MTurk/v2_DepthDuration_HTML.html#131,131,1600,789,1600,900,8-20-2022,11-44-53,138,depth_duration_stimuli/001132_2014-06-17_14-48-54_260595134347_rgbf000100-resize_2/001132_2014-06-17_14-48-54_260595134347_rgbf000100-resize_2-target.png,250,3.753,66.0,1915,250,feet,jsons/v1_VE250_randls_44_rotated.json,454215,547097,30,Woman
138,472239,DepthScenes,duration_manipulation_targetAtFixation,jsons/v1_VE250_randls_44_rotated.json,http://54.235.29.9/FacialAge/BNav_EC2/DepthDuration/v2_depth_duration_MTurk/v2_DepthDuration_HTML.html#131,131,1600,789,1600,900,8-20-2022,11-44-53,139,depth_duration_stimuli/001133_2014-06-17_14-49-16_260595134347_rgbf000100-resize_0/001133_2014-06-17_14-49-16_260595134347_rgbf000100-resize_0-target.png,250,4.2115,87.0,1850,249,feet,jsons/v1_VE250_randls_44_rotated.json,454215,547097,30,Woman
139,472239,DepthScenes,duration_manipulation_targetAtFixation,jsons/v1_VE250_randls_44_rotated.json,http://54.235.29.9/FacialAge/BNav_EC2/DepthDuration/v2_depth_duration_MTurk/v2_DepthDuration_HTML.html#131,131,1600,789,1600,900,8-20-2022,11-44-53,140,depth_duration_stimuli/002425_2014-06-28_20-27-29_260595134347_rgbf000031-resize_8/002425_2014-06-28_20-27-29_260595134347_rgbf000031-resize_8-target.png,250,3.8960000000000004,63.0,1882,249,feet,jsons/v1_VE250_randls_44_rotated.json,454215,547097,30,Woman
140,472239,DepthScenes,duration_manipulation_targetAtFixation,jsons/v1_VE250_randls_44_rotated.json,http://54.235.29.9/FacialAge/BNav_EC2/DepthDuration/v2_depth_duration_MTurk/v2_DepthDuration_HTML.html#131,131,1600,789,1600,900,8-20-2022,11-44-53,141,depth_duration_stimuli/000642_2014-06-08_16-59-25_260595134347_rgbf000098-resize_2/000642_2014-06-08_16-59-25_260595134347_rgbf000098-resize_2-target.png,250,2.8815,36.0,1755,249,feet,jsons/v1_VE250_randls_44_rotated.json,454215,547097,30,Woman
141,472239,DepthScenes,duration_manipulation_targetAtFixation,jsons/v1_VE250_randls_44_rotated.json,http://54.235.29.9/FacialAge/BNav_EC2/DepthDuration/v2_depth_duration_MTurk/v2_DepthDuration_HTML.html#131,131,1600,789,1600,900,8-20-2022,11-44-53,142,depth_duration_stimuli/000691_2014-06-08_13-08-50_260595134347_rgbf000132-resize_3/000691_2014-06-08_13-08-50_260595134347_rgbf000132-resize_3-target.png,250,4.1530000000000005,66.0,2074,250,feet,jsons/v1_VE250_randls_44_rotated.json,454215,547097,30,Woman
142,472239,DepthScenes,duration_manipulation_targetAtFixation,jsons/v1_VE250_randls_44_rotated.json,http://54.235.29.9/FacialAge/BNav_EC2/DepthDuration/v2_depth_duration_MTurk/v2_DepthDuration_HTML.html#131,131,1600,789,1600,900,8-20-2022,11-44-53,143,depth_duration_stimuli/002213_2014-06-28_18-37-58_260595134347_rgbf000055-resize_1/002213_2014-06-28_18-37-58_260595134347_rgbf000055-resize_1-target.png,250,3.62,54.0,1782,246,feet,jsons/v1_VE250_randls_44_rotated.json,454215,547097,30,Woman
143,472239,DepthScenes,duration_manipulation_targetAtFixation,jsons/v1_VE250_randls_44_rotated.json,http://54.235.29.9/FacialAge/BNav_EC2/DepthDuration/v2_depth_duration_MTurk/v2_DepthDuration_HTML.html#131,131,1600,789,1600,900,8-20-2022,11-44-53,144,depth_duration_stimuli/002657_2014-06-13_15-29-54_094959634447_rgbf000150-resize_1/002657_2014-06-13_15-29-54_094959634447_rgbf000150-resize_1-target.png,250,4.919,583.0,1914,251,feet,jsons/v1_VE250_randls_44_rotated.json,454215,547097,30,Woman
144,472239,DepthScenes,duration_manipulation_targetAtFixation,jsons/v1_VE250_randls_44_rotated.json,http://54.235.29.9/FacialAge/BNav_EC2/DepthDuration/v2_depth_duration_MTurk/v2_DepthDuration_HTML.html#131,131,1600,789,1600,900,8-20-2022,11-44-53,145,depth_duration_stimuli/002375_2014-06-28_20-13-44_260595134347_rgbf000032-resize_1/002375_2014-06-28_20-13-44_260595134347_rgbf000032-resize_1-target.png,250,4.0175,20.0,1851,251,feet,jsons/v1_VE250_randls_44_rotated.json,454215,547097,30,Woman
145,472239,DepthScenes,duration_manipulation_targetAtFixation,jsons/v1_VE250_randls_44_rotated.json,http://54.235.29.9/FacialAge/BNav_EC2/DepthDuration/v2_depth_duration_MTurk/v2_DepthDuration_HTML.html#131,131,1600,789,1600,900,8-20-2022,11-44-53,146,depth_duration_stimuli/000109_2014-05-14_23-41-52_260595134347_rgbf000035-resize_9/000109_2014-05-14_23-41-52_260595134347_rgbf000035-resize_9-target.png,250,1.3545,14.0,2745,249,feet,jsons/v1_VE250_randls_44_rotated.json,454215,547097,30,Woman
146,472239,DepthScenes,duration_manipulation_targetAtFixation,jsons/v1_VE250_randls_44_rotated.json,http://54.235.29.9/FacialAge/BNav_EC2/DepthDuration/v2_depth_duration_MTurk/v2_DepthDuration_HTML.html#131,131,1600,789,1600,900,8-20-2022,11-44-53,147,depth_duration_stimuli/000470_2014-06-09_19-42-40_260595134347_rgbf000094-resize_1/000470_2014-06-09_19-42-40_260595134347_rgbf000094-resize_1-target.png,250,1.831,25.0,1883,251,feet,jsons/v1_VE250_randls_44_rotated.json,454215,547097,30,Woman
147,472239,DepthScenes,duration_manipulation_targetAtFixation,jsons/v1_VE250_randls_44_rotated.json,http://54.235.29.9/FacialAge/BNav_EC2/DepthDuration/v2_depth_duration_MTurk/v2_DepthDuration_HTML.html#131,131,1600,789,1600,900,8-20-2022,11-44-53,148,depth_duration_stimuli/000780_2014-06-08_22-28-29_260595134347_rgbf000126-resize_1/000780_2014-06-08_22-28-29_260595134347_rgbf000126-resize_1-target.png,250,3.3825,58.0,1982,249,feet,jsons/v1_VE250_randls_44_rotated.json,454215,547097,30,Woman
148,472239,DepthScenes,duration_manipulation_targetAtFixation,jsons/v1_VE250_randls_44_rotated.json,http://54.235.29.9/FacialAge/BNav_EC2/DepthDuration/v2_depth_duration_MTurk/v2_DepthDuration_HTML.html#131,131,1600,789,1600,900,8-20-2022,11-44-53,149,depth_duration_stimuli/002445_2014-06-28_20-32-16_260595134347_rgbf000029-resize_4/002445_2014-06-28_20-32-16_260595134347_rgbf000029-resize_4-target.png,250,2.5315,20.0,2328,251,feet,jsons/v1_VE250_randls_44_rotated.json,454215,547097,30,Woman
149,472239,DepthScenes,duration_manipulation_targetAtFixation,jsons/v1_VE250_randls_44_rotated.json,http://54.235.29.9/FacialAge/BNav_EC2/DepthDuration/v2_depth_duration_MTurk/v2_DepthDuration_HTML.html#131,131,1600,789,1600,900,8-20-2022,11-44-53,150,depth_duration_stimuli/001094_2014-06-15_17-36-00_260595134347_rgbf000205-resize_0/001094_2014-06-15_17-36-00_260595134347_rgbf000205-resize_0-target.png,250,4.2175,30.0,2041,252,feet,jsons/v1_VE250_randls_44_rotated.json,454215,547097,30,Woman
150,472239,DepthScenes,duration_manipulation_targetAtFixation,jsons/v1_VE250_randls_44_rotated.json,http://54.235.29.9/FacialAge/BNav_EC2/DepthDuration/v2_depth_duration_MTurk/v2_DepthDuration_HTML.html#131,131,1600,789,1600,900,8-20-2022,11-44-53,151,depth_duration_stimuli/000692_2014-06-08_13-09-42_260595134347_rgbf000199-resize_2/000692_2014-06-08_13-09-42_260595134347_rgbf000199-resize_2-target.png,250,3.661,28.0,1846,244,feet,jsons/v1_VE250_randls_44_rotated.json,454215,547097,30,Woman
151,472239,DepthScenes,duration_manipulation_targetAtFixation,jsons/v1_VE250_randls_44_rotated.json,http://54.235.29.9/FacialAge/BNav_EC2/DepthDuration/v2_depth_duration_MTurk/v2_DepthDuration_HTML.html#131,131,1600,789,1600,900,8-20-2022,11-44-53,152,depth_duration_stimuli/000569_2014-06-09_22-51-47_260595134347_rgbf000141-resize_3/000569_2014-06-09_22-51-47_260595134347_rgbf000141-resize-original.jpg,250,4.512,0.0,2168,250,feet,jsons/v1_VE250_randls_44_rotated.json,454215,547097,30,Woman
152,472239,DepthScenes,duration_manipulation_targetAtFixation,jsons/v1_VE250_randls_44_rotated.json,http://54.235.29.9/FacialAge/BNav_EC2/DepthDuration/v2_depth_duration_MTurk/v2_DepthDuration_HTML.html#131,131,1600,789,1600,900,8-20-2022,11-44-53,153,depth_duration_stimuli/001214_2014-06-17_16-13-55_260595134347_rgbf000111-resize_0/001214_2014-06-17_16-13-55_260595134347_rgbf000111-resize_0-target.png,250,2.6505,58.0,1886,248,feet,jsons/v1_VE250_randls_44_rotated.json,454215,547097,30,Woman
153,472239,DepthScenes,duration_manipulation_targetAtFixation,jsons/v1_VE250_randls_44_rotated.json,http://54.235.29.9/FacialAge/BNav_EC2/DepthDuration/v2_depth_duration_MTurk/v2_DepthDuration_HTML.html#131,131,1600,789,1600,900,8-20-2022,11-44-53,154,depth_duration_stimuli/000810_2014-06-08_17-20-01_260595134347_rgbf000105-resize_0/000810_2014-06-08_17-20-01_260595134347_rgbf000105-resize_0-target.png,250,1.4865,42.0,2390,250,feet,jsons/v1_VE250_randls_44_rotated.json,454215,547097,30,Woman
154,472239,DepthScenes,duration_manipulation_targetAtFixation,jsons/v1_VE250_randls_44_rotated.json,http://54.235.29.9/FacialAge/BNav_EC2/DepthDuration/v2_depth_duration_MTurk/v2_DepthDuration_HTML.html#131,131,1600,789,1600,900,8-20-2022,11-44-53,155,depth_duration_stimuli/001516_2014-06-20_16-25-09_260595134347_rgbf000076-resize_2/001516_2014-06-20_16-25-09_260595134347_rgbf000076-resize_2-target.png,250,1.7445,28.0,1944,251,feet,jsons/v1_VE250_randls_44_rotated.json,454215,547097,30,Woman
155,472239,DepthScenes,duration_manipulation_targetAtFixation,jsons/v1_VE250_randls_44_rotated.json,http://54.235.29.9/FacialAge/BNav_EC2/DepthDuration/v2_depth_duration_MTurk/v2_DepthDuration_HTML.html#131,131,1600,789,1600,900,8-20-2022,11-44-53,156,depth_duration_stimuli/002118_2014-06-25_20-32-08_260595134347_rgbf000078-resize_1/002118_2014-06-25_20-32-08_260595134347_rgbf000078-resize_1-target.png,250,2.6460000000000004,68.0,1880,249,feet,jsons/v1_VE250_randls_44_rotated.json,454215,547097,30,Woman
156,472239,DepthScenes,duration_manipulation_targetAtFixation,jsons/v1_VE250_randls_44_rotated.json,http://54.235.29.9/FacialAge/BNav_EC2/DepthDuration/v2_depth_duration_MTurk/v2_DepthDuration_HTML.html#131,131,1600,789,1600,900,8-20-2022,11-44-53,157,depth_duration_stimuli/002467_2014-06-28_20-38-07_260595134347_rgbf000026-resize_2/002467_2014-06-28_20-38-07_260595134347_rgbf000026-resize_2-target.png,250,4.742,50.0,2075,249,feet,jsons/v1_VE250_randls_44_rotated.json,454215,547097,30,Woman
157,472239,DepthScenes,duration_manipulation_targetAtFixation,jsons/v1_VE250_randls_44_rotated.json,http://54.235.29.9/FacialAge/BNav_EC2/DepthDuration/v2_depth_duration_MTurk/v2_DepthDuration_HTML.html#131,131,1600,789,1600,900,8-20-2022,11-44-53,158,depth_duration_stimuli/002570_2014-06-24_13-59-54_094959634447_rgbf000059-resize_0/002570_2014-06-24_13-59-54_094959634447_rgbf000059-resize_0-target.png,250,4.037,54.0,1725,249,feet,jsons/v1_VE250_randls_44_rotated.json,454215,547097,30,Woman
158,472239,DepthScenes,duration_manipulation_targetAtFixation,jsons/v1_VE250_randls_44_rotated.json,http://54.235.29.9/FacialAge/BNav_EC2/DepthDuration/v2_depth_duration_MTurk/v2_DepthDuration_HTML.html#131,131,1600,789,1600,900,8-20-2022,11-44-53,159,depth_duration_stimuli/001828_2014-06-26_21-40-03_260595134347_rgbf000024-resize_0/001828_2014-06-26_21-40-03_260595134347_rgbf000024-resize_0-target.png,250,4.8260000000000005,98.0,1941,251,feet,jsons/v1_VE250_randls_44_rotated.json,454215,547097,30,Woman
159,472239,DepthScenes,duration_manipulation_targetAtFixation,jsons/v1_VE250_randls_44_rotated.json,http://54.235.29.9/FacialAge/BNav_EC2/DepthDuration/v2_depth_duration_MTurk/v2_DepthDuration_HTML.html#131,131,1600,789,1600,900,8-20-2022,11-44-53,160,depth_duration_stimuli/000009_2014-05-26_14-32-05_260595134347_rgbf000034-resize_3/000009_2014-05-26_14-32-05_260595134347_rgbf000034-resize_3-target.png,250,3.8715,78.0,1738,250,feet,jsons/v1_VE250_randls_44_rotated.json,454215,547097,30,Woman
160,472239,DepthScenes,duration_manipulation_targetAtFixation,jsons/v1_VE250_randls_44_rotated.json,http://54.235.29.9/FacialAge/BNav_EC2/DepthDuration/v2_depth_duration_MTurk/v2_DepthDuration_HTML.html#131,131,1600,789,1600,900,8-20-2022,11-44-53,161,depth_duration_stimuli/002414_2014-06-28_20-24-58_260595134347_rgbf000067-resize_4/002414_2014-06-28_20-24-58_260595134347_rgbf000067-resize_4-target.png,250,4.363,41.0,2028,250,feet,jsons/v1_VE250_randls_44_rotated.json,454215,547097,30,Woman
161,472239,DepthScenes,duration_manipulation_targetAtFixation,jsons/v1_VE250_randls_44_rotated.json,http://54.235.29.9/FacialAge/BNav_EC2/DepthDuration/v2_depth_duration_MTurk/v2_DepthDuration_HTML.html#131,131,1600,789,1600,900,8-20-2022,11-44-53,162,depth_duration_stimuli/000773_2014-06-08_22-24-54_260595134347_rgbf000093-resize_1/000773_2014-06-08_22-24-54_260595134347_rgbf000093-resize_1-target.png,250,4.973,46.0,2077,252,feet,jsons/v1_VE250_randls_44_rotated.json,454215,547097,30,Woman
162,472239,DepthScenes,duration_manipulation_targetAtFixation,jsons/v1_VE250_randls_44_rotated.json,http://54.235.29.9/FacialAge/BNav_EC2/DepthDuration/v2_depth_duration_MTurk/v2_DepthDuration_HTML.html#131,131,1600,789,1600,900,8-20-2022,11-44-53,163,depth_duration_stimuli/000927_2014-06-09_16-32-30_260595134347_rgbf000123-resize_3/000927_2014-06-09_16-32-30_260595134347_rgbf000123-resize_3-target.png,250,2.6785,72.0,2730,249,feet,jsons/v1_VE250_randls_44_rotated.json,454215,547097,30,Woman
163,472239,DepthScenes,duration_manipulation_targetAtFixation,jsons/v1_VE250_randls_44_rotated.json,http://54.235.29.9/FacialAge/BNav_EC2/DepthDuration/v2_depth_duration_MTurk/v2_DepthDuration_HTML.html#131,131,1600,789,1600,900,8-20-2022,11-44-53,164,depth_duration_stimuli/001110_2014-06-15_17-25-28_260595134347_rgbf000150-resize_1/001110_2014-06-15_17-25-28_260595134347_rgbf000150-resize_1-target.png,250,1.7115,28.0,1994,249,feet,jsons/v1_VE250_randls_44_rotated.json,454215,547097,30,Woman
