,subjID,experimentName,versionName,sequenceName,url,selected_row,windowWidth,windowHeight,screenWidth,screenHeight,startDate,startTime,trial,stimulus,duration,actual_depth,depth_estimate,trial_RT,log_sceneDuration,unitSelection,seq_filepath,experimentTime,totalTime,age,gender
0,473167,DepthScenes,duration_manipulation_targetAtFixation,jsons/VE125_randls_61_rotated.json,http://54.235.29.9/FacialAge/BNav_EC2/DepthDuration/v2_depth_duration_MTurk/v2_DepthDuration_HTML.html#257,257,1280,595,1280,720,8-29-2022,14-24-42,1,depth_duration_stimuli/000734_2014-06-08_17-39-11_260595134347_rgbf000128-resize_2/000734_2014-06-08_17-39-11_260595134347_rgbf000128-resize_2-target.png,125,4.098,2.5,9125,130,feet,jsons/VE125_randls_61_rotated.json,1287874,2396043,30,Man
1,473167,DepthScenes,duration_manipulation_targetAtFixation,jsons/VE125_randls_61_rotated.json,http://54.235.29.9/FacialAge/BNav_EC2/DepthDuration/v2_depth_duration_MTurk/v2_DepthDuration_HTML.html#257,257,1280,595,1280,720,8-29-2022,14-24-42,2,depth_duration_stimuli/000739_2014-06-08_18-45-58_260595134347_rgbf000068-resize_1/000739_2014-06-08_18-45-58_260595134347_rgbf000068-resize_1-target.png,125,3.534,2.0,3423,129,feet,jsons/VE125_randls_61_rotated.json,1287874,2396043,30,Man
2,473167,DepthScenes,duration_manipulation_targetAtFixation,jsons/VE125_randls_61_rotated.json,http://54.235.29.9/FacialAge/BNav_EC2/DepthDuration/v2_depth_duration_MTurk/v2_DepthDuration_HTML.html#257,257,1280,595,1280,720,8-29-2022,14-24-42,3,depth_duration_stimuli/000191_2014-05-12_17-07-38_260595134347_rgbf000199-resize_0/000191_2014-05-12_17-07-38_260595134347_rgbf000199-resize_0-target.png,125,3.7995,8.0,4366,131,feet,jsons/VE125_randls_61_rotated.json,1287874,2396043,30,Man
3,473167,DepthScenes,duration_manipulation_targetAtFixation,jsons/VE125_randls_61_rotated.json,http://54.235.29.9/FacialAge/BNav_EC2/DepthDuration/v2_depth_duration_MTurk/v2_DepthDuration_HTML.html#257,257,1280,595,1280,720,8-29-2022,14-24-42,4,depth_duration_stimuli/000493_2014-06-09_21-01-18_260595134347_rgbf000196-resize_3/000493_2014-06-09_21-01-18_260595134347_rgbf000196-resize_3-target.png,125,3.44,4.0,4154,131,feet,jsons/VE125_randls_61_rotated.json,1287874,2396043,30,Man
4,473167,DepthScenes,duration_manipulation_targetAtFixation,jsons/VE125_randls_61_rotated.json,http://54.235.29.9/FacialAge/BNav_EC2/DepthDuration/v2_depth_duration_MTurk/v2_DepthDuration_HTML.html#257,257,1280,595,1280,720,8-29-2022,14-24-42,5,depth_duration_stimuli/002660_2014-06-13_15-44-18_094959634447_rgbf001878-resize_2/002660_2014-06-13_15-44-18_094959634447_rgbf001878-resize_2-target.png,125,3.576,4.3,6923,131,feet,jsons/VE125_randls_61_rotated.json,1287874,2396043,30,Man
5,473167,DepthScenes,duration_manipulation_targetAtFixation,jsons/VE125_randls_61_rotated.json,http://54.235.29.9/FacialAge/BNav_EC2/DepthDuration/v2_depth_duration_MTurk/v2_DepthDuration_HTML.html#257,257,1280,595,1280,720,8-29-2022,14-24-42,6,depth_duration_stimuli/002153_2014-06-25_21-27-18_260595134347_rgbf000038-resize_5/002153_2014-06-25_21-27-18_260595134347_rgbf000038-resize_5-target.png,125,2.505,3.0,5397,121,feet,jsons/VE125_randls_61_rotated.json,1287874,2396043,30,Man
6,473167,DepthScenes,duration_manipulation_targetAtFixation,jsons/VE125_randls_61_rotated.json,http://54.235.29.9/FacialAge/BNav_EC2/DepthDuration/v2_depth_duration_MTurk/v2_DepthDuration_HTML.html#257,257,1280,595,1280,720,8-29-2022,14-24-42,7,depth_duration_stimuli/000635_2014-06-08_16-38-42_260595134347_rgbf000106-resize_1/000635_2014-06-08_16-38-42_260595134347_rgbf000106-resize_1-target.png,125,2.074,3.2,7416,115,feet,jsons/VE125_randls_61_rotated.json,1287874,2396043,30,Man
7,473167,DepthScenes,duration_manipulation_targetAtFixation,jsons/VE125_randls_61_rotated.json,http://54.235.29.9/FacialAge/BNav_EC2/DepthDuration/v2_depth_duration_MTurk/v2_DepthDuration_HTML.html#257,257,1280,595,1280,720,8-29-2022,14-24-42,8,depth_duration_stimuli/002279_2014-06-28_18-55-32_260595134347_rgbf000040-resize_5/002279_2014-06-28_18-55-32_260595134347_rgbf000040-resize_5-target.png,125,1.5043333333333,1.5,6747,115,feet,jsons/VE125_randls_61_rotated.json,1287874,2396043,30,Man
8,473167,DepthScenes,duration_manipulation_targetAtFixation,jsons/VE125_randls_61_rotated.json,http://54.235.29.9/FacialAge/BNav_EC2/DepthDuration/v2_depth_duration_MTurk/v2_DepthDuration_HTML.html#257,257,1280,595,1280,720,8-29-2022,14-24-42,9,depth_duration_stimuli/002545_2014-06-24_13-38-53_094959634447_rgbf000080-resize_4/002545_2014-06-24_13-38-53_094959634447_rgbf000080-resize_4-target.png,125,1.9205,2.0,3317,120,feet,jsons/VE125_randls_61_rotated.json,1287874,2396043,30,Man
9,473167,DepthScenes,duration_manipulation_targetAtFixation,jsons/VE125_randls_61_rotated.json,http://54.235.29.9/FacialAge/BNav_EC2/DepthDuration/v2_depth_duration_MTurk/v2_DepthDuration_HTML.html#257,257,1280,595,1280,720,8-29-2022,14-24-42,10,depth_duration_stimuli/001092_2014-06-15_17-34-58_260595134347_rgbf000171-resize_3/001092_2014-06-15_17-34-58_260595134347_rgbf000171-resize_3-target.png,125,2.6935,2.0,4822,115,feet,jsons/VE125_randls_61_rotated.json,1287874,2396043,30,Man
10,473167,DepthScenes,duration_manipulation_targetAtFixation,jsons/VE125_randls_61_rotated.json,http://54.235.29.9/FacialAge/BNav_EC2/DepthDuration/v2_depth_duration_MTurk/v2_DepthDuration_HTML.html#257,257,1280,595,1280,720,8-29-2022,14-24-42,11,depth_duration_stimuli/000502_2014-06-08_23-02-32_260595134347_rgbf000063-resize_4/000502_2014-06-08_23-02-32_260595134347_rgbf000063-resize_4-target.png,125,2.431,3.0,3604,130,feet,jsons/VE125_randls_61_rotated.json,1287874,2396043,30,Man
11,473167,DepthScenes,duration_manipulation_targetAtFixation,jsons/VE125_randls_61_rotated.json,http://54.235.29.9/FacialAge/BNav_EC2/DepthDuration/v2_depth_duration_MTurk/v2_DepthDuration_HTML.html#257,257,1280,595,1280,720,8-29-2022,14-24-42,12,depth_duration_stimuli/001199_2014-06-17_16-03-48_260595134347_rgbf000077-resize_0/001199_2014-06-17_16-03-48_260595134347_rgbf000077-resize_0-target.png,125,3.4375,5.0,5545,131,feet,jsons/VE125_randls_61_rotated.json,1287874,2396043,30,Man
12,473167,DepthScenes,duration_manipulation_targetAtFixation,jsons/VE125_randls_61_rotated.json,http://54.235.29.9/FacialAge/BNav_EC2/DepthDuration/v2_depth_duration_MTurk/v2_DepthDuration_HTML.html#257,257,1280,595,1280,720,8-29-2022,14-24-42,13,depth_duration_stimuli/000677_2014-06-08_23-10-32_260595134347_rgbf000158-resize_6/000677_2014-06-08_23-10-32_260595134347_rgbf000158-resize_6-target.png,125,3.556,3.0,6294,130,feet,jsons/VE125_randls_61_rotated.json,1287874,2396043,30,Man
13,473167,DepthScenes,duration_manipulation_targetAtFixation,jsons/VE125_randls_61_rotated.json,http://54.235.29.9/FacialAge/BNav_EC2/DepthDuration/v2_depth_duration_MTurk/v2_DepthDuration_HTML.html#257,257,1280,595,1280,720,8-29-2022,14-24-42,14,depth_duration_stimuli/001029_2014-06-08_13-17-57_260595134347_rgbf000065-resize_1/001029_2014-06-08_13-17-57_260595134347_rgbf000065-resize_1-target.png,125,3.0835,2.5,5168,115,feet,jsons/VE125_randls_61_rotated.json,1287874,2396043,30,Man
14,473167,DepthScenes,duration_manipulation_targetAtFixation,jsons/VE125_randls_61_rotated.json,http://54.235.29.9/FacialAge/BNav_EC2/DepthDuration/v2_depth_duration_MTurk/v2_DepthDuration_HTML.html#257,257,1280,595,1280,720,8-29-2022,14-24-42,15,depth_duration_stimuli/002103_2014-06-25_20-00-40_260595134347_rgbf000049-resize_0/002103_2014-06-25_20-00-40_260595134347_rgbf000049-resize_0-target.png,125,4.105,5.0,4774,131,feet,jsons/VE125_randls_61_rotated.json,1287874,2396043,30,Man
15,473167,DepthScenes,duration_manipulation_targetAtFixation,jsons/VE125_randls_61_rotated.json,http://54.235.29.9/FacialAge/BNav_EC2/DepthDuration/v2_depth_duration_MTurk/v2_DepthDuration_HTML.html#257,257,1280,595,1280,720,8-29-2022,14-24-42,16,depth_duration_stimuli/002039_2014-06-24_20-22-38_260595134347_rgbf000084-resize_1/002039_2014-06-24_20-22-38_260595134347_rgbf000084-resize_1-target.png,125,4.408,4.0,4423,130,feet,jsons/VE125_randls_61_rotated.json,1287874,2396043,30,Man
16,473167,DepthScenes,duration_manipulation_targetAtFixation,jsons/VE125_randls_61_rotated.json,http://54.235.29.9/FacialAge/BNav_EC2/DepthDuration/v2_depth_duration_MTurk/v2_DepthDuration_HTML.html#257,257,1280,595,1280,720,8-29-2022,14-24-42,17,depth_duration_stimuli/002136_2014-06-25_21-18-03_260595134347_rgbf000109-resize_3/002136_2014-06-25_21-18-03_260595134347_rgbf000109-resize_3-target.png,125,1.9569999999999999,2.0,3709,146,feet,jsons/VE125_randls_61_rotated.json,1287874,2396043,30,Man
17,473167,DepthScenes,duration_manipulation_targetAtFixation,jsons/VE125_randls_61_rotated.json,http://54.235.29.9/FacialAge/BNav_EC2/DepthDuration/v2_depth_duration_MTurk/v2_DepthDuration_HTML.html#257,257,1280,595,1280,720,8-29-2022,14-24-42,18,depth_duration_stimuli/002964_2014-06-08_17-46-11_094959634447_rgbf000091-resize_4/002964_2014-06-08_17-46-11_094959634447_rgbf000091-resize_4-target.png,125,1.6909999999999998,0.0,4788,114,feet,jsons/VE125_randls_61_rotated.json,1287874,2396043,30,Man
18,473167,DepthScenes,duration_manipulation_targetAtFixation,jsons/VE125_randls_61_rotated.json,http://54.235.29.9/FacialAge/BNav_EC2/DepthDuration/v2_depth_duration_MTurk/v2_DepthDuration_HTML.html#257,257,1280,595,1280,720,8-29-2022,14-24-42,19,depth_duration_stimuli/001498_2014-06-19_17-45-14_260595134347_rgbf000129-resize_4/001498_2014-06-19_17-45-14_260595134347_rgbf000129-resize-original.jpg,125,1.4075,0.0,2740,115,feet,jsons/VE125_randls_61_rotated.json,1287874,2396043,30,Man
19,473167,DepthScenes,duration_manipulation_targetAtFixation,jsons/VE125_randls_61_rotated.json,http://54.235.29.9/FacialAge/BNav_EC2/DepthDuration/v2_depth_duration_MTurk/v2_DepthDuration_HTML.html#257,257,1280,595,1280,720,8-29-2022,14-24-42,20,depth_duration_stimuli/000943_2014-06-09_19-31-07_260595134347_rgbf000128-resize_1/000943_2014-06-09_19-31-07_260595134347_rgbf000128-resize_1-target.png,125,1.9765,1.8,5791,121,feet,jsons/VE125_randls_61_rotated.json,1287874,2396043,30,Man
20,473167,DepthScenes,duration_manipulation_targetAtFixation,jsons/VE125_randls_61_rotated.json,http://54.235.29.9/FacialAge/BNav_EC2/DepthDuration/v2_depth_duration_MTurk/v2_DepthDuration_HTML.html#257,257,1280,595,1280,720,8-29-2022,14-24-42,21,depth_duration_stimuli/003070_2014-06-15_14-58-27_094959634447_rgbf000150-resize_3/003070_2014-06-15_14-58-27_094959634447_rgbf000150-resize_3-target.png,125,2.9415,4.0,2931,132,feet,jsons/VE125_randls_61_rotated.json,1287874,2396043,30,Man
21,473167,DepthScenes,duration_manipulation_targetAtFixation,jsons/VE125_randls_61_rotated.json,http://54.235.29.9/FacialAge/BNav_EC2/DepthDuration/v2_depth_duration_MTurk/v2_DepthDuration_HTML.html#257,257,1280,595,1280,720,8-29-2022,14-24-42,22,depth_duration_stimuli/001032_2014-06-08_13-23-17_260595134347_rgbf000021-resize_3/001032_2014-06-08_13-23-17_260595134347_rgbf000021-resize_3-target.png,125,3.2725,4.3,5798,115,feet,jsons/VE125_randls_61_rotated.json,1287874,2396043,30,Man
22,473167,DepthScenes,duration_manipulation_targetAtFixation,jsons/VE125_randls_61_rotated.json,http://54.235.29.9/FacialAge/BNav_EC2/DepthDuration/v2_depth_duration_MTurk/v2_DepthDuration_HTML.html#257,257,1280,595,1280,720,8-29-2022,14-24-42,23,depth_duration_stimuli/001059_2014-06-08_21-53-27_260595134347_rgbf000061-resize_4/001059_2014-06-08_21-53-27_260595134347_rgbf000061-resize_4-target.png,125,2.4185,3.0,8244,126,feet,jsons/VE125_randls_61_rotated.json,1287874,2396043,30,Man
23,473167,DepthScenes,duration_manipulation_targetAtFixation,jsons/VE125_randls_61_rotated.json,http://54.235.29.9/FacialAge/BNav_EC2/DepthDuration/v2_depth_duration_MTurk/v2_DepthDuration_HTML.html#257,257,1280,595,1280,720,8-29-2022,14-24-42,24,depth_duration_stimuli/003010_2014-06-15_12-54-35_094959634447_rgbf000112-resize_0/003010_2014-06-15_12-54-35_094959634447_rgbf000112-resize_0-target.png,125,3.1185,8.0,9373,115,feet,jsons/VE125_randls_61_rotated.json,1287874,2396043,30,Man
24,473167,DepthScenes,duration_manipulation_targetAtFixation,jsons/VE125_randls_61_rotated.json,http://54.235.29.9/FacialAge/BNav_EC2/DepthDuration/v2_depth_duration_MTurk/v2_DepthDuration_HTML.html#257,257,1280,595,1280,720,8-29-2022,14-24-42,25,depth_duration_stimuli/001810_2014-06-26_20-51-35_260595134347_rgbf000040-resize_3/001810_2014-06-26_20-51-35_260595134347_rgbf000040-resize_3-target.png,125,2.2525,3.5,7666,129,feet,jsons/VE125_randls_61_rotated.json,1287874,2396043,30,Man
25,473167,DepthScenes,duration_manipulation_targetAtFixation,jsons/VE125_randls_61_rotated.json,http://54.235.29.9/FacialAge/BNav_EC2/DepthDuration/v2_depth_duration_MTurk/v2_DepthDuration_HTML.html#257,257,1280,595,1280,720,8-29-2022,14-24-42,26,depth_duration_stimuli/001214_2014-06-17_16-13-55_260595134347_rgbf000111-resize_0/001214_2014-06-17_16-13-55_260595134347_rgbf000111-resize_0-target.png,125,2.6505,3.0,2939,116,feet,jsons/VE125_randls_61_rotated.json,1287874,2396043,30,Man
26,473167,DepthScenes,duration_manipulation_targetAtFixation,jsons/VE125_randls_61_rotated.json,http://54.235.29.9/FacialAge/BNav_EC2/DepthDuration/v2_depth_duration_MTurk/v2_DepthDuration_HTML.html#257,257,1280,595,1280,720,8-29-2022,14-24-42,27,depth_duration_stimuli/000810_2014-06-08_17-20-01_260595134347_rgbf000105-resize_0/000810_2014-06-08_17-20-01_260595134347_rgbf000105-resize_0-target.png,125,1.4865,5.0,14330,129,feet,jsons/VE125_randls_61_rotated.json,1287874,2396043,30,Man
27,473167,DepthScenes,duration_manipulation_targetAtFixation,jsons/VE125_randls_61_rotated.json,http://54.235.29.9/FacialAge/BNav_EC2/DepthDuration/v2_depth_duration_MTurk/v2_DepthDuration_HTML.html#257,257,1280,595,1280,720,8-29-2022,14-24-42,28,depth_duration_stimuli/002340_2014-06-28_20-05-46_260595134347_rgbf000113-resize_0/002340_2014-06-28_20-05-46_260595134347_rgbf000113-resize_0-target.png,125,2.4735,6.5,6533,114,feet,jsons/VE125_randls_61_rotated.json,1287874,2396043,30,Man
28,473167,DepthScenes,duration_manipulation_targetAtFixation,jsons/VE125_randls_61_rotated.json,http://54.235.29.9/FacialAge/BNav_EC2/DepthDuration/v2_depth_duration_MTurk/v2_DepthDuration_HTML.html#257,257,1280,595,1280,720,8-29-2022,14-24-42,29,depth_duration_stimuli/001016_2014-06-09_16-16-10_260595134347_rgbf000112-resize_5/001016_2014-06-09_16-16-10_260595134347_rgbf000112-resize_5-target.png,125,1.6565,2.0,3163,134,feet,jsons/VE125_randls_61_rotated.json,1287874,2396043,30,Man
29,473167,DepthScenes,duration_manipulation_targetAtFixation,jsons/VE125_randls_61_rotated.json,http://54.235.29.9/FacialAge/BNav_EC2/DepthDuration/v2_depth_duration_MTurk/v2_DepthDuration_HTML.html#257,257,1280,595,1280,720,8-29-2022,14-24-42,30,depth_duration_stimuli/002072_2014-06-24_21-48-06_260595134347_rgbf000115-resize_0/002072_2014-06-24_21-48-06_260595134347_rgbf000115-resize-original.jpg,125,4.702,0.0,3308,137,feet,jsons/VE125_randls_61_rotated.json,1287874,2396043,30,Man
30,473167,DepthScenes,duration_manipulation_targetAtFixation,jsons/VE125_randls_61_rotated.json,http://54.235.29.9/FacialAge/BNav_EC2/DepthDuration/v2_depth_duration_MTurk/v2_DepthDuration_HTML.html#257,257,1280,595,1280,720,8-29-2022,14-24-42,31,depth_duration_stimuli/002805_2014-06-22_19-54-03_094959634447_rgbf000079-resize_1/002805_2014-06-22_19-54-03_094959634447_rgbf000079-resize_1-target.png,125,3.1439999999999997,5.0,6369,137,feet,jsons/VE125_randls_61_rotated.json,1287874,2396043,30,Man
31,473167,DepthScenes,duration_manipulation_targetAtFixation,jsons/VE125_randls_61_rotated.json,http://54.235.29.9/FacialAge/BNav_EC2/DepthDuration/v2_depth_duration_MTurk/v2_DepthDuration_HTML.html#257,257,1280,595,1280,720,8-29-2022,14-24-42,32,depth_duration_stimuli/000906_2014-06-08_13-35-43_260595134347_rgbf000155-resize_1/000906_2014-06-08_13-35-43_260595134347_rgbf000155-resize_1-target.png,125,2.8489999999999998,0.0,8588,130,feet,jsons/VE125_randls_61_rotated.json,1287874,2396043,30,Man
32,473167,DepthScenes,duration_manipulation_targetAtFixation,jsons/VE125_randls_61_rotated.json,http://54.235.29.9/FacialAge/BNav_EC2/DepthDuration/v2_depth_duration_MTurk/v2_DepthDuration_HTML.html#257,257,1280,595,1280,720,8-29-2022,14-24-42,33,depth_duration_stimuli/001571_2014-06-20_17-21-32_260595134347_rgbf000089-resize_1/001571_2014-06-20_17-21-32_260595134347_rgbf000089-resize_1-target.png,125,1.86,1.5,12037,131,feet,jsons/VE125_randls_61_rotated.json,1287874,2396043,30,Man
33,473167,DepthScenes,duration_manipulation_targetAtFixation,jsons/VE125_randls_61_rotated.json,http://54.235.29.9/FacialAge/BNav_EC2/DepthDuration/v2_depth_duration_MTurk/v2_DepthDuration_HTML.html#257,257,1280,595,1280,720,8-29-2022,14-24-42,34,depth_duration_stimuli/002272_2014-06-28_18-53-56_260595134347_rgbf000067-resize_2/002272_2014-06-28_18-53-56_260595134347_rgbf000067-resize_2-target.png,125,1.138,2.5,4282,116,feet,jsons/VE125_randls_61_rotated.json,1287874,2396043,30,Man
34,473167,DepthScenes,duration_manipulation_targetAtFixation,jsons/VE125_randls_61_rotated.json,http://54.235.29.9/FacialAge/BNav_EC2/DepthDuration/v2_depth_duration_MTurk/v2_DepthDuration_HTML.html#257,257,1280,595,1280,720,8-29-2022,14-24-42,35,depth_duration_stimuli/000483_2014-06-09_20-41-45_260595134347_rgbf000116-resize_4/000483_2014-06-09_20-41-45_260595134347_rgbf000116-resize_4-target.png,125,1.337,3.0,4528,115,feet,jsons/VE125_randls_61_rotated.json,1287874,2396043,30,Man
35,473167,DepthScenes,duration_manipulation_targetAtFixation,jsons/VE125_randls_61_rotated.json,http://54.235.29.9/FacialAge/BNav_EC2/DepthDuration/v2_depth_duration_MTurk/v2_DepthDuration_HTML.html#257,257,1280,595,1280,720,8-29-2022,14-24-42,36,depth_duration_stimuli/000469_2014-06-09_19-42-10_260595134347_rgbf000081-resize_1/000469_2014-06-09_19-42-10_260595134347_rgbf000081-resize_1-target.png,125,1.652,2.0,6280,115,feet,jsons/VE125_randls_61_rotated.json,1287874,2396043,30,Man
36,473167,DepthScenes,duration_manipulation_targetAtFixation,jsons/VE125_randls_61_rotated.json,http://54.235.29.9/FacialAge/BNav_EC2/DepthDuration/v2_depth_duration_MTurk/v2_DepthDuration_HTML.html#257,257,1280,595,1280,720,8-29-2022,14-24-42,37,depth_duration_stimuli/000556_2014-06-09_22-42-56_260595134347_rgbf000214-resize_1/000556_2014-06-09_22-42-56_260595134347_rgbf000214-resize_1-target.png,125,4.8415,7.0,15337,137,feet,jsons/VE125_randls_61_rotated.json,1287874,2396043,30,Man
37,473167,DepthScenes,duration_manipulation_targetAtFixation,jsons/VE125_randls_61_rotated.json,http://54.235.29.9/FacialAge/BNav_EC2/DepthDuration/v2_depth_duration_MTurk/v2_DepthDuration_HTML.html#257,257,1280,595,1280,720,8-29-2022,14-24-42,38,depth_duration_stimuli/001158_2014-06-17_15-32-16_260595134347_rgbf000138-resize_2/001158_2014-06-17_15-32-16_260595134347_rgbf000138-resize_2-target.png,125,4.5315,4.3,38562,137,feet,jsons/VE125_randls_61_rotated.json,1287874,2396043,30,Man
38,473167,DepthScenes,duration_manipulation_targetAtFixation,jsons/VE125_randls_61_rotated.json,http://54.235.29.9/FacialAge/BNav_EC2/DepthDuration/v2_depth_duration_MTurk/v2_DepthDuration_HTML.html#257,257,1280,595,1280,720,8-29-2022,14-24-42,39,depth_duration_stimuli/003587_2014-05-23_16-48-02_094959634447_rgbf002384-resize_2/003587_2014-05-23_16-48-02_094959634447_rgbf002384-resize_2-target.png,125,1.357,1.0,4342,131,feet,jsons/VE125_randls_61_rotated.json,1287874,2396043,30,Man
39,473167,DepthScenes,duration_manipulation_targetAtFixation,jsons/VE125_randls_61_rotated.json,http://54.235.29.9/FacialAge/BNav_EC2/DepthDuration/v2_depth_duration_MTurk/v2_DepthDuration_HTML.html#257,257,1280,595,1280,720,8-29-2022,14-24-42,40,depth_duration_stimuli/001167_2014-06-17_15-38-07_260595134347_rgbf000108-resize_0/001167_2014-06-17_15-38-07_260595134347_rgbf000108-resize_0-target.png,125,1.8505,1.5,6024,131,feet,jsons/VE125_randls_61_rotated.json,1287874,2396043,30,Man
40,473167,DepthScenes,duration_manipulation_targetAtFixation,jsons/VE125_randls_61_rotated.json,http://54.235.29.9/FacialAge/BNav_EC2/DepthDuration/v2_depth_duration_MTurk/v2_DepthDuration_HTML.html#257,257,1280,595,1280,720,8-29-2022,14-24-42,41,depth_duration_stimuli/002639_2014-06-24_14-51-37_094959634447_rgbf000074-resize_4/002639_2014-06-24_14-51-37_094959634447_rgbf000074-resize_4-target.png,125,4.0375,3.0,3937,114,feet,jsons/VE125_randls_61_rotated.json,1287874,2396043,30,Man
41,473167,DepthScenes,duration_manipulation_targetAtFixation,jsons/VE125_randls_61_rotated.json,http://54.235.29.9/FacialAge/BNav_EC2/DepthDuration/v2_depth_duration_MTurk/v2_DepthDuration_HTML.html#257,257,1280,595,1280,720,8-29-2022,14-24-42,42,depth_duration_stimuli/003292_2014-05-14_21-53-49_094959634447_rgbf000100-resize_2/003292_2014-05-14_21-53-49_094959634447_rgbf000100-resize_2-target.png,125,3.4815,3.0,4630,114,feet,jsons/VE125_randls_61_rotated.json,1287874,2396043,30,Man
42,473167,DepthScenes,duration_manipulation_targetAtFixation,jsons/VE125_randls_61_rotated.json,http://54.235.29.9/FacialAge/BNav_EC2/DepthDuration/v2_depth_duration_MTurk/v2_DepthDuration_HTML.html#257,257,1280,595,1280,720,8-29-2022,14-24-42,43,depth_duration_stimuli/001132_2014-06-17_14-48-54_260595134347_rgbf000100-resize_2/001132_2014-06-17_14-48-54_260595134347_rgbf000100-resize_2-target.png,125,3.753,3.3,7525,130,feet,jsons/VE125_randls_61_rotated.json,1287874,2396043,30,Man
43,473167,DepthScenes,duration_manipulation_targetAtFixation,jsons/VE125_randls_61_rotated.json,http://54.235.29.9/FacialAge/BNav_EC2/DepthDuration/v2_depth_duration_MTurk/v2_DepthDuration_HTML.html#257,257,1280,595,1280,720,8-29-2022,14-24-42,44,depth_duration_stimuli/001133_2014-06-17_14-49-16_260595134347_rgbf000100-resize_0/001133_2014-06-17_14-49-16_260595134347_rgbf000100-resize_0-target.png,125,4.2115,3.5,7050,130,feet,jsons/VE125_randls_61_rotated.json,1287874,2396043,30,Man
44,473167,DepthScenes,duration_manipulation_targetAtFixation,jsons/VE125_randls_61_rotated.json,http://54.235.29.9/FacialAge/BNav_EC2/DepthDuration/v2_depth_duration_MTurk/v2_DepthDuration_HTML.html#257,257,1280,595,1280,720,8-29-2022,14-24-42,45,depth_duration_stimuli/001828_2014-06-26_21-40-03_260595134347_rgbf000024-resize_0/001828_2014-06-26_21-40-03_260595134347_rgbf000024-resize_0-target.png,125,4.8260000000000005,4.0,9953,131,feet,jsons/VE125_randls_61_rotated.json,1287874,2396043,30,Man
45,473167,DepthScenes,duration_manipulation_targetAtFixation,jsons/VE125_randls_61_rotated.json,http://54.235.29.9/FacialAge/BNav_EC2/DepthDuration/v2_depth_duration_MTurk/v2_DepthDuration_HTML.html#257,257,1280,595,1280,720,8-29-2022,14-24-42,46,depth_duration_stimuli/000009_2014-05-26_14-32-05_260595134347_rgbf000034-resize_3/000009_2014-05-26_14-32-05_260595134347_rgbf000034-resize_3-target.png,125,3.8715,6.0,9438,114,feet,jsons/VE125_randls_61_rotated.json,1287874,2396043,30,Man
46,473167,DepthScenes,duration_manipulation_targetAtFixation,jsons/VE125_randls_61_rotated.json,http://54.235.29.9/FacialAge/BNav_EC2/DepthDuration/v2_depth_duration_MTurk/v2_DepthDuration_HTML.html#257,257,1280,595,1280,720,8-29-2022,14-24-42,47,depth_duration_stimuli/001136_2014-06-17_15-19-41_260595134347_rgbf000076-resize_3/001136_2014-06-17_15-19-41_260595134347_rgbf000076-resize_3-target.png,125,1.8655,0.0,8681,114,feet,jsons/VE125_randls_61_rotated.json,1287874,2396043,30,Man
47,473167,DepthScenes,duration_manipulation_targetAtFixation,jsons/VE125_randls_61_rotated.json,http://54.235.29.9/FacialAge/BNav_EC2/DepthDuration/v2_depth_duration_MTurk/v2_DepthDuration_HTML.html#257,257,1280,595,1280,720,8-29-2022,14-24-42,48,depth_duration_stimuli/001164_2014-06-17_15-35-46_260595134347_rgbf000085-resize_3/001164_2014-06-17_15-35-46_260595134347_rgbf000085-resize_3-target.png,125,2.354,2.0,3509,114,feet,jsons/VE125_randls_61_rotated.json,1287874,2396043,30,Man
48,473167,DepthScenes,duration_manipulation_targetAtFixation,jsons/VE125_randls_61_rotated.json,http://54.235.29.9/FacialAge/BNav_EC2/DepthDuration/v2_depth_duration_MTurk/v2_DepthDuration_HTML.html#257,257,1280,595,1280,720,8-29-2022,14-24-42,49,depth_duration_stimuli/001170_2014-06-17_15-43-44_260595134347_rgbf000096-resize_6/001170_2014-06-17_15-43-44_260595134347_rgbf000096-resize-original.jpg,125,1.1909999999999998,0.0,2971,130,feet,jsons/VE125_randls_61_rotated.json,1287874,2396043,30,Man
49,473167,DepthScenes,duration_manipulation_targetAtFixation,jsons/VE125_randls_61_rotated.json,http://54.235.29.9/FacialAge/BNav_EC2/DepthDuration/v2_depth_duration_MTurk/v2_DepthDuration_HTML.html#257,257,1280,595,1280,720,8-29-2022,14-24-42,50,depth_duration_stimuli/002953_2014-06-08_17-32-18_094959634447_rgbf000059-resize_5/002953_2014-06-08_17-32-18_094959634447_rgbf000059-resize_5-target.png,125,1.551,1.3,6754,122,feet,jsons/VE125_randls_61_rotated.json,1287874,2396043,30,Man
50,473167,DepthScenes,duration_manipulation_targetAtFixation,jsons/VE125_randls_61_rotated.json,http://54.235.29.9/FacialAge/BNav_EC2/DepthDuration/v2_depth_duration_MTurk/v2_DepthDuration_HTML.html#257,257,1280,595,1280,720,8-29-2022,14-24-42,51,depth_duration_stimuli/000878_2014-06-08_22-52-45_260595134347_rgbf000045-resize_2/000878_2014-06-08_22-52-45_260595134347_rgbf000045-resize_2-target.png,125,2.092,2.4,7341,130,feet,jsons/VE125_randls_61_rotated.json,1287874,2396043,30,Man
51,473167,DepthScenes,duration_manipulation_targetAtFixation,jsons/VE125_randls_61_rotated.json,http://54.235.29.9/FacialAge/BNav_EC2/DepthDuration/v2_depth_duration_MTurk/v2_DepthDuration_HTML.html#257,257,1280,595,1280,720,8-29-2022,14-24-42,52,depth_duration_stimuli/001584_2014-06-20_11-07-43_260595134347_rgbf000002-resize_1/001584_2014-06-20_11-07-43_260595134347_rgbf000002-resize_1-target.png,125,3.53,3.0,12020,130,feet,jsons/VE125_randls_61_rotated.json,1287874,2396043,30,Man
52,473167,DepthScenes,duration_manipulation_targetAtFixation,jsons/VE125_randls_61_rotated.json,http://54.235.29.9/FacialAge/BNav_EC2/DepthDuration/v2_depth_duration_MTurk/v2_DepthDuration_HTML.html#257,257,1280,595,1280,720,8-29-2022,14-24-42,53,depth_duration_stimuli/003621_2014-05-23_18-06-08_094959634447_rgbf000101-resize_1/003621_2014-05-23_18-06-08_094959634447_rgbf000101-resize_1-target.png,125,3.9835,5.0,11517,121,feet,jsons/VE125_randls_61_rotated.json,1287874,2396043,30,Man
53,473167,DepthScenes,duration_manipulation_targetAtFixation,jsons/VE125_randls_61_rotated.json,http://54.235.29.9/FacialAge/BNav_EC2/DepthDuration/v2_depth_duration_MTurk/v2_DepthDuration_HTML.html#257,257,1280,595,1280,720,8-29-2022,14-24-42,54,depth_duration_stimuli/002678_2014-06-13_16-15-32_094959634447_rgbf000151-resize_6/002678_2014-06-13_16-15-32_094959634447_rgbf000151-resize_6-target.png,125,2.1830000000000003,8.0,9120,125,feet,jsons/VE125_randls_61_rotated.json,1287874,2396043,30,Man
54,473167,DepthScenes,duration_manipulation_targetAtFixation,jsons/VE125_randls_61_rotated.json,http://54.235.29.9/FacialAge/BNav_EC2/DepthDuration/v2_depth_duration_MTurk/v2_DepthDuration_HTML.html#257,257,1280,595,1280,720,8-29-2022,14-24-42,55,depth_duration_stimuli/000368_2014-06-09_15-53-01_260595134347_rgbf000155-resize_2/000368_2014-06-09_15-53-01_260595134347_rgbf000155-resize_2-target.png,125,2.4859999999999998,2.0,3430,112,feet,jsons/VE125_randls_61_rotated.json,1287874,2396043,30,Man
55,473167,DepthScenes,duration_manipulation_targetAtFixation,jsons/VE125_randls_61_rotated.json,http://54.235.29.9/FacialAge/BNav_EC2/DepthDuration/v2_depth_duration_MTurk/v2_DepthDuration_HTML.html#257,257,1280,595,1280,720,8-29-2022,14-24-42,56,depth_duration_stimuli/002323_2014-06-28_20-01-54_260595134347_rgbf000051-resize_4/002323_2014-06-28_20-01-54_260595134347_rgbf000051-resize_4-target.png,125,3.7310000000000003,3.0,5906,115,feet,jsons/VE125_randls_61_rotated.json,1287874,2396043,30,Man
56,473167,DepthScenes,duration_manipulation_targetAtFixation,jsons/VE125_randls_61_rotated.json,http://54.235.29.9/FacialAge/BNav_EC2/DepthDuration/v2_depth_duration_MTurk/v2_DepthDuration_HTML.html#257,257,1280,595,1280,720,8-29-2022,14-24-42,57,depth_duration_stimuli/000917_2014-06-09_22-45-29_260595134347_rgbf000149-resize_3/000917_2014-06-09_22-45-29_260595134347_rgbf000149-resize_3-target.png,125,4.1865,3.0,4056,112,feet,jsons/VE125_randls_61_rotated.json,1287874,2396043,30,Man
57,473167,DepthScenes,duration_manipulation_targetAtFixation,jsons/VE125_randls_61_rotated.json,http://54.235.29.9/FacialAge/BNav_EC2/DepthDuration/v2_depth_duration_MTurk/v2_DepthDuration_HTML.html#257,257,1280,595,1280,720,8-29-2022,14-24-42,58,depth_duration_stimuli/002995_2014-06-15_12-31-26_094959634447_rgbf000150-resize_1/002995_2014-06-15_12-31-26_094959634447_rgbf000150-resize_1-target.png,125,3.8360000000000003,4.5,19735,130,feet,jsons/VE125_randls_61_rotated.json,1287874,2396043,30,Man
58,473167,DepthScenes,duration_manipulation_targetAtFixation,jsons/VE125_randls_61_rotated.json,http://54.235.29.9/FacialAge/BNav_EC2/DepthDuration/v2_depth_duration_MTurk/v2_DepthDuration_HTML.html#257,257,1280,595,1280,720,8-29-2022,14-24-42,59,depth_duration_stimuli/002748_2014-06-22_19-07-22_094959634447_rgbf000078-resize_1/002748_2014-06-22_19-07-22_094959634447_rgbf000078-resize_1-target.png,125,4.6705,6.0,4722,121,feet,jsons/VE125_randls_61_rotated.json,1287874,2396043,30,Man
59,473167,DepthScenes,duration_manipulation_targetAtFixation,jsons/VE125_randls_61_rotated.json,http://54.235.29.9/FacialAge/BNav_EC2/DepthDuration/v2_depth_duration_MTurk/v2_DepthDuration_HTML.html#257,257,1280,595,1280,720,8-29-2022,14-24-42,60,depth_duration_stimuli/003129_2014-05-12_10-48-10_094959634447_rgbf000100-resize_0/003129_2014-05-12_10-48-10_094959634447_rgbf000100-resize_0-target.png,125,4.9305,3.3,5391,115,feet,jsons/VE125_randls_61_rotated.json,1287874,2396043,30,Man
60,473167,DepthScenes,duration_manipulation_targetAtFixation,jsons/VE125_randls_61_rotated.json,http://54.235.29.9/FacialAge/BNav_EC2/DepthDuration/v2_depth_duration_MTurk/v2_DepthDuration_HTML.html#257,257,1280,595,1280,720,8-29-2022,14-24-42,61,depth_duration_stimuli/000414_2014-06-04_19-49-13_260595134347_rgbf000044-resize_0/000414_2014-06-04_19-49-13_260595134347_rgbf000044-resize_0-target.png,125,4.329,3.5,12692,121,feet,jsons/VE125_randls_61_rotated.json,1287874,2396043,30,Man
61,473167,DepthScenes,duration_manipulation_targetAtFixation,jsons/VE125_randls_61_rotated.json,http://54.235.29.9/FacialAge/BNav_EC2/DepthDuration/v2_depth_duration_MTurk/v2_DepthDuration_HTML.html#257,257,1280,595,1280,720,8-29-2022,14-24-42,62,depth_duration_stimuli/003048_2014-06-15_13-49-43_094959634447_rgbf000150-resize_1/003048_2014-06-15_13-49-43_094959634447_rgbf000150-resize_1-target.png,125,4.0035,4.2,6479,115,feet,jsons/VE125_randls_61_rotated.json,1287874,2396043,30,Man
62,473167,DepthScenes,duration_manipulation_targetAtFixation,jsons/VE125_randls_61_rotated.json,http://54.235.29.9/FacialAge/BNav_EC2/DepthDuration/v2_depth_duration_MTurk/v2_DepthDuration_HTML.html#257,257,1280,595,1280,720,8-29-2022,14-24-42,63,depth_duration_stimuli/002043_2014-06-24_20-29-38_260595134347_rgbf000039-resize_4/002043_2014-06-24_20-29-38_260595134347_rgbf000039-resize_4-target.png,125,2.8435,3.0,11040,118,feet,jsons/VE125_randls_61_rotated.json,1287874,2396043,30,Man
63,473167,DepthScenes,duration_manipulation_targetAtFixation,jsons/VE125_randls_61_rotated.json,http://54.235.29.9/FacialAge/BNav_EC2/DepthDuration/v2_depth_duration_MTurk/v2_DepthDuration_HTML.html#257,257,1280,595,1280,720,8-29-2022,14-24-42,64,depth_duration_stimuli/000409_2014-06-04_19-23-33_260595134347_rgbf000067-resize_0/000409_2014-06-04_19-23-33_260595134347_rgbf000067-resize_0-target.png,125,3.7335,3.2,7722,126,feet,jsons/VE125_randls_61_rotated.json,1287874,2396043,30,Man
64,473167,DepthScenes,duration_manipulation_targetAtFixation,jsons/VE125_randls_61_rotated.json,http://54.235.29.9/FacialAge/BNav_EC2/DepthDuration/v2_depth_duration_MTurk/v2_DepthDuration_HTML.html#257,257,1280,595,1280,720,8-29-2022,14-24-42,65,depth_duration_stimuli/002663_2014-06-13_15-50-26_094959634447_rgbf000075-resize_1/002663_2014-06-13_15-50-26_094959634447_rgbf000075-resize_1-target.png,125,4.7495,7.0,9126,122,feet,jsons/VE125_randls_61_rotated.json,1287874,2396043,30,Man
65,473167,DepthScenes,duration_manipulation_targetAtFixation,jsons/VE125_randls_61_rotated.json,http://54.235.29.9/FacialAge/BNav_EC2/DepthDuration/v2_depth_duration_MTurk/v2_DepthDuration_HTML.html#257,257,1280,595,1280,720,8-29-2022,14-24-42,66,depth_duration_stimuli/001540_2014-06-20_17-01-05_260595134347_rgbf000086-resize_2/001540_2014-06-20_17-01-05_260595134347_rgbf000086-resize-original.jpg,125,1.459,0.0,2472,114,feet,jsons/VE125_randls_61_rotated.json,1287874,2396043,30,Man
66,473167,DepthScenes,duration_manipulation_targetAtFixation,jsons/VE125_randls_61_rotated.json,http://54.235.29.9/FacialAge/BNav_EC2/DepthDuration/v2_depth_duration_MTurk/v2_DepthDuration_HTML.html#257,257,1280,595,1280,720,8-29-2022,14-24-42,67,depth_duration_stimuli/003081_2014-06-15_15-19-16_094959634447_rgbf000150-resize_1/003081_2014-06-15_15-19-16_094959634447_rgbf000150-resize_1-target.png,125,3.9125,4.5,7727,121,feet,jsons/VE125_randls_61_rotated.json,1287874,2396043,30,Man
67,473167,DepthScenes,duration_manipulation_targetAtFixation,jsons/VE125_randls_61_rotated.json,http://54.235.29.9/FacialAge/BNav_EC2/DepthDuration/v2_depth_duration_MTurk/v2_DepthDuration_HTML.html#257,257,1280,595,1280,720,8-29-2022,14-24-42,68,depth_duration_stimuli/001417_2014-06-19_16-25-36_260595134347_rgbf000115-resize_5/001417_2014-06-19_16-25-36_260595134347_rgbf000115-resize_5-target.png,125,4.6255,3.2,14676,111,feet,jsons/VE125_randls_61_rotated.json,1287874,2396043,30,Man
68,473167,DepthScenes,duration_manipulation_targetAtFixation,jsons/VE125_randls_61_rotated.json,http://54.235.29.9/FacialAge/BNav_EC2/DepthDuration/v2_depth_duration_MTurk/v2_DepthDuration_HTML.html#257,257,1280,595,1280,720,8-29-2022,14-24-42,69,depth_duration_stimuli/003338_2014-05-20_11-01-23_094959634447_rgbf000051-resize_6/003338_2014-05-20_11-01-23_094959634447_rgbf000051-resize_6-target.png,125,1.693,1.8,4847,119,feet,jsons/VE125_randls_61_rotated.json,1287874,2396043,30,Man
69,473167,DepthScenes,duration_manipulation_targetAtFixation,jsons/VE125_randls_61_rotated.json,http://54.235.29.9/FacialAge/BNav_EC2/DepthDuration/v2_depth_duration_MTurk/v2_DepthDuration_HTML.html#257,257,1280,595,1280,720,8-29-2022,14-24-42,70,depth_duration_stimuli/002509_2014-06-24_13-19-22_094959634447_rgbf000077-resize_0/002509_2014-06-24_13-19-22_094959634447_rgbf000077-resize_0-target.png,125,1.3065,1.0,4908,132,feet,jsons/VE125_randls_61_rotated.json,1287874,2396043,30,Man
70,473167,DepthScenes,duration_manipulation_targetAtFixation,jsons/VE125_randls_61_rotated.json,http://54.235.29.9/FacialAge/BNav_EC2/DepthDuration/v2_depth_duration_MTurk/v2_DepthDuration_HTML.html#257,257,1280,595,1280,720,8-29-2022,14-24-42,71,depth_duration_stimuli/000137_2014-05-20_17-04-49_260595134347_rgbf000120-resize_1/000137_2014-05-20_17-04-49_260595134347_rgbf000120-resize_1-target.png,125,3.786,2.5,10716,131,feet,jsons/VE125_randls_61_rotated.json,1287874,2396043,30,Man
71,473167,DepthScenes,duration_manipulation_targetAtFixation,jsons/VE125_randls_61_rotated.json,http://54.235.29.9/FacialAge/BNav_EC2/DepthDuration/v2_depth_duration_MTurk/v2_DepthDuration_HTML.html#257,257,1280,595,1280,720,8-29-2022,14-24-42,72,depth_duration_stimuli/000736_2014-06-08_18-24-15_260595134347_rgbf000206-resize_3/000736_2014-06-08_18-24-15_260595134347_rgbf000206-resize_3-target.png,125,3.515,2.3,6230,110,feet,jsons/VE125_randls_61_rotated.json,1287874,2396043,30,Man
72,473167,DepthScenes,duration_manipulation_targetAtFixation,jsons/VE125_randls_61_rotated.json,http://54.235.29.9/FacialAge/BNav_EC2/DepthDuration/v2_depth_duration_MTurk/v2_DepthDuration_HTML.html#257,257,1280,595,1280,720,8-29-2022,14-24-42,73,depth_duration_stimuli/001617_2014-06-20_11-35-32_260595134347_rgbf000066-resize_1/001617_2014-06-20_11-35-32_260595134347_rgbf000066-resize_1-target.png,125,3.7910000000000004,4.0,5541,115,feet,jsons/VE125_randls_61_rotated.json,1287874,2396043,30,Man
73,473167,DepthScenes,duration_manipulation_targetAtFixation,jsons/VE125_randls_61_rotated.json,http://54.235.29.9/FacialAge/BNav_EC2/DepthDuration/v2_depth_duration_MTurk/v2_DepthDuration_HTML.html#257,257,1280,595,1280,720,8-29-2022,14-24-42,74,depth_duration_stimuli/001806_2014-06-26_20-50-20_260595134347_rgbf000091-resize_1/001806_2014-06-26_20-50-20_260595134347_rgbf000091-resize_1-target.png,125,2.7305,2.0,5951,129,feet,jsons/VE125_randls_61_rotated.json,1287874,2396043,30,Man
74,473167,DepthScenes,duration_manipulation_targetAtFixation,jsons/VE125_randls_61_rotated.json,http://54.235.29.9/FacialAge/BNav_EC2/DepthDuration/v2_depth_duration_MTurk/v2_DepthDuration_HTML.html#257,257,1280,595,1280,720,8-29-2022,14-24-42,75,depth_duration_stimuli/000866_2014-06-09_20-45-42_260595134347_rgbf000139-resize_1/000866_2014-06-09_20-45-42_260595134347_rgbf000139-resize_1-target.png,125,3.2155,4.0,9572,122,feet,jsons/VE125_randls_61_rotated.json,1287874,2396043,30,Man
75,473167,DepthScenes,duration_manipulation_targetAtFixation,jsons/VE125_randls_61_rotated.json,http://54.235.29.9/FacialAge/BNav_EC2/DepthDuration/v2_depth_duration_MTurk/v2_DepthDuration_HTML.html#257,257,1280,595,1280,720,8-29-2022,14-24-42,76,depth_duration_stimuli/002989_2014-06-15_12-25-03_094959634447_rgbf000150-resize_3/002989_2014-06-15_12-25-03_094959634447_rgbf000150-resize_3-target.png,125,4.1975,4.4,6256,130,feet,jsons/VE125_randls_61_rotated.json,1287874,2396043,30,Man
76,473167,DepthScenes,duration_manipulation_targetAtFixation,jsons/VE125_randls_61_rotated.json,http://54.235.29.9/FacialAge/BNav_EC2/DepthDuration/v2_depth_duration_MTurk/v2_DepthDuration_HTML.html#257,257,1280,595,1280,720,8-29-2022,14-24-42,77,depth_duration_stimuli/000103_2014-05-14_22-01-17_260595134347_rgbf000152-resize_5/000103_2014-05-14_22-01-17_260595134347_rgbf000152-resize_5-target.png,125,1.993,3.0,19100,140,feet,jsons/VE125_randls_61_rotated.json,1287874,2396043,30,Man
77,473167,DepthScenes,duration_manipulation_targetAtFixation,jsons/VE125_randls_61_rotated.json,http://54.235.29.9/FacialAge/BNav_EC2/DepthDuration/v2_depth_duration_MTurk/v2_DepthDuration_HTML.html#257,257,1280,595,1280,720,8-29-2022,14-24-42,78,depth_duration_stimuli/001555_2014-06-20_17-12-10_260595134347_rgbf000065-resize_4/001555_2014-06-20_17-12-10_260595134347_rgbf000065-resize_4-target.png,125,1.633,1.2,4726,130,feet,jsons/VE125_randls_61_rotated.json,1287874,2396043,30,Man
78,473167,DepthScenes,duration_manipulation_targetAtFixation,jsons/VE125_randls_61_rotated.json,http://54.235.29.9/FacialAge/BNav_EC2/DepthDuration/v2_depth_duration_MTurk/v2_DepthDuration_HTML.html#257,257,1280,595,1280,720,8-29-2022,14-24-42,79,depth_duration_stimuli/000457_2014-06-08_16-52-43_260595134347_rgbf000199-resize_1/000457_2014-06-08_16-52-43_260595134347_rgbf000199-resize_1-target.png,125,3.6489999999999996,2.5,6639,130,feet,jsons/VE125_randls_61_rotated.json,1287874,2396043,30,Man
79,473167,DepthScenes,duration_manipulation_targetAtFixation,jsons/VE125_randls_61_rotated.json,http://54.235.29.9/FacialAge/BNav_EC2/DepthDuration/v2_depth_duration_MTurk/v2_DepthDuration_HTML.html#257,257,1280,595,1280,720,8-29-2022,14-24-42,80,depth_duration_stimuli/000929_2014-06-09_16-33-19_260595134347_rgbf000139-resize_0/000929_2014-06-09_16-33-19_260595134347_rgbf000139-resize_0-target.png,125,2.8680000000000003,3.0,6020,130,feet,jsons/VE125_randls_61_rotated.json,1287874,2396043,30,Man
80,473167,DepthScenes,duration_manipulation_targetAtFixation,jsons/VE125_randls_61_rotated.json,http://54.235.29.9/FacialAge/BNav_EC2/DepthDuration/v2_depth_duration_MTurk/v2_DepthDuration_HTML.html#257,257,1280,595,1280,720,8-29-2022,14-24-42,81,depth_duration_stimuli/002949_2014-06-26_15-57-42_094959634447_rgbf000079-resize_1/002949_2014-06-26_15-57-42_094959634447_rgbf000079-resize_1-target.png,125,1.8915,0.0,3411,114,feet,jsons/VE125_randls_61_rotated.json,1287874,2396043,30,Man
81,473167,DepthScenes,duration_manipulation_targetAtFixation,jsons/VE125_randls_61_rotated.json,http://54.235.29.9/FacialAge/BNav_EC2/DepthDuration/v2_depth_duration_MTurk/v2_DepthDuration_HTML.html#257,257,1280,595,1280,720,8-29-2022,14-24-42,82,depth_duration_stimuli/000522_2014-06-08_13-35-06_260595134347_rgbf000244-resize_1/000522_2014-06-08_13-35-06_260595134347_rgbf000244-resize_1-target.png,125,2.3715,1.0,5702,116,feet,jsons/VE125_randls_61_rotated.json,1287874,2396043,30,Man
82,473167,DepthScenes,duration_manipulation_targetAtFixation,jsons/VE125_randls_61_rotated.json,http://54.235.29.9/FacialAge/BNav_EC2/DepthDuration/v2_depth_duration_MTurk/v2_DepthDuration_HTML.html#257,257,1280,595,1280,720,8-29-2022,14-24-42,83,depth_duration_stimuli/000665_2014-06-09_20-42-35_260595134347_rgbf000110-resize_1/000665_2014-06-09_20-42-35_260595134347_rgbf000110-resize_1-target.png,125,3.057,2.0,3170,141,feet,jsons/VE125_randls_61_rotated.json,1287874,2396043,30,Man
83,473167,DepthScenes,duration_manipulation_targetAtFixation,jsons/VE125_randls_61_rotated.json,http://54.235.29.9/FacialAge/BNav_EC2/DepthDuration/v2_depth_duration_MTurk/v2_DepthDuration_HTML.html#257,257,1280,595,1280,720,8-29-2022,14-24-42,84,depth_duration_stimuli/001150_2014-06-17_15-27-34_260595134347_rgbf000108-resize_2/001150_2014-06-17_15-27-34_260595134347_rgbf000108-resize_2-target.png,125,4.0325,4.0,5592,138,feet,jsons/VE125_randls_61_rotated.json,1287874,2396043,30,Man
84,473167,DepthScenes,duration_manipulation_targetAtFixation,jsons/VE125_randls_61_rotated.json,http://54.235.29.9/FacialAge/BNav_EC2/DepthDuration/v2_depth_duration_MTurk/v2_DepthDuration_HTML.html#257,257,1280,595,1280,720,8-29-2022,14-24-42,85,depth_duration_stimuli/000109_2014-05-14_23-41-52_260595134347_rgbf000035-resize_9/000109_2014-05-14_23-41-52_260595134347_rgbf000035-resize_9-target.png,125,1.3545,1.5,4714,136,feet,jsons/VE125_randls_61_rotated.json,1287874,2396043,30,Man
85,473167,DepthScenes,duration_manipulation_targetAtFixation,jsons/VE125_randls_61_rotated.json,http://54.235.29.9/FacialAge/BNav_EC2/DepthDuration/v2_depth_duration_MTurk/v2_DepthDuration_HTML.html#257,257,1280,595,1280,720,8-29-2022,14-24-42,86,depth_duration_stimuli/000470_2014-06-09_19-42-40_260595134347_rgbf000094-resize_1/000470_2014-06-09_19-42-40_260595134347_rgbf000094-resize_1-target.png,125,1.831,1.5,5106,130,feet,jsons/VE125_randls_61_rotated.json,1287874,2396043,30,Man
86,473167,DepthScenes,duration_manipulation_targetAtFixation,jsons/VE125_randls_61_rotated.json,http://54.235.29.9/FacialAge/BNav_EC2/DepthDuration/v2_depth_duration_MTurk/v2_DepthDuration_HTML.html#257,257,1280,595,1280,720,8-29-2022,14-24-42,87,depth_duration_stimuli/001235_2014-06-17_16-37-36_260595134347_rgbf000084-resize_4/001235_2014-06-17_16-37-36_260595134347_rgbf000084-resize_4-target.png,125,3.6605,0.0,3119,125,feet,jsons/VE125_randls_61_rotated.json,1287874,2396043,30,Man
87,473167,DepthScenes,duration_manipulation_targetAtFixation,jsons/VE125_randls_61_rotated.json,http://54.235.29.9/FacialAge/BNav_EC2/DepthDuration/v2_depth_duration_MTurk/v2_DepthDuration_HTML.html#257,257,1280,595,1280,720,8-29-2022,14-24-42,88,depth_duration_stimuli/000788_2014-06-08_22-34-36_260595134347_rgbf000131-resize_1/000788_2014-06-08_22-34-36_260595134347_rgbf000131-resize_1-target.png,125,3.359,3.0,4798,116,feet,jsons/VE125_randls_61_rotated.json,1287874,2396043,30,Man
88,473167,DepthScenes,duration_manipulation_targetAtFixation,jsons/VE125_randls_61_rotated.json,http://54.235.29.9/FacialAge/BNav_EC2/DepthDuration/v2_depth_duration_MTurk/v2_DepthDuration_HTML.html#257,257,1280,595,1280,720,8-29-2022,14-24-42,89,depth_duration_stimuli/001815_2014-06-26_20-52-55_260595134347_rgbf000020-resize_0/001815_2014-06-26_20-52-55_260595134347_rgbf000020-resize_0-target.png,125,3.3865,4.2,8302,126,feet,jsons/VE125_randls_61_rotated.json,1287874,2396043,30,Man
89,473167,DepthScenes,duration_manipulation_targetAtFixation,jsons/VE125_randls_61_rotated.json,http://54.235.29.9/FacialAge/BNav_EC2/DepthDuration/v2_depth_duration_MTurk/v2_DepthDuration_HTML.html#257,257,1280,595,1280,720,8-29-2022,14-24-42,90,depth_duration_stimuli/001808_2014-06-26_20-50-58_260595134347_rgbf000029-resize_1/001808_2014-06-26_20-50-58_260595134347_rgbf000029-resize_1-target.png,125,4.249,5.0,12404,119,feet,jsons/VE125_randls_61_rotated.json,1287874,2396043,30,Man
90,473167,DepthScenes,duration_manipulation_targetAtFixation,jsons/VE125_randls_61_rotated.json,http://54.235.29.9/FacialAge/BNav_EC2/DepthDuration/v2_depth_duration_MTurk/v2_DepthDuration_HTML.html#257,257,1280,595,1280,720,8-29-2022,14-24-42,91,depth_duration_stimuli/002209_2014-06-28_18-36-10_260595134347_rgbf000051-resize_1/002209_2014-06-28_18-36-10_260595134347_rgbf000051-resize_1-target.png,125,2.057,2.3,5873,131,feet,jsons/VE125_randls_61_rotated.json,1287874,2396043,30,Man
91,473167,DepthScenes,duration_manipulation_targetAtFixation,jsons/VE125_randls_61_rotated.json,http://54.235.29.9/FacialAge/BNav_EC2/DepthDuration/v2_depth_duration_MTurk/v2_DepthDuration_HTML.html#257,257,1280,595,1280,720,8-29-2022,14-24-42,92,depth_duration_stimuli/002763_2014-06-22_19-13-10_094959634447_rgbf000075-resize_4/002763_2014-06-22_19-13-10_094959634447_rgbf000075-resize_4-target.png,125,1.68375,2.0,7484,130,feet,jsons/VE125_randls_61_rotated.json,1287874,2396043,30,Man
92,473167,DepthScenes,duration_manipulation_targetAtFixation,jsons/VE125_randls_61_rotated.json,http://54.235.29.9/FacialAge/BNav_EC2/DepthDuration/v2_depth_duration_MTurk/v2_DepthDuration_HTML.html#257,257,1280,595,1280,720,8-29-2022,14-24-42,93,depth_duration_stimuli/002568_2014-06-24_13-59-21_094959634447_rgbf000062-resize_4/002568_2014-06-24_13-59-21_094959634447_rgbf000062-resize_4-target.png,125,3.015,3.0,6170,131,feet,jsons/VE125_randls_61_rotated.json,1287874,2396043,30,Man
93,473167,DepthScenes,duration_manipulation_targetAtFixation,jsons/VE125_randls_61_rotated.json,http://54.235.29.9/FacialAge/BNav_EC2/DepthDuration/v2_depth_duration_MTurk/v2_DepthDuration_HTML.html#257,257,1280,595,1280,720,8-29-2022,14-24-42,94,depth_duration_stimuli/003492_2014-05-21_15-50-55_094959634447_rgbf000828-resize_1/003492_2014-05-21_15-50-55_094959634447_rgbf000828-resize_1-target.png,125,4.06875,6.0,10345,131,feet,jsons/VE125_randls_61_rotated.json,1287874,2396043,30,Man
94,473167,DepthScenes,duration_manipulation_targetAtFixation,jsons/VE125_randls_61_rotated.json,http://54.235.29.9/FacialAge/BNav_EC2/DepthDuration/v2_depth_duration_MTurk/v2_DepthDuration_HTML.html#257,257,1280,595,1280,720,8-29-2022,14-24-42,95,depth_duration_stimuli/002657_2014-06-13_15-29-54_094959634447_rgbf000150-resize_1/002657_2014-06-13_15-29-54_094959634447_rgbf000150-resize_1-target.png,125,4.919,3.5,5997,114,feet,jsons/VE125_randls_61_rotated.json,1287874,2396043,30,Man
95,473167,DepthScenes,duration_manipulation_targetAtFixation,jsons/VE125_randls_61_rotated.json,http://54.235.29.9/FacialAge/BNav_EC2/DepthDuration/v2_depth_duration_MTurk/v2_DepthDuration_HTML.html#257,257,1280,595,1280,720,8-29-2022,14-24-42,96,depth_duration_stimuli/002375_2014-06-28_20-13-44_260595134347_rgbf000032-resize_1/002375_2014-06-28_20-13-44_260595134347_rgbf000032-resize_1-target.png,125,4.0175,3.0,9498,129,feet,jsons/VE125_randls_61_rotated.json,1287874,2396043,30,Man
96,473167,DepthScenes,duration_manipulation_targetAtFixation,jsons/VE125_randls_61_rotated.json,http://54.235.29.9/FacialAge/BNav_EC2/DepthDuration/v2_depth_duration_MTurk/v2_DepthDuration_HTML.html#257,257,1280,595,1280,720,8-29-2022,14-24-42,97,depth_duration_stimuli/002758_2014-06-22_19-11-20_094959634447_rgbf000128-resize_1/002758_2014-06-22_19-11-20_094959634447_rgbf000128-resize_1-target.png,125,2.555,1.6,5851,130,feet,jsons/VE125_randls_61_rotated.json,1287874,2396043,30,Man
97,473167,DepthScenes,duration_manipulation_targetAtFixation,jsons/VE125_randls_61_rotated.json,http://54.235.29.9/FacialAge/BNav_EC2/DepthDuration/v2_depth_duration_MTurk/v2_DepthDuration_HTML.html#257,257,1280,595,1280,720,8-29-2022,14-24-42,98,depth_duration_stimuli/002630_2014-06-24_14-47-50_094959634447_rgbf000055-resize_1/002630_2014-06-24_14-47-50_094959634447_rgbf000055-resize_1-target.png,125,3.0095,6.0,9584,130,feet,jsons/VE125_randls_61_rotated.json,1287874,2396043,30,Man
98,473167,DepthScenes,duration_manipulation_targetAtFixation,jsons/VE125_randls_61_rotated.json,http://54.235.29.9/FacialAge/BNav_EC2/DepthDuration/v2_depth_duration_MTurk/v2_DepthDuration_HTML.html#257,257,1280,595,1280,720,8-29-2022,14-24-42,99,depth_duration_stimuli/001222_2014-06-17_16-24-06_260595134347_rgbf000073-resize_0/001222_2014-06-17_16-24-06_260595134347_rgbf000073-resize-original.jpg,125,1.4385,0.0,2611,122,feet,jsons/VE125_randls_61_rotated.json,1287874,2396043,30,Man
99,473167,DepthScenes,duration_manipulation_targetAtFixation,jsons/VE125_randls_61_rotated.json,http://54.235.29.9/FacialAge/BNav_EC2/DepthDuration/v2_depth_duration_MTurk/v2_DepthDuration_HTML.html#257,257,1280,595,1280,720,8-29-2022,14-24-42,100,depth_duration_stimuli/001100_2014-06-15_17-46-26_260595134347_rgbf000225-resize_2/001100_2014-06-15_17-46-26_260595134347_rgbf000225-resize_2-target.png,125,2.24,1.8,7870,130,feet,jsons/VE125_randls_61_rotated.json,1287874,2396043,30,Man
100,473167,DepthScenes,duration_manipulation_targetAtFixation,jsons/VE125_randls_61_rotated.json,http://54.235.29.9/FacialAge/BNav_EC2/DepthDuration/v2_depth_duration_MTurk/v2_DepthDuration_HTML.html#257,257,1280,595,1280,720,8-29-2022,14-24-42,101,depth_duration_stimuli/002784_2014-06-22_19-26-30_094959634447_rgbf000083-resize_3/002784_2014-06-22_19-26-30_094959634447_rgbf000083-resize_3-target.png,125,1.8046666666667,1.5,10391,131,feet,jsons/VE125_randls_61_rotated.json,1287874,2396043,30,Man
101,473167,DepthScenes,duration_manipulation_targetAtFixation,jsons/VE125_randls_61_rotated.json,http://54.235.29.9/FacialAge/BNav_EC2/DepthDuration/v2_depth_duration_MTurk/v2_DepthDuration_HTML.html#257,257,1280,595,1280,720,8-29-2022,14-24-42,102,depth_duration_stimuli/000709_2014-06-08_13-51-55_260595134347_rgbf000068-resize_3/000709_2014-06-08_13-51-55_260595134347_rgbf000068-resize_3-target.png,125,1.8030000000000002,2.3,5404,136,feet,jsons/VE125_randls_61_rotated.json,1287874,2396043,30,Man
102,473167,DepthScenes,duration_manipulation_targetAtFixation,jsons/VE125_randls_61_rotated.json,http://54.235.29.9/FacialAge/BNav_EC2/DepthDuration/v2_depth_duration_MTurk/v2_DepthDuration_HTML.html#257,257,1280,595,1280,720,8-29-2022,14-24-42,103,depth_duration_stimuli/002057_2014-06-24_21-00-13_260595134347_rgbf000120-resize_1/002057_2014-06-24_21-00-13_260595134347_rgbf000120-resize_1-target.png,125,2.967,5.0,8970,118,feet,jsons/VE125_randls_61_rotated.json,1287874,2396043,30,Man
103,473167,DepthScenes,duration_manipulation_targetAtFixation,jsons/VE125_randls_61_rotated.json,http://54.235.29.9/FacialAge/BNav_EC2/DepthDuration/v2_depth_duration_MTurk/v2_DepthDuration_HTML.html#257,257,1280,595,1280,720,8-29-2022,14-24-42,104,depth_duration_stimuli/002199_2014-06-28_18-33-56_260595134347_rgbf000074-resize_0/002199_2014-06-28_18-33-56_260595134347_rgbf000074-resize_0-target.png,125,1.996,1.0,4029,116,feet,jsons/VE125_randls_61_rotated.json,1287874,2396043,30,Man
104,473167,DepthScenes,duration_manipulation_targetAtFixation,jsons/VE125_randls_61_rotated.json,http://54.235.29.9/FacialAge/BNav_EC2/DepthDuration/v2_depth_duration_MTurk/v2_DepthDuration_HTML.html#257,257,1280,595,1280,720,8-29-2022,14-24-42,105,depth_duration_stimuli/001056_2014-06-08_18-46-44_260595134347_rgbf000068-resize_0/001056_2014-06-08_18-46-44_260595134347_rgbf000068-resize_0-target.png,125,2.6625,3.0,10127,122,feet,jsons/VE125_randls_61_rotated.json,1287874,2396043,30,Man
105,473167,DepthScenes,duration_manipulation_targetAtFixation,jsons/VE125_randls_61_rotated.json,http://54.235.29.9/FacialAge/BNav_EC2/DepthDuration/v2_depth_duration_MTurk/v2_DepthDuration_HTML.html#257,257,1280,595,1280,720,8-29-2022,14-24-42,106,depth_duration_stimuli/000927_2014-06-09_16-32-30_260595134347_rgbf000123-resize_3/000927_2014-06-09_16-32-30_260595134347_rgbf000123-resize_3-target.png,125,2.6785,3.0,4073,132,feet,jsons/VE125_randls_61_rotated.json,1287874,2396043,30,Man
106,473167,DepthScenes,duration_manipulation_targetAtFixation,jsons/VE125_randls_61_rotated.json,http://54.235.29.9/FacialAge/BNav_EC2/DepthDuration/v2_depth_duration_MTurk/v2_DepthDuration_HTML.html#257,257,1280,595,1280,720,8-29-2022,14-24-42,107,depth_duration_stimuli/001110_2014-06-15_17-25-28_260595134347_rgbf000150-resize_1/001110_2014-06-15_17-25-28_260595134347_rgbf000150-resize_1-target.png,125,1.7115,2.0,3081,137,feet,jsons/VE125_randls_61_rotated.json,1287874,2396043,30,Man
107,473167,DepthScenes,duration_manipulation_targetAtFixation,jsons/VE125_randls_61_rotated.json,http://54.235.29.9/FacialAge/BNav_EC2/DepthDuration/v2_depth_duration_MTurk/v2_DepthDuration_HTML.html#257,257,1280,595,1280,720,8-29-2022,14-24-42,108,depth_duration_stimuli/002425_2014-06-28_20-27-29_260595134347_rgbf000031-resize_8/002425_2014-06-28_20-27-29_260595134347_rgbf000031-resize_8-target.png,125,3.8960000000000004,4.5,7688,115,feet,jsons/VE125_randls_61_rotated.json,1287874,2396043,30,Man
108,473167,DepthScenes,duration_manipulation_targetAtFixation,jsons/VE125_randls_61_rotated.json,http://54.235.29.9/FacialAge/BNav_EC2/DepthDuration/v2_depth_duration_MTurk/v2_DepthDuration_HTML.html#257,257,1280,595,1280,720,8-29-2022,14-24-42,109,depth_duration_stimuli/000642_2014-06-08_16-59-25_260595134347_rgbf000098-resize_2/000642_2014-06-08_16-59-25_260595134347_rgbf000098-resize_2-target.png,125,2.8815,2.0,3924,132,feet,jsons/VE125_randls_61_rotated.json,1287874,2396043,30,Man
109,473167,DepthScenes,duration_manipulation_targetAtFixation,jsons/VE125_randls_61_rotated.json,http://54.235.29.9/FacialAge/BNav_EC2/DepthDuration/v2_depth_duration_MTurk/v2_DepthDuration_HTML.html#257,257,1280,595,1280,720,8-29-2022,14-24-42,110,depth_duration_stimuli/003079_2014-06-15_15-18-20_094959634447_rgbf000152-resize_8/003079_2014-06-15_15-18-20_094959634447_rgbf000152-resize_8-target.png,125,2.8775,3.4,9302,114,feet,jsons/VE125_randls_61_rotated.json,1287874,2396043,30,Man
110,473167,DepthScenes,duration_manipulation_targetAtFixation,jsons/VE125_randls_61_rotated.json,http://54.235.29.9/FacialAge/BNav_EC2/DepthDuration/v2_depth_duration_MTurk/v2_DepthDuration_HTML.html#257,257,1280,595,1280,720,8-29-2022,14-24-42,111,depth_duration_stimuli/000506_2014-06-08_23-21-00_260595134347_rgbf000070-resize_7/000506_2014-06-08_23-21-00_260595134347_rgbf000070-resize_7-target.png,125,4.0585,2.2,5019,131,feet,jsons/VE125_randls_61_rotated.json,1287874,2396043,30,Man
111,473167,DepthScenes,duration_manipulation_targetAtFixation,jsons/VE125_randls_61_rotated.json,http://54.235.29.9/FacialAge/BNav_EC2/DepthDuration/v2_depth_duration_MTurk/v2_DepthDuration_HTML.html#257,257,1280,595,1280,720,8-29-2022,14-24-42,112,depth_duration_stimuli/002414_2014-06-28_20-24-58_260595134347_rgbf000067-resize_4/002414_2014-06-28_20-24-58_260595134347_rgbf000067-resize_4-target.png,125,4.363,3.0,6140,121,feet,jsons/VE125_randls_61_rotated.json,1287874,2396043,30,Man
112,473167,DepthScenes,duration_manipulation_targetAtFixation,jsons/VE125_randls_61_rotated.json,http://54.235.29.9/FacialAge/BNav_EC2/DepthDuration/v2_depth_duration_MTurk/v2_DepthDuration_HTML.html#257,257,1280,595,1280,720,8-29-2022,14-24-42,113,depth_duration_stimuli/000773_2014-06-08_22-24-54_260595134347_rgbf000093-resize_1/000773_2014-06-08_22-24-54_260595134347_rgbf000093-resize_1-target.png,125,4.973,3.2,5376,100,feet,jsons/VE125_randls_61_rotated.json,1287874,2396043,30,Man
113,473167,DepthScenes,duration_manipulation_targetAtFixation,jsons/VE125_randls_61_rotated.json,http://54.235.29.9/FacialAge/BNav_EC2/DepthDuration/v2_depth_duration_MTurk/v2_DepthDuration_HTML.html#257,257,1280,595,1280,720,8-29-2022,14-24-42,114,depth_duration_stimuli/003083_2014-06-15_15-21-03_094959634447_rgbf000063-resize_1/003083_2014-06-15_15-21-03_094959634447_rgbf000063-resize_1-target.png,125,4.1405,3.0,9008,121,feet,jsons/VE125_randls_61_rotated.json,1287874,2396043,30,Man
114,473167,DepthScenes,duration_manipulation_targetAtFixation,jsons/VE125_randls_61_rotated.json,http://54.235.29.9/FacialAge/BNav_EC2/DepthDuration/v2_depth_duration_MTurk/v2_DepthDuration_HTML.html#257,257,1280,595,1280,720,8-29-2022,14-24-42,115,depth_duration_stimuli/000486_2014-06-09_20-47-20_260595134347_rgbf000143-resize_2/000486_2014-06-09_20-47-20_260595134347_rgbf000143-resize_2-target.png,125,4.8325,3.5,7989,115,feet,jsons/VE125_randls_61_rotated.json,1287874,2396043,30,Man
115,473167,DepthScenes,duration_manipulation_targetAtFixation,jsons/VE125_randls_61_rotated.json,http://54.235.29.9/FacialAge/BNav_EC2/DepthDuration/v2_depth_duration_MTurk/v2_DepthDuration_HTML.html#257,257,1280,595,1280,720,8-29-2022,14-24-42,116,depth_duration_stimuli/002637_2014-06-24_14-51-13_094959634447_rgbf000066-resize_4/002637_2014-06-24_14-51-13_094959634447_rgbf000066-resize_4-target.png,125,1.9955,2.3,8346,130,feet,jsons/VE125_randls_61_rotated.json,1287874,2396043,30,Man
116,473167,DepthScenes,duration_manipulation_targetAtFixation,jsons/VE125_randls_61_rotated.json,http://54.235.29.9/FacialAge/BNav_EC2/DepthDuration/v2_depth_duration_MTurk/v2_DepthDuration_HTML.html#257,257,1280,595,1280,720,8-29-2022,14-24-42,117,depth_duration_stimuli/003534_2014-05-22_15-06-10_094959634447_rgbf000102-resize_4/003534_2014-05-22_15-06-10_094959634447_rgbf000102-resize_4-target.png,125,1.426,0.0,2855,114,feet,jsons/VE125_randls_61_rotated.json,1287874,2396043,30,Man
117,473167,DepthScenes,duration_manipulation_targetAtFixation,jsons/VE125_randls_61_rotated.json,http://54.235.29.9/FacialAge/BNav_EC2/DepthDuration/v2_depth_duration_MTurk/v2_DepthDuration_HTML.html#257,257,1280,595,1280,720,8-29-2022,14-24-42,118,depth_duration_stimuli/002467_2014-06-28_20-38-07_260595134347_rgbf000026-resize_2/002467_2014-06-28_20-38-07_260595134347_rgbf000026-resize_2-target.png,125,4.742,3.0,6745,122,feet,jsons/VE125_randls_61_rotated.json,1287874,2396043,30,Man
118,473167,DepthScenes,duration_manipulation_targetAtFixation,jsons/VE125_randls_61_rotated.json,http://54.235.29.9/FacialAge/BNav_EC2/DepthDuration/v2_depth_duration_MTurk/v2_DepthDuration_HTML.html#257,257,1280,595,1280,720,8-29-2022,14-24-42,119,depth_duration_stimuli/002570_2014-06-24_13-59-54_094959634447_rgbf000059-resize_0/002570_2014-06-24_13-59-54_094959634447_rgbf000059-resize_0-target.png,125,4.037,2.5,4635,127,feet,jsons/VE125_randls_61_rotated.json,1287874,2396043,30,Man
119,473167,DepthScenes,duration_manipulation_targetAtFixation,jsons/VE125_randls_61_rotated.json,http://54.235.29.9/FacialAge/BNav_EC2/DepthDuration/v2_depth_duration_MTurk/v2_DepthDuration_HTML.html#257,257,1280,595,1280,720,8-29-2022,14-24-42,120,depth_duration_stimuli/000787_2014-06-08_22-33-53_260595134347_rgbf000175-resize_1/000787_2014-06-08_22-33-53_260595134347_rgbf000175-resize-original.jpg,125,4.784,0.0,3275,151,feet,jsons/VE125_randls_61_rotated.json,1287874,2396043,30,Man
120,473167,DepthScenes,duration_manipulation_targetAtFixation,jsons/VE125_randls_61_rotated.json,http://54.235.29.9/FacialAge/BNav_EC2/DepthDuration/v2_depth_duration_MTurk/v2_DepthDuration_HTML.html#257,257,1280,595,1280,720,8-29-2022,14-24-42,121,depth_duration_stimuli/000549_2014-06-08_22-10-24_260595134347_rgbf000247-resize_3/000549_2014-06-08_22-10-24_260595134347_rgbf000247-resize_3-target.png,125,1.841,1.8,6305,131,feet,jsons/VE125_randls_61_rotated.json,1287874,2396043,30,Man
121,473167,DepthScenes,duration_manipulation_targetAtFixation,jsons/VE125_randls_61_rotated.json,http://54.235.29.9/FacialAge/BNav_EC2/DepthDuration/v2_depth_duration_MTurk/v2_DepthDuration_HTML.html#257,257,1280,595,1280,720,8-29-2022,14-24-42,122,depth_duration_stimuli/001055_2014-06-08_18-45-35_260595134347_rgbf000111-resize_4/001055_2014-06-08_18-45-35_260595134347_rgbf000111-resize_4-target.png,125,2.4290000000000003,3.8,7585,143,feet,jsons/VE125_randls_61_rotated.json,1287874,2396043,30,Man
122,473167,DepthScenes,duration_manipulation_targetAtFixation,jsons/VE125_randls_61_rotated.json,http://54.235.29.9/FacialAge/BNav_EC2/DepthDuration/v2_depth_duration_MTurk/v2_DepthDuration_HTML.html#257,257,1280,595,1280,720,8-29-2022,14-24-42,123,depth_duration_stimuli/000780_2014-06-08_22-28-29_260595134347_rgbf000126-resize_1/000780_2014-06-08_22-28-29_260595134347_rgbf000126-resize_1-target.png,125,3.3825,3.0,7440,131,feet,jsons/VE125_randls_61_rotated.json,1287874,2396043,30,Man
123,473167,DepthScenes,duration_manipulation_targetAtFixation,jsons/VE125_randls_61_rotated.json,http://54.235.29.9/FacialAge/BNav_EC2/DepthDuration/v2_depth_duration_MTurk/v2_DepthDuration_HTML.html#257,257,1280,595,1280,720,8-29-2022,14-24-42,124,depth_duration_stimuli/002445_2014-06-28_20-32-16_260595134347_rgbf000029-resize_4/002445_2014-06-28_20-32-16_260595134347_rgbf000029-resize_4-target.png,125,2.5315,2.0,3039,135,feet,jsons/VE125_randls_61_rotated.json,1287874,2396043,30,Man
124,473167,DepthScenes,duration_manipulation_targetAtFixation,jsons/VE125_randls_61_rotated.json,http://54.235.29.9/FacialAge/BNav_EC2/DepthDuration/v2_depth_duration_MTurk/v2_DepthDuration_HTML.html#257,257,1280,595,1280,720,8-29-2022,14-24-42,125,depth_duration_stimuli/000749_2014-06-08_21-55-06_260595134347_rgbf000070-resize_2/000749_2014-06-08_21-55-06_260595134347_rgbf000070-resize_2-target.png,125,2.331,2.3,22391,115,feet,jsons/VE125_randls_61_rotated.json,1287874,2396043,30,Man
125,473167,DepthScenes,duration_manipulation_targetAtFixation,jsons/VE125_randls_61_rotated.json,http://54.235.29.9/FacialAge/BNav_EC2/DepthDuration/v2_depth_duration_MTurk/v2_DepthDuration_HTML.html#257,257,1280,595,1280,720,8-29-2022,14-24-42,126,depth_duration_stimuli/002788_2014-06-22_19-36-03_094959634447_rgbf000088-resize_2/002788_2014-06-22_19-36-03_094959634447_rgbf000088-resize_2-target.png,125,1.6465,2.8,7134,119,feet,jsons/VE125_randls_61_rotated.json,1287874,2396043,30,Man
126,473167,DepthScenes,duration_manipulation_targetAtFixation,jsons/VE125_randls_61_rotated.json,http://54.235.29.9/FacialAge/BNav_EC2/DepthDuration/v2_depth_duration_MTurk/v2_DepthDuration_HTML.html#257,257,1280,595,1280,720,8-29-2022,14-24-42,127,depth_duration_stimuli/001516_2014-06-20_16-25-09_260595134347_rgbf000076-resize_2/001516_2014-06-20_16-25-09_260595134347_rgbf000076-resize_2-target.png,125,1.7445,2.0,3095,114,feet,jsons/VE125_randls_61_rotated.json,1287874,2396043,30,Man
127,473167,DepthScenes,duration_manipulation_targetAtFixation,jsons/VE125_randls_61_rotated.json,http://54.235.29.9/FacialAge/BNav_EC2/DepthDuration/v2_depth_duration_MTurk/v2_DepthDuration_HTML.html#257,257,1280,595,1280,720,8-29-2022,14-24-42,128,depth_duration_stimuli/002118_2014-06-25_20-32-08_260595134347_rgbf000078-resize_1/002118_2014-06-25_20-32-08_260595134347_rgbf000078-resize_1-target.png,125,2.6460000000000004,3.4,5778,115,feet,jsons/VE125_randls_61_rotated.json,1287874,2396043,30,Man
128,473167,DepthScenes,duration_manipulation_targetAtFixation,jsons/VE125_randls_61_rotated.json,http://54.235.29.9/FacialAge/BNav_EC2/DepthDuration/v2_depth_duration_MTurk/v2_DepthDuration_HTML.html#257,257,1280,595,1280,720,8-29-2022,14-24-42,129,depth_duration_stimuli/002750_2014-06-22_19-08-03_094959634447_rgbf000094-resize_4/002750_2014-06-22_19-08-03_094959634447_rgbf000094-resize_4-target.png,125,2.354,0.0,2767,130,feet,jsons/VE125_randls_61_rotated.json,1287874,2396043,30,Man
129,473167,DepthScenes,duration_manipulation_targetAtFixation,jsons/VE125_randls_61_rotated.json,http://54.235.29.9/FacialAge/BNav_EC2/DepthDuration/v2_depth_duration_MTurk/v2_DepthDuration_HTML.html#257,257,1280,595,1280,720,8-29-2022,14-24-42,130,depth_duration_stimuli/002549_2014-06-24_13-41-39_094959634447_rgbf000022-resize_3/002549_2014-06-24_13-41-39_094959634447_rgbf000022-resize_3-target.png,125,1.476,2.0,3086,129,feet,jsons/VE125_randls_61_rotated.json,1287874,2396043,30,Man
130,473167,DepthScenes,duration_manipulation_targetAtFixation,jsons/VE125_randls_61_rotated.json,http://54.235.29.9/FacialAge/BNav_EC2/DepthDuration/v2_depth_duration_MTurk/v2_DepthDuration_HTML.html#257,257,1280,595,1280,720,8-29-2022,14-24-42,131,depth_duration_stimuli/001052_2014-06-08_18-24-54_260595134347_rgbf000130-resize_1/001052_2014-06-08_18-24-54_260595134347_rgbf000130-resize_1-target.png,125,4.1045,3.4,6447,127,feet,jsons/VE125_randls_61_rotated.json,1287874,2396043,30,Man
131,473167,DepthScenes,duration_manipulation_targetAtFixation,jsons/VE125_randls_61_rotated.json,http://54.235.29.9/FacialAge/BNav_EC2/DepthDuration/v2_depth_duration_MTurk/v2_DepthDuration_HTML.html#257,257,1280,595,1280,720,8-29-2022,14-24-42,132,depth_duration_stimuli/002988_2014-06-15_12-24-20_094959634447_rgbf000150-resize_1/002988_2014-06-15_12-24-20_094959634447_rgbf000150-resize_1-target.png,125,4.7669999999999995,4.0,4950,114,feet,jsons/VE125_randls_61_rotated.json,1287874,2396043,30,Man
132,473167,DepthScenes,duration_manipulation_targetAtFixation,jsons/VE125_randls_61_rotated.json,http://54.235.29.9/FacialAge/BNav_EC2/DepthDuration/v2_depth_duration_MTurk/v2_DepthDuration_HTML.html#257,257,1280,595,1280,720,8-29-2022,14-24-42,133,depth_duration_stimuli/002875_2014-06-01_15-19-00_094959634447_rgbf000151-resize_1/002875_2014-06-01_15-19-00_094959634447_rgbf000151-resize_1-target.png,125,1.9675,2.0,5380,128,feet,jsons/VE125_randls_61_rotated.json,1287874,2396043,30,Man
133,473167,DepthScenes,duration_manipulation_targetAtFixation,jsons/VE125_randls_61_rotated.json,http://54.235.29.9/FacialAge/BNav_EC2/DepthDuration/v2_depth_duration_MTurk/v2_DepthDuration_HTML.html#257,257,1280,595,1280,720,8-29-2022,14-24-42,134,depth_duration_stimuli/001011_2014-06-08_23-18-54_260595134347_rgbf000044-resize_4/001011_2014-06-08_23-18-54_260595134347_rgbf000044-resize_4-target.png,125,2.4730000000000003,2.0,3779,130,feet,jsons/VE125_randls_61_rotated.json,1287874,2396043,30,Man
134,473167,DepthScenes,duration_manipulation_targetAtFixation,jsons/VE125_randls_61_rotated.json,http://54.235.29.9/FacialAge/BNav_EC2/DepthDuration/v2_depth_duration_MTurk/v2_DepthDuration_HTML.html#257,257,1280,595,1280,720,8-29-2022,14-24-42,135,depth_duration_stimuli/000375_2014-06-08_11-17-29_260595134347_rgbf000133-resize_2/000375_2014-06-08_11-17-29_260595134347_rgbf000133-resize-original.jpg,125,4.718,0.0,2541,114,feet,jsons/VE125_randls_61_rotated.json,1287874,2396043,30,Man
135,473167,DepthScenes,duration_manipulation_targetAtFixation,jsons/VE125_randls_61_rotated.json,http://54.235.29.9/FacialAge/BNav_EC2/DepthDuration/v2_depth_duration_MTurk/v2_DepthDuration_HTML.html#257,257,1280,595,1280,720,8-29-2022,14-24-42,136,depth_duration_stimuli/003490_2014-05-21_15-50-11_094959634447_rgbf000101-resize_3/003490_2014-05-21_15-50-11_094959634447_rgbf000101-resize_3-target.png,125,3.6445,3.5,6406,115,feet,jsons/VE125_randls_61_rotated.json,1287874,2396043,30,Man
136,473167,DepthScenes,duration_manipulation_targetAtFixation,jsons/VE125_randls_61_rotated.json,http://54.235.29.9/FacialAge/BNav_EC2/DepthDuration/v2_depth_duration_MTurk/v2_DepthDuration_HTML.html#257,257,1280,595,1280,720,8-29-2022,14-24-42,137,depth_duration_stimuli/001175_2014-06-17_15-45-55_260595134347_rgbf000129-resize_4/001175_2014-06-17_15-45-55_260595134347_rgbf000129-resize_4-target.png,125,4.255,4.0,4555,130,feet,jsons/VE125_randls_61_rotated.json,1287874,2396043,30,Man
137,473167,DepthScenes,duration_manipulation_targetAtFixation,jsons/VE125_randls_61_rotated.json,http://54.235.29.9/FacialAge/BNav_EC2/DepthDuration/v2_depth_duration_MTurk/v2_DepthDuration_HTML.html#257,257,1280,595,1280,720,8-29-2022,14-24-42,138,depth_duration_stimuli/001650_2014-06-20_12-09-00_260595134347_rgbf000087-resize_3/001650_2014-06-20_12-09-00_260595134347_rgbf000087-resize_3-target.png,125,1.9505,0.0,4750,113,feet,jsons/VE125_randls_61_rotated.json,1287874,2396043,30,Man
138,473167,DepthScenes,duration_manipulation_targetAtFixation,jsons/VE125_randls_61_rotated.json,http://54.235.29.9/FacialAge/BNav_EC2/DepthDuration/v2_depth_duration_MTurk/v2_DepthDuration_HTML.html#257,257,1280,595,1280,720,8-29-2022,14-24-42,139,depth_duration_stimuli/000682_2014-06-08_23-14-58_260595134347_rgbf000041-resize_5/000682_2014-06-08_23-14-58_260595134347_rgbf000041-resize_5-target.png,125,2.7239999999999998,2.4,7534,115,feet,jsons/VE125_randls_61_rotated.json,1287874,2396043,30,Man
139,473167,DepthScenes,duration_manipulation_targetAtFixation,jsons/VE125_randls_61_rotated.json,http://54.235.29.9/FacialAge/BNav_EC2/DepthDuration/v2_depth_duration_MTurk/v2_DepthDuration_HTML.html#257,257,1280,595,1280,720,8-29-2022,14-24-42,140,depth_duration_stimuli/001392_2014-06-19_16-07-59_260595134347_rgbf000046-resize_1/001392_2014-06-19_16-07-59_260595134347_rgbf000046-resize_1-target.png,125,4.135,3.6,5803,114,feet,jsons/VE125_randls_61_rotated.json,1287874,2396043,30,Man
140,473167,DepthScenes,duration_manipulation_targetAtFixation,jsons/VE125_randls_61_rotated.json,http://54.235.29.9/FacialAge/BNav_EC2/DepthDuration/v2_depth_duration_MTurk/v2_DepthDuration_HTML.html#257,257,1280,595,1280,720,8-29-2022,14-24-42,141,depth_duration_stimuli/001570_2014-06-20_17-21-09_260595134347_rgbf000135-resize_4/001570_2014-06-20_17-21-09_260595134347_rgbf000135-resize_4-target.png,125,4.467,5.5,8855,131,feet,jsons/VE125_randls_61_rotated.json,1287874,2396043,30,Man
141,473167,DepthScenes,duration_manipulation_targetAtFixation,jsons/VE125_randls_61_rotated.json,http://54.235.29.9/FacialAge/BNav_EC2/DepthDuration/v2_depth_duration_MTurk/v2_DepthDuration_HTML.html#257,257,1280,595,1280,720,8-29-2022,14-24-42,142,depth_duration_stimuli/000854_2014-06-09_19-43-13_260595134347_rgbf000066-resize_0/000854_2014-06-09_19-43-13_260595134347_rgbf000066-resize_0-target.png,125,3.068,2.0,3713,130,feet,jsons/VE125_randls_61_rotated.json,1287874,2396043,30,Man
142,473167,DepthScenes,duration_manipulation_targetAtFixation,jsons/VE125_randls_61_rotated.json,http://54.235.29.9/FacialAge/BNav_EC2/DepthDuration/v2_depth_duration_MTurk/v2_DepthDuration_HTML.html#257,257,1280,595,1280,720,8-29-2022,14-24-42,143,depth_duration_stimuli/000758_2014-06-08_22-05-08_260595134347_rgbf000085-resize_0/000758_2014-06-08_22-05-08_260595134347_rgbf000085-resize_0-target.png,125,3.3810000000000002,5.0,18455,121,feet,jsons/VE125_randls_61_rotated.json,1287874,2396043,30,Man
143,473167,DepthScenes,duration_manipulation_targetAtFixation,jsons/VE125_randls_61_rotated.json,http://54.235.29.9/FacialAge/BNav_EC2/DepthDuration/v2_depth_duration_MTurk/v2_DepthDuration_HTML.html#257,257,1280,595,1280,720,8-29-2022,14-24-42,144,depth_duration_stimuli/002444_2014-06-28_20-32-08_260595134347_rgbf000027-resize_0/002444_2014-06-28_20-32-08_260595134347_rgbf000027-resize_0-target.png,125,4.388999999999999,4.0,6374,123,feet,jsons/VE125_randls_61_rotated.json,1287874,2396043,30,Man
144,473167,DepthScenes,duration_manipulation_targetAtFixation,jsons/VE125_randls_61_rotated.json,http://54.235.29.9/FacialAge/BNav_EC2/DepthDuration/v2_depth_duration_MTurk/v2_DepthDuration_HTML.html#257,257,1280,595,1280,720,8-29-2022,14-24-42,145,depth_duration_stimuli/000436_2014-06-09_22-25-11_260595134347_rgbf000137-resize_1/000436_2014-06-09_22-25-11_260595134347_rgbf000137-resize_1-target.png,125,4.0705,5.0,6613,115,feet,jsons/VE125_randls_61_rotated.json,1287874,2396043,30,Man
145,473167,DepthScenes,duration_manipulation_targetAtFixation,jsons/VE125_randls_61_rotated.json,http://54.235.29.9/FacialAge/BNav_EC2/DepthDuration/v2_depth_duration_MTurk/v2_DepthDuration_HTML.html#257,257,1280,595,1280,720,8-29-2022,14-24-42,146,depth_duration_stimuli/000691_2014-06-08_13-08-50_260595134347_rgbf000132-resize_3/000691_2014-06-08_13-08-50_260595134347_rgbf000132-resize_3-target.png,125,4.1530000000000005,3.5,5049,123,feet,jsons/VE125_randls_61_rotated.json,1287874,2396043,30,Man
146,473167,DepthScenes,duration_manipulation_targetAtFixation,jsons/VE125_randls_61_rotated.json,http://54.235.29.9/FacialAge/BNav_EC2/DepthDuration/v2_depth_duration_MTurk/v2_DepthDuration_HTML.html#257,257,1280,595,1280,720,8-29-2022,14-24-42,147,depth_duration_stimuli/002213_2014-06-28_18-37-58_260595134347_rgbf000055-resize_1/002213_2014-06-28_18-37-58_260595134347_rgbf000055-resize_1-target.png,125,3.62,2.0,8448,114,feet,jsons/VE125_randls_61_rotated.json,1287874,2396043,30,Man
147,473167,DepthScenes,duration_manipulation_targetAtFixation,jsons/VE125_randls_61_rotated.json,http://54.235.29.9/FacialAge/BNav_EC2/DepthDuration/v2_depth_duration_MTurk/v2_DepthDuration_HTML.html#257,257,1280,595,1280,720,8-29-2022,14-24-42,148,depth_duration_stimuli/002344_2014-06-28_20-06-29_260595134347_rgbf000030-resize_1/002344_2014-06-28_20-06-29_260595134347_rgbf000030-resize_1-target.png,125,1.5795,1.0,3178,122,feet,jsons/VE125_randls_61_rotated.json,1287874,2396043,30,Man
148,473167,DepthScenes,duration_manipulation_targetAtFixation,jsons/VE125_randls_61_rotated.json,http://54.235.29.9/FacialAge/BNav_EC2/DepthDuration/v2_depth_duration_MTurk/v2_DepthDuration_HTML.html#257,257,1280,595,1280,720,8-29-2022,14-24-42,149,depth_duration_stimuli/002725_2014-06-22_11-47-51_094959634447_rgbf000070-resize_1/002725_2014-06-22_11-47-51_094959634447_rgbf000070-resize_1-target.png,125,2.195,2.3,8395,122,feet,jsons/VE125_randls_61_rotated.json,1287874,2396043,30,Man
149,473167,DepthScenes,duration_manipulation_targetAtFixation,jsons/VE125_randls_61_rotated.json,http://54.235.29.9/FacialAge/BNav_EC2/DepthDuration/v2_depth_duration_MTurk/v2_DepthDuration_HTML.html#257,257,1280,595,1280,720,8-29-2022,14-24-42,150,depth_duration_stimuli/001450_2014-06-19_17-02-03_260595134347_rgbf000203-resize_4/001450_2014-06-19_17-02-03_260595134347_rgbf000203-resize_4-target.png,125,4.0106666666667,4.0,4743,115,feet,jsons/VE125_randls_61_rotated.json,1287874,2396043,30,Man
150,473167,DepthScenes,duration_manipulation_targetAtFixation,jsons/VE125_randls_61_rotated.json,http://54.235.29.9/FacialAge/BNav_EC2/DepthDuration/v2_depth_duration_MTurk/v2_DepthDuration_HTML.html#257,257,1280,595,1280,720,8-29-2022,14-24-42,151,depth_duration_stimuli/001449_2014-06-19_17-01-27_260595134347_rgbf000116-resize_2/001449_2014-06-19_17-01-27_260595134347_rgbf000116-resize_2-target.png,125,3.452,2.5,4730,137,feet,jsons/VE125_randls_61_rotated.json,1287874,2396043,30,Man
151,473167,DepthScenes,duration_manipulation_targetAtFixation,jsons/VE125_randls_61_rotated.json,http://54.235.29.9/FacialAge/BNav_EC2/DepthDuration/v2_depth_duration_MTurk/v2_DepthDuration_HTML.html#257,257,1280,595,1280,720,8-29-2022,14-24-42,152,depth_duration_stimuli/000569_2014-06-09_22-51-47_260595134347_rgbf000141-resize_3/000569_2014-06-09_22-51-47_260595134347_rgbf000141-resize-original.jpg,125,4.512,0.0,2660,130,feet,jsons/VE125_randls_61_rotated.json,1287874,2396043,30,Man
152,473167,DepthScenes,duration_manipulation_targetAtFixation,jsons/VE125_randls_61_rotated.json,http://54.235.29.9/FacialAge/BNav_EC2/DepthDuration/v2_depth_duration_MTurk/v2_DepthDuration_HTML.html#257,257,1280,595,1280,720,8-29-2022,14-24-42,153,depth_duration_stimuli/003228_2014-05-14_13-42-35_094959634447_rgbf000101-resize_1/003228_2014-05-14_13-42-35_094959634447_rgbf000101-resize_1-target.png,125,1.9680000000000002,2.0,4434,113,feet,jsons/VE125_randls_61_rotated.json,1287874,2396043,30,Man
153,473167,DepthScenes,duration_manipulation_targetAtFixation,jsons/VE125_randls_61_rotated.json,http://54.235.29.9/FacialAge/BNav_EC2/DepthDuration/v2_depth_duration_MTurk/v2_DepthDuration_HTML.html#257,257,1280,595,1280,720,8-29-2022,14-24-42,154,depth_duration_stimuli/002600_2014-06-24_14-27-04_094959634447_rgbf000074-resize_2/002600_2014-06-24_14-27-04_094959634447_rgbf000074-resize_2-target.png,125,2.7575,3.0,111247,121,feet,jsons/VE125_randls_61_rotated.json,1287874,2396043,30,Man
154,473167,DepthScenes,duration_manipulation_targetAtFixation,jsons/VE125_randls_61_rotated.json,http://54.235.29.9/FacialAge/BNav_EC2/DepthDuration/v2_depth_duration_MTurk/v2_DepthDuration_HTML.html#257,257,1280,595,1280,720,8-29-2022,14-24-42,155,depth_duration_stimuli/001094_2014-06-15_17-36-00_260595134347_rgbf000205-resize_0/001094_2014-06-15_17-36-00_260595134347_rgbf000205-resize_0-target.png,125,4.2175,4.0,5492,130,feet,jsons/VE125_randls_61_rotated.json,1287874,2396043,30,Man
155,473167,DepthScenes,duration_manipulation_targetAtFixation,jsons/VE125_randls_61_rotated.json,http://54.235.29.9/FacialAge/BNav_EC2/DepthDuration/v2_depth_duration_MTurk/v2_DepthDuration_HTML.html#257,257,1280,595,1280,720,8-29-2022,14-24-42,156,depth_duration_stimuli/000692_2014-06-08_13-09-42_260595134347_rgbf000199-resize_2/000692_2014-06-08_13-09-42_260595134347_rgbf000199-resize_2-target.png,125,3.661,5.0,3100,121,feet,jsons/VE125_randls_61_rotated.json,1287874,2396043,30,Man
156,473167,DepthScenes,duration_manipulation_targetAtFixation,jsons/VE125_randls_61_rotated.json,http://54.235.29.9/FacialAge/BNav_EC2/DepthDuration/v2_depth_duration_MTurk/v2_DepthDuration_HTML.html#257,257,1280,595,1280,720,8-29-2022,14-24-42,157,depth_duration_stimuli/003423_2014-05-21_10-23-26_094959634447_rgbf002665-resize_2/003423_2014-05-21_10-23-26_094959634447_rgbf002665-resize_2-target.png,125,3.2575,4.3,4291,121,feet,jsons/VE125_randls_61_rotated.json,1287874,2396043,30,Man
157,473167,DepthScenes,duration_manipulation_targetAtFixation,jsons/VE125_randls_61_rotated.json,http://54.235.29.9/FacialAge/BNav_EC2/DepthDuration/v2_depth_duration_MTurk/v2_DepthDuration_HTML.html#257,257,1280,595,1280,720,8-29-2022,14-24-42,158,depth_duration_stimuli/002905_2014-06-03_18-04-43_094959634447_rgbf000151-resize_2/002905_2014-06-03_18-04-43_094959634447_rgbf000151-resize_2-target.png,125,2.0295,2.4,5234,115,feet,jsons/VE125_randls_61_rotated.json,1287874,2396043,30,Man
158,473167,DepthScenes,duration_manipulation_targetAtFixation,jsons/VE125_randls_61_rotated.json,http://54.235.29.9/FacialAge/BNav_EC2/DepthDuration/v2_depth_duration_MTurk/v2_DepthDuration_HTML.html#257,257,1280,595,1280,720,8-29-2022,14-24-42,159,depth_duration_stimuli/000742_2014-06-08_18-48-09_260595134347_rgbf000164-resize_4/000742_2014-06-08_18-48-09_260595134347_rgbf000164-resize_4-target.png,125,4.632,6.0,7388,116,feet,jsons/VE125_randls_61_rotated.json,1287874,2396043,30,Man
159,473167,DepthScenes,duration_manipulation_targetAtFixation,jsons/VE125_randls_61_rotated.json,http://54.235.29.9/FacialAge/BNav_EC2/DepthDuration/v2_depth_duration_MTurk/v2_DepthDuration_HTML.html#257,257,1280,595,1280,720,8-29-2022,14-24-42,160,depth_duration_stimuli/001066_2014-06-08_22-03-20_260595134347_rgbf000066-resize_4/001066_2014-06-08_22-03-20_260595134347_rgbf000066-resize_4-target.png,125,4.2330000000000005,7.0,3516,126,feet,jsons/VE125_randls_61_rotated.json,1287874,2396043,30,Man
160,473167,DepthScenes,duration_manipulation_targetAtFixation,jsons/VE125_randls_61_rotated.json,http://54.235.29.9/FacialAge/BNav_EC2/DepthDuration/v2_depth_duration_MTurk/v2_DepthDuration_HTML.html#257,257,1280,595,1280,720,8-29-2022,14-24-42,161,depth_duration_stimuli/003495_2014-05-21_16-01-51_094959634447_rgbf000100-resize_3/003495_2014-05-21_16-01-51_094959634447_rgbf000100-resize_3-target.png,125,1.6255,1.0,2605,115,feet,jsons/VE125_randls_61_rotated.json,1287874,2396043,30,Man
161,473167,DepthScenes,duration_manipulation_targetAtFixation,jsons/VE125_randls_61_rotated.json,http://54.235.29.9/FacialAge/BNav_EC2/DepthDuration/v2_depth_duration_MTurk/v2_DepthDuration_HTML.html#257,257,1280,595,1280,720,8-29-2022,14-24-42,162,depth_duration_stimuli/001244_2014-06-17_16-47-45_260595134347_rgbf000030-resize_4/001244_2014-06-17_16-47-45_260595134347_rgbf000030-resize_4-target.png,125,2.0425,2.5,4241,137,feet,jsons/VE125_randls_61_rotated.json,1287874,2396043,30,Man
162,473167,DepthScenes,duration_manipulation_targetAtFixation,jsons/VE125_randls_61_rotated.json,http://54.235.29.9/FacialAge/BNav_EC2/DepthDuration/v2_depth_duration_MTurk/v2_DepthDuration_HTML.html#257,257,1280,595,1280,720,8-29-2022,14-24-42,163,depth_duration_stimuli/001447_2014-06-19_17-00-32_260595134347_rgbf000082-resize_5/001447_2014-06-19_17-00-32_260595134347_rgbf000082-resize_5-target.png,125,4.13775,3.3,5664,115,feet,jsons/VE125_randls_61_rotated.json,1287874,2396043,30,Man
163,473167,DepthScenes,duration_manipulation_targetAtFixation,jsons/VE125_randls_61_rotated.json,http://54.235.29.9/FacialAge/BNav_EC2/DepthDuration/v2_depth_duration_MTurk/v2_DepthDuration_HTML.html#257,257,1280,595,1280,720,8-29-2022,14-24-42,164,depth_duration_stimuli/000447_2014-06-08_16-15-46_260595134347_rgbf000130-resize_1/000447_2014-06-08_16-15-46_260595134347_rgbf000130-resize_1-target.png,125,4.479,5.2,7733,130,feet,jsons/VE125_randls_61_rotated.json,1287874,2396043,30,Man
