,subjID,experimentName,versionName,sequenceName,url,selected_row,windowWidth,windowHeight,screenWidth,screenHeight,startDate,startTime,trial,stimulus,duration,actual_depth,depth_estimate,trial_RT,log_sceneDuration,unitSelection,seq_filepath,experimentTime,totalTime,age,gender
0,473972,DepthScenes,duration_manipulation_targetAtFixation,jsons/VE125_randls_67_rotated.json,http://54.235.29.9/FacialAge/BNav_EC2/DepthDuration/v2_depth_duration_MTurk/v2_DepthDuration_HTML.html#119,119,1536,1152,1024,768,8-21-2022,6-36-28,1,depth_duration_stimuli/000866_2014-06-09_20-45-42_260595134347_rgbf000139-resize_1/000866_2014-06-09_20-45-42_260595134347_rgbf000139-resize_1-target.png,125,3.2155,5,14793,126,feet,jsons/VE125_randls_67_rotated.json,1274470,1876402,30,Woman
1,473972,DepthScenes,duration_manipulation_targetAtFixation,jsons/VE125_randls_67_rotated.json,http://54.235.29.9/FacialAge/BNav_EC2/DepthDuration/v2_depth_duration_MTurk/v2_DepthDuration_HTML.html#119,119,1536,1152,1024,768,8-21-2022,6-36-28,2,depth_duration_stimuli/002989_2014-06-15_12-25-03_094959634447_rgbf000150-resize_3/002989_2014-06-15_12-25-03_094959634447_rgbf000150-resize_3-target.png,125,4.1975,10,14493,123,feet,jsons/VE125_randls_67_rotated.json,1274470,1876402,30,Woman
2,473972,DepthScenes,duration_manipulation_targetAtFixation,jsons/VE125_randls_67_rotated.json,http://54.235.29.9/FacialAge/BNav_EC2/DepthDuration/v2_depth_duration_MTurk/v2_DepthDuration_HTML.html#119,119,1536,1152,1024,768,8-21-2022,6-36-28,3,depth_duration_stimuli/001132_2014-06-17_14-48-54_260595134347_rgbf000100-resize_2/001132_2014-06-17_14-48-54_260595134347_rgbf000100-resize_2-target.png,125,3.753,7,8924,117,feet,jsons/VE125_randls_67_rotated.json,1274470,1876402,30,Woman
3,473972,DepthScenes,duration_manipulation_targetAtFixation,jsons/VE125_randls_67_rotated.json,http://54.235.29.9/FacialAge/BNav_EC2/DepthDuration/v2_depth_duration_MTurk/v2_DepthDuration_HTML.html#119,119,1536,1152,1024,768,8-21-2022,6-36-28,4,depth_duration_stimuli/001133_2014-06-17_14-49-16_260595134347_rgbf000100-resize_0/001133_2014-06-17_14-49-16_260595134347_rgbf000100-resize_0-target.png,125,4.2115,4,7071,123,feet,jsons/VE125_randls_67_rotated.json,1274470,1876402,30,Woman
4,473972,DepthScenes,duration_manipulation_targetAtFixation,jsons/VE125_randls_67_rotated.json,http://54.235.29.9/FacialAge/BNav_EC2/DepthDuration/v2_depth_duration_MTurk/v2_DepthDuration_HTML.html#119,119,1536,1152,1024,768,8-21-2022,6-36-28,5,depth_duration_stimuli/002657_2014-06-13_15-29-54_094959634447_rgbf000150-resize_1/002657_2014-06-13_15-29-54_094959634447_rgbf000150-resize_1-target.png,125,4.919,6,13947,5,feet,jsons/VE125_randls_67_rotated.json,1274470,1876402,30,Woman
5,473972,DepthScenes,duration_manipulation_targetAtFixation,jsons/VE125_randls_67_rotated.json,http://54.235.29.9/FacialAge/BNav_EC2/DepthDuration/v2_depth_duration_MTurk/v2_DepthDuration_HTML.html#119,119,1536,1152,1024,768,8-21-2022,6-36-28,6,depth_duration_stimuli/002375_2014-06-28_20-13-44_260595134347_rgbf000032-resize_1/002375_2014-06-28_20-13-44_260595134347_rgbf000032-resize_1-target.png,125,4.0175,7,5466,142,feet,jsons/VE125_randls_67_rotated.json,1274470,1876402,30,Woman
6,473972,DepthScenes,duration_manipulation_targetAtFixation,jsons/VE125_randls_67_rotated.json,http://54.235.29.9/FacialAge/BNav_EC2/DepthDuration/v2_depth_duration_MTurk/v2_DepthDuration_HTML.html#119,119,1536,1152,1024,768,8-21-2022,6-36-28,7,depth_duration_stimuli/002136_2014-06-25_21-18-03_260595134347_rgbf000109-resize_3/002136_2014-06-25_21-18-03_260595134347_rgbf000109-resize_3-target.png,125,1.9569999999999999,3,12271,96,feet,jsons/VE125_randls_67_rotated.json,1274470,1876402,30,Woman
7,473972,DepthScenes,duration_manipulation_targetAtFixation,jsons/VE125_randls_67_rotated.json,http://54.235.29.9/FacialAge/BNav_EC2/DepthDuration/v2_depth_duration_MTurk/v2_DepthDuration_HTML.html#119,119,1536,1152,1024,768,8-21-2022,6-36-28,8,depth_duration_stimuli/002964_2014-06-08_17-46-11_094959634447_rgbf000091-resize_4/002964_2014-06-08_17-46-11_094959634447_rgbf000091-resize_4-target.png,125,1.6909999999999998,5,5731,129,feet,jsons/VE125_randls_67_rotated.json,1274470,1876402,30,Woman
8,473972,DepthScenes,duration_manipulation_targetAtFixation,jsons/VE125_randls_67_rotated.json,http://54.235.29.9/FacialAge/BNav_EC2/DepthDuration/v2_depth_duration_MTurk/v2_DepthDuration_HTML.html#119,119,1536,1152,1024,768,8-21-2022,6-36-28,9,depth_duration_stimuli/001052_2014-06-08_18-24-54_260595134347_rgbf000130-resize_1/001052_2014-06-08_18-24-54_260595134347_rgbf000130-resize_1-target.png,125,4.1045,10,5380,120,feet,jsons/VE125_randls_67_rotated.json,1274470,1876402,30,Woman
9,473972,DepthScenes,duration_manipulation_targetAtFixation,jsons/VE125_randls_67_rotated.json,http://54.235.29.9/FacialAge/BNav_EC2/DepthDuration/v2_depth_duration_MTurk/v2_DepthDuration_HTML.html#119,119,1536,1152,1024,768,8-21-2022,6-36-28,10,depth_duration_stimuli/002988_2014-06-15_12-24-20_094959634447_rgbf000150-resize_1/002988_2014-06-15_12-24-20_094959634447_rgbf000150-resize_1-target.png,125,4.7669999999999995,6,9362,123,feet,jsons/VE125_randls_67_rotated.json,1274470,1876402,30,Woman
10,473972,DepthScenes,duration_manipulation_targetAtFixation,jsons/VE125_randls_67_rotated.json,http://54.235.29.9/FacialAge/BNav_EC2/DepthDuration/v2_depth_duration_MTurk/v2_DepthDuration_HTML.html#119,119,1536,1152,1024,768,8-21-2022,6-36-28,11,depth_duration_stimuli/003129_2014-05-12_10-48-10_094959634447_rgbf000100-resize_0/003129_2014-05-12_10-48-10_094959634447_rgbf000100-resize_0-target.png,125,4.9305,8,7642,118,feet,jsons/VE125_randls_67_rotated.json,1274470,1876402,30,Woman
11,473972,DepthScenes,duration_manipulation_targetAtFixation,jsons/VE125_randls_67_rotated.json,http://54.235.29.9/FacialAge/BNav_EC2/DepthDuration/v2_depth_duration_MTurk/v2_DepthDuration_HTML.html#119,119,1536,1152,1024,768,8-21-2022,6-36-28,12,depth_duration_stimuli/000414_2014-06-04_19-49-13_260595134347_rgbf000044-resize_0/000414_2014-06-04_19-49-13_260595134347_rgbf000044-resize_0-target.png,125,4.329,10,4545,118,feet,jsons/VE125_randls_67_rotated.json,1274470,1876402,30,Woman
12,473972,DepthScenes,duration_manipulation_targetAtFixation,jsons/VE125_randls_67_rotated.json,http://54.235.29.9/FacialAge/BNav_EC2/DepthDuration/v2_depth_duration_MTurk/v2_DepthDuration_HTML.html#119,119,1536,1152,1024,768,8-21-2022,6-36-28,13,depth_duration_stimuli/003079_2014-06-15_15-18-20_094959634447_rgbf000152-resize_8/003079_2014-06-15_15-18-20_094959634447_rgbf000152-resize_8-target.png,125,2.8775,8,8916,124,feet,jsons/VE125_randls_67_rotated.json,1274470,1876402,30,Woman
13,473972,DepthScenes,duration_manipulation_targetAtFixation,jsons/VE125_randls_67_rotated.json,http://54.235.29.9/FacialAge/BNav_EC2/DepthDuration/v2_depth_duration_MTurk/v2_DepthDuration_HTML.html#119,119,1536,1152,1024,768,8-21-2022,6-36-28,14,depth_duration_stimuli/000506_2014-06-08_23-21-00_260595134347_rgbf000070-resize_7/000506_2014-06-08_23-21-00_260595134347_rgbf000070-resize_7-target.png,125,4.0585,7,6035,119,feet,jsons/VE125_randls_67_rotated.json,1274470,1876402,30,Woman
14,473972,DepthScenes,duration_manipulation_targetAtFixation,jsons/VE125_randls_67_rotated.json,http://54.235.29.9/FacialAge/BNav_EC2/DepthDuration/v2_depth_duration_MTurk/v2_DepthDuration_HTML.html#119,119,1536,1152,1024,768,8-21-2022,6-36-28,15,depth_duration_stimuli/000549_2014-06-08_22-10-24_260595134347_rgbf000247-resize_3/000549_2014-06-08_22-10-24_260595134347_rgbf000247-resize_3-target.png,125,1.841,4,4353,114,feet,jsons/VE125_randls_67_rotated.json,1274470,1876402,30,Woman
15,473972,DepthScenes,duration_manipulation_targetAtFixation,jsons/VE125_randls_67_rotated.json,http://54.235.29.9/FacialAge/BNav_EC2/DepthDuration/v2_depth_duration_MTurk/v2_DepthDuration_HTML.html#119,119,1536,1152,1024,768,8-21-2022,6-36-28,16,depth_duration_stimuli/001055_2014-06-08_18-45-35_260595134347_rgbf000111-resize_4/001055_2014-06-08_18-45-35_260595134347_rgbf000111-resize_4-target.png,125,2.4290000000000003,5,3806,107,feet,jsons/VE125_randls_67_rotated.json,1274470,1876402,30,Woman
16,473972,DepthScenes,duration_manipulation_targetAtFixation,jsons/VE125_randls_67_rotated.json,http://54.235.29.9/FacialAge/BNav_EC2/DepthDuration/v2_depth_duration_MTurk/v2_DepthDuration_HTML.html#119,119,1536,1152,1024,768,8-21-2022,6-36-28,17,depth_duration_stimuli/000409_2014-06-04_19-23-33_260595134347_rgbf000067-resize_0/000409_2014-06-04_19-23-33_260595134347_rgbf000067-resize_0-target.png,125,3.7335,7,4387,115,feet,jsons/VE125_randls_67_rotated.json,1274470,1876402,30,Woman
17,473972,DepthScenes,duration_manipulation_targetAtFixation,jsons/VE125_randls_67_rotated.json,http://54.235.29.9/FacialAge/BNav_EC2/DepthDuration/v2_depth_duration_MTurk/v2_DepthDuration_HTML.html#119,119,1536,1152,1024,768,8-21-2022,6-36-28,18,depth_duration_stimuli/002663_2014-06-13_15-50-26_094959634447_rgbf000075-resize_1/002663_2014-06-13_15-50-26_094959634447_rgbf000075-resize_1-target.png,125,4.7495,8,87262,118,feet,jsons/VE125_randls_67_rotated.json,1274470,1876402,30,Woman
18,473972,DepthScenes,duration_manipulation_targetAtFixation,jsons/VE125_randls_67_rotated.json,http://54.235.29.9/FacialAge/BNav_EC2/DepthDuration/v2_depth_duration_MTurk/v2_DepthDuration_HTML.html#119,119,1536,1152,1024,768,8-21-2022,6-36-28,19,depth_duration_stimuli/001498_2014-06-19_17-45-14_260595134347_rgbf000129-resize_4/001498_2014-06-19_17-45-14_260595134347_rgbf000129-resize-original.jpg,125,1.4075,5,4327,140,feet,jsons/VE125_randls_67_rotated.json,1274470,1876402,30,Woman
19,473972,DepthScenes,duration_manipulation_targetAtFixation,jsons/VE125_randls_67_rotated.json,http://54.235.29.9/FacialAge/BNav_EC2/DepthDuration/v2_depth_duration_MTurk/v2_DepthDuration_HTML.html#119,119,1536,1152,1024,768,8-21-2022,6-36-28,20,depth_duration_stimuli/002103_2014-06-25_20-00-40_260595134347_rgbf000049-resize_0/002103_2014-06-25_20-00-40_260595134347_rgbf000049-resize_0-target.png,125,4.105,3,3702,97,feet,jsons/VE125_randls_67_rotated.json,1274470,1876402,30,Woman
20,473972,DepthScenes,duration_manipulation_targetAtFixation,jsons/VE125_randls_67_rotated.json,http://54.235.29.9/FacialAge/BNav_EC2/DepthDuration/v2_depth_duration_MTurk/v2_DepthDuration_HTML.html#119,119,1536,1152,1024,768,8-21-2022,6-36-28,21,depth_duration_stimuli/002039_2014-06-24_20-22-38_260595134347_rgbf000084-resize_1/002039_2014-06-24_20-22-38_260595134347_rgbf000084-resize_1-target.png,125,4.408,4,3626,119,feet,jsons/VE125_randls_67_rotated.json,1274470,1876402,30,Woman
21,473972,DepthScenes,duration_manipulation_targetAtFixation,jsons/VE125_randls_67_rotated.json,http://54.235.29.9/FacialAge/BNav_EC2/DepthDuration/v2_depth_duration_MTurk/v2_DepthDuration_HTML.html#119,119,1536,1152,1024,768,8-21-2022,6-36-28,22,depth_duration_stimuli/000927_2014-06-09_16-32-30_260595134347_rgbf000123-resize_3/000927_2014-06-09_16-32-30_260595134347_rgbf000123-resize_3-target.png,125,2.6785,5,4199,123,feet,jsons/VE125_randls_67_rotated.json,1274470,1876402,30,Woman
22,473972,DepthScenes,duration_manipulation_targetAtFixation,jsons/VE125_randls_67_rotated.json,http://54.235.29.9/FacialAge/BNav_EC2/DepthDuration/v2_depth_duration_MTurk/v2_DepthDuration_HTML.html#119,119,1536,1152,1024,768,8-21-2022,6-36-28,23,depth_duration_stimuli/001110_2014-06-15_17-25-28_260595134347_rgbf000150-resize_1/001110_2014-06-15_17-25-28_260595134347_rgbf000150-resize_1-target.png,125,1.7115,4,6639,141,feet,jsons/VE125_randls_67_rotated.json,1274470,1876402,30,Woman
23,473972,DepthScenes,duration_manipulation_targetAtFixation,jsons/VE125_randls_67_rotated.json,http://54.235.29.9/FacialAge/BNav_EC2/DepthDuration/v2_depth_duration_MTurk/v2_DepthDuration_HTML.html#119,119,1536,1152,1024,768,8-21-2022,6-36-28,24,depth_duration_stimuli/000709_2014-06-08_13-51-55_260595134347_rgbf000068-resize_3/000709_2014-06-08_13-51-55_260595134347_rgbf000068-resize_3-target.png,125,1.8030000000000002,7,8038,118,feet,jsons/VE125_randls_67_rotated.json,1274470,1876402,30,Woman
24,473972,DepthScenes,duration_manipulation_targetAtFixation,jsons/VE125_randls_67_rotated.json,http://54.235.29.9/FacialAge/BNav_EC2/DepthDuration/v2_depth_duration_MTurk/v2_DepthDuration_HTML.html#119,119,1536,1152,1024,768,8-21-2022,6-36-28,25,depth_duration_stimuli/002057_2014-06-24_21-00-13_260595134347_rgbf000120-resize_1/002057_2014-06-24_21-00-13_260595134347_rgbf000120-resize_1-target.png,125,2.967,5,4494,147,feet,jsons/VE125_randls_67_rotated.json,1274470,1876402,30,Woman
25,473972,DepthScenes,duration_manipulation_targetAtFixation,jsons/VE125_randls_67_rotated.json,http://54.235.29.9/FacialAge/BNav_EC2/DepthDuration/v2_depth_duration_MTurk/v2_DepthDuration_HTML.html#119,119,1536,1152,1024,768,8-21-2022,6-36-28,26,depth_duration_stimuli/001100_2014-06-15_17-46-26_260595134347_rgbf000225-resize_2/001100_2014-06-15_17-46-26_260595134347_rgbf000225-resize_2-target.png,125,2.24,3,3806,124,feet,jsons/VE125_randls_67_rotated.json,1274470,1876402,30,Woman
26,473972,DepthScenes,duration_manipulation_targetAtFixation,jsons/VE125_randls_67_rotated.json,http://54.235.29.9/FacialAge/BNav_EC2/DepthDuration/v2_depth_duration_MTurk/v2_DepthDuration_HTML.html#119,119,1536,1152,1024,768,8-21-2022,6-36-28,27,depth_duration_stimuli/002784_2014-06-22_19-26-30_094959634447_rgbf000083-resize_3/002784_2014-06-22_19-26-30_094959634447_rgbf000083-resize_3-target.png,125,1.8046666666667,6,3626,114,feet,jsons/VE125_randls_67_rotated.json,1274470,1876402,30,Woman
27,473972,DepthScenes,duration_manipulation_targetAtFixation,jsons/VE125_randls_67_rotated.json,http://54.235.29.9/FacialAge/BNav_EC2/DepthDuration/v2_depth_duration_MTurk/v2_DepthDuration_HTML.html#119,119,1536,1152,1024,768,8-21-2022,6-36-28,28,depth_duration_stimuli/002995_2014-06-15_12-31-26_094959634447_rgbf000150-resize_1/002995_2014-06-15_12-31-26_094959634447_rgbf000150-resize_1-target.png,125,3.8360000000000003,8,3933,110,feet,jsons/VE125_randls_67_rotated.json,1274470,1876402,30,Woman
28,473972,DepthScenes,duration_manipulation_targetAtFixation,jsons/VE125_randls_67_rotated.json,http://54.235.29.9/FacialAge/BNav_EC2/DepthDuration/v2_depth_duration_MTurk/v2_DepthDuration_HTML.html#119,119,1536,1152,1024,768,8-21-2022,6-36-28,29,depth_duration_stimuli/002748_2014-06-22_19-07-22_094959634447_rgbf000078-resize_1/002748_2014-06-22_19-07-22_094959634447_rgbf000078-resize_1-target.png,125,4.6705,5,3274,111,feet,jsons/VE125_randls_67_rotated.json,1274470,1876402,30,Woman
29,473972,DepthScenes,duration_manipulation_targetAtFixation,jsons/VE125_randls_67_rotated.json,http://54.235.29.9/FacialAge/BNav_EC2/DepthDuration/v2_depth_duration_MTurk/v2_DepthDuration_HTML.html#119,119,1536,1152,1024,768,8-21-2022,6-36-28,30,depth_duration_stimuli/002072_2014-06-24_21-48-06_260595134347_rgbf000115-resize_0/002072_2014-06-24_21-48-06_260595134347_rgbf000115-resize-original.jpg,125,4.702,7,4025,119,feet,jsons/VE125_randls_67_rotated.json,1274470,1876402,30,Woman
30,473972,DepthScenes,duration_manipulation_targetAtFixation,jsons/VE125_randls_67_rotated.json,http://54.235.29.9/FacialAge/BNav_EC2/DepthDuration/v2_depth_duration_MTurk/v2_DepthDuration_HTML.html#119,119,1536,1152,1024,768,8-21-2022,6-36-28,31,depth_duration_stimuli/000677_2014-06-08_23-10-32_260595134347_rgbf000158-resize_6/000677_2014-06-08_23-10-32_260595134347_rgbf000158-resize_6-target.png,125,3.556,6,4242,97,feet,jsons/VE125_randls_67_rotated.json,1274470,1876402,30,Woman
31,473972,DepthScenes,duration_manipulation_targetAtFixation,jsons/VE125_randls_67_rotated.json,http://54.235.29.9/FacialAge/BNav_EC2/DepthDuration/v2_depth_duration_MTurk/v2_DepthDuration_HTML.html#119,119,1536,1152,1024,768,8-21-2022,6-36-28,32,depth_duration_stimuli/001029_2014-06-08_13-17-57_260595134347_rgbf000065-resize_1/001029_2014-06-08_13-17-57_260595134347_rgbf000065-resize_1-target.png,125,3.0835,5,4414,134,feet,jsons/VE125_randls_67_rotated.json,1274470,1876402,30,Woman
32,473972,DepthScenes,duration_manipulation_targetAtFixation,jsons/VE125_randls_67_rotated.json,http://54.235.29.9/FacialAge/BNav_EC2/DepthDuration/v2_depth_duration_MTurk/v2_DepthDuration_HTML.html#119,119,1536,1152,1024,768,8-21-2022,6-36-28,33,depth_duration_stimuli/002639_2014-06-24_14-51-37_094959634447_rgbf000074-resize_4/002639_2014-06-24_14-51-37_094959634447_rgbf000074-resize_4-target.png,125,4.0375,4,6438,93,feet,jsons/VE125_randls_67_rotated.json,1274470,1876402,30,Woman
33,473972,DepthScenes,duration_manipulation_targetAtFixation,jsons/VE125_randls_67_rotated.json,http://54.235.29.9/FacialAge/BNav_EC2/DepthDuration/v2_depth_duration_MTurk/v2_DepthDuration_HTML.html#119,119,1536,1152,1024,768,8-21-2022,6-36-28,34,depth_duration_stimuli/003292_2014-05-14_21-53-49_094959634447_rgbf000100-resize_2/003292_2014-05-14_21-53-49_094959634447_rgbf000100-resize_2-target.png,125,3.4815,5,6330,130,feet,jsons/VE125_randls_67_rotated.json,1274470,1876402,30,Woman
34,473972,DepthScenes,duration_manipulation_targetAtFixation,jsons/VE125_randls_67_rotated.json,http://54.235.29.9/FacialAge/BNav_EC2/DepthDuration/v2_depth_duration_MTurk/v2_DepthDuration_HTML.html#119,119,1536,1152,1024,768,8-21-2022,6-36-28,35,depth_duration_stimuli/001584_2014-06-20_11-07-43_260595134347_rgbf000002-resize_1/001584_2014-06-20_11-07-43_260595134347_rgbf000002-resize_1-target.png,125,3.53,5,4608,123,feet,jsons/VE125_randls_67_rotated.json,1274470,1876402,30,Woman
35,473972,DepthScenes,duration_manipulation_targetAtFixation,jsons/VE125_randls_67_rotated.json,http://54.235.29.9/FacialAge/BNav_EC2/DepthDuration/v2_depth_duration_MTurk/v2_DepthDuration_HTML.html#119,119,1536,1152,1024,768,8-21-2022,6-36-28,36,depth_duration_stimuli/003621_2014-05-23_18-06-08_094959634447_rgbf000101-resize_1/003621_2014-05-23_18-06-08_094959634447_rgbf000101-resize_1-target.png,125,3.9835,7,3897,149,feet,jsons/VE125_randls_67_rotated.json,1274470,1876402,30,Woman
36,473972,DepthScenes,duration_manipulation_targetAtFixation,jsons/VE125_randls_67_rotated.json,http://54.235.29.9/FacialAge/BNav_EC2/DepthDuration/v2_depth_duration_MTurk/v2_DepthDuration_HTML.html#119,119,1536,1152,1024,768,8-21-2022,6-36-28,37,depth_duration_stimuli/001516_2014-06-20_16-25-09_260595134347_rgbf000076-resize_2/001516_2014-06-20_16-25-09_260595134347_rgbf000076-resize_2-target.png,125,1.7445,4,116058,1,feet,jsons/VE125_randls_67_rotated.json,1274470,1876402,30,Woman
37,473972,DepthScenes,duration_manipulation_targetAtFixation,jsons/VE125_randls_67_rotated.json,http://54.235.29.9/FacialAge/BNav_EC2/DepthDuration/v2_depth_duration_MTurk/v2_DepthDuration_HTML.html#119,119,1536,1152,1024,768,8-21-2022,6-36-28,38,depth_duration_stimuli/002118_2014-06-25_20-32-08_260595134347_rgbf000078-resize_1/002118_2014-06-25_20-32-08_260595134347_rgbf000078-resize_1-target.png,125,2.6460000000000004,5,3572,124,feet,jsons/VE125_randls_67_rotated.json,1274470,1876402,30,Woman
38,473972,DepthScenes,duration_manipulation_targetAtFixation,jsons/VE125_randls_67_rotated.json,http://54.235.29.9/FacialAge/BNav_EC2/DepthDuration/v2_depth_duration_MTurk/v2_DepthDuration_HTML.html#119,119,1536,1152,1024,768,8-21-2022,6-36-28,39,depth_duration_stimuli/001815_2014-06-26_20-52-55_260595134347_rgbf000020-resize_0/001815_2014-06-26_20-52-55_260595134347_rgbf000020-resize_0-target.png,125,3.3865,7,5370,109,feet,jsons/VE125_randls_67_rotated.json,1274470,1876402,30,Woman
39,473972,DepthScenes,duration_manipulation_targetAtFixation,jsons/VE125_randls_67_rotated.json,http://54.235.29.9/FacialAge/BNav_EC2/DepthDuration/v2_depth_duration_MTurk/v2_DepthDuration_HTML.html#119,119,1536,1152,1024,768,8-21-2022,6-36-28,40,depth_duration_stimuli/001808_2014-06-26_20-50-58_260595134347_rgbf000029-resize_1/001808_2014-06-26_20-50-58_260595134347_rgbf000029-resize_1-target.png,125,4.249,4,6607,124,feet,jsons/VE125_randls_67_rotated.json,1274470,1876402,30,Woman
40,473972,DepthScenes,duration_manipulation_targetAtFixation,jsons/VE125_randls_67_rotated.json,http://54.235.29.9/FacialAge/BNav_EC2/DepthDuration/v2_depth_duration_MTurk/v2_DepthDuration_HTML.html#119,119,1536,1152,1024,768,8-21-2022,6-36-28,41,depth_duration_stimuli/001235_2014-06-17_16-37-36_260595134347_rgbf000084-resize_4/001235_2014-06-17_16-37-36_260595134347_rgbf000084-resize_4-target.png,125,3.6605,5,16837,127,feet,jsons/VE125_randls_67_rotated.json,1274470,1876402,30,Woman
41,473972,DepthScenes,duration_manipulation_targetAtFixation,jsons/VE125_randls_67_rotated.json,http://54.235.29.9/FacialAge/BNav_EC2/DepthDuration/v2_depth_duration_MTurk/v2_DepthDuration_HTML.html#119,119,1536,1152,1024,768,8-21-2022,6-36-28,42,depth_duration_stimuli/000788_2014-06-08_22-34-36_260595134347_rgbf000131-resize_1/000788_2014-06-08_22-34-36_260595134347_rgbf000131-resize_1-target.png,125,3.359,4,3724,1,feet,jsons/VE125_randls_67_rotated.json,1274470,1876402,30,Woman
42,473972,DepthScenes,duration_manipulation_targetAtFixation,jsons/VE125_randls_67_rotated.json,http://54.235.29.9/FacialAge/BNav_EC2/DepthDuration/v2_depth_duration_MTurk/v2_DepthDuration_HTML.html#119,119,1536,1152,1024,768,8-21-2022,6-36-28,43,depth_duration_stimuli/002568_2014-06-24_13-59-21_094959634447_rgbf000062-resize_4/002568_2014-06-24_13-59-21_094959634447_rgbf000062-resize_4-target.png,125,3.015,7,4494,123,feet,jsons/VE125_randls_67_rotated.json,1274470,1876402,30,Woman
43,473972,DepthScenes,duration_manipulation_targetAtFixation,jsons/VE125_randls_67_rotated.json,http://54.235.29.9/FacialAge/BNav_EC2/DepthDuration/v2_depth_duration_MTurk/v2_DepthDuration_HTML.html#119,119,1536,1152,1024,768,8-21-2022,6-36-28,44,depth_duration_stimuli/003492_2014-05-21_15-50-55_094959634447_rgbf000828-resize_1/003492_2014-05-21_15-50-55_094959634447_rgbf000828-resize_1-target.png,125,4.06875,5,75900,106,feet,jsons/VE125_randls_67_rotated.json,1274470,1876402,30,Woman
44,473972,DepthScenes,duration_manipulation_targetAtFixation,jsons/VE125_randls_67_rotated.json,http://54.235.29.9/FacialAge/BNav_EC2/DepthDuration/v2_depth_duration_MTurk/v2_DepthDuration_HTML.html#119,119,1536,1152,1024,768,8-21-2022,6-36-28,45,depth_duration_stimuli/000457_2014-06-08_16-52-43_260595134347_rgbf000199-resize_1/000457_2014-06-08_16-52-43_260595134347_rgbf000199-resize_1-target.png,125,3.6489999999999996,6,4058,101,feet,jsons/VE125_randls_67_rotated.json,1274470,1876402,30,Woman
45,473972,DepthScenes,duration_manipulation_targetAtFixation,jsons/VE125_randls_67_rotated.json,http://54.235.29.9/FacialAge/BNav_EC2/DepthDuration/v2_depth_duration_MTurk/v2_DepthDuration_HTML.html#119,119,1536,1152,1024,768,8-21-2022,6-36-28,46,depth_duration_stimuli/000929_2014-06-09_16-33-19_260595134347_rgbf000139-resize_0/000929_2014-06-09_16-33-19_260595134347_rgbf000139-resize_0-target.png,125,2.8680000000000003,5,3524,106,feet,jsons/VE125_randls_67_rotated.json,1274470,1876402,30,Woman
46,473972,DepthScenes,duration_manipulation_targetAtFixation,jsons/VE125_randls_67_rotated.json,http://54.235.29.9/FacialAge/BNav_EC2/DepthDuration/v2_depth_duration_MTurk/v2_DepthDuration_HTML.html#119,119,1536,1152,1024,768,8-21-2022,6-36-28,47,depth_duration_stimuli/000556_2014-06-09_22-42-56_260595134347_rgbf000214-resize_1/000556_2014-06-09_22-42-56_260595134347_rgbf000214-resize_1-target.png,125,4.8415,3,5708,120,feet,jsons/VE125_randls_67_rotated.json,1274470,1876402,30,Woman
47,473972,DepthScenes,duration_manipulation_targetAtFixation,jsons/VE125_randls_67_rotated.json,http://54.235.29.9/FacialAge/BNav_EC2/DepthDuration/v2_depth_duration_MTurk/v2_DepthDuration_HTML.html#119,119,1536,1152,1024,768,8-21-2022,6-36-28,48,depth_duration_stimuli/001158_2014-06-17_15-32-16_260595134347_rgbf000138-resize_2/001158_2014-06-17_15-32-16_260595134347_rgbf000138-resize_2-target.png,125,4.5315,4,4545,113,feet,jsons/VE125_randls_67_rotated.json,1274470,1876402,30,Woman
48,473972,DepthScenes,duration_manipulation_targetAtFixation,jsons/VE125_randls_67_rotated.json,http://54.235.29.9/FacialAge/BNav_EC2/DepthDuration/v2_depth_duration_MTurk/v2_DepthDuration_HTML.html#119,119,1536,1152,1024,768,8-21-2022,6-36-28,49,depth_duration_stimuli/001170_2014-06-17_15-43-44_260595134347_rgbf000096-resize_6/001170_2014-06-17_15-43-44_260595134347_rgbf000096-resize-original.jpg,125,1.1909999999999998,5,3909,134,feet,jsons/VE125_randls_67_rotated.json,1274470,1876402,30,Woman
49,473972,DepthScenes,duration_manipulation_targetAtFixation,jsons/VE125_randls_67_rotated.json,http://54.235.29.9/FacialAge/BNav_EC2/DepthDuration/v2_depth_duration_MTurk/v2_DepthDuration_HTML.html#119,119,1536,1152,1024,768,8-21-2022,6-36-28,50,depth_duration_stimuli/000103_2014-05-14_22-01-17_260595134347_rgbf000152-resize_5/000103_2014-05-14_22-01-17_260595134347_rgbf000152-resize_5-target.png,125,1.993,5,3007,125,feet,jsons/VE125_randls_67_rotated.json,1274470,1876402,30,Woman
50,473972,DepthScenes,duration_manipulation_targetAtFixation,jsons/VE125_randls_67_rotated.json,http://54.235.29.9/FacialAge/BNav_EC2/DepthDuration/v2_depth_duration_MTurk/v2_DepthDuration_HTML.html#119,119,1536,1152,1024,768,8-21-2022,6-36-28,51,depth_duration_stimuli/001555_2014-06-20_17-12-10_260595134347_rgbf000065-resize_4/001555_2014-06-20_17-12-10_260595134347_rgbf000065-resize_4-target.png,125,1.633,3,6242,118,feet,jsons/VE125_randls_67_rotated.json,1274470,1876402,30,Woman
51,473972,DepthScenes,duration_manipulation_targetAtFixation,jsons/VE125_randls_67_rotated.json,http://54.235.29.9/FacialAge/BNav_EC2/DepthDuration/v2_depth_duration_MTurk/v2_DepthDuration_HTML.html#119,119,1536,1152,1024,768,8-21-2022,6-36-28,52,depth_duration_stimuli/003083_2014-06-15_15-21-03_094959634447_rgbf000063-resize_1/003083_2014-06-15_15-21-03_094959634447_rgbf000063-resize_1-target.png,125,4.1405,6,5443,118,feet,jsons/VE125_randls_67_rotated.json,1274470,1876402,30,Woman
52,473972,DepthScenes,duration_manipulation_targetAtFixation,jsons/VE125_randls_67_rotated.json,http://54.235.29.9/FacialAge/BNav_EC2/DepthDuration/v2_depth_duration_MTurk/v2_DepthDuration_HTML.html#119,119,1536,1152,1024,768,8-21-2022,6-36-28,53,depth_duration_stimuli/000486_2014-06-09_20-47-20_260595134347_rgbf000143-resize_2/000486_2014-06-09_20-47-20_260595134347_rgbf000143-resize_2-target.png,125,4.8325,5,16786,119,feet,jsons/VE125_randls_67_rotated.json,1274470,1876402,30,Woman
53,473972,DepthScenes,duration_manipulation_targetAtFixation,jsons/VE125_randls_67_rotated.json,http://54.235.29.9/FacialAge/BNav_EC2/DepthDuration/v2_depth_duration_MTurk/v2_DepthDuration_HTML.html#119,119,1536,1152,1024,768,8-21-2022,6-36-28,54,depth_duration_stimuli/000635_2014-06-08_16-38-42_260595134347_rgbf000106-resize_1/000635_2014-06-08_16-38-42_260595134347_rgbf000106-resize_1-target.png,125,2.074,6,4385,116,feet,jsons/VE125_randls_67_rotated.json,1274470,1876402,30,Woman
54,473972,DepthScenes,duration_manipulation_targetAtFixation,jsons/VE125_randls_67_rotated.json,http://54.235.29.9/FacialAge/BNav_EC2/DepthDuration/v2_depth_duration_MTurk/v2_DepthDuration_HTML.html#119,119,1536,1152,1024,768,8-21-2022,6-36-28,55,depth_duration_stimuli/002279_2014-06-28_18-55-32_260595134347_rgbf000040-resize_5/002279_2014-06-28_18-55-32_260595134347_rgbf000040-resize_5-target.png,125,1.5043333333333,5,54597,114,feet,jsons/VE125_randls_67_rotated.json,1274470,1876402,30,Woman
55,473972,DepthScenes,duration_manipulation_targetAtFixation,jsons/VE125_randls_67_rotated.json,http://54.235.29.9/FacialAge/BNav_EC2/DepthDuration/v2_depth_duration_MTurk/v2_DepthDuration_HTML.html#119,119,1536,1152,1024,768,8-21-2022,6-36-28,56,depth_duration_stimuli/002875_2014-06-01_15-19-00_094959634447_rgbf000151-resize_1/002875_2014-06-01_15-19-00_094959634447_rgbf000151-resize_1-target.png,125,1.9675,5,5131,237,feet,jsons/VE125_randls_67_rotated.json,1274470,1876402,30,Woman
56,473972,DepthScenes,duration_manipulation_targetAtFixation,jsons/VE125_randls_67_rotated.json,http://54.235.29.9/FacialAge/BNav_EC2/DepthDuration/v2_depth_duration_MTurk/v2_DepthDuration_HTML.html#119,119,1536,1152,1024,768,8-21-2022,6-36-28,57,depth_duration_stimuli/001011_2014-06-08_23-18-54_260595134347_rgbf000044-resize_4/001011_2014-06-08_23-18-54_260595134347_rgbf000044-resize_4-target.png,125,2.4730000000000003,6,3528,117,feet,jsons/VE125_randls_67_rotated.json,1274470,1876402,30,Woman
57,473972,DepthScenes,duration_manipulation_targetAtFixation,jsons/VE125_randls_67_rotated.json,http://54.235.29.9/FacialAge/BNav_EC2/DepthDuration/v2_depth_duration_MTurk/v2_DepthDuration_HTML.html#119,119,1536,1152,1024,768,8-21-2022,6-36-28,58,depth_duration_stimuli/002750_2014-06-22_19-08-03_094959634447_rgbf000094-resize_4/002750_2014-06-22_19-08-03_094959634447_rgbf000094-resize_4-target.png,125,2.354,5,2604,119,feet,jsons/VE125_randls_67_rotated.json,1274470,1876402,30,Woman
58,473972,DepthScenes,duration_manipulation_targetAtFixation,jsons/VE125_randls_67_rotated.json,http://54.235.29.9/FacialAge/BNav_EC2/DepthDuration/v2_depth_duration_MTurk/v2_DepthDuration_HTML.html#119,119,1536,1152,1024,768,8-21-2022,6-36-28,59,depth_duration_stimuli/002549_2014-06-24_13-41-39_094959634447_rgbf000022-resize_3/002549_2014-06-24_13-41-39_094959634447_rgbf000022-resize_3-target.png,125,1.476,3,2631,169,feet,jsons/VE125_randls_67_rotated.json,1274470,1876402,30,Woman
59,473972,DepthScenes,duration_manipulation_targetAtFixation,jsons/VE125_randls_67_rotated.json,http://54.235.29.9/FacialAge/BNav_EC2/DepthDuration/v2_depth_duration_MTurk/v2_DepthDuration_HTML.html#119,119,1536,1152,1024,768,8-21-2022,6-36-28,60,depth_duration_stimuli/003423_2014-05-21_10-23-26_094959634447_rgbf002665-resize_2/003423_2014-05-21_10-23-26_094959634447_rgbf002665-resize_2-target.png,125,3.2575,6,3259,109,feet,jsons/VE125_randls_67_rotated.json,1274470,1876402,30,Woman
60,473972,DepthScenes,duration_manipulation_targetAtFixation,jsons/VE125_randls_67_rotated.json,http://54.235.29.9/FacialAge/BNav_EC2/DepthDuration/v2_depth_duration_MTurk/v2_DepthDuration_HTML.html#119,119,1536,1152,1024,768,8-21-2022,6-36-28,61,depth_duration_stimuli/002905_2014-06-03_18-04-43_094959634447_rgbf000151-resize_2/002905_2014-06-03_18-04-43_094959634447_rgbf000151-resize_2-target.png,125,2.0295,4,3316,60,feet,jsons/VE125_randls_67_rotated.json,1274470,1876402,30,Woman
61,473972,DepthScenes,duration_manipulation_targetAtFixation,jsons/VE125_randls_67_rotated.json,http://54.235.29.9/FacialAge/BNav_EC2/DepthDuration/v2_depth_duration_MTurk/v2_DepthDuration_HTML.html#119,119,1536,1152,1024,768,8-21-2022,6-36-28,62,depth_duration_stimuli/002425_2014-06-28_20-27-29_260595134347_rgbf000031-resize_8/002425_2014-06-28_20-27-29_260595134347_rgbf000031-resize_8-target.png,125,3.8960000000000004,6,97589,124,feet,jsons/VE125_randls_67_rotated.json,1274470,1876402,30,Woman
62,473972,DepthScenes,duration_manipulation_targetAtFixation,jsons/VE125_randls_67_rotated.json,http://54.235.29.9/FacialAge/BNav_EC2/DepthDuration/v2_depth_duration_MTurk/v2_DepthDuration_HTML.html#119,119,1536,1152,1024,768,8-21-2022,6-36-28,63,depth_duration_stimuli/000642_2014-06-08_16-59-25_260595134347_rgbf000098-resize_2/000642_2014-06-08_16-59-25_260595134347_rgbf000098-resize_2-target.png,125,2.8815,5,3515,114,feet,jsons/VE125_randls_67_rotated.json,1274470,1876402,30,Woman
63,473972,DepthScenes,duration_manipulation_targetAtFixation,jsons/VE125_randls_67_rotated.json,http://54.235.29.9/FacialAge/BNav_EC2/DepthDuration/v2_depth_duration_MTurk/v2_DepthDuration_HTML.html#119,119,1536,1152,1024,768,8-21-2022,6-36-28,64,depth_duration_stimuli/001571_2014-06-20_17-21-32_260595134347_rgbf000089-resize_1/001571_2014-06-20_17-21-32_260595134347_rgbf000089-resize_1-target.png,125,1.86,3,3067,97,feet,jsons/VE125_randls_67_rotated.json,1274470,1876402,30,Woman
64,473972,DepthScenes,duration_manipulation_targetAtFixation,jsons/VE125_randls_67_rotated.json,http://54.235.29.9/FacialAge/BNav_EC2/DepthDuration/v2_depth_duration_MTurk/v2_DepthDuration_HTML.html#119,119,1536,1152,1024,768,8-21-2022,6-36-28,65,depth_duration_stimuli/002272_2014-06-28_18-53-56_260595134347_rgbf000067-resize_2/002272_2014-06-28_18-53-56_260595134347_rgbf000067-resize_2-target.png,125,1.138,4,2956,113,feet,jsons/VE125_randls_67_rotated.json,1274470,1876402,30,Woman
65,473972,DepthScenes,duration_manipulation_targetAtFixation,jsons/VE125_randls_67_rotated.json,http://54.235.29.9/FacialAge/BNav_EC2/DepthDuration/v2_depth_duration_MTurk/v2_DepthDuration_HTML.html#119,119,1536,1152,1024,768,8-21-2022,6-36-28,66,depth_duration_stimuli/001540_2014-06-20_17-01-05_260595134347_rgbf000086-resize_2/001540_2014-06-20_17-01-05_260595134347_rgbf000086-resize-original.jpg,125,1.459,6,3648,109,feet,jsons/VE125_randls_67_rotated.json,1274470,1876402,30,Woman
66,473972,DepthScenes,duration_manipulation_targetAtFixation,jsons/VE125_randls_67_rotated.json,http://54.235.29.9/FacialAge/BNav_EC2/DepthDuration/v2_depth_duration_MTurk/v2_DepthDuration_HTML.html#119,119,1536,1152,1024,768,8-21-2022,6-36-28,67,depth_duration_stimuli/002949_2014-06-26_15-57-42_094959634447_rgbf000079-resize_1/002949_2014-06-26_15-57-42_094959634447_rgbf000079-resize_1-target.png,125,1.8915,5,3314,124,feet,jsons/VE125_randls_67_rotated.json,1274470,1876402,30,Woman
67,473972,DepthScenes,duration_manipulation_targetAtFixation,jsons/VE125_randls_67_rotated.json,http://54.235.29.9/FacialAge/BNav_EC2/DepthDuration/v2_depth_duration_MTurk/v2_DepthDuration_HTML.html#119,119,1536,1152,1024,768,8-21-2022,6-36-28,68,depth_duration_stimuli/000522_2014-06-08_13-35-06_260595134347_rgbf000244-resize_1/000522_2014-06-08_13-35-06_260595134347_rgbf000244-resize_1-target.png,125,2.3715,3,4253,139,feet,jsons/VE125_randls_67_rotated.json,1274470,1876402,30,Woman
68,473972,DepthScenes,duration_manipulation_targetAtFixation,jsons/VE125_randls_67_rotated.json,http://54.235.29.9/FacialAge/BNav_EC2/DepthDuration/v2_depth_duration_MTurk/v2_DepthDuration_HTML.html#119,119,1536,1152,1024,768,8-21-2022,6-36-28,69,depth_duration_stimuli/002444_2014-06-28_20-32-08_260595134347_rgbf000027-resize_0/002444_2014-06-28_20-32-08_260595134347_rgbf000027-resize_0-target.png,125,4.388999999999999,5,3427,109,feet,jsons/VE125_randls_67_rotated.json,1274470,1876402,30,Woman
69,473972,DepthScenes,duration_manipulation_targetAtFixation,jsons/VE125_randls_67_rotated.json,http://54.235.29.9/FacialAge/BNav_EC2/DepthDuration/v2_depth_duration_MTurk/v2_DepthDuration_HTML.html#119,119,1536,1152,1024,768,8-21-2022,6-36-28,70,depth_duration_stimuli/000436_2014-06-09_22-25-11_260595134347_rgbf000137-resize_1/000436_2014-06-09_22-25-11_260595134347_rgbf000137-resize_1-target.png,125,4.0705,5,3356,123,feet,jsons/VE125_randls_67_rotated.json,1274470,1876402,30,Woman
70,473972,DepthScenes,duration_manipulation_targetAtFixation,jsons/VE125_randls_67_rotated.json,http://54.235.29.9/FacialAge/BNav_EC2/DepthDuration/v2_depth_duration_MTurk/v2_DepthDuration_HTML.html#119,119,1536,1152,1024,768,8-21-2022,6-36-28,71,depth_duration_stimuli/002953_2014-06-08_17-32-18_094959634447_rgbf000059-resize_5/002953_2014-06-08_17-32-18_094959634447_rgbf000059-resize_5-target.png,125,1.551,2,3608,135,feet,jsons/VE125_randls_67_rotated.json,1274470,1876402,30,Woman
71,473972,DepthScenes,duration_manipulation_targetAtFixation,jsons/VE125_randls_67_rotated.json,http://54.235.29.9/FacialAge/BNav_EC2/DepthDuration/v2_depth_duration_MTurk/v2_DepthDuration_HTML.html#119,119,1536,1152,1024,768,8-21-2022,6-36-28,72,depth_duration_stimuli/000878_2014-06-08_22-52-45_260595134347_rgbf000045-resize_2/000878_2014-06-08_22-52-45_260595134347_rgbf000045-resize_2-target.png,125,2.092,5,2793,137,feet,jsons/VE125_randls_67_rotated.json,1274470,1876402,30,Woman
72,473972,DepthScenes,duration_manipulation_targetAtFixation,jsons/VE125_randls_67_rotated.json,http://54.235.29.9/FacialAge/BNav_EC2/DepthDuration/v2_depth_duration_MTurk/v2_DepthDuration_HTML.html#119,119,1536,1152,1024,768,8-21-2022,6-36-28,73,depth_duration_stimuli/000691_2014-06-08_13-08-50_260595134347_rgbf000132-resize_3/000691_2014-06-08_13-08-50_260595134347_rgbf000132-resize_3-target.png,125,4.1530000000000005,7,3384,270,feet,jsons/VE125_randls_67_rotated.json,1274470,1876402,30,Woman
73,473972,DepthScenes,duration_manipulation_targetAtFixation,jsons/VE125_randls_67_rotated.json,http://54.235.29.9/FacialAge/BNav_EC2/DepthDuration/v2_depth_duration_MTurk/v2_DepthDuration_HTML.html#119,119,1536,1152,1024,768,8-21-2022,6-36-28,74,depth_duration_stimuli/002213_2014-06-28_18-37-58_260595134347_rgbf000055-resize_1/002213_2014-06-28_18-37-58_260595134347_rgbf000055-resize_1-target.png,125,3.62,3,6406,112,feet,jsons/VE125_randls_67_rotated.json,1274470,1876402,30,Woman
74,473972,DepthScenes,duration_manipulation_targetAtFixation,jsons/VE125_randls_67_rotated.json,http://54.235.29.9/FacialAge/BNav_EC2/DepthDuration/v2_depth_duration_MTurk/v2_DepthDuration_HTML.html#119,119,1536,1152,1024,768,8-21-2022,6-36-28,75,depth_duration_stimuli/003338_2014-05-20_11-01-23_094959634447_rgbf000051-resize_6/003338_2014-05-20_11-01-23_094959634447_rgbf000051-resize_6-target.png,125,1.693,2,2772,117,feet,jsons/VE125_randls_67_rotated.json,1274470,1876402,30,Woman
75,473972,DepthScenes,duration_manipulation_targetAtFixation,jsons/VE125_randls_67_rotated.json,http://54.235.29.9/FacialAge/BNav_EC2/DepthDuration/v2_depth_duration_MTurk/v2_DepthDuration_HTML.html#119,119,1536,1152,1024,768,8-21-2022,6-36-28,76,depth_duration_stimuli/002509_2014-06-24_13-19-22_094959634447_rgbf000077-resize_0/002509_2014-06-24_13-19-22_094959634447_rgbf000077-resize_0-target.png,125,1.3065,4,6657,108,feet,jsons/VE125_randls_67_rotated.json,1274470,1876402,30,Woman
76,473972,DepthScenes,duration_manipulation_targetAtFixation,jsons/VE125_randls_67_rotated.json,http://54.235.29.9/FacialAge/BNav_EC2/DepthDuration/v2_depth_duration_MTurk/v2_DepthDuration_HTML.html#119,119,1536,1152,1024,768,8-21-2022,6-36-28,77,depth_duration_stimuli/001617_2014-06-20_11-35-32_260595134347_rgbf000066-resize_1/001617_2014-06-20_11-35-32_260595134347_rgbf000066-resize_1-target.png,125,3.7910000000000004,5,4623,113,feet,jsons/VE125_randls_67_rotated.json,1274470,1876402,30,Woman
77,473972,DepthScenes,duration_manipulation_targetAtFixation,jsons/VE125_randls_67_rotated.json,http://54.235.29.9/FacialAge/BNav_EC2/DepthDuration/v2_depth_duration_MTurk/v2_DepthDuration_HTML.html#119,119,1536,1152,1024,768,8-21-2022,6-36-28,78,depth_duration_stimuli/001806_2014-06-26_20-50-20_260595134347_rgbf000091-resize_1/001806_2014-06-26_20-50-20_260595134347_rgbf000091-resize_1-target.png,125,2.7305,6,3279,119,feet,jsons/VE125_randls_67_rotated.json,1274470,1876402,30,Woman
78,473972,DepthScenes,duration_manipulation_targetAtFixation,jsons/VE125_randls_67_rotated.json,http://54.235.29.9/FacialAge/BNav_EC2/DepthDuration/v2_depth_duration_MTurk/v2_DepthDuration_HTML.html#119,119,1536,1152,1024,768,8-21-2022,6-36-28,79,depth_duration_stimuli/000665_2014-06-09_20-42-35_260595134347_rgbf000110-resize_1/000665_2014-06-09_20-42-35_260595134347_rgbf000110-resize_1-target.png,125,3.057,6,7209,122,feet,jsons/VE125_randls_67_rotated.json,1274470,1876402,30,Woman
79,473972,DepthScenes,duration_manipulation_targetAtFixation,jsons/VE125_randls_67_rotated.json,http://54.235.29.9/FacialAge/BNav_EC2/DepthDuration/v2_depth_duration_MTurk/v2_DepthDuration_HTML.html#119,119,1536,1152,1024,768,8-21-2022,6-36-28,80,depth_duration_stimuli/001150_2014-06-17_15-27-34_260595134347_rgbf000108-resize_2/001150_2014-06-17_15-27-34_260595134347_rgbf000108-resize_2-target.png,125,4.0325,8,6113,115,feet,jsons/VE125_randls_67_rotated.json,1274470,1876402,30,Woman
80,473972,DepthScenes,duration_manipulation_targetAtFixation,jsons/VE125_randls_67_rotated.json,http://54.235.29.9/FacialAge/BNav_EC2/DepthDuration/v2_depth_duration_MTurk/v2_DepthDuration_HTML.html#119,119,1536,1152,1024,768,8-21-2022,6-36-28,81,depth_duration_stimuli/001214_2014-06-17_16-13-55_260595134347_rgbf000111-resize_0/001214_2014-06-17_16-13-55_260595134347_rgbf000111-resize_0-target.png,125,2.6505,2,3261,111,feet,jsons/VE125_randls_67_rotated.json,1274470,1876402,30,Woman
81,473972,DepthScenes,duration_manipulation_targetAtFixation,jsons/VE125_randls_67_rotated.json,http://54.235.29.9/FacialAge/BNav_EC2/DepthDuration/v2_depth_duration_MTurk/v2_DepthDuration_HTML.html#119,119,1536,1152,1024,768,8-21-2022,6-36-28,82,depth_duration_stimuli/000810_2014-06-08_17-20-01_260595134347_rgbf000105-resize_0/000810_2014-06-08_17-20-01_260595134347_rgbf000105-resize_0-target.png,125,1.4865,4,3464,124,feet,jsons/VE125_randls_67_rotated.json,1274470,1876402,30,Woman
82,473972,DepthScenes,duration_manipulation_targetAtFixation,jsons/VE125_randls_67_rotated.json,http://54.235.29.9/FacialAge/BNav_EC2/DepthDuration/v2_depth_duration_MTurk/v2_DepthDuration_HTML.html#119,119,1536,1152,1024,768,8-21-2022,6-36-28,83,depth_duration_stimuli/000749_2014-06-08_21-55-06_260595134347_rgbf000070-resize_2/000749_2014-06-08_21-55-06_260595134347_rgbf000070-resize_2-target.png,125,2.331,5,3533,129,feet,jsons/VE125_randls_67_rotated.json,1274470,1876402,30,Woman
83,473972,DepthScenes,duration_manipulation_targetAtFixation,jsons/VE125_randls_67_rotated.json,http://54.235.29.9/FacialAge/BNav_EC2/DepthDuration/v2_depth_duration_MTurk/v2_DepthDuration_HTML.html#119,119,1536,1152,1024,768,8-21-2022,6-36-28,84,depth_duration_stimuli/002788_2014-06-22_19-36-03_094959634447_rgbf000088-resize_2/002788_2014-06-22_19-36-03_094959634447_rgbf000088-resize_2-target.png,125,1.6465,5,3150,175,feet,jsons/VE125_randls_67_rotated.json,1274470,1876402,30,Woman
84,473972,DepthScenes,duration_manipulation_targetAtFixation,jsons/VE125_randls_67_rotated.json,http://54.235.29.9/FacialAge/BNav_EC2/DepthDuration/v2_depth_duration_MTurk/v2_DepthDuration_HTML.html#119,119,1536,1152,1024,768,8-21-2022,6-36-28,85,depth_duration_stimuli/000780_2014-06-08_22-28-29_260595134347_rgbf000126-resize_1/000780_2014-06-08_22-28-29_260595134347_rgbf000126-resize_1-target.png,125,3.3825,3,3417,125,feet,jsons/VE125_randls_67_rotated.json,1274470,1876402,30,Woman
85,473972,DepthScenes,duration_manipulation_targetAtFixation,jsons/VE125_randls_67_rotated.json,http://54.235.29.9/FacialAge/BNav_EC2/DepthDuration/v2_depth_duration_MTurk/v2_DepthDuration_HTML.html#119,119,1536,1152,1024,768,8-21-2022,6-36-28,86,depth_duration_stimuli/002445_2014-06-28_20-32-16_260595134347_rgbf000029-resize_4/002445_2014-06-28_20-32-16_260595134347_rgbf000029-resize_4-target.png,125,2.5315,2,3280,111,feet,jsons/VE125_randls_67_rotated.json,1274470,1876402,30,Woman
86,473972,DepthScenes,duration_manipulation_targetAtFixation,jsons/VE125_randls_67_rotated.json,http://54.235.29.9/FacialAge/BNav_EC2/DepthDuration/v2_depth_duration_MTurk/v2_DepthDuration_HTML.html#119,119,1536,1152,1024,768,8-21-2022,6-36-28,87,depth_duration_stimuli/001450_2014-06-19_17-02-03_260595134347_rgbf000203-resize_4/001450_2014-06-19_17-02-03_260595134347_rgbf000203-resize_4-target.png,125,4.0106666666667,6,3287,142,feet,jsons/VE125_randls_67_rotated.json,1274470,1876402,30,Woman
87,473972,DepthScenes,duration_manipulation_targetAtFixation,jsons/VE125_randls_67_rotated.json,http://54.235.29.9/FacialAge/BNav_EC2/DepthDuration/v2_depth_duration_MTurk/v2_DepthDuration_HTML.html#119,119,1536,1152,1024,768,8-21-2022,6-36-28,88,depth_duration_stimuli/001449_2014-06-19_17-01-27_260595134347_rgbf000116-resize_2/001449_2014-06-19_17-01-27_260595134347_rgbf000116-resize_2-target.png,125,3.452,5,5337,115,feet,jsons/VE125_randls_67_rotated.json,1274470,1876402,30,Woman
88,473972,DepthScenes,duration_manipulation_targetAtFixation,jsons/VE125_randls_67_rotated.json,http://54.235.29.9/FacialAge/BNav_EC2/DepthDuration/v2_depth_duration_MTurk/v2_DepthDuration_HTML.html#119,119,1536,1152,1024,768,8-21-2022,6-36-28,89,depth_duration_stimuli/002758_2014-06-22_19-11-20_094959634447_rgbf000128-resize_1/002758_2014-06-22_19-11-20_094959634447_rgbf000128-resize_1-target.png,125,2.555,4,4399,286,feet,jsons/VE125_randls_67_rotated.json,1274470,1876402,30,Woman
89,473972,DepthScenes,duration_manipulation_targetAtFixation,jsons/VE125_randls_67_rotated.json,http://54.235.29.9/FacialAge/BNav_EC2/DepthDuration/v2_depth_duration_MTurk/v2_DepthDuration_HTML.html#119,119,1536,1152,1024,768,8-21-2022,6-36-28,90,depth_duration_stimuli/002630_2014-06-24_14-47-50_094959634447_rgbf000055-resize_1/002630_2014-06-24_14-47-50_094959634447_rgbf000055-resize_1-target.png,125,3.0095,6,3275,197,feet,jsons/VE125_randls_67_rotated.json,1274470,1876402,30,Woman
90,473972,DepthScenes,duration_manipulation_targetAtFixation,jsons/VE125_randls_67_rotated.json,http://54.235.29.9/FacialAge/BNav_EC2/DepthDuration/v2_depth_duration_MTurk/v2_DepthDuration_HTML.html#119,119,1536,1152,1024,768,8-21-2022,6-36-28,91,depth_duration_stimuli/002545_2014-06-24_13-38-53_094959634447_rgbf000080-resize_4/002545_2014-06-24_13-38-53_094959634447_rgbf000080-resize_4-target.png,125,1.9205,3,6522,122,feet,jsons/VE125_randls_67_rotated.json,1274470,1876402,30,Woman
91,473972,DepthScenes,duration_manipulation_targetAtFixation,jsons/VE125_randls_67_rotated.json,http://54.235.29.9/FacialAge/BNav_EC2/DepthDuration/v2_depth_duration_MTurk/v2_DepthDuration_HTML.html#119,119,1536,1152,1024,768,8-21-2022,6-36-28,92,depth_duration_stimuli/001092_2014-06-15_17-34-58_260595134347_rgbf000171-resize_3/001092_2014-06-15_17-34-58_260595134347_rgbf000171-resize_3-target.png,125,2.6935,2,5289,123,feet,jsons/VE125_randls_67_rotated.json,1274470,1876402,30,Woman
92,473972,DepthScenes,duration_manipulation_targetAtFixation,jsons/VE125_randls_67_rotated.json,http://54.235.29.9/FacialAge/BNav_EC2/DepthDuration/v2_depth_duration_MTurk/v2_DepthDuration_HTML.html#119,119,1536,1152,1024,768,8-21-2022,6-36-28,93,depth_duration_stimuli/001392_2014-06-19_16-07-59_260595134347_rgbf000046-resize_1/001392_2014-06-19_16-07-59_260595134347_rgbf000046-resize_1-target.png,125,4.135,6,4233,110,feet,jsons/VE125_randls_67_rotated.json,1274470,1876402,30,Woman
93,473972,DepthScenes,duration_manipulation_targetAtFixation,jsons/VE125_randls_67_rotated.json,http://54.235.29.9/FacialAge/BNav_EC2/DepthDuration/v2_depth_duration_MTurk/v2_DepthDuration_HTML.html#119,119,1536,1152,1024,768,8-21-2022,6-36-28,94,depth_duration_stimuli/001570_2014-06-20_17-21-09_260595134347_rgbf000135-resize_4/001570_2014-06-20_17-21-09_260595134347_rgbf000135-resize_4-target.png,125,4.467,4,3058,123,feet,jsons/VE125_randls_67_rotated.json,1274470,1876402,30,Woman
94,473972,DepthScenes,duration_manipulation_targetAtFixation,jsons/VE125_randls_67_rotated.json,http://54.235.29.9/FacialAge/BNav_EC2/DepthDuration/v2_depth_duration_MTurk/v2_DepthDuration_HTML.html#119,119,1536,1152,1024,768,8-21-2022,6-36-28,95,depth_duration_stimuli/003490_2014-05-21_15-50-11_094959634447_rgbf000101-resize_3/003490_2014-05-21_15-50-11_094959634447_rgbf000101-resize_3-target.png,125,3.6445,5,2930,0,feet,jsons/VE125_randls_67_rotated.json,1274470,1876402,30,Woman
95,473972,DepthScenes,duration_manipulation_targetAtFixation,jsons/VE125_randls_67_rotated.json,http://54.235.29.9/FacialAge/BNav_EC2/DepthDuration/v2_depth_duration_MTurk/v2_DepthDuration_HTML.html#119,119,1536,1152,1024,768,8-21-2022,6-36-28,96,depth_duration_stimuli/001175_2014-06-17_15-45-55_260595134347_rgbf000129-resize_4/001175_2014-06-17_15-45-55_260595134347_rgbf000129-resize_4-target.png,125,4.255,4,4490,0,feet,jsons/VE125_randls_67_rotated.json,1274470,1876402,30,Woman
96,473972,DepthScenes,duration_manipulation_targetAtFixation,jsons/VE125_randls_67_rotated.json,http://54.235.29.9/FacialAge/BNav_EC2/DepthDuration/v2_depth_duration_MTurk/v2_DepthDuration_HTML.html#119,119,1536,1152,1024,768,8-21-2022,6-36-28,97,depth_duration_stimuli/002637_2014-06-24_14-51-13_094959634447_rgbf000066-resize_4/002637_2014-06-24_14-51-13_094959634447_rgbf000066-resize_4-target.png,125,1.9955,6,3162,116,feet,jsons/VE125_randls_67_rotated.json,1274470,1876402,30,Woman
97,473972,DepthScenes,duration_manipulation_targetAtFixation,jsons/VE125_randls_67_rotated.json,http://54.235.29.9/FacialAge/BNav_EC2/DepthDuration/v2_depth_duration_MTurk/v2_DepthDuration_HTML.html#119,119,1536,1152,1024,768,8-21-2022,6-36-28,98,depth_duration_stimuli/003534_2014-05-22_15-06-10_094959634447_rgbf000102-resize_4/003534_2014-05-22_15-06-10_094959634447_rgbf000102-resize_4-target.png,125,1.426,5,2512,111,feet,jsons/VE125_randls_67_rotated.json,1274470,1876402,30,Woman
98,473972,DepthScenes,duration_manipulation_targetAtFixation,jsons/VE125_randls_67_rotated.json,http://54.235.29.9/FacialAge/BNav_EC2/DepthDuration/v2_depth_duration_MTurk/v2_DepthDuration_HTML.html#119,119,1536,1152,1024,768,8-21-2022,6-36-28,99,depth_duration_stimuli/001222_2014-06-17_16-24-06_260595134347_rgbf000073-resize_0/001222_2014-06-17_16-24-06_260595134347_rgbf000073-resize-original.jpg,125,1.4385,4,5477,109,feet,jsons/VE125_randls_67_rotated.json,1274470,1876402,30,Woman
99,473972,DepthScenes,duration_manipulation_targetAtFixation,jsons/VE125_randls_67_rotated.json,http://54.235.29.9/FacialAge/BNav_EC2/DepthDuration/v2_depth_duration_MTurk/v2_DepthDuration_HTML.html#119,119,1536,1152,1024,768,8-21-2022,6-36-28,100,depth_duration_stimuli/000734_2014-06-08_17-39-11_260595134347_rgbf000128-resize_2/000734_2014-06-08_17-39-11_260595134347_rgbf000128-resize_2-target.png,125,4.098,5,19196,206,feet,jsons/VE125_randls_67_rotated.json,1274470,1876402,30,Woman
100,473972,DepthScenes,duration_manipulation_targetAtFixation,jsons/VE125_randls_67_rotated.json,http://54.235.29.9/FacialAge/BNav_EC2/DepthDuration/v2_depth_duration_MTurk/v2_DepthDuration_HTML.html#119,119,1536,1152,1024,768,8-21-2022,6-36-28,101,depth_duration_stimuli/000739_2014-06-08_18-45-58_260595134347_rgbf000068-resize_1/000739_2014-06-08_18-45-58_260595134347_rgbf000068-resize_1-target.png,125,3.534,4,3161,118,feet,jsons/VE125_randls_67_rotated.json,1274470,1876402,30,Woman
101,473972,DepthScenes,duration_manipulation_targetAtFixation,jsons/VE125_randls_67_rotated.json,http://54.235.29.9/FacialAge/BNav_EC2/DepthDuration/v2_depth_duration_MTurk/v2_DepthDuration_HTML.html#119,119,1536,1152,1024,768,8-21-2022,6-36-28,102,depth_duration_stimuli/001094_2014-06-15_17-36-00_260595134347_rgbf000205-resize_0/001094_2014-06-15_17-36-00_260595134347_rgbf000205-resize_0-target.png,125,4.2175,6,4305,137,feet,jsons/VE125_randls_67_rotated.json,1274470,1876402,30,Woman
102,473972,DepthScenes,duration_manipulation_targetAtFixation,jsons/VE125_randls_67_rotated.json,http://54.235.29.9/FacialAge/BNav_EC2/DepthDuration/v2_depth_duration_MTurk/v2_DepthDuration_HTML.html#119,119,1536,1152,1024,768,8-21-2022,6-36-28,103,depth_duration_stimuli/000692_2014-06-08_13-09-42_260595134347_rgbf000199-resize_2/000692_2014-06-08_13-09-42_260595134347_rgbf000199-resize_2-target.png,125,3.661,7,3502,192,feet,jsons/VE125_randls_67_rotated.json,1274470,1876402,30,Woman
103,473972,DepthScenes,duration_manipulation_targetAtFixation,jsons/VE125_randls_67_rotated.json,http://54.235.29.9/FacialAge/BNav_EC2/DepthDuration/v2_depth_duration_MTurk/v2_DepthDuration_HTML.html#119,119,1536,1152,1024,768,8-21-2022,6-36-28,104,depth_duration_stimuli/002323_2014-06-28_20-01-54_260595134347_rgbf000051-resize_4/002323_2014-06-28_20-01-54_260595134347_rgbf000051-resize_4-target.png,125,3.7310000000000003,5,5147,286,feet,jsons/VE125_randls_67_rotated.json,1274470,1876402,30,Woman
104,473972,DepthScenes,duration_manipulation_targetAtFixation,jsons/VE125_randls_67_rotated.json,http://54.235.29.9/FacialAge/BNav_EC2/DepthDuration/v2_depth_duration_MTurk/v2_DepthDuration_HTML.html#119,119,1536,1152,1024,768,8-21-2022,6-36-28,105,depth_duration_stimuli/000917_2014-06-09_22-45-29_260595134347_rgbf000149-resize_3/000917_2014-06-09_22-45-29_260595134347_rgbf000149-resize_3-target.png,125,4.1865,6,3365,113,feet,jsons/VE125_randls_67_rotated.json,1274470,1876402,30,Woman
105,473972,DepthScenes,duration_manipulation_targetAtFixation,jsons/VE125_randls_67_rotated.json,http://54.235.29.9/FacialAge/BNav_EC2/DepthDuration/v2_depth_duration_MTurk/v2_DepthDuration_HTML.html#119,119,1536,1152,1024,768,8-21-2022,6-36-28,106,depth_duration_stimuli/002678_2014-06-13_16-15-32_094959634447_rgbf000151-resize_6/002678_2014-06-13_16-15-32_094959634447_rgbf000151-resize_6-target.png,125,2.1830000000000003,5,3996,115,feet,jsons/VE125_randls_67_rotated.json,1274470,1876402,30,Woman
106,473972,DepthScenes,duration_manipulation_targetAtFixation,jsons/VE125_randls_67_rotated.json,http://54.235.29.9/FacialAge/BNav_EC2/DepthDuration/v2_depth_duration_MTurk/v2_DepthDuration_HTML.html#119,119,1536,1152,1024,768,8-21-2022,6-36-28,107,depth_duration_stimuli/000368_2014-06-09_15-53-01_260595134347_rgbf000155-resize_2/000368_2014-06-09_15-53-01_260595134347_rgbf000155-resize_2-target.png,125,2.4859999999999998,4,2932,126,feet,jsons/VE125_randls_67_rotated.json,1274470,1876402,30,Woman
107,473972,DepthScenes,duration_manipulation_targetAtFixation,jsons/VE125_randls_67_rotated.json,http://54.235.29.9/FacialAge/BNav_EC2/DepthDuration/v2_depth_duration_MTurk/v2_DepthDuration_HTML.html#119,119,1536,1152,1024,768,8-21-2022,6-36-28,108,depth_duration_stimuli/001032_2014-06-08_13-23-17_260595134347_rgbf000021-resize_3/001032_2014-06-08_13-23-17_260595134347_rgbf000021-resize_3-target.png,125,3.2725,3,2639,111,feet,jsons/VE125_randls_67_rotated.json,1274470,1876402,30,Woman
108,473972,DepthScenes,duration_manipulation_targetAtFixation,jsons/VE125_randls_67_rotated.json,http://54.235.29.9/FacialAge/BNav_EC2/DepthDuration/v2_depth_duration_MTurk/v2_DepthDuration_HTML.html#119,119,1536,1152,1024,768,8-21-2022,6-36-28,109,depth_duration_stimuli/001059_2014-06-08_21-53-27_260595134347_rgbf000061-resize_4/001059_2014-06-08_21-53-27_260595134347_rgbf000061-resize_4-target.png,125,2.4185,3,2863,133,feet,jsons/VE125_randls_67_rotated.json,1274470,1876402,30,Woman
109,473972,DepthScenes,duration_manipulation_targetAtFixation,jsons/VE125_randls_67_rotated.json,http://54.235.29.9/FacialAge/BNav_EC2/DepthDuration/v2_depth_duration_MTurk/v2_DepthDuration_HTML.html#119,119,1536,1152,1024,768,8-21-2022,6-36-28,110,depth_duration_stimuli/003228_2014-05-14_13-42-35_094959634447_rgbf000101-resize_1/003228_2014-05-14_13-42-35_094959634447_rgbf000101-resize_1-target.png,125,1.9680000000000002,2,2862,109,feet,jsons/VE125_randls_67_rotated.json,1274470,1876402,30,Woman
110,473972,DepthScenes,duration_manipulation_targetAtFixation,jsons/VE125_randls_67_rotated.json,http://54.235.29.9/FacialAge/BNav_EC2/DepthDuration/v2_depth_duration_MTurk/v2_DepthDuration_HTML.html#119,119,1536,1152,1024,768,8-21-2022,6-36-28,111,depth_duration_stimuli/002600_2014-06-24_14-27-04_094959634447_rgbf000074-resize_2/002600_2014-06-24_14-27-04_094959634447_rgbf000074-resize_2-target.png,125,2.7575,1,2724,120,feet,jsons/VE125_randls_67_rotated.json,1274470,1876402,30,Woman
111,473972,DepthScenes,duration_manipulation_targetAtFixation,jsons/VE125_randls_67_rotated.json,http://54.235.29.9/FacialAge/BNav_EC2/DepthDuration/v2_depth_duration_MTurk/v2_DepthDuration_HTML.html#119,119,1536,1152,1024,768,8-21-2022,6-36-28,112,depth_duration_stimuli/000943_2014-06-09_19-31-07_260595134347_rgbf000128-resize_1/000943_2014-06-09_19-31-07_260595134347_rgbf000128-resize_1-target.png,125,1.9765,3,3876,126,feet,jsons/VE125_randls_67_rotated.json,1274470,1876402,30,Woman
112,473972,DepthScenes,duration_manipulation_targetAtFixation,jsons/VE125_randls_67_rotated.json,http://54.235.29.9/FacialAge/BNav_EC2/DepthDuration/v2_depth_duration_MTurk/v2_DepthDuration_HTML.html#119,119,1536,1152,1024,768,8-21-2022,6-36-28,113,depth_duration_stimuli/003070_2014-06-15_14-58-27_094959634447_rgbf000150-resize_3/003070_2014-06-15_14-58-27_094959634447_rgbf000150-resize_3-target.png,125,2.9415,3,3259,132,feet,jsons/VE125_randls_67_rotated.json,1274470,1876402,30,Woman
113,473972,DepthScenes,duration_manipulation_targetAtFixation,jsons/VE125_randls_67_rotated.json,http://54.235.29.9/FacialAge/BNav_EC2/DepthDuration/v2_depth_duration_MTurk/v2_DepthDuration_HTML.html#119,119,1536,1152,1024,768,8-21-2022,6-36-28,114,depth_duration_stimuli/002660_2014-06-13_15-44-18_094959634447_rgbf001878-resize_2/002660_2014-06-13_15-44-18_094959634447_rgbf001878-resize_2-target.png,125,3.576,5,3405,122,feet,jsons/VE125_randls_67_rotated.json,1274470,1876402,30,Woman
114,473972,DepthScenes,duration_manipulation_targetAtFixation,jsons/VE125_randls_67_rotated.json,http://54.235.29.9/FacialAge/BNav_EC2/DepthDuration/v2_depth_duration_MTurk/v2_DepthDuration_HTML.html#119,119,1536,1152,1024,768,8-21-2022,6-36-28,115,depth_duration_stimuli/002153_2014-06-25_21-27-18_260595134347_rgbf000038-resize_5/002153_2014-06-25_21-27-18_260595134347_rgbf000038-resize_5-target.png,125,2.505,3,3053,110,feet,jsons/VE125_randls_67_rotated.json,1274470,1876402,30,Woman
115,473972,DepthScenes,duration_manipulation_targetAtFixation,jsons/VE125_randls_67_rotated.json,http://54.235.29.9/FacialAge/BNav_EC2/DepthDuration/v2_depth_duration_MTurk/v2_DepthDuration_HTML.html#119,119,1536,1152,1024,768,8-21-2022,6-36-28,116,depth_duration_stimuli/000109_2014-05-14_23-41-52_260595134347_rgbf000035-resize_9/000109_2014-05-14_23-41-52_260595134347_rgbf000035-resize_9-target.png,125,1.3545,2,3435,108,feet,jsons/VE125_randls_67_rotated.json,1274470,1876402,30,Woman
116,473972,DepthScenes,duration_manipulation_targetAtFixation,jsons/VE125_randls_67_rotated.json,http://54.235.29.9/FacialAge/BNav_EC2/DepthDuration/v2_depth_duration_MTurk/v2_DepthDuration_HTML.html#119,119,1536,1152,1024,768,8-21-2022,6-36-28,117,depth_duration_stimuli/000470_2014-06-09_19-42-40_260595134347_rgbf000094-resize_1/000470_2014-06-09_19-42-40_260595134347_rgbf000094-resize_1-target.png,125,1.831,3,4977,124,feet,jsons/VE125_randls_67_rotated.json,1274470,1876402,30,Woman
117,473972,DepthScenes,duration_manipulation_targetAtFixation,jsons/VE125_randls_67_rotated.json,http://54.235.29.9/FacialAge/BNav_EC2/DepthDuration/v2_depth_duration_MTurk/v2_DepthDuration_HTML.html#119,119,1536,1152,1024,768,8-21-2022,6-36-28,118,depth_duration_stimuli/003048_2014-06-15_13-49-43_094959634447_rgbf000150-resize_1/003048_2014-06-15_13-49-43_094959634447_rgbf000150-resize_1-target.png,125,4.0035,7,6639,108,feet,jsons/VE125_randls_67_rotated.json,1274470,1876402,30,Woman
118,473972,DepthScenes,duration_manipulation_targetAtFixation,jsons/VE125_randls_67_rotated.json,http://54.235.29.9/FacialAge/BNav_EC2/DepthDuration/v2_depth_duration_MTurk/v2_DepthDuration_HTML.html#119,119,1536,1152,1024,768,8-21-2022,6-36-28,119,depth_duration_stimuli/002043_2014-06-24_20-29-38_260595134347_rgbf000039-resize_4/002043_2014-06-24_20-29-38_260595134347_rgbf000039-resize_4-target.png,125,2.8435,6,3657,132,feet,jsons/VE125_randls_67_rotated.json,1274470,1876402,30,Woman
119,473972,DepthScenes,duration_manipulation_targetAtFixation,jsons/VE125_randls_67_rotated.json,http://54.235.29.9/FacialAge/BNav_EC2/DepthDuration/v2_depth_duration_MTurk/v2_DepthDuration_HTML.html#119,119,1536,1152,1024,768,8-21-2022,6-36-28,120,depth_duration_stimuli/000787_2014-06-08_22-33-53_260595134347_rgbf000175-resize_1/000787_2014-06-08_22-33-53_260595134347_rgbf000175-resize-original.jpg,125,4.784,7,3523,149,feet,jsons/VE125_randls_67_rotated.json,1274470,1876402,30,Woman
120,473972,DepthScenes,duration_manipulation_targetAtFixation,jsons/VE125_randls_67_rotated.json,http://54.235.29.9/FacialAge/BNav_EC2/DepthDuration/v2_depth_duration_MTurk/v2_DepthDuration_HTML.html#119,119,1536,1152,1024,768,8-21-2022,6-36-28,121,depth_duration_stimuli/003010_2014-06-15_12-54-35_094959634447_rgbf000112-resize_0/003010_2014-06-15_12-54-35_094959634447_rgbf000112-resize_0-target.png,125,3.1185,6,3865,107,feet,jsons/VE125_randls_67_rotated.json,1274470,1876402,30,Woman
121,473972,DepthScenes,duration_manipulation_targetAtFixation,jsons/VE125_randls_67_rotated.json,http://54.235.29.9/FacialAge/BNav_EC2/DepthDuration/v2_depth_duration_MTurk/v2_DepthDuration_HTML.html#119,119,1536,1152,1024,768,8-21-2022,6-36-28,122,depth_duration_stimuli/001810_2014-06-26_20-51-35_260595134347_rgbf000040-resize_3/001810_2014-06-26_20-51-35_260595134347_rgbf000040-resize_3-target.png,125,2.2525,3,2502,18,feet,jsons/VE125_randls_67_rotated.json,1274470,1876402,30,Woman
122,473972,DepthScenes,duration_manipulation_targetAtFixation,jsons/VE125_randls_67_rotated.json,http://54.235.29.9/FacialAge/BNav_EC2/DepthDuration/v2_depth_duration_MTurk/v2_DepthDuration_HTML.html#119,119,1536,1152,1024,768,8-21-2022,6-36-28,123,depth_duration_stimuli/001828_2014-06-26_21-40-03_260595134347_rgbf000024-resize_0/001828_2014-06-26_21-40-03_260595134347_rgbf000024-resize_0-target.png,125,4.8260000000000005,5,3243,117,feet,jsons/VE125_randls_67_rotated.json,1274470,1876402,30,Woman
123,473972,DepthScenes,duration_manipulation_targetAtFixation,jsons/VE125_randls_67_rotated.json,http://54.235.29.9/FacialAge/BNav_EC2/DepthDuration/v2_depth_duration_MTurk/v2_DepthDuration_HTML.html#119,119,1536,1152,1024,768,8-21-2022,6-36-28,124,depth_duration_stimuli/000009_2014-05-26_14-32-05_260595134347_rgbf000034-resize_3/000009_2014-05-26_14-32-05_260595134347_rgbf000034-resize_3-target.png,125,3.8715,8,3504,123,feet,jsons/VE125_randls_67_rotated.json,1274470,1876402,30,Woman
124,473972,DepthScenes,duration_manipulation_targetAtFixation,jsons/VE125_randls_67_rotated.json,http://54.235.29.9/FacialAge/BNav_EC2/DepthDuration/v2_depth_duration_MTurk/v2_DepthDuration_HTML.html#119,119,1536,1152,1024,768,8-21-2022,6-36-28,125,depth_duration_stimuli/003587_2014-05-23_16-48-02_094959634447_rgbf002384-resize_2/003587_2014-05-23_16-48-02_094959634447_rgbf002384-resize_2-target.png,125,1.357,2,3406,127,feet,jsons/VE125_randls_67_rotated.json,1274470,1876402,30,Woman
125,473972,DepthScenes,duration_manipulation_targetAtFixation,jsons/VE125_randls_67_rotated.json,http://54.235.29.9/FacialAge/BNav_EC2/DepthDuration/v2_depth_duration_MTurk/v2_DepthDuration_HTML.html#119,119,1536,1152,1024,768,8-21-2022,6-36-28,126,depth_duration_stimuli/001167_2014-06-17_15-38-07_260595134347_rgbf000108-resize_0/001167_2014-06-17_15-38-07_260595134347_rgbf000108-resize_0-target.png,125,1.8505,5,2795,128,feet,jsons/VE125_randls_67_rotated.json,1274470,1876402,30,Woman
126,473972,DepthScenes,duration_manipulation_targetAtFixation,jsons/VE125_randls_67_rotated.json,http://54.235.29.9/FacialAge/BNav_EC2/DepthDuration/v2_depth_duration_MTurk/v2_DepthDuration_HTML.html#119,119,1536,1152,1024,768,8-21-2022,6-36-28,127,depth_duration_stimuli/003081_2014-06-15_15-19-16_094959634447_rgbf000150-resize_1/003081_2014-06-15_15-19-16_094959634447_rgbf000150-resize_1-target.png,125,3.9125,5,3085,119,feet,jsons/VE125_randls_67_rotated.json,1274470,1876402,30,Woman
127,473972,DepthScenes,duration_manipulation_targetAtFixation,jsons/VE125_randls_67_rotated.json,http://54.235.29.9/FacialAge/BNav_EC2/DepthDuration/v2_depth_duration_MTurk/v2_DepthDuration_HTML.html#119,119,1536,1152,1024,768,8-21-2022,6-36-28,128,depth_duration_stimuli/001417_2014-06-19_16-25-36_260595134347_rgbf000115-resize_5/001417_2014-06-19_16-25-36_260595134347_rgbf000115-resize_5-target.png,125,4.6255,6,4504,393,feet,jsons/VE125_randls_67_rotated.json,1274470,1876402,30,Woman
128,473972,DepthScenes,duration_manipulation_targetAtFixation,jsons/VE125_randls_67_rotated.json,http://54.235.29.9/FacialAge/BNav_EC2/DepthDuration/v2_depth_duration_MTurk/v2_DepthDuration_HTML.html#119,119,1536,1152,1024,768,8-21-2022,6-36-28,129,depth_duration_stimuli/000854_2014-06-09_19-43-13_260595134347_rgbf000066-resize_0/000854_2014-06-09_19-43-13_260595134347_rgbf000066-resize_0-target.png,125,3.068,5,3024,79,feet,jsons/VE125_randls_67_rotated.json,1274470,1876402,30,Woman
129,473972,DepthScenes,duration_manipulation_targetAtFixation,jsons/VE125_randls_67_rotated.json,http://54.235.29.9/FacialAge/BNav_EC2/DepthDuration/v2_depth_duration_MTurk/v2_DepthDuration_HTML.html#119,119,1536,1152,1024,768,8-21-2022,6-36-28,130,depth_duration_stimuli/000758_2014-06-08_22-05-08_260595134347_rgbf000085-resize_0/000758_2014-06-08_22-05-08_260595134347_rgbf000085-resize_0-target.png,125,3.3810000000000002,7,7192,127,feet,jsons/VE125_randls_67_rotated.json,1274470,1876402,30,Woman
130,473972,DepthScenes,duration_manipulation_targetAtFixation,jsons/VE125_randls_67_rotated.json,http://54.235.29.9/FacialAge/BNav_EC2/DepthDuration/v2_depth_duration_MTurk/v2_DepthDuration_HTML.html#119,119,1536,1152,1024,768,8-21-2022,6-36-28,131,depth_duration_stimuli/002414_2014-06-28_20-24-58_260595134347_rgbf000067-resize_4/002414_2014-06-28_20-24-58_260595134347_rgbf000067-resize_4-target.png,125,4.363,6,4780,108,feet,jsons/VE125_randls_67_rotated.json,1274470,1876402,30,Woman
131,473972,DepthScenes,duration_manipulation_targetAtFixation,jsons/VE125_randls_67_rotated.json,http://54.235.29.9/FacialAge/BNav_EC2/DepthDuration/v2_depth_duration_MTurk/v2_DepthDuration_HTML.html#119,119,1536,1152,1024,768,8-21-2022,6-36-28,132,depth_duration_stimuli/000773_2014-06-08_22-24-54_260595134347_rgbf000093-resize_1/000773_2014-06-08_22-24-54_260595134347_rgbf000093-resize_1-target.png,125,4.973,6,2980,114,feet,jsons/VE125_randls_67_rotated.json,1274470,1876402,30,Woman
132,473972,DepthScenes,duration_manipulation_targetAtFixation,jsons/VE125_randls_67_rotated.json,http://54.235.29.9/FacialAge/BNav_EC2/DepthDuration/v2_depth_duration_MTurk/v2_DepthDuration_HTML.html#119,119,1536,1152,1024,768,8-21-2022,6-36-28,133,depth_duration_stimuli/003495_2014-05-21_16-01-51_094959634447_rgbf000100-resize_3/003495_2014-05-21_16-01-51_094959634447_rgbf000100-resize_3-target.png,125,1.6255,6,2720,123,feet,jsons/VE125_randls_67_rotated.json,1274470,1876402,30,Woman
133,473972,DepthScenes,duration_manipulation_targetAtFixation,jsons/VE125_randls_67_rotated.json,http://54.235.29.9/FacialAge/BNav_EC2/DepthDuration/v2_depth_duration_MTurk/v2_DepthDuration_HTML.html#119,119,1536,1152,1024,768,8-21-2022,6-36-28,134,depth_duration_stimuli/001244_2014-06-17_16-47-45_260595134347_rgbf000030-resize_4/001244_2014-06-17_16-47-45_260595134347_rgbf000030-resize_4-target.png,125,2.0425,4,6348,120,feet,jsons/VE125_randls_67_rotated.json,1274470,1876402,30,Woman
134,473972,DepthScenes,duration_manipulation_targetAtFixation,jsons/VE125_randls_67_rotated.json,http://54.235.29.9/FacialAge/BNav_EC2/DepthDuration/v2_depth_duration_MTurk/v2_DepthDuration_HTML.html#119,119,1536,1152,1024,768,8-21-2022,6-36-28,135,depth_duration_stimuli/000375_2014-06-08_11-17-29_260595134347_rgbf000133-resize_2/000375_2014-06-08_11-17-29_260595134347_rgbf000133-resize-original.jpg,125,4.718,6,4020,110,feet,jsons/VE125_randls_67_rotated.json,1274470,1876402,30,Woman
135,473972,DepthScenes,duration_manipulation_targetAtFixation,jsons/VE125_randls_67_rotated.json,http://54.235.29.9/FacialAge/BNav_EC2/DepthDuration/v2_depth_duration_MTurk/v2_DepthDuration_HTML.html#119,119,1536,1152,1024,768,8-21-2022,6-36-28,136,depth_duration_stimuli/001650_2014-06-20_12-09-00_260595134347_rgbf000087-resize_3/001650_2014-06-20_12-09-00_260595134347_rgbf000087-resize_3-target.png,125,1.9505,2,3173,135,feet,jsons/VE125_randls_67_rotated.json,1274470,1876402,30,Woman
136,473972,DepthScenes,duration_manipulation_targetAtFixation,jsons/VE125_randls_67_rotated.json,http://54.235.29.9/FacialAge/BNav_EC2/DepthDuration/v2_depth_duration_MTurk/v2_DepthDuration_HTML.html#119,119,1536,1152,1024,768,8-21-2022,6-36-28,137,depth_duration_stimuli/000682_2014-06-08_23-14-58_260595134347_rgbf000041-resize_5/000682_2014-06-08_23-14-58_260595134347_rgbf000041-resize_5-target.png,125,2.7239999999999998,3,3461,144,feet,jsons/VE125_randls_67_rotated.json,1274470,1876402,30,Woman
137,473972,DepthScenes,duration_manipulation_targetAtFixation,jsons/VE125_randls_67_rotated.json,http://54.235.29.9/FacialAge/BNav_EC2/DepthDuration/v2_depth_duration_MTurk/v2_DepthDuration_HTML.html#119,119,1536,1152,1024,768,8-21-2022,6-36-28,138,depth_duration_stimuli/000502_2014-06-08_23-02-32_260595134347_rgbf000063-resize_4/000502_2014-06-08_23-02-32_260595134347_rgbf000063-resize_4-target.png,125,2.431,4,3590,118,feet,jsons/VE125_randls_67_rotated.json,1274470,1876402,30,Woman
138,473972,DepthScenes,duration_manipulation_targetAtFixation,jsons/VE125_randls_67_rotated.json,http://54.235.29.9/FacialAge/BNav_EC2/DepthDuration/v2_depth_duration_MTurk/v2_DepthDuration_HTML.html#119,119,1536,1152,1024,768,8-21-2022,6-36-28,139,depth_duration_stimuli/001199_2014-06-17_16-03-48_260595134347_rgbf000077-resize_0/001199_2014-06-17_16-03-48_260595134347_rgbf000077-resize_0-target.png,125,3.4375,5,2336,112,feet,jsons/VE125_randls_67_rotated.json,1274470,1876402,30,Woman
139,473972,DepthScenes,duration_manipulation_targetAtFixation,jsons/VE125_randls_67_rotated.json,http://54.235.29.9/FacialAge/BNav_EC2/DepthDuration/v2_depth_duration_MTurk/v2_DepthDuration_HTML.html#119,119,1536,1152,1024,768,8-21-2022,6-36-28,140,depth_duration_stimuli/000137_2014-05-20_17-04-49_260595134347_rgbf000120-resize_1/000137_2014-05-20_17-04-49_260595134347_rgbf000120-resize_1-target.png,125,3.786,6,2829,134,feet,jsons/VE125_randls_67_rotated.json,1274470,1876402,30,Woman
140,473972,DepthScenes,duration_manipulation_targetAtFixation,jsons/VE125_randls_67_rotated.json,http://54.235.29.9/FacialAge/BNav_EC2/DepthDuration/v2_depth_duration_MTurk/v2_DepthDuration_HTML.html#119,119,1536,1152,1024,768,8-21-2022,6-36-28,141,depth_duration_stimuli/000736_2014-06-08_18-24-15_260595134347_rgbf000206-resize_3/000736_2014-06-08_18-24-15_260595134347_rgbf000206-resize_3-target.png,125,3.515,3,3525,100,feet,jsons/VE125_randls_67_rotated.json,1274470,1876402,30,Woman
141,473972,DepthScenes,duration_manipulation_targetAtFixation,jsons/VE125_randls_67_rotated.json,http://54.235.29.9/FacialAge/BNav_EC2/DepthDuration/v2_depth_duration_MTurk/v2_DepthDuration_HTML.html#119,119,1536,1152,1024,768,8-21-2022,6-36-28,142,depth_duration_stimuli/002209_2014-06-28_18-36-10_260595134347_rgbf000051-resize_1/002209_2014-06-28_18-36-10_260595134347_rgbf000051-resize_1-target.png,125,2.057,3,3949,124,feet,jsons/VE125_randls_67_rotated.json,1274470,1876402,30,Woman
142,473972,DepthScenes,duration_manipulation_targetAtFixation,jsons/VE125_randls_67_rotated.json,http://54.235.29.9/FacialAge/BNav_EC2/DepthDuration/v2_depth_duration_MTurk/v2_DepthDuration_HTML.html#119,119,1536,1152,1024,768,8-21-2022,6-36-28,143,depth_duration_stimuli/002763_2014-06-22_19-13-10_094959634447_rgbf000075-resize_4/002763_2014-06-22_19-13-10_094959634447_rgbf000075-resize_4-target.png,125,1.68375,3,2527,0,feet,jsons/VE125_randls_67_rotated.json,1274470,1876402,30,Woman
143,473972,DepthScenes,duration_manipulation_targetAtFixation,jsons/VE125_randls_67_rotated.json,http://54.235.29.9/FacialAge/BNav_EC2/DepthDuration/v2_depth_duration_MTurk/v2_DepthDuration_HTML.html#119,119,1536,1152,1024,768,8-21-2022,6-36-28,144,depth_duration_stimuli/002340_2014-06-28_20-05-46_260595134347_rgbf000113-resize_0/002340_2014-06-28_20-05-46_260595134347_rgbf000113-resize_0-target.png,125,2.4735,5,7585,131,feet,jsons/VE125_randls_67_rotated.json,1274470,1876402,30,Woman
144,473972,DepthScenes,duration_manipulation_targetAtFixation,jsons/VE125_randls_67_rotated.json,http://54.235.29.9/FacialAge/BNav_EC2/DepthDuration/v2_depth_duration_MTurk/v2_DepthDuration_HTML.html#119,119,1536,1152,1024,768,8-21-2022,6-36-28,145,depth_duration_stimuli/001016_2014-06-09_16-16-10_260595134347_rgbf000112-resize_5/001016_2014-06-09_16-16-10_260595134347_rgbf000112-resize_5-target.png,125,1.6565,3,9271,118,feet,jsons/VE125_randls_67_rotated.json,1274470,1876402,30,Woman
145,473972,DepthScenes,duration_manipulation_targetAtFixation,jsons/VE125_randls_67_rotated.json,http://54.235.29.9/FacialAge/BNav_EC2/DepthDuration/v2_depth_duration_MTurk/v2_DepthDuration_HTML.html#119,119,1536,1152,1024,768,8-21-2022,6-36-28,146,depth_duration_stimuli/000483_2014-06-09_20-41-45_260595134347_rgbf000116-resize_4/000483_2014-06-09_20-41-45_260595134347_rgbf000116-resize_4-target.png,125,1.337,2,4689,134,feet,jsons/VE125_randls_67_rotated.json,1274470,1876402,30,Woman
146,473972,DepthScenes,duration_manipulation_targetAtFixation,jsons/VE125_randls_67_rotated.json,http://54.235.29.9/FacialAge/BNav_EC2/DepthDuration/v2_depth_duration_MTurk/v2_DepthDuration_HTML.html#119,119,1536,1152,1024,768,8-21-2022,6-36-28,147,depth_duration_stimuli/000469_2014-06-09_19-42-10_260595134347_rgbf000081-resize_1/000469_2014-06-09_19-42-10_260595134347_rgbf000081-resize_1-target.png,125,1.652,2,3671,117,feet,jsons/VE125_randls_67_rotated.json,1274470,1876402,30,Woman
147,473972,DepthScenes,duration_manipulation_targetAtFixation,jsons/VE125_randls_67_rotated.json,http://54.235.29.9/FacialAge/BNav_EC2/DepthDuration/v2_depth_duration_MTurk/v2_DepthDuration_HTML.html#119,119,1536,1152,1024,768,8-21-2022,6-36-28,148,depth_duration_stimuli/000191_2014-05-12_17-07-38_260595134347_rgbf000199-resize_0/000191_2014-05-12_17-07-38_260595134347_rgbf000199-resize_0-target.png,125,3.7995,6,4657,122,feet,jsons/VE125_randls_67_rotated.json,1274470,1876402,30,Woman
148,473972,DepthScenes,duration_manipulation_targetAtFixation,jsons/VE125_randls_67_rotated.json,http://54.235.29.9/FacialAge/BNav_EC2/DepthDuration/v2_depth_duration_MTurk/v2_DepthDuration_HTML.html#119,119,1536,1152,1024,768,8-21-2022,6-36-28,149,depth_duration_stimuli/000493_2014-06-09_21-01-18_260595134347_rgbf000196-resize_3/000493_2014-06-09_21-01-18_260595134347_rgbf000196-resize_3-target.png,125,3.44,7,3271,80,feet,jsons/VE125_randls_67_rotated.json,1274470,1876402,30,Woman
149,473972,DepthScenes,duration_manipulation_targetAtFixation,jsons/VE125_randls_67_rotated.json,http://54.235.29.9/FacialAge/BNav_EC2/DepthDuration/v2_depth_duration_MTurk/v2_DepthDuration_HTML.html#119,119,1536,1152,1024,768,8-21-2022,6-36-28,150,depth_duration_stimuli/002199_2014-06-28_18-33-56_260595134347_rgbf000074-resize_0/002199_2014-06-28_18-33-56_260595134347_rgbf000074-resize_0-target.png,125,1.996,5,3872,0,feet,jsons/VE125_randls_67_rotated.json,1274470,1876402,30,Woman
150,473972,DepthScenes,duration_manipulation_targetAtFixation,jsons/VE125_randls_67_rotated.json,http://54.235.29.9/FacialAge/BNav_EC2/DepthDuration/v2_depth_duration_MTurk/v2_DepthDuration_HTML.html#119,119,1536,1152,1024,768,8-21-2022,6-36-28,151,depth_duration_stimuli/001056_2014-06-08_18-46-44_260595134347_rgbf000068-resize_0/001056_2014-06-08_18-46-44_260595134347_rgbf000068-resize_0-target.png,125,2.6625,6,4720,123,feet,jsons/VE125_randls_67_rotated.json,1274470,1876402,30,Woman
151,473972,DepthScenes,duration_manipulation_targetAtFixation,jsons/VE125_randls_67_rotated.json,http://54.235.29.9/FacialAge/BNav_EC2/DepthDuration/v2_depth_duration_MTurk/v2_DepthDuration_HTML.html#119,119,1536,1152,1024,768,8-21-2022,6-36-28,152,depth_duration_stimuli/000569_2014-06-09_22-51-47_260595134347_rgbf000141-resize_3/000569_2014-06-09_22-51-47_260595134347_rgbf000141-resize-original.jpg,125,4.512,3,2939,116,feet,jsons/VE125_randls_67_rotated.json,1274470,1876402,30,Woman
152,473972,DepthScenes,duration_manipulation_targetAtFixation,jsons/VE125_randls_67_rotated.json,http://54.235.29.9/FacialAge/BNav_EC2/DepthDuration/v2_depth_duration_MTurk/v2_DepthDuration_HTML.html#119,119,1536,1152,1024,768,8-21-2022,6-36-28,153,depth_duration_stimuli/000742_2014-06-08_18-48-09_260595134347_rgbf000164-resize_4/000742_2014-06-08_18-48-09_260595134347_rgbf000164-resize_4-target.png,125,4.632,5,3202,133,feet,jsons/VE125_randls_67_rotated.json,1274470,1876402,30,Woman
153,473972,DepthScenes,duration_manipulation_targetAtFixation,jsons/VE125_randls_67_rotated.json,http://54.235.29.9/FacialAge/BNav_EC2/DepthDuration/v2_depth_duration_MTurk/v2_DepthDuration_HTML.html#119,119,1536,1152,1024,768,8-21-2022,6-36-28,154,depth_duration_stimuli/001066_2014-06-08_22-03-20_260595134347_rgbf000066-resize_4/001066_2014-06-08_22-03-20_260595134347_rgbf000066-resize_4-target.png,125,4.2330000000000005,3,2712,122,feet,jsons/VE125_randls_67_rotated.json,1274470,1876402,30,Woman
154,473972,DepthScenes,duration_manipulation_targetAtFixation,jsons/VE125_randls_67_rotated.json,http://54.235.29.9/FacialAge/BNav_EC2/DepthDuration/v2_depth_duration_MTurk/v2_DepthDuration_HTML.html#119,119,1536,1152,1024,768,8-21-2022,6-36-28,155,depth_duration_stimuli/001136_2014-06-17_15-19-41_260595134347_rgbf000076-resize_3/001136_2014-06-17_15-19-41_260595134347_rgbf000076-resize_3-target.png,125,1.8655,5,4003,146,feet,jsons/VE125_randls_67_rotated.json,1274470,1876402,30,Woman
155,473972,DepthScenes,duration_manipulation_targetAtFixation,jsons/VE125_randls_67_rotated.json,http://54.235.29.9/FacialAge/BNav_EC2/DepthDuration/v2_depth_duration_MTurk/v2_DepthDuration_HTML.html#119,119,1536,1152,1024,768,8-21-2022,6-36-28,156,depth_duration_stimuli/001164_2014-06-17_15-35-46_260595134347_rgbf000085-resize_3/001164_2014-06-17_15-35-46_260595134347_rgbf000085-resize_3-target.png,125,2.354,6,2818,132,feet,jsons/VE125_randls_67_rotated.json,1274470,1876402,30,Woman
156,473972,DepthScenes,duration_manipulation_targetAtFixation,jsons/VE125_randls_67_rotated.json,http://54.235.29.9/FacialAge/BNav_EC2/DepthDuration/v2_depth_duration_MTurk/v2_DepthDuration_HTML.html#119,119,1536,1152,1024,768,8-21-2022,6-36-28,157,depth_duration_stimuli/001447_2014-06-19_17-00-32_260595134347_rgbf000082-resize_5/001447_2014-06-19_17-00-32_260595134347_rgbf000082-resize_5-target.png,125,4.13775,4,4234,116,feet,jsons/VE125_randls_67_rotated.json,1274470,1876402,30,Woman
157,473972,DepthScenes,duration_manipulation_targetAtFixation,jsons/VE125_randls_67_rotated.json,http://54.235.29.9/FacialAge/BNav_EC2/DepthDuration/v2_depth_duration_MTurk/v2_DepthDuration_HTML.html#119,119,1536,1152,1024,768,8-21-2022,6-36-28,158,depth_duration_stimuli/000447_2014-06-08_16-15-46_260595134347_rgbf000130-resize_1/000447_2014-06-08_16-15-46_260595134347_rgbf000130-resize_1-target.png,125,4.479,5,8404,129,feet,jsons/VE125_randls_67_rotated.json,1274470,1876402,30,Woman
158,473972,DepthScenes,duration_manipulation_targetAtFixation,jsons/VE125_randls_67_rotated.json,http://54.235.29.9/FacialAge/BNav_EC2/DepthDuration/v2_depth_duration_MTurk/v2_DepthDuration_HTML.html#119,119,1536,1152,1024,768,8-21-2022,6-36-28,159,depth_duration_stimuli/002467_2014-06-28_20-38-07_260595134347_rgbf000026-resize_2/002467_2014-06-28_20-38-07_260595134347_rgbf000026-resize_2-target.png,125,4.742,6,3025,127,feet,jsons/VE125_randls_67_rotated.json,1274470,1876402,30,Woman
159,473972,DepthScenes,duration_manipulation_targetAtFixation,jsons/VE125_randls_67_rotated.json,http://54.235.29.9/FacialAge/BNav_EC2/DepthDuration/v2_depth_duration_MTurk/v2_DepthDuration_HTML.html#119,119,1536,1152,1024,768,8-21-2022,6-36-28,160,depth_duration_stimuli/002570_2014-06-24_13-59-54_094959634447_rgbf000059-resize_0/002570_2014-06-24_13-59-54_094959634447_rgbf000059-resize_0-target.png,125,4.037,4,3580,129,feet,jsons/VE125_randls_67_rotated.json,1274470,1876402,30,Woman
160,473972,DepthScenes,duration_manipulation_targetAtFixation,jsons/VE125_randls_67_rotated.json,http://54.235.29.9/FacialAge/BNav_EC2/DepthDuration/v2_depth_duration_MTurk/v2_DepthDuration_HTML.html#119,119,1536,1152,1024,768,8-21-2022,6-36-28,161,depth_duration_stimuli/002344_2014-06-28_20-06-29_260595134347_rgbf000030-resize_1/002344_2014-06-28_20-06-29_260595134347_rgbf000030-resize_1-target.png,125,1.5795,2,2690,123,feet,jsons/VE125_randls_67_rotated.json,1274470,1876402,30,Woman
161,473972,DepthScenes,duration_manipulation_targetAtFixation,jsons/VE125_randls_67_rotated.json,http://54.235.29.9/FacialAge/BNav_EC2/DepthDuration/v2_depth_duration_MTurk/v2_DepthDuration_HTML.html#119,119,1536,1152,1024,768,8-21-2022,6-36-28,162,depth_duration_stimuli/002725_2014-06-22_11-47-51_094959634447_rgbf000070-resize_1/002725_2014-06-22_11-47-51_094959634447_rgbf000070-resize_1-target.png,125,2.195,3,3363,219,feet,jsons/VE125_randls_67_rotated.json,1274470,1876402,30,Woman
162,473972,DepthScenes,duration_manipulation_targetAtFixation,jsons/VE125_randls_67_rotated.json,http://54.235.29.9/FacialAge/BNav_EC2/DepthDuration/v2_depth_duration_MTurk/v2_DepthDuration_HTML.html#119,119,1536,1152,1024,768,8-21-2022,6-36-28,163,depth_duration_stimuli/002805_2014-06-22_19-54-03_094959634447_rgbf000079-resize_1/002805_2014-06-22_19-54-03_094959634447_rgbf000079-resize_1-target.png,125,3.1439999999999997,6,4224,119,feet,jsons/VE125_randls_67_rotated.json,1274470,1876402,30,Woman
163,473972,DepthScenes,duration_manipulation_targetAtFixation,jsons/VE125_randls_67_rotated.json,http://54.235.29.9/FacialAge/BNav_EC2/DepthDuration/v2_depth_duration_MTurk/v2_DepthDuration_HTML.html#119,119,1536,1152,1024,768,8-21-2022,6-36-28,164,depth_duration_stimuli/000906_2014-06-08_13-35-43_260595134347_rgbf000155-resize_1/000906_2014-06-08_13-35-43_260595134347_rgbf000155-resize_1-target.png,125,2.8489999999999998,5,6865,123,feet,jsons/VE125_randls_67_rotated.json,1274470,1876402,30,Woman
