,subjID,experimentName,versionName,sequenceName,url,selected_row,windowWidth,windowHeight,screenWidth,screenHeight,startDate,startTime,trial,stimulus,duration,actual_depth,depth_estimate,trial_RT,log_sceneDuration,unitSelection,seq_filepath,experimentTime,totalTime,age,gender
0,474190,DepthScenes,duration_manipulation_targetAtFixation,jsons/v1_VE250_randls_58.json,http://54.235.29.9/FacialAge/BNav_EC2/DepthDuration/v2_depth_duration_MTurk/v2_DepthDuration_HTML.html#56,56,1500,749,1200,750,8-20-2022,11-2-49,1,depth_duration_stimuli/001029_2014-06-08_13-17-57_260595134347_rgbf000065-resize_1/001029_2014-06-08_13-17-57_260595134347_rgbf000065-resize_1-target.png,250,3.0835,5.0,3624,250,feet,jsons/v1_VE250_randls_58.json,703112,876219,35,Woman
1,474190,DepthScenes,duration_manipulation_targetAtFixation,jsons/v1_VE250_randls_58.json,http://54.235.29.9/FacialAge/BNav_EC2/DepthDuration/v2_depth_duration_MTurk/v2_DepthDuration_HTML.html#56,56,1500,749,1200,750,8-20-2022,11-2-49,2,depth_duration_stimuli/000677_2014-06-08_23-10-32_260595134347_rgbf000158-resize_6/000677_2014-06-08_23-10-32_260595134347_rgbf000158-resize_6-target.png,250,3.556,3.5,5970,249,feet,jsons/v1_VE250_randls_58.json,703112,876219,35,Woman
2,474190,DepthScenes,duration_manipulation_targetAtFixation,jsons/v1_VE250_randls_58.json,http://54.235.29.9/FacialAge/BNav_EC2/DepthDuration/v2_depth_duration_MTurk/v2_DepthDuration_HTML.html#56,56,1500,749,1200,750,8-20-2022,11-2-49,3,depth_duration_stimuli/000682_2014-06-08_23-14-58_260595134347_rgbf000041-resize_5/000682_2014-06-08_23-14-58_260595134347_rgbf000041-resize_5-target.png,250,2.7239999999999998,4.5,5355,249,feet,jsons/v1_VE250_randls_58.json,703112,876219,35,Woman
3,474190,DepthScenes,duration_manipulation_targetAtFixation,jsons/v1_VE250_randls_58.json,http://54.235.29.9/FacialAge/BNav_EC2/DepthDuration/v2_depth_duration_MTurk/v2_DepthDuration_HTML.html#56,56,1500,749,1200,750,8-20-2022,11-2-49,4,depth_duration_stimuli/001650_2014-06-20_12-09-00_260595134347_rgbf000087-resize_3/001650_2014-06-20_12-09-00_260595134347_rgbf000087-resize_3-target.png,250,1.9505,2.0,5067,249,feet,jsons/v1_VE250_randls_58.json,703112,876219,35,Woman
4,474190,DepthScenes,duration_manipulation_targetAtFixation,jsons/v1_VE250_randls_58.json,http://54.235.29.9/FacialAge/BNav_EC2/DepthDuration/v2_depth_duration_MTurk/v2_DepthDuration_HTML.html#56,56,1500,749,1200,750,8-20-2022,11-2-49,5,depth_duration_stimuli/002213_2014-06-28_18-37-58_260595134347_rgbf000055-resize_1/002213_2014-06-28_18-37-58_260595134347_rgbf000055-resize_1-target.png,250,3.62,10.0,5851,249,feet,jsons/v1_VE250_randls_58.json,703112,876219,35,Woman
5,474190,DepthScenes,duration_manipulation_targetAtFixation,jsons/v1_VE250_randls_58.json,http://54.235.29.9/FacialAge/BNav_EC2/DepthDuration/v2_depth_duration_MTurk/v2_DepthDuration_HTML.html#56,56,1500,749,1200,750,8-20-2022,11-2-49,6,depth_duration_stimuli/000691_2014-06-08_13-08-50_260595134347_rgbf000132-resize_3/000691_2014-06-08_13-08-50_260595134347_rgbf000132-resize_3-target.png,250,4.1530000000000005,7.5,5075,249,feet,jsons/v1_VE250_randls_58.json,703112,876219,35,Woman
6,474190,DepthScenes,duration_manipulation_targetAtFixation,jsons/v1_VE250_randls_58.json,http://54.235.29.9/FacialAge/BNav_EC2/DepthDuration/v2_depth_duration_MTurk/v2_DepthDuration_HTML.html#56,56,1500,749,1200,750,8-20-2022,11-2-49,7,depth_duration_stimuli/000739_2014-06-08_18-45-58_260595134347_rgbf000068-resize_1/000739_2014-06-08_18-45-58_260595134347_rgbf000068-resize_1-target.png,250,3.534,6.0,6443,249,feet,jsons/v1_VE250_randls_58.json,703112,876219,35,Woman
7,474190,DepthScenes,duration_manipulation_targetAtFixation,jsons/v1_VE250_randls_58.json,http://54.235.29.9/FacialAge/BNav_EC2/DepthDuration/v2_depth_duration_MTurk/v2_DepthDuration_HTML.html#56,56,1500,749,1200,750,8-20-2022,11-2-49,8,depth_duration_stimuli/000734_2014-06-08_17-39-11_260595134347_rgbf000128-resize_2/000734_2014-06-08_17-39-11_260595134347_rgbf000128-resize_2-target.png,250,4.098,7.5,4946,249,feet,jsons/v1_VE250_randls_58.json,703112,876219,35,Woman
8,474190,DepthScenes,duration_manipulation_targetAtFixation,jsons/v1_VE250_randls_58.json,http://54.235.29.9/FacialAge/BNav_EC2/DepthDuration/v2_depth_duration_MTurk/v2_DepthDuration_HTML.html#56,56,1500,749,1200,750,8-20-2022,11-2-49,9,depth_duration_stimuli/000773_2014-06-08_22-24-54_260595134347_rgbf000093-resize_1/000773_2014-06-08_22-24-54_260595134347_rgbf000093-resize_1-target.png,250,4.973,14.0,4467,249,feet,jsons/v1_VE250_randls_58.json,703112,876219,35,Woman
9,474190,DepthScenes,duration_manipulation_targetAtFixation,jsons/v1_VE250_randls_58.json,http://54.235.29.9/FacialAge/BNav_EC2/DepthDuration/v2_depth_duration_MTurk/v2_DepthDuration_HTML.html#56,56,1500,749,1200,750,8-20-2022,11-2-49,10,depth_duration_stimuli/002414_2014-06-28_20-24-58_260595134347_rgbf000067-resize_4/002414_2014-06-28_20-24-58_260595134347_rgbf000067-resize_4-target.png,250,4.363,11.0,4467,249,feet,jsons/v1_VE250_randls_58.json,703112,876219,35,Woman
10,474190,DepthScenes,duration_manipulation_targetAtFixation,jsons/v1_VE250_randls_58.json,http://54.235.29.9/FacialAge/BNav_EC2/DepthDuration/v2_depth_duration_MTurk/v2_DepthDuration_HTML.html#56,56,1500,749,1200,750,8-20-2022,11-2-49,11,depth_duration_stimuli/002988_2014-06-15_12-24-20_094959634447_rgbf000150-resize_1/002988_2014-06-15_12-24-20_094959634447_rgbf000150-resize_1-target.png,250,4.7669999999999995,12.0,8347,249,feet,jsons/v1_VE250_randls_58.json,703112,876219,35,Woman
11,474190,DepthScenes,duration_manipulation_targetAtFixation,jsons/v1_VE250_randls_58.json,http://54.235.29.9/FacialAge/BNav_EC2/DepthDuration/v2_depth_duration_MTurk/v2_DepthDuration_HTML.html#56,56,1500,749,1200,750,8-20-2022,11-2-49,12,depth_duration_stimuli/001052_2014-06-08_18-24-54_260595134347_rgbf000130-resize_1/001052_2014-06-08_18-24-54_260595134347_rgbf000130-resize_1-target.png,250,4.1045,9.0,3483,249,feet,jsons/v1_VE250_randls_58.json,703112,876219,35,Woman
12,474190,DepthScenes,duration_manipulation_targetAtFixation,jsons/v1_VE250_randls_58.json,http://54.235.29.9/FacialAge/BNav_EC2/DepthDuration/v2_depth_duration_MTurk/v2_DepthDuration_HTML.html#56,56,1500,749,1200,750,8-20-2022,11-2-49,13,depth_duration_stimuli/000569_2014-06-09_22-51-47_260595134347_rgbf000141-resize_3/000569_2014-06-09_22-51-47_260595134347_rgbf000141-resize-original.jpg,250,4.512,0.0,2732,250,feet,jsons/v1_VE250_randls_58.json,703112,876219,35,Woman
13,474190,DepthScenes,duration_manipulation_targetAtFixation,jsons/v1_VE250_randls_58.json,http://54.235.29.9/FacialAge/BNav_EC2/DepthDuration/v2_depth_duration_MTurk/v2_DepthDuration_HTML.html#56,56,1500,749,1200,750,8-20-2022,11-2-49,14,depth_duration_stimuli/001806_2014-06-26_20-50-20_260595134347_rgbf000091-resize_1/001806_2014-06-26_20-50-20_260595134347_rgbf000091-resize_1-target.png,250,2.7305,3.0,2983,250,feet,jsons/v1_VE250_randls_58.json,703112,876219,35,Woman
14,474190,DepthScenes,duration_manipulation_targetAtFixation,jsons/v1_VE250_randls_58.json,http://54.235.29.9/FacialAge/BNav_EC2/DepthDuration/v2_depth_duration_MTurk/v2_DepthDuration_HTML.html#56,56,1500,749,1200,750,8-20-2022,11-2-49,15,depth_duration_stimuli/001617_2014-06-20_11-35-32_260595134347_rgbf000066-resize_1/001617_2014-06-20_11-35-32_260595134347_rgbf000066-resize_1-target.png,250,3.7910000000000004,6.5,4071,250,feet,jsons/v1_VE250_randls_58.json,703112,876219,35,Woman
15,474190,DepthScenes,duration_manipulation_targetAtFixation,jsons/v1_VE250_randls_58.json,http://54.235.29.9/FacialAge/BNav_EC2/DepthDuration/v2_depth_duration_MTurk/v2_DepthDuration_HTML.html#56,56,1500,749,1200,750,8-20-2022,11-2-49,16,depth_duration_stimuli/001244_2014-06-17_16-47-45_260595134347_rgbf000030-resize_4/001244_2014-06-17_16-47-45_260595134347_rgbf000030-resize_4-target.png,250,2.0425,2.5,5595,250,feet,jsons/v1_VE250_randls_58.json,703112,876219,35,Woman
16,474190,DepthScenes,duration_manipulation_targetAtFixation,jsons/v1_VE250_randls_58.json,http://54.235.29.9/FacialAge/BNav_EC2/DepthDuration/v2_depth_duration_MTurk/v2_DepthDuration_HTML.html#56,56,1500,749,1200,750,8-20-2022,11-2-49,17,depth_duration_stimuli/003495_2014-05-21_16-01-51_094959634447_rgbf000100-resize_3/003495_2014-05-21_16-01-51_094959634447_rgbf000100-resize_3-target.png,250,1.6255,1.5,3730,250,feet,jsons/v1_VE250_randls_58.json,703112,876219,35,Woman
17,474190,DepthScenes,duration_manipulation_targetAtFixation,jsons/v1_VE250_randls_58.json,http://54.235.29.9/FacialAge/BNav_EC2/DepthDuration/v2_depth_duration_MTurk/v2_DepthDuration_HTML.html#56,56,1500,749,1200,750,8-20-2022,11-2-49,18,depth_duration_stimuli/002725_2014-06-22_11-47-51_094959634447_rgbf000070-resize_1/002725_2014-06-22_11-47-51_094959634447_rgbf000070-resize_1-target.png,250,2.195,4.0,4203,249,feet,jsons/v1_VE250_randls_58.json,703112,876219,35,Woman
18,474190,DepthScenes,duration_manipulation_targetAtFixation,jsons/v1_VE250_randls_58.json,http://54.235.29.9/FacialAge/BNav_EC2/DepthDuration/v2_depth_duration_MTurk/v2_DepthDuration_HTML.html#56,56,1500,749,1200,750,8-20-2022,11-2-49,19,depth_duration_stimuli/002344_2014-06-28_20-06-29_260595134347_rgbf000030-resize_1/002344_2014-06-28_20-06-29_260595134347_rgbf000030-resize_1-target.png,250,1.5795,1.0,2711,249,feet,jsons/v1_VE250_randls_58.json,703112,876219,35,Woman
19,474190,DepthScenes,duration_manipulation_targetAtFixation,jsons/v1_VE250_randls_58.json,http://54.235.29.9/FacialAge/BNav_EC2/DepthDuration/v2_depth_duration_MTurk/v2_DepthDuration_HTML.html#56,56,1500,749,1200,750,8-20-2022,11-2-49,20,depth_duration_stimuli/001092_2014-06-15_17-34-58_260595134347_rgbf000171-resize_3/001092_2014-06-15_17-34-58_260595134347_rgbf000171-resize_3-target.png,250,2.6935,3.0,2739,250,feet,jsons/v1_VE250_randls_58.json,703112,876219,35,Woman
20,474190,DepthScenes,duration_manipulation_targetAtFixation,jsons/v1_VE250_randls_58.json,http://54.235.29.9/FacialAge/BNav_EC2/DepthDuration/v2_depth_duration_MTurk/v2_DepthDuration_HTML.html#56,56,1500,749,1200,750,8-20-2022,11-2-49,21,depth_duration_stimuli/002545_2014-06-24_13-38-53_094959634447_rgbf000080-resize_4/002545_2014-06-24_13-38-53_094959634447_rgbf000080-resize_4-target.png,250,1.9205,4.5,4027,249,feet,jsons/v1_VE250_randls_58.json,703112,876219,35,Woman
21,474190,DepthScenes,duration_manipulation_targetAtFixation,jsons/v1_VE250_randls_58.json,http://54.235.29.9/FacialAge/BNav_EC2/DepthDuration/v2_depth_duration_MTurk/v2_DepthDuration_HTML.html#56,56,1500,749,1200,750,8-20-2022,11-2-49,22,depth_duration_stimuli/000493_2014-06-09_21-01-18_260595134347_rgbf000196-resize_3/000493_2014-06-09_21-01-18_260595134347_rgbf000196-resize_3-target.png,250,3.44,5.0,3787,250,feet,jsons/v1_VE250_randls_58.json,703112,876219,35,Woman
22,474190,DepthScenes,duration_manipulation_targetAtFixation,jsons/v1_VE250_randls_58.json,http://54.235.29.9/FacialAge/BNav_EC2/DepthDuration/v2_depth_duration_MTurk/v2_DepthDuration_HTML.html#56,56,1500,749,1200,750,8-20-2022,11-2-49,23,depth_duration_stimuli/000191_2014-05-12_17-07-38_260595134347_rgbf000199-resize_0/000191_2014-05-12_17-07-38_260595134347_rgbf000199-resize_0-target.png,250,3.7995,8.0,3743,249,feet,jsons/v1_VE250_randls_58.json,703112,876219,35,Woman
23,474190,DepthScenes,duration_manipulation_targetAtFixation,jsons/v1_VE250_randls_58.json,http://54.235.29.9/FacialAge/BNav_EC2/DepthDuration/v2_depth_duration_MTurk/v2_DepthDuration_HTML.html#56,56,1500,749,1200,750,8-20-2022,11-2-49,24,depth_duration_stimuli/000788_2014-06-08_22-34-36_260595134347_rgbf000131-resize_1/000788_2014-06-08_22-34-36_260595134347_rgbf000131-resize_1-target.png,250,3.359,4.0,3355,250,feet,jsons/v1_VE250_randls_58.json,703112,876219,35,Woman
24,474190,DepthScenes,duration_manipulation_targetAtFixation,jsons/v1_VE250_randls_58.json,http://54.235.29.9/FacialAge/BNav_EC2/DepthDuration/v2_depth_duration_MTurk/v2_DepthDuration_HTML.html#56,56,1500,749,1200,750,8-20-2022,11-2-49,25,depth_duration_stimuli/001235_2014-06-17_16-37-36_260595134347_rgbf000084-resize_4/001235_2014-06-17_16-37-36_260595134347_rgbf000084-resize_4-target.png,250,3.6605,5.5,4279,249,feet,jsons/v1_VE250_randls_58.json,703112,876219,35,Woman
25,474190,DepthScenes,duration_manipulation_targetAtFixation,jsons/v1_VE250_randls_58.json,http://54.235.29.9/FacialAge/BNav_EC2/DepthDuration/v2_depth_duration_MTurk/v2_DepthDuration_HTML.html#56,56,1500,749,1200,750,8-20-2022,11-2-49,26,depth_duration_stimuli/002118_2014-06-25_20-32-08_260595134347_rgbf000078-resize_1/002118_2014-06-25_20-32-08_260595134347_rgbf000078-resize_1-target.png,250,2.6460000000000004,3.0,2851,249,feet,jsons/v1_VE250_randls_58.json,703112,876219,35,Woman
26,474190,DepthScenes,duration_manipulation_targetAtFixation,jsons/v1_VE250_randls_58.json,http://54.235.29.9/FacialAge/BNav_EC2/DepthDuration/v2_depth_duration_MTurk/v2_DepthDuration_HTML.html#56,56,1500,749,1200,750,8-20-2022,11-2-49,27,depth_duration_stimuli/001516_2014-06-20_16-25-09_260595134347_rgbf000076-resize_2/001516_2014-06-20_16-25-09_260595134347_rgbf000076-resize_2-target.png,250,1.7445,2.5,3734,250,feet,jsons/v1_VE250_randls_58.json,703112,876219,35,Woman
27,474190,DepthScenes,duration_manipulation_targetAtFixation,jsons/v1_VE250_randls_58.json,http://54.235.29.9/FacialAge/BNav_EC2/DepthDuration/v2_depth_duration_MTurk/v2_DepthDuration_HTML.html#56,56,1500,749,1200,750,8-20-2022,11-2-49,28,depth_duration_stimuli/000522_2014-06-08_13-35-06_260595134347_rgbf000244-resize_1/000522_2014-06-08_13-35-06_260595134347_rgbf000244-resize_1-target.png,250,2.3715,1.5,3520,249,feet,jsons/v1_VE250_randls_58.json,703112,876219,35,Woman
28,474190,DepthScenes,duration_manipulation_targetAtFixation,jsons/v1_VE250_randls_58.json,http://54.235.29.9/FacialAge/BNav_EC2/DepthDuration/v2_depth_duration_MTurk/v2_DepthDuration_HTML.html#56,56,1500,749,1200,750,8-20-2022,11-2-49,29,depth_duration_stimuli/002949_2014-06-26_15-57-42_094959634447_rgbf000079-resize_1/002949_2014-06-26_15-57-42_094959634447_rgbf000079-resize_1-target.png,250,1.8915,2.0,4379,250,feet,jsons/v1_VE250_randls_58.json,703112,876219,35,Woman
29,474190,DepthScenes,duration_manipulation_targetAtFixation,jsons/v1_VE250_randls_58.json,http://54.235.29.9/FacialAge/BNav_EC2/DepthDuration/v2_depth_duration_MTurk/v2_DepthDuration_HTML.html#56,56,1500,749,1200,750,8-20-2022,11-2-49,30,depth_duration_stimuli/000375_2014-06-08_11-17-29_260595134347_rgbf000133-resize_2/000375_2014-06-08_11-17-29_260595134347_rgbf000133-resize-original.jpg,250,4.718,0.0,2891,250,feet,jsons/v1_VE250_randls_58.json,703112,876219,35,Woman
30,474190,DepthScenes,duration_manipulation_targetAtFixation,jsons/v1_VE250_randls_58.json,http://54.235.29.9/FacialAge/BNav_EC2/DepthDuration/v2_depth_duration_MTurk/v2_DepthDuration_HTML.html#56,56,1500,749,1200,750,8-20-2022,11-2-49,31,depth_duration_stimuli/002375_2014-06-28_20-13-44_260595134347_rgbf000032-resize_1/002375_2014-06-28_20-13-44_260595134347_rgbf000032-resize_1-target.png,250,4.0175,4.5,4227,249,feet,jsons/v1_VE250_randls_58.json,703112,876219,35,Woman
31,474190,DepthScenes,duration_manipulation_targetAtFixation,jsons/v1_VE250_randls_58.json,http://54.235.29.9/FacialAge/BNav_EC2/DepthDuration/v2_depth_duration_MTurk/v2_DepthDuration_HTML.html#56,56,1500,749,1200,750,8-20-2022,11-2-49,32,depth_duration_stimuli/002657_2014-06-13_15-29-54_094959634447_rgbf000150-resize_1/002657_2014-06-13_15-29-54_094959634447_rgbf000150-resize_1-target.png,250,4.919,9.0,5060,249,feet,jsons/v1_VE250_randls_58.json,703112,876219,35,Woman
32,474190,DepthScenes,duration_manipulation_targetAtFixation,jsons/v1_VE250_randls_58.json,http://54.235.29.9/FacialAge/BNav_EC2/DepthDuration/v2_depth_duration_MTurk/v2_DepthDuration_HTML.html#56,56,1500,749,1200,750,8-20-2022,11-2-49,33,depth_duration_stimuli/002445_2014-06-28_20-32-16_260595134347_rgbf000029-resize_4/002445_2014-06-28_20-32-16_260595134347_rgbf000029-resize_4-target.png,250,2.5315,3.0,3026,249,feet,jsons/v1_VE250_randls_58.json,703112,876219,35,Woman
33,474190,DepthScenes,duration_manipulation_targetAtFixation,jsons/v1_VE250_randls_58.json,http://54.235.29.9/FacialAge/BNav_EC2/DepthDuration/v2_depth_duration_MTurk/v2_DepthDuration_HTML.html#56,56,1500,749,1200,750,8-20-2022,11-2-49,34,depth_duration_stimuli/000780_2014-06-08_22-28-29_260595134347_rgbf000126-resize_1/000780_2014-06-08_22-28-29_260595134347_rgbf000126-resize_1-target.png,250,3.3825,6.0,3963,250,feet,jsons/v1_VE250_randls_58.json,703112,876219,35,Woman
34,474190,DepthScenes,duration_manipulation_targetAtFixation,jsons/v1_VE250_randls_58.json,http://54.235.29.9/FacialAge/BNav_EC2/DepthDuration/v2_depth_duration_MTurk/v2_DepthDuration_HTML.html#56,56,1500,749,1200,750,8-20-2022,11-2-49,35,depth_duration_stimuli/002509_2014-06-24_13-19-22_094959634447_rgbf000077-resize_0/002509_2014-06-24_13-19-22_094959634447_rgbf000077-resize_0-target.png,250,1.3065,2.0,2715,249,feet,jsons/v1_VE250_randls_58.json,703112,876219,35,Woman
35,474190,DepthScenes,duration_manipulation_targetAtFixation,jsons/v1_VE250_randls_58.json,http://54.235.29.9/FacialAge/BNav_EC2/DepthDuration/v2_depth_duration_MTurk/v2_DepthDuration_HTML.html#56,56,1500,749,1200,750,8-20-2022,11-2-49,36,depth_duration_stimuli/003338_2014-05-20_11-01-23_094959634447_rgbf000051-resize_6/003338_2014-05-20_11-01-23_094959634447_rgbf000051-resize_6-target.png,250,1.693,3.0,3204,250,feet,jsons/v1_VE250_randls_58.json,703112,876219,35,Woman
36,474190,DepthScenes,duration_manipulation_targetAtFixation,jsons/v1_VE250_randls_58.json,http://54.235.29.9/FacialAge/BNav_EC2/DepthDuration/v2_depth_duration_MTurk/v2_DepthDuration_HTML.html#56,56,1500,749,1200,750,8-20-2022,11-2-49,37,depth_duration_stimuli/003070_2014-06-15_14-58-27_094959634447_rgbf000150-resize_3/003070_2014-06-15_14-58-27_094959634447_rgbf000150-resize_3-target.png,250,2.9415,6.5,3739,250,feet,jsons/v1_VE250_randls_58.json,703112,876219,35,Woman
37,474190,DepthScenes,duration_manipulation_targetAtFixation,jsons/v1_VE250_randls_58.json,http://54.235.29.9/FacialAge/BNav_EC2/DepthDuration/v2_depth_duration_MTurk/v2_DepthDuration_HTML.html#56,56,1500,749,1200,750,8-20-2022,11-2-49,38,depth_duration_stimuli/000943_2014-06-09_19-31-07_260595134347_rgbf000128-resize_1/000943_2014-06-09_19-31-07_260595134347_rgbf000128-resize_1-target.png,250,1.9765,2.5,3523,252,feet,jsons/v1_VE250_randls_58.json,703112,876219,35,Woman
38,474190,DepthScenes,duration_manipulation_targetAtFixation,jsons/v1_VE250_randls_58.json,http://54.235.29.9/FacialAge/BNav_EC2/DepthDuration/v2_depth_duration_MTurk/v2_DepthDuration_HTML.html#56,56,1500,749,1200,750,8-20-2022,11-2-49,39,depth_duration_stimuli/001449_2014-06-19_17-01-27_260595134347_rgbf000116-resize_2/001449_2014-06-19_17-01-27_260595134347_rgbf000116-resize_2-target.png,250,3.452,7.0,3099,250,feet,jsons/v1_VE250_randls_58.json,703112,876219,35,Woman
39,474190,DepthScenes,duration_manipulation_targetAtFixation,jsons/v1_VE250_randls_58.json,http://54.235.29.9/FacialAge/BNav_EC2/DepthDuration/v2_depth_duration_MTurk/v2_DepthDuration_HTML.html#56,56,1500,749,1200,750,8-20-2022,11-2-49,40,depth_duration_stimuli/001450_2014-06-19_17-02-03_260595134347_rgbf000203-resize_4/001450_2014-06-19_17-02-03_260595134347_rgbf000203-resize_4-target.png,250,4.0106666666667,10.0,3995,250,feet,jsons/v1_VE250_randls_58.json,703112,876219,35,Woman
40,474190,DepthScenes,duration_manipulation_targetAtFixation,jsons/v1_VE250_randls_58.json,http://54.235.29.9/FacialAge/BNav_EC2/DepthDuration/v2_depth_duration_MTurk/v2_DepthDuration_HTML.html#56,56,1500,749,1200,750,8-20-2022,11-2-49,41,depth_duration_stimuli/000692_2014-06-08_13-09-42_260595134347_rgbf000199-resize_2/000692_2014-06-08_13-09-42_260595134347_rgbf000199-resize_2-target.png,250,3.661,12.0,9051,249,feet,jsons/v1_VE250_randls_58.json,703112,876219,35,Woman
41,474190,DepthScenes,duration_manipulation_targetAtFixation,jsons/v1_VE250_randls_58.json,http://54.235.29.9/FacialAge/BNav_EC2/DepthDuration/v2_depth_duration_MTurk/v2_DepthDuration_HTML.html#56,56,1500,749,1200,750,8-20-2022,11-2-49,42,depth_duration_stimuli/001094_2014-06-15_17-36-00_260595134347_rgbf000205-resize_0/001094_2014-06-15_17-36-00_260595134347_rgbf000205-resize_0-target.png,250,4.2175,8.0,3683,249,feet,jsons/v1_VE250_randls_58.json,703112,876219,35,Woman
42,474190,DepthScenes,duration_manipulation_targetAtFixation,jsons/v1_VE250_randls_58.json,http://54.235.29.9/FacialAge/BNav_EC2/DepthDuration/v2_depth_duration_MTurk/v2_DepthDuration_HTML.html#56,56,1500,749,1200,750,8-20-2022,11-2-49,43,depth_duration_stimuli/000436_2014-06-09_22-25-11_260595134347_rgbf000137-resize_1/000436_2014-06-09_22-25-11_260595134347_rgbf000137-resize_1-target.png,250,4.0705,11.0,3139,250,feet,jsons/v1_VE250_randls_58.json,703112,876219,35,Woman
43,474190,DepthScenes,duration_manipulation_targetAtFixation,jsons/v1_VE250_randls_58.json,http://54.235.29.9/FacialAge/BNav_EC2/DepthDuration/v2_depth_duration_MTurk/v2_DepthDuration_HTML.html#56,56,1500,749,1200,750,8-20-2022,11-2-49,44,depth_duration_stimuli/002444_2014-06-28_20-32-08_260595134347_rgbf000027-resize_0/002444_2014-06-28_20-32-08_260595134347_rgbf000027-resize_0-target.png,250,4.388999999999999,15.0,3619,249,feet,jsons/v1_VE250_randls_58.json,703112,876219,35,Woman
44,474190,DepthScenes,duration_manipulation_targetAtFixation,jsons/v1_VE250_randls_58.json,http://54.235.29.9/FacialAge/BNav_EC2/DepthDuration/v2_depth_duration_MTurk/v2_DepthDuration_HTML.html#56,56,1500,749,1200,750,8-20-2022,11-2-49,45,depth_duration_stimuli/000787_2014-06-08_22-33-53_260595134347_rgbf000175-resize_1/000787_2014-06-08_22-33-53_260595134347_rgbf000175-resize-original.jpg,250,4.784,0.0,2987,250,feet,jsons/v1_VE250_randls_58.json,703112,876219,35,Woman
45,474190,DepthScenes,duration_manipulation_targetAtFixation,jsons/v1_VE250_randls_58.json,http://54.235.29.9/FacialAge/BNav_EC2/DepthDuration/v2_depth_duration_MTurk/v2_DepthDuration_HTML.html#56,56,1500,749,1200,750,8-20-2022,11-2-49,46,depth_duration_stimuli/002600_2014-06-24_14-27-04_094959634447_rgbf000074-resize_2/002600_2014-06-24_14-27-04_094959634447_rgbf000074-resize_2-target.png,250,2.7575,6.0,4545,249,feet,jsons/v1_VE250_randls_58.json,703112,876219,35,Woman
46,474190,DepthScenes,duration_manipulation_targetAtFixation,jsons/v1_VE250_randls_58.json,http://54.235.29.9/FacialAge/BNav_EC2/DepthDuration/v2_depth_duration_MTurk/v2_DepthDuration_HTML.html#56,56,1500,749,1200,750,8-20-2022,11-2-49,47,depth_duration_stimuli/003228_2014-05-14_13-42-35_094959634447_rgbf000101-resize_1/003228_2014-05-14_13-42-35_094959634447_rgbf000101-resize_1-target.png,250,1.9680000000000002,3.0,3594,250,feet,jsons/v1_VE250_randls_58.json,703112,876219,35,Woman
47,474190,DepthScenes,duration_manipulation_targetAtFixation,jsons/v1_VE250_randls_58.json,http://54.235.29.9/FacialAge/BNav_EC2/DepthDuration/v2_depth_duration_MTurk/v2_DepthDuration_HTML.html#56,56,1500,749,1200,750,8-20-2022,11-2-49,48,depth_duration_stimuli/001150_2014-06-17_15-27-34_260595134347_rgbf000108-resize_2/001150_2014-06-17_15-27-34_260595134347_rgbf000108-resize_2-target.png,250,4.0325,7.0,2988,249,feet,jsons/v1_VE250_randls_58.json,703112,876219,35,Woman
48,474190,DepthScenes,duration_manipulation_targetAtFixation,jsons/v1_VE250_randls_58.json,http://54.235.29.9/FacialAge/BNav_EC2/DepthDuration/v2_depth_duration_MTurk/v2_DepthDuration_HTML.html#56,56,1500,749,1200,750,8-20-2022,11-2-49,49,depth_duration_stimuli/000665_2014-06-09_20-42-35_260595134347_rgbf000110-resize_1/000665_2014-06-09_20-42-35_260595134347_rgbf000110-resize_1-target.png,250,3.057,4.5,4315,250,feet,jsons/v1_VE250_randls_58.json,703112,876219,35,Woman
49,474190,DepthScenes,duration_manipulation_targetAtFixation,jsons/v1_VE250_randls_58.json,http://54.235.29.9/FacialAge/BNav_EC2/DepthDuration/v2_depth_duration_MTurk/v2_DepthDuration_HTML.html#56,56,1500,749,1200,750,8-20-2022,11-2-49,50,depth_duration_stimuli/000810_2014-06-08_17-20-01_260595134347_rgbf000105-resize_0/000810_2014-06-08_17-20-01_260595134347_rgbf000105-resize_0-target.png,250,1.4865,2.5,3791,250,feet,jsons/v1_VE250_randls_58.json,703112,876219,35,Woman
50,474190,DepthScenes,duration_manipulation_targetAtFixation,jsons/v1_VE250_randls_58.json,http://54.235.29.9/FacialAge/BNav_EC2/DepthDuration/v2_depth_duration_MTurk/v2_DepthDuration_HTML.html#56,56,1500,749,1200,750,8-20-2022,11-2-49,51,depth_duration_stimuli/001214_2014-06-17_16-13-55_260595134347_rgbf000111-resize_0/001214_2014-06-17_16-13-55_260595134347_rgbf000111-resize_0-target.png,250,2.6505,5.0,3407,249,feet,jsons/v1_VE250_randls_58.json,703112,876219,35,Woman
51,474190,DepthScenes,duration_manipulation_targetAtFixation,jsons/v1_VE250_randls_58.json,http://54.235.29.9/FacialAge/BNav_EC2/DepthDuration/v2_depth_duration_MTurk/v2_DepthDuration_HTML.html#56,56,1500,749,1200,750,8-20-2022,11-2-49,52,depth_duration_stimuli/001175_2014-06-17_15-45-55_260595134347_rgbf000129-resize_4/001175_2014-06-17_15-45-55_260595134347_rgbf000129-resize_4-target.png,250,4.255,10.0,3522,250,feet,jsons/v1_VE250_randls_58.json,703112,876219,35,Woman
52,474190,DepthScenes,duration_manipulation_targetAtFixation,jsons/v1_VE250_randls_58.json,http://54.235.29.9/FacialAge/BNav_EC2/DepthDuration/v2_depth_duration_MTurk/v2_DepthDuration_HTML.html#56,56,1500,749,1200,750,8-20-2022,11-2-49,53,depth_duration_stimuli/003490_2014-05-21_15-50-11_094959634447_rgbf000101-resize_3/003490_2014-05-21_15-50-11_094959634447_rgbf000101-resize_3-target.png,250,3.6445,8.0,3458,250,feet,jsons/v1_VE250_randls_58.json,703112,876219,35,Woman
53,474190,DepthScenes,duration_manipulation_targetAtFixation,jsons/v1_VE250_randls_58.json,http://54.235.29.9/FacialAge/BNav_EC2/DepthDuration/v2_depth_duration_MTurk/v2_DepthDuration_HTML.html#56,56,1500,749,1200,750,8-20-2022,11-2-49,54,depth_duration_stimuli/000929_2014-06-09_16-33-19_260595134347_rgbf000139-resize_0/000929_2014-06-09_16-33-19_260595134347_rgbf000139-resize_0-target.png,250,2.8680000000000003,7.0,3035,249,feet,jsons/v1_VE250_randls_58.json,703112,876219,35,Woman
54,474190,DepthScenes,duration_manipulation_targetAtFixation,jsons/v1_VE250_randls_58.json,http://54.235.29.9/FacialAge/BNav_EC2/DepthDuration/v2_depth_duration_MTurk/v2_DepthDuration_HTML.html#56,56,1500,749,1200,750,8-20-2022,11-2-49,55,depth_duration_stimuli/000457_2014-06-08_16-52-43_260595134347_rgbf000199-resize_1/000457_2014-06-08_16-52-43_260595134347_rgbf000199-resize_1-target.png,250,3.6489999999999996,5.0,2963,250,feet,jsons/v1_VE250_randls_58.json,703112,876219,35,Woman
55,474190,DepthScenes,duration_manipulation_targetAtFixation,jsons/v1_VE250_randls_58.json,http://54.235.29.9/FacialAge/BNav_EC2/DepthDuration/v2_depth_duration_MTurk/v2_DepthDuration_HTML.html#56,56,1500,749,1200,750,8-20-2022,11-2-49,56,depth_duration_stimuli/003492_2014-05-21_15-50-55_094959634447_rgbf000828-resize_1/003492_2014-05-21_15-50-55_094959634447_rgbf000828-resize_1-target.png,250,4.06875,9.0,3495,249,feet,jsons/v1_VE250_randls_58.json,703112,876219,35,Woman
56,474190,DepthScenes,duration_manipulation_targetAtFixation,jsons/v1_VE250_randls_58.json,http://54.235.29.9/FacialAge/BNav_EC2/DepthDuration/v2_depth_duration_MTurk/v2_DepthDuration_HTML.html#56,56,1500,749,1200,750,8-20-2022,11-2-49,57,depth_duration_stimuli/002568_2014-06-24_13-59-21_094959634447_rgbf000062-resize_4/002568_2014-06-24_13-59-21_094959634447_rgbf000062-resize_4-target.png,250,3.015,6.0,3239,250,feet,jsons/v1_VE250_randls_58.json,703112,876219,35,Woman
57,474190,DepthScenes,duration_manipulation_targetAtFixation,jsons/v1_VE250_randls_58.json,http://54.235.29.9/FacialAge/BNav_EC2/DepthDuration/v2_depth_duration_MTurk/v2_DepthDuration_HTML.html#56,56,1500,749,1200,750,8-20-2022,11-2-49,58,depth_duration_stimuli/000469_2014-06-09_19-42-10_260595134347_rgbf000081-resize_1/000469_2014-06-09_19-42-10_260595134347_rgbf000081-resize_1-target.png,250,1.652,2.5,4067,250,feet,jsons/v1_VE250_randls_58.json,703112,876219,35,Woman
58,474190,DepthScenes,duration_manipulation_targetAtFixation,jsons/v1_VE250_randls_58.json,http://54.235.29.9/FacialAge/BNav_EC2/DepthDuration/v2_depth_duration_MTurk/v2_DepthDuration_HTML.html#56,56,1500,749,1200,750,8-20-2022,11-2-49,59,depth_duration_stimuli/000483_2014-06-09_20-41-45_260595134347_rgbf000116-resize_4/000483_2014-06-09_20-41-45_260595134347_rgbf000116-resize_4-target.png,250,1.337,2.0,2907,250,feet,jsons/v1_VE250_randls_58.json,703112,876219,35,Woman
59,474190,DepthScenes,duration_manipulation_targetAtFixation,jsons/v1_VE250_randls_58.json,http://54.235.29.9/FacialAge/BNav_EC2/DepthDuration/v2_depth_duration_MTurk/v2_DepthDuration_HTML.html#56,56,1500,749,1200,750,8-20-2022,11-2-49,60,depth_duration_stimuli/001555_2014-06-20_17-12-10_260595134347_rgbf000065-resize_4/001555_2014-06-20_17-12-10_260595134347_rgbf000065-resize_4-target.png,250,1.633,1.5,5167,249,feet,jsons/v1_VE250_randls_58.json,703112,876219,35,Woman
60,474190,DepthScenes,duration_manipulation_targetAtFixation,jsons/v1_VE250_randls_58.json,http://54.235.29.9/FacialAge/BNav_EC2/DepthDuration/v2_depth_duration_MTurk/v2_DepthDuration_HTML.html#56,56,1500,749,1200,750,8-20-2022,11-2-49,61,depth_duration_stimuli/000103_2014-05-14_22-01-17_260595134347_rgbf000152-resize_5/000103_2014-05-14_22-01-17_260595134347_rgbf000152-resize_5-target.png,250,1.993,5.0,2911,249,feet,jsons/v1_VE250_randls_58.json,703112,876219,35,Woman
61,474190,DepthScenes,duration_manipulation_targetAtFixation,jsons/v1_VE250_randls_58.json,http://54.235.29.9/FacialAge/BNav_EC2/DepthDuration/v2_depth_duration_MTurk/v2_DepthDuration_HTML.html#56,56,1500,749,1200,750,8-20-2022,11-2-49,62,depth_duration_stimuli/000642_2014-06-08_16-59-25_260595134347_rgbf000098-resize_2/000642_2014-06-08_16-59-25_260595134347_rgbf000098-resize_2-target.png,250,2.8815,7.0,2732,249,feet,jsons/v1_VE250_randls_58.json,703112,876219,35,Woman
62,474190,DepthScenes,duration_manipulation_targetAtFixation,jsons/v1_VE250_randls_58.json,http://54.235.29.9/FacialAge/BNav_EC2/DepthDuration/v2_depth_duration_MTurk/v2_DepthDuration_HTML.html#56,56,1500,749,1200,750,8-20-2022,11-2-49,63,depth_duration_stimuli/002425_2014-06-28_20-27-29_260595134347_rgbf000031-resize_8/002425_2014-06-28_20-27-29_260595134347_rgbf000031-resize_8-target.png,250,3.8960000000000004,10.0,3831,249,feet,jsons/v1_VE250_randls_58.json,703112,876219,35,Woman
63,474190,DepthScenes,duration_manipulation_targetAtFixation,jsons/v1_VE250_randls_58.json,http://54.235.29.9/FacialAge/BNav_EC2/DepthDuration/v2_depth_duration_MTurk/v2_DepthDuration_HTML.html#56,56,1500,749,1200,750,8-20-2022,11-2-49,64,depth_duration_stimuli/000368_2014-06-09_15-53-01_260595134347_rgbf000155-resize_2/000368_2014-06-09_15-53-01_260595134347_rgbf000155-resize_2-target.png,250,2.4859999999999998,3.0,3191,249,feet,jsons/v1_VE250_randls_58.json,703112,876219,35,Woman
64,474190,DepthScenes,duration_manipulation_targetAtFixation,jsons/v1_VE250_randls_58.json,http://54.235.29.9/FacialAge/BNav_EC2/DepthDuration/v2_depth_duration_MTurk/v2_DepthDuration_HTML.html#56,56,1500,749,1200,750,8-20-2022,11-2-49,65,depth_duration_stimuli/002678_2014-06-13_16-15-32_094959634447_rgbf000151-resize_6/002678_2014-06-13_16-15-32_094959634447_rgbf000151-resize_6-target.png,250,2.1830000000000003,10.0,4863,250,feet,jsons/v1_VE250_randls_58.json,703112,876219,35,Woman
65,474190,DepthScenes,duration_manipulation_targetAtFixation,jsons/v1_VE250_randls_58.json,http://54.235.29.9/FacialAge/BNav_EC2/DepthDuration/v2_depth_duration_MTurk/v2_DepthDuration_HTML.html#56,56,1500,749,1200,750,8-20-2022,11-2-49,66,depth_duration_stimuli/001222_2014-06-17_16-24-06_260595134347_rgbf000073-resize_0/001222_2014-06-17_16-24-06_260595134347_rgbf000073-resize-original.jpg,250,1.4385,0.0,4051,250,feet,jsons/v1_VE250_randls_58.json,703112,876219,35,Woman
66,474190,DepthScenes,duration_manipulation_targetAtFixation,jsons/v1_VE250_randls_58.json,http://54.235.29.9/FacialAge/BNav_EC2/DepthDuration/v2_depth_duration_MTurk/v2_DepthDuration_HTML.html#56,56,1500,749,1200,750,8-20-2022,11-2-49,67,depth_duration_stimuli/001417_2014-06-19_16-25-36_260595134347_rgbf000115-resize_5/001417_2014-06-19_16-25-36_260595134347_rgbf000115-resize_5-target.png,250,4.6255,8.0,3567,249,feet,jsons/v1_VE250_randls_58.json,703112,876219,35,Woman
67,474190,DepthScenes,duration_manipulation_targetAtFixation,jsons/v1_VE250_randls_58.json,http://54.235.29.9/FacialAge/BNav_EC2/DepthDuration/v2_depth_duration_MTurk/v2_DepthDuration_HTML.html#56,56,1500,749,1200,750,8-20-2022,11-2-49,68,depth_duration_stimuli/003081_2014-06-15_15-19-16_094959634447_rgbf000150-resize_1/003081_2014-06-15_15-19-16_094959634447_rgbf000150-resize_1-target.png,250,3.9125,9.0,3743,250,feet,jsons/v1_VE250_randls_58.json,703112,876219,35,Woman
68,474190,DepthScenes,duration_manipulation_targetAtFixation,jsons/v1_VE250_randls_58.json,http://54.235.29.9/FacialAge/BNav_EC2/DepthDuration/v2_depth_duration_MTurk/v2_DepthDuration_HTML.html#56,56,1500,749,1200,750,8-20-2022,11-2-49,69,depth_duration_stimuli/002784_2014-06-22_19-26-30_094959634447_rgbf000083-resize_3/002784_2014-06-22_19-26-30_094959634447_rgbf000083-resize_3-target.png,250,1.8046666666667,1.5,4327,249,feet,jsons/v1_VE250_randls_58.json,703112,876219,35,Woman
69,474190,DepthScenes,duration_manipulation_targetAtFixation,jsons/v1_VE250_randls_58.json,http://54.235.29.9/FacialAge/BNav_EC2/DepthDuration/v2_depth_duration_MTurk/v2_DepthDuration_HTML.html#56,56,1500,749,1200,750,8-20-2022,11-2-49,70,depth_duration_stimuli/001100_2014-06-15_17-46-26_260595134347_rgbf000225-resize_2/001100_2014-06-15_17-46-26_260595134347_rgbf000225-resize_2-target.png,250,2.24,2.0,3071,249,feet,jsons/v1_VE250_randls_58.json,703112,876219,35,Woman
70,474190,DepthScenes,duration_manipulation_targetAtFixation,jsons/v1_VE250_randls_58.json,http://54.235.29.9/FacialAge/BNav_EC2/DepthDuration/v2_depth_duration_MTurk/v2_DepthDuration_HTML.html#56,56,1500,749,1200,750,8-20-2022,11-2-49,71,depth_duration_stimuli/000447_2014-06-08_16-15-46_260595134347_rgbf000130-resize_1/000447_2014-06-08_16-15-46_260595134347_rgbf000130-resize_1-target.png,250,4.479,5.0,2955,249,feet,jsons/v1_VE250_randls_58.json,703112,876219,35,Woman
71,474190,DepthScenes,duration_manipulation_targetAtFixation,jsons/v1_VE250_randls_58.json,http://54.235.29.9/FacialAge/BNav_EC2/DepthDuration/v2_depth_duration_MTurk/v2_DepthDuration_HTML.html#56,56,1500,749,1200,750,8-20-2022,11-2-49,72,depth_duration_stimuli/001447_2014-06-19_17-00-32_260595134347_rgbf000082-resize_5/001447_2014-06-19_17-00-32_260595134347_rgbf000082-resize_5-target.png,250,4.13775,7.0,4035,249,feet,jsons/v1_VE250_randls_58.json,703112,876219,35,Woman
72,474190,DepthScenes,duration_manipulation_targetAtFixation,jsons/v1_VE250_randls_58.json,http://54.235.29.9/FacialAge/BNav_EC2/DepthDuration/v2_depth_duration_MTurk/v2_DepthDuration_HTML.html#56,56,1500,749,1200,750,8-20-2022,11-2-49,73,depth_duration_stimuli/002043_2014-06-24_20-29-38_260595134347_rgbf000039-resize_4/002043_2014-06-24_20-29-38_260595134347_rgbf000039-resize_4-target.png,250,2.8435,9.0,3031,249,feet,jsons/v1_VE250_randls_58.json,703112,876219,35,Woman
73,474190,DepthScenes,duration_manipulation_targetAtFixation,jsons/v1_VE250_randls_58.json,http://54.235.29.9/FacialAge/BNav_EC2/DepthDuration/v2_depth_duration_MTurk/v2_DepthDuration_HTML.html#56,56,1500,749,1200,750,8-20-2022,11-2-49,74,depth_duration_stimuli/003048_2014-06-15_13-49-43_094959634447_rgbf000150-resize_1/003048_2014-06-15_13-49-43_094959634447_rgbf000150-resize_1-target.png,250,4.0035,7.0,2911,250,feet,jsons/v1_VE250_randls_58.json,703112,876219,35,Woman
74,474190,DepthScenes,duration_manipulation_targetAtFixation,jsons/v1_VE250_randls_58.json,http://54.235.29.9/FacialAge/BNav_EC2/DepthDuration/v2_depth_duration_MTurk/v2_DepthDuration_HTML.html#56,56,1500,749,1200,750,8-20-2022,11-2-49,75,depth_duration_stimuli/000486_2014-06-09_20-47-20_260595134347_rgbf000143-resize_2/000486_2014-06-09_20-47-20_260595134347_rgbf000143-resize_2-target.png,250,4.8325,8.0,3382,250,feet,jsons/v1_VE250_randls_58.json,703112,876219,35,Woman
75,474190,DepthScenes,duration_manipulation_targetAtFixation,jsons/v1_VE250_randls_58.json,http://54.235.29.9/FacialAge/BNav_EC2/DepthDuration/v2_depth_duration_MTurk/v2_DepthDuration_HTML.html#56,56,1500,749,1200,750,8-20-2022,11-2-49,76,depth_duration_stimuli/003083_2014-06-15_15-21-03_094959634447_rgbf000063-resize_1/003083_2014-06-15_15-21-03_094959634447_rgbf000063-resize_1-target.png,250,4.1405,11.0,2887,250,feet,jsons/v1_VE250_randls_58.json,703112,876219,35,Woman
76,474190,DepthScenes,duration_manipulation_targetAtFixation,jsons/v1_VE250_randls_58.json,http://54.235.29.9/FacialAge/BNav_EC2/DepthDuration/v2_depth_duration_MTurk/v2_DepthDuration_HTML.html#56,56,1500,749,1200,750,8-20-2022,11-2-49,77,depth_duration_stimuli/001056_2014-06-08_18-46-44_260595134347_rgbf000068-resize_0/001056_2014-06-08_18-46-44_260595134347_rgbf000068-resize_0-target.png,250,2.6625,6.0,3000,249,feet,jsons/v1_VE250_randls_58.json,703112,876219,35,Woman
77,474190,DepthScenes,duration_manipulation_targetAtFixation,jsons/v1_VE250_randls_58.json,http://54.235.29.9/FacialAge/BNav_EC2/DepthDuration/v2_depth_duration_MTurk/v2_DepthDuration_HTML.html#56,56,1500,749,1200,750,8-20-2022,11-2-49,78,depth_duration_stimuli/002199_2014-06-28_18-33-56_260595134347_rgbf000074-resize_0/002199_2014-06-28_18-33-56_260595134347_rgbf000074-resize_0-target.png,250,1.996,2.0,2727,249,feet,jsons/v1_VE250_randls_58.json,703112,876219,35,Woman
78,474190,DepthScenes,duration_manipulation_targetAtFixation,jsons/v1_VE250_randls_58.json,http://54.235.29.9/FacialAge/BNav_EC2/DepthDuration/v2_depth_duration_MTurk/v2_DepthDuration_HTML.html#56,56,1500,749,1200,750,8-20-2022,11-2-49,79,depth_duration_stimuli/001133_2014-06-17_14-49-16_260595134347_rgbf000100-resize_0/001133_2014-06-17_14-49-16_260595134347_rgbf000100-resize_0-target.png,250,4.2115,8.0,3563,250,feet,jsons/v1_VE250_randls_58.json,703112,876219,35,Woman
79,474190,DepthScenes,duration_manipulation_targetAtFixation,jsons/v1_VE250_randls_58.json,http://54.235.29.9/FacialAge/BNav_EC2/DepthDuration/v2_depth_duration_MTurk/v2_DepthDuration_HTML.html#56,56,1500,749,1200,750,8-20-2022,11-2-49,80,depth_duration_stimuli/001132_2014-06-17_14-48-54_260595134347_rgbf000100-resize_2/001132_2014-06-17_14-48-54_260595134347_rgbf000100-resize_2-target.png,250,3.753,6.0,3499,249,feet,jsons/v1_VE250_randls_58.json,703112,876219,35,Woman
80,474190,DepthScenes,duration_manipulation_targetAtFixation,jsons/v1_VE250_randls_58.json,http://54.235.29.9/FacialAge/BNav_EC2/DepthDuration/v2_depth_duration_MTurk/v2_DepthDuration_HTML.html#56,56,1500,749,1200,750,8-20-2022,11-2-49,81,depth_duration_stimuli/001016_2014-06-09_16-16-10_260595134347_rgbf000112-resize_5/001016_2014-06-09_16-16-10_260595134347_rgbf000112-resize_5-target.png,250,1.6565,3.0,4803,249,feet,jsons/v1_VE250_randls_58.json,703112,876219,35,Woman
81,474190,DepthScenes,duration_manipulation_targetAtFixation,jsons/v1_VE250_randls_58.json,http://54.235.29.9/FacialAge/BNav_EC2/DepthDuration/v2_depth_duration_MTurk/v2_DepthDuration_HTML.html#56,56,1500,749,1200,750,8-20-2022,11-2-49,82,depth_duration_stimuli/002340_2014-06-28_20-05-46_260595134347_rgbf000113-resize_0/002340_2014-06-28_20-05-46_260595134347_rgbf000113-resize_0-target.png,250,2.4735,5.0,4140,250,feet,jsons/v1_VE250_randls_58.json,703112,876219,35,Woman
82,474190,DepthScenes,duration_manipulation_targetAtFixation,jsons/v1_VE250_randls_58.json,http://54.235.29.9/FacialAge/BNav_EC2/DepthDuration/v2_depth_duration_MTurk/v2_DepthDuration_HTML.html#56,56,1500,749,1200,750,8-20-2022,11-2-49,83,depth_duration_stimuli/003621_2014-05-23_18-06-08_094959634447_rgbf000101-resize_1/003621_2014-05-23_18-06-08_094959634447_rgbf000101-resize_1-target.png,250,3.9835,7.0,4546,250,feet,jsons/v1_VE250_randls_58.json,703112,876219,35,Woman
83,474190,DepthScenes,duration_manipulation_targetAtFixation,jsons/v1_VE250_randls_58.json,http://54.235.29.9/FacialAge/BNav_EC2/DepthDuration/v2_depth_duration_MTurk/v2_DepthDuration_HTML.html#56,56,1500,749,1200,750,8-20-2022,11-2-49,84,depth_duration_stimuli/001584_2014-06-20_11-07-43_260595134347_rgbf000002-resize_1/001584_2014-06-20_11-07-43_260595134347_rgbf000002-resize_1-target.png,250,3.53,5.0,2667,249,feet,jsons/v1_VE250_randls_58.json,703112,876219,35,Woman
84,474190,DepthScenes,duration_manipulation_targetAtFixation,jsons/v1_VE250_randls_58.json,http://54.235.29.9/FacialAge/BNav_EC2/DepthDuration/v2_depth_duration_MTurk/v2_DepthDuration_HTML.html#56,56,1500,749,1200,750,8-20-2022,11-2-49,85,depth_duration_stimuli/000906_2014-06-08_13-35-43_260595134347_rgbf000155-resize_1/000906_2014-06-08_13-35-43_260595134347_rgbf000155-resize_1-target.png,250,2.8489999999999998,6.0,5027,249,feet,jsons/v1_VE250_randls_58.json,703112,876219,35,Woman
85,474190,DepthScenes,duration_manipulation_targetAtFixation,jsons/v1_VE250_randls_58.json,http://54.235.29.9/FacialAge/BNav_EC2/DepthDuration/v2_depth_duration_MTurk/v2_DepthDuration_HTML.html#56,56,1500,749,1200,750,8-20-2022,11-2-49,86,depth_duration_stimuli/002805_2014-06-22_19-54-03_094959634447_rgbf000079-resize_1/002805_2014-06-22_19-54-03_094959634447_rgbf000079-resize_1-target.png,250,3.1439999999999997,7.0,6907,250,feet,jsons/v1_VE250_randls_58.json,703112,876219,35,Woman
86,474190,DepthScenes,duration_manipulation_targetAtFixation,jsons/v1_VE250_randls_58.json,http://54.235.29.9/FacialAge/BNav_EC2/DepthDuration/v2_depth_duration_MTurk/v2_DepthDuration_HTML.html#56,56,1500,749,1200,750,8-20-2022,11-2-49,87,depth_duration_stimuli/002570_2014-06-24_13-59-54_094959634447_rgbf000059-resize_0/002570_2014-06-24_13-59-54_094959634447_rgbf000059-resize_0-target.png,250,4.037,3.0,3699,249,feet,jsons/v1_VE250_randls_58.json,703112,876219,35,Woman
87,474190,DepthScenes,duration_manipulation_targetAtFixation,jsons/v1_VE250_randls_58.json,http://54.235.29.9/FacialAge/BNav_EC2/DepthDuration/v2_depth_duration_MTurk/v2_DepthDuration_HTML.html#56,56,1500,749,1200,750,8-20-2022,11-2-49,88,depth_duration_stimuli/002467_2014-06-28_20-38-07_260595134347_rgbf000026-resize_2/002467_2014-06-28_20-38-07_260595134347_rgbf000026-resize_2-target.png,250,4.742,9.0,2827,249,feet,jsons/v1_VE250_randls_58.json,703112,876219,35,Woman
88,474190,DepthScenes,duration_manipulation_targetAtFixation,jsons/v1_VE250_randls_58.json,http://54.235.29.9/FacialAge/BNav_EC2/DepthDuration/v2_depth_duration_MTurk/v2_DepthDuration_HTML.html#56,56,1500,749,1200,750,8-20-2022,11-2-49,89,depth_duration_stimuli/002748_2014-06-22_19-07-22_094959634447_rgbf000078-resize_1/002748_2014-06-22_19-07-22_094959634447_rgbf000078-resize_1-target.png,250,4.6705,13.0,3204,249,feet,jsons/v1_VE250_randls_58.json,703112,876219,35,Woman
89,474190,DepthScenes,duration_manipulation_targetAtFixation,jsons/v1_VE250_randls_58.json,http://54.235.29.9/FacialAge/BNav_EC2/DepthDuration/v2_depth_duration_MTurk/v2_DepthDuration_HTML.html#56,56,1500,749,1200,750,8-20-2022,11-2-49,90,depth_duration_stimuli/002995_2014-06-15_12-31-26_094959634447_rgbf000150-resize_1/002995_2014-06-15_12-31-26_094959634447_rgbf000150-resize_1-target.png,250,3.8360000000000003,9.0,4499,250,feet,jsons/v1_VE250_randls_58.json,703112,876219,35,Woman
90,474190,DepthScenes,duration_manipulation_targetAtFixation,jsons/v1_VE250_randls_58.json,http://54.235.29.9/FacialAge/BNav_EC2/DepthDuration/v2_depth_duration_MTurk/v2_DepthDuration_HTML.html#56,56,1500,749,1200,750,8-20-2022,11-2-49,91,depth_duration_stimuli/002272_2014-06-28_18-53-56_260595134347_rgbf000067-resize_2/002272_2014-06-28_18-53-56_260595134347_rgbf000067-resize_2-target.png,250,1.138,1.5,4923,250,feet,jsons/v1_VE250_randls_58.json,703112,876219,35,Woman
91,474190,DepthScenes,duration_manipulation_targetAtFixation,jsons/v1_VE250_randls_58.json,http://54.235.29.9/FacialAge/BNav_EC2/DepthDuration/v2_depth_duration_MTurk/v2_DepthDuration_HTML.html#56,56,1500,749,1200,750,8-20-2022,11-2-49,92,depth_duration_stimuli/001571_2014-06-20_17-21-32_260595134347_rgbf000089-resize_1/001571_2014-06-20_17-21-32_260595134347_rgbf000089-resize_1-target.png,250,1.86,2.0,20015,250,feet,jsons/v1_VE250_randls_58.json,703112,876219,35,Woman
92,474190,DepthScenes,duration_manipulation_targetAtFixation,jsons/v1_VE250_randls_58.json,http://54.235.29.9/FacialAge/BNav_EC2/DepthDuration/v2_depth_duration_MTurk/v2_DepthDuration_HTML.html#56,56,1500,749,1200,750,8-20-2022,11-2-49,93,depth_duration_stimuli/001199_2014-06-17_16-03-48_260595134347_rgbf000077-resize_0/001199_2014-06-17_16-03-48_260595134347_rgbf000077-resize_0-target.png,250,3.4375,12.0,4671,249,feet,jsons/v1_VE250_randls_58.json,703112,876219,35,Woman
93,474190,DepthScenes,duration_manipulation_targetAtFixation,jsons/v1_VE250_randls_58.json,http://54.235.29.9/FacialAge/BNav_EC2/DepthDuration/v2_depth_duration_MTurk/v2_DepthDuration_HTML.html#56,56,1500,749,1200,750,8-20-2022,11-2-49,94,depth_duration_stimuli/000502_2014-06-08_23-02-32_260595134347_rgbf000063-resize_4/000502_2014-06-08_23-02-32_260595134347_rgbf000063-resize_4-target.png,250,2.431,3.0,2827,250,feet,jsons/v1_VE250_randls_58.json,703112,876219,35,Woman
94,474190,DepthScenes,duration_manipulation_targetAtFixation,jsons/v1_VE250_randls_58.json,http://54.235.29.9/FacialAge/BNav_EC2/DepthDuration/v2_depth_duration_MTurk/v2_DepthDuration_HTML.html#56,56,1500,749,1200,750,8-20-2022,11-2-49,95,depth_duration_stimuli/000758_2014-06-08_22-05-08_260595134347_rgbf000085-resize_0/000758_2014-06-08_22-05-08_260595134347_rgbf000085-resize_0-target.png,250,3.3810000000000002,8.0,2651,250,feet,jsons/v1_VE250_randls_58.json,703112,876219,35,Woman
95,474190,DepthScenes,duration_manipulation_targetAtFixation,jsons/v1_VE250_randls_58.json,http://54.235.29.9/FacialAge/BNav_EC2/DepthDuration/v2_depth_duration_MTurk/v2_DepthDuration_HTML.html#56,56,1500,749,1200,750,8-20-2022,11-2-49,96,depth_duration_stimuli/000854_2014-06-09_19-43-13_260595134347_rgbf000066-resize_0/000854_2014-06-09_19-43-13_260595134347_rgbf000066-resize_0-target.png,250,3.068,2.5,4403,250,feet,jsons/v1_VE250_randls_58.json,703112,876219,35,Woman
96,474190,DepthScenes,duration_manipulation_targetAtFixation,jsons/v1_VE250_randls_58.json,http://54.235.29.9/FacialAge/BNav_EC2/DepthDuration/v2_depth_duration_MTurk/v2_DepthDuration_HTML.html#56,56,1500,749,1200,750,8-20-2022,11-2-49,97,depth_duration_stimuli/002905_2014-06-03_18-04-43_094959634447_rgbf000151-resize_2/002905_2014-06-03_18-04-43_094959634447_rgbf000151-resize_2-target.png,250,2.0295,4.0,3147,250,feet,jsons/v1_VE250_randls_58.json,703112,876219,35,Woman
97,474190,DepthScenes,duration_manipulation_targetAtFixation,jsons/v1_VE250_randls_58.json,http://54.235.29.9/FacialAge/BNav_EC2/DepthDuration/v2_depth_duration_MTurk/v2_DepthDuration_HTML.html#56,56,1500,749,1200,750,8-20-2022,11-2-49,98,depth_duration_stimuli/003423_2014-05-21_10-23-26_094959634447_rgbf002665-resize_2/003423_2014-05-21_10-23-26_094959634447_rgbf002665-resize_2-target.png,250,3.2575,8.0,3090,250,feet,jsons/v1_VE250_randls_58.json,703112,876219,35,Woman
98,474190,DepthScenes,duration_manipulation_targetAtFixation,jsons/v1_VE250_randls_58.json,http://54.235.29.9/FacialAge/BNav_EC2/DepthDuration/v2_depth_duration_MTurk/v2_DepthDuration_HTML.html#56,56,1500,749,1200,750,8-20-2022,11-2-49,99,depth_duration_stimuli/001540_2014-06-20_17-01-05_260595134347_rgbf000086-resize_2/001540_2014-06-20_17-01-05_260595134347_rgbf000086-resize-original.jpg,250,1.459,0.0,2547,249,feet,jsons/v1_VE250_randls_58.json,703112,876219,35,Woman
99,474190,DepthScenes,duration_manipulation_targetAtFixation,jsons/v1_VE250_randls_58.json,http://54.235.29.9/FacialAge/BNav_EC2/DepthDuration/v2_depth_duration_MTurk/v2_DepthDuration_HTML.html#56,56,1500,749,1200,750,8-20-2022,11-2-49,100,depth_duration_stimuli/000506_2014-06-08_23-21-00_260595134347_rgbf000070-resize_7/000506_2014-06-08_23-21-00_260595134347_rgbf000070-resize_7-target.png,250,4.0585,9.0,4107,249,feet,jsons/v1_VE250_randls_58.json,703112,876219,35,Woman
100,474190,DepthScenes,duration_manipulation_targetAtFixation,jsons/v1_VE250_randls_58.json,http://54.235.29.9/FacialAge/BNav_EC2/DepthDuration/v2_depth_duration_MTurk/v2_DepthDuration_HTML.html#56,56,1500,749,1200,750,8-20-2022,11-2-49,101,depth_duration_stimuli/003079_2014-06-15_15-18-20_094959634447_rgbf000152-resize_8/003079_2014-06-15_15-18-20_094959634447_rgbf000152-resize_8-target.png,250,2.8775,8.0,3035,249,feet,jsons/v1_VE250_randls_58.json,703112,876219,35,Woman
101,474190,DepthScenes,duration_manipulation_targetAtFixation,jsons/v1_VE250_randls_58.json,http://54.235.29.9/FacialAge/BNav_EC2/DepthDuration/v2_depth_duration_MTurk/v2_DepthDuration_HTML.html#56,56,1500,749,1200,750,8-20-2022,11-2-49,102,depth_duration_stimuli/000009_2014-05-26_14-32-05_260595134347_rgbf000034-resize_3/000009_2014-05-26_14-32-05_260595134347_rgbf000034-resize_3-target.png,250,3.8715,12.0,3044,249,feet,jsons/v1_VE250_randls_58.json,703112,876219,35,Woman
102,474190,DepthScenes,duration_manipulation_targetAtFixation,jsons/v1_VE250_randls_58.json,http://54.235.29.9/FacialAge/BNav_EC2/DepthDuration/v2_depth_duration_MTurk/v2_DepthDuration_HTML.html#56,56,1500,749,1200,750,8-20-2022,11-2-49,103,depth_duration_stimuli/001828_2014-06-26_21-40-03_260595134347_rgbf000024-resize_0/001828_2014-06-26_21-40-03_260595134347_rgbf000024-resize_0-target.png,250,4.8260000000000005,7.0,2819,250,feet,jsons/v1_VE250_randls_58.json,703112,876219,35,Woman
103,474190,DepthScenes,duration_manipulation_targetAtFixation,jsons/v1_VE250_randls_58.json,http://54.235.29.9/FacialAge/BNav_EC2/DepthDuration/v2_depth_duration_MTurk/v2_DepthDuration_HTML.html#56,56,1500,749,1200,750,8-20-2022,11-2-49,104,depth_duration_stimuli/002630_2014-06-24_14-47-50_094959634447_rgbf000055-resize_1/002630_2014-06-24_14-47-50_094959634447_rgbf000055-resize_1-target.png,250,3.0095,6.0,6323,250,feet,jsons/v1_VE250_randls_58.json,703112,876219,35,Woman
104,474190,DepthScenes,duration_manipulation_targetAtFixation,jsons/v1_VE250_randls_58.json,http://54.235.29.9/FacialAge/BNav_EC2/DepthDuration/v2_depth_duration_MTurk/v2_DepthDuration_HTML.html#56,56,1500,749,1200,750,8-20-2022,11-2-49,105,depth_duration_stimuli/002758_2014-06-22_19-11-20_094959634447_rgbf000128-resize_1/002758_2014-06-22_19-11-20_094959634447_rgbf000128-resize_1-target.png,250,2.555,3.0,2995,250,feet,jsons/v1_VE250_randls_58.json,703112,876219,35,Woman
105,474190,DepthScenes,duration_manipulation_targetAtFixation,jsons/v1_VE250_randls_58.json,http://54.235.29.9/FacialAge/BNav_EC2/DepthDuration/v2_depth_duration_MTurk/v2_DepthDuration_HTML.html#56,56,1500,749,1200,750,8-20-2022,11-2-49,106,depth_duration_stimuli/001055_2014-06-08_18-45-35_260595134347_rgbf000111-resize_4/001055_2014-06-08_18-45-35_260595134347_rgbf000111-resize_4-target.png,250,2.4290000000000003,6.0,2658,249,feet,jsons/v1_VE250_randls_58.json,703112,876219,35,Woman
106,474190,DepthScenes,duration_manipulation_targetAtFixation,jsons/v1_VE250_randls_58.json,http://54.235.29.9/FacialAge/BNav_EC2/DepthDuration/v2_depth_duration_MTurk/v2_DepthDuration_HTML.html#56,56,1500,749,1200,750,8-20-2022,11-2-49,107,depth_duration_stimuli/000549_2014-06-08_22-10-24_260595134347_rgbf000247-resize_3/000549_2014-06-08_22-10-24_260595134347_rgbf000247-resize_3-target.png,250,1.841,1.0,3612,249,feet,jsons/v1_VE250_randls_58.json,703112,876219,35,Woman
107,474190,DepthScenes,duration_manipulation_targetAtFixation,jsons/v1_VE250_randls_58.json,http://54.235.29.9/FacialAge/BNav_EC2/DepthDuration/v2_depth_duration_MTurk/v2_DepthDuration_HTML.html#56,56,1500,749,1200,750,8-20-2022,11-2-49,108,depth_duration_stimuli/002763_2014-06-22_19-13-10_094959634447_rgbf000075-resize_4/002763_2014-06-22_19-13-10_094959634447_rgbf000075-resize_4-target.png,250,1.68375,2.5,3419,250,feet,jsons/v1_VE250_randls_58.json,703112,876219,35,Woman
108,474190,DepthScenes,duration_manipulation_targetAtFixation,jsons/v1_VE250_randls_58.json,http://54.235.29.9/FacialAge/BNav_EC2/DepthDuration/v2_depth_duration_MTurk/v2_DepthDuration_HTML.html#56,56,1500,749,1200,750,8-20-2022,11-2-49,109,depth_duration_stimuli/002209_2014-06-28_18-36-10_260595134347_rgbf000051-resize_1/002209_2014-06-28_18-36-10_260595134347_rgbf000051-resize_1-target.png,250,2.057,4.0,2587,250,feet,jsons/v1_VE250_randls_58.json,703112,876219,35,Woman
109,474190,DepthScenes,duration_manipulation_targetAtFixation,jsons/v1_VE250_randls_58.json,http://54.235.29.9/FacialAge/BNav_EC2/DepthDuration/v2_depth_duration_MTurk/v2_DepthDuration_HTML.html#56,56,1500,749,1200,750,8-20-2022,11-2-49,110,depth_duration_stimuli/001059_2014-06-08_21-53-27_260595134347_rgbf000061-resize_4/001059_2014-06-08_21-53-27_260595134347_rgbf000061-resize_4-target.png,250,2.4185,3.5,4043,250,feet,jsons/v1_VE250_randls_58.json,703112,876219,35,Woman
110,474190,DepthScenes,duration_manipulation_targetAtFixation,jsons/v1_VE250_randls_58.json,http://54.235.29.9/FacialAge/BNav_EC2/DepthDuration/v2_depth_duration_MTurk/v2_DepthDuration_HTML.html#56,56,1500,749,1200,750,8-20-2022,11-2-49,111,depth_duration_stimuli/001032_2014-06-08_13-23-17_260595134347_rgbf000021-resize_3/001032_2014-06-08_13-23-17_260595134347_rgbf000021-resize_3-target.png,250,3.2725,5.0,2940,250,feet,jsons/v1_VE250_randls_58.json,703112,876219,35,Woman
111,474190,DepthScenes,duration_manipulation_targetAtFixation,jsons/v1_VE250_randls_58.json,http://54.235.29.9/FacialAge/BNav_EC2/DepthDuration/v2_depth_duration_MTurk/v2_DepthDuration_HTML.html#56,56,1500,749,1200,750,8-20-2022,11-2-49,112,depth_duration_stimuli/001158_2014-06-17_15-32-16_260595134347_rgbf000138-resize_2/001158_2014-06-17_15-32-16_260595134347_rgbf000138-resize_2-target.png,250,4.5315,10.0,3340,249,feet,jsons/v1_VE250_randls_58.json,703112,876219,35,Woman
112,474190,DepthScenes,duration_manipulation_targetAtFixation,jsons/v1_VE250_randls_58.json,http://54.235.29.9/FacialAge/BNav_EC2/DepthDuration/v2_depth_duration_MTurk/v2_DepthDuration_HTML.html#56,56,1500,749,1200,750,8-20-2022,11-2-49,113,depth_duration_stimuli/000556_2014-06-09_22-42-56_260595134347_rgbf000214-resize_1/000556_2014-06-09_22-42-56_260595134347_rgbf000214-resize_1-target.png,250,4.8415,8.0,3309,250,feet,jsons/v1_VE250_randls_58.json,703112,876219,35,Woman
113,474190,DepthScenes,duration_manipulation_targetAtFixation,jsons/v1_VE250_randls_58.json,http://54.235.29.9/FacialAge/BNav_EC2/DepthDuration/v2_depth_duration_MTurk/v2_DepthDuration_HTML.html#56,56,1500,749,1200,750,8-20-2022,11-2-49,114,depth_duration_stimuli/002663_2014-06-13_15-50-26_094959634447_rgbf000075-resize_1/002663_2014-06-13_15-50-26_094959634447_rgbf000075-resize_1-target.png,250,4.7495,10.0,3880,249,feet,jsons/v1_VE250_randls_58.json,703112,876219,35,Woman
114,474190,DepthScenes,duration_manipulation_targetAtFixation,jsons/v1_VE250_randls_58.json,http://54.235.29.9/FacialAge/BNav_EC2/DepthDuration/v2_depth_duration_MTurk/v2_DepthDuration_HTML.html#56,56,1500,749,1200,750,8-20-2022,11-2-49,115,depth_duration_stimuli/000409_2014-06-04_19-23-33_260595134347_rgbf000067-resize_0/000409_2014-06-04_19-23-33_260595134347_rgbf000067-resize_0-target.png,250,3.7335,6.0,2926,249,feet,jsons/v1_VE250_randls_58.json,703112,876219,35,Woman
115,474190,DepthScenes,duration_manipulation_targetAtFixation,jsons/v1_VE250_randls_58.json,http://54.235.29.9/FacialAge/BNav_EC2/DepthDuration/v2_depth_duration_MTurk/v2_DepthDuration_HTML.html#56,56,1500,749,1200,750,8-20-2022,11-2-49,116,depth_duration_stimuli/001170_2014-06-17_15-43-44_260595134347_rgbf000096-resize_6/001170_2014-06-17_15-43-44_260595134347_rgbf000096-resize-original.jpg,250,1.1909999999999998,0.0,6532,249,feet,jsons/v1_VE250_randls_58.json,703112,876219,35,Woman
116,474190,DepthScenes,duration_manipulation_targetAtFixation,jsons/v1_VE250_randls_58.json,http://54.235.29.9/FacialAge/BNav_EC2/DepthDuration/v2_depth_duration_MTurk/v2_DepthDuration_HTML.html#56,56,1500,749,1200,750,8-20-2022,11-2-49,117,depth_duration_stimuli/003292_2014-05-14_21-53-49_094959634447_rgbf000100-resize_2/003292_2014-05-14_21-53-49_094959634447_rgbf000100-resize_2-target.png,250,3.4815,5.0,2487,250,feet,jsons/v1_VE250_randls_58.json,703112,876219,35,Woman
117,474190,DepthScenes,duration_manipulation_targetAtFixation,jsons/v1_VE250_randls_58.json,http://54.235.29.9/FacialAge/BNav_EC2/DepthDuration/v2_depth_duration_MTurk/v2_DepthDuration_HTML.html#56,56,1500,749,1200,750,8-20-2022,11-2-49,118,depth_duration_stimuli/002639_2014-06-24_14-51-37_094959634447_rgbf000074-resize_4/002639_2014-06-24_14-51-37_094959634447_rgbf000074-resize_4-target.png,250,4.0375,8.0,3027,249,feet,jsons/v1_VE250_randls_58.json,703112,876219,35,Woman
118,474190,DepthScenes,duration_manipulation_targetAtFixation,jsons/v1_VE250_randls_58.json,http://54.235.29.9/FacialAge/BNav_EC2/DepthDuration/v2_depth_duration_MTurk/v2_DepthDuration_HTML.html#56,56,1500,749,1200,750,8-20-2022,11-2-49,119,depth_duration_stimuli/001164_2014-06-17_15-35-46_260595134347_rgbf000085-resize_3/001164_2014-06-17_15-35-46_260595134347_rgbf000085-resize_3-target.png,250,2.354,4.0,2828,249,feet,jsons/v1_VE250_randls_58.json,703112,876219,35,Woman
119,474190,DepthScenes,duration_manipulation_targetAtFixation,jsons/v1_VE250_randls_58.json,http://54.235.29.9/FacialAge/BNav_EC2/DepthDuration/v2_depth_duration_MTurk/v2_DepthDuration_HTML.html#56,56,1500,749,1200,750,8-20-2022,11-2-49,120,depth_duration_stimuli/001136_2014-06-17_15-19-41_260595134347_rgbf000076-resize_3/001136_2014-06-17_15-19-41_260595134347_rgbf000076-resize_3-target.png,250,1.8655,4.0,2815,249,feet,jsons/v1_VE250_randls_58.json,703112,876219,35,Woman
120,474190,DepthScenes,duration_manipulation_targetAtFixation,jsons/v1_VE250_randls_58.json,http://54.235.29.9/FacialAge/BNav_EC2/DepthDuration/v2_depth_duration_MTurk/v2_DepthDuration_HTML.html#56,56,1500,749,1200,750,8-20-2022,11-2-49,121,depth_duration_stimuli/000736_2014-06-08_18-24-15_260595134347_rgbf000206-resize_3/000736_2014-06-08_18-24-15_260595134347_rgbf000206-resize_3-target.png,250,3.515,6.0,2639,249,feet,jsons/v1_VE250_randls_58.json,703112,876219,35,Woman
121,474190,DepthScenes,duration_manipulation_targetAtFixation,jsons/v1_VE250_randls_58.json,http://54.235.29.9/FacialAge/BNav_EC2/DepthDuration/v2_depth_duration_MTurk/v2_DepthDuration_HTML.html#56,56,1500,749,1200,750,8-20-2022,11-2-49,122,depth_duration_stimuli/000137_2014-05-20_17-04-49_260595134347_rgbf000120-resize_1/000137_2014-05-20_17-04-49_260595134347_rgbf000120-resize_1-target.png,250,3.786,7.0,3540,249,feet,jsons/v1_VE250_randls_58.json,703112,876219,35,Woman
122,474190,DepthScenes,duration_manipulation_targetAtFixation,jsons/v1_VE250_randls_58.json,http://54.235.29.9/FacialAge/BNav_EC2/DepthDuration/v2_depth_duration_MTurk/v2_DepthDuration_HTML.html#56,56,1500,749,1200,750,8-20-2022,11-2-49,123,depth_duration_stimuli/001110_2014-06-15_17-25-28_260595134347_rgbf000150-resize_1/001110_2014-06-15_17-25-28_260595134347_rgbf000150-resize_1-target.png,250,1.7115,4.0,2807,249,feet,jsons/v1_VE250_randls_58.json,703112,876219,35,Woman
123,474190,DepthScenes,duration_manipulation_targetAtFixation,jsons/v1_VE250_randls_58.json,http://54.235.29.9/FacialAge/BNav_EC2/DepthDuration/v2_depth_duration_MTurk/v2_DepthDuration_HTML.html#56,56,1500,749,1200,750,8-20-2022,11-2-49,124,depth_duration_stimuli/000927_2014-06-09_16-32-30_260595134347_rgbf000123-resize_3/000927_2014-06-09_16-32-30_260595134347_rgbf000123-resize_3-target.png,250,2.6785,7.0,2963,245,feet,jsons/v1_VE250_randls_58.json,703112,876219,35,Woman
124,474190,DepthScenes,duration_manipulation_targetAtFixation,jsons/v1_VE250_randls_58.json,http://54.235.29.9/FacialAge/BNav_EC2/DepthDuration/v2_depth_duration_MTurk/v2_DepthDuration_HTML.html#56,56,1500,749,1200,750,8-20-2022,11-2-49,125,depth_duration_stimuli/001810_2014-06-26_20-51-35_260595134347_rgbf000040-resize_3/001810_2014-06-26_20-51-35_260595134347_rgbf000040-resize_3-target.png,250,2.2525,5.0,3390,250,feet,jsons/v1_VE250_randls_58.json,703112,876219,35,Woman
125,474190,DepthScenes,duration_manipulation_targetAtFixation,jsons/v1_VE250_randls_58.json,http://54.235.29.9/FacialAge/BNav_EC2/DepthDuration/v2_depth_duration_MTurk/v2_DepthDuration_HTML.html#56,56,1500,749,1200,750,8-20-2022,11-2-49,126,depth_duration_stimuli/003010_2014-06-15_12-54-35_094959634447_rgbf000112-resize_0/003010_2014-06-15_12-54-35_094959634447_rgbf000112-resize_0-target.png,250,3.1185,9.0,3684,249,feet,jsons/v1_VE250_randls_58.json,703112,876219,35,Woman
126,474190,DepthScenes,duration_manipulation_targetAtFixation,jsons/v1_VE250_randls_58.json,http://54.235.29.9/FacialAge/BNav_EC2/DepthDuration/v2_depth_duration_MTurk/v2_DepthDuration_HTML.html#56,56,1500,749,1200,750,8-20-2022,11-2-49,127,depth_duration_stimuli/002549_2014-06-24_13-41-39_094959634447_rgbf000022-resize_3/002549_2014-06-24_13-41-39_094959634447_rgbf000022-resize_3-target.png,250,1.476,2.0,6055,250,feet,jsons/v1_VE250_randls_58.json,703112,876219,35,Woman
127,474190,DepthScenes,duration_manipulation_targetAtFixation,jsons/v1_VE250_randls_58.json,http://54.235.29.9/FacialAge/BNav_EC2/DepthDuration/v2_depth_duration_MTurk/v2_DepthDuration_HTML.html#56,56,1500,749,1200,750,8-20-2022,11-2-49,128,depth_duration_stimuli/002750_2014-06-22_19-08-03_094959634447_rgbf000094-resize_4/002750_2014-06-22_19-08-03_094959634447_rgbf000094-resize_4-target.png,250,2.354,5.0,2780,250,feet,jsons/v1_VE250_randls_58.json,703112,876219,35,Woman
128,474190,DepthScenes,duration_manipulation_targetAtFixation,jsons/v1_VE250_randls_58.json,http://54.235.29.9/FacialAge/BNav_EC2/DepthDuration/v2_depth_duration_MTurk/v2_DepthDuration_HTML.html#56,56,1500,749,1200,750,8-20-2022,11-2-49,129,depth_duration_stimuli/000878_2014-06-08_22-52-45_260595134347_rgbf000045-resize_2/000878_2014-06-08_22-52-45_260595134347_rgbf000045-resize_2-target.png,250,2.092,8.0,4051,250,feet,jsons/v1_VE250_randls_58.json,703112,876219,35,Woman
129,474190,DepthScenes,duration_manipulation_targetAtFixation,jsons/v1_VE250_randls_58.json,http://54.235.29.9/FacialAge/BNav_EC2/DepthDuration/v2_depth_duration_MTurk/v2_DepthDuration_HTML.html#56,56,1500,749,1200,750,8-20-2022,11-2-49,130,depth_duration_stimuli/002953_2014-06-08_17-32-18_094959634447_rgbf000059-resize_5/002953_2014-06-08_17-32-18_094959634447_rgbf000059-resize_5-target.png,250,1.551,3.0,2974,250,feet,jsons/v1_VE250_randls_58.json,703112,876219,35,Woman
130,474190,DepthScenes,duration_manipulation_targetAtFixation,jsons/v1_VE250_randls_58.json,http://54.235.29.9/FacialAge/BNav_EC2/DepthDuration/v2_depth_duration_MTurk/v2_DepthDuration_HTML.html#56,56,1500,749,1200,750,8-20-2022,11-2-49,131,depth_duration_stimuli/003534_2014-05-22_15-06-10_094959634447_rgbf000102-resize_4/003534_2014-05-22_15-06-10_094959634447_rgbf000102-resize_4-target.png,250,1.426,1.0,2676,249,feet,jsons/v1_VE250_randls_58.json,703112,876219,35,Woman
131,474190,DepthScenes,duration_manipulation_targetAtFixation,jsons/v1_VE250_randls_58.json,http://54.235.29.9/FacialAge/BNav_EC2/DepthDuration/v2_depth_duration_MTurk/v2_DepthDuration_HTML.html#56,56,1500,749,1200,750,8-20-2022,11-2-49,132,depth_duration_stimuli/002637_2014-06-24_14-51-13_094959634447_rgbf000066-resize_4/002637_2014-06-24_14-51-13_094959634447_rgbf000066-resize_4-target.png,250,1.9955,6.0,2735,250,feet,jsons/v1_VE250_randls_58.json,703112,876219,35,Woman
132,474190,DepthScenes,duration_manipulation_targetAtFixation,jsons/v1_VE250_randls_58.json,http://54.235.29.9/FacialAge/BNav_EC2/DepthDuration/v2_depth_duration_MTurk/v2_DepthDuration_HTML.html#56,56,1500,749,1200,750,8-20-2022,11-2-49,133,depth_duration_stimuli/000414_2014-06-04_19-49-13_260595134347_rgbf000044-resize_0/000414_2014-06-04_19-49-13_260595134347_rgbf000044-resize_0-target.png,250,4.329,9.0,3411,250,feet,jsons/v1_VE250_randls_58.json,703112,876219,35,Woman
133,474190,DepthScenes,duration_manipulation_targetAtFixation,jsons/v1_VE250_randls_58.json,http://54.235.29.9/FacialAge/BNav_EC2/DepthDuration/v2_depth_duration_MTurk/v2_DepthDuration_HTML.html#56,56,1500,749,1200,750,8-20-2022,11-2-49,134,depth_duration_stimuli/003129_2014-05-12_10-48-10_094959634447_rgbf000100-resize_0/003129_2014-05-12_10-48-10_094959634447_rgbf000100-resize_0-target.png,250,4.9305,6.0,9767,249,feet,jsons/v1_VE250_randls_58.json,703112,876219,35,Woman
134,474190,DepthScenes,duration_manipulation_targetAtFixation,jsons/v1_VE250_randls_58.json,http://54.235.29.9/FacialAge/BNav_EC2/DepthDuration/v2_depth_duration_MTurk/v2_DepthDuration_HTML.html#56,56,1500,749,1200,750,8-20-2022,11-2-49,135,depth_duration_stimuli/002072_2014-06-24_21-48-06_260595134347_rgbf000115-resize_0/002072_2014-06-24_21-48-06_260595134347_rgbf000115-resize-original.jpg,250,4.702,0.0,3439,247,feet,jsons/v1_VE250_randls_58.json,703112,876219,35,Woman
135,474190,DepthScenes,duration_manipulation_targetAtFixation,jsons/v1_VE250_randls_58.json,http://54.235.29.9/FacialAge/BNav_EC2/DepthDuration/v2_depth_duration_MTurk/v2_DepthDuration_HTML.html#56,56,1500,749,1200,750,8-20-2022,11-2-49,136,depth_duration_stimuli/002039_2014-06-24_20-22-38_260595134347_rgbf000084-resize_1/002039_2014-06-24_20-22-38_260595134347_rgbf000084-resize_1-target.png,250,4.408,11.0,3299,250,feet,jsons/v1_VE250_randls_58.json,703112,876219,35,Woman
136,474190,DepthScenes,duration_manipulation_targetAtFixation,jsons/v1_VE250_randls_58.json,http://54.235.29.9/FacialAge/BNav_EC2/DepthDuration/v2_depth_duration_MTurk/v2_DepthDuration_HTML.html#56,56,1500,749,1200,750,8-20-2022,11-2-49,137,depth_duration_stimuli/002103_2014-06-25_20-00-40_260595134347_rgbf000049-resize_0/002103_2014-06-25_20-00-40_260595134347_rgbf000049-resize_0-target.png,250,4.105,5.0,2739,249,feet,jsons/v1_VE250_randls_58.json,703112,876219,35,Woman
137,474190,DepthScenes,duration_manipulation_targetAtFixation,jsons/v1_VE250_randls_58.json,http://54.235.29.9/FacialAge/BNav_EC2/DepthDuration/v2_depth_duration_MTurk/v2_DepthDuration_HTML.html#56,56,1500,749,1200,750,8-20-2022,11-2-49,138,depth_duration_stimuli/001167_2014-06-17_15-38-07_260595134347_rgbf000108-resize_0/001167_2014-06-17_15-38-07_260595134347_rgbf000108-resize_0-target.png,250,1.8505,3.0,2628,249,feet,jsons/v1_VE250_randls_58.json,703112,876219,35,Woman
138,474190,DepthScenes,duration_manipulation_targetAtFixation,jsons/v1_VE250_randls_58.json,http://54.235.29.9/FacialAge/BNav_EC2/DepthDuration/v2_depth_duration_MTurk/v2_DepthDuration_HTML.html#56,56,1500,749,1200,750,8-20-2022,11-2-49,139,depth_duration_stimuli/003587_2014-05-23_16-48-02_094959634447_rgbf002384-resize_2/003587_2014-05-23_16-48-02_094959634447_rgbf002384-resize_2-target.png,250,1.357,1.0,2547,250,feet,jsons/v1_VE250_randls_58.json,703112,876219,35,Woman
139,474190,DepthScenes,duration_manipulation_targetAtFixation,jsons/v1_VE250_randls_58.json,http://54.235.29.9/FacialAge/BNav_EC2/DepthDuration/v2_depth_duration_MTurk/v2_DepthDuration_HTML.html#56,56,1500,749,1200,750,8-20-2022,11-2-49,140,depth_duration_stimuli/000470_2014-06-09_19-42-40_260595134347_rgbf000094-resize_1/000470_2014-06-09_19-42-40_260595134347_rgbf000094-resize_1-target.png,250,1.831,4.0,3827,249,feet,jsons/v1_VE250_randls_58.json,703112,876219,35,Woman
140,474190,DepthScenes,duration_manipulation_targetAtFixation,jsons/v1_VE250_randls_58.json,http://54.235.29.9/FacialAge/BNav_EC2/DepthDuration/v2_depth_duration_MTurk/v2_DepthDuration_HTML.html#56,56,1500,749,1200,750,8-20-2022,11-2-49,141,depth_duration_stimuli/000109_2014-05-14_23-41-52_260595134347_rgbf000035-resize_9/000109_2014-05-14_23-41-52_260595134347_rgbf000035-resize_9-target.png,250,1.3545,2.0,2906,250,feet,jsons/v1_VE250_randls_58.json,703112,876219,35,Woman
141,474190,DepthScenes,duration_manipulation_targetAtFixation,jsons/v1_VE250_randls_58.json,http://54.235.29.9/FacialAge/BNav_EC2/DepthDuration/v2_depth_duration_MTurk/v2_DepthDuration_HTML.html#56,56,1500,749,1200,750,8-20-2022,11-2-49,142,depth_duration_stimuli/002989_2014-06-15_12-25-03_094959634447_rgbf000150-resize_3/002989_2014-06-15_12-25-03_094959634447_rgbf000150-resize_3-target.png,250,4.1975,11.0,2723,249,feet,jsons/v1_VE250_randls_58.json,703112,876219,35,Woman
142,474190,DepthScenes,duration_manipulation_targetAtFixation,jsons/v1_VE250_randls_58.json,http://54.235.29.9/FacialAge/BNav_EC2/DepthDuration/v2_depth_duration_MTurk/v2_DepthDuration_HTML.html#56,56,1500,749,1200,750,8-20-2022,11-2-49,143,depth_duration_stimuli/000866_2014-06-09_20-45-42_260595134347_rgbf000139-resize_1/000866_2014-06-09_20-45-42_260595134347_rgbf000139-resize_1-target.png,250,3.2155,5.0,2731,249,feet,jsons/v1_VE250_randls_58.json,703112,876219,35,Woman
143,474190,DepthScenes,duration_manipulation_targetAtFixation,jsons/v1_VE250_randls_58.json,http://54.235.29.9/FacialAge/BNav_EC2/DepthDuration/v2_depth_duration_MTurk/v2_DepthDuration_HTML.html#56,56,1500,749,1200,750,8-20-2022,11-2-49,144,depth_duration_stimuli/001011_2014-06-08_23-18-54_260595134347_rgbf000044-resize_4/001011_2014-06-08_23-18-54_260595134347_rgbf000044-resize_4-target.png,250,2.4730000000000003,8.0,2764,249,feet,jsons/v1_VE250_randls_58.json,703112,876219,35,Woman
144,474190,DepthScenes,duration_manipulation_targetAtFixation,jsons/v1_VE250_randls_58.json,http://54.235.29.9/FacialAge/BNav_EC2/DepthDuration/v2_depth_duration_MTurk/v2_DepthDuration_HTML.html#56,56,1500,749,1200,750,8-20-2022,11-2-49,145,depth_duration_stimuli/002875_2014-06-01_15-19-00_094959634447_rgbf000151-resize_1/002875_2014-06-01_15-19-00_094959634447_rgbf000151-resize_1-target.png,250,1.9675,4.0,3346,249,feet,jsons/v1_VE250_randls_58.json,703112,876219,35,Woman
145,474190,DepthScenes,duration_manipulation_targetAtFixation,jsons/v1_VE250_randls_58.json,http://54.235.29.9/FacialAge/BNav_EC2/DepthDuration/v2_depth_duration_MTurk/v2_DepthDuration_HTML.html#56,56,1500,749,1200,750,8-20-2022,11-2-49,146,depth_duration_stimuli/001498_2014-06-19_17-45-14_260595134347_rgbf000129-resize_4/001498_2014-06-19_17-45-14_260595134347_rgbf000129-resize-original.jpg,250,1.4075,0.0,4827,249,feet,jsons/v1_VE250_randls_58.json,703112,876219,35,Woman
146,474190,DepthScenes,duration_manipulation_targetAtFixation,jsons/v1_VE250_randls_58.json,http://54.235.29.9/FacialAge/BNav_EC2/DepthDuration/v2_depth_duration_MTurk/v2_DepthDuration_HTML.html#56,56,1500,749,1200,750,8-20-2022,11-2-49,147,depth_duration_stimuli/002057_2014-06-24_21-00-13_260595134347_rgbf000120-resize_1/002057_2014-06-24_21-00-13_260595134347_rgbf000120-resize_1-target.png,250,2.967,9.0,3434,249,feet,jsons/v1_VE250_randls_58.json,703112,876219,35,Woman
147,474190,DepthScenes,duration_manipulation_targetAtFixation,jsons/v1_VE250_randls_58.json,http://54.235.29.9/FacialAge/BNav_EC2/DepthDuration/v2_depth_duration_MTurk/v2_DepthDuration_HTML.html#56,56,1500,749,1200,750,8-20-2022,11-2-49,148,depth_duration_stimuli/000709_2014-06-08_13-51-55_260595134347_rgbf000068-resize_3/000709_2014-06-08_13-51-55_260595134347_rgbf000068-resize_3-target.png,250,1.8030000000000002,6.0,2747,249,feet,jsons/v1_VE250_randls_58.json,703112,876219,35,Woman
148,474190,DepthScenes,duration_manipulation_targetAtFixation,jsons/v1_VE250_randls_58.json,http://54.235.29.9/FacialAge/BNav_EC2/DepthDuration/v2_depth_duration_MTurk/v2_DepthDuration_HTML.html#56,56,1500,749,1200,750,8-20-2022,11-2-49,149,depth_duration_stimuli/002279_2014-06-28_18-55-32_260595134347_rgbf000040-resize_5/002279_2014-06-28_18-55-32_260595134347_rgbf000040-resize_5-target.png,250,1.5043333333333,3.0,2748,249,feet,jsons/v1_VE250_randls_58.json,703112,876219,35,Woman
149,474190,DepthScenes,duration_manipulation_targetAtFixation,jsons/v1_VE250_randls_58.json,http://54.235.29.9/FacialAge/BNav_EC2/DepthDuration/v2_depth_duration_MTurk/v2_DepthDuration_HTML.html#56,56,1500,749,1200,750,8-20-2022,11-2-49,150,depth_duration_stimuli/000635_2014-06-08_16-38-42_260595134347_rgbf000106-resize_1/000635_2014-06-08_16-38-42_260595134347_rgbf000106-resize_1-target.png,250,2.074,7.0,3195,250,feet,jsons/v1_VE250_randls_58.json,703112,876219,35,Woman
150,474190,DepthScenes,duration_manipulation_targetAtFixation,jsons/v1_VE250_randls_58.json,http://54.235.29.9/FacialAge/BNav_EC2/DepthDuration/v2_depth_duration_MTurk/v2_DepthDuration_HTML.html#56,56,1500,749,1200,750,8-20-2022,11-2-49,151,depth_duration_stimuli/002964_2014-06-08_17-46-11_094959634447_rgbf000091-resize_4/002964_2014-06-08_17-46-11_094959634447_rgbf000091-resize_4-target.png,250,1.6909999999999998,2.0,2443,250,feet,jsons/v1_VE250_randls_58.json,703112,876219,35,Woman
151,474190,DepthScenes,duration_manipulation_targetAtFixation,jsons/v1_VE250_randls_58.json,http://54.235.29.9/FacialAge/BNav_EC2/DepthDuration/v2_depth_duration_MTurk/v2_DepthDuration_HTML.html#56,56,1500,749,1200,750,8-20-2022,11-2-49,152,depth_duration_stimuli/002136_2014-06-25_21-18-03_260595134347_rgbf000109-resize_3/002136_2014-06-25_21-18-03_260595134347_rgbf000109-resize_3-target.png,250,1.9569999999999999,4.0,2474,250,feet,jsons/v1_VE250_randls_58.json,703112,876219,35,Woman
152,474190,DepthScenes,duration_manipulation_targetAtFixation,jsons/v1_VE250_randls_58.json,http://54.235.29.9/FacialAge/BNav_EC2/DepthDuration/v2_depth_duration_MTurk/v2_DepthDuration_HTML.html#56,56,1500,749,1200,750,8-20-2022,11-2-49,153,depth_duration_stimuli/000917_2014-06-09_22-45-29_260595134347_rgbf000149-resize_3/000917_2014-06-09_22-45-29_260595134347_rgbf000149-resize_3-target.png,250,4.1865,7.0,2972,249,feet,jsons/v1_VE250_randls_58.json,703112,876219,35,Woman
153,474190,DepthScenes,duration_manipulation_targetAtFixation,jsons/v1_VE250_randls_58.json,http://54.235.29.9/FacialAge/BNav_EC2/DepthDuration/v2_depth_duration_MTurk/v2_DepthDuration_HTML.html#56,56,1500,749,1200,750,8-20-2022,11-2-49,154,depth_duration_stimuli/002323_2014-06-28_20-01-54_260595134347_rgbf000051-resize_4/002323_2014-06-28_20-01-54_260595134347_rgbf000051-resize_4-target.png,250,3.7310000000000003,9.0,3426,250,feet,jsons/v1_VE250_randls_58.json,703112,876219,35,Woman
154,474190,DepthScenes,duration_manipulation_targetAtFixation,jsons/v1_VE250_randls_58.json,http://54.235.29.9/FacialAge/BNav_EC2/DepthDuration/v2_depth_duration_MTurk/v2_DepthDuration_HTML.html#56,56,1500,749,1200,750,8-20-2022,11-2-49,155,depth_duration_stimuli/002788_2014-06-22_19-36-03_094959634447_rgbf000088-resize_2/002788_2014-06-22_19-36-03_094959634447_rgbf000088-resize_2-target.png,250,1.6465,6.0,2699,249,feet,jsons/v1_VE250_randls_58.json,703112,876219,35,Woman
155,474190,DepthScenes,duration_manipulation_targetAtFixation,jsons/v1_VE250_randls_58.json,http://54.235.29.9/FacialAge/BNav_EC2/DepthDuration/v2_depth_duration_MTurk/v2_DepthDuration_HTML.html#56,56,1500,749,1200,750,8-20-2022,11-2-49,156,depth_duration_stimuli/000749_2014-06-08_21-55-06_260595134347_rgbf000070-resize_2/000749_2014-06-08_21-55-06_260595134347_rgbf000070-resize_2-target.png,250,2.331,7.0,2823,249,feet,jsons/v1_VE250_randls_58.json,703112,876219,35,Woman
156,474190,DepthScenes,duration_manipulation_targetAtFixation,jsons/v1_VE250_randls_58.json,http://54.235.29.9/FacialAge/BNav_EC2/DepthDuration/v2_depth_duration_MTurk/v2_DepthDuration_HTML.html#56,56,1500,749,1200,750,8-20-2022,11-2-49,157,depth_duration_stimuli/002153_2014-06-25_21-27-18_260595134347_rgbf000038-resize_5/002153_2014-06-25_21-27-18_260595134347_rgbf000038-resize_5-target.png,250,2.505,5.0,2792,249,feet,jsons/v1_VE250_randls_58.json,703112,876219,35,Woman
157,474190,DepthScenes,duration_manipulation_targetAtFixation,jsons/v1_VE250_randls_58.json,http://54.235.29.9/FacialAge/BNav_EC2/DepthDuration/v2_depth_duration_MTurk/v2_DepthDuration_HTML.html#56,56,1500,749,1200,750,8-20-2022,11-2-49,158,depth_duration_stimuli/002660_2014-06-13_15-44-18_094959634447_rgbf001878-resize_2/002660_2014-06-13_15-44-18_094959634447_rgbf001878-resize_2-target.png,250,3.576,7.0,2699,250,feet,jsons/v1_VE250_randls_58.json,703112,876219,35,Woman
158,474190,DepthScenes,duration_manipulation_targetAtFixation,jsons/v1_VE250_randls_58.json,http://54.235.29.9/FacialAge/BNav_EC2/DepthDuration/v2_depth_duration_MTurk/v2_DepthDuration_HTML.html#56,56,1500,749,1200,750,8-20-2022,11-2-49,159,depth_duration_stimuli/001808_2014-06-26_20-50-58_260595134347_rgbf000029-resize_1/001808_2014-06-26_20-50-58_260595134347_rgbf000029-resize_1-target.png,250,4.249,10.0,3163,249,feet,jsons/v1_VE250_randls_58.json,703112,876219,35,Woman
159,474190,DepthScenes,duration_manipulation_targetAtFixation,jsons/v1_VE250_randls_58.json,http://54.235.29.9/FacialAge/BNav_EC2/DepthDuration/v2_depth_duration_MTurk/v2_DepthDuration_HTML.html#56,56,1500,749,1200,750,8-20-2022,11-2-49,160,depth_duration_stimuli/001815_2014-06-26_20-52-55_260595134347_rgbf000020-resize_0/001815_2014-06-26_20-52-55_260595134347_rgbf000020-resize_0-target.png,250,3.3865,9.0,2851,249,feet,jsons/v1_VE250_randls_58.json,703112,876219,35,Woman
160,474190,DepthScenes,duration_manipulation_targetAtFixation,jsons/v1_VE250_randls_58.json,http://54.235.29.9/FacialAge/BNav_EC2/DepthDuration/v2_depth_duration_MTurk/v2_DepthDuration_HTML.html#56,56,1500,749,1200,750,8-20-2022,11-2-49,161,depth_duration_stimuli/001570_2014-06-20_17-21-09_260595134347_rgbf000135-resize_4/001570_2014-06-20_17-21-09_260595134347_rgbf000135-resize_4-target.png,250,4.467,12.0,2787,250,feet,jsons/v1_VE250_randls_58.json,703112,876219,35,Woman
161,474190,DepthScenes,duration_manipulation_targetAtFixation,jsons/v1_VE250_randls_58.json,http://54.235.29.9/FacialAge/BNav_EC2/DepthDuration/v2_depth_duration_MTurk/v2_DepthDuration_HTML.html#56,56,1500,749,1200,750,8-20-2022,11-2-49,162,depth_duration_stimuli/001392_2014-06-19_16-07-59_260595134347_rgbf000046-resize_1/001392_2014-06-19_16-07-59_260595134347_rgbf000046-resize_1-target.png,250,4.135,9.0,5644,249,feet,jsons/v1_VE250_randls_58.json,703112,876219,35,Woman
162,474190,DepthScenes,duration_manipulation_targetAtFixation,jsons/v1_VE250_randls_58.json,http://54.235.29.9/FacialAge/BNav_EC2/DepthDuration/v2_depth_duration_MTurk/v2_DepthDuration_HTML.html#56,56,1500,749,1200,750,8-20-2022,11-2-49,163,depth_duration_stimuli/001066_2014-06-08_22-03-20_260595134347_rgbf000066-resize_4/001066_2014-06-08_22-03-20_260595134347_rgbf000066-resize_4-target.png,250,4.2330000000000005,9.0,4154,249,feet,jsons/v1_VE250_randls_58.json,703112,876219,35,Woman
163,474190,DepthScenes,duration_manipulation_targetAtFixation,jsons/v1_VE250_randls_58.json,http://54.235.29.9/FacialAge/BNav_EC2/DepthDuration/v2_depth_duration_MTurk/v2_DepthDuration_HTML.html#56,56,1500,749,1200,750,8-20-2022,11-2-49,164,depth_duration_stimuli/000742_2014-06-08_18-48-09_260595134347_rgbf000164-resize_4/000742_2014-06-08_18-48-09_260595134347_rgbf000164-resize_4-target.png,250,4.632,7.0,3100,250,feet,jsons/v1_VE250_randls_58.json,703112,876219,35,Woman
