,subjID,experimentName,versionName,sequenceName,url,selected_row,windowWidth,windowHeight,screenWidth,screenHeight,startDate,startTime,trial,stimulus,duration,actual_depth,depth_estimate,trial_RT,log_sceneDuration,unitSelection,seq_filepath,experimentTime,totalTime,age,gender
0,474252,DepthScenes,duration_manipulation_targetAtFixation,jsons/VE125_randls_61.json,http://54.235.29.9/FacialAge/BNav_EC2/DepthDuration/v2_depth_duration_MTurk/v2_DepthDuration_HTML.html#145,145,1366,768,1366,768,8-21-2022,6-40-9,1,depth_duration_stimuli/000447_2014-06-08_16-15-46_260595134347_rgbf000130-resize_1/000447_2014-06-08_16-15-46_260595134347_rgbf000130-resize_1-target.png,125,4.479,1,8215,183,meters,jsons/VE125_randls_61.json,890844,1072491,30,Woman
1,474252,DepthScenes,duration_manipulation_targetAtFixation,jsons/VE125_randls_61.json,http://54.235.29.9/FacialAge/BNav_EC2/DepthDuration/v2_depth_duration_MTurk/v2_DepthDuration_HTML.html#145,145,1366,768,1366,768,8-21-2022,6-40-9,2,depth_duration_stimuli/001447_2014-06-19_17-00-32_260595134347_rgbf000082-resize_5/001447_2014-06-19_17-00-32_260595134347_rgbf000082-resize_5-target.png,125,4.13775,2,4415,301,meters,jsons/VE125_randls_61.json,890844,1072491,30,Woman
2,474252,DepthScenes,duration_manipulation_targetAtFixation,jsons/VE125_randls_61.json,http://54.235.29.9/FacialAge/BNav_EC2/DepthDuration/v2_depth_duration_MTurk/v2_DepthDuration_HTML.html#145,145,1366,768,1366,768,8-21-2022,6-40-9,3,depth_duration_stimuli/001244_2014-06-17_16-47-45_260595134347_rgbf000030-resize_4/001244_2014-06-17_16-47-45_260595134347_rgbf000030-resize_4-target.png,125,2.0425,3,4401,128,meters,jsons/VE125_randls_61.json,890844,1072491,30,Woman
3,474252,DepthScenes,duration_manipulation_targetAtFixation,jsons/VE125_randls_61.json,http://54.235.29.9/FacialAge/BNav_EC2/DepthDuration/v2_depth_duration_MTurk/v2_DepthDuration_HTML.html#145,145,1366,768,1366,768,8-21-2022,6-40-9,4,depth_duration_stimuli/003495_2014-05-21_16-01-51_094959634447_rgbf000100-resize_3/003495_2014-05-21_16-01-51_094959634447_rgbf000100-resize_3-target.png,125,1.6255,2,4144,90,meters,jsons/VE125_randls_61.json,890844,1072491,30,Woman
4,474252,DepthScenes,duration_manipulation_targetAtFixation,jsons/VE125_randls_61.json,http://54.235.29.9/FacialAge/BNav_EC2/DepthDuration/v2_depth_duration_MTurk/v2_DepthDuration_HTML.html#145,145,1366,768,1366,768,8-21-2022,6-40-9,5,depth_duration_stimuli/001066_2014-06-08_22-03-20_260595134347_rgbf000066-resize_4/001066_2014-06-08_22-03-20_260595134347_rgbf000066-resize_4-target.png,125,4.2330000000000005,3,4007,123,meters,jsons/VE125_randls_61.json,890844,1072491,30,Woman
5,474252,DepthScenes,duration_manipulation_targetAtFixation,jsons/VE125_randls_61.json,http://54.235.29.9/FacialAge/BNav_EC2/DepthDuration/v2_depth_duration_MTurk/v2_DepthDuration_HTML.html#145,145,1366,768,1366,768,8-21-2022,6-40-9,6,depth_duration_stimuli/000742_2014-06-08_18-48-09_260595134347_rgbf000164-resize_4/000742_2014-06-08_18-48-09_260595134347_rgbf000164-resize_4-target.png,125,4.632,2,3055,127,meters,jsons/VE125_randls_61.json,890844,1072491,30,Woman
6,474252,DepthScenes,duration_manipulation_targetAtFixation,jsons/VE125_randls_61.json,http://54.235.29.9/FacialAge/BNav_EC2/DepthDuration/v2_depth_duration_MTurk/v2_DepthDuration_HTML.html#145,145,1366,768,1366,768,8-21-2022,6-40-9,7,depth_duration_stimuli/002905_2014-06-03_18-04-43_094959634447_rgbf000151-resize_2/002905_2014-06-03_18-04-43_094959634447_rgbf000151-resize_2-target.png,125,2.0295,4,6198,128,meters,jsons/VE125_randls_61.json,890844,1072491,30,Woman
7,474252,DepthScenes,duration_manipulation_targetAtFixation,jsons/VE125_randls_61.json,http://54.235.29.9/FacialAge/BNav_EC2/DepthDuration/v2_depth_duration_MTurk/v2_DepthDuration_HTML.html#145,145,1366,768,1366,768,8-21-2022,6-40-9,8,depth_duration_stimuli/003423_2014-05-21_10-23-26_094959634447_rgbf002665-resize_2/003423_2014-05-21_10-23-26_094959634447_rgbf002665-resize_2-target.png,125,3.2575,5,3655,127,meters,jsons/VE125_randls_61.json,890844,1072491,30,Woman
8,474252,DepthScenes,duration_manipulation_targetAtFixation,jsons/VE125_randls_61.json,http://54.235.29.9/FacialAge/BNav_EC2/DepthDuration/v2_depth_duration_MTurk/v2_DepthDuration_HTML.html#145,145,1366,768,1366,768,8-21-2022,6-40-9,9,depth_duration_stimuli/000692_2014-06-08_13-09-42_260595134347_rgbf000199-resize_2/000692_2014-06-08_13-09-42_260595134347_rgbf000199-resize_2-target.png,125,3.661,2,21858,156,meters,jsons/VE125_randls_61.json,890844,1072491,30,Woman
9,474252,DepthScenes,duration_manipulation_targetAtFixation,jsons/VE125_randls_61.json,http://54.235.29.9/FacialAge/BNav_EC2/DepthDuration/v2_depth_duration_MTurk/v2_DepthDuration_HTML.html#145,145,1366,768,1366,768,8-21-2022,6-40-9,10,depth_duration_stimuli/001094_2014-06-15_17-36-00_260595134347_rgbf000205-resize_0/001094_2014-06-15_17-36-00_260595134347_rgbf000205-resize_0-target.png,125,4.2175,3,4341,141,meters,jsons/VE125_randls_61.json,890844,1072491,30,Woman
10,474252,DepthScenes,duration_manipulation_targetAtFixation,jsons/VE125_randls_61.json,http://54.235.29.9/FacialAge/BNav_EC2/DepthDuration/v2_depth_duration_MTurk/v2_DepthDuration_HTML.html#145,145,1366,768,1366,768,8-21-2022,6-40-9,11,depth_duration_stimuli/002600_2014-06-24_14-27-04_094959634447_rgbf000074-resize_2/002600_2014-06-24_14-27-04_094959634447_rgbf000074-resize_2-target.png,125,2.7575,2,4499,168,meters,jsons/VE125_randls_61.json,890844,1072491,30,Woman
11,474252,DepthScenes,duration_manipulation_targetAtFixation,jsons/VE125_randls_61.json,http://54.235.29.9/FacialAge/BNav_EC2/DepthDuration/v2_depth_duration_MTurk/v2_DepthDuration_HTML.html#145,145,1366,768,1366,768,8-21-2022,6-40-9,12,depth_duration_stimuli/003228_2014-05-14_13-42-35_094959634447_rgbf000101-resize_1/003228_2014-05-14_13-42-35_094959634447_rgbf000101-resize_1-target.png,125,1.9680000000000002,3,5895,98,meters,jsons/VE125_randls_61.json,890844,1072491,30,Woman
12,474252,DepthScenes,duration_manipulation_targetAtFixation,jsons/VE125_randls_61.json,http://54.235.29.9/FacialAge/BNav_EC2/DepthDuration/v2_depth_duration_MTurk/v2_DepthDuration_HTML.html#145,145,1366,768,1366,768,8-21-2022,6-40-9,13,depth_duration_stimuli/000569_2014-06-09_22-51-47_260595134347_rgbf000141-resize_3/000569_2014-06-09_22-51-47_260595134347_rgbf000141-resize-original.jpg,125,4.512,3,5369,6,meters,jsons/VE125_randls_61.json,890844,1072491,30,Woman
13,474252,DepthScenes,duration_manipulation_targetAtFixation,jsons/VE125_randls_61.json,http://54.235.29.9/FacialAge/BNav_EC2/DepthDuration/v2_depth_duration_MTurk/v2_DepthDuration_HTML.html#145,145,1366,768,1366,768,8-21-2022,6-40-9,14,depth_duration_stimuli/001449_2014-06-19_17-01-27_260595134347_rgbf000116-resize_2/001449_2014-06-19_17-01-27_260595134347_rgbf000116-resize_2-target.png,125,3.452,1,5173,125,meters,jsons/VE125_randls_61.json,890844,1072491,30,Woman
14,474252,DepthScenes,duration_manipulation_targetAtFixation,jsons/VE125_randls_61.json,http://54.235.29.9/FacialAge/BNav_EC2/DepthDuration/v2_depth_duration_MTurk/v2_DepthDuration_HTML.html#145,145,1366,768,1366,768,8-21-2022,6-40-9,15,depth_duration_stimuli/001450_2014-06-19_17-02-03_260595134347_rgbf000203-resize_4/001450_2014-06-19_17-02-03_260595134347_rgbf000203-resize_4-target.png,125,4.0106666666667,2,3131,134,meters,jsons/VE125_randls_61.json,890844,1072491,30,Woman
15,474252,DepthScenes,duration_manipulation_targetAtFixation,jsons/VE125_randls_61.json,http://54.235.29.9/FacialAge/BNav_EC2/DepthDuration/v2_depth_duration_MTurk/v2_DepthDuration_HTML.html#145,145,1366,768,1366,768,8-21-2022,6-40-9,16,depth_duration_stimuli/002725_2014-06-22_11-47-51_094959634447_rgbf000070-resize_1/002725_2014-06-22_11-47-51_094959634447_rgbf000070-resize_1-target.png,125,2.195,4,3983,129,meters,jsons/VE125_randls_61.json,890844,1072491,30,Woman
16,474252,DepthScenes,duration_manipulation_targetAtFixation,jsons/VE125_randls_61.json,http://54.235.29.9/FacialAge/BNav_EC2/DepthDuration/v2_depth_duration_MTurk/v2_DepthDuration_HTML.html#145,145,1366,768,1366,768,8-21-2022,6-40-9,17,depth_duration_stimuli/002344_2014-06-28_20-06-29_260595134347_rgbf000030-resize_1/002344_2014-06-28_20-06-29_260595134347_rgbf000030-resize_1-target.png,125,1.5795,6,5501,260,meters,jsons/VE125_randls_61.json,890844,1072491,30,Woman
17,474252,DepthScenes,duration_manipulation_targetAtFixation,jsons/VE125_randls_61.json,http://54.235.29.9/FacialAge/BNav_EC2/DepthDuration/v2_depth_duration_MTurk/v2_DepthDuration_HTML.html#145,145,1366,768,1366,768,8-21-2022,6-40-9,18,depth_duration_stimuli/002213_2014-06-28_18-37-58_260595134347_rgbf000055-resize_1/002213_2014-06-28_18-37-58_260595134347_rgbf000055-resize_1-target.png,125,3.62,2,3799,121,meters,jsons/VE125_randls_61.json,890844,1072491,30,Woman
18,474252,DepthScenes,duration_manipulation_targetAtFixation,jsons/VE125_randls_61.json,http://54.235.29.9/FacialAge/BNav_EC2/DepthDuration/v2_depth_duration_MTurk/v2_DepthDuration_HTML.html#145,145,1366,768,1366,768,8-21-2022,6-40-9,19,depth_duration_stimuli/000691_2014-06-08_13-08-50_260595134347_rgbf000132-resize_3/000691_2014-06-08_13-08-50_260595134347_rgbf000132-resize_3-target.png,125,4.1530000000000005,3,4014,119,meters,jsons/VE125_randls_61.json,890844,1072491,30,Woman
19,474252,DepthScenes,duration_manipulation_targetAtFixation,jsons/VE125_randls_61.json,http://54.235.29.9/FacialAge/BNav_EC2/DepthDuration/v2_depth_duration_MTurk/v2_DepthDuration_HTML.html#145,145,1366,768,1366,768,8-21-2022,6-40-9,20,depth_duration_stimuli/000436_2014-06-09_22-25-11_260595134347_rgbf000137-resize_1/000436_2014-06-09_22-25-11_260595134347_rgbf000137-resize_1-target.png,125,4.0705,2,7264,138,meters,jsons/VE125_randls_61.json,890844,1072491,30,Woman
20,474252,DepthScenes,duration_manipulation_targetAtFixation,jsons/VE125_randls_61.json,http://54.235.29.9/FacialAge/BNav_EC2/DepthDuration/v2_depth_duration_MTurk/v2_DepthDuration_HTML.html#145,145,1366,768,1366,768,8-21-2022,6-40-9,21,depth_duration_stimuli/002444_2014-06-28_20-32-08_260595134347_rgbf000027-resize_0/002444_2014-06-28_20-32-08_260595134347_rgbf000027-resize_0-target.png,125,4.388999999999999,2,6070,114,meters,jsons/VE125_randls_61.json,890844,1072491,30,Woman
21,474252,DepthScenes,duration_manipulation_targetAtFixation,jsons/VE125_randls_61.json,http://54.235.29.9/FacialAge/BNav_EC2/DepthDuration/v2_depth_duration_MTurk/v2_DepthDuration_HTML.html#145,145,1366,768,1366,768,8-21-2022,6-40-9,22,depth_duration_stimuli/000758_2014-06-08_22-05-08_260595134347_rgbf000085-resize_0/000758_2014-06-08_22-05-08_260595134347_rgbf000085-resize_0-target.png,125,3.3810000000000002,1,4259,130,meters,jsons/VE125_randls_61.json,890844,1072491,30,Woman
22,474252,DepthScenes,duration_manipulation_targetAtFixation,jsons/VE125_randls_61.json,http://54.235.29.9/FacialAge/BNav_EC2/DepthDuration/v2_depth_duration_MTurk/v2_DepthDuration_HTML.html#145,145,1366,768,1366,768,8-21-2022,6-40-9,23,depth_duration_stimuli/000854_2014-06-09_19-43-13_260595134347_rgbf000066-resize_0/000854_2014-06-09_19-43-13_260595134347_rgbf000066-resize_0-target.png,125,3.068,3,3512,126,meters,jsons/VE125_randls_61.json,890844,1072491,30,Woman
23,474252,DepthScenes,duration_manipulation_targetAtFixation,jsons/VE125_randls_61.json,http://54.235.29.9/FacialAge/BNav_EC2/DepthDuration/v2_depth_duration_MTurk/v2_DepthDuration_HTML.html#145,145,1366,768,1366,768,8-21-2022,6-40-9,24,depth_duration_stimuli/001570_2014-06-20_17-21-09_260595134347_rgbf000135-resize_4/001570_2014-06-20_17-21-09_260595134347_rgbf000135-resize_4-target.png,125,4.467,2,3498,159,meters,jsons/VE125_randls_61.json,890844,1072491,30,Woman
24,474252,DepthScenes,duration_manipulation_targetAtFixation,jsons/VE125_randls_61.json,http://54.235.29.9/FacialAge/BNav_EC2/DepthDuration/v2_depth_duration_MTurk/v2_DepthDuration_HTML.html#145,145,1366,768,1366,768,8-21-2022,6-40-9,25,depth_duration_stimuli/001392_2014-06-19_16-07-59_260595134347_rgbf000046-resize_1/001392_2014-06-19_16-07-59_260595134347_rgbf000046-resize_1-target.png,125,4.135,3,4377,112,meters,jsons/VE125_randls_61.json,890844,1072491,30,Woman
25,474252,DepthScenes,duration_manipulation_targetAtFixation,jsons/VE125_randls_61.json,http://54.235.29.9/FacialAge/BNav_EC2/DepthDuration/v2_depth_duration_MTurk/v2_DepthDuration_HTML.html#145,145,1366,768,1366,768,8-21-2022,6-40-9,26,depth_duration_stimuli/000682_2014-06-08_23-14-58_260595134347_rgbf000041-resize_5/000682_2014-06-08_23-14-58_260595134347_rgbf000041-resize_5-target.png,125,2.7239999999999998,1,5654,275,meters,jsons/VE125_randls_61.json,890844,1072491,30,Woman
26,474252,DepthScenes,duration_manipulation_targetAtFixation,jsons/VE125_randls_61.json,http://54.235.29.9/FacialAge/BNav_EC2/DepthDuration/v2_depth_duration_MTurk/v2_DepthDuration_HTML.html#145,145,1366,768,1366,768,8-21-2022,6-40-9,27,depth_duration_stimuli/001650_2014-06-20_12-09-00_260595134347_rgbf000087-resize_3/001650_2014-06-20_12-09-00_260595134347_rgbf000087-resize_3-target.png,125,1.9505,4,3394,122,meters,jsons/VE125_randls_61.json,890844,1072491,30,Woman
27,474252,DepthScenes,duration_manipulation_targetAtFixation,jsons/VE125_randls_61.json,http://54.235.29.9/FacialAge/BNav_EC2/DepthDuration/v2_depth_duration_MTurk/v2_DepthDuration_HTML.html#145,145,1366,768,1366,768,8-21-2022,6-40-9,28,depth_duration_stimuli/001175_2014-06-17_15-45-55_260595134347_rgbf000129-resize_4/001175_2014-06-17_15-45-55_260595134347_rgbf000129-resize_4-target.png,125,4.255,2,7530,163,meters,jsons/VE125_randls_61.json,890844,1072491,30,Woman
28,474252,DepthScenes,duration_manipulation_targetAtFixation,jsons/VE125_randls_61.json,http://54.235.29.9/FacialAge/BNav_EC2/DepthDuration/v2_depth_duration_MTurk/v2_DepthDuration_HTML.html#145,145,1366,768,1366,768,8-21-2022,6-40-9,29,depth_duration_stimuli/003490_2014-05-21_15-50-11_094959634447_rgbf000101-resize_3/003490_2014-05-21_15-50-11_094959634447_rgbf000101-resize_3-target.png,125,3.6445,3,4940,144,meters,jsons/VE125_randls_61.json,890844,1072491,30,Woman
29,474252,DepthScenes,duration_manipulation_targetAtFixation,jsons/VE125_randls_61.json,http://54.235.29.9/FacialAge/BNav_EC2/DepthDuration/v2_depth_duration_MTurk/v2_DepthDuration_HTML.html#145,145,1366,768,1366,768,8-21-2022,6-40-9,30,depth_duration_stimuli/000375_2014-06-08_11-17-29_260595134347_rgbf000133-resize_2/000375_2014-06-08_11-17-29_260595134347_rgbf000133-resize-original.jpg,125,4.718,5,4175,1,meters,jsons/VE125_randls_61.json,890844,1072491,30,Woman
30,474252,DepthScenes,duration_manipulation_targetAtFixation,jsons/VE125_randls_61.json,http://54.235.29.9/FacialAge/BNav_EC2/DepthDuration/v2_depth_duration_MTurk/v2_DepthDuration_HTML.html#145,145,1366,768,1366,768,8-21-2022,6-40-9,31,depth_duration_stimuli/001011_2014-06-08_23-18-54_260595134347_rgbf000044-resize_4/001011_2014-06-08_23-18-54_260595134347_rgbf000044-resize_4-target.png,125,2.4730000000000003,3,7941,134,meters,jsons/VE125_randls_61.json,890844,1072491,30,Woman
31,474252,DepthScenes,duration_manipulation_targetAtFixation,jsons/VE125_randls_61.json,http://54.235.29.9/FacialAge/BNav_EC2/DepthDuration/v2_depth_duration_MTurk/v2_DepthDuration_HTML.html#145,145,1366,768,1366,768,8-21-2022,6-40-9,32,depth_duration_stimuli/002875_2014-06-01_15-19-00_094959634447_rgbf000151-resize_1/002875_2014-06-01_15-19-00_094959634447_rgbf000151-resize_1-target.png,125,1.9675,2,3454,142,meters,jsons/VE125_randls_61.json,890844,1072491,30,Woman
32,474252,DepthScenes,duration_manipulation_targetAtFixation,jsons/VE125_randls_61.json,http://54.235.29.9/FacialAge/BNav_EC2/DepthDuration/v2_depth_duration_MTurk/v2_DepthDuration_HTML.html#145,145,1366,768,1366,768,8-21-2022,6-40-9,33,depth_duration_stimuli/002988_2014-06-15_12-24-20_094959634447_rgbf000150-resize_1/002988_2014-06-15_12-24-20_094959634447_rgbf000150-resize_1-target.png,125,4.7669999999999995,4,4768,160,meters,jsons/VE125_randls_61.json,890844,1072491,30,Woman
33,474252,DepthScenes,duration_manipulation_targetAtFixation,jsons/VE125_randls_61.json,http://54.235.29.9/FacialAge/BNav_EC2/DepthDuration/v2_depth_duration_MTurk/v2_DepthDuration_HTML.html#145,145,1366,768,1366,768,8-21-2022,6-40-9,34,depth_duration_stimuli/001052_2014-06-08_18-24-54_260595134347_rgbf000130-resize_1/001052_2014-06-08_18-24-54_260595134347_rgbf000130-resize_1-target.png,125,4.1045,3,5758,2,meters,jsons/VE125_randls_61.json,890844,1072491,30,Woman
34,474252,DepthScenes,duration_manipulation_targetAtFixation,jsons/VE125_randls_61.json,http://54.235.29.9/FacialAge/BNav_EC2/DepthDuration/v2_depth_duration_MTurk/v2_DepthDuration_HTML.html#145,145,1366,768,1366,768,8-21-2022,6-40-9,35,depth_duration_stimuli/002549_2014-06-24_13-41-39_094959634447_rgbf000022-resize_3/002549_2014-06-24_13-41-39_094959634447_rgbf000022-resize_3-target.png,125,1.476,4,4123,145,meters,jsons/VE125_randls_61.json,890844,1072491,30,Woman
35,474252,DepthScenes,duration_manipulation_targetAtFixation,jsons/VE125_randls_61.json,http://54.235.29.9/FacialAge/BNav_EC2/DepthDuration/v2_depth_duration_MTurk/v2_DepthDuration_HTML.html#145,145,1366,768,1366,768,8-21-2022,6-40-9,36,depth_duration_stimuli/002750_2014-06-22_19-08-03_094959634447_rgbf000094-resize_4/002750_2014-06-22_19-08-03_094959634447_rgbf000094-resize_4-target.png,125,2.354,5,3426,126,meters,jsons/VE125_randls_61.json,890844,1072491,30,Woman
36,474252,DepthScenes,duration_manipulation_targetAtFixation,jsons/VE125_randls_61.json,http://54.235.29.9/FacialAge/BNav_EC2/DepthDuration/v2_depth_duration_MTurk/v2_DepthDuration_HTML.html#145,145,1366,768,1366,768,8-21-2022,6-40-9,37,depth_duration_stimuli/002118_2014-06-25_20-32-08_260595134347_rgbf000078-resize_1/002118_2014-06-25_20-32-08_260595134347_rgbf000078-resize_1-target.png,125,2.6460000000000004,4,3549,335,meters,jsons/VE125_randls_61.json,890844,1072491,30,Woman
37,474252,DepthScenes,duration_manipulation_targetAtFixation,jsons/VE125_randls_61.json,http://54.235.29.9/FacialAge/BNav_EC2/DepthDuration/v2_depth_duration_MTurk/v2_DepthDuration_HTML.html#145,145,1366,768,1366,768,8-21-2022,6-40-9,38,depth_duration_stimuli/001516_2014-06-20_16-25-09_260595134347_rgbf000076-resize_2/001516_2014-06-20_16-25-09_260595134347_rgbf000076-resize_2-target.png,125,1.7445,2,4577,169,meters,jsons/VE125_randls_61.json,890844,1072491,30,Woman
38,474252,DepthScenes,duration_manipulation_targetAtFixation,jsons/VE125_randls_61.json,http://54.235.29.9/FacialAge/BNav_EC2/DepthDuration/v2_depth_duration_MTurk/v2_DepthDuration_HTML.html#145,145,1366,768,1366,768,8-21-2022,6-40-9,39,depth_duration_stimuli/002788_2014-06-22_19-36-03_094959634447_rgbf000088-resize_2/002788_2014-06-22_19-36-03_094959634447_rgbf000088-resize_2-target.png,125,1.6465,3,4474,198,meters,jsons/VE125_randls_61.json,890844,1072491,30,Woman
39,474252,DepthScenes,duration_manipulation_targetAtFixation,jsons/VE125_randls_61.json,http://54.235.29.9/FacialAge/BNav_EC2/DepthDuration/v2_depth_duration_MTurk/v2_DepthDuration_HTML.html#145,145,1366,768,1366,768,8-21-2022,6-40-9,40,depth_duration_stimuli/000749_2014-06-08_21-55-06_260595134347_rgbf000070-resize_2/000749_2014-06-08_21-55-06_260595134347_rgbf000070-resize_2-target.png,125,2.331,2,4206,9,meters,jsons/VE125_randls_61.json,890844,1072491,30,Woman
40,474252,DepthScenes,duration_manipulation_targetAtFixation,jsons/VE125_randls_61.json,http://54.235.29.9/FacialAge/BNav_EC2/DepthDuration/v2_depth_duration_MTurk/v2_DepthDuration_HTML.html#145,145,1366,768,1366,768,8-21-2022,6-40-9,41,depth_duration_stimuli/002445_2014-06-28_20-32-16_260595134347_rgbf000029-resize_4/002445_2014-06-28_20-32-16_260595134347_rgbf000029-resize_4-target.png,125,2.5315,3,3963,126,meters,jsons/VE125_randls_61.json,890844,1072491,30,Woman
41,474252,DepthScenes,duration_manipulation_targetAtFixation,jsons/VE125_randls_61.json,http://54.235.29.9/FacialAge/BNav_EC2/DepthDuration/v2_depth_duration_MTurk/v2_DepthDuration_HTML.html#145,145,1366,768,1366,768,8-21-2022,6-40-9,42,depth_duration_stimuli/000780_2014-06-08_22-28-29_260595134347_rgbf000126-resize_1/000780_2014-06-08_22-28-29_260595134347_rgbf000126-resize_1-target.png,125,3.3825,1,3907,124,meters,jsons/VE125_randls_61.json,890844,1072491,30,Woman
42,474252,DepthScenes,duration_manipulation_targetAtFixation,jsons/VE125_randls_61.json,http://54.235.29.9/FacialAge/BNav_EC2/DepthDuration/v2_depth_duration_MTurk/v2_DepthDuration_HTML.html#145,145,1366,768,1366,768,8-21-2022,6-40-9,43,depth_duration_stimuli/001055_2014-06-08_18-45-35_260595134347_rgbf000111-resize_4/001055_2014-06-08_18-45-35_260595134347_rgbf000111-resize_4-target.png,125,2.4290000000000003,2,5115,124,meters,jsons/VE125_randls_61.json,890844,1072491,30,Woman
43,474252,DepthScenes,duration_manipulation_targetAtFixation,jsons/VE125_randls_61.json,http://54.235.29.9/FacialAge/BNav_EC2/DepthDuration/v2_depth_duration_MTurk/v2_DepthDuration_HTML.html#145,145,1366,768,1366,768,8-21-2022,6-40-9,44,depth_duration_stimuli/000549_2014-06-08_22-10-24_260595134347_rgbf000247-resize_3/000549_2014-06-08_22-10-24_260595134347_rgbf000247-resize_3-target.png,125,1.841,3,4775,79,meters,jsons/VE125_randls_61.json,890844,1072491,30,Woman
44,474252,DepthScenes,duration_manipulation_targetAtFixation,jsons/VE125_randls_61.json,http://54.235.29.9/FacialAge/BNav_EC2/DepthDuration/v2_depth_duration_MTurk/v2_DepthDuration_HTML.html#145,145,1366,768,1366,768,8-21-2022,6-40-9,45,depth_duration_stimuli/000787_2014-06-08_22-33-53_260595134347_rgbf000175-resize_1/000787_2014-06-08_22-33-53_260595134347_rgbf000175-resize-original.jpg,125,4.784,2,3769,110,meters,jsons/VE125_randls_61.json,890844,1072491,30,Woman
45,474252,DepthScenes,duration_manipulation_targetAtFixation,jsons/VE125_randls_61.json,http://54.235.29.9/FacialAge/BNav_EC2/DepthDuration/v2_depth_duration_MTurk/v2_DepthDuration_HTML.html#145,145,1366,768,1366,768,8-21-2022,6-40-9,46,depth_duration_stimuli/002570_2014-06-24_13-59-54_094959634447_rgbf000059-resize_0/002570_2014-06-24_13-59-54_094959634447_rgbf000059-resize_0-target.png,125,4.037,4,4554,93,meters,jsons/VE125_randls_61.json,890844,1072491,30,Woman
46,474252,DepthScenes,duration_manipulation_targetAtFixation,jsons/VE125_randls_61.json,http://54.235.29.9/FacialAge/BNav_EC2/DepthDuration/v2_depth_duration_MTurk/v2_DepthDuration_HTML.html#145,145,1366,768,1366,768,8-21-2022,6-40-9,47,depth_duration_stimuli/002467_2014-06-28_20-38-07_260595134347_rgbf000026-resize_2/002467_2014-06-28_20-38-07_260595134347_rgbf000026-resize_2-target.png,125,4.742,5,6411,250,meters,jsons/VE125_randls_61.json,890844,1072491,30,Woman
47,474252,DepthScenes,duration_manipulation_targetAtFixation,jsons/VE125_randls_61.json,http://54.235.29.9/FacialAge/BNav_EC2/DepthDuration/v2_depth_duration_MTurk/v2_DepthDuration_HTML.html#145,145,1366,768,1366,768,8-21-2022,6-40-9,48,depth_duration_stimuli/003534_2014-05-22_15-06-10_094959634447_rgbf000102-resize_4/003534_2014-05-22_15-06-10_094959634447_rgbf000102-resize_4-target.png,125,1.426,2,3889,151,meters,jsons/VE125_randls_61.json,890844,1072491,30,Woman
48,474252,DepthScenes,duration_manipulation_targetAtFixation,jsons/VE125_randls_61.json,http://54.235.29.9/FacialAge/BNav_EC2/DepthDuration/v2_depth_duration_MTurk/v2_DepthDuration_HTML.html#145,145,1366,768,1366,768,8-21-2022,6-40-9,49,depth_duration_stimuli/002637_2014-06-24_14-51-13_094959634447_rgbf000066-resize_4/002637_2014-06-24_14-51-13_094959634447_rgbf000066-resize_4-target.png,125,1.9955,3,4691,132,meters,jsons/VE125_randls_61.json,890844,1072491,30,Woman
49,474252,DepthScenes,duration_manipulation_targetAtFixation,jsons/VE125_randls_61.json,http://54.235.29.9/FacialAge/BNav_EC2/DepthDuration/v2_depth_duration_MTurk/v2_DepthDuration_HTML.html#145,145,1366,768,1366,768,8-21-2022,6-40-9,50,depth_duration_stimuli/000486_2014-06-09_20-47-20_260595134347_rgbf000143-resize_2/000486_2014-06-09_20-47-20_260595134347_rgbf000143-resize_2-target.png,125,4.8325,2,3864,232,meters,jsons/VE125_randls_61.json,890844,1072491,30,Woman
50,474252,DepthScenes,duration_manipulation_targetAtFixation,jsons/VE125_randls_61.json,http://54.235.29.9/FacialAge/BNav_EC2/DepthDuration/v2_depth_duration_MTurk/v2_DepthDuration_HTML.html#145,145,1366,768,1366,768,8-21-2022,6-40-9,51,depth_duration_stimuli/003083_2014-06-15_15-21-03_094959634447_rgbf000063-resize_1/003083_2014-06-15_15-21-03_094959634447_rgbf000063-resize_1-target.png,125,4.1405,3,4003,142,meters,jsons/VE125_randls_61.json,890844,1072491,30,Woman
51,474252,DepthScenes,duration_manipulation_targetAtFixation,jsons/VE125_randls_61.json,http://54.235.29.9/FacialAge/BNav_EC2/DepthDuration/v2_depth_duration_MTurk/v2_DepthDuration_HTML.html#145,145,1366,768,1366,768,8-21-2022,6-40-9,52,depth_duration_stimuli/000773_2014-06-08_22-24-54_260595134347_rgbf000093-resize_1/000773_2014-06-08_22-24-54_260595134347_rgbf000093-resize_1-target.png,125,4.973,4,3928,120,meters,jsons/VE125_randls_61.json,890844,1072491,30,Woman
52,474252,DepthScenes,duration_manipulation_targetAtFixation,jsons/VE125_randls_61.json,http://54.235.29.9/FacialAge/BNav_EC2/DepthDuration/v2_depth_duration_MTurk/v2_DepthDuration_HTML.html#145,145,1366,768,1366,768,8-21-2022,6-40-9,53,depth_duration_stimuli/002414_2014-06-28_20-24-58_260595134347_rgbf000067-resize_4/002414_2014-06-28_20-24-58_260595134347_rgbf000067-resize_4-target.png,125,4.363,5,5044,119,meters,jsons/VE125_randls_61.json,890844,1072491,30,Woman
53,474252,DepthScenes,duration_manipulation_targetAtFixation,jsons/VE125_randls_61.json,http://54.235.29.9/FacialAge/BNav_EC2/DepthDuration/v2_depth_duration_MTurk/v2_DepthDuration_HTML.html#145,145,1366,768,1366,768,8-21-2022,6-40-9,54,depth_duration_stimuli/000506_2014-06-08_23-21-00_260595134347_rgbf000070-resize_7/000506_2014-06-08_23-21-00_260595134347_rgbf000070-resize_7-target.png,125,4.0585,3,4561,124,meters,jsons/VE125_randls_61.json,890844,1072491,30,Woman
54,474252,DepthScenes,duration_manipulation_targetAtFixation,jsons/VE125_randls_61.json,http://54.235.29.9/FacialAge/BNav_EC2/DepthDuration/v2_depth_duration_MTurk/v2_DepthDuration_HTML.html#145,145,1366,768,1366,768,8-21-2022,6-40-9,55,depth_duration_stimuli/003079_2014-06-15_15-18-20_094959634447_rgbf000152-resize_8/003079_2014-06-15_15-18-20_094959634447_rgbf000152-resize_8-target.png,125,2.8775,5,3234,270,meters,jsons/VE125_randls_61.json,890844,1072491,30,Woman
55,474252,DepthScenes,duration_manipulation_targetAtFixation,jsons/VE125_randls_61.json,http://54.235.29.9/FacialAge/BNav_EC2/DepthDuration/v2_depth_duration_MTurk/v2_DepthDuration_HTML.html#145,145,1366,768,1366,768,8-21-2022,6-40-9,56,depth_duration_stimuli/000642_2014-06-08_16-59-25_260595134347_rgbf000098-resize_2/000642_2014-06-08_16-59-25_260595134347_rgbf000098-resize_2-target.png,125,2.8815,2,3552,138,meters,jsons/VE125_randls_61.json,890844,1072491,30,Woman
56,474252,DepthScenes,duration_manipulation_targetAtFixation,jsons/VE125_randls_61.json,http://54.235.29.9/FacialAge/BNav_EC2/DepthDuration/v2_depth_duration_MTurk/v2_DepthDuration_HTML.html#145,145,1366,768,1366,768,8-21-2022,6-40-9,57,depth_duration_stimuli/002425_2014-06-28_20-27-29_260595134347_rgbf000031-resize_8/002425_2014-06-28_20-27-29_260595134347_rgbf000031-resize_8-target.png,125,3.8960000000000004,3,3231,159,meters,jsons/VE125_randls_61.json,890844,1072491,30,Woman
57,474252,DepthScenes,duration_manipulation_targetAtFixation,jsons/VE125_randls_61.json,http://54.235.29.9/FacialAge/BNav_EC2/DepthDuration/v2_depth_duration_MTurk/v2_DepthDuration_HTML.html#145,145,1366,768,1366,768,8-21-2022,6-40-9,58,depth_duration_stimuli/001110_2014-06-15_17-25-28_260595134347_rgbf000150-resize_1/001110_2014-06-15_17-25-28_260595134347_rgbf000150-resize_1-target.png,125,1.7115,4,3405,128,meters,jsons/VE125_randls_61.json,890844,1072491,30,Woman
58,474252,DepthScenes,duration_manipulation_targetAtFixation,jsons/VE125_randls_61.json,http://54.235.29.9/FacialAge/BNav_EC2/DepthDuration/v2_depth_duration_MTurk/v2_DepthDuration_HTML.html#145,145,1366,768,1366,768,8-21-2022,6-40-9,59,depth_duration_stimuli/000927_2014-06-09_16-32-30_260595134347_rgbf000123-resize_3/000927_2014-06-09_16-32-30_260595134347_rgbf000123-resize_3-target.png,125,2.6785,2,2496,53,meters,jsons/VE125_randls_61.json,890844,1072491,30,Woman
59,474252,DepthScenes,duration_manipulation_targetAtFixation,jsons/VE125_randls_61.json,http://54.235.29.9/FacialAge/BNav_EC2/DepthDuration/v2_depth_duration_MTurk/v2_DepthDuration_HTML.html#145,145,1366,768,1366,768,8-21-2022,6-40-9,60,depth_duration_stimuli/001056_2014-06-08_18-46-44_260595134347_rgbf000068-resize_0/001056_2014-06-08_18-46-44_260595134347_rgbf000068-resize_0-target.png,125,2.6625,3,7008,0,meters,jsons/VE125_randls_61.json,890844,1072491,30,Woman
60,474252,DepthScenes,duration_manipulation_targetAtFixation,jsons/VE125_randls_61.json,http://54.235.29.9/FacialAge/BNav_EC2/DepthDuration/v2_depth_duration_MTurk/v2_DepthDuration_HTML.html#145,145,1366,768,1366,768,8-21-2022,6-40-9,61,depth_duration_stimuli/002199_2014-06-28_18-33-56_260595134347_rgbf000074-resize_0/002199_2014-06-28_18-33-56_260595134347_rgbf000074-resize_0-target.png,125,1.996,5,3031,104,meters,jsons/VE125_randls_61.json,890844,1072491,30,Woman
61,474252,DepthScenes,duration_manipulation_targetAtFixation,jsons/VE125_randls_61.json,http://54.235.29.9/FacialAge/BNav_EC2/DepthDuration/v2_depth_duration_MTurk/v2_DepthDuration_HTML.html#145,145,1366,768,1366,768,8-21-2022,6-40-9,62,depth_duration_stimuli/002057_2014-06-24_21-00-13_260595134347_rgbf000120-resize_1/002057_2014-06-24_21-00-13_260595134347_rgbf000120-resize_1-target.png,125,2.967,2,4054,140,meters,jsons/VE125_randls_61.json,890844,1072491,30,Woman
62,474252,DepthScenes,duration_manipulation_targetAtFixation,jsons/VE125_randls_61.json,http://54.235.29.9/FacialAge/BNav_EC2/DepthDuration/v2_depth_duration_MTurk/v2_DepthDuration_HTML.html#145,145,1366,768,1366,768,8-21-2022,6-40-9,63,depth_duration_stimuli/000709_2014-06-08_13-51-55_260595134347_rgbf000068-resize_3/000709_2014-06-08_13-51-55_260595134347_rgbf000068-resize_3-target.png,125,1.8030000000000002,3,3138,155,meters,jsons/VE125_randls_61.json,890844,1072491,30,Woman
63,474252,DepthScenes,duration_manipulation_targetAtFixation,jsons/VE125_randls_61.json,http://54.235.29.9/FacialAge/BNav_EC2/DepthDuration/v2_depth_duration_MTurk/v2_DepthDuration_HTML.html#145,145,1366,768,1366,768,8-21-2022,6-40-9,64,depth_duration_stimuli/002784_2014-06-22_19-26-30_094959634447_rgbf000083-resize_3/002784_2014-06-22_19-26-30_094959634447_rgbf000083-resize_3-target.png,125,1.8046666666667,5,4140,107,meters,jsons/VE125_randls_61.json,890844,1072491,30,Woman
64,474252,DepthScenes,duration_manipulation_targetAtFixation,jsons/VE125_randls_61.json,http://54.235.29.9/FacialAge/BNav_EC2/DepthDuration/v2_depth_duration_MTurk/v2_DepthDuration_HTML.html#145,145,1366,768,1366,768,8-21-2022,6-40-9,65,depth_duration_stimuli/001100_2014-06-15_17-46-26_260595134347_rgbf000225-resize_2/001100_2014-06-15_17-46-26_260595134347_rgbf000225-resize_2-target.png,125,2.24,3,5386,198,meters,jsons/VE125_randls_61.json,890844,1072491,30,Woman
65,474252,DepthScenes,duration_manipulation_targetAtFixation,jsons/VE125_randls_61.json,http://54.235.29.9/FacialAge/BNav_EC2/DepthDuration/v2_depth_duration_MTurk/v2_DepthDuration_HTML.html#145,145,1366,768,1366,768,8-21-2022,6-40-9,66,depth_duration_stimuli/001222_2014-06-17_16-24-06_260595134347_rgbf000073-resize_0/001222_2014-06-17_16-24-06_260595134347_rgbf000073-resize-original.jpg,125,1.4385,2,4609,0,meters,jsons/VE125_randls_61.json,890844,1072491,30,Woman
66,474252,DepthScenes,duration_manipulation_targetAtFixation,jsons/VE125_randls_61.json,http://54.235.29.9/FacialAge/BNav_EC2/DepthDuration/v2_depth_duration_MTurk/v2_DepthDuration_HTML.html#145,145,1366,768,1366,768,8-21-2022,6-40-9,67,depth_duration_stimuli/002630_2014-06-24_14-47-50_094959634447_rgbf000055-resize_1/002630_2014-06-24_14-47-50_094959634447_rgbf000055-resize_1-target.png,125,3.0095,4,3525,124,meters,jsons/VE125_randls_61.json,890844,1072491,30,Woman
67,474252,DepthScenes,duration_manipulation_targetAtFixation,jsons/VE125_randls_61.json,http://54.235.29.9/FacialAge/BNav_EC2/DepthDuration/v2_depth_duration_MTurk/v2_DepthDuration_HTML.html#145,145,1366,768,1366,768,8-21-2022,6-40-9,68,depth_duration_stimuli/002758_2014-06-22_19-11-20_094959634447_rgbf000128-resize_1/002758_2014-06-22_19-11-20_094959634447_rgbf000128-resize_1-target.png,125,2.555,3,3071,93,meters,jsons/VE125_randls_61.json,890844,1072491,30,Woman
68,474252,DepthScenes,duration_manipulation_targetAtFixation,jsons/VE125_randls_61.json,http://54.235.29.9/FacialAge/BNav_EC2/DepthDuration/v2_depth_duration_MTurk/v2_DepthDuration_HTML.html#145,145,1366,768,1366,768,8-21-2022,6-40-9,69,depth_duration_stimuli/002375_2014-06-28_20-13-44_260595134347_rgbf000032-resize_1/002375_2014-06-28_20-13-44_260595134347_rgbf000032-resize_1-target.png,125,4.0175,5,3592,120,meters,jsons/VE125_randls_61.json,890844,1072491,30,Woman
69,474252,DepthScenes,duration_manipulation_targetAtFixation,jsons/VE125_randls_61.json,http://54.235.29.9/FacialAge/BNav_EC2/DepthDuration/v2_depth_duration_MTurk/v2_DepthDuration_HTML.html#145,145,1366,768,1366,768,8-21-2022,6-40-9,70,depth_duration_stimuli/002657_2014-06-13_15-29-54_094959634447_rgbf000150-resize_1/002657_2014-06-13_15-29-54_094959634447_rgbf000150-resize_1-target.png,125,4.919,6,3616,127,meters,jsons/VE125_randls_61.json,890844,1072491,30,Woman
70,474252,DepthScenes,duration_manipulation_targetAtFixation,jsons/VE125_randls_61.json,http://54.235.29.9/FacialAge/BNav_EC2/DepthDuration/v2_depth_duration_MTurk/v2_DepthDuration_HTML.html#145,145,1366,768,1366,768,8-21-2022,6-40-9,71,depth_duration_stimuli/003492_2014-05-21_15-50-55_094959634447_rgbf000828-resize_1/003492_2014-05-21_15-50-55_094959634447_rgbf000828-resize_1-target.png,125,4.06875,2,9485,101,meters,jsons/VE125_randls_61.json,890844,1072491,30,Woman
71,474252,DepthScenes,duration_manipulation_targetAtFixation,jsons/VE125_randls_61.json,http://54.235.29.9/FacialAge/BNav_EC2/DepthDuration/v2_depth_duration_MTurk/v2_DepthDuration_HTML.html#145,145,1366,768,1366,768,8-21-2022,6-40-9,72,depth_duration_stimuli/002568_2014-06-24_13-59-21_094959634447_rgbf000062-resize_4/002568_2014-06-24_13-59-21_094959634447_rgbf000062-resize_4-target.png,125,3.015,3,3243,319,meters,jsons/VE125_randls_61.json,890844,1072491,30,Woman
72,474252,DepthScenes,duration_manipulation_targetAtFixation,jsons/VE125_randls_61.json,http://54.235.29.9/FacialAge/BNav_EC2/DepthDuration/v2_depth_duration_MTurk/v2_DepthDuration_HTML.html#145,145,1366,768,1366,768,8-21-2022,6-40-9,73,depth_duration_stimuli/002763_2014-06-22_19-13-10_094959634447_rgbf000075-resize_4/002763_2014-06-22_19-13-10_094959634447_rgbf000075-resize_4-target.png,125,1.68375,3,3661,125,meters,jsons/VE125_randls_61.json,890844,1072491,30,Woman
73,474252,DepthScenes,duration_manipulation_targetAtFixation,jsons/VE125_randls_61.json,http://54.235.29.9/FacialAge/BNav_EC2/DepthDuration/v2_depth_duration_MTurk/v2_DepthDuration_HTML.html#145,145,1366,768,1366,768,8-21-2022,6-40-9,74,depth_duration_stimuli/002209_2014-06-28_18-36-10_260595134347_rgbf000051-resize_1/002209_2014-06-28_18-36-10_260595134347_rgbf000051-resize_1-target.png,125,2.057,3,5529,126,meters,jsons/VE125_randls_61.json,890844,1072491,30,Woman
74,474252,DepthScenes,duration_manipulation_targetAtFixation,jsons/VE125_randls_61.json,http://54.235.29.9/FacialAge/BNav_EC2/DepthDuration/v2_depth_duration_MTurk/v2_DepthDuration_HTML.html#145,145,1366,768,1366,768,8-21-2022,6-40-9,75,depth_duration_stimuli/001808_2014-06-26_20-50-58_260595134347_rgbf000029-resize_1/001808_2014-06-26_20-50-58_260595134347_rgbf000029-resize_1-target.png,125,4.249,2,5450,262,meters,jsons/VE125_randls_61.json,890844,1072491,30,Woman
75,474252,DepthScenes,duration_manipulation_targetAtFixation,jsons/VE125_randls_61.json,http://54.235.29.9/FacialAge/BNav_EC2/DepthDuration/v2_depth_duration_MTurk/v2_DepthDuration_HTML.html#145,145,1366,768,1366,768,8-21-2022,6-40-9,76,depth_duration_stimuli/001815_2014-06-26_20-52-55_260595134347_rgbf000020-resize_0/001815_2014-06-26_20-52-55_260595134347_rgbf000020-resize_0-target.png,125,3.3865,3,5632,22,meters,jsons/VE125_randls_61.json,890844,1072491,30,Woman
76,474252,DepthScenes,duration_manipulation_targetAtFixation,jsons/VE125_randls_61.json,http://54.235.29.9/FacialAge/BNav_EC2/DepthDuration/v2_depth_duration_MTurk/v2_DepthDuration_HTML.html#145,145,1366,768,1366,768,8-21-2022,6-40-9,77,depth_duration_stimuli/000788_2014-06-08_22-34-36_260595134347_rgbf000131-resize_1/000788_2014-06-08_22-34-36_260595134347_rgbf000131-resize_1-target.png,125,3.359,2,3757,124,meters,jsons/VE125_randls_61.json,890844,1072491,30,Woman
77,474252,DepthScenes,duration_manipulation_targetAtFixation,jsons/VE125_randls_61.json,http://54.235.29.9/FacialAge/BNav_EC2/DepthDuration/v2_depth_duration_MTurk/v2_DepthDuration_HTML.html#145,145,1366,768,1366,768,8-21-2022,6-40-9,78,depth_duration_stimuli/001235_2014-06-17_16-37-36_260595134347_rgbf000084-resize_4/001235_2014-06-17_16-37-36_260595134347_rgbf000084-resize_4-target.png,125,3.6605,4,2695,100,meters,jsons/VE125_randls_61.json,890844,1072491,30,Woman
78,474252,DepthScenes,duration_manipulation_targetAtFixation,jsons/VE125_randls_61.json,http://54.235.29.9/FacialAge/BNav_EC2/DepthDuration/v2_depth_duration_MTurk/v2_DepthDuration_HTML.html#145,145,1366,768,1366,768,8-21-2022,6-40-9,79,depth_duration_stimuli/000470_2014-06-09_19-42-40_260595134347_rgbf000094-resize_1/000470_2014-06-09_19-42-40_260595134347_rgbf000094-resize_1-target.png,125,1.831,5,7481,84,meters,jsons/VE125_randls_61.json,890844,1072491,30,Woman
79,474252,DepthScenes,duration_manipulation_targetAtFixation,jsons/VE125_randls_61.json,http://54.235.29.9/FacialAge/BNav_EC2/DepthDuration/v2_depth_duration_MTurk/v2_DepthDuration_HTML.html#145,145,1366,768,1366,768,8-21-2022,6-40-9,80,depth_duration_stimuli/000109_2014-05-14_23-41-52_260595134347_rgbf000035-resize_9/000109_2014-05-14_23-41-52_260595134347_rgbf000035-resize_9-target.png,125,1.3545,2,4499,53,meters,jsons/VE125_randls_61.json,890844,1072491,30,Woman
80,474252,DepthScenes,duration_manipulation_targetAtFixation,jsons/VE125_randls_61.json,http://54.235.29.9/FacialAge/BNav_EC2/DepthDuration/v2_depth_duration_MTurk/v2_DepthDuration_HTML.html#145,145,1366,768,1366,768,8-21-2022,6-40-9,81,depth_duration_stimuli/001150_2014-06-17_15-27-34_260595134347_rgbf000108-resize_2/001150_2014-06-17_15-27-34_260595134347_rgbf000108-resize_2-target.png,125,4.0325,3,4841,128,meters,jsons/VE125_randls_61.json,890844,1072491,30,Woman
81,474252,DepthScenes,duration_manipulation_targetAtFixation,jsons/VE125_randls_61.json,http://54.235.29.9/FacialAge/BNav_EC2/DepthDuration/v2_depth_duration_MTurk/v2_DepthDuration_HTML.html#145,145,1366,768,1366,768,8-21-2022,6-40-9,82,depth_duration_stimuli/000665_2014-06-09_20-42-35_260595134347_rgbf000110-resize_1/000665_2014-06-09_20-42-35_260595134347_rgbf000110-resize_1-target.png,125,3.057,2,3457,125,meters,jsons/VE125_randls_61.json,890844,1072491,30,Woman
82,474252,DepthScenes,duration_manipulation_targetAtFixation,jsons/VE125_randls_61.json,http://54.235.29.9/FacialAge/BNav_EC2/DepthDuration/v2_depth_duration_MTurk/v2_DepthDuration_HTML.html#145,145,1366,768,1366,768,8-21-2022,6-40-9,83,depth_duration_stimuli/000522_2014-06-08_13-35-06_260595134347_rgbf000244-resize_1/000522_2014-06-08_13-35-06_260595134347_rgbf000244-resize_1-target.png,125,2.3715,4,3451,147,meters,jsons/VE125_randls_61.json,890844,1072491,30,Woman
83,474252,DepthScenes,duration_manipulation_targetAtFixation,jsons/VE125_randls_61.json,http://54.235.29.9/FacialAge/BNav_EC2/DepthDuration/v2_depth_duration_MTurk/v2_DepthDuration_HTML.html#145,145,1366,768,1366,768,8-21-2022,6-40-9,84,depth_duration_stimuli/002949_2014-06-26_15-57-42_094959634447_rgbf000079-resize_1/002949_2014-06-26_15-57-42_094959634447_rgbf000079-resize_1-target.png,125,1.8915,5,3053,95,meters,jsons/VE125_randls_61.json,890844,1072491,30,Woman
84,474252,DepthScenes,duration_manipulation_targetAtFixation,jsons/VE125_randls_61.json,http://54.235.29.9/FacialAge/BNav_EC2/DepthDuration/v2_depth_duration_MTurk/v2_DepthDuration_HTML.html#145,145,1366,768,1366,768,8-21-2022,6-40-9,85,depth_duration_stimuli/000929_2014-06-09_16-33-19_260595134347_rgbf000139-resize_0/000929_2014-06-09_16-33-19_260595134347_rgbf000139-resize_0-target.png,125,2.8680000000000003,2,7811,90,meters,jsons/VE125_randls_61.json,890844,1072491,30,Woman
85,474252,DepthScenes,duration_manipulation_targetAtFixation,jsons/VE125_randls_61.json,http://54.235.29.9/FacialAge/BNav_EC2/DepthDuration/v2_depth_duration_MTurk/v2_DepthDuration_HTML.html#145,145,1366,768,1366,768,8-21-2022,6-40-9,86,depth_duration_stimuli/000457_2014-06-08_16-52-43_260595134347_rgbf000199-resize_1/000457_2014-06-08_16-52-43_260595134347_rgbf000199-resize_1-target.png,125,3.6489999999999996,3,3565,126,meters,jsons/VE125_randls_61.json,890844,1072491,30,Woman
86,474252,DepthScenes,duration_manipulation_targetAtFixation,jsons/VE125_randls_61.json,http://54.235.29.9/FacialAge/BNav_EC2/DepthDuration/v2_depth_duration_MTurk/v2_DepthDuration_HTML.html#145,145,1366,768,1366,768,8-21-2022,6-40-9,87,depth_duration_stimuli/001555_2014-06-20_17-12-10_260595134347_rgbf000065-resize_4/001555_2014-06-20_17-12-10_260595134347_rgbf000065-resize_4-target.png,125,1.633,2,4222,196,meters,jsons/VE125_randls_61.json,890844,1072491,30,Woman
87,474252,DepthScenes,duration_manipulation_targetAtFixation,jsons/VE125_randls_61.json,http://54.235.29.9/FacialAge/BNav_EC2/DepthDuration/v2_depth_duration_MTurk/v2_DepthDuration_HTML.html#145,145,1366,768,1366,768,8-21-2022,6-40-9,88,depth_duration_stimuli/000103_2014-05-14_22-01-17_260595134347_rgbf000152-resize_5/000103_2014-05-14_22-01-17_260595134347_rgbf000152-resize_5-target.png,125,1.993,4,3218,0,meters,jsons/VE125_randls_61.json,890844,1072491,30,Woman
88,474252,DepthScenes,duration_manipulation_targetAtFixation,jsons/VE125_randls_61.json,http://54.235.29.9/FacialAge/BNav_EC2/DepthDuration/v2_depth_duration_MTurk/v2_DepthDuration_HTML.html#145,145,1366,768,1366,768,8-21-2022,6-40-9,89,depth_duration_stimuli/002989_2014-06-15_12-25-03_094959634447_rgbf000150-resize_3/002989_2014-06-15_12-25-03_094959634447_rgbf000150-resize_3-target.png,125,4.1975,5,4004,354,meters,jsons/VE125_randls_61.json,890844,1072491,30,Woman
89,474252,DepthScenes,duration_manipulation_targetAtFixation,jsons/VE125_randls_61.json,http://54.235.29.9/FacialAge/BNav_EC2/DepthDuration/v2_depth_duration_MTurk/v2_DepthDuration_HTML.html#145,145,1366,768,1366,768,8-21-2022,6-40-9,90,depth_duration_stimuli/000866_2014-06-09_20-45-42_260595134347_rgbf000139-resize_1/000866_2014-06-09_20-45-42_260595134347_rgbf000139-resize_1-target.png,125,3.2155,2,4313,119,meters,jsons/VE125_randls_61.json,890844,1072491,30,Woman
90,474252,DepthScenes,duration_manipulation_targetAtFixation,jsons/VE125_randls_61.json,http://54.235.29.9/FacialAge/BNav_EC2/DepthDuration/v2_depth_duration_MTurk/v2_DepthDuration_HTML.html#145,145,1366,768,1366,768,8-21-2022,6-40-9,91,depth_duration_stimuli/001806_2014-06-26_20-50-20_260595134347_rgbf000091-resize_1/001806_2014-06-26_20-50-20_260595134347_rgbf000091-resize_1-target.png,125,2.7305,3,3663,114,meters,jsons/VE125_randls_61.json,890844,1072491,30,Woman
91,474252,DepthScenes,duration_manipulation_targetAtFixation,jsons/VE125_randls_61.json,http://54.235.29.9/FacialAge/BNav_EC2/DepthDuration/v2_depth_duration_MTurk/v2_DepthDuration_HTML.html#145,145,1366,768,1366,768,8-21-2022,6-40-9,92,depth_duration_stimuli/001617_2014-06-20_11-35-32_260595134347_rgbf000066-resize_1/001617_2014-06-20_11-35-32_260595134347_rgbf000066-resize_1-target.png,125,3.7910000000000004,1,3050,112,meters,jsons/VE125_randls_61.json,890844,1072491,30,Woman
92,474252,DepthScenes,duration_manipulation_targetAtFixation,jsons/VE125_randls_61.json,http://54.235.29.9/FacialAge/BNav_EC2/DepthDuration/v2_depth_duration_MTurk/v2_DepthDuration_HTML.html#145,145,1366,768,1366,768,8-21-2022,6-40-9,93,depth_duration_stimuli/000736_2014-06-08_18-24-15_260595134347_rgbf000206-resize_3/000736_2014-06-08_18-24-15_260595134347_rgbf000206-resize_3-target.png,125,3.515,4,3908,110,meters,jsons/VE125_randls_61.json,890844,1072491,30,Woman
93,474252,DepthScenes,duration_manipulation_targetAtFixation,jsons/VE125_randls_61.json,http://54.235.29.9/FacialAge/BNav_EC2/DepthDuration/v2_depth_duration_MTurk/v2_DepthDuration_HTML.html#145,145,1366,768,1366,768,8-21-2022,6-40-9,94,depth_duration_stimuli/000137_2014-05-20_17-04-49_260595134347_rgbf000120-resize_1/000137_2014-05-20_17-04-49_260595134347_rgbf000120-resize_1-target.png,125,3.786,3,4258,589,meters,jsons/VE125_randls_61.json,890844,1072491,30,Woman
94,474252,DepthScenes,duration_manipulation_targetAtFixation,jsons/VE125_randls_61.json,http://54.235.29.9/FacialAge/BNav_EC2/DepthDuration/v2_depth_duration_MTurk/v2_DepthDuration_HTML.html#145,145,1366,768,1366,768,8-21-2022,6-40-9,95,depth_duration_stimuli/002509_2014-06-24_13-19-22_094959634447_rgbf000077-resize_0/002509_2014-06-24_13-19-22_094959634447_rgbf000077-resize_0-target.png,125,1.3065,5,4744,129,meters,jsons/VE125_randls_61.json,890844,1072491,30,Woman
95,474252,DepthScenes,duration_manipulation_targetAtFixation,jsons/VE125_randls_61.json,http://54.235.29.9/FacialAge/BNav_EC2/DepthDuration/v2_depth_duration_MTurk/v2_DepthDuration_HTML.html#145,145,1366,768,1366,768,8-21-2022,6-40-9,96,depth_duration_stimuli/003338_2014-05-20_11-01-23_094959634447_rgbf000051-resize_6/003338_2014-05-20_11-01-23_094959634447_rgbf000051-resize_6-target.png,125,1.693,2,6755,119,meters,jsons/VE125_randls_61.json,890844,1072491,30,Woman
96,474252,DepthScenes,duration_manipulation_targetAtFixation,jsons/VE125_randls_61.json,http://54.235.29.9/FacialAge/BNav_EC2/DepthDuration/v2_depth_duration_MTurk/v2_DepthDuration_HTML.html#145,145,1366,768,1366,768,8-21-2022,6-40-9,97,depth_duration_stimuli/001417_2014-06-19_16-25-36_260595134347_rgbf000115-resize_5/001417_2014-06-19_16-25-36_260595134347_rgbf000115-resize_5-target.png,125,4.6255,3,8671,115,meters,jsons/VE125_randls_61.json,890844,1072491,30,Woman
97,474252,DepthScenes,duration_manipulation_targetAtFixation,jsons/VE125_randls_61.json,http://54.235.29.9/FacialAge/BNav_EC2/DepthDuration/v2_depth_duration_MTurk/v2_DepthDuration_HTML.html#145,145,1366,768,1366,768,8-21-2022,6-40-9,98,depth_duration_stimuli/003081_2014-06-15_15-19-16_094959634447_rgbf000150-resize_1/003081_2014-06-15_15-19-16_094959634447_rgbf000150-resize_1-target.png,125,3.9125,3,9324,290,meters,jsons/VE125_randls_61.json,890844,1072491,30,Woman
98,474252,DepthScenes,duration_manipulation_targetAtFixation,jsons/VE125_randls_61.json,http://54.235.29.9/FacialAge/BNav_EC2/DepthDuration/v2_depth_duration_MTurk/v2_DepthDuration_HTML.html#145,145,1366,768,1366,768,8-21-2022,6-40-9,99,depth_duration_stimuli/001540_2014-06-20_17-01-05_260595134347_rgbf000086-resize_2/001540_2014-06-20_17-01-05_260595134347_rgbf000086-resize-original.jpg,125,1.459,1,6775,112,meters,jsons/VE125_randls_61.json,890844,1072491,30,Woman
99,474252,DepthScenes,duration_manipulation_targetAtFixation,jsons/VE125_randls_61.json,http://54.235.29.9/FacialAge/BNav_EC2/DepthDuration/v2_depth_duration_MTurk/v2_DepthDuration_HTML.html#145,145,1366,768,1366,768,8-21-2022,6-40-9,100,depth_duration_stimuli/002663_2014-06-13_15-50-26_094959634447_rgbf000075-resize_1/002663_2014-06-13_15-50-26_094959634447_rgbf000075-resize_1-target.png,125,4.7495,3,5158,117,meters,jsons/VE125_randls_61.json,890844,1072491,30,Woman
100,474252,DepthScenes,duration_manipulation_targetAtFixation,jsons/VE125_randls_61.json,http://54.235.29.9/FacialAge/BNav_EC2/DepthDuration/v2_depth_duration_MTurk/v2_DepthDuration_HTML.html#145,145,1366,768,1366,768,8-21-2022,6-40-9,101,depth_duration_stimuli/000409_2014-06-04_19-23-33_260595134347_rgbf000067-resize_0/000409_2014-06-04_19-23-33_260595134347_rgbf000067-resize_0-target.png,125,3.7335,2,7492,147,meters,jsons/VE125_randls_61.json,890844,1072491,30,Woman
101,474252,DepthScenes,duration_manipulation_targetAtFixation,jsons/VE125_randls_61.json,http://54.235.29.9/FacialAge/BNav_EC2/DepthDuration/v2_depth_duration_MTurk/v2_DepthDuration_HTML.html#145,145,1366,768,1366,768,8-21-2022,6-40-9,102,depth_duration_stimuli/002043_2014-06-24_20-29-38_260595134347_rgbf000039-resize_4/002043_2014-06-24_20-29-38_260595134347_rgbf000039-resize_4-target.png,125,2.8435,3,7063,125,meters,jsons/VE125_randls_61.json,890844,1072491,30,Woman
102,474252,DepthScenes,duration_manipulation_targetAtFixation,jsons/VE125_randls_61.json,http://54.235.29.9/FacialAge/BNav_EC2/DepthDuration/v2_depth_duration_MTurk/v2_DepthDuration_HTML.html#145,145,1366,768,1366,768,8-21-2022,6-40-9,103,depth_duration_stimuli/003048_2014-06-15_13-49-43_094959634447_rgbf000150-resize_1/003048_2014-06-15_13-49-43_094959634447_rgbf000150-resize_1-target.png,125,4.0035,2,3209,151,meters,jsons/VE125_randls_61.json,890844,1072491,30,Woman
103,474252,DepthScenes,duration_manipulation_targetAtFixation,jsons/VE125_randls_61.json,http://54.235.29.9/FacialAge/BNav_EC2/DepthDuration/v2_depth_duration_MTurk/v2_DepthDuration_HTML.html#145,145,1366,768,1366,768,8-21-2022,6-40-9,104,depth_duration_stimuli/000414_2014-06-04_19-49-13_260595134347_rgbf000044-resize_0/000414_2014-06-04_19-49-13_260595134347_rgbf000044-resize_0-target.png,125,4.329,1,3854,236,meters,jsons/VE125_randls_61.json,890844,1072491,30,Woman
104,474252,DepthScenes,duration_manipulation_targetAtFixation,jsons/VE125_randls_61.json,http://54.235.29.9/FacialAge/BNav_EC2/DepthDuration/v2_depth_duration_MTurk/v2_DepthDuration_HTML.html#145,145,1366,768,1366,768,8-21-2022,6-40-9,105,depth_duration_stimuli/003129_2014-05-12_10-48-10_094959634447_rgbf000100-resize_0/003129_2014-05-12_10-48-10_094959634447_rgbf000100-resize_0-target.png,125,4.9305,2,3361,137,meters,jsons/VE125_randls_61.json,890844,1072491,30,Woman
105,474252,DepthScenes,duration_manipulation_targetAtFixation,jsons/VE125_randls_61.json,http://54.235.29.9/FacialAge/BNav_EC2/DepthDuration/v2_depth_duration_MTurk/v2_DepthDuration_HTML.html#145,145,1366,768,1366,768,8-21-2022,6-40-9,106,depth_duration_stimuli/002748_2014-06-22_19-07-22_094959634447_rgbf000078-resize_1/002748_2014-06-22_19-07-22_094959634447_rgbf000078-resize_1-target.png,125,4.6705,3,5871,107,meters,jsons/VE125_randls_61.json,890844,1072491,30,Woman
106,474252,DepthScenes,duration_manipulation_targetAtFixation,jsons/VE125_randls_61.json,http://54.235.29.9/FacialAge/BNav_EC2/DepthDuration/v2_depth_duration_MTurk/v2_DepthDuration_HTML.html#145,145,1366,768,1366,768,8-21-2022,6-40-9,107,depth_duration_stimuli/002995_2014-06-15_12-31-26_094959634447_rgbf000150-resize_1/002995_2014-06-15_12-31-26_094959634447_rgbf000150-resize_1-target.png,125,3.8360000000000003,2,2740,0,meters,jsons/VE125_randls_61.json,890844,1072491,30,Woman
107,474252,DepthScenes,duration_manipulation_targetAtFixation,jsons/VE125_randls_61.json,http://54.235.29.9/FacialAge/BNav_EC2/DepthDuration/v2_depth_duration_MTurk/v2_DepthDuration_HTML.html#145,145,1366,768,1366,768,8-21-2022,6-40-9,108,depth_duration_stimuli/000917_2014-06-09_22-45-29_260595134347_rgbf000149-resize_3/000917_2014-06-09_22-45-29_260595134347_rgbf000149-resize_3-target.png,125,4.1865,3,4248,125,meters,jsons/VE125_randls_61.json,890844,1072491,30,Woman
108,474252,DepthScenes,duration_manipulation_targetAtFixation,jsons/VE125_randls_61.json,http://54.235.29.9/FacialAge/BNav_EC2/DepthDuration/v2_depth_duration_MTurk/v2_DepthDuration_HTML.html#145,145,1366,768,1366,768,8-21-2022,6-40-9,109,depth_duration_stimuli/002323_2014-06-28_20-01-54_260595134347_rgbf000051-resize_4/002323_2014-06-28_20-01-54_260595134347_rgbf000051-resize_4-target.png,125,3.7310000000000003,2,3509,17,meters,jsons/VE125_randls_61.json,890844,1072491,30,Woman
109,474252,DepthScenes,duration_manipulation_targetAtFixation,jsons/VE125_randls_61.json,http://54.235.29.9/FacialAge/BNav_EC2/DepthDuration/v2_depth_duration_MTurk/v2_DepthDuration_HTML.html#145,145,1366,768,1366,768,8-21-2022,6-40-9,110,depth_duration_stimuli/000368_2014-06-09_15-53-01_260595134347_rgbf000155-resize_2/000368_2014-06-09_15-53-01_260595134347_rgbf000155-resize_2-target.png,125,2.4859999999999998,3,3780,158,meters,jsons/VE125_randls_61.json,890844,1072491,30,Woman
110,474252,DepthScenes,duration_manipulation_targetAtFixation,jsons/VE125_randls_61.json,http://54.235.29.9/FacialAge/BNav_EC2/DepthDuration/v2_depth_duration_MTurk/v2_DepthDuration_HTML.html#145,145,1366,768,1366,768,8-21-2022,6-40-9,111,depth_duration_stimuli/002678_2014-06-13_16-15-32_094959634447_rgbf000151-resize_6/002678_2014-06-13_16-15-32_094959634447_rgbf000151-resize_6-target.png,125,2.1830000000000003,5,3542,122,meters,jsons/VE125_randls_61.json,890844,1072491,30,Woman
111,474252,DepthScenes,duration_manipulation_targetAtFixation,jsons/VE125_randls_61.json,http://54.235.29.9/FacialAge/BNav_EC2/DepthDuration/v2_depth_duration_MTurk/v2_DepthDuration_HTML.html#145,145,1366,768,1366,768,8-21-2022,6-40-9,112,depth_duration_stimuli/003621_2014-05-23_18-06-08_094959634447_rgbf000101-resize_1/003621_2014-05-23_18-06-08_094959634447_rgbf000101-resize_1-target.png,125,3.9835,3,3724,120,meters,jsons/VE125_randls_61.json,890844,1072491,30,Woman
112,474252,DepthScenes,duration_manipulation_targetAtFixation,jsons/VE125_randls_61.json,http://54.235.29.9/FacialAge/BNav_EC2/DepthDuration/v2_depth_duration_MTurk/v2_DepthDuration_HTML.html#145,145,1366,768,1366,768,8-21-2022,6-40-9,113,depth_duration_stimuli/001584_2014-06-20_11-07-43_260595134347_rgbf000002-resize_1/001584_2014-06-20_11-07-43_260595134347_rgbf000002-resize_1-target.png,125,3.53,4,3357,1,meters,jsons/VE125_randls_61.json,890844,1072491,30,Woman
113,474252,DepthScenes,duration_manipulation_targetAtFixation,jsons/VE125_randls_61.json,http://54.235.29.9/FacialAge/BNav_EC2/DepthDuration/v2_depth_duration_MTurk/v2_DepthDuration_HTML.html#145,145,1366,768,1366,768,8-21-2022,6-40-9,114,depth_duration_stimuli/000878_2014-06-08_22-52-45_260595134347_rgbf000045-resize_2/000878_2014-06-08_22-52-45_260595134347_rgbf000045-resize_2-target.png,125,2.092,5,3513,119,meters,jsons/VE125_randls_61.json,890844,1072491,30,Woman
114,474252,DepthScenes,duration_manipulation_targetAtFixation,jsons/VE125_randls_61.json,http://54.235.29.9/FacialAge/BNav_EC2/DepthDuration/v2_depth_duration_MTurk/v2_DepthDuration_HTML.html#145,145,1366,768,1366,768,8-21-2022,6-40-9,115,depth_duration_stimuli/002953_2014-06-08_17-32-18_094959634447_rgbf000059-resize_5/002953_2014-06-08_17-32-18_094959634447_rgbf000059-resize_5-target.png,125,1.551,6,12361,213,meters,jsons/VE125_randls_61.json,890844,1072491,30,Woman
115,474252,DepthScenes,duration_manipulation_targetAtFixation,jsons/VE125_randls_61.json,http://54.235.29.9/FacialAge/BNav_EC2/DepthDuration/v2_depth_duration_MTurk/v2_DepthDuration_HTML.html#145,145,1366,768,1366,768,8-21-2022,6-40-9,116,depth_duration_stimuli/001170_2014-06-17_15-43-44_260595134347_rgbf000096-resize_6/001170_2014-06-17_15-43-44_260595134347_rgbf000096-resize-original.jpg,125,1.1909999999999998,3,7360,128,meters,jsons/VE125_randls_61.json,890844,1072491,30,Woman
116,474252,DepthScenes,duration_manipulation_targetAtFixation,jsons/VE125_randls_61.json,http://54.235.29.9/FacialAge/BNav_EC2/DepthDuration/v2_depth_duration_MTurk/v2_DepthDuration_HTML.html#145,145,1366,768,1366,768,8-21-2022,6-40-9,117,depth_duration_stimuli/001164_2014-06-17_15-35-46_260595134347_rgbf000085-resize_3/001164_2014-06-17_15-35-46_260595134347_rgbf000085-resize_3-target.png,125,2.354,2,7718,130,meters,jsons/VE125_randls_61.json,890844,1072491,30,Woman
117,474252,DepthScenes,duration_manipulation_targetAtFixation,jsons/VE125_randls_61.json,http://54.235.29.9/FacialAge/BNav_EC2/DepthDuration/v2_depth_duration_MTurk/v2_DepthDuration_HTML.html#145,145,1366,768,1366,768,8-21-2022,6-40-9,118,depth_duration_stimuli/001136_2014-06-17_15-19-41_260595134347_rgbf000076-resize_3/001136_2014-06-17_15-19-41_260595134347_rgbf000076-resize_3-target.png,125,1.8655,3,5018,141,meters,jsons/VE125_randls_61.json,890844,1072491,30,Woman
118,474252,DepthScenes,duration_manipulation_targetAtFixation,jsons/VE125_randls_61.json,http://54.235.29.9/FacialAge/BNav_EC2/DepthDuration/v2_depth_duration_MTurk/v2_DepthDuration_HTML.html#145,145,1366,768,1366,768,8-21-2022,6-40-9,119,depth_duration_stimuli/000009_2014-05-26_14-32-05_260595134347_rgbf000034-resize_3/000009_2014-05-26_14-32-05_260595134347_rgbf000034-resize_3-target.png,125,3.8715,3,5690,146,meters,jsons/VE125_randls_61.json,890844,1072491,30,Woman
119,474252,DepthScenes,duration_manipulation_targetAtFixation,jsons/VE125_randls_61.json,http://54.235.29.9/FacialAge/BNav_EC2/DepthDuration/v2_depth_duration_MTurk/v2_DepthDuration_HTML.html#145,145,1366,768,1366,768,8-21-2022,6-40-9,120,depth_duration_stimuli/001828_2014-06-26_21-40-03_260595134347_rgbf000024-resize_0/001828_2014-06-26_21-40-03_260595134347_rgbf000024-resize_0-target.png,125,4.8260000000000005,5,4310,98,meters,jsons/VE125_randls_61.json,890844,1072491,30,Woman
120,474252,DepthScenes,duration_manipulation_targetAtFixation,jsons/VE125_randls_61.json,http://54.235.29.9/FacialAge/BNav_EC2/DepthDuration/v2_depth_duration_MTurk/v2_DepthDuration_HTML.html#145,145,1366,768,1366,768,8-21-2022,6-40-9,121,depth_duration_stimuli/001133_2014-06-17_14-49-16_260595134347_rgbf000100-resize_0/001133_2014-06-17_14-49-16_260595134347_rgbf000100-resize_0-target.png,125,4.2115,3,3614,15,meters,jsons/VE125_randls_61.json,890844,1072491,30,Woman
121,474252,DepthScenes,duration_manipulation_targetAtFixation,jsons/VE125_randls_61.json,http://54.235.29.9/FacialAge/BNav_EC2/DepthDuration/v2_depth_duration_MTurk/v2_DepthDuration_HTML.html#145,145,1366,768,1366,768,8-21-2022,6-40-9,122,depth_duration_stimuli/001132_2014-06-17_14-48-54_260595134347_rgbf000100-resize_2/001132_2014-06-17_14-48-54_260595134347_rgbf000100-resize_2-target.png,125,3.753,1,4270,89,meters,jsons/VE125_randls_61.json,890844,1072491,30,Woman
122,474252,DepthScenes,duration_manipulation_targetAtFixation,jsons/VE125_randls_61.json,http://54.235.29.9/FacialAge/BNav_EC2/DepthDuration/v2_depth_duration_MTurk/v2_DepthDuration_HTML.html#145,145,1366,768,1366,768,8-21-2022,6-40-9,123,depth_duration_stimuli/003292_2014-05-14_21-53-49_094959634447_rgbf000100-resize_2/003292_2014-05-14_21-53-49_094959634447_rgbf000100-resize_2-target.png,125,3.4815,2,4208,132,meters,jsons/VE125_randls_61.json,890844,1072491,30,Woman
123,474252,DepthScenes,duration_manipulation_targetAtFixation,jsons/VE125_randls_61.json,http://54.235.29.9/FacialAge/BNav_EC2/DepthDuration/v2_depth_duration_MTurk/v2_DepthDuration_HTML.html#145,145,1366,768,1366,768,8-21-2022,6-40-9,124,depth_duration_stimuli/002639_2014-06-24_14-51-37_094959634447_rgbf000074-resize_4/002639_2014-06-24_14-51-37_094959634447_rgbf000074-resize_4-target.png,125,4.0375,3,3558,146,meters,jsons/VE125_randls_61.json,890844,1072491,30,Woman
124,474252,DepthScenes,duration_manipulation_targetAtFixation,jsons/VE125_randls_61.json,http://54.235.29.9/FacialAge/BNav_EC2/DepthDuration/v2_depth_duration_MTurk/v2_DepthDuration_HTML.html#145,145,1366,768,1366,768,8-21-2022,6-40-9,125,depth_duration_stimuli/001167_2014-06-17_15-38-07_260595134347_rgbf000108-resize_0/001167_2014-06-17_15-38-07_260595134347_rgbf000108-resize_0-target.png,125,1.8505,3,5381,136,meters,jsons/VE125_randls_61.json,890844,1072491,30,Woman
125,474252,DepthScenes,duration_manipulation_targetAtFixation,jsons/VE125_randls_61.json,http://54.235.29.9/FacialAge/BNav_EC2/DepthDuration/v2_depth_duration_MTurk/v2_DepthDuration_HTML.html#145,145,1366,768,1366,768,8-21-2022,6-40-9,126,depth_duration_stimuli/003587_2014-05-23_16-48-02_094959634447_rgbf002384-resize_2/003587_2014-05-23_16-48-02_094959634447_rgbf002384-resize_2-target.png,125,1.357,3,3244,142,meters,jsons/VE125_randls_61.json,890844,1072491,30,Woman
126,474252,DepthScenes,duration_manipulation_targetAtFixation,jsons/VE125_randls_61.json,http://54.235.29.9/FacialAge/BNav_EC2/DepthDuration/v2_depth_duration_MTurk/v2_DepthDuration_HTML.html#145,145,1366,768,1366,768,8-21-2022,6-40-9,127,depth_duration_stimuli/001158_2014-06-17_15-32-16_260595134347_rgbf000138-resize_2/001158_2014-06-17_15-32-16_260595134347_rgbf000138-resize_2-target.png,125,4.5315,2,4632,139,meters,jsons/VE125_randls_61.json,890844,1072491,30,Woman
127,474252,DepthScenes,duration_manipulation_targetAtFixation,jsons/VE125_randls_61.json,http://54.235.29.9/FacialAge/BNav_EC2/DepthDuration/v2_depth_duration_MTurk/v2_DepthDuration_HTML.html#145,145,1366,768,1366,768,8-21-2022,6-40-9,128,depth_duration_stimuli/000556_2014-06-09_22-42-56_260595134347_rgbf000214-resize_1/000556_2014-06-09_22-42-56_260595134347_rgbf000214-resize_1-target.png,125,4.8415,3,3449,123,meters,jsons/VE125_randls_61.json,890844,1072491,30,Woman
128,474252,DepthScenes,duration_manipulation_targetAtFixation,jsons/VE125_randls_61.json,http://54.235.29.9/FacialAge/BNav_EC2/DepthDuration/v2_depth_duration_MTurk/v2_DepthDuration_HTML.html#145,145,1366,768,1366,768,8-21-2022,6-40-9,129,depth_duration_stimuli/000469_2014-06-09_19-42-10_260595134347_rgbf000081-resize_1/000469_2014-06-09_19-42-10_260595134347_rgbf000081-resize_1-target.png,125,1.652,2,3895,130,meters,jsons/VE125_randls_61.json,890844,1072491,30,Woman
129,474252,DepthScenes,duration_manipulation_targetAtFixation,jsons/VE125_randls_61.json,http://54.235.29.9/FacialAge/BNav_EC2/DepthDuration/v2_depth_duration_MTurk/v2_DepthDuration_HTML.html#145,145,1366,768,1366,768,8-21-2022,6-40-9,130,depth_duration_stimuli/000483_2014-06-09_20-41-45_260595134347_rgbf000116-resize_4/000483_2014-06-09_20-41-45_260595134347_rgbf000116-resize_4-target.png,125,1.337,3,3815,58,meters,jsons/VE125_randls_61.json,890844,1072491,30,Woman
130,474252,DepthScenes,duration_manipulation_targetAtFixation,jsons/VE125_randls_61.json,http://54.235.29.9/FacialAge/BNav_EC2/DepthDuration/v2_depth_duration_MTurk/v2_DepthDuration_HTML.html#145,145,1366,768,1366,768,8-21-2022,6-40-9,131,depth_duration_stimuli/002272_2014-06-28_18-53-56_260595134347_rgbf000067-resize_2/002272_2014-06-28_18-53-56_260595134347_rgbf000067-resize_2-target.png,125,1.138,2,3716,0,meters,jsons/VE125_randls_61.json,890844,1072491,30,Woman
131,474252,DepthScenes,duration_manipulation_targetAtFixation,jsons/VE125_randls_61.json,http://54.235.29.9/FacialAge/BNav_EC2/DepthDuration/v2_depth_duration_MTurk/v2_DepthDuration_HTML.html#145,145,1366,768,1366,768,8-21-2022,6-40-9,132,depth_duration_stimuli/001571_2014-06-20_17-21-32_260595134347_rgbf000089-resize_1/001571_2014-06-20_17-21-32_260595134347_rgbf000089-resize_1-target.png,125,1.86,3,5782,103,meters,jsons/VE125_randls_61.json,890844,1072491,30,Woman
132,474252,DepthScenes,duration_manipulation_targetAtFixation,jsons/VE125_randls_61.json,http://54.235.29.9/FacialAge/BNav_EC2/DepthDuration/v2_depth_duration_MTurk/v2_DepthDuration_HTML.html#145,145,1366,768,1366,768,8-21-2022,6-40-9,133,depth_duration_stimuli/000906_2014-06-08_13-35-43_260595134347_rgbf000155-resize_1/000906_2014-06-08_13-35-43_260595134347_rgbf000155-resize_1-target.png,125,2.8489999999999998,3,14634,87,meters,jsons/VE125_randls_61.json,890844,1072491,30,Woman
133,474252,DepthScenes,duration_manipulation_targetAtFixation,jsons/VE125_randls_61.json,http://54.235.29.9/FacialAge/BNav_EC2/DepthDuration/v2_depth_duration_MTurk/v2_DepthDuration_HTML.html#145,145,1366,768,1366,768,8-21-2022,6-40-9,134,depth_duration_stimuli/002805_2014-06-22_19-54-03_094959634447_rgbf000079-resize_1/002805_2014-06-22_19-54-03_094959634447_rgbf000079-resize_1-target.png,125,3.1439999999999997,2,5766,112,meters,jsons/VE125_randls_61.json,890844,1072491,30,Woman
134,474252,DepthScenes,duration_manipulation_targetAtFixation,jsons/VE125_randls_61.json,http://54.235.29.9/FacialAge/BNav_EC2/DepthDuration/v2_depth_duration_MTurk/v2_DepthDuration_HTML.html#145,145,1366,768,1366,768,8-21-2022,6-40-9,135,depth_duration_stimuli/002072_2014-06-24_21-48-06_260595134347_rgbf000115-resize_0/002072_2014-06-24_21-48-06_260595134347_rgbf000115-resize-original.jpg,125,4.702,2,15485,261,meters,jsons/VE125_randls_61.json,890844,1072491,30,Woman
135,474252,DepthScenes,duration_manipulation_targetAtFixation,jsons/VE125_randls_61.json,http://54.235.29.9/FacialAge/BNav_EC2/DepthDuration/v2_depth_duration_MTurk/v2_DepthDuration_HTML.html#145,145,1366,768,1366,768,8-21-2022,6-40-9,136,depth_duration_stimuli/001016_2014-06-09_16-16-10_260595134347_rgbf000112-resize_5/001016_2014-06-09_16-16-10_260595134347_rgbf000112-resize_5-target.png,125,1.6565,3,2914,0,meters,jsons/VE125_randls_61.json,890844,1072491,30,Woman
136,474252,DepthScenes,duration_manipulation_targetAtFixation,jsons/VE125_randls_61.json,http://54.235.29.9/FacialAge/BNav_EC2/DepthDuration/v2_depth_duration_MTurk/v2_DepthDuration_HTML.html#145,145,1366,768,1366,768,8-21-2022,6-40-9,137,depth_duration_stimuli/002340_2014-06-28_20-05-46_260595134347_rgbf000113-resize_0/002340_2014-06-28_20-05-46_260595134347_rgbf000113-resize_0-target.png,125,2.4735,2,6709,128,meters,jsons/VE125_randls_61.json,890844,1072491,30,Woman
137,474252,DepthScenes,duration_manipulation_targetAtFixation,jsons/VE125_randls_61.json,http://54.235.29.9/FacialAge/BNav_EC2/DepthDuration/v2_depth_duration_MTurk/v2_DepthDuration_HTML.html#145,145,1366,768,1366,768,8-21-2022,6-40-9,138,depth_duration_stimuli/000810_2014-06-08_17-20-01_260595134347_rgbf000105-resize_0/000810_2014-06-08_17-20-01_260595134347_rgbf000105-resize_0-target.png,125,1.4865,3,6687,107,meters,jsons/VE125_randls_61.json,890844,1072491,30,Woman
138,474252,DepthScenes,duration_manipulation_targetAtFixation,jsons/VE125_randls_61.json,http://54.235.29.9/FacialAge/BNav_EC2/DepthDuration/v2_depth_duration_MTurk/v2_DepthDuration_HTML.html#145,145,1366,768,1366,768,8-21-2022,6-40-9,139,depth_duration_stimuli/001214_2014-06-17_16-13-55_260595134347_rgbf000111-resize_0/001214_2014-06-17_16-13-55_260595134347_rgbf000111-resize_0-target.png,125,2.6505,1,4424,107,meters,jsons/VE125_randls_61.json,890844,1072491,30,Woman
139,474252,DepthScenes,duration_manipulation_targetAtFixation,jsons/VE125_randls_61.json,http://54.235.29.9/FacialAge/BNav_EC2/DepthDuration/v2_depth_duration_MTurk/v2_DepthDuration_HTML.html#145,145,1366,768,1366,768,8-21-2022,6-40-9,140,depth_duration_stimuli/001810_2014-06-26_20-51-35_260595134347_rgbf000040-resize_3/001810_2014-06-26_20-51-35_260595134347_rgbf000040-resize_3-target.png,125,2.2525,2,3053,124,meters,jsons/VE125_randls_61.json,890844,1072491,30,Woman
140,474252,DepthScenes,duration_manipulation_targetAtFixation,jsons/VE125_randls_61.json,http://54.235.29.9/FacialAge/BNav_EC2/DepthDuration/v2_depth_duration_MTurk/v2_DepthDuration_HTML.html#145,145,1366,768,1366,768,8-21-2022,6-40-9,141,depth_duration_stimuli/003010_2014-06-15_12-54-35_094959634447_rgbf000112-resize_0/003010_2014-06-15_12-54-35_094959634447_rgbf000112-resize_0-target.png,125,3.1185,3,4239,128,meters,jsons/VE125_randls_61.json,890844,1072491,30,Woman
141,474252,DepthScenes,duration_manipulation_targetAtFixation,jsons/VE125_randls_61.json,http://54.235.29.9/FacialAge/BNav_EC2/DepthDuration/v2_depth_duration_MTurk/v2_DepthDuration_HTML.html#145,145,1366,768,1366,768,8-21-2022,6-40-9,142,depth_duration_stimuli/001059_2014-06-08_21-53-27_260595134347_rgbf000061-resize_4/001059_2014-06-08_21-53-27_260595134347_rgbf000061-resize_4-target.png,125,2.4185,2,7918,109,meters,jsons/VE125_randls_61.json,890844,1072491,30,Woman
142,474252,DepthScenes,duration_manipulation_targetAtFixation,jsons/VE125_randls_61.json,http://54.235.29.9/FacialAge/BNav_EC2/DepthDuration/v2_depth_duration_MTurk/v2_DepthDuration_HTML.html#145,145,1366,768,1366,768,8-21-2022,6-40-9,143,depth_duration_stimuli/001032_2014-06-08_13-23-17_260595134347_rgbf000021-resize_3/001032_2014-06-08_13-23-17_260595134347_rgbf000021-resize_3-target.png,125,3.2725,3,2989,0,meters,jsons/VE125_randls_61.json,890844,1072491,30,Woman
143,474252,DepthScenes,duration_manipulation_targetAtFixation,jsons/VE125_randls_61.json,http://54.235.29.9/FacialAge/BNav_EC2/DepthDuration/v2_depth_duration_MTurk/v2_DepthDuration_HTML.html#145,145,1366,768,1366,768,8-21-2022,6-40-9,144,depth_duration_stimuli/003070_2014-06-15_14-58-27_094959634447_rgbf000150-resize_3/003070_2014-06-15_14-58-27_094959634447_rgbf000150-resize_3-target.png,125,2.9415,2,3625,140,meters,jsons/VE125_randls_61.json,890844,1072491,30,Woman
144,474252,DepthScenes,duration_manipulation_targetAtFixation,jsons/VE125_randls_61.json,http://54.235.29.9/FacialAge/BNav_EC2/DepthDuration/v2_depth_duration_MTurk/v2_DepthDuration_HTML.html#145,145,1366,768,1366,768,8-21-2022,6-40-9,145,depth_duration_stimuli/000943_2014-06-09_19-31-07_260595134347_rgbf000128-resize_1/000943_2014-06-09_19-31-07_260595134347_rgbf000128-resize_1-target.png,125,1.9765,3,5369,123,meters,jsons/VE125_randls_61.json,890844,1072491,30,Woman
145,474252,DepthScenes,duration_manipulation_targetAtFixation,jsons/VE125_randls_61.json,http://54.235.29.9/FacialAge/BNav_EC2/DepthDuration/v2_depth_duration_MTurk/v2_DepthDuration_HTML.html#145,145,1366,768,1366,768,8-21-2022,6-40-9,146,depth_duration_stimuli/001498_2014-06-19_17-45-14_260595134347_rgbf000129-resize_4/001498_2014-06-19_17-45-14_260595134347_rgbf000129-resize-original.jpg,125,1.4075,2,3292,157,meters,jsons/VE125_randls_61.json,890844,1072491,30,Woman
146,474252,DepthScenes,duration_manipulation_targetAtFixation,jsons/VE125_randls_61.json,http://54.235.29.9/FacialAge/BNav_EC2/DepthDuration/v2_depth_duration_MTurk/v2_DepthDuration_HTML.html#145,145,1366,768,1366,768,8-21-2022,6-40-9,147,depth_duration_stimuli/002964_2014-06-08_17-46-11_094959634447_rgbf000091-resize_4/002964_2014-06-08_17-46-11_094959634447_rgbf000091-resize_4-target.png,125,1.6909999999999998,5,4159,99,meters,jsons/VE125_randls_61.json,890844,1072491,30,Woman
147,474252,DepthScenes,duration_manipulation_targetAtFixation,jsons/VE125_randls_61.json,http://54.235.29.9/FacialAge/BNav_EC2/DepthDuration/v2_depth_duration_MTurk/v2_DepthDuration_HTML.html#145,145,1366,768,1366,768,8-21-2022,6-40-9,148,depth_duration_stimuli/002136_2014-06-25_21-18-03_260595134347_rgbf000109-resize_3/002136_2014-06-25_21-18-03_260595134347_rgbf000109-resize_3-target.png,125,1.9569999999999999,6,3154,0,meters,jsons/VE125_randls_61.json,890844,1072491,30,Woman
148,474252,DepthScenes,duration_manipulation_targetAtFixation,jsons/VE125_randls_61.json,http://54.235.29.9/FacialAge/BNav_EC2/DepthDuration/v2_depth_duration_MTurk/v2_DepthDuration_HTML.html#145,145,1366,768,1366,768,8-21-2022,6-40-9,149,depth_duration_stimuli/002039_2014-06-24_20-22-38_260595134347_rgbf000084-resize_1/002039_2014-06-24_20-22-38_260595134347_rgbf000084-resize_1-target.png,125,4.408,5,3479,4,meters,jsons/VE125_randls_61.json,890844,1072491,30,Woman
149,474252,DepthScenes,duration_manipulation_targetAtFixation,jsons/VE125_randls_61.json,http://54.235.29.9/FacialAge/BNav_EC2/DepthDuration/v2_depth_duration_MTurk/v2_DepthDuration_HTML.html#145,145,1366,768,1366,768,8-21-2022,6-40-9,150,depth_duration_stimuli/002103_2014-06-25_20-00-40_260595134347_rgbf000049-resize_0/002103_2014-06-25_20-00-40_260595134347_rgbf000049-resize_0-target.png,125,4.105,2,3344,157,meters,jsons/VE125_randls_61.json,890844,1072491,30,Woman
150,474252,DepthScenes,duration_manipulation_targetAtFixation,jsons/VE125_randls_61.json,http://54.235.29.9/FacialAge/BNav_EC2/DepthDuration/v2_depth_duration_MTurk/v2_DepthDuration_HTML.html#145,145,1366,768,1366,768,8-21-2022,6-40-9,151,depth_duration_stimuli/001029_2014-06-08_13-17-57_260595134347_rgbf000065-resize_1/001029_2014-06-08_13-17-57_260595134347_rgbf000065-resize_1-target.png,125,3.0835,3,3943,125,meters,jsons/VE125_randls_61.json,890844,1072491,30,Woman
151,474252,DepthScenes,duration_manipulation_targetAtFixation,jsons/VE125_randls_61.json,http://54.235.29.9/FacialAge/BNav_EC2/DepthDuration/v2_depth_duration_MTurk/v2_DepthDuration_HTML.html#145,145,1366,768,1366,768,8-21-2022,6-40-9,152,depth_duration_stimuli/000677_2014-06-08_23-10-32_260595134347_rgbf000158-resize_6/000677_2014-06-08_23-10-32_260595134347_rgbf000158-resize_6-target.png,125,3.556,2,2947,227,meters,jsons/VE125_randls_61.json,890844,1072491,30,Woman
152,474252,DepthScenes,duration_manipulation_targetAtFixation,jsons/VE125_randls_61.json,http://54.235.29.9/FacialAge/BNav_EC2/DepthDuration/v2_depth_duration_MTurk/v2_DepthDuration_HTML.html#145,145,1366,768,1366,768,8-21-2022,6-40-9,153,depth_duration_stimuli/001199_2014-06-17_16-03-48_260595134347_rgbf000077-resize_0/001199_2014-06-17_16-03-48_260595134347_rgbf000077-resize_0-target.png,125,3.4375,3,5496,116,meters,jsons/VE125_randls_61.json,890844,1072491,30,Woman
153,474252,DepthScenes,duration_manipulation_targetAtFixation,jsons/VE125_randls_61.json,http://54.235.29.9/FacialAge/BNav_EC2/DepthDuration/v2_depth_duration_MTurk/v2_DepthDuration_HTML.html#145,145,1366,768,1366,768,8-21-2022,6-40-9,154,depth_duration_stimuli/000502_2014-06-08_23-02-32_260595134347_rgbf000063-resize_4/000502_2014-06-08_23-02-32_260595134347_rgbf000063-resize_4-target.png,125,2.431,3,3981,117,meters,jsons/VE125_randls_61.json,890844,1072491,30,Woman
154,474252,DepthScenes,duration_manipulation_targetAtFixation,jsons/VE125_randls_61.json,http://54.235.29.9/FacialAge/BNav_EC2/DepthDuration/v2_depth_duration_MTurk/v2_DepthDuration_HTML.html#145,145,1366,768,1366,768,8-21-2022,6-40-9,155,depth_duration_stimuli/001092_2014-06-15_17-34-58_260595134347_rgbf000171-resize_3/001092_2014-06-15_17-34-58_260595134347_rgbf000171-resize_3-target.png,125,2.6935,4,8364,202,meters,jsons/VE125_randls_61.json,890844,1072491,30,Woman
155,474252,DepthScenes,duration_manipulation_targetAtFixation,jsons/VE125_randls_61.json,http://54.235.29.9/FacialAge/BNav_EC2/DepthDuration/v2_depth_duration_MTurk/v2_DepthDuration_HTML.html#145,145,1366,768,1366,768,8-21-2022,6-40-9,156,depth_duration_stimuli/002545_2014-06-24_13-38-53_094959634447_rgbf000080-resize_4/002545_2014-06-24_13-38-53_094959634447_rgbf000080-resize_4-target.png,125,1.9205,5,3202,125,meters,jsons/VE125_randls_61.json,890844,1072491,30,Woman
156,474252,DepthScenes,duration_manipulation_targetAtFixation,jsons/VE125_randls_61.json,http://54.235.29.9/FacialAge/BNav_EC2/DepthDuration/v2_depth_duration_MTurk/v2_DepthDuration_HTML.html#145,145,1366,768,1366,768,8-21-2022,6-40-9,157,depth_duration_stimuli/002279_2014-06-28_18-55-32_260595134347_rgbf000040-resize_5/002279_2014-06-28_18-55-32_260595134347_rgbf000040-resize_5-target.png,125,1.5043333333333,5,3873,105,meters,jsons/VE125_randls_61.json,890844,1072491,30,Woman
157,474252,DepthScenes,duration_manipulation_targetAtFixation,jsons/VE125_randls_61.json,http://54.235.29.9/FacialAge/BNav_EC2/DepthDuration/v2_depth_duration_MTurk/v2_DepthDuration_HTML.html#145,145,1366,768,1366,768,8-21-2022,6-40-9,158,depth_duration_stimuli/000635_2014-06-08_16-38-42_260595134347_rgbf000106-resize_1/000635_2014-06-08_16-38-42_260595134347_rgbf000106-resize_1-target.png,125,2.074,2,8182,164,meters,jsons/VE125_randls_61.json,890844,1072491,30,Woman
158,474252,DepthScenes,duration_manipulation_targetAtFixation,jsons/VE125_randls_61.json,http://54.235.29.9/FacialAge/BNav_EC2/DepthDuration/v2_depth_duration_MTurk/v2_DepthDuration_HTML.html#145,145,1366,768,1366,768,8-21-2022,6-40-9,159,depth_duration_stimuli/002153_2014-06-25_21-27-18_260595134347_rgbf000038-resize_5/002153_2014-06-25_21-27-18_260595134347_rgbf000038-resize_5-target.png,125,2.505,3,3741,116,meters,jsons/VE125_randls_61.json,890844,1072491,30,Woman
159,474252,DepthScenes,duration_manipulation_targetAtFixation,jsons/VE125_randls_61.json,http://54.235.29.9/FacialAge/BNav_EC2/DepthDuration/v2_depth_duration_MTurk/v2_DepthDuration_HTML.html#145,145,1366,768,1366,768,8-21-2022,6-40-9,160,depth_duration_stimuli/002660_2014-06-13_15-44-18_094959634447_rgbf001878-resize_2/002660_2014-06-13_15-44-18_094959634447_rgbf001878-resize_2-target.png,125,3.576,2,2790,120,meters,jsons/VE125_randls_61.json,890844,1072491,30,Woman
160,474252,DepthScenes,duration_manipulation_targetAtFixation,jsons/VE125_randls_61.json,http://54.235.29.9/FacialAge/BNav_EC2/DepthDuration/v2_depth_duration_MTurk/v2_DepthDuration_HTML.html#145,145,1366,768,1366,768,8-21-2022,6-40-9,161,depth_duration_stimuli/000493_2014-06-09_21-01-18_260595134347_rgbf000196-resize_3/000493_2014-06-09_21-01-18_260595134347_rgbf000196-resize_3-target.png,125,3.44,2,2935,46,meters,jsons/VE125_randls_61.json,890844,1072491,30,Woman
161,474252,DepthScenes,duration_manipulation_targetAtFixation,jsons/VE125_randls_61.json,http://54.235.29.9/FacialAge/BNav_EC2/DepthDuration/v2_depth_duration_MTurk/v2_DepthDuration_HTML.html#145,145,1366,768,1366,768,8-21-2022,6-40-9,162,depth_duration_stimuli/000191_2014-05-12_17-07-38_260595134347_rgbf000199-resize_0/000191_2014-05-12_17-07-38_260595134347_rgbf000199-resize_0-target.png,125,3.7995,3,3363,94,meters,jsons/VE125_randls_61.json,890844,1072491,30,Woman
162,474252,DepthScenes,duration_manipulation_targetAtFixation,jsons/VE125_randls_61.json,http://54.235.29.9/FacialAge/BNav_EC2/DepthDuration/v2_depth_duration_MTurk/v2_DepthDuration_HTML.html#145,145,1366,768,1366,768,8-21-2022,6-40-9,163,depth_duration_stimuli/000739_2014-06-08_18-45-58_260595134347_rgbf000068-resize_1/000739_2014-06-08_18-45-58_260595134347_rgbf000068-resize_1-target.png,125,3.534,2,13503,103,meters,jsons/VE125_randls_61.json,890844,1072491,30,Woman
163,474252,DepthScenes,duration_manipulation_targetAtFixation,jsons/VE125_randls_61.json,http://54.235.29.9/FacialAge/BNav_EC2/DepthDuration/v2_depth_duration_MTurk/v2_DepthDuration_HTML.html#145,145,1366,768,1366,768,8-21-2022,6-40-9,164,depth_duration_stimuli/000734_2014-06-08_17-39-11_260595134347_rgbf000128-resize_2/000734_2014-06-08_17-39-11_260595134347_rgbf000128-resize_2-target.png,125,4.098,3,3722,128,meters,jsons/VE125_randls_61.json,890844,1072491,30,Woman
