,subjID,experimentName,versionName,sequenceName,url,selected_row,windowWidth,windowHeight,screenWidth,screenHeight,startDate,startTime,trial,stimulus,duration,actual_depth,depth_estimate,trial_RT,log_sceneDuration,unitSelection,seq_filepath,experimentTime,totalTime,age,gender
0,476196,DepthScenes,duration_manipulation_targetAtFixation,jsons/v1_VE1000_randls_72.json,http://54.235.29.9/FacialAge/BNav_EC2/DepthDuration/v2_depth_duration_MTurk/v2_DepthDuration_HTML.html#274,274,1366,768,1366,768,8-29-2022,10-2-59,1,depth_duration_stimuli/001449_2014-06-19_17-01-27_260595134347_rgbf000116-resize_2/001449_2014-06-19_17-01-27_260595134347_rgbf000116-resize_2-target.png,1000,3.452,0,4281,1007,meters,jsons/v1_VE1000_randls_72.json,602707,959429,29,Man
1,476196,DepthScenes,duration_manipulation_targetAtFixation,jsons/v1_VE1000_randls_72.json,http://54.235.29.9/FacialAge/BNav_EC2/DepthDuration/v2_depth_duration_MTurk/v2_DepthDuration_HTML.html#274,274,1366,768,1366,768,8-29-2022,10-2-59,2,depth_duration_stimuli/001450_2014-06-19_17-02-03_260595134347_rgbf000203-resize_4/001450_2014-06-19_17-02-03_260595134347_rgbf000203-resize_4-target.png,1000,4.0106666666667,0,3965,992,meters,jsons/v1_VE1000_randls_72.json,602707,959429,29,Man
2,476196,DepthScenes,duration_manipulation_targetAtFixation,jsons/v1_VE1000_randls_72.json,http://54.235.29.9/FacialAge/BNav_EC2/DepthDuration/v2_depth_duration_MTurk/v2_DepthDuration_HTML.html#274,274,1366,768,1366,768,8-29-2022,10-2-59,3,depth_duration_stimuli/001199_2014-06-17_16-03-48_260595134347_rgbf000077-resize_0/001199_2014-06-17_16-03-48_260595134347_rgbf000077-resize_0-target.png,1000,3.4375,0,3737,999,meters,jsons/v1_VE1000_randls_72.json,602707,959429,29,Man
3,476196,DepthScenes,duration_manipulation_targetAtFixation,jsons/v1_VE1000_randls_72.json,http://54.235.29.9/FacialAge/BNav_EC2/DepthDuration/v2_depth_duration_MTurk/v2_DepthDuration_HTML.html#274,274,1366,768,1366,768,8-29-2022,10-2-59,4,depth_duration_stimuli/000502_2014-06-08_23-02-32_260595134347_rgbf000063-resize_4/000502_2014-06-08_23-02-32_260595134347_rgbf000063-resize_4-target.png,1000,2.431,0,3591,1000,meters,jsons/v1_VE1000_randls_72.json,602707,959429,29,Man
4,476196,DepthScenes,duration_manipulation_targetAtFixation,jsons/v1_VE1000_randls_72.json,http://54.235.29.9/FacialAge/BNav_EC2/DepthDuration/v2_depth_duration_MTurk/v2_DepthDuration_HTML.html#274,274,1366,768,1366,768,8-29-2022,10-2-59,5,depth_duration_stimuli/000929_2014-06-09_16-33-19_260595134347_rgbf000139-resize_0/000929_2014-06-09_16-33-19_260595134347_rgbf000139-resize_0-target.png,1000,2.8680000000000003,0,3459,1002,meters,jsons/v1_VE1000_randls_72.json,602707,959429,29,Man
5,476196,DepthScenes,duration_manipulation_targetAtFixation,jsons/v1_VE1000_randls_72.json,http://54.235.29.9/FacialAge/BNav_EC2/DepthDuration/v2_depth_duration_MTurk/v2_DepthDuration_HTML.html#274,274,1366,768,1366,768,8-29-2022,10-2-59,6,depth_duration_stimuli/000457_2014-06-08_16-52-43_260595134347_rgbf000199-resize_1/000457_2014-06-08_16-52-43_260595134347_rgbf000199-resize_1-target.png,1000,3.6489999999999996,0,3355,1001,meters,jsons/v1_VE1000_randls_72.json,602707,959429,29,Man
6,476196,DepthScenes,duration_manipulation_targetAtFixation,jsons/v1_VE1000_randls_72.json,http://54.235.29.9/FacialAge/BNav_EC2/DepthDuration/v2_depth_duration_MTurk/v2_DepthDuration_HTML.html#274,274,1366,768,1366,768,8-29-2022,10-2-59,7,depth_duration_stimuli/000470_2014-06-09_19-42-40_260595134347_rgbf000094-resize_1/000470_2014-06-09_19-42-40_260595134347_rgbf000094-resize_1-target.png,1000,1.831,0,3532,996,meters,jsons/v1_VE1000_randls_72.json,602707,959429,29,Man
7,476196,DepthScenes,duration_manipulation_targetAtFixation,jsons/v1_VE1000_randls_72.json,http://54.235.29.9/FacialAge/BNav_EC2/DepthDuration/v2_depth_duration_MTurk/v2_DepthDuration_HTML.html#274,274,1366,768,1366,768,8-29-2022,10-2-59,8,depth_duration_stimuli/000109_2014-05-14_23-41-52_260595134347_rgbf000035-resize_9/000109_2014-05-14_23-41-52_260595134347_rgbf000035-resize_9-target.png,1000,1.3545,0,3670,1000,meters,jsons/v1_VE1000_randls_72.json,602707,959429,29,Man
8,476196,DepthScenes,duration_manipulation_targetAtFixation,jsons/v1_VE1000_randls_72.json,http://54.235.29.9/FacialAge/BNav_EC2/DepthDuration/v2_depth_duration_MTurk/v2_DepthDuration_HTML.html#274,274,1366,768,1366,768,8-29-2022,10-2-59,9,depth_duration_stimuli/001150_2014-06-17_15-27-34_260595134347_rgbf000108-resize_2/001150_2014-06-17_15-27-34_260595134347_rgbf000108-resize_2-target.png,1000,4.0325,0,3982,1000,meters,jsons/v1_VE1000_randls_72.json,602707,959429,29,Man
9,476196,DepthScenes,duration_manipulation_targetAtFixation,jsons/v1_VE1000_randls_72.json,http://54.235.29.9/FacialAge/BNav_EC2/DepthDuration/v2_depth_duration_MTurk/v2_DepthDuration_HTML.html#274,274,1366,768,1366,768,8-29-2022,10-2-59,10,depth_duration_stimuli/000665_2014-06-09_20-42-35_260595134347_rgbf000110-resize_1/000665_2014-06-09_20-42-35_260595134347_rgbf000110-resize_1-target.png,1000,3.057,0,3562,1012,meters,jsons/v1_VE1000_randls_72.json,602707,959429,29,Man
10,476196,DepthScenes,duration_manipulation_targetAtFixation,jsons/v1_VE1000_randls_72.json,http://54.235.29.9/FacialAge/BNav_EC2/DepthDuration/v2_depth_duration_MTurk/v2_DepthDuration_HTML.html#274,274,1366,768,1366,768,8-29-2022,10-2-59,11,depth_duration_stimuli/001016_2014-06-09_16-16-10_260595134347_rgbf000112-resize_5/001016_2014-06-09_16-16-10_260595134347_rgbf000112-resize_5-target.png,1000,1.6565,0,3847,1000,meters,jsons/v1_VE1000_randls_72.json,602707,959429,29,Man
11,476196,DepthScenes,duration_manipulation_targetAtFixation,jsons/v1_VE1000_randls_72.json,http://54.235.29.9/FacialAge/BNav_EC2/DepthDuration/v2_depth_duration_MTurk/v2_DepthDuration_HTML.html#274,274,1366,768,1366,768,8-29-2022,10-2-59,12,depth_duration_stimuli/002340_2014-06-28_20-05-46_260595134347_rgbf000113-resize_0/002340_2014-06-28_20-05-46_260595134347_rgbf000113-resize_0-target.png,1000,2.4735,0,5478,994,meters,jsons/v1_VE1000_randls_72.json,602707,959429,29,Man
12,476196,DepthScenes,duration_manipulation_targetAtFixation,jsons/v1_VE1000_randls_72.json,http://54.235.29.9/FacialAge/BNav_EC2/DepthDuration/v2_depth_duration_MTurk/v2_DepthDuration_HTML.html#274,274,1366,768,1366,768,8-29-2022,10-2-59,13,depth_duration_stimuli/000569_2014-06-09_22-51-47_260595134347_rgbf000141-resize_3/000569_2014-06-09_22-51-47_260595134347_rgbf000141-resize-original.jpg,1000,4.512,0,4367,988,meters,jsons/v1_VE1000_randls_72.json,602707,959429,29,Man
13,476196,DepthScenes,duration_manipulation_targetAtFixation,jsons/v1_VE1000_randls_72.json,http://54.235.29.9/FacialAge/BNav_EC2/DepthDuration/v2_depth_duration_MTurk/v2_DepthDuration_HTML.html#274,274,1366,768,1366,768,8-29-2022,10-2-59,14,depth_duration_stimuli/003492_2014-05-21_15-50-55_094959634447_rgbf000828-resize_1/003492_2014-05-21_15-50-55_094959634447_rgbf000828-resize_1-target.png,1000,4.06875,0,3229,990,meters,jsons/v1_VE1000_randls_72.json,602707,959429,29,Man
14,476196,DepthScenes,duration_manipulation_targetAtFixation,jsons/v1_VE1000_randls_72.json,http://54.235.29.9/FacialAge/BNav_EC2/DepthDuration/v2_depth_duration_MTurk/v2_DepthDuration_HTML.html#274,274,1366,768,1366,768,8-29-2022,10-2-59,15,depth_duration_stimuli/002568_2014-06-24_13-59-21_094959634447_rgbf000062-resize_4/002568_2014-06-24_13-59-21_094959634447_rgbf000062-resize_4-target.png,1000,3.015,0,3666,991,meters,jsons/v1_VE1000_randls_72.json,602707,959429,29,Man
15,476196,DepthScenes,duration_manipulation_targetAtFixation,jsons/v1_VE1000_randls_72.json,http://54.235.29.9/FacialAge/BNav_EC2/DepthDuration/v2_depth_duration_MTurk/v2_DepthDuration_HTML.html#274,274,1366,768,1366,768,8-29-2022,10-2-59,16,depth_duration_stimuli/002784_2014-06-22_19-26-30_094959634447_rgbf000083-resize_3/002784_2014-06-22_19-26-30_094959634447_rgbf000083-resize_3-target.png,1000,1.8046666666667,0,3245,1000,meters,jsons/v1_VE1000_randls_72.json,602707,959429,29,Man
16,476196,DepthScenes,duration_manipulation_targetAtFixation,jsons/v1_VE1000_randls_72.json,http://54.235.29.9/FacialAge/BNav_EC2/DepthDuration/v2_depth_duration_MTurk/v2_DepthDuration_HTML.html#274,274,1366,768,1366,768,8-29-2022,10-2-59,17,depth_duration_stimuli/001100_2014-06-15_17-46-26_260595134347_rgbf000225-resize_2/001100_2014-06-15_17-46-26_260595134347_rgbf000225-resize_2-target.png,1000,2.24,0,3366,1006,meters,jsons/v1_VE1000_randls_72.json,602707,959429,29,Man
17,476196,DepthScenes,duration_manipulation_targetAtFixation,jsons/v1_VE1000_randls_72.json,http://54.235.29.9/FacialAge/BNav_EC2/DepthDuration/v2_depth_duration_MTurk/v2_DepthDuration_HTML.html#274,274,1366,768,1366,768,8-29-2022,10-2-59,18,depth_duration_stimuli/001175_2014-06-17_15-45-55_260595134347_rgbf000129-resize_4/001175_2014-06-17_15-45-55_260595134347_rgbf000129-resize_4-target.png,1000,4.255,0,4261,999,meters,jsons/v1_VE1000_randls_72.json,602707,959429,29,Man
18,476196,DepthScenes,duration_manipulation_targetAtFixation,jsons/v1_VE1000_randls_72.json,http://54.235.29.9/FacialAge/BNav_EC2/DepthDuration/v2_depth_duration_MTurk/v2_DepthDuration_HTML.html#274,274,1366,768,1366,768,8-29-2022,10-2-59,19,depth_duration_stimuli/003490_2014-05-21_15-50-11_094959634447_rgbf000101-resize_3/003490_2014-05-21_15-50-11_094959634447_rgbf000101-resize_3-target.png,1000,3.6445,0,3574,997,meters,jsons/v1_VE1000_randls_72.json,602707,959429,29,Man
19,476196,DepthScenes,duration_manipulation_targetAtFixation,jsons/v1_VE1000_randls_72.json,http://54.235.29.9/FacialAge/BNav_EC2/DepthDuration/v2_depth_duration_MTurk/v2_DepthDuration_HTML.html#274,274,1366,768,1366,768,8-29-2022,10-2-59,20,depth_duration_stimuli/001110_2014-06-15_17-25-28_260595134347_rgbf000150-resize_1/001110_2014-06-15_17-25-28_260595134347_rgbf000150-resize_1-target.png,1000,1.7115,0,3849,1000,meters,jsons/v1_VE1000_randls_72.json,602707,959429,29,Man
20,476196,DepthScenes,duration_manipulation_targetAtFixation,jsons/v1_VE1000_randls_72.json,http://54.235.29.9/FacialAge/BNav_EC2/DepthDuration/v2_depth_duration_MTurk/v2_DepthDuration_HTML.html#274,274,1366,768,1366,768,8-29-2022,10-2-59,21,depth_duration_stimuli/000927_2014-06-09_16-32-30_260595134347_rgbf000123-resize_3/000927_2014-06-09_16-32-30_260595134347_rgbf000123-resize_3-target.png,1000,2.6785,0,3772,993,meters,jsons/v1_VE1000_randls_72.json,602707,959429,29,Man
21,476196,DepthScenes,duration_manipulation_targetAtFixation,jsons/v1_VE1000_randls_72.json,http://54.235.29.9/FacialAge/BNav_EC2/DepthDuration/v2_depth_duration_MTurk/v2_DepthDuration_HTML.html#274,274,1366,768,1366,768,8-29-2022,10-2-59,22,depth_duration_stimuli/002663_2014-06-13_15-50-26_094959634447_rgbf000075-resize_1/002663_2014-06-13_15-50-26_094959634447_rgbf000075-resize_1-target.png,1000,4.7495,0,3759,1000,meters,jsons/v1_VE1000_randls_72.json,602707,959429,29,Man
22,476196,DepthScenes,duration_manipulation_targetAtFixation,jsons/v1_VE1000_randls_72.json,http://54.235.29.9/FacialAge/BNav_EC2/DepthDuration/v2_depth_duration_MTurk/v2_DepthDuration_HTML.html#274,274,1366,768,1366,768,8-29-2022,10-2-59,23,depth_duration_stimuli/000409_2014-06-04_19-23-33_260595134347_rgbf000067-resize_0/000409_2014-06-04_19-23-33_260595134347_rgbf000067-resize_0-target.png,1000,3.7335,0,3548,1003,meters,jsons/v1_VE1000_randls_72.json,602707,959429,29,Man
23,476196,DepthScenes,duration_manipulation_targetAtFixation,jsons/v1_VE1000_randls_72.json,http://54.235.29.9/FacialAge/BNav_EC2/DepthDuration/v2_depth_duration_MTurk/v2_DepthDuration_HTML.html#274,274,1366,768,1366,768,8-29-2022,10-2-59,24,depth_duration_stimuli/000522_2014-06-08_13-35-06_260595134347_rgbf000244-resize_1/000522_2014-06-08_13-35-06_260595134347_rgbf000244-resize_1-target.png,1000,2.3715,0,3777,1008,meters,jsons/v1_VE1000_randls_72.json,602707,959429,29,Man
24,476196,DepthScenes,duration_manipulation_targetAtFixation,jsons/v1_VE1000_randls_72.json,http://54.235.29.9/FacialAge/BNav_EC2/DepthDuration/v2_depth_duration_MTurk/v2_DepthDuration_HTML.html#274,274,1366,768,1366,768,8-29-2022,10-2-59,25,depth_duration_stimuli/002949_2014-06-26_15-57-42_094959634447_rgbf000079-resize_1/002949_2014-06-26_15-57-42_094959634447_rgbf000079-resize_1-target.png,1000,1.8915,0,3432,1000,meters,jsons/v1_VE1000_randls_72.json,602707,959429,29,Man
25,476196,DepthScenes,duration_manipulation_targetAtFixation,jsons/v1_VE1000_randls_72.json,http://54.235.29.9/FacialAge/BNav_EC2/DepthDuration/v2_depth_duration_MTurk/v2_DepthDuration_HTML.html#274,274,1366,768,1366,768,8-29-2022,10-2-59,26,depth_duration_stimuli/001806_2014-06-26_20-50-20_260595134347_rgbf000091-resize_1/001806_2014-06-26_20-50-20_260595134347_rgbf000091-resize_1-target.png,1000,2.7305,0,5945,1013,meters,jsons/v1_VE1000_randls_72.json,602707,959429,29,Man
26,476196,DepthScenes,duration_manipulation_targetAtFixation,jsons/v1_VE1000_randls_72.json,http://54.235.29.9/FacialAge/BNav_EC2/DepthDuration/v2_depth_duration_MTurk/v2_DepthDuration_HTML.html#274,274,1366,768,1366,768,8-29-2022,10-2-59,27,depth_duration_stimuli/001617_2014-06-20_11-35-32_260595134347_rgbf000066-resize_1/001617_2014-06-20_11-35-32_260595134347_rgbf000066-resize_1-target.png,1000,3.7910000000000004,0,3774,991,meters,jsons/v1_VE1000_randls_72.json,602707,959429,29,Man
27,476196,DepthScenes,duration_manipulation_targetAtFixation,jsons/v1_VE1000_randls_72.json,http://54.235.29.9/FacialAge/BNav_EC2/DepthDuration/v2_depth_duration_MTurk/v2_DepthDuration_HTML.html#274,274,1366,768,1366,768,8-29-2022,10-2-59,28,depth_duration_stimuli/000414_2014-06-04_19-49-13_260595134347_rgbf000044-resize_0/000414_2014-06-04_19-49-13_260595134347_rgbf000044-resize_0-target.png,1000,4.329,0,3581,1000,meters,jsons/v1_VE1000_randls_72.json,602707,959429,29,Man
28,476196,DepthScenes,duration_manipulation_targetAtFixation,jsons/v1_VE1000_randls_72.json,http://54.235.29.9/FacialAge/BNav_EC2/DepthDuration/v2_depth_duration_MTurk/v2_DepthDuration_HTML.html#274,274,1366,768,1366,768,8-29-2022,10-2-59,29,depth_duration_stimuli/003129_2014-05-12_10-48-10_094959634447_rgbf000100-resize_0/003129_2014-05-12_10-48-10_094959634447_rgbf000100-resize_0-target.png,1000,4.9305,0,3350,999,meters,jsons/v1_VE1000_randls_72.json,602707,959429,29,Man
29,476196,DepthScenes,duration_manipulation_targetAtFixation,jsons/v1_VE1000_randls_72.json,http://54.235.29.9/FacialAge/BNav_EC2/DepthDuration/v2_depth_duration_MTurk/v2_DepthDuration_HTML.html#274,274,1366,768,1366,768,8-29-2022,10-2-59,30,depth_duration_stimuli/000375_2014-06-08_11-17-29_260595134347_rgbf000133-resize_2/000375_2014-06-08_11-17-29_260595134347_rgbf000133-resize-original.jpg,1000,4.718,0,8223,995,meters,jsons/v1_VE1000_randls_72.json,602707,959429,29,Man
30,476196,DepthScenes,duration_manipulation_targetAtFixation,jsons/v1_VE1000_randls_72.json,http://54.235.29.9/FacialAge/BNav_EC2/DepthDuration/v2_depth_duration_MTurk/v2_DepthDuration_HTML.html#274,274,1366,768,1366,768,8-29-2022,10-2-59,31,depth_duration_stimuli/001164_2014-06-17_15-35-46_260595134347_rgbf000085-resize_3/001164_2014-06-17_15-35-46_260595134347_rgbf000085-resize_3-target.png,1000,2.354,0,3682,1004,meters,jsons/v1_VE1000_randls_72.json,602707,959429,29,Man
31,476196,DepthScenes,duration_manipulation_targetAtFixation,jsons/v1_VE1000_randls_72.json,http://54.235.29.9/FacialAge/BNav_EC2/DepthDuration/v2_depth_duration_MTurk/v2_DepthDuration_HTML.html#274,274,1366,768,1366,768,8-29-2022,10-2-59,32,depth_duration_stimuli/001136_2014-06-17_15-19-41_260595134347_rgbf000076-resize_3/001136_2014-06-17_15-19-41_260595134347_rgbf000076-resize_3-target.png,1000,1.8655,0,3399,993,meters,jsons/v1_VE1000_randls_72.json,602707,959429,29,Man
32,476196,DepthScenes,duration_manipulation_targetAtFixation,jsons/v1_VE1000_randls_72.json,http://54.235.29.9/FacialAge/BNav_EC2/DepthDuration/v2_depth_duration_MTurk/v2_DepthDuration_HTML.html#274,274,1366,768,1366,768,8-29-2022,10-2-59,33,depth_duration_stimuli/001808_2014-06-26_20-50-58_260595134347_rgbf000029-resize_1/001808_2014-06-26_20-50-58_260595134347_rgbf000029-resize_1-target.png,1000,4.249,0,4042,1008,meters,jsons/v1_VE1000_randls_72.json,602707,959429,29,Man
33,476196,DepthScenes,duration_manipulation_targetAtFixation,jsons/v1_VE1000_randls_72.json,http://54.235.29.9/FacialAge/BNav_EC2/DepthDuration/v2_depth_duration_MTurk/v2_DepthDuration_HTML.html#274,274,1366,768,1366,768,8-29-2022,10-2-59,34,depth_duration_stimuli/001815_2014-06-26_20-52-55_260595134347_rgbf000020-resize_0/001815_2014-06-26_20-52-55_260595134347_rgbf000020-resize_0-target.png,1000,3.3865,0,3395,988,meters,jsons/v1_VE1000_randls_72.json,602707,959429,29,Man
34,476196,DepthScenes,duration_manipulation_targetAtFixation,jsons/v1_VE1000_randls_72.json,http://54.235.29.9/FacialAge/BNav_EC2/DepthDuration/v2_depth_duration_MTurk/v2_DepthDuration_HTML.html#274,274,1366,768,1366,768,8-29-2022,10-2-59,35,depth_duration_stimuli/000486_2014-06-09_20-47-20_260595134347_rgbf000143-resize_2/000486_2014-06-09_20-47-20_260595134347_rgbf000143-resize_2-target.png,1000,4.8325,0,3438,998,meters,jsons/v1_VE1000_randls_72.json,602707,959429,29,Man
35,476196,DepthScenes,duration_manipulation_targetAtFixation,jsons/v1_VE1000_randls_72.json,http://54.235.29.9/FacialAge/BNav_EC2/DepthDuration/v2_depth_duration_MTurk/v2_DepthDuration_HTML.html#274,274,1366,768,1366,768,8-29-2022,10-2-59,36,depth_duration_stimuli/003083_2014-06-15_15-21-03_094959634447_rgbf000063-resize_1/003083_2014-06-15_15-21-03_094959634447_rgbf000063-resize_1-target.png,1000,4.1405,0,4326,993,meters,jsons/v1_VE1000_randls_72.json,602707,959429,29,Man
36,476196,DepthScenes,duration_manipulation_targetAtFixation,jsons/v1_VE1000_randls_72.json,http://54.235.29.9/FacialAge/BNav_EC2/DepthDuration/v2_depth_duration_MTurk/v2_DepthDuration_HTML.html#274,274,1366,768,1366,768,8-29-2022,10-2-59,37,depth_duration_stimuli/001092_2014-06-15_17-34-58_260595134347_rgbf000171-resize_3/001092_2014-06-15_17-34-58_260595134347_rgbf000171-resize_3-target.png,1000,2.6935,0,3566,1000,meters,jsons/v1_VE1000_randls_72.json,602707,959429,29,Man
37,476196,DepthScenes,duration_manipulation_targetAtFixation,jsons/v1_VE1000_randls_72.json,http://54.235.29.9/FacialAge/BNav_EC2/DepthDuration/v2_depth_duration_MTurk/v2_DepthDuration_HTML.html#274,274,1366,768,1366,768,8-29-2022,10-2-59,38,depth_duration_stimuli/002545_2014-06-24_13-38-53_094959634447_rgbf000080-resize_4/002545_2014-06-24_13-38-53_094959634447_rgbf000080-resize_4-target.png,1000,1.9205,0,3355,992,meters,jsons/v1_VE1000_randls_72.json,602707,959429,29,Man
38,476196,DepthScenes,duration_manipulation_targetAtFixation,jsons/v1_VE1000_randls_72.json,http://54.235.29.9/FacialAge/BNav_EC2/DepthDuration/v2_depth_duration_MTurk/v2_DepthDuration_HTML.html#274,274,1366,768,1366,768,8-29-2022,10-2-59,39,depth_duration_stimuli/000739_2014-06-08_18-45-58_260595134347_rgbf000068-resize_1/000739_2014-06-08_18-45-58_260595134347_rgbf000068-resize_1-target.png,1000,3.534,0,5150,1006,meters,jsons/v1_VE1000_randls_72.json,602707,959429,29,Man
39,476196,DepthScenes,duration_manipulation_targetAtFixation,jsons/v1_VE1000_randls_72.json,http://54.235.29.9/FacialAge/BNav_EC2/DepthDuration/v2_depth_duration_MTurk/v2_DepthDuration_HTML.html#274,274,1366,768,1366,768,8-29-2022,10-2-59,40,depth_duration_stimuli/000734_2014-06-08_17-39-11_260595134347_rgbf000128-resize_2/000734_2014-06-08_17-39-11_260595134347_rgbf000128-resize_2-target.png,1000,4.098,0,3765,999,meters,jsons/v1_VE1000_randls_72.json,602707,959429,29,Man
40,476196,DepthScenes,duration_manipulation_targetAtFixation,jsons/v1_VE1000_randls_72.json,http://54.235.29.9/FacialAge/BNav_EC2/DepthDuration/v2_depth_duration_MTurk/v2_DepthDuration_HTML.html#274,274,1366,768,1366,768,8-29-2022,10-2-59,41,depth_duration_stimuli/001167_2014-06-17_15-38-07_260595134347_rgbf000108-resize_0/001167_2014-06-17_15-38-07_260595134347_rgbf000108-resize_0-target.png,1000,1.8505,0,3833,1002,meters,jsons/v1_VE1000_randls_72.json,602707,959429,29,Man
41,476196,DepthScenes,duration_manipulation_targetAtFixation,jsons/v1_VE1000_randls_72.json,http://54.235.29.9/FacialAge/BNav_EC2/DepthDuration/v2_depth_duration_MTurk/v2_DepthDuration_HTML.html#274,274,1366,768,1366,768,8-29-2022,10-2-59,42,depth_duration_stimuli/003587_2014-05-23_16-48-02_094959634447_rgbf002384-resize_2/003587_2014-05-23_16-48-02_094959634447_rgbf002384-resize_2-target.png,1000,1.357,0,3059,992,meters,jsons/v1_VE1000_randls_72.json,602707,959429,29,Man
42,476196,DepthScenes,duration_manipulation_targetAtFixation,jsons/v1_VE1000_randls_72.json,http://54.235.29.9/FacialAge/BNav_EC2/DepthDuration/v2_depth_duration_MTurk/v2_DepthDuration_HTML.html#274,274,1366,768,1366,768,8-29-2022,10-2-59,43,depth_duration_stimuli/002213_2014-06-28_18-37-58_260595134347_rgbf000055-resize_1/002213_2014-06-28_18-37-58_260595134347_rgbf000055-resize_1-target.png,1000,3.62,0,3004,1000,meters,jsons/v1_VE1000_randls_72.json,602707,959429,29,Man
43,476196,DepthScenes,duration_manipulation_targetAtFixation,jsons/v1_VE1000_randls_72.json,http://54.235.29.9/FacialAge/BNav_EC2/DepthDuration/v2_depth_duration_MTurk/v2_DepthDuration_HTML.html#274,274,1366,768,1366,768,8-29-2022,10-2-59,44,depth_duration_stimuli/000691_2014-06-08_13-08-50_260595134347_rgbf000132-resize_3/000691_2014-06-08_13-08-50_260595134347_rgbf000132-resize_3-target.png,1000,4.1530000000000005,0,2798,1000,meters,jsons/v1_VE1000_randls_72.json,602707,959429,29,Man
44,476196,DepthScenes,duration_manipulation_targetAtFixation,jsons/v1_VE1000_randls_72.json,http://54.235.29.9/FacialAge/BNav_EC2/DepthDuration/v2_depth_duration_MTurk/v2_DepthDuration_HTML.html#274,274,1366,768,1366,768,8-29-2022,10-2-59,45,depth_duration_stimuli/000787_2014-06-08_22-33-53_260595134347_rgbf000175-resize_1/000787_2014-06-08_22-33-53_260595134347_rgbf000175-resize-original.jpg,1000,4.784,0,2809,998,meters,jsons/v1_VE1000_randls_72.json,602707,959429,29,Man
45,476196,DepthScenes,duration_manipulation_targetAtFixation,jsons/v1_VE1000_randls_72.json,http://54.235.29.9/FacialAge/BNav_EC2/DepthDuration/v2_depth_duration_MTurk/v2_DepthDuration_HTML.html#274,274,1366,768,1366,768,8-29-2022,10-2-59,46,depth_duration_stimuli/000788_2014-06-08_22-34-36_260595134347_rgbf000131-resize_1/000788_2014-06-08_22-34-36_260595134347_rgbf000131-resize_1-target.png,1000,3.359,0,2758,1003,meters,jsons/v1_VE1000_randls_72.json,602707,959429,29,Man
46,476196,DepthScenes,duration_manipulation_targetAtFixation,jsons/v1_VE1000_randls_72.json,http://54.235.29.9/FacialAge/BNav_EC2/DepthDuration/v2_depth_duration_MTurk/v2_DepthDuration_HTML.html#274,274,1366,768,1366,768,8-29-2022,10-2-59,47,depth_duration_stimuli/001235_2014-06-17_16-37-36_260595134347_rgbf000084-resize_4/001235_2014-06-17_16-37-36_260595134347_rgbf000084-resize_4-target.png,1000,3.6605,0,2749,1000,meters,jsons/v1_VE1000_randls_72.json,602707,959429,29,Man
47,476196,DepthScenes,duration_manipulation_targetAtFixation,jsons/v1_VE1000_randls_72.json,http://54.235.29.9/FacialAge/BNav_EC2/DepthDuration/v2_depth_duration_MTurk/v2_DepthDuration_HTML.html#274,274,1366,768,1366,768,8-29-2022,10-2-59,48,depth_duration_stimuli/001056_2014-06-08_18-46-44_260595134347_rgbf000068-resize_0/001056_2014-06-08_18-46-44_260595134347_rgbf000068-resize_0-target.png,1000,2.6625,0,2800,997,meters,jsons/v1_VE1000_randls_72.json,602707,959429,29,Man
48,476196,DepthScenes,duration_manipulation_targetAtFixation,jsons/v1_VE1000_randls_72.json,http://54.235.29.9/FacialAge/BNav_EC2/DepthDuration/v2_depth_duration_MTurk/v2_DepthDuration_HTML.html#274,274,1366,768,1366,768,8-29-2022,10-2-59,49,depth_duration_stimuli/002199_2014-06-28_18-33-56_260595134347_rgbf000074-resize_0/002199_2014-06-28_18-33-56_260595134347_rgbf000074-resize_0-target.png,1000,1.996,0,2811,987,meters,jsons/v1_VE1000_randls_72.json,602707,959429,29,Man
49,476196,DepthScenes,duration_manipulation_targetAtFixation,jsons/v1_VE1000_randls_72.json,http://54.235.29.9/FacialAge/BNav_EC2/DepthDuration/v2_depth_duration_MTurk/v2_DepthDuration_HTML.html#274,274,1366,768,1366,768,8-29-2022,10-2-59,50,depth_duration_stimuli/000878_2014-06-08_22-52-45_260595134347_rgbf000045-resize_2/000878_2014-06-08_22-52-45_260595134347_rgbf000045-resize_2-target.png,1000,2.092,0,2718,995,meters,jsons/v1_VE1000_randls_72.json,602707,959429,29,Man
50,476196,DepthScenes,duration_manipulation_targetAtFixation,jsons/v1_VE1000_randls_72.json,http://54.235.29.9/FacialAge/BNav_EC2/DepthDuration/v2_depth_duration_MTurk/v2_DepthDuration_HTML.html#274,274,1366,768,1366,768,8-29-2022,10-2-59,51,depth_duration_stimuli/002953_2014-06-08_17-32-18_094959634447_rgbf000059-resize_5/002953_2014-06-08_17-32-18_094959634447_rgbf000059-resize_5-target.png,1000,1.551,0,2813,991,meters,jsons/v1_VE1000_randls_72.json,602707,959429,29,Man
51,476196,DepthScenes,duration_manipulation_targetAtFixation,jsons/v1_VE1000_randls_72.json,http://54.235.29.9/FacialAge/BNav_EC2/DepthDuration/v2_depth_duration_MTurk/v2_DepthDuration_HTML.html#274,274,1366,768,1366,768,8-29-2022,10-2-59,52,depth_duration_stimuli/000493_2014-06-09_21-01-18_260595134347_rgbf000196-resize_3/000493_2014-06-09_21-01-18_260595134347_rgbf000196-resize_3-target.png,1000,3.44,0,2648,998,meters,jsons/v1_VE1000_randls_72.json,602707,959429,29,Man
52,476196,DepthScenes,duration_manipulation_targetAtFixation,jsons/v1_VE1000_randls_72.json,http://54.235.29.9/FacialAge/BNav_EC2/DepthDuration/v2_depth_duration_MTurk/v2_DepthDuration_HTML.html#274,274,1366,768,1366,768,8-29-2022,10-2-59,53,depth_duration_stimuli/000191_2014-05-12_17-07-38_260595134347_rgbf000199-resize_0/000191_2014-05-12_17-07-38_260595134347_rgbf000199-resize_0-target.png,1000,3.7995,0,3839,997,meters,jsons/v1_VE1000_randls_72.json,602707,959429,29,Man
53,476196,DepthScenes,duration_manipulation_targetAtFixation,jsons/v1_VE1000_randls_72.json,http://54.235.29.9/FacialAge/BNav_EC2/DepthDuration/v2_depth_duration_MTurk/v2_DepthDuration_HTML.html#274,274,1366,768,1366,768,8-29-2022,10-2-59,54,depth_duration_stimuli/002549_2014-06-24_13-41-39_094959634447_rgbf000022-resize_3/002549_2014-06-24_13-41-39_094959634447_rgbf000022-resize_3-target.png,1000,1.476,0,2728,990,meters,jsons/v1_VE1000_randls_72.json,602707,959429,29,Man
54,476196,DepthScenes,duration_manipulation_targetAtFixation,jsons/v1_VE1000_randls_72.json,http://54.235.29.9/FacialAge/BNav_EC2/DepthDuration/v2_depth_duration_MTurk/v2_DepthDuration_HTML.html#274,274,1366,768,1366,768,8-29-2022,10-2-59,55,depth_duration_stimuli/002750_2014-06-22_19-08-03_094959634447_rgbf000094-resize_4/002750_2014-06-22_19-08-03_094959634447_rgbf000094-resize_4-target.png,1000,2.354,0,2905,1000,meters,jsons/v1_VE1000_randls_72.json,602707,959429,29,Man
55,476196,DepthScenes,duration_manipulation_targetAtFixation,jsons/v1_VE1000_randls_72.json,http://54.235.29.9/FacialAge/BNav_EC2/DepthDuration/v2_depth_duration_MTurk/v2_DepthDuration_HTML.html#274,274,1366,768,1366,768,8-29-2022,10-2-59,56,depth_duration_stimuli/002964_2014-06-08_17-46-11_094959634447_rgbf000091-resize_4/002964_2014-06-08_17-46-11_094959634447_rgbf000091-resize_4-target.png,1000,1.6909999999999998,0,3627,984,meters,jsons/v1_VE1000_randls_72.json,602707,959429,29,Man
56,476196,DepthScenes,duration_manipulation_targetAtFixation,jsons/v1_VE1000_randls_72.json,http://54.235.29.9/FacialAge/BNav_EC2/DepthDuration/v2_depth_duration_MTurk/v2_DepthDuration_HTML.html#274,274,1366,768,1366,768,8-29-2022,10-2-59,57,depth_duration_stimuli/002136_2014-06-25_21-18-03_260595134347_rgbf000109-resize_3/002136_2014-06-25_21-18-03_260595134347_rgbf000109-resize_3-target.png,1000,1.9569999999999999,0,4202,999,meters,jsons/v1_VE1000_randls_72.json,602707,959429,29,Man
57,476196,DepthScenes,duration_manipulation_targetAtFixation,jsons/v1_VE1000_randls_72.json,http://54.235.29.9/FacialAge/BNav_EC2/DepthDuration/v2_depth_duration_MTurk/v2_DepthDuration_HTML.html#274,274,1366,768,1366,768,8-29-2022,10-2-59,58,depth_duration_stimuli/000682_2014-06-08_23-14-58_260595134347_rgbf000041-resize_5/000682_2014-06-08_23-14-58_260595134347_rgbf000041-resize_5-target.png,1000,2.7239999999999998,0,2933,1000,meters,jsons/v1_VE1000_randls_72.json,602707,959429,29,Man
58,476196,DepthScenes,duration_manipulation_targetAtFixation,jsons/v1_VE1000_randls_72.json,http://54.235.29.9/FacialAge/BNav_EC2/DepthDuration/v2_depth_duration_MTurk/v2_DepthDuration_HTML.html#274,274,1366,768,1366,768,8-29-2022,10-2-59,59,depth_duration_stimuli/001650_2014-06-20_12-09-00_260595134347_rgbf000087-resize_3/001650_2014-06-20_12-09-00_260595134347_rgbf000087-resize_3-target.png,1000,1.9505,0,3091,1014,meters,jsons/v1_VE1000_randls_72.json,602707,959429,29,Man
59,476196,DepthScenes,duration_manipulation_targetAtFixation,jsons/v1_VE1000_randls_72.json,http://54.235.29.9/FacialAge/BNav_EC2/DepthDuration/v2_depth_duration_MTurk/v2_DepthDuration_HTML.html#274,274,1366,768,1366,768,8-29-2022,10-2-59,60,depth_duration_stimuli/001570_2014-06-20_17-21-09_260595134347_rgbf000135-resize_4/001570_2014-06-20_17-21-09_260595134347_rgbf000135-resize_4-target.png,1000,4.467,0,2755,1008,meters,jsons/v1_VE1000_randls_72.json,602707,959429,29,Man
60,476196,DepthScenes,duration_manipulation_targetAtFixation,jsons/v1_VE1000_randls_72.json,http://54.235.29.9/FacialAge/BNav_EC2/DepthDuration/v2_depth_duration_MTurk/v2_DepthDuration_HTML.html#274,274,1366,768,1366,768,8-29-2022,10-2-59,61,depth_duration_stimuli/001392_2014-06-19_16-07-59_260595134347_rgbf000046-resize_1/001392_2014-06-19_16-07-59_260595134347_rgbf000046-resize_1-target.png,1000,4.135,0,2679,1002,meters,jsons/v1_VE1000_randls_72.json,602707,959429,29,Man
61,476196,DepthScenes,duration_manipulation_targetAtFixation,jsons/v1_VE1000_randls_72.json,http://54.235.29.9/FacialAge/BNav_EC2/DepthDuration/v2_depth_duration_MTurk/v2_DepthDuration_HTML.html#274,274,1366,768,1366,768,8-29-2022,10-2-59,62,depth_duration_stimuli/002988_2014-06-15_12-24-20_094959634447_rgbf000150-resize_1/002988_2014-06-15_12-24-20_094959634447_rgbf000150-resize_1-target.png,1000,4.7669999999999995,0,2752,999,meters,jsons/v1_VE1000_randls_72.json,602707,959429,29,Man
62,476196,DepthScenes,duration_manipulation_targetAtFixation,jsons/v1_VE1000_randls_72.json,http://54.235.29.9/FacialAge/BNav_EC2/DepthDuration/v2_depth_duration_MTurk/v2_DepthDuration_HTML.html#274,274,1366,768,1366,768,8-29-2022,10-2-59,63,depth_duration_stimuli/001052_2014-06-08_18-24-54_260595134347_rgbf000130-resize_1/001052_2014-06-08_18-24-54_260595134347_rgbf000130-resize_1-target.png,1000,4.1045,0,2846,987,meters,jsons/v1_VE1000_randls_72.json,602707,959429,29,Man
63,476196,DepthScenes,duration_manipulation_targetAtFixation,jsons/v1_VE1000_randls_72.json,http://54.235.29.9/FacialAge/BNav_EC2/DepthDuration/v2_depth_duration_MTurk/v2_DepthDuration_HTML.html#274,274,1366,768,1366,768,8-29-2022,10-2-59,64,depth_duration_stimuli/002748_2014-06-22_19-07-22_094959634447_rgbf000078-resize_1/002748_2014-06-22_19-07-22_094959634447_rgbf000078-resize_1-target.png,1000,4.6705,0,2797,1000,meters,jsons/v1_VE1000_randls_72.json,602707,959429,29,Man
64,476196,DepthScenes,duration_manipulation_targetAtFixation,jsons/v1_VE1000_randls_72.json,http://54.235.29.9/FacialAge/BNav_EC2/DepthDuration/v2_depth_duration_MTurk/v2_DepthDuration_HTML.html#274,274,1366,768,1366,768,8-29-2022,10-2-59,65,depth_duration_stimuli/002995_2014-06-15_12-31-26_094959634447_rgbf000150-resize_1/002995_2014-06-15_12-31-26_094959634447_rgbf000150-resize_1-target.png,1000,3.8360000000000003,0,2714,1001,meters,jsons/v1_VE1000_randls_72.json,602707,959429,29,Man
65,476196,DepthScenes,duration_manipulation_targetAtFixation,jsons/v1_VE1000_randls_72.json,http://54.235.29.9/FacialAge/BNav_EC2/DepthDuration/v2_depth_duration_MTurk/v2_DepthDuration_HTML.html#274,274,1366,768,1366,768,8-29-2022,10-2-59,66,depth_duration_stimuli/001222_2014-06-17_16-24-06_260595134347_rgbf000073-resize_0/001222_2014-06-17_16-24-06_260595134347_rgbf000073-resize-original.jpg,1000,1.4385,0,2625,1003,meters,jsons/v1_VE1000_randls_72.json,602707,959429,29,Man
66,476196,DepthScenes,duration_manipulation_targetAtFixation,jsons/v1_VE1000_randls_72.json,http://54.235.29.9/FacialAge/BNav_EC2/DepthDuration/v2_depth_duration_MTurk/v2_DepthDuration_HTML.html#274,274,1366,768,1366,768,8-29-2022,10-2-59,67,depth_duration_stimuli/002725_2014-06-22_11-47-51_094959634447_rgbf000070-resize_1/002725_2014-06-22_11-47-51_094959634447_rgbf000070-resize_1-target.png,1000,2.195,0,2916,999,meters,jsons/v1_VE1000_randls_72.json,602707,959429,29,Man
67,476196,DepthScenes,duration_manipulation_targetAtFixation,jsons/v1_VE1000_randls_72.json,http://54.235.29.9/FacialAge/BNav_EC2/DepthDuration/v2_depth_duration_MTurk/v2_DepthDuration_HTML.html#274,274,1366,768,1366,768,8-29-2022,10-2-59,68,depth_duration_stimuli/002344_2014-06-28_20-06-29_260595134347_rgbf000030-resize_1/002344_2014-06-28_20-06-29_260595134347_rgbf000030-resize_1-target.png,1000,1.5795,0,2660,986,meters,jsons/v1_VE1000_randls_72.json,602707,959429,29,Man
68,476196,DepthScenes,duration_manipulation_targetAtFixation,jsons/v1_VE1000_randls_72.json,http://54.235.29.9/FacialAge/BNav_EC2/DepthDuration/v2_depth_duration_MTurk/v2_DepthDuration_HTML.html#274,274,1366,768,1366,768,8-29-2022,10-2-59,69,depth_duration_stimuli/003621_2014-05-23_18-06-08_094959634447_rgbf000101-resize_1/003621_2014-05-23_18-06-08_094959634447_rgbf000101-resize_1-target.png,1000,3.9835,0,2939,1005,meters,jsons/v1_VE1000_randls_72.json,602707,959429,29,Man
69,476196,DepthScenes,duration_manipulation_targetAtFixation,jsons/v1_VE1000_randls_72.json,http://54.235.29.9/FacialAge/BNav_EC2/DepthDuration/v2_depth_duration_MTurk/v2_DepthDuration_HTML.html#274,274,1366,768,1366,768,8-29-2022,10-2-59,70,depth_duration_stimuli/001584_2014-06-20_11-07-43_260595134347_rgbf000002-resize_1/001584_2014-06-20_11-07-43_260595134347_rgbf000002-resize_1-target.png,1000,3.53,0,2698,1003,meters,jsons/v1_VE1000_randls_72.json,602707,959429,29,Man
70,476196,DepthScenes,duration_manipulation_targetAtFixation,jsons/v1_VE1000_randls_72.json,http://54.235.29.9/FacialAge/BNav_EC2/DepthDuration/v2_depth_duration_MTurk/v2_DepthDuration_HTML.html#274,274,1366,768,1366,768,8-29-2022,10-2-59,71,depth_duration_stimuli/001059_2014-06-08_21-53-27_260595134347_rgbf000061-resize_4/001059_2014-06-08_21-53-27_260595134347_rgbf000061-resize_4-target.png,1000,2.4185,0,2968,998,meters,jsons/v1_VE1000_randls_72.json,602707,959429,29,Man
71,476196,DepthScenes,duration_manipulation_targetAtFixation,jsons/v1_VE1000_randls_72.json,http://54.235.29.9/FacialAge/BNav_EC2/DepthDuration/v2_depth_duration_MTurk/v2_DepthDuration_HTML.html#274,274,1366,768,1366,768,8-29-2022,10-2-59,72,depth_duration_stimuli/001032_2014-06-08_13-23-17_260595134347_rgbf000021-resize_3/001032_2014-06-08_13-23-17_260595134347_rgbf000021-resize_3-target.png,1000,3.2725,0,3198,987,meters,jsons/v1_VE1000_randls_72.json,602707,959429,29,Man
72,476196,DepthScenes,duration_manipulation_targetAtFixation,jsons/v1_VE1000_randls_72.json,http://54.235.29.9/FacialAge/BNav_EC2/DepthDuration/v2_depth_duration_MTurk/v2_DepthDuration_HTML.html#274,274,1366,768,1366,768,8-29-2022,10-2-59,73,depth_duration_stimuli/000009_2014-05-26_14-32-05_260595134347_rgbf000034-resize_3/000009_2014-05-26_14-32-05_260595134347_rgbf000034-resize_3-target.png,1000,3.8715,0,2737,990,meters,jsons/v1_VE1000_randls_72.json,602707,959429,29,Man
73,476196,DepthScenes,duration_manipulation_targetAtFixation,jsons/v1_VE1000_randls_72.json,http://54.235.29.9/FacialAge/BNav_EC2/DepthDuration/v2_depth_duration_MTurk/v2_DepthDuration_HTML.html#274,274,1366,768,1366,768,8-29-2022,10-2-59,74,depth_duration_stimuli/001828_2014-06-26_21-40-03_260595134347_rgbf000024-resize_0/001828_2014-06-26_21-40-03_260595134347_rgbf000024-resize_0-target.png,1000,4.8260000000000005,0,3055,999,meters,jsons/v1_VE1000_randls_72.json,602707,959429,29,Man
74,476196,DepthScenes,duration_manipulation_targetAtFixation,jsons/v1_VE1000_randls_72.json,http://54.235.29.9/FacialAge/BNav_EC2/DepthDuration/v2_depth_duration_MTurk/v2_DepthDuration_HTML.html#274,274,1366,768,1366,768,8-29-2022,10-2-59,75,depth_duration_stimuli/000642_2014-06-08_16-59-25_260595134347_rgbf000098-resize_2/000642_2014-06-08_16-59-25_260595134347_rgbf000098-resize_2-target.png,1000,2.8815,0,2816,1002,meters,jsons/v1_VE1000_randls_72.json,602707,959429,29,Man
75,476196,DepthScenes,duration_manipulation_targetAtFixation,jsons/v1_VE1000_randls_72.json,http://54.235.29.9/FacialAge/BNav_EC2/DepthDuration/v2_depth_duration_MTurk/v2_DepthDuration_HTML.html#274,274,1366,768,1366,768,8-29-2022,10-2-59,76,depth_duration_stimuli/002425_2014-06-28_20-27-29_260595134347_rgbf000031-resize_8/002425_2014-06-28_20-27-29_260595134347_rgbf000031-resize_8-target.png,1000,3.8960000000000004,0,2761,997,meters,jsons/v1_VE1000_randls_72.json,602707,959429,29,Man
76,476196,DepthScenes,duration_manipulation_targetAtFixation,jsons/v1_VE1000_randls_72.json,http://54.235.29.9/FacialAge/BNav_EC2/DepthDuration/v2_depth_duration_MTurk/v2_DepthDuration_HTML.html#274,274,1366,768,1366,768,8-29-2022,10-2-59,77,depth_duration_stimuli/002630_2014-06-24_14-47-50_094959634447_rgbf000055-resize_1/002630_2014-06-24_14-47-50_094959634447_rgbf000055-resize_1-target.png,1000,3.0095,0,2686,1004,meters,jsons/v1_VE1000_randls_72.json,602707,959429,29,Man
77,476196,DepthScenes,duration_manipulation_targetAtFixation,jsons/v1_VE1000_randls_72.json,http://54.235.29.9/FacialAge/BNav_EC2/DepthDuration/v2_depth_duration_MTurk/v2_DepthDuration_HTML.html#274,274,1366,768,1366,768,8-29-2022,10-2-59,78,depth_duration_stimuli/002758_2014-06-22_19-11-20_094959634447_rgbf000128-resize_1/002758_2014-06-22_19-11-20_094959634447_rgbf000128-resize_1-target.png,1000,2.555,0,3183,988,meters,jsons/v1_VE1000_randls_72.json,602707,959429,29,Man
78,476196,DepthScenes,duration_manipulation_targetAtFixation,jsons/v1_VE1000_randls_72.json,http://54.235.29.9/FacialAge/BNav_EC2/DepthDuration/v2_depth_duration_MTurk/v2_DepthDuration_HTML.html#274,274,1366,768,1366,768,8-29-2022,10-2-59,79,depth_duration_stimuli/002118_2014-06-25_20-32-08_260595134347_rgbf000078-resize_1/002118_2014-06-25_20-32-08_260595134347_rgbf000078-resize_1-target.png,1000,2.6460000000000004,0,2803,991,meters,jsons/v1_VE1000_randls_72.json,602707,959429,29,Man
79,476196,DepthScenes,duration_manipulation_targetAtFixation,jsons/v1_VE1000_randls_72.json,http://54.235.29.9/FacialAge/BNav_EC2/DepthDuration/v2_depth_duration_MTurk/v2_DepthDuration_HTML.html#274,274,1366,768,1366,768,8-29-2022,10-2-59,80,depth_duration_stimuli/001516_2014-06-20_16-25-09_260595134347_rgbf000076-resize_2/001516_2014-06-20_16-25-09_260595134347_rgbf000076-resize_2-target.png,1000,1.7445,0,2702,987,meters,jsons/v1_VE1000_randls_72.json,602707,959429,29,Man
80,476196,DepthScenes,duration_manipulation_targetAtFixation,jsons/v1_VE1000_randls_72.json,http://54.235.29.9/FacialAge/BNav_EC2/DepthDuration/v2_depth_duration_MTurk/v2_DepthDuration_HTML.html#274,274,1366,768,1366,768,8-29-2022,10-2-59,81,depth_duration_stimuli/001555_2014-06-20_17-12-10_260595134347_rgbf000065-resize_4/001555_2014-06-20_17-12-10_260595134347_rgbf000065-resize_4-target.png,1000,1.633,0,2654,997,meters,jsons/v1_VE1000_randls_72.json,602707,959429,29,Man
81,476196,DepthScenes,duration_manipulation_targetAtFixation,jsons/v1_VE1000_randls_72.json,http://54.235.29.9/FacialAge/BNav_EC2/DepthDuration/v2_depth_duration_MTurk/v2_DepthDuration_HTML.html#274,274,1366,768,1366,768,8-29-2022,10-2-59,82,depth_duration_stimuli/000103_2014-05-14_22-01-17_260595134347_rgbf000152-resize_5/000103_2014-05-14_22-01-17_260595134347_rgbf000152-resize_5-target.png,1000,1.993,0,2736,991,meters,jsons/v1_VE1000_randls_72.json,602707,959429,29,Man
82,476196,DepthScenes,duration_manipulation_targetAtFixation,jsons/v1_VE1000_randls_72.json,http://54.235.29.9/FacialAge/BNav_EC2/DepthDuration/v2_depth_duration_MTurk/v2_DepthDuration_HTML.html#274,274,1366,768,1366,768,8-29-2022,10-2-59,83,depth_duration_stimuli/001029_2014-06-08_13-17-57_260595134347_rgbf000065-resize_1/001029_2014-06-08_13-17-57_260595134347_rgbf000065-resize_1-target.png,1000,3.0835,0,2861,994,meters,jsons/v1_VE1000_randls_72.json,602707,959429,29,Man
83,476196,DepthScenes,duration_manipulation_targetAtFixation,jsons/v1_VE1000_randls_72.json,http://54.235.29.9/FacialAge/BNav_EC2/DepthDuration/v2_depth_duration_MTurk/v2_DepthDuration_HTML.html#274,274,1366,768,1366,768,8-29-2022,10-2-59,84,depth_duration_stimuli/000677_2014-06-08_23-10-32_260595134347_rgbf000158-resize_6/000677_2014-06-08_23-10-32_260595134347_rgbf000158-resize_6-target.png,1000,3.556,0,2844,994,meters,jsons/v1_VE1000_randls_72.json,602707,959429,29,Man
84,476196,DepthScenes,duration_manipulation_targetAtFixation,jsons/v1_VE1000_randls_72.json,http://54.235.29.9/FacialAge/BNav_EC2/DepthDuration/v2_depth_duration_MTurk/v2_DepthDuration_HTML.html#274,274,1366,768,1366,768,8-29-2022,10-2-59,85,depth_duration_stimuli/003070_2014-06-15_14-58-27_094959634447_rgbf000150-resize_3/003070_2014-06-15_14-58-27_094959634447_rgbf000150-resize_3-target.png,1000,2.9415,0,2870,1006,meters,jsons/v1_VE1000_randls_72.json,602707,959429,29,Man
85,476196,DepthScenes,duration_manipulation_targetAtFixation,jsons/v1_VE1000_randls_72.json,http://54.235.29.9/FacialAge/BNav_EC2/DepthDuration/v2_depth_duration_MTurk/v2_DepthDuration_HTML.html#274,274,1366,768,1366,768,8-29-2022,10-2-59,86,depth_duration_stimuli/000943_2014-06-09_19-31-07_260595134347_rgbf000128-resize_1/000943_2014-06-09_19-31-07_260595134347_rgbf000128-resize_1-target.png,1000,1.9765,0,2806,999,meters,jsons/v1_VE1000_randls_72.json,602707,959429,29,Man
86,476196,DepthScenes,duration_manipulation_targetAtFixation,jsons/v1_VE1000_randls_72.json,http://54.235.29.9/FacialAge/BNav_EC2/DepthDuration/v2_depth_duration_MTurk/v2_DepthDuration_HTML.html#274,274,1366,768,1366,768,8-29-2022,10-2-59,87,depth_duration_stimuli/000506_2014-06-08_23-21-00_260595134347_rgbf000070-resize_7/000506_2014-06-08_23-21-00_260595134347_rgbf000070-resize_7-target.png,1000,4.0585,0,2779,1001,meters,jsons/v1_VE1000_randls_72.json,602707,959429,29,Man
87,476196,DepthScenes,duration_manipulation_targetAtFixation,jsons/v1_VE1000_randls_72.json,http://54.235.29.9/FacialAge/BNav_EC2/DepthDuration/v2_depth_duration_MTurk/v2_DepthDuration_HTML.html#274,274,1366,768,1366,768,8-29-2022,10-2-59,88,depth_duration_stimuli/003079_2014-06-15_15-18-20_094959634447_rgbf000152-resize_8/003079_2014-06-15_15-18-20_094959634447_rgbf000152-resize_8-target.png,1000,2.8775,0,2815,1009,meters,jsons/v1_VE1000_randls_72.json,602707,959429,29,Man
88,476196,DepthScenes,duration_manipulation_targetAtFixation,jsons/v1_VE1000_randls_72.json,http://54.235.29.9/FacialAge/BNav_EC2/DepthDuration/v2_depth_duration_MTurk/v2_DepthDuration_HTML.html#274,274,1366,768,1366,768,8-29-2022,10-2-59,89,depth_duration_stimuli/001158_2014-06-17_15-32-16_260595134347_rgbf000138-resize_2/001158_2014-06-17_15-32-16_260595134347_rgbf000138-resize_2-target.png,1000,4.5315,0,3705,1004,meters,jsons/v1_VE1000_randls_72.json,602707,959429,29,Man
89,476196,DepthScenes,duration_manipulation_targetAtFixation,jsons/v1_VE1000_randls_72.json,http://54.235.29.9/FacialAge/BNav_EC2/DepthDuration/v2_depth_duration_MTurk/v2_DepthDuration_HTML.html#274,274,1366,768,1366,768,8-29-2022,10-2-59,90,depth_duration_stimuli/000556_2014-06-09_22-42-56_260595134347_rgbf000214-resize_1/000556_2014-06-09_22-42-56_260595134347_rgbf000214-resize_1-target.png,1000,4.8415,0,3098,992,meters,jsons/v1_VE1000_randls_72.json,602707,959429,29,Man
90,476196,DepthScenes,duration_manipulation_targetAtFixation,jsons/v1_VE1000_randls_72.json,http://54.235.29.9/FacialAge/BNav_EC2/DepthDuration/v2_depth_duration_MTurk/v2_DepthDuration_HTML.html#274,274,1366,768,1366,768,8-29-2022,10-2-59,91,depth_duration_stimuli/002153_2014-06-25_21-27-18_260595134347_rgbf000038-resize_5/002153_2014-06-25_21-27-18_260595134347_rgbf000038-resize_5-target.png,1000,2.505,0,2822,1003,meters,jsons/v1_VE1000_randls_72.json,602707,959429,29,Man
91,476196,DepthScenes,duration_manipulation_targetAtFixation,jsons/v1_VE1000_randls_72.json,http://54.235.29.9/FacialAge/BNav_EC2/DepthDuration/v2_depth_duration_MTurk/v2_DepthDuration_HTML.html#274,274,1366,768,1366,768,8-29-2022,10-2-59,92,depth_duration_stimuli/002660_2014-06-13_15-44-18_094959634447_rgbf001878-resize_2/002660_2014-06-13_15-44-18_094959634447_rgbf001878-resize_2-target.png,1000,3.576,0,2675,992,meters,jsons/v1_VE1000_randls_72.json,602707,959429,29,Man
92,476196,DepthScenes,duration_manipulation_targetAtFixation,jsons/v1_VE1000_randls_72.json,http://54.235.29.9/FacialAge/BNav_EC2/DepthDuration/v2_depth_duration_MTurk/v2_DepthDuration_HTML.html#274,274,1366,768,1366,768,8-29-2022,10-2-59,93,depth_duration_stimuli/002905_2014-06-03_18-04-43_094959634447_rgbf000151-resize_2/002905_2014-06-03_18-04-43_094959634447_rgbf000151-resize_2-target.png,1000,2.0295,0,2678,990,meters,jsons/v1_VE1000_randls_72.json,602707,959429,29,Man
93,476196,DepthScenes,duration_manipulation_targetAtFixation,jsons/v1_VE1000_randls_72.json,http://54.235.29.9/FacialAge/BNav_EC2/DepthDuration/v2_depth_duration_MTurk/v2_DepthDuration_HTML.html#274,274,1366,768,1366,768,8-29-2022,10-2-59,94,depth_duration_stimuli/003423_2014-05-21_10-23-26_094959634447_rgbf002665-resize_2/003423_2014-05-21_10-23-26_094959634447_rgbf002665-resize_2-target.png,1000,3.2575,0,2593,1000,meters,jsons/v1_VE1000_randls_72.json,602707,959429,29,Man
94,476196,DepthScenes,duration_manipulation_targetAtFixation,jsons/v1_VE1000_randls_72.json,http://54.235.29.9/FacialAge/BNav_EC2/DepthDuration/v2_depth_duration_MTurk/v2_DepthDuration_HTML.html#274,274,1366,768,1366,768,8-29-2022,10-2-59,95,depth_duration_stimuli/000736_2014-06-08_18-24-15_260595134347_rgbf000206-resize_3/000736_2014-06-08_18-24-15_260595134347_rgbf000206-resize_3-target.png,1000,3.515,0,2720,997,meters,jsons/v1_VE1000_randls_72.json,602707,959429,29,Man
95,476196,DepthScenes,duration_manipulation_targetAtFixation,jsons/v1_VE1000_randls_72.json,http://54.235.29.9/FacialAge/BNav_EC2/DepthDuration/v2_depth_duration_MTurk/v2_DepthDuration_HTML.html#274,274,1366,768,1366,768,8-29-2022,10-2-59,96,depth_duration_stimuli/000137_2014-05-20_17-04-49_260595134347_rgbf000120-resize_1/000137_2014-05-20_17-04-49_260595134347_rgbf000120-resize_1-target.png,1000,3.786,0,2973,1002,meters,jsons/v1_VE1000_randls_72.json,602707,959429,29,Man
96,476196,DepthScenes,duration_manipulation_targetAtFixation,jsons/v1_VE1000_randls_72.json,http://54.235.29.9/FacialAge/BNav_EC2/DepthDuration/v2_depth_duration_MTurk/v2_DepthDuration_HTML.html#274,274,1366,768,1366,768,8-29-2022,10-2-59,97,depth_duration_stimuli/002043_2014-06-24_20-29-38_260595134347_rgbf000039-resize_4/002043_2014-06-24_20-29-38_260595134347_rgbf000039-resize_4-target.png,1000,2.8435,0,2858,997,meters,jsons/v1_VE1000_randls_72.json,602707,959429,29,Man
97,476196,DepthScenes,duration_manipulation_targetAtFixation,jsons/v1_VE1000_randls_72.json,http://54.235.29.9/FacialAge/BNav_EC2/DepthDuration/v2_depth_duration_MTurk/v2_DepthDuration_HTML.html#274,274,1366,768,1366,768,8-29-2022,10-2-59,98,depth_duration_stimuli/003048_2014-06-15_13-49-43_094959634447_rgbf000150-resize_1/003048_2014-06-15_13-49-43_094959634447_rgbf000150-resize_1-target.png,1000,4.0035,0,3235,992,meters,jsons/v1_VE1000_randls_72.json,602707,959429,29,Man
98,476196,DepthScenes,duration_manipulation_targetAtFixation,jsons/v1_VE1000_randls_72.json,http://54.235.29.9/FacialAge/BNav_EC2/DepthDuration/v2_depth_duration_MTurk/v2_DepthDuration_HTML.html#274,274,1366,768,1366,768,8-29-2022,10-2-59,99,depth_duration_stimuli/001540_2014-06-20_17-01-05_260595134347_rgbf000086-resize_2/001540_2014-06-20_17-01-05_260595134347_rgbf000086-resize-original.jpg,1000,1.459,0,3021,986,meters,jsons/v1_VE1000_randls_72.json,602707,959429,29,Man
99,476196,DepthScenes,duration_manipulation_targetAtFixation,jsons/v1_VE1000_randls_72.json,http://54.235.29.9/FacialAge/BNav_EC2/DepthDuration/v2_depth_duration_MTurk/v2_DepthDuration_HTML.html#274,274,1366,768,1366,768,8-29-2022,10-2-59,100,depth_duration_stimuli/002600_2014-06-24_14-27-04_094959634447_rgbf000074-resize_2/002600_2014-06-24_14-27-04_094959634447_rgbf000074-resize_2-target.png,1000,2.7575,0,2671,992,meters,jsons/v1_VE1000_randls_72.json,602707,959429,29,Man
100,476196,DepthScenes,duration_manipulation_targetAtFixation,jsons/v1_VE1000_randls_72.json,http://54.235.29.9/FacialAge/BNav_EC2/DepthDuration/v2_depth_duration_MTurk/v2_DepthDuration_HTML.html#274,274,1366,768,1366,768,8-29-2022,10-2-59,101,depth_duration_stimuli/003228_2014-05-14_13-42-35_094959634447_rgbf000101-resize_1/003228_2014-05-14_13-42-35_094959634447_rgbf000101-resize_1-target.png,1000,1.9680000000000002,0,2735,996,meters,jsons/v1_VE1000_randls_72.json,602707,959429,29,Man
101,476196,DepthScenes,duration_manipulation_targetAtFixation,jsons/v1_VE1000_randls_72.json,http://54.235.29.9/FacialAge/BNav_EC2/DepthDuration/v2_depth_duration_MTurk/v2_DepthDuration_HTML.html#274,274,1366,768,1366,768,8-29-2022,10-2-59,102,depth_duration_stimuli/002445_2014-06-28_20-32-16_260595134347_rgbf000029-resize_4/002445_2014-06-28_20-32-16_260595134347_rgbf000029-resize_4-target.png,1000,2.5315,0,2874,1003,meters,jsons/v1_VE1000_randls_72.json,602707,959429,29,Man
102,476196,DepthScenes,duration_manipulation_targetAtFixation,jsons/v1_VE1000_randls_72.json,http://54.235.29.9/FacialAge/BNav_EC2/DepthDuration/v2_depth_duration_MTurk/v2_DepthDuration_HTML.html#274,274,1366,768,1366,768,8-29-2022,10-2-59,103,depth_duration_stimuli/000780_2014-06-08_22-28-29_260595134347_rgbf000126-resize_1/000780_2014-06-08_22-28-29_260595134347_rgbf000126-resize_1-target.png,1000,3.3825,0,2998,991,meters,jsons/v1_VE1000_randls_72.json,602707,959429,29,Man
103,476196,DepthScenes,duration_manipulation_targetAtFixation,jsons/v1_VE1000_randls_72.json,http://54.235.29.9/FacialAge/BNav_EC2/DepthDuration/v2_depth_duration_MTurk/v2_DepthDuration_HTML.html#274,274,1366,768,1366,768,8-29-2022,10-2-59,104,depth_duration_stimuli/002039_2014-06-24_20-22-38_260595134347_rgbf000084-resize_1/002039_2014-06-24_20-22-38_260595134347_rgbf000084-resize_1-target.png,1000,4.408,0,2803,1004,meters,jsons/v1_VE1000_randls_72.json,602707,959429,29,Man
104,476196,DepthScenes,duration_manipulation_targetAtFixation,jsons/v1_VE1000_randls_72.json,http://54.235.29.9/FacialAge/BNav_EC2/DepthDuration/v2_depth_duration_MTurk/v2_DepthDuration_HTML.html#274,274,1366,768,1366,768,8-29-2022,10-2-59,105,depth_duration_stimuli/002103_2014-06-25_20-00-40_260595134347_rgbf000049-resize_0/002103_2014-06-25_20-00-40_260595134347_rgbf000049-resize_0-target.png,1000,4.105,0,2851,991,meters,jsons/v1_VE1000_randls_72.json,602707,959429,29,Man
105,476196,DepthScenes,duration_manipulation_targetAtFixation,jsons/v1_VE1000_randls_72.json,http://54.235.29.9/FacialAge/BNav_EC2/DepthDuration/v2_depth_duration_MTurk/v2_DepthDuration_HTML.html#274,274,1366,768,1366,768,8-29-2022,10-2-59,106,depth_duration_stimuli/002788_2014-06-22_19-36-03_094959634447_rgbf000088-resize_2/002788_2014-06-22_19-36-03_094959634447_rgbf000088-resize_2-target.png,1000,1.6465,0,3080,995,meters,jsons/v1_VE1000_randls_72.json,602707,959429,29,Man
106,476196,DepthScenes,duration_manipulation_targetAtFixation,jsons/v1_VE1000_randls_72.json,http://54.235.29.9/FacialAge/BNav_EC2/DepthDuration/v2_depth_duration_MTurk/v2_DepthDuration_HTML.html#274,274,1366,768,1366,768,8-29-2022,10-2-59,107,depth_duration_stimuli/000749_2014-06-08_21-55-06_260595134347_rgbf000070-resize_2/000749_2014-06-08_21-55-06_260595134347_rgbf000070-resize_2-target.png,1000,2.331,0,2748,994,meters,jsons/v1_VE1000_randls_72.json,602707,959429,29,Man
107,476196,DepthScenes,duration_manipulation_targetAtFixation,jsons/v1_VE1000_randls_72.json,http://54.235.29.9/FacialAge/BNav_EC2/DepthDuration/v2_depth_duration_MTurk/v2_DepthDuration_HTML.html#274,274,1366,768,1366,768,8-29-2022,10-2-59,108,depth_duration_stimuli/000692_2014-06-08_13-09-42_260595134347_rgbf000199-resize_2/000692_2014-06-08_13-09-42_260595134347_rgbf000199-resize_2-target.png,1000,3.661,0,3089,1003,meters,jsons/v1_VE1000_randls_72.json,602707,959429,29,Man
108,476196,DepthScenes,duration_manipulation_targetAtFixation,jsons/v1_VE1000_randls_72.json,http://54.235.29.9/FacialAge/BNav_EC2/DepthDuration/v2_depth_duration_MTurk/v2_DepthDuration_HTML.html#274,274,1366,768,1366,768,8-29-2022,10-2-59,109,depth_duration_stimuli/001094_2014-06-15_17-36-00_260595134347_rgbf000205-resize_0/001094_2014-06-15_17-36-00_260595134347_rgbf000205-resize_0-target.png,1000,4.2175,0,4131,996,meters,jsons/v1_VE1000_randls_72.json,602707,959429,29,Man
109,476196,DepthScenes,duration_manipulation_targetAtFixation,jsons/v1_VE1000_randls_72.json,http://54.235.29.9/FacialAge/BNav_EC2/DepthDuration/v2_depth_duration_MTurk/v2_DepthDuration_HTML.html#274,274,1366,768,1366,768,8-29-2022,10-2-59,110,depth_duration_stimuli/002509_2014-06-24_13-19-22_094959634447_rgbf000077-resize_0/002509_2014-06-24_13-19-22_094959634447_rgbf000077-resize_0-target.png,1000,1.3065,0,2631,1009,meters,jsons/v1_VE1000_randls_72.json,602707,959429,29,Man
110,476196,DepthScenes,duration_manipulation_targetAtFixation,jsons/v1_VE1000_randls_72.json,http://54.235.29.9/FacialAge/BNav_EC2/DepthDuration/v2_depth_duration_MTurk/v2_DepthDuration_HTML.html#274,274,1366,768,1366,768,8-29-2022,10-2-59,111,depth_duration_stimuli/003338_2014-05-20_11-01-23_094959634447_rgbf000051-resize_6/003338_2014-05-20_11-01-23_094959634447_rgbf000051-resize_6-target.png,1000,1.693,0,2650,1011,meters,jsons/v1_VE1000_randls_72.json,602707,959429,29,Man
111,476196,DepthScenes,duration_manipulation_targetAtFixation,jsons/v1_VE1000_randls_72.json,http://54.235.29.9/FacialAge/BNav_EC2/DepthDuration/v2_depth_duration_MTurk/v2_DepthDuration_HTML.html#274,274,1366,768,1366,768,8-29-2022,10-2-59,112,depth_duration_stimuli/000906_2014-06-08_13-35-43_260595134347_rgbf000155-resize_1/000906_2014-06-08_13-35-43_260595134347_rgbf000155-resize_1-target.png,1000,2.8489999999999998,0,2563,984,meters,jsons/v1_VE1000_randls_72.json,602707,959429,29,Man
112,476196,DepthScenes,duration_manipulation_targetAtFixation,jsons/v1_VE1000_randls_72.json,http://54.235.29.9/FacialAge/BNav_EC2/DepthDuration/v2_depth_duration_MTurk/v2_DepthDuration_HTML.html#274,274,1366,768,1366,768,8-29-2022,10-2-59,113,depth_duration_stimuli/002805_2014-06-22_19-54-03_094959634447_rgbf000079-resize_1/002805_2014-06-22_19-54-03_094959634447_rgbf000079-resize_1-target.png,1000,3.1439999999999997,0,3033,1011,meters,jsons/v1_VE1000_randls_72.json,602707,959429,29,Man
113,476196,DepthScenes,duration_manipulation_targetAtFixation,jsons/v1_VE1000_randls_72.json,http://54.235.29.9/FacialAge/BNav_EC2/DepthDuration/v2_depth_duration_MTurk/v2_DepthDuration_HTML.html#274,274,1366,768,1366,768,8-29-2022,10-2-59,114,depth_duration_stimuli/001244_2014-06-17_16-47-45_260595134347_rgbf000030-resize_4/001244_2014-06-17_16-47-45_260595134347_rgbf000030-resize_4-target.png,1000,2.0425,0,2600,988,meters,jsons/v1_VE1000_randls_72.json,602707,959429,29,Man
114,476196,DepthScenes,duration_manipulation_targetAtFixation,jsons/v1_VE1000_randls_72.json,http://54.235.29.9/FacialAge/BNav_EC2/DepthDuration/v2_depth_duration_MTurk/v2_DepthDuration_HTML.html#274,274,1366,768,1366,768,8-29-2022,10-2-59,115,depth_duration_stimuli/003495_2014-05-21_16-01-51_094959634447_rgbf000100-resize_3/003495_2014-05-21_16-01-51_094959634447_rgbf000100-resize_3-target.png,1000,1.6255,0,2721,1000,meters,jsons/v1_VE1000_randls_72.json,602707,959429,29,Man
115,476196,DepthScenes,duration_manipulation_targetAtFixation,jsons/v1_VE1000_randls_72.json,http://54.235.29.9/FacialAge/BNav_EC2/DepthDuration/v2_depth_duration_MTurk/v2_DepthDuration_HTML.html#274,274,1366,768,1366,768,8-29-2022,10-2-59,116,depth_duration_stimuli/001170_2014-06-17_15-43-44_260595134347_rgbf000096-resize_6/001170_2014-06-17_15-43-44_260595134347_rgbf000096-resize-original.jpg,1000,1.1909999999999998,0,2637,998,meters,jsons/v1_VE1000_randls_72.json,602707,959429,29,Man
116,476196,DepthScenes,duration_manipulation_targetAtFixation,jsons/v1_VE1000_randls_72.json,http://54.235.29.9/FacialAge/BNav_EC2/DepthDuration/v2_depth_duration_MTurk/v2_DepthDuration_HTML.html#274,274,1366,768,1366,768,8-29-2022,10-2-59,117,depth_duration_stimuli/003534_2014-05-22_15-06-10_094959634447_rgbf000102-resize_4/003534_2014-05-22_15-06-10_094959634447_rgbf000102-resize_4-target.png,1000,1.426,0,2813,1000,meters,jsons/v1_VE1000_randls_72.json,602707,959429,29,Man
117,476196,DepthScenes,duration_manipulation_targetAtFixation,jsons/v1_VE1000_randls_72.json,http://54.235.29.9/FacialAge/BNav_EC2/DepthDuration/v2_depth_duration_MTurk/v2_DepthDuration_HTML.html#274,274,1366,768,1366,768,8-29-2022,10-2-59,118,depth_duration_stimuli/002637_2014-06-24_14-51-13_094959634447_rgbf000066-resize_4/002637_2014-06-24_14-51-13_094959634447_rgbf000066-resize_4-target.png,1000,1.9955,0,2617,1004,meters,jsons/v1_VE1000_randls_72.json,602707,959429,29,Man
118,476196,DepthScenes,duration_manipulation_targetAtFixation,jsons/v1_VE1000_randls_72.json,http://54.235.29.9/FacialAge/BNav_EC2/DepthDuration/v2_depth_duration_MTurk/v2_DepthDuration_HTML.html#274,274,1366,768,1366,768,8-29-2022,10-2-59,119,depth_duration_stimuli/002279_2014-06-28_18-55-32_260595134347_rgbf000040-resize_5/002279_2014-06-28_18-55-32_260595134347_rgbf000040-resize_5-target.png,1000,1.5043333333333,0,2661,991,meters,jsons/v1_VE1000_randls_72.json,602707,959429,29,Man
119,476196,DepthScenes,duration_manipulation_targetAtFixation,jsons/v1_VE1000_randls_72.json,http://54.235.29.9/FacialAge/BNav_EC2/DepthDuration/v2_depth_duration_MTurk/v2_DepthDuration_HTML.html#274,274,1366,768,1366,768,8-29-2022,10-2-59,120,depth_duration_stimuli/000635_2014-06-08_16-38-42_260595134347_rgbf000106-resize_1/000635_2014-06-08_16-38-42_260595134347_rgbf000106-resize_1-target.png,1000,2.074,0,2725,1007,meters,jsons/v1_VE1000_randls_72.json,602707,959429,29,Man
120,476196,DepthScenes,duration_manipulation_targetAtFixation,jsons/v1_VE1000_randls_72.json,http://54.235.29.9/FacialAge/BNav_EC2/DepthDuration/v2_depth_duration_MTurk/v2_DepthDuration_HTML.html#274,274,1366,768,1366,768,8-29-2022,10-2-59,121,depth_duration_stimuli/002272_2014-06-28_18-53-56_260595134347_rgbf000067-resize_2/002272_2014-06-28_18-53-56_260595134347_rgbf000067-resize_2-target.png,1000,1.138,0,3238,988,meters,jsons/v1_VE1000_randls_72.json,602707,959429,29,Man
121,476196,DepthScenes,duration_manipulation_targetAtFixation,jsons/v1_VE1000_randls_72.json,http://54.235.29.9/FacialAge/BNav_EC2/DepthDuration/v2_depth_duration_MTurk/v2_DepthDuration_HTML.html#274,274,1366,768,1366,768,8-29-2022,10-2-59,122,depth_duration_stimuli/001571_2014-06-20_17-21-32_260595134347_rgbf000089-resize_1/001571_2014-06-20_17-21-32_260595134347_rgbf000089-resize_1-target.png,1000,1.86,0,2876,1008,meters,jsons/v1_VE1000_randls_72.json,602707,959429,29,Man
122,476196,DepthScenes,duration_manipulation_targetAtFixation,jsons/v1_VE1000_randls_72.json,http://54.235.29.9/FacialAge/BNav_EC2/DepthDuration/v2_depth_duration_MTurk/v2_DepthDuration_HTML.html#274,274,1366,768,1366,768,8-29-2022,10-2-59,123,depth_duration_stimuli/001011_2014-06-08_23-18-54_260595134347_rgbf000044-resize_4/001011_2014-06-08_23-18-54_260595134347_rgbf000044-resize_4-target.png,1000,2.4730000000000003,0,2684,996,meters,jsons/v1_VE1000_randls_72.json,602707,959429,29,Man
123,476196,DepthScenes,duration_manipulation_targetAtFixation,jsons/v1_VE1000_randls_72.json,http://54.235.29.9/FacialAge/BNav_EC2/DepthDuration/v2_depth_duration_MTurk/v2_DepthDuration_HTML.html#274,274,1366,768,1366,768,8-29-2022,10-2-59,124,depth_duration_stimuli/002875_2014-06-01_15-19-00_094959634447_rgbf000151-resize_1/002875_2014-06-01_15-19-00_094959634447_rgbf000151-resize_1-target.png,1000,1.9675,0,2572,991,meters,jsons/v1_VE1000_randls_72.json,602707,959429,29,Man
124,476196,DepthScenes,duration_manipulation_targetAtFixation,jsons/v1_VE1000_randls_72.json,http://54.235.29.9/FacialAge/BNav_EC2/DepthDuration/v2_depth_duration_MTurk/v2_DepthDuration_HTML.html#274,274,1366,768,1366,768,8-29-2022,10-2-59,125,depth_duration_stimuli/000773_2014-06-08_22-24-54_260595134347_rgbf000093-resize_1/000773_2014-06-08_22-24-54_260595134347_rgbf000093-resize_1-target.png,1000,4.973,0,3156,999,meters,jsons/v1_VE1000_randls_72.json,602707,959429,29,Man
125,476196,DepthScenes,duration_manipulation_targetAtFixation,jsons/v1_VE1000_randls_72.json,http://54.235.29.9/FacialAge/BNav_EC2/DepthDuration/v2_depth_duration_MTurk/v2_DepthDuration_HTML.html#274,274,1366,768,1366,768,8-29-2022,10-2-59,126,depth_duration_stimuli/002414_2014-06-28_20-24-58_260595134347_rgbf000067-resize_4/002414_2014-06-28_20-24-58_260595134347_rgbf000067-resize_4-target.png,1000,4.363,0,2822,997,meters,jsons/v1_VE1000_randls_72.json,602707,959429,29,Man
126,476196,DepthScenes,duration_manipulation_targetAtFixation,jsons/v1_VE1000_randls_72.json,http://54.235.29.9/FacialAge/BNav_EC2/DepthDuration/v2_depth_duration_MTurk/v2_DepthDuration_HTML.html#274,274,1366,768,1366,768,8-29-2022,10-2-59,127,depth_duration_stimuli/001055_2014-06-08_18-45-35_260595134347_rgbf000111-resize_4/001055_2014-06-08_18-45-35_260595134347_rgbf000111-resize_4-target.png,1000,2.4290000000000003,0,2747,990,meters,jsons/v1_VE1000_randls_72.json,602707,959429,29,Man
127,476196,DepthScenes,duration_manipulation_targetAtFixation,jsons/v1_VE1000_randls_72.json,http://54.235.29.9/FacialAge/BNav_EC2/DepthDuration/v2_depth_duration_MTurk/v2_DepthDuration_HTML.html#274,274,1366,768,1366,768,8-29-2022,10-2-59,128,depth_duration_stimuli/000549_2014-06-08_22-10-24_260595134347_rgbf000247-resize_3/000549_2014-06-08_22-10-24_260595134347_rgbf000247-resize_3-target.png,1000,1.841,0,2677,1003,meters,jsons/v1_VE1000_randls_72.json,602707,959429,29,Man
128,476196,DepthScenes,duration_manipulation_targetAtFixation,jsons/v1_VE1000_randls_72.json,http://54.235.29.9/FacialAge/BNav_EC2/DepthDuration/v2_depth_duration_MTurk/v2_DepthDuration_HTML.html#274,274,1366,768,1366,768,8-29-2022,10-2-59,129,depth_duration_stimuli/000917_2014-06-09_22-45-29_260595134347_rgbf000149-resize_3/000917_2014-06-09_22-45-29_260595134347_rgbf000149-resize_3-target.png,1000,4.1865,0,2711,1004,meters,jsons/v1_VE1000_randls_72.json,602707,959429,29,Man
129,476196,DepthScenes,duration_manipulation_targetAtFixation,jsons/v1_VE1000_randls_72.json,http://54.235.29.9/FacialAge/BNav_EC2/DepthDuration/v2_depth_duration_MTurk/v2_DepthDuration_HTML.html#274,274,1366,768,1366,768,8-29-2022,10-2-59,130,depth_duration_stimuli/002323_2014-06-28_20-01-54_260595134347_rgbf000051-resize_4/002323_2014-06-28_20-01-54_260595134347_rgbf000051-resize_4-target.png,1000,3.7310000000000003,0,3090,1006,meters,jsons/v1_VE1000_randls_72.json,602707,959429,29,Man
130,476196,DepthScenes,duration_manipulation_targetAtFixation,jsons/v1_VE1000_randls_72.json,http://54.235.29.9/FacialAge/BNav_EC2/DepthDuration/v2_depth_duration_MTurk/v2_DepthDuration_HTML.html#274,274,1366,768,1366,768,8-29-2022,10-2-59,131,depth_duration_stimuli/002057_2014-06-24_21-00-13_260595134347_rgbf000120-resize_1/002057_2014-06-24_21-00-13_260595134347_rgbf000120-resize_1-target.png,1000,2.967,0,2757,990,meters,jsons/v1_VE1000_randls_72.json,602707,959429,29,Man
131,476196,DepthScenes,duration_manipulation_targetAtFixation,jsons/v1_VE1000_randls_72.json,http://54.235.29.9/FacialAge/BNav_EC2/DepthDuration/v2_depth_duration_MTurk/v2_DepthDuration_HTML.html#274,274,1366,768,1366,768,8-29-2022,10-2-59,132,depth_duration_stimuli/000709_2014-06-08_13-51-55_260595134347_rgbf000068-resize_3/000709_2014-06-08_13-51-55_260595134347_rgbf000068-resize_3-target.png,1000,1.8030000000000002,0,3570,991,meters,jsons/v1_VE1000_randls_72.json,602707,959429,29,Man
132,476196,DepthScenes,duration_manipulation_targetAtFixation,jsons/v1_VE1000_randls_72.json,http://54.235.29.9/FacialAge/BNav_EC2/DepthDuration/v2_depth_duration_MTurk/v2_DepthDuration_HTML.html#274,274,1366,768,1366,768,8-29-2022,10-2-59,133,depth_duration_stimuli/002989_2014-06-15_12-25-03_094959634447_rgbf000150-resize_3/002989_2014-06-15_12-25-03_094959634447_rgbf000150-resize_3-target.png,1000,4.1975,0,2775,1002,meters,jsons/v1_VE1000_randls_72.json,602707,959429,29,Man
133,476196,DepthScenes,duration_manipulation_targetAtFixation,jsons/v1_VE1000_randls_72.json,http://54.235.29.9/FacialAge/BNav_EC2/DepthDuration/v2_depth_duration_MTurk/v2_DepthDuration_HTML.html#274,274,1366,768,1366,768,8-29-2022,10-2-59,134,depth_duration_stimuli/000866_2014-06-09_20-45-42_260595134347_rgbf000139-resize_1/000866_2014-06-09_20-45-42_260595134347_rgbf000139-resize_1-target.png,1000,3.2155,0,2730,1006,meters,jsons/v1_VE1000_randls_72.json,602707,959429,29,Man
134,476196,DepthScenes,duration_manipulation_targetAtFixation,jsons/v1_VE1000_randls_72.json,http://54.235.29.9/FacialAge/BNav_EC2/DepthDuration/v2_depth_duration_MTurk/v2_DepthDuration_HTML.html#274,274,1366,768,1366,768,8-29-2022,10-2-59,135,depth_duration_stimuli/002072_2014-06-24_21-48-06_260595134347_rgbf000115-resize_0/002072_2014-06-24_21-48-06_260595134347_rgbf000115-resize-original.jpg,1000,4.702,0,2691,1000,meters,jsons/v1_VE1000_randls_72.json,602707,959429,29,Man
135,476196,DepthScenes,duration_manipulation_targetAtFixation,jsons/v1_VE1000_randls_72.json,http://54.235.29.9/FacialAge/BNav_EC2/DepthDuration/v2_depth_duration_MTurk/v2_DepthDuration_HTML.html#274,274,1366,768,1366,768,8-29-2022,10-2-59,136,depth_duration_stimuli/001133_2014-06-17_14-49-16_260595134347_rgbf000100-resize_0/001133_2014-06-17_14-49-16_260595134347_rgbf000100-resize_0-target.png,1000,4.2115,0,2755,1007,meters,jsons/v1_VE1000_randls_72.json,602707,959429,29,Man
136,476196,DepthScenes,duration_manipulation_targetAtFixation,jsons/v1_VE1000_randls_72.json,http://54.235.29.9/FacialAge/BNav_EC2/DepthDuration/v2_depth_duration_MTurk/v2_DepthDuration_HTML.html#274,274,1366,768,1366,768,8-29-2022,10-2-59,137,depth_duration_stimuli/001132_2014-06-17_14-48-54_260595134347_rgbf000100-resize_2/001132_2014-06-17_14-48-54_260595134347_rgbf000100-resize_2-target.png,1000,3.753,0,3335,989,meters,jsons/v1_VE1000_randls_72.json,602707,959429,29,Man
137,476196,DepthScenes,duration_manipulation_targetAtFixation,jsons/v1_VE1000_randls_72.json,http://54.235.29.9/FacialAge/BNav_EC2/DepthDuration/v2_depth_duration_MTurk/v2_DepthDuration_HTML.html#274,274,1366,768,1366,768,8-29-2022,10-2-59,138,depth_duration_stimuli/000469_2014-06-09_19-42-10_260595134347_rgbf000081-resize_1/000469_2014-06-09_19-42-10_260595134347_rgbf000081-resize_1-target.png,1000,1.652,0,2899,988,meters,jsons/v1_VE1000_randls_72.json,602707,959429,29,Man
138,476196,DepthScenes,duration_manipulation_targetAtFixation,jsons/v1_VE1000_randls_72.json,http://54.235.29.9/FacialAge/BNav_EC2/DepthDuration/v2_depth_duration_MTurk/v2_DepthDuration_HTML.html#274,274,1366,768,1366,768,8-29-2022,10-2-59,139,depth_duration_stimuli/000483_2014-06-09_20-41-45_260595134347_rgbf000116-resize_4/000483_2014-06-09_20-41-45_260595134347_rgbf000116-resize_4-target.png,1000,1.337,0,6554,1007,meters,jsons/v1_VE1000_randls_72.json,602707,959429,29,Man
139,476196,DepthScenes,duration_manipulation_targetAtFixation,jsons/v1_VE1000_randls_72.json,http://54.235.29.9/FacialAge/BNav_EC2/DepthDuration/v2_depth_duration_MTurk/v2_DepthDuration_HTML.html#274,274,1366,768,1366,768,8-29-2022,10-2-59,140,depth_duration_stimuli/001417_2014-06-19_16-25-36_260595134347_rgbf000115-resize_5/001417_2014-06-19_16-25-36_260595134347_rgbf000115-resize_5-target.png,1000,4.6255,0,2832,1004,meters,jsons/v1_VE1000_randls_72.json,602707,959429,29,Man
140,476196,DepthScenes,duration_manipulation_targetAtFixation,jsons/v1_VE1000_randls_72.json,http://54.235.29.9/FacialAge/BNav_EC2/DepthDuration/v2_depth_duration_MTurk/v2_DepthDuration_HTML.html#274,274,1366,768,1366,768,8-29-2022,10-2-59,141,depth_duration_stimuli/003081_2014-06-15_15-19-16_094959634447_rgbf000150-resize_1/003081_2014-06-15_15-19-16_094959634447_rgbf000150-resize_1-target.png,1000,3.9125,0,2755,993,meters,jsons/v1_VE1000_randls_72.json,602707,959429,29,Man
141,476196,DepthScenes,duration_manipulation_targetAtFixation,jsons/v1_VE1000_randls_72.json,http://54.235.29.9/FacialAge/BNav_EC2/DepthDuration/v2_depth_duration_MTurk/v2_DepthDuration_HTML.html#274,274,1366,768,1366,768,8-29-2022,10-2-59,142,depth_duration_stimuli/002375_2014-06-28_20-13-44_260595134347_rgbf000032-resize_1/002375_2014-06-28_20-13-44_260595134347_rgbf000032-resize_1-target.png,1000,4.0175,0,3303,994,meters,jsons/v1_VE1000_randls_72.json,602707,959429,29,Man
142,476196,DepthScenes,duration_manipulation_targetAtFixation,jsons/v1_VE1000_randls_72.json,http://54.235.29.9/FacialAge/BNav_EC2/DepthDuration/v2_depth_duration_MTurk/v2_DepthDuration_HTML.html#274,274,1366,768,1366,768,8-29-2022,10-2-59,143,depth_duration_stimuli/002657_2014-06-13_15-29-54_094959634447_rgbf000150-resize_1/002657_2014-06-13_15-29-54_094959634447_rgbf000150-resize_1-target.png,1000,4.919,0,2510,986,meters,jsons/v1_VE1000_randls_72.json,602707,959429,29,Man
143,476196,DepthScenes,duration_manipulation_targetAtFixation,jsons/v1_VE1000_randls_72.json,http://54.235.29.9/FacialAge/BNav_EC2/DepthDuration/v2_depth_duration_MTurk/v2_DepthDuration_HTML.html#274,274,1366,768,1366,768,8-29-2022,10-2-59,144,depth_duration_stimuli/000810_2014-06-08_17-20-01_260595134347_rgbf000105-resize_0/000810_2014-06-08_17-20-01_260595134347_rgbf000105-resize_0-target.png,1000,1.4865,0,2617,1012,meters,jsons/v1_VE1000_randls_72.json,602707,959429,29,Man
144,476196,DepthScenes,duration_manipulation_targetAtFixation,jsons/v1_VE1000_randls_72.json,http://54.235.29.9/FacialAge/BNav_EC2/DepthDuration/v2_depth_duration_MTurk/v2_DepthDuration_HTML.html#274,274,1366,768,1366,768,8-29-2022,10-2-59,145,depth_duration_stimuli/001214_2014-06-17_16-13-55_260595134347_rgbf000111-resize_0/001214_2014-06-17_16-13-55_260595134347_rgbf000111-resize_0-target.png,1000,2.6505,0,2736,999,meters,jsons/v1_VE1000_randls_72.json,602707,959429,29,Man
145,476196,DepthScenes,duration_manipulation_targetAtFixation,jsons/v1_VE1000_randls_72.json,http://54.235.29.9/FacialAge/BNav_EC2/DepthDuration/v2_depth_duration_MTurk/v2_DepthDuration_HTML.html#274,274,1366,768,1366,768,8-29-2022,10-2-59,146,depth_duration_stimuli/001498_2014-06-19_17-45-14_260595134347_rgbf000129-resize_4/001498_2014-06-19_17-45-14_260595134347_rgbf000129-resize-original.jpg,1000,1.4075,0,2730,1000,meters,jsons/v1_VE1000_randls_72.json,602707,959429,29,Man
146,476196,DepthScenes,duration_manipulation_targetAtFixation,jsons/v1_VE1000_randls_72.json,http://54.235.29.9/FacialAge/BNav_EC2/DepthDuration/v2_depth_duration_MTurk/v2_DepthDuration_HTML.html#274,274,1366,768,1366,768,8-29-2022,10-2-59,147,depth_duration_stimuli/002570_2014-06-24_13-59-54_094959634447_rgbf000059-resize_0/002570_2014-06-24_13-59-54_094959634447_rgbf000059-resize_0-target.png,1000,4.037,0,2612,987,meters,jsons/v1_VE1000_randls_72.json,602707,959429,29,Man
147,476196,DepthScenes,duration_manipulation_targetAtFixation,jsons/v1_VE1000_randls_72.json,http://54.235.29.9/FacialAge/BNav_EC2/DepthDuration/v2_depth_duration_MTurk/v2_DepthDuration_HTML.html#274,274,1366,768,1366,768,8-29-2022,10-2-59,148,depth_duration_stimuli/002467_2014-06-28_20-38-07_260595134347_rgbf000026-resize_2/002467_2014-06-28_20-38-07_260595134347_rgbf000026-resize_2-target.png,1000,4.742,0,2718,997,meters,jsons/v1_VE1000_randls_72.json,602707,959429,29,Man
148,476196,DepthScenes,duration_manipulation_targetAtFixation,jsons/v1_VE1000_randls_72.json,http://54.235.29.9/FacialAge/BNav_EC2/DepthDuration/v2_depth_duration_MTurk/v2_DepthDuration_HTML.html#274,274,1366,768,1366,768,8-29-2022,10-2-59,149,depth_duration_stimuli/001066_2014-06-08_22-03-20_260595134347_rgbf000066-resize_4/001066_2014-06-08_22-03-20_260595134347_rgbf000066-resize_4-target.png,1000,4.2330000000000005,0,2623,997,meters,jsons/v1_VE1000_randls_72.json,602707,959429,29,Man
149,476196,DepthScenes,duration_manipulation_targetAtFixation,jsons/v1_VE1000_randls_72.json,http://54.235.29.9/FacialAge/BNav_EC2/DepthDuration/v2_depth_duration_MTurk/v2_DepthDuration_HTML.html#274,274,1366,768,1366,768,8-29-2022,10-2-59,150,depth_duration_stimuli/000742_2014-06-08_18-48-09_260595134347_rgbf000164-resize_4/000742_2014-06-08_18-48-09_260595134347_rgbf000164-resize_4-target.png,1000,4.632,0,2632,999,meters,jsons/v1_VE1000_randls_72.json,602707,959429,29,Man
150,476196,DepthScenes,duration_manipulation_targetAtFixation,jsons/v1_VE1000_randls_72.json,http://54.235.29.9/FacialAge/BNav_EC2/DepthDuration/v2_depth_duration_MTurk/v2_DepthDuration_HTML.html#274,274,1366,768,1366,768,8-29-2022,10-2-59,151,depth_duration_stimuli/000436_2014-06-09_22-25-11_260595134347_rgbf000137-resize_1/000436_2014-06-09_22-25-11_260595134347_rgbf000137-resize_1-target.png,1000,4.0705,0,2737,1000,meters,jsons/v1_VE1000_randls_72.json,602707,959429,29,Man
151,476196,DepthScenes,duration_manipulation_targetAtFixation,jsons/v1_VE1000_randls_72.json,http://54.235.29.9/FacialAge/BNav_EC2/DepthDuration/v2_depth_duration_MTurk/v2_DepthDuration_HTML.html#274,274,1366,768,1366,768,8-29-2022,10-2-59,152,depth_duration_stimuli/002444_2014-06-28_20-32-08_260595134347_rgbf000027-resize_0/002444_2014-06-28_20-32-08_260595134347_rgbf000027-resize_0-target.png,1000,4.388999999999999,0,3187,1009,meters,jsons/v1_VE1000_randls_72.json,602707,959429,29,Man
152,476196,DepthScenes,duration_manipulation_targetAtFixation,jsons/v1_VE1000_randls_72.json,http://54.235.29.9/FacialAge/BNav_EC2/DepthDuration/v2_depth_duration_MTurk/v2_DepthDuration_HTML.html#274,274,1366,768,1366,768,8-29-2022,10-2-59,153,depth_duration_stimuli/000447_2014-06-08_16-15-46_260595134347_rgbf000130-resize_1/000447_2014-06-08_16-15-46_260595134347_rgbf000130-resize_1-target.png,1000,4.479,0,2737,1004,meters,jsons/v1_VE1000_randls_72.json,602707,959429,29,Man
153,476196,DepthScenes,duration_manipulation_targetAtFixation,jsons/v1_VE1000_randls_72.json,http://54.235.29.9/FacialAge/BNav_EC2/DepthDuration/v2_depth_duration_MTurk/v2_DepthDuration_HTML.html#274,274,1366,768,1366,768,8-29-2022,10-2-59,154,depth_duration_stimuli/001447_2014-06-19_17-00-32_260595134347_rgbf000082-resize_5/001447_2014-06-19_17-00-32_260595134347_rgbf000082-resize_5-target.png,1000,4.13775,0,2993,1011,meters,jsons/v1_VE1000_randls_72.json,602707,959429,29,Man
154,476196,DepthScenes,duration_manipulation_targetAtFixation,jsons/v1_VE1000_randls_72.json,http://54.235.29.9/FacialAge/BNav_EC2/DepthDuration/v2_depth_duration_MTurk/v2_DepthDuration_HTML.html#274,274,1366,768,1366,768,8-29-2022,10-2-59,155,depth_duration_stimuli/002763_2014-06-22_19-13-10_094959634447_rgbf000075-resize_4/002763_2014-06-22_19-13-10_094959634447_rgbf000075-resize_4-target.png,1000,1.68375,0,3118,996,meters,jsons/v1_VE1000_randls_72.json,602707,959429,29,Man
155,476196,DepthScenes,duration_manipulation_targetAtFixation,jsons/v1_VE1000_randls_72.json,http://54.235.29.9/FacialAge/BNav_EC2/DepthDuration/v2_depth_duration_MTurk/v2_DepthDuration_HTML.html#274,274,1366,768,1366,768,8-29-2022,10-2-59,156,depth_duration_stimuli/002209_2014-06-28_18-36-10_260595134347_rgbf000051-resize_1/002209_2014-06-28_18-36-10_260595134347_rgbf000051-resize_1-target.png,1000,2.057,0,2724,995,meters,jsons/v1_VE1000_randls_72.json,602707,959429,29,Man
156,476196,DepthScenes,duration_manipulation_targetAtFixation,jsons/v1_VE1000_randls_72.json,http://54.235.29.9/FacialAge/BNav_EC2/DepthDuration/v2_depth_duration_MTurk/v2_DepthDuration_HTML.html#274,274,1366,768,1366,768,8-29-2022,10-2-59,157,depth_duration_stimuli/000368_2014-06-09_15-53-01_260595134347_rgbf000155-resize_2/000368_2014-06-09_15-53-01_260595134347_rgbf000155-resize_2-target.png,1000,2.4859999999999998,0,3187,996,meters,jsons/v1_VE1000_randls_72.json,602707,959429,29,Man
157,476196,DepthScenes,duration_manipulation_targetAtFixation,jsons/v1_VE1000_randls_72.json,http://54.235.29.9/FacialAge/BNav_EC2/DepthDuration/v2_depth_duration_MTurk/v2_DepthDuration_HTML.html#274,274,1366,768,1366,768,8-29-2022,10-2-59,158,depth_duration_stimuli/002678_2014-06-13_16-15-32_094959634447_rgbf000151-resize_6/002678_2014-06-13_16-15-32_094959634447_rgbf000151-resize_6-target.png,1000,2.1830000000000003,0,2706,1005,meters,jsons/v1_VE1000_randls_72.json,602707,959429,29,Man
158,476196,DepthScenes,duration_manipulation_targetAtFixation,jsons/v1_VE1000_randls_72.json,http://54.235.29.9/FacialAge/BNav_EC2/DepthDuration/v2_depth_duration_MTurk/v2_DepthDuration_HTML.html#274,274,1366,768,1366,768,8-29-2022,10-2-59,159,depth_duration_stimuli/001810_2014-06-26_20-51-35_260595134347_rgbf000040-resize_3/001810_2014-06-26_20-51-35_260595134347_rgbf000040-resize_3-target.png,1000,2.2525,0,2926,1007,meters,jsons/v1_VE1000_randls_72.json,602707,959429,29,Man
159,476196,DepthScenes,duration_manipulation_targetAtFixation,jsons/v1_VE1000_randls_72.json,http://54.235.29.9/FacialAge/BNav_EC2/DepthDuration/v2_depth_duration_MTurk/v2_DepthDuration_HTML.html#274,274,1366,768,1366,768,8-29-2022,10-2-59,160,depth_duration_stimuli/003010_2014-06-15_12-54-35_094959634447_rgbf000112-resize_0/003010_2014-06-15_12-54-35_094959634447_rgbf000112-resize_0-target.png,1000,3.1185,0,2780,997,meters,jsons/v1_VE1000_randls_72.json,602707,959429,29,Man
160,476196,DepthScenes,duration_manipulation_targetAtFixation,jsons/v1_VE1000_randls_72.json,http://54.235.29.9/FacialAge/BNav_EC2/DepthDuration/v2_depth_duration_MTurk/v2_DepthDuration_HTML.html#274,274,1366,768,1366,768,8-29-2022,10-2-59,161,depth_duration_stimuli/000758_2014-06-08_22-05-08_260595134347_rgbf000085-resize_0/000758_2014-06-08_22-05-08_260595134347_rgbf000085-resize_0-target.png,1000,3.3810000000000002,0,2656,1000,meters,jsons/v1_VE1000_randls_72.json,602707,959429,29,Man
161,476196,DepthScenes,duration_manipulation_targetAtFixation,jsons/v1_VE1000_randls_72.json,http://54.235.29.9/FacialAge/BNav_EC2/DepthDuration/v2_depth_duration_MTurk/v2_DepthDuration_HTML.html#274,274,1366,768,1366,768,8-29-2022,10-2-59,162,depth_duration_stimuli/000854_2014-06-09_19-43-13_260595134347_rgbf000066-resize_0/000854_2014-06-09_19-43-13_260595134347_rgbf000066-resize_0-target.png,1000,3.068,0,4259,1002,meters,jsons/v1_VE1000_randls_72.json,602707,959429,29,Man
162,476196,DepthScenes,duration_manipulation_targetAtFixation,jsons/v1_VE1000_randls_72.json,http://54.235.29.9/FacialAge/BNav_EC2/DepthDuration/v2_depth_duration_MTurk/v2_DepthDuration_HTML.html#274,274,1366,768,1366,768,8-29-2022,10-2-59,163,depth_duration_stimuli/003292_2014-05-14_21-53-49_094959634447_rgbf000100-resize_2/003292_2014-05-14_21-53-49_094959634447_rgbf000100-resize_2-target.png,1000,3.4815,0,2857,1007,meters,jsons/v1_VE1000_randls_72.json,602707,959429,29,Man
163,476196,DepthScenes,duration_manipulation_targetAtFixation,jsons/v1_VE1000_randls_72.json,http://54.235.29.9/FacialAge/BNav_EC2/DepthDuration/v2_depth_duration_MTurk/v2_DepthDuration_HTML.html#274,274,1366,768,1366,768,8-29-2022,10-2-59,164,depth_duration_stimuli/002639_2014-06-24_14-51-37_094959634447_rgbf000074-resize_4/002639_2014-06-24_14-51-37_094959634447_rgbf000074-resize_4-target.png,1000,4.0375,0,2612,989,meters,jsons/v1_VE1000_randls_72.json,602707,959429,29,Man
