,subjID,experimentName,versionName,sequenceName,url,selected_row,windowWidth,windowHeight,screenWidth,screenHeight,startDate,startTime,trial,stimulus,duration,actual_depth,depth_estimate,trial_RT,log_sceneDuration,unitSelection,seq_filepath,experimentTime,totalTime,age,gender
0,476113,DepthScenes,duration_manipulation_targetAtFixation,jsons/v1_VE250_randls_66.json,http://54.235.29.9/FacialAge/BNav_EC2/DepthDuration/v2_depth_duration_MTurk/v2_DepthDuration_HTML.html#102,102,1200,750,1200,750,8-20-2022,12-19-42,1,depth_duration_stimuli/000692_2014-06-08_13-09-42_260595134347_rgbf000199-resize_2/000692_2014-06-08_13-09-42_260595134347_rgbf000199-resize_2-target.png,250,3.661,22,4673,241,feet,jsons/v1_VE250_randls_66.json,923970,1156030,49,Man
1,476113,DepthScenes,duration_manipulation_targetAtFixation,jsons/v1_VE250_randls_66.json,http://54.235.29.9/FacialAge/BNav_EC2/DepthDuration/v2_depth_duration_MTurk/v2_DepthDuration_HTML.html#102,102,1200,750,1200,750,8-20-2022,12-19-42,2,depth_duration_stimuli/001094_2014-06-15_17-36-00_260595134347_rgbf000205-resize_0/001094_2014-06-15_17-36-00_260595134347_rgbf000205-resize_0-target.png,250,4.2175,15,5865,253,feet,jsons/v1_VE250_randls_66.json,923970,1156030,49,Man
2,476113,DepthScenes,duration_manipulation_targetAtFixation,jsons/v1_VE250_randls_66.json,http://54.235.29.9/FacialAge/BNav_EC2/DepthDuration/v2_depth_duration_MTurk/v2_DepthDuration_HTML.html#102,102,1200,750,1200,750,8-20-2022,12-19-42,3,depth_duration_stimuli/001164_2014-06-17_15-35-46_260595134347_rgbf000085-resize_3/001164_2014-06-17_15-35-46_260595134347_rgbf000085-resize_3-target.png,250,2.354,8,6673,248,feet,jsons/v1_VE250_randls_66.json,923970,1156030,49,Man
3,476113,DepthScenes,duration_manipulation_targetAtFixation,jsons/v1_VE250_randls_66.json,http://54.235.29.9/FacialAge/BNav_EC2/DepthDuration/v2_depth_duration_MTurk/v2_DepthDuration_HTML.html#102,102,1200,750,1200,750,8-20-2022,12-19-42,4,depth_duration_stimuli/001136_2014-06-17_15-19-41_260595134347_rgbf000076-resize_3/001136_2014-06-17_15-19-41_260595134347_rgbf000076-resize_3-target.png,250,1.8655,12,4533,246,feet,jsons/v1_VE250_randls_66.json,923970,1156030,49,Man
4,476113,DepthScenes,duration_manipulation_targetAtFixation,jsons/v1_VE250_randls_66.json,http://54.235.29.9/FacialAge/BNav_EC2/DepthDuration/v2_depth_duration_MTurk/v2_DepthDuration_HTML.html#102,102,1200,750,1200,750,8-20-2022,12-19-42,5,depth_duration_stimuli/001056_2014-06-08_18-46-44_260595134347_rgbf000068-resize_0/001056_2014-06-08_18-46-44_260595134347_rgbf000068-resize_0-target.png,250,2.6625,17,6624,248,feet,jsons/v1_VE250_randls_66.json,923970,1156030,49,Man
5,476113,DepthScenes,duration_manipulation_targetAtFixation,jsons/v1_VE250_randls_66.json,http://54.235.29.9/FacialAge/BNav_EC2/DepthDuration/v2_depth_duration_MTurk/v2_DepthDuration_HTML.html#102,102,1200,750,1200,750,8-20-2022,12-19-42,6,depth_duration_stimuli/002199_2014-06-28_18-33-56_260595134347_rgbf000074-resize_0/002199_2014-06-28_18-33-56_260595134347_rgbf000074-resize_0-target.png,250,1.996,6,4615,237,feet,jsons/v1_VE250_randls_66.json,923970,1156030,49,Man
6,476113,DepthScenes,duration_manipulation_targetAtFixation,jsons/v1_VE250_randls_66.json,http://54.235.29.9/FacialAge/BNav_EC2/DepthDuration/v2_depth_duration_MTurk/v2_DepthDuration_HTML.html#102,102,1200,750,1200,750,8-20-2022,12-19-42,7,depth_duration_stimuli/002748_2014-06-22_19-07-22_094959634447_rgbf000078-resize_1/002748_2014-06-22_19-07-22_094959634447_rgbf000078-resize_1-target.png,250,4.6705,45,7258,263,feet,jsons/v1_VE250_randls_66.json,923970,1156030,49,Man
7,476113,DepthScenes,duration_manipulation_targetAtFixation,jsons/v1_VE250_randls_66.json,http://54.235.29.9/FacialAge/BNav_EC2/DepthDuration/v2_depth_duration_MTurk/v2_DepthDuration_HTML.html#102,102,1200,750,1200,750,8-20-2022,12-19-42,8,depth_duration_stimuli/002995_2014-06-15_12-31-26_094959634447_rgbf000150-resize_1/002995_2014-06-15_12-31-26_094959634447_rgbf000150-resize_1-target.png,250,3.8360000000000003,15,7046,248,feet,jsons/v1_VE250_randls_66.json,923970,1156030,49,Man
8,476113,DepthScenes,duration_manipulation_targetAtFixation,jsons/v1_VE250_randls_66.json,http://54.235.29.9/FacialAge/BNav_EC2/DepthDuration/v2_depth_duration_MTurk/v2_DepthDuration_HTML.html#102,102,1200,750,1200,750,8-20-2022,12-19-42,9,depth_duration_stimuli/001016_2014-06-09_16-16-10_260595134347_rgbf000112-resize_5/001016_2014-06-09_16-16-10_260595134347_rgbf000112-resize_5-target.png,250,1.6565,16,12742,248,feet,jsons/v1_VE250_randls_66.json,923970,1156030,49,Man
9,476113,DepthScenes,duration_manipulation_targetAtFixation,jsons/v1_VE250_randls_66.json,http://54.235.29.9/FacialAge/BNav_EC2/DepthDuration/v2_depth_duration_MTurk/v2_DepthDuration_HTML.html#102,102,1200,750,1200,750,8-20-2022,12-19-42,10,depth_duration_stimuli/002340_2014-06-28_20-05-46_260595134347_rgbf000113-resize_0/002340_2014-06-28_20-05-46_260595134347_rgbf000113-resize_0-target.png,250,2.4735,10,8986,246,feet,jsons/v1_VE250_randls_66.json,923970,1156030,49,Man
10,476113,DepthScenes,duration_manipulation_targetAtFixation,jsons/v1_VE250_randls_66.json,http://54.235.29.9/FacialAge/BNav_EC2/DepthDuration/v2_depth_duration_MTurk/v2_DepthDuration_HTML.html#102,102,1200,750,1200,750,8-20-2022,12-19-42,11,depth_duration_stimuli/001199_2014-06-17_16-03-48_260595134347_rgbf000077-resize_0/001199_2014-06-17_16-03-48_260595134347_rgbf000077-resize_0-target.png,250,3.4375,12,5647,253,feet,jsons/v1_VE250_randls_66.json,923970,1156030,49,Man
11,476113,DepthScenes,duration_manipulation_targetAtFixation,jsons/v1_VE250_randls_66.json,http://54.235.29.9/FacialAge/BNav_EC2/DepthDuration/v2_depth_duration_MTurk/v2_DepthDuration_HTML.html#102,102,1200,750,1200,750,8-20-2022,12-19-42,12,depth_duration_stimuli/000502_2014-06-08_23-02-32_260595134347_rgbf000063-resize_4/000502_2014-06-08_23-02-32_260595134347_rgbf000063-resize_4-target.png,250,2.431,10,8703,231,feet,jsons/v1_VE250_randls_66.json,923970,1156030,49,Man
12,476113,DepthScenes,duration_manipulation_targetAtFixation,jsons/v1_VE250_randls_66.json,http://54.235.29.9/FacialAge/BNav_EC2/DepthDuration/v2_depth_duration_MTurk/v2_DepthDuration_HTML.html#102,102,1200,750,1200,750,8-20-2022,12-19-42,13,depth_duration_stimuli/000569_2014-06-09_22-51-47_260595134347_rgbf000141-resize_3/000569_2014-06-09_22-51-47_260595134347_rgbf000141-resize-original.jpg,250,4.512,0,3394,247,feet,jsons/v1_VE250_randls_66.json,923970,1156030,49,Man
13,476113,DepthScenes,duration_manipulation_targetAtFixation,jsons/v1_VE250_randls_66.json,http://54.235.29.9/FacialAge/BNav_EC2/DepthDuration/v2_depth_duration_MTurk/v2_DepthDuration_HTML.html#102,102,1200,750,1200,750,8-20-2022,12-19-42,14,depth_duration_stimuli/000906_2014-06-08_13-35-43_260595134347_rgbf000155-resize_1/000906_2014-06-08_13-35-43_260595134347_rgbf000155-resize_1-target.png,250,2.8489999999999998,15,7748,247,feet,jsons/v1_VE250_randls_66.json,923970,1156030,49,Man
14,476113,DepthScenes,duration_manipulation_targetAtFixation,jsons/v1_VE250_randls_66.json,http://54.235.29.9/FacialAge/BNav_EC2/DepthDuration/v2_depth_duration_MTurk/v2_DepthDuration_HTML.html#102,102,1200,750,1200,750,8-20-2022,12-19-42,15,depth_duration_stimuli/002805_2014-06-22_19-54-03_094959634447_rgbf000079-resize_1/002805_2014-06-22_19-54-03_094959634447_rgbf000079-resize_1-target.png,250,3.1439999999999997,20,7452,253,feet,jsons/v1_VE250_randls_66.json,923970,1156030,49,Man
15,476113,DepthScenes,duration_manipulation_targetAtFixation,jsons/v1_VE250_randls_66.json,http://54.235.29.9/FacialAge/BNav_EC2/DepthDuration/v2_depth_duration_MTurk/v2_DepthDuration_HTML.html#102,102,1200,750,1200,750,8-20-2022,12-19-42,16,depth_duration_stimuli/002272_2014-06-28_18-53-56_260595134347_rgbf000067-resize_2/002272_2014-06-28_18-53-56_260595134347_rgbf000067-resize_2-target.png,250,1.138,5,5848,246,feet,jsons/v1_VE250_randls_66.json,923970,1156030,49,Man
16,476113,DepthScenes,duration_manipulation_targetAtFixation,jsons/v1_VE250_randls_66.json,http://54.235.29.9/FacialAge/BNav_EC2/DepthDuration/v2_depth_duration_MTurk/v2_DepthDuration_HTML.html#102,102,1200,750,1200,750,8-20-2022,12-19-42,17,depth_duration_stimuli/001571_2014-06-20_17-21-32_260595134347_rgbf000089-resize_1/001571_2014-06-20_17-21-32_260595134347_rgbf000089-resize_1-target.png,250,1.86,6,5479,260,feet,jsons/v1_VE250_randls_66.json,923970,1156030,49,Man
17,476113,DepthScenes,duration_manipulation_targetAtFixation,jsons/v1_VE250_randls_66.json,http://54.235.29.9/FacialAge/BNav_EC2/DepthDuration/v2_depth_duration_MTurk/v2_DepthDuration_HTML.html#102,102,1200,750,1200,750,8-20-2022,12-19-42,18,depth_duration_stimuli/002570_2014-06-24_13-59-54_094959634447_rgbf000059-resize_0/002570_2014-06-24_13-59-54_094959634447_rgbf000059-resize_0-target.png,250,4.037,10,9619,263,feet,jsons/v1_VE250_randls_66.json,923970,1156030,49,Man
18,476113,DepthScenes,duration_manipulation_targetAtFixation,jsons/v1_VE250_randls_66.json,http://54.235.29.9/FacialAge/BNav_EC2/DepthDuration/v2_depth_duration_MTurk/v2_DepthDuration_HTML.html#102,102,1200,750,1200,750,8-20-2022,12-19-42,19,depth_duration_stimuli/002467_2014-06-28_20-38-07_260595134347_rgbf000026-resize_2/002467_2014-06-28_20-38-07_260595134347_rgbf000026-resize_2-target.png,250,4.742,25,3870,248,feet,jsons/v1_VE250_randls_66.json,923970,1156030,49,Man
19,476113,DepthScenes,duration_manipulation_targetAtFixation,jsons/v1_VE250_randls_66.json,http://54.235.29.9/FacialAge/BNav_EC2/DepthDuration/v2_depth_duration_MTurk/v2_DepthDuration_HTML.html#102,102,1200,750,1200,750,8-20-2022,12-19-42,20,depth_duration_stimuli/002279_2014-06-28_18-55-32_260595134347_rgbf000040-resize_5/002279_2014-06-28_18-55-32_260595134347_rgbf000040-resize_5-target.png,250,1.5043333333333,7,5585,252,feet,jsons/v1_VE250_randls_66.json,923970,1156030,49,Man
20,476113,DepthScenes,duration_manipulation_targetAtFixation,jsons/v1_VE250_randls_66.json,http://54.235.29.9/FacialAge/BNav_EC2/DepthDuration/v2_depth_duration_MTurk/v2_DepthDuration_HTML.html#102,102,1200,750,1200,750,8-20-2022,12-19-42,21,depth_duration_stimuli/000635_2014-06-08_16-38-42_260595134347_rgbf000106-resize_1/000635_2014-06-08_16-38-42_260595134347_rgbf000106-resize_1-target.png,250,2.074,12,4922,254,feet,jsons/v1_VE250_randls_66.json,923970,1156030,49,Man
21,476113,DepthScenes,duration_manipulation_targetAtFixation,jsons/v1_VE250_randls_66.json,http://54.235.29.9/FacialAge/BNav_EC2/DepthDuration/v2_depth_duration_MTurk/v2_DepthDuration_HTML.html#102,102,1200,750,1200,750,8-20-2022,12-19-42,22,depth_duration_stimuli/003621_2014-05-23_18-06-08_094959634447_rgbf000101-resize_1/003621_2014-05-23_18-06-08_094959634447_rgbf000101-resize_1-target.png,250,3.9835,15,7384,246,feet,jsons/v1_VE250_randls_66.json,923970,1156030,49,Man
22,476113,DepthScenes,duration_manipulation_targetAtFixation,jsons/v1_VE250_randls_66.json,http://54.235.29.9/FacialAge/BNav_EC2/DepthDuration/v2_depth_duration_MTurk/v2_DepthDuration_HTML.html#102,102,1200,750,1200,750,8-20-2022,12-19-42,23,depth_duration_stimuli/001584_2014-06-20_11-07-43_260595134347_rgbf000002-resize_1/001584_2014-06-20_11-07-43_260595134347_rgbf000002-resize_1-target.png,250,3.53,18,6879,251,feet,jsons/v1_VE250_randls_66.json,923970,1156030,49,Man
23,476113,DepthScenes,duration_manipulation_targetAtFixation,jsons/v1_VE250_randls_66.json,http://54.235.29.9/FacialAge/BNav_EC2/DepthDuration/v2_depth_duration_MTurk/v2_DepthDuration_HTML.html#102,102,1200,750,1200,750,8-20-2022,12-19-42,24,depth_duration_stimuli/003492_2014-05-21_15-50-55_094959634447_rgbf000828-resize_1/003492_2014-05-21_15-50-55_094959634447_rgbf000828-resize_1-target.png,250,4.06875,25,3550,253,feet,jsons/v1_VE250_randls_66.json,923970,1156030,49,Man
24,476113,DepthScenes,duration_manipulation_targetAtFixation,jsons/v1_VE250_randls_66.json,http://54.235.29.9/FacialAge/BNav_EC2/DepthDuration/v2_depth_duration_MTurk/v2_DepthDuration_HTML.html#102,102,1200,750,1200,750,8-20-2022,12-19-42,25,depth_duration_stimuli/002568_2014-06-24_13-59-21_094959634447_rgbf000062-resize_4/002568_2014-06-24_13-59-21_094959634447_rgbf000062-resize_4-target.png,250,3.015,27,5663,247,feet,jsons/v1_VE250_randls_66.json,923970,1156030,49,Man
25,476113,DepthScenes,duration_manipulation_targetAtFixation,jsons/v1_VE250_randls_66.json,http://54.235.29.9/FacialAge/BNav_EC2/DepthDuration/v2_depth_duration_MTurk/v2_DepthDuration_HTML.html#102,102,1200,750,1200,750,8-20-2022,12-19-42,26,depth_duration_stimuli/000469_2014-06-09_19-42-10_260595134347_rgbf000081-resize_1/000469_2014-06-09_19-42-10_260595134347_rgbf000081-resize_1-target.png,250,1.652,6,5256,231,feet,jsons/v1_VE250_randls_66.json,923970,1156030,49,Man
26,476113,DepthScenes,duration_manipulation_targetAtFixation,jsons/v1_VE250_randls_66.json,http://54.235.29.9/FacialAge/BNav_EC2/DepthDuration/v2_depth_duration_MTurk/v2_DepthDuration_HTML.html#102,102,1200,750,1200,750,8-20-2022,12-19-42,27,depth_duration_stimuli/000483_2014-06-09_20-41-45_260595134347_rgbf000116-resize_4/000483_2014-06-09_20-41-45_260595134347_rgbf000116-resize_4-target.png,250,1.337,5,5977,254,feet,jsons/v1_VE250_randls_66.json,923970,1156030,49,Man
27,476113,DepthScenes,duration_manipulation_targetAtFixation,jsons/v1_VE250_randls_66.json,http://54.235.29.9/FacialAge/BNav_EC2/DepthDuration/v2_depth_duration_MTurk/v2_DepthDuration_HTML.html#102,102,1200,750,1200,750,8-20-2022,12-19-42,28,depth_duration_stimuli/002788_2014-06-22_19-36-03_094959634447_rgbf000088-resize_2/002788_2014-06-22_19-36-03_094959634447_rgbf000088-resize_2-target.png,250,1.6465,12,4093,247,feet,jsons/v1_VE250_randls_66.json,923970,1156030,49,Man
28,476113,DepthScenes,duration_manipulation_targetAtFixation,jsons/v1_VE250_randls_66.json,http://54.235.29.9/FacialAge/BNav_EC2/DepthDuration/v2_depth_duration_MTurk/v2_DepthDuration_HTML.html#102,102,1200,750,1200,750,8-20-2022,12-19-42,29,depth_duration_stimuli/000749_2014-06-08_21-55-06_260595134347_rgbf000070-resize_2/000749_2014-06-08_21-55-06_260595134347_rgbf000070-resize_2-target.png,250,2.331,10,3509,252,feet,jsons/v1_VE250_randls_66.json,923970,1156030,49,Man
29,476113,DepthScenes,duration_manipulation_targetAtFixation,jsons/v1_VE250_randls_66.json,http://54.235.29.9/FacialAge/BNav_EC2/DepthDuration/v2_depth_duration_MTurk/v2_DepthDuration_HTML.html#102,102,1200,750,1200,750,8-20-2022,12-19-42,30,depth_duration_stimuli/000375_2014-06-08_11-17-29_260595134347_rgbf000133-resize_2/000375_2014-06-08_11-17-29_260595134347_rgbf000133-resize-original.jpg,250,4.718,0,2959,247,feet,jsons/v1_VE250_randls_66.json,923970,1156030,49,Man
30,476113,DepthScenes,duration_manipulation_targetAtFixation,jsons/v1_VE250_randls_66.json,http://54.235.29.9/FacialAge/BNav_EC2/DepthDuration/v2_depth_duration_MTurk/v2_DepthDuration_HTML.html#102,102,1200,750,1200,750,8-20-2022,12-19-42,31,depth_duration_stimuli/000736_2014-06-08_18-24-15_260595134347_rgbf000206-resize_3/000736_2014-06-08_18-24-15_260595134347_rgbf000206-resize_3-target.png,250,3.515,12,5234,254,feet,jsons/v1_VE250_randls_66.json,923970,1156030,49,Man
31,476113,DepthScenes,duration_manipulation_targetAtFixation,jsons/v1_VE250_randls_66.json,http://54.235.29.9/FacialAge/BNav_EC2/DepthDuration/v2_depth_duration_MTurk/v2_DepthDuration_HTML.html#102,102,1200,750,1200,750,8-20-2022,12-19-42,32,depth_duration_stimuli/000137_2014-05-20_17-04-49_260595134347_rgbf000120-resize_1/000137_2014-05-20_17-04-49_260595134347_rgbf000120-resize_1-target.png,250,3.786,12,5324,247,feet,jsons/v1_VE250_randls_66.json,923970,1156030,49,Man
32,476113,DepthScenes,duration_manipulation_targetAtFixation,jsons/v1_VE250_randls_66.json,http://54.235.29.9/FacialAge/BNav_EC2/DepthDuration/v2_depth_duration_MTurk/v2_DepthDuration_HTML.html#102,102,1200,750,1200,750,8-20-2022,12-19-42,33,depth_duration_stimuli/001092_2014-06-15_17-34-58_260595134347_rgbf000171-resize_3/001092_2014-06-15_17-34-58_260595134347_rgbf000171-resize_3-target.png,250,2.6935,6,4344,247,feet,jsons/v1_VE250_randls_66.json,923970,1156030,49,Man
33,476113,DepthScenes,duration_manipulation_targetAtFixation,jsons/v1_VE250_randls_66.json,http://54.235.29.9/FacialAge/BNav_EC2/DepthDuration/v2_depth_duration_MTurk/v2_DepthDuration_HTML.html#102,102,1200,750,1200,750,8-20-2022,12-19-42,34,depth_duration_stimuli/002545_2014-06-24_13-38-53_094959634447_rgbf000080-resize_4/002545_2014-06-24_13-38-53_094959634447_rgbf000080-resize_4-target.png,250,1.9205,10,3761,247,feet,jsons/v1_VE250_randls_66.json,923970,1156030,49,Man
34,476113,DepthScenes,duration_manipulation_targetAtFixation,jsons/v1_VE250_randls_66.json,http://54.235.29.9/FacialAge/BNav_EC2/DepthDuration/v2_depth_duration_MTurk/v2_DepthDuration_HTML.html#102,102,1200,750,1200,750,8-20-2022,12-19-42,35,depth_duration_stimuli/000009_2014-05-26_14-32-05_260595134347_rgbf000034-resize_3/000009_2014-05-26_14-32-05_260595134347_rgbf000034-resize_3-target.png,250,3.8715,15,7473,253,feet,jsons/v1_VE250_randls_66.json,923970,1156030,49,Man
35,476113,DepthScenes,duration_manipulation_targetAtFixation,jsons/v1_VE250_randls_66.json,http://54.235.29.9/FacialAge/BNav_EC2/DepthDuration/v2_depth_duration_MTurk/v2_DepthDuration_HTML.html#102,102,1200,750,1200,750,8-20-2022,12-19-42,36,depth_duration_stimuli/001828_2014-06-26_21-40-03_260595134347_rgbf000024-resize_0/001828_2014-06-26_21-40-03_260595134347_rgbf000024-resize_0-target.png,250,4.8260000000000005,14,4550,253,feet,jsons/v1_VE250_randls_66.json,923970,1156030,49,Man
36,476113,DepthScenes,duration_manipulation_targetAtFixation,jsons/v1_VE250_randls_66.json,http://54.235.29.9/FacialAge/BNav_EC2/DepthDuration/v2_depth_duration_MTurk/v2_DepthDuration_HTML.html#102,102,1200,750,1200,750,8-20-2022,12-19-42,37,depth_duration_stimuli/002784_2014-06-22_19-26-30_094959634447_rgbf000083-resize_3/002784_2014-06-22_19-26-30_094959634447_rgbf000083-resize_3-target.png,250,1.8046666666667,5,4703,247,feet,jsons/v1_VE250_randls_66.json,923970,1156030,49,Man
37,476113,DepthScenes,duration_manipulation_targetAtFixation,jsons/v1_VE250_randls_66.json,http://54.235.29.9/FacialAge/BNav_EC2/DepthDuration/v2_depth_duration_MTurk/v2_DepthDuration_HTML.html#102,102,1200,750,1200,750,8-20-2022,12-19-42,38,depth_duration_stimuli/001100_2014-06-15_17-46-26_260595134347_rgbf000225-resize_2/001100_2014-06-15_17-46-26_260595134347_rgbf000225-resize_2-target.png,250,2.24,4,4185,254,feet,jsons/v1_VE250_randls_66.json,923970,1156030,49,Man
38,476113,DepthScenes,duration_manipulation_targetAtFixation,jsons/v1_VE250_randls_66.json,http://54.235.29.9/FacialAge/BNav_EC2/DepthDuration/v2_depth_duration_MTurk/v2_DepthDuration_HTML.html#102,102,1200,750,1200,750,8-20-2022,12-19-42,39,depth_duration_stimuli/000436_2014-06-09_22-25-11_260595134347_rgbf000137-resize_1/000436_2014-06-09_22-25-11_260595134347_rgbf000137-resize_1-target.png,250,4.0705,15,5052,254,feet,jsons/v1_VE250_randls_66.json,923970,1156030,49,Man
39,476113,DepthScenes,duration_manipulation_targetAtFixation,jsons/v1_VE250_randls_66.json,http://54.235.29.9/FacialAge/BNav_EC2/DepthDuration/v2_depth_duration_MTurk/v2_DepthDuration_HTML.html#102,102,1200,750,1200,750,8-20-2022,12-19-42,40,depth_duration_stimuli/002444_2014-06-28_20-32-08_260595134347_rgbf000027-resize_0/002444_2014-06-28_20-32-08_260595134347_rgbf000027-resize_0-target.png,250,4.388999999999999,15,8107,247,feet,jsons/v1_VE250_randls_66.json,923970,1156030,49,Man
40,476113,DepthScenes,duration_manipulation_targetAtFixation,jsons/v1_VE250_randls_66.json,http://54.235.29.9/FacialAge/BNav_EC2/DepthDuration/v2_depth_duration_MTurk/v2_DepthDuration_HTML.html#102,102,1200,750,1200,750,8-20-2022,12-19-42,41,depth_duration_stimuli/002630_2014-06-24_14-47-50_094959634447_rgbf000055-resize_1/002630_2014-06-24_14-47-50_094959634447_rgbf000055-resize_1-target.png,250,3.0095,20,6222,246,feet,jsons/v1_VE250_randls_66.json,923970,1156030,49,Man
41,476113,DepthScenes,duration_manipulation_targetAtFixation,jsons/v1_VE250_randls_66.json,http://54.235.29.9/FacialAge/BNav_EC2/DepthDuration/v2_depth_duration_MTurk/v2_DepthDuration_HTML.html#102,102,1200,750,1200,750,8-20-2022,12-19-42,42,depth_duration_stimuli/002758_2014-06-22_19-11-20_094959634447_rgbf000128-resize_1/002758_2014-06-22_19-11-20_094959634447_rgbf000128-resize_1-target.png,250,2.555,12,3395,247,feet,jsons/v1_VE250_randls_66.json,923970,1156030,49,Man
42,476113,DepthScenes,duration_manipulation_targetAtFixation,jsons/v1_VE250_randls_66.json,http://54.235.29.9/FacialAge/BNav_EC2/DepthDuration/v2_depth_duration_MTurk/v2_DepthDuration_HTML.html#102,102,1200,750,1200,750,8-20-2022,12-19-42,43,depth_duration_stimuli/000368_2014-06-09_15-53-01_260595134347_rgbf000155-resize_2/000368_2014-06-09_15-53-01_260595134347_rgbf000155-resize_2-target.png,250,2.4859999999999998,8,3998,247,feet,jsons/v1_VE250_randls_66.json,923970,1156030,49,Man
43,476113,DepthScenes,duration_manipulation_targetAtFixation,jsons/v1_VE250_randls_66.json,http://54.235.29.9/FacialAge/BNav_EC2/DepthDuration/v2_depth_duration_MTurk/v2_DepthDuration_HTML.html#102,102,1200,750,1200,750,8-20-2022,12-19-42,44,depth_duration_stimuli/002678_2014-06-13_16-15-32_094959634447_rgbf000151-resize_6/002678_2014-06-13_16-15-32_094959634447_rgbf000151-resize_6-target.png,250,2.1830000000000003,12,6848,243,feet,jsons/v1_VE250_randls_66.json,923970,1156030,49,Man
44,476113,DepthScenes,duration_manipulation_targetAtFixation,jsons/v1_VE250_randls_66.json,http://54.235.29.9/FacialAge/BNav_EC2/DepthDuration/v2_depth_duration_MTurk/v2_DepthDuration_HTML.html#102,102,1200,750,1200,750,8-20-2022,12-19-42,45,depth_duration_stimuli/000787_2014-06-08_22-33-53_260595134347_rgbf000175-resize_1/000787_2014-06-08_22-33-53_260595134347_rgbf000175-resize-original.jpg,250,4.784,0,2566,237,feet,jsons/v1_VE250_randls_66.json,923970,1156030,49,Man
45,476113,DepthScenes,duration_manipulation_targetAtFixation,jsons/v1_VE250_randls_66.json,http://54.235.29.9/FacialAge/BNav_EC2/DepthDuration/v2_depth_duration_MTurk/v2_DepthDuration_HTML.html#102,102,1200,750,1200,750,8-20-2022,12-19-42,46,depth_duration_stimuli/002763_2014-06-22_19-13-10_094959634447_rgbf000075-resize_4/002763_2014-06-22_19-13-10_094959634447_rgbf000075-resize_4-target.png,250,1.68375,7,3579,253,feet,jsons/v1_VE250_randls_66.json,923970,1156030,49,Man
46,476113,DepthScenes,duration_manipulation_targetAtFixation,jsons/v1_VE250_randls_66.json,http://54.235.29.9/FacialAge/BNav_EC2/DepthDuration/v2_depth_duration_MTurk/v2_DepthDuration_HTML.html#102,102,1200,750,1200,750,8-20-2022,12-19-42,47,depth_duration_stimuli/002209_2014-06-28_18-36-10_260595134347_rgbf000051-resize_1/002209_2014-06-28_18-36-10_260595134347_rgbf000051-resize_1-target.png,250,2.057,6,3151,247,feet,jsons/v1_VE250_randls_66.json,923970,1156030,49,Man
47,476113,DepthScenes,duration_manipulation_targetAtFixation,jsons/v1_VE250_randls_66.json,http://54.235.29.9/FacialAge/BNav_EC2/DepthDuration/v2_depth_duration_MTurk/v2_DepthDuration_HTML.html#102,102,1200,750,1200,750,8-20-2022,12-19-42,48,depth_duration_stimuli/000642_2014-06-08_16-59-25_260595134347_rgbf000098-resize_2/000642_2014-06-08_16-59-25_260595134347_rgbf000098-resize_2-target.png,250,2.8815,7,5536,247,feet,jsons/v1_VE250_randls_66.json,923970,1156030,49,Man
48,476113,DepthScenes,duration_manipulation_targetAtFixation,jsons/v1_VE250_randls_66.json,http://54.235.29.9/FacialAge/BNav_EC2/DepthDuration/v2_depth_duration_MTurk/v2_DepthDuration_HTML.html#102,102,1200,750,1200,750,8-20-2022,12-19-42,49,depth_duration_stimuli/002425_2014-06-28_20-27-29_260595134347_rgbf000031-resize_8/002425_2014-06-28_20-27-29_260595134347_rgbf000031-resize_8-target.png,250,3.8960000000000004,12,4008,246,feet,jsons/v1_VE250_randls_66.json,923970,1156030,49,Man
49,476113,DepthScenes,duration_manipulation_targetAtFixation,jsons/v1_VE250_randls_66.json,http://54.235.29.9/FacialAge/BNav_EC2/DepthDuration/v2_depth_duration_MTurk/v2_DepthDuration_HTML.html#102,102,1200,750,1200,750,8-20-2022,12-19-42,50,depth_duration_stimuli/001810_2014-06-26_20-51-35_260595134347_rgbf000040-resize_3/001810_2014-06-26_20-51-35_260595134347_rgbf000040-resize_3-target.png,250,2.2525,6,3026,263,feet,jsons/v1_VE250_randls_66.json,923970,1156030,49,Man
50,476113,DepthScenes,duration_manipulation_targetAtFixation,jsons/v1_VE250_randls_66.json,http://54.235.29.9/FacialAge/BNav_EC2/DepthDuration/v2_depth_duration_MTurk/v2_DepthDuration_HTML.html#102,102,1200,750,1200,750,8-20-2022,12-19-42,51,depth_duration_stimuli/003010_2014-06-15_12-54-35_094959634447_rgbf000112-resize_0/003010_2014-06-15_12-54-35_094959634447_rgbf000112-resize_0-target.png,250,3.1185,14,6504,253,feet,jsons/v1_VE250_randls_66.json,923970,1156030,49,Man
51,476113,DepthScenes,duration_manipulation_targetAtFixation,jsons/v1_VE250_randls_66.json,http://54.235.29.9/FacialAge/BNav_EC2/DepthDuration/v2_depth_duration_MTurk/v2_DepthDuration_HTML.html#102,102,1200,750,1200,750,8-20-2022,12-19-42,52,depth_duration_stimuli/000447_2014-06-08_16-15-46_260595134347_rgbf000130-resize_1/000447_2014-06-08_16-15-46_260595134347_rgbf000130-resize_1-target.png,250,4.479,25,2868,258,feet,jsons/v1_VE250_randls_66.json,923970,1156030,49,Man
52,476113,DepthScenes,duration_manipulation_targetAtFixation,jsons/v1_VE250_randls_66.json,http://54.235.29.9/FacialAge/BNav_EC2/DepthDuration/v2_depth_duration_MTurk/v2_DepthDuration_HTML.html#102,102,1200,750,1200,750,8-20-2022,12-19-42,53,depth_duration_stimuli/001447_2014-06-19_17-00-32_260595134347_rgbf000082-resize_5/001447_2014-06-19_17-00-32_260595134347_rgbf000082-resize_5-target.png,250,4.13775,8,5258,246,feet,jsons/v1_VE250_randls_66.json,923970,1156030,49,Man
53,476113,DepthScenes,duration_manipulation_targetAtFixation,jsons/v1_VE250_randls_66.json,http://54.235.29.9/FacialAge/BNav_EC2/DepthDuration/v2_depth_duration_MTurk/v2_DepthDuration_HTML.html#102,102,1200,750,1200,750,8-20-2022,12-19-42,54,depth_duration_stimuli/002213_2014-06-28_18-37-58_260595134347_rgbf000055-resize_1/002213_2014-06-28_18-37-58_260595134347_rgbf000055-resize_1-target.png,250,3.62,15,5731,245,feet,jsons/v1_VE250_randls_66.json,923970,1156030,49,Man
54,476113,DepthScenes,duration_manipulation_targetAtFixation,jsons/v1_VE250_randls_66.json,http://54.235.29.9/FacialAge/BNav_EC2/DepthDuration/v2_depth_duration_MTurk/v2_DepthDuration_HTML.html#102,102,1200,750,1200,750,8-20-2022,12-19-42,55,depth_duration_stimuli/000691_2014-06-08_13-08-50_260595134347_rgbf000132-resize_3/000691_2014-06-08_13-08-50_260595134347_rgbf000132-resize_3-target.png,250,4.1530000000000005,20,2884,250,feet,jsons/v1_VE250_randls_66.json,923970,1156030,49,Man
55,476113,DepthScenes,duration_manipulation_targetAtFixation,jsons/v1_VE250_randls_66.json,http://54.235.29.9/FacialAge/BNav_EC2/DepthDuration/v2_depth_duration_MTurk/v2_DepthDuration_HTML.html#102,102,1200,750,1200,750,8-20-2022,12-19-42,56,depth_duration_stimuli/000810_2014-06-08_17-20-01_260595134347_rgbf000105-resize_0/000810_2014-06-08_17-20-01_260595134347_rgbf000105-resize_0-target.png,250,1.4865,5,4022,253,feet,jsons/v1_VE250_randls_66.json,923970,1156030,49,Man
56,476113,DepthScenes,duration_manipulation_targetAtFixation,jsons/v1_VE250_randls_66.json,http://54.235.29.9/FacialAge/BNav_EC2/DepthDuration/v2_depth_duration_MTurk/v2_DepthDuration_HTML.html#102,102,1200,750,1200,750,8-20-2022,12-19-42,57,depth_duration_stimuli/001214_2014-06-17_16-13-55_260595134347_rgbf000111-resize_0/001214_2014-06-17_16-13-55_260595134347_rgbf000111-resize_0-target.png,250,2.6505,7,3769,253,feet,jsons/v1_VE250_randls_66.json,923970,1156030,49,Man
57,476113,DepthScenes,duration_manipulation_targetAtFixation,jsons/v1_VE250_randls_66.json,http://54.235.29.9/FacialAge/BNav_EC2/DepthDuration/v2_depth_duration_MTurk/v2_DepthDuration_HTML.html#102,102,1200,750,1200,750,8-20-2022,12-19-42,58,depth_duration_stimuli/001175_2014-06-17_15-45-55_260595134347_rgbf000129-resize_4/001175_2014-06-17_15-45-55_260595134347_rgbf000129-resize_4-target.png,250,4.255,25,3027,253,feet,jsons/v1_VE250_randls_66.json,923970,1156030,49,Man
58,476113,DepthScenes,duration_manipulation_targetAtFixation,jsons/v1_VE250_randls_66.json,http://54.235.29.9/FacialAge/BNav_EC2/DepthDuration/v2_depth_duration_MTurk/v2_DepthDuration_HTML.html#102,102,1200,750,1200,750,8-20-2022,12-19-42,59,depth_duration_stimuli/003490_2014-05-21_15-50-11_094959634447_rgbf000101-resize_3/003490_2014-05-21_15-50-11_094959634447_rgbf000101-resize_3-target.png,250,3.6445,25,3984,253,feet,jsons/v1_VE250_randls_66.json,923970,1156030,49,Man
59,476113,DepthScenes,duration_manipulation_targetAtFixation,jsons/v1_VE250_randls_66.json,http://54.235.29.9/FacialAge/BNav_EC2/DepthDuration/v2_depth_duration_MTurk/v2_DepthDuration_HTML.html#102,102,1200,750,1200,750,8-20-2022,12-19-42,60,depth_duration_stimuli/000739_2014-06-08_18-45-58_260595134347_rgbf000068-resize_1/000739_2014-06-08_18-45-58_260595134347_rgbf000068-resize_1-target.png,250,3.534,20,5449,253,feet,jsons/v1_VE250_randls_66.json,923970,1156030,49,Man
60,476113,DepthScenes,duration_manipulation_targetAtFixation,jsons/v1_VE250_randls_66.json,http://54.235.29.9/FacialAge/BNav_EC2/DepthDuration/v2_depth_duration_MTurk/v2_DepthDuration_HTML.html#102,102,1200,750,1200,750,8-20-2022,12-19-42,61,depth_duration_stimuli/000734_2014-06-08_17-39-11_260595134347_rgbf000128-resize_2/000734_2014-06-08_17-39-11_260595134347_rgbf000128-resize_2-target.png,250,4.098,15,6066,262,feet,jsons/v1_VE250_randls_66.json,923970,1156030,49,Man
61,476113,DepthScenes,duration_manipulation_targetAtFixation,jsons/v1_VE250_randls_66.json,http://54.235.29.9/FacialAge/BNav_EC2/DepthDuration/v2_depth_duration_MTurk/v2_DepthDuration_HTML.html#102,102,1200,750,1200,750,8-20-2022,12-19-42,62,depth_duration_stimuli/000929_2014-06-09_16-33-19_260595134347_rgbf000139-resize_0/000929_2014-06-09_16-33-19_260595134347_rgbf000139-resize_0-target.png,250,2.8680000000000003,10,4858,253,feet,jsons/v1_VE250_randls_66.json,923970,1156030,49,Man
62,476113,DepthScenes,duration_manipulation_targetAtFixation,jsons/v1_VE250_randls_66.json,http://54.235.29.9/FacialAge/BNav_EC2/DepthDuration/v2_depth_duration_MTurk/v2_DepthDuration_HTML.html#102,102,1200,750,1200,750,8-20-2022,12-19-42,63,depth_duration_stimuli/000457_2014-06-08_16-52-43_260595134347_rgbf000199-resize_1/000457_2014-06-08_16-52-43_260595134347_rgbf000199-resize_1-target.png,250,3.6489999999999996,18,4207,249,feet,jsons/v1_VE250_randls_66.json,923970,1156030,49,Man
63,476113,DepthScenes,duration_manipulation_targetAtFixation,jsons/v1_VE250_randls_66.json,http://54.235.29.9/FacialAge/BNav_EC2/DepthDuration/v2_depth_duration_MTurk/v2_DepthDuration_HTML.html#102,102,1200,750,1200,750,8-20-2022,12-19-42,64,depth_duration_stimuli/002964_2014-06-08_17-46-11_094959634447_rgbf000091-resize_4/002964_2014-06-08_17-46-11_094959634447_rgbf000091-resize_4-target.png,250,1.6909999999999998,6,3414,250,feet,jsons/v1_VE250_randls_66.json,923970,1156030,49,Man
64,476113,DepthScenes,duration_manipulation_targetAtFixation,jsons/v1_VE250_randls_66.json,http://54.235.29.9/FacialAge/BNav_EC2/DepthDuration/v2_depth_duration_MTurk/v2_DepthDuration_HTML.html#102,102,1200,750,1200,750,8-20-2022,12-19-42,65,depth_duration_stimuli/002136_2014-06-25_21-18-03_260595134347_rgbf000109-resize_3/002136_2014-06-25_21-18-03_260595134347_rgbf000109-resize_3-target.png,250,1.9569999999999999,5,3058,254,feet,jsons/v1_VE250_randls_66.json,923970,1156030,49,Man
65,476113,DepthScenes,duration_manipulation_targetAtFixation,jsons/v1_VE250_randls_66.json,http://54.235.29.9/FacialAge/BNav_EC2/DepthDuration/v2_depth_duration_MTurk/v2_DepthDuration_HTML.html#102,102,1200,750,1200,750,8-20-2022,12-19-42,66,depth_duration_stimuli/001222_2014-06-17_16-24-06_260595134347_rgbf000073-resize_0/001222_2014-06-17_16-24-06_260595134347_rgbf000073-resize-original.jpg,250,1.4385,0,57195,247,feet,jsons/v1_VE250_randls_66.json,923970,1156030,49,Man
66,476113,DepthScenes,duration_manipulation_targetAtFixation,jsons/v1_VE250_randls_66.json,http://54.235.29.9/FacialAge/BNav_EC2/DepthDuration/v2_depth_duration_MTurk/v2_DepthDuration_HTML.html#102,102,1200,750,1200,750,8-20-2022,12-19-42,67,depth_duration_stimuli/001011_2014-06-08_23-18-54_260595134347_rgbf000044-resize_4/001011_2014-06-08_23-18-54_260595134347_rgbf000044-resize_4-target.png,250,2.4730000000000003,15,4845,256,feet,jsons/v1_VE250_randls_66.json,923970,1156030,49,Man
67,476113,DepthScenes,duration_manipulation_targetAtFixation,jsons/v1_VE250_randls_66.json,http://54.235.29.9/FacialAge/BNav_EC2/DepthDuration/v2_depth_duration_MTurk/v2_DepthDuration_HTML.html#102,102,1200,750,1200,750,8-20-2022,12-19-42,68,depth_duration_stimuli/002875_2014-06-01_15-19-00_094959634447_rgbf000151-resize_1/002875_2014-06-01_15-19-00_094959634447_rgbf000151-resize_1-target.png,250,1.9675,7,3043,251,feet,jsons/v1_VE250_randls_66.json,923970,1156030,49,Man
68,476113,DepthScenes,duration_manipulation_targetAtFixation,jsons/v1_VE250_randls_66.json,http://54.235.29.9/FacialAge/BNav_EC2/DepthDuration/v2_depth_duration_MTurk/v2_DepthDuration_HTML.html#102,102,1200,750,1200,750,8-20-2022,12-19-42,69,depth_duration_stimuli/001066_2014-06-08_22-03-20_260595134347_rgbf000066-resize_4/001066_2014-06-08_22-03-20_260595134347_rgbf000066-resize_4-target.png,250,4.2330000000000005,20,3539,262,feet,jsons/v1_VE250_randls_66.json,923970,1156030,49,Man
69,476113,DepthScenes,duration_manipulation_targetAtFixation,jsons/v1_VE250_randls_66.json,http://54.235.29.9/FacialAge/BNav_EC2/DepthDuration/v2_depth_duration_MTurk/v2_DepthDuration_HTML.html#102,102,1200,750,1200,750,8-20-2022,12-19-42,70,depth_duration_stimuli/000742_2014-06-08_18-48-09_260595134347_rgbf000164-resize_4/000742_2014-06-08_18-48-09_260595134347_rgbf000164-resize_4-target.png,250,4.632,30,3458,269,feet,jsons/v1_VE250_randls_66.json,923970,1156030,49,Man
70,476113,DepthScenes,duration_manipulation_targetAtFixation,jsons/v1_VE250_randls_66.json,http://54.235.29.9/FacialAge/BNav_EC2/DepthDuration/v2_depth_duration_MTurk/v2_DepthDuration_HTML.html#102,102,1200,750,1200,750,8-20-2022,12-19-42,71,depth_duration_stimuli/002445_2014-06-28_20-32-16_260595134347_rgbf000029-resize_4/002445_2014-06-28_20-32-16_260595134347_rgbf000029-resize_4-target.png,250,2.5315,6,3930,246,feet,jsons/v1_VE250_randls_66.json,923970,1156030,49,Man
71,476113,DepthScenes,duration_manipulation_targetAtFixation,jsons/v1_VE250_randls_66.json,http://54.235.29.9/FacialAge/BNav_EC2/DepthDuration/v2_depth_duration_MTurk/v2_DepthDuration_HTML.html#102,102,1200,750,1200,750,8-20-2022,12-19-42,72,depth_duration_stimuli/000780_2014-06-08_22-28-29_260595134347_rgbf000126-resize_1/000780_2014-06-08_22-28-29_260595134347_rgbf000126-resize_1-target.png,250,3.3825,8,3626,247,feet,jsons/v1_VE250_randls_66.json,923970,1156030,49,Man
72,476113,DepthScenes,duration_manipulation_targetAtFixation,jsons/v1_VE250_randls_66.json,http://54.235.29.9/FacialAge/BNav_EC2/DepthDuration/v2_depth_duration_MTurk/v2_DepthDuration_HTML.html#102,102,1200,750,1200,750,8-20-2022,12-19-42,73,depth_duration_stimuli/002039_2014-06-24_20-22-38_260595134347_rgbf000084-resize_1/002039_2014-06-24_20-22-38_260595134347_rgbf000084-resize_1-target.png,250,4.408,18,7015,237,feet,jsons/v1_VE250_randls_66.json,923970,1156030,49,Man
73,476113,DepthScenes,duration_manipulation_targetAtFixation,jsons/v1_VE250_randls_66.json,http://54.235.29.9/FacialAge/BNav_EC2/DepthDuration/v2_depth_duration_MTurk/v2_DepthDuration_HTML.html#102,102,1200,750,1200,750,8-20-2022,12-19-42,74,depth_duration_stimuli/002103_2014-06-25_20-00-40_260595134347_rgbf000049-resize_0/002103_2014-06-25_20-00-40_260595134347_rgbf000049-resize_0-target.png,250,4.105,15,3671,253,feet,jsons/v1_VE250_randls_66.json,923970,1156030,49,Man
74,476113,DepthScenes,duration_manipulation_targetAtFixation,jsons/v1_VE250_randls_66.json,http://54.235.29.9/FacialAge/BNav_EC2/DepthDuration/v2_depth_duration_MTurk/v2_DepthDuration_HTML.html#102,102,1200,750,1200,750,8-20-2022,12-19-42,75,depth_duration_stimuli/001133_2014-06-17_14-49-16_260595134347_rgbf000100-resize_0/001133_2014-06-17_14-49-16_260595134347_rgbf000100-resize_0-target.png,250,4.2115,20,4686,240,feet,jsons/v1_VE250_randls_66.json,923970,1156030,49,Man
75,476113,DepthScenes,duration_manipulation_targetAtFixation,jsons/v1_VE250_randls_66.json,http://54.235.29.9/FacialAge/BNav_EC2/DepthDuration/v2_depth_duration_MTurk/v2_DepthDuration_HTML.html#102,102,1200,750,1200,750,8-20-2022,12-19-42,76,depth_duration_stimuli/001132_2014-06-17_14-48-54_260595134347_rgbf000100-resize_2/001132_2014-06-17_14-48-54_260595134347_rgbf000100-resize_2-target.png,250,3.753,15,16538,262,feet,jsons/v1_VE250_randls_66.json,923970,1156030,49,Man
76,476113,DepthScenes,duration_manipulation_targetAtFixation,jsons/v1_VE250_randls_66.json,http://54.235.29.9/FacialAge/BNav_EC2/DepthDuration/v2_depth_duration_MTurk/v2_DepthDuration_HTML.html#102,102,1200,750,1200,750,8-20-2022,12-19-42,77,depth_duration_stimuli/000773_2014-06-08_22-24-54_260595134347_rgbf000093-resize_1/000773_2014-06-08_22-24-54_260595134347_rgbf000093-resize_1-target.png,250,4.973,20,4200,246,feet,jsons/v1_VE250_randls_66.json,923970,1156030,49,Man
77,476113,DepthScenes,duration_manipulation_targetAtFixation,jsons/v1_VE250_randls_66.json,http://54.235.29.9/FacialAge/BNav_EC2/DepthDuration/v2_depth_duration_MTurk/v2_DepthDuration_HTML.html#102,102,1200,750,1200,750,8-20-2022,12-19-42,78,depth_duration_stimuli/002414_2014-06-28_20-24-58_260595134347_rgbf000067-resize_4/002414_2014-06-28_20-24-58_260595134347_rgbf000067-resize_4-target.png,250,4.363,18,6722,250,feet,jsons/v1_VE250_randls_66.json,923970,1156030,49,Man
78,476113,DepthScenes,duration_manipulation_targetAtFixation,jsons/v1_VE250_randls_66.json,http://54.235.29.9/FacialAge/BNav_EC2/DepthDuration/v2_depth_duration_MTurk/v2_DepthDuration_HTML.html#102,102,1200,750,1200,750,8-20-2022,12-19-42,79,depth_duration_stimuli/001555_2014-06-20_17-12-10_260595134347_rgbf000065-resize_4/001555_2014-06-20_17-12-10_260595134347_rgbf000065-resize_4-target.png,250,1.633,5,4155,253,feet,jsons/v1_VE250_randls_66.json,923970,1156030,49,Man
79,476113,DepthScenes,duration_manipulation_targetAtFixation,jsons/v1_VE250_randls_66.json,http://54.235.29.9/FacialAge/BNav_EC2/DepthDuration/v2_depth_duration_MTurk/v2_DepthDuration_HTML.html#102,102,1200,750,1200,750,8-20-2022,12-19-42,80,depth_duration_stimuli/000103_2014-05-14_22-01-17_260595134347_rgbf000152-resize_5/000103_2014-05-14_22-01-17_260595134347_rgbf000152-resize_5-target.png,250,1.993,12,3492,246,feet,jsons/v1_VE250_randls_66.json,923970,1156030,49,Man
80,476113,DepthScenes,duration_manipulation_targetAtFixation,jsons/v1_VE250_randls_66.json,http://54.235.29.9/FacialAge/BNav_EC2/DepthDuration/v2_depth_duration_MTurk/v2_DepthDuration_HTML.html#102,102,1200,750,1200,750,8-20-2022,12-19-42,81,depth_duration_stimuli/001167_2014-06-17_15-38-07_260595134347_rgbf000108-resize_0/001167_2014-06-17_15-38-07_260595134347_rgbf000108-resize_0-target.png,250,1.8505,6,3202,246,feet,jsons/v1_VE250_randls_66.json,923970,1156030,49,Man
81,476113,DepthScenes,duration_manipulation_targetAtFixation,jsons/v1_VE250_randls_66.json,http://54.235.29.9/FacialAge/BNav_EC2/DepthDuration/v2_depth_duration_MTurk/v2_DepthDuration_HTML.html#102,102,1200,750,1200,750,8-20-2022,12-19-42,82,depth_duration_stimuli/003587_2014-05-23_16-48-02_094959634447_rgbf002384-resize_2/003587_2014-05-23_16-48-02_094959634447_rgbf002384-resize_2-target.png,250,1.357,4,3228,247,feet,jsons/v1_VE250_randls_66.json,923970,1156030,49,Man
82,476113,DepthScenes,duration_manipulation_targetAtFixation,jsons/v1_VE250_randls_66.json,http://54.235.29.9/FacialAge/BNav_EC2/DepthDuration/v2_depth_duration_MTurk/v2_DepthDuration_HTML.html#102,102,1200,750,1200,750,8-20-2022,12-19-42,83,depth_duration_stimuli/000493_2014-06-09_21-01-18_260595134347_rgbf000196-resize_3/000493_2014-06-09_21-01-18_260595134347_rgbf000196-resize_3-target.png,250,3.44,15,4286,247,feet,jsons/v1_VE250_randls_66.json,923970,1156030,49,Man
83,476113,DepthScenes,duration_manipulation_targetAtFixation,jsons/v1_VE250_randls_66.json,http://54.235.29.9/FacialAge/BNav_EC2/DepthDuration/v2_depth_duration_MTurk/v2_DepthDuration_HTML.html#102,102,1200,750,1200,750,8-20-2022,12-19-42,84,depth_duration_stimuli/000191_2014-05-12_17-07-38_260595134347_rgbf000199-resize_0/000191_2014-05-12_17-07-38_260595134347_rgbf000199-resize_0-target.png,250,3.7995,12,7677,247,feet,jsons/v1_VE250_randls_66.json,923970,1156030,49,Man
84,476113,DepthScenes,duration_manipulation_targetAtFixation,jsons/v1_VE250_randls_66.json,http://54.235.29.9/FacialAge/BNav_EC2/DepthDuration/v2_depth_duration_MTurk/v2_DepthDuration_HTML.html#102,102,1200,750,1200,750,8-20-2022,12-19-42,85,depth_duration_stimuli/002988_2014-06-15_12-24-20_094959634447_rgbf000150-resize_1/002988_2014-06-15_12-24-20_094959634447_rgbf000150-resize_1-target.png,250,4.7669999999999995,15,9209,254,feet,jsons/v1_VE250_randls_66.json,923970,1156030,49,Man
85,476113,DepthScenes,duration_manipulation_targetAtFixation,jsons/v1_VE250_randls_66.json,http://54.235.29.9/FacialAge/BNav_EC2/DepthDuration/v2_depth_duration_MTurk/v2_DepthDuration_HTML.html#102,102,1200,750,1200,750,8-20-2022,12-19-42,86,depth_duration_stimuli/001052_2014-06-08_18-24-54_260595134347_rgbf000130-resize_1/001052_2014-06-08_18-24-54_260595134347_rgbf000130-resize_1-target.png,250,4.1045,10,2936,250,feet,jsons/v1_VE250_randls_66.json,923970,1156030,49,Man
86,476113,DepthScenes,duration_manipulation_targetAtFixation,jsons/v1_VE250_randls_66.json,http://54.235.29.9/FacialAge/BNav_EC2/DepthDuration/v2_depth_duration_MTurk/v2_DepthDuration_HTML.html#102,102,1200,750,1200,750,8-20-2022,12-19-42,87,depth_duration_stimuli/000522_2014-06-08_13-35-06_260595134347_rgbf000244-resize_1/000522_2014-06-08_13-35-06_260595134347_rgbf000244-resize_1-target.png,250,2.3715,3,2970,253,feet,jsons/v1_VE250_randls_66.json,923970,1156030,49,Man
87,476113,DepthScenes,duration_manipulation_targetAtFixation,jsons/v1_VE250_randls_66.json,http://54.235.29.9/FacialAge/BNav_EC2/DepthDuration/v2_depth_duration_MTurk/v2_DepthDuration_HTML.html#102,102,1200,750,1200,750,8-20-2022,12-19-42,88,depth_duration_stimuli/002949_2014-06-26_15-57-42_094959634447_rgbf000079-resize_1/002949_2014-06-26_15-57-42_094959634447_rgbf000079-resize_1-target.png,250,1.8915,4,3822,254,feet,jsons/v1_VE250_randls_66.json,923970,1156030,49,Man
88,476113,DepthScenes,duration_manipulation_targetAtFixation,jsons/v1_VE250_randls_66.json,http://54.235.29.9/FacialAge/BNav_EC2/DepthDuration/v2_depth_duration_MTurk/v2_DepthDuration_HTML.html#102,102,1200,750,1200,750,8-20-2022,12-19-42,89,depth_duration_stimuli/002905_2014-06-03_18-04-43_094959634447_rgbf000151-resize_2/002905_2014-06-03_18-04-43_094959634447_rgbf000151-resize_2-target.png,250,2.0295,5,3752,253,feet,jsons/v1_VE250_randls_66.json,923970,1156030,49,Man
89,476113,DepthScenes,duration_manipulation_targetAtFixation,jsons/v1_VE250_randls_66.json,http://54.235.29.9/FacialAge/BNav_EC2/DepthDuration/v2_depth_duration_MTurk/v2_DepthDuration_HTML.html#102,102,1200,750,1200,750,8-20-2022,12-19-42,90,depth_duration_stimuli/003423_2014-05-21_10-23-26_094959634447_rgbf002665-resize_2/003423_2014-05-21_10-23-26_094959634447_rgbf002665-resize_2-target.png,250,3.2575,22,3534,247,feet,jsons/v1_VE250_randls_66.json,923970,1156030,49,Man
90,476113,DepthScenes,duration_manipulation_targetAtFixation,jsons/v1_VE250_randls_66.json,http://54.235.29.9/FacialAge/BNav_EC2/DepthDuration/v2_depth_duration_MTurk/v2_DepthDuration_HTML.html#102,102,1200,750,1200,750,8-20-2022,12-19-42,91,depth_duration_stimuli/000917_2014-06-09_22-45-29_260595134347_rgbf000149-resize_3/000917_2014-06-09_22-45-29_260595134347_rgbf000149-resize_3-target.png,250,4.1865,15,4207,248,feet,jsons/v1_VE250_randls_66.json,923970,1156030,49,Man
91,476113,DepthScenes,duration_manipulation_targetAtFixation,jsons/v1_VE250_randls_66.json,http://54.235.29.9/FacialAge/BNav_EC2/DepthDuration/v2_depth_duration_MTurk/v2_DepthDuration_HTML.html#102,102,1200,750,1200,750,8-20-2022,12-19-42,92,depth_duration_stimuli/002323_2014-06-28_20-01-54_260595134347_rgbf000051-resize_4/002323_2014-06-28_20-01-54_260595134347_rgbf000051-resize_4-target.png,250,3.7310000000000003,10,5241,269,feet,jsons/v1_VE250_randls_66.json,923970,1156030,49,Man
92,476113,DepthScenes,duration_manipulation_targetAtFixation,jsons/v1_VE250_randls_66.json,http://54.235.29.9/FacialAge/BNav_EC2/DepthDuration/v2_depth_duration_MTurk/v2_DepthDuration_HTML.html#102,102,1200,750,1200,750,8-20-2022,12-19-42,93,depth_duration_stimuli/001150_2014-06-17_15-27-34_260595134347_rgbf000108-resize_2/001150_2014-06-17_15-27-34_260595134347_rgbf000108-resize_2-target.png,250,4.0325,16,3777,243,feet,jsons/v1_VE250_randls_66.json,923970,1156030,49,Man
93,476113,DepthScenes,duration_manipulation_targetAtFixation,jsons/v1_VE250_randls_66.json,http://54.235.29.9/FacialAge/BNav_EC2/DepthDuration/v2_depth_duration_MTurk/v2_DepthDuration_HTML.html#102,102,1200,750,1200,750,8-20-2022,12-19-42,94,depth_duration_stimuli/000665_2014-06-09_20-42-35_260595134347_rgbf000110-resize_1/000665_2014-06-09_20-42-35_260595134347_rgbf000110-resize_1-target.png,250,3.057,14,12083,253,feet,jsons/v1_VE250_randls_66.json,923970,1156030,49,Man
94,476113,DepthScenes,duration_manipulation_targetAtFixation,jsons/v1_VE250_randls_66.json,http://54.235.29.9/FacialAge/BNav_EC2/DepthDuration/v2_depth_duration_MTurk/v2_DepthDuration_HTML.html#102,102,1200,750,1200,750,8-20-2022,12-19-42,95,depth_duration_stimuli/001808_2014-06-26_20-50-58_260595134347_rgbf000029-resize_1/001808_2014-06-26_20-50-58_260595134347_rgbf000029-resize_1-target.png,250,4.249,12,5376,249,feet,jsons/v1_VE250_randls_66.json,923970,1156030,49,Man
95,476113,DepthScenes,duration_manipulation_targetAtFixation,jsons/v1_VE250_randls_66.json,http://54.235.29.9/FacialAge/BNav_EC2/DepthDuration/v2_depth_duration_MTurk/v2_DepthDuration_HTML.html#102,102,1200,750,1200,750,8-20-2022,12-19-42,96,depth_duration_stimuli/001815_2014-06-26_20-52-55_260595134347_rgbf000020-resize_0/001815_2014-06-26_20-52-55_260595134347_rgbf000020-resize_0-target.png,250,3.3865,15,4090,250,feet,jsons/v1_VE250_randls_66.json,923970,1156030,49,Man
96,476113,DepthScenes,duration_manipulation_targetAtFixation,jsons/v1_VE250_randls_66.json,http://54.235.29.9/FacialAge/BNav_EC2/DepthDuration/v2_depth_duration_MTurk/v2_DepthDuration_HTML.html#102,102,1200,750,1200,750,8-20-2022,12-19-42,97,depth_duration_stimuli/002509_2014-06-24_13-19-22_094959634447_rgbf000077-resize_0/002509_2014-06-24_13-19-22_094959634447_rgbf000077-resize_0-target.png,250,1.3065,4,3656,252,feet,jsons/v1_VE250_randls_66.json,923970,1156030,49,Man
97,476113,DepthScenes,duration_manipulation_targetAtFixation,jsons/v1_VE250_randls_66.json,http://54.235.29.9/FacialAge/BNav_EC2/DepthDuration/v2_depth_duration_MTurk/v2_DepthDuration_HTML.html#102,102,1200,750,1200,750,8-20-2022,12-19-42,98,depth_duration_stimuli/003338_2014-05-20_11-01-23_094959634447_rgbf000051-resize_6/003338_2014-05-20_11-01-23_094959634447_rgbf000051-resize_6-target.png,250,1.693,5,2864,247,feet,jsons/v1_VE250_randls_66.json,923970,1156030,49,Man
98,476113,DepthScenes,duration_manipulation_targetAtFixation,jsons/v1_VE250_randls_66.json,http://54.235.29.9/FacialAge/BNav_EC2/DepthDuration/v2_depth_duration_MTurk/v2_DepthDuration_HTML.html#102,102,1200,750,1200,750,8-20-2022,12-19-42,99,depth_duration_stimuli/001540_2014-06-20_17-01-05_260595134347_rgbf000086-resize_2/001540_2014-06-20_17-01-05_260595134347_rgbf000086-resize-original.jpg,250,1.459,0,3024,246,feet,jsons/v1_VE250_randls_66.json,923970,1156030,49,Man
99,476113,DepthScenes,duration_manipulation_targetAtFixation,jsons/v1_VE250_randls_66.json,http://54.235.29.9/FacialAge/BNav_EC2/DepthDuration/v2_depth_duration_MTurk/v2_DepthDuration_HTML.html#102,102,1200,750,1200,750,8-20-2022,12-19-42,100,depth_duration_stimuli/000758_2014-06-08_22-05-08_260595134347_rgbf000085-resize_0/000758_2014-06-08_22-05-08_260595134347_rgbf000085-resize_0-target.png,250,3.3810000000000002,16,4010,253,feet,jsons/v1_VE250_randls_66.json,923970,1156030,49,Man
100,476113,DepthScenes,duration_manipulation_targetAtFixation,jsons/v1_VE250_randls_66.json,http://54.235.29.9/FacialAge/BNav_EC2/DepthDuration/v2_depth_duration_MTurk/v2_DepthDuration_HTML.html#102,102,1200,750,1200,750,8-20-2022,12-19-42,101,depth_duration_stimuli/000854_2014-06-09_19-43-13_260595134347_rgbf000066-resize_0/000854_2014-06-09_19-43-13_260595134347_rgbf000066-resize_0-target.png,250,3.068,8,2920,253,feet,jsons/v1_VE250_randls_66.json,923970,1156030,49,Man
101,476113,DepthScenes,duration_manipulation_targetAtFixation,jsons/v1_VE250_randls_66.json,http://54.235.29.9/FacialAge/BNav_EC2/DepthDuration/v2_depth_duration_MTurk/v2_DepthDuration_HTML.html#102,102,1200,750,1200,750,8-20-2022,12-19-42,102,depth_duration_stimuli/000506_2014-06-08_23-21-00_260595134347_rgbf000070-resize_7/000506_2014-06-08_23-21-00_260595134347_rgbf000070-resize_7-target.png,250,4.0585,15,3565,247,feet,jsons/v1_VE250_randls_66.json,923970,1156030,49,Man
102,476113,DepthScenes,duration_manipulation_targetAtFixation,jsons/v1_VE250_randls_66.json,http://54.235.29.9/FacialAge/BNav_EC2/DepthDuration/v2_depth_duration_MTurk/v2_DepthDuration_HTML.html#102,102,1200,750,1200,750,8-20-2022,12-19-42,103,depth_duration_stimuli/003079_2014-06-15_15-18-20_094959634447_rgbf000152-resize_8/003079_2014-06-15_15-18-20_094959634447_rgbf000152-resize_8-target.png,250,2.8775,13,10911,254,feet,jsons/v1_VE250_randls_66.json,923970,1156030,49,Man
103,476113,DepthScenes,duration_manipulation_targetAtFixation,jsons/v1_VE250_randls_66.json,http://54.235.29.9/FacialAge/BNav_EC2/DepthDuration/v2_depth_duration_MTurk/v2_DepthDuration_HTML.html#102,102,1200,750,1200,750,8-20-2022,12-19-42,104,depth_duration_stimuli/001417_2014-06-19_16-25-36_260595134347_rgbf000115-resize_5/001417_2014-06-19_16-25-36_260595134347_rgbf000115-resize_5-target.png,250,4.6255,8,4588,249,feet,jsons/v1_VE250_randls_66.json,923970,1156030,49,Man
104,476113,DepthScenes,duration_manipulation_targetAtFixation,jsons/v1_VE250_randls_66.json,http://54.235.29.9/FacialAge/BNav_EC2/DepthDuration/v2_depth_duration_MTurk/v2_DepthDuration_HTML.html#102,102,1200,750,1200,750,8-20-2022,12-19-42,105,depth_duration_stimuli/003081_2014-06-15_15-19-16_094959634447_rgbf000150-resize_1/003081_2014-06-15_15-19-16_094959634447_rgbf000150-resize_1-target.png,250,3.9125,15,3330,253,feet,jsons/v1_VE250_randls_66.json,923970,1156030,49,Man
105,476113,DepthScenes,duration_manipulation_targetAtFixation,jsons/v1_VE250_randls_66.json,http://54.235.29.9/FacialAge/BNav_EC2/DepthDuration/v2_depth_duration_MTurk/v2_DepthDuration_HTML.html#102,102,1200,750,1200,750,8-20-2022,12-19-42,106,depth_duration_stimuli/000470_2014-06-09_19-42-40_260595134347_rgbf000094-resize_1/000470_2014-06-09_19-42-40_260595134347_rgbf000094-resize_1-target.png,250,1.831,5,4468,254,feet,jsons/v1_VE250_randls_66.json,923970,1156030,49,Man
106,476113,DepthScenes,duration_manipulation_targetAtFixation,jsons/v1_VE250_randls_66.json,http://54.235.29.9/FacialAge/BNav_EC2/DepthDuration/v2_depth_duration_MTurk/v2_DepthDuration_HTML.html#102,102,1200,750,1200,750,8-20-2022,12-19-42,107,depth_duration_stimuli/000109_2014-05-14_23-41-52_260595134347_rgbf000035-resize_9/000109_2014-05-14_23-41-52_260595134347_rgbf000035-resize_9-target.png,250,1.3545,5,2904,252,feet,jsons/v1_VE250_randls_66.json,923970,1156030,49,Man
107,476113,DepthScenes,duration_manipulation_targetAtFixation,jsons/v1_VE250_randls_66.json,http://54.235.29.9/FacialAge/BNav_EC2/DepthDuration/v2_depth_duration_MTurk/v2_DepthDuration_HTML.html#102,102,1200,750,1200,750,8-20-2022,12-19-42,108,depth_duration_stimuli/002118_2014-06-25_20-32-08_260595134347_rgbf000078-resize_1/002118_2014-06-25_20-32-08_260595134347_rgbf000078-resize_1-target.png,250,2.6460000000000004,11,4464,254,feet,jsons/v1_VE250_randls_66.json,923970,1156030,49,Man
108,476113,DepthScenes,duration_manipulation_targetAtFixation,jsons/v1_VE250_randls_66.json,http://54.235.29.9/FacialAge/BNav_EC2/DepthDuration/v2_depth_duration_MTurk/v2_DepthDuration_HTML.html#102,102,1200,750,1200,750,8-20-2022,12-19-42,109,depth_duration_stimuli/001516_2014-06-20_16-25-09_260595134347_rgbf000076-resize_2/001516_2014-06-20_16-25-09_260595134347_rgbf000076-resize_2-target.png,250,1.7445,8,3125,247,feet,jsons/v1_VE250_randls_66.json,923970,1156030,49,Man
109,476113,DepthScenes,duration_manipulation_targetAtFixation,jsons/v1_VE250_randls_66.json,http://54.235.29.9/FacialAge/BNav_EC2/DepthDuration/v2_depth_duration_MTurk/v2_DepthDuration_HTML.html#102,102,1200,750,1200,750,8-20-2022,12-19-42,110,depth_duration_stimuli/000788_2014-06-08_22-34-36_260595134347_rgbf000131-resize_1/000788_2014-06-08_22-34-36_260595134347_rgbf000131-resize_1-target.png,250,3.359,15,2954,247,feet,jsons/v1_VE250_randls_66.json,923970,1156030,49,Man
110,476113,DepthScenes,duration_manipulation_targetAtFixation,jsons/v1_VE250_randls_66.json,http://54.235.29.9/FacialAge/BNav_EC2/DepthDuration/v2_depth_duration_MTurk/v2_DepthDuration_HTML.html#102,102,1200,750,1200,750,8-20-2022,12-19-42,111,depth_duration_stimuli/001235_2014-06-17_16-37-36_260595134347_rgbf000084-resize_4/001235_2014-06-17_16-37-36_260595134347_rgbf000084-resize_4-target.png,250,3.6605,13,4584,231,feet,jsons/v1_VE250_randls_66.json,923970,1156030,49,Man
111,476113,DepthScenes,duration_manipulation_targetAtFixation,jsons/v1_VE250_randls_66.json,http://54.235.29.9/FacialAge/BNav_EC2/DepthDuration/v2_depth_duration_MTurk/v2_DepthDuration_HTML.html#102,102,1200,750,1200,750,8-20-2022,12-19-42,112,depth_duration_stimuli/002057_2014-06-24_21-00-13_260595134347_rgbf000120-resize_1/002057_2014-06-24_21-00-13_260595134347_rgbf000120-resize_1-target.png,250,2.967,12,5199,254,feet,jsons/v1_VE250_randls_66.json,923970,1156030,49,Man
112,476113,DepthScenes,duration_manipulation_targetAtFixation,jsons/v1_VE250_randls_66.json,http://54.235.29.9/FacialAge/BNav_EC2/DepthDuration/v2_depth_duration_MTurk/v2_DepthDuration_HTML.html#102,102,1200,750,1200,750,8-20-2022,12-19-42,113,depth_duration_stimuli/000709_2014-06-08_13-51-55_260595134347_rgbf000068-resize_3/000709_2014-06-08_13-51-55_260595134347_rgbf000068-resize_3-target.png,250,1.8030000000000002,6,4589,237,feet,jsons/v1_VE250_randls_66.json,923970,1156030,49,Man
113,476113,DepthScenes,duration_manipulation_targetAtFixation,jsons/v1_VE250_randls_66.json,http://54.235.29.9/FacialAge/BNav_EC2/DepthDuration/v2_depth_duration_MTurk/v2_DepthDuration_HTML.html#102,102,1200,750,1200,750,8-20-2022,12-19-42,114,depth_duration_stimuli/002375_2014-06-28_20-13-44_260595134347_rgbf000032-resize_1/002375_2014-06-28_20-13-44_260595134347_rgbf000032-resize_1-target.png,250,4.0175,10,3589,238,feet,jsons/v1_VE250_randls_66.json,923970,1156030,49,Man
114,476113,DepthScenes,duration_manipulation_targetAtFixation,jsons/v1_VE250_randls_66.json,http://54.235.29.9/FacialAge/BNav_EC2/DepthDuration/v2_depth_duration_MTurk/v2_DepthDuration_HTML.html#102,102,1200,750,1200,750,8-20-2022,12-19-42,115,depth_duration_stimuli/002657_2014-06-13_15-29-54_094959634447_rgbf000150-resize_1/002657_2014-06-13_15-29-54_094959634447_rgbf000150-resize_1-target.png,250,4.919,12,5065,255,feet,jsons/v1_VE250_randls_66.json,923970,1156030,49,Man
115,476113,DepthScenes,duration_manipulation_targetAtFixation,jsons/v1_VE250_randls_66.json,http://54.235.29.9/FacialAge/BNav_EC2/DepthDuration/v2_depth_duration_MTurk/v2_DepthDuration_HTML.html#102,102,1200,750,1200,750,8-20-2022,12-19-42,116,depth_duration_stimuli/001170_2014-06-17_15-43-44_260595134347_rgbf000096-resize_6/001170_2014-06-17_15-43-44_260595134347_rgbf000096-resize-original.jpg,250,1.1909999999999998,0,3220,247,feet,jsons/v1_VE250_randls_66.json,923970,1156030,49,Man
116,476113,DepthScenes,duration_manipulation_targetAtFixation,jsons/v1_VE250_randls_66.json,http://54.235.29.9/FacialAge/BNav_EC2/DepthDuration/v2_depth_duration_MTurk/v2_DepthDuration_HTML.html#102,102,1200,750,1200,750,8-20-2022,12-19-42,117,depth_duration_stimuli/001029_2014-06-08_13-17-57_260595134347_rgbf000065-resize_1/001029_2014-06-08_13-17-57_260595134347_rgbf000065-resize_1-target.png,250,3.0835,15,4512,246,feet,jsons/v1_VE250_randls_66.json,923970,1156030,49,Man
117,476113,DepthScenes,duration_manipulation_targetAtFixation,jsons/v1_VE250_randls_66.json,http://54.235.29.9/FacialAge/BNav_EC2/DepthDuration/v2_depth_duration_MTurk/v2_DepthDuration_HTML.html#102,102,1200,750,1200,750,8-20-2022,12-19-42,118,depth_duration_stimuli/000677_2014-06-08_23-10-32_260595134347_rgbf000158-resize_6/000677_2014-06-08_23-10-32_260595134347_rgbf000158-resize_6-target.png,250,3.556,12,7056,247,feet,jsons/v1_VE250_randls_66.json,923970,1156030,49,Man
118,476113,DepthScenes,duration_manipulation_targetAtFixation,jsons/v1_VE250_randls_66.json,http://54.235.29.9/FacialAge/BNav_EC2/DepthDuration/v2_depth_duration_MTurk/v2_DepthDuration_HTML.html#102,102,1200,750,1200,750,8-20-2022,12-19-42,119,depth_duration_stimuli/001806_2014-06-26_20-50-20_260595134347_rgbf000091-resize_1/001806_2014-06-26_20-50-20_260595134347_rgbf000091-resize_1-target.png,250,2.7305,5,4541,238,feet,jsons/v1_VE250_randls_66.json,923970,1156030,49,Man
119,476113,DepthScenes,duration_manipulation_targetAtFixation,jsons/v1_VE250_randls_66.json,http://54.235.29.9/FacialAge/BNav_EC2/DepthDuration/v2_depth_duration_MTurk/v2_DepthDuration_HTML.html#102,102,1200,750,1200,750,8-20-2022,12-19-42,120,depth_duration_stimuli/001617_2014-06-20_11-35-32_260595134347_rgbf000066-resize_1/001617_2014-06-20_11-35-32_260595134347_rgbf000066-resize_1-target.png,250,3.7910000000000004,10,5809,253,feet,jsons/v1_VE250_randls_66.json,923970,1156030,49,Man
120,476113,DepthScenes,duration_manipulation_targetAtFixation,jsons/v1_VE250_randls_66.json,http://54.235.29.9/FacialAge/BNav_EC2/DepthDuration/v2_depth_duration_MTurk/v2_DepthDuration_HTML.html#102,102,1200,750,1200,750,8-20-2022,12-19-42,121,depth_duration_stimuli/000414_2014-06-04_19-49-13_260595134347_rgbf000044-resize_0/000414_2014-06-04_19-49-13_260595134347_rgbf000044-resize_0-target.png,250,4.329,18,6598,237,feet,jsons/v1_VE250_randls_66.json,923970,1156030,49,Man
121,476113,DepthScenes,duration_manipulation_targetAtFixation,jsons/v1_VE250_randls_66.json,http://54.235.29.9/FacialAge/BNav_EC2/DepthDuration/v2_depth_duration_MTurk/v2_DepthDuration_HTML.html#102,102,1200,750,1200,750,8-20-2022,12-19-42,122,depth_duration_stimuli/003129_2014-05-12_10-48-10_094959634447_rgbf000100-resize_0/003129_2014-05-12_10-48-10_094959634447_rgbf000100-resize_0-target.png,250,4.9305,25,2984,252,feet,jsons/v1_VE250_randls_66.json,923970,1156030,49,Man
122,476113,DepthScenes,duration_manipulation_targetAtFixation,jsons/v1_VE250_randls_66.json,http://54.235.29.9/FacialAge/BNav_EC2/DepthDuration/v2_depth_duration_MTurk/v2_DepthDuration_HTML.html#102,102,1200,750,1200,750,8-20-2022,12-19-42,123,depth_duration_stimuli/002663_2014-06-13_15-50-26_094959634447_rgbf000075-resize_1/002663_2014-06-13_15-50-26_094959634447_rgbf000075-resize_1-target.png,250,4.7495,30,3341,254,feet,jsons/v1_VE250_randls_66.json,923970,1156030,49,Man
123,476113,DepthScenes,duration_manipulation_targetAtFixation,jsons/v1_VE250_randls_66.json,http://54.235.29.9/FacialAge/BNav_EC2/DepthDuration/v2_depth_duration_MTurk/v2_DepthDuration_HTML.html#102,102,1200,750,1200,750,8-20-2022,12-19-42,124,depth_duration_stimuli/000409_2014-06-04_19-23-33_260595134347_rgbf000067-resize_0/000409_2014-06-04_19-23-33_260595134347_rgbf000067-resize_0-target.png,250,3.7335,32,5312,232,feet,jsons/v1_VE250_randls_66.json,923970,1156030,49,Man
124,476113,DepthScenes,duration_manipulation_targetAtFixation,jsons/v1_VE250_randls_66.json,http://54.235.29.9/FacialAge/BNav_EC2/DepthDuration/v2_depth_duration_MTurk/v2_DepthDuration_HTML.html#102,102,1200,750,1200,750,8-20-2022,12-19-42,125,depth_duration_stimuli/000682_2014-06-08_23-14-58_260595134347_rgbf000041-resize_5/000682_2014-06-08_23-14-58_260595134347_rgbf000041-resize_5-target.png,250,2.7239999999999998,15,3027,262,feet,jsons/v1_VE250_randls_66.json,923970,1156030,49,Man
125,476113,DepthScenes,duration_manipulation_targetAtFixation,jsons/v1_VE250_randls_66.json,http://54.235.29.9/FacialAge/BNav_EC2/DepthDuration/v2_depth_duration_MTurk/v2_DepthDuration_HTML.html#102,102,1200,750,1200,750,8-20-2022,12-19-42,126,depth_duration_stimuli/001650_2014-06-20_12-09-00_260595134347_rgbf000087-resize_3/001650_2014-06-20_12-09-00_260595134347_rgbf000087-resize_3-target.png,250,1.9505,5,3936,251,feet,jsons/v1_VE250_randls_66.json,923970,1156030,49,Man
126,476113,DepthScenes,duration_manipulation_targetAtFixation,jsons/v1_VE250_randls_66.json,http://54.235.29.9/FacialAge/BNav_EC2/DepthDuration/v2_depth_duration_MTurk/v2_DepthDuration_HTML.html#102,102,1200,750,1200,750,8-20-2022,12-19-42,127,depth_duration_stimuli/003292_2014-05-14_21-53-49_094959634447_rgbf000100-resize_2/003292_2014-05-14_21-53-49_094959634447_rgbf000100-resize_2-target.png,250,3.4815,10,5648,253,feet,jsons/v1_VE250_randls_66.json,923970,1156030,49,Man
127,476113,DepthScenes,duration_manipulation_targetAtFixation,jsons/v1_VE250_randls_66.json,http://54.235.29.9/FacialAge/BNav_EC2/DepthDuration/v2_depth_duration_MTurk/v2_DepthDuration_HTML.html#102,102,1200,750,1200,750,8-20-2022,12-19-42,128,depth_duration_stimuli/002639_2014-06-24_14-51-37_094959634447_rgbf000074-resize_4/002639_2014-06-24_14-51-37_094959634447_rgbf000074-resize_4-target.png,250,4.0375,9,8258,262,feet,jsons/v1_VE250_randls_66.json,923970,1156030,49,Man
128,476113,DepthScenes,duration_manipulation_targetAtFixation,jsons/v1_VE250_randls_66.json,http://54.235.29.9/FacialAge/BNav_EC2/DepthDuration/v2_depth_duration_MTurk/v2_DepthDuration_HTML.html#102,102,1200,750,1200,750,8-20-2022,12-19-42,129,depth_duration_stimuli/002989_2014-06-15_12-25-03_094959634447_rgbf000150-resize_3/002989_2014-06-15_12-25-03_094959634447_rgbf000150-resize_3-target.png,250,4.1975,15,3218,254,feet,jsons/v1_VE250_randls_66.json,923970,1156030,49,Man
129,476113,DepthScenes,duration_manipulation_targetAtFixation,jsons/v1_VE250_randls_66.json,http://54.235.29.9/FacialAge/BNav_EC2/DepthDuration/v2_depth_duration_MTurk/v2_DepthDuration_HTML.html#102,102,1200,750,1200,750,8-20-2022,12-19-42,130,depth_duration_stimuli/000866_2014-06-09_20-45-42_260595134347_rgbf000139-resize_1/000866_2014-06-09_20-45-42_260595134347_rgbf000139-resize_1-target.png,250,3.2155,10,4335,260,feet,jsons/v1_VE250_randls_66.json,923970,1156030,49,Man
130,476113,DepthScenes,duration_manipulation_targetAtFixation,jsons/v1_VE250_randls_66.json,http://54.235.29.9/FacialAge/BNav_EC2/DepthDuration/v2_depth_duration_MTurk/v2_DepthDuration_HTML.html#102,102,1200,750,1200,750,8-20-2022,12-19-42,131,depth_duration_stimuli/002153_2014-06-25_21-27-18_260595134347_rgbf000038-resize_5/002153_2014-06-25_21-27-18_260595134347_rgbf000038-resize_5-target.png,250,2.505,8,4993,247,feet,jsons/v1_VE250_randls_66.json,923970,1156030,49,Man
131,476113,DepthScenes,duration_manipulation_targetAtFixation,jsons/v1_VE250_randls_66.json,http://54.235.29.9/FacialAge/BNav_EC2/DepthDuration/v2_depth_duration_MTurk/v2_DepthDuration_HTML.html#102,102,1200,750,1200,750,8-20-2022,12-19-42,132,depth_duration_stimuli/002660_2014-06-13_15-44-18_094959634447_rgbf001878-resize_2/002660_2014-06-13_15-44-18_094959634447_rgbf001878-resize_2-target.png,250,3.576,12,3715,253,feet,jsons/v1_VE250_randls_66.json,923970,1156030,49,Man
132,476113,DepthScenes,duration_manipulation_targetAtFixation,jsons/v1_VE250_randls_66.json,http://54.235.29.9/FacialAge/BNav_EC2/DepthDuration/v2_depth_duration_MTurk/v2_DepthDuration_HTML.html#102,102,1200,750,1200,750,8-20-2022,12-19-42,133,depth_duration_stimuli/001244_2014-06-17_16-47-45_260595134347_rgbf000030-resize_4/001244_2014-06-17_16-47-45_260595134347_rgbf000030-resize_4-target.png,250,2.0425,7,3347,247,feet,jsons/v1_VE250_randls_66.json,923970,1156030,49,Man
133,476113,DepthScenes,duration_manipulation_targetAtFixation,jsons/v1_VE250_randls_66.json,http://54.235.29.9/FacialAge/BNav_EC2/DepthDuration/v2_depth_duration_MTurk/v2_DepthDuration_HTML.html#102,102,1200,750,1200,750,8-20-2022,12-19-42,134,depth_duration_stimuli/003495_2014-05-21_16-01-51_094959634447_rgbf000100-resize_3/003495_2014-05-21_16-01-51_094959634447_rgbf000100-resize_3-target.png,250,1.6255,5,3197,249,feet,jsons/v1_VE250_randls_66.json,923970,1156030,49,Man
134,476113,DepthScenes,duration_manipulation_targetAtFixation,jsons/v1_VE250_randls_66.json,http://54.235.29.9/FacialAge/BNav_EC2/DepthDuration/v2_depth_duration_MTurk/v2_DepthDuration_HTML.html#102,102,1200,750,1200,750,8-20-2022,12-19-42,135,depth_duration_stimuli/002072_2014-06-24_21-48-06_260595134347_rgbf000115-resize_0/002072_2014-06-24_21-48-06_260595134347_rgbf000115-resize-original.jpg,250,4.702,0,2809,253,feet,jsons/v1_VE250_randls_66.json,923970,1156030,49,Man
135,476113,DepthScenes,duration_manipulation_targetAtFixation,jsons/v1_VE250_randls_66.json,http://54.235.29.9/FacialAge/BNav_EC2/DepthDuration/v2_depth_duration_MTurk/v2_DepthDuration_HTML.html#102,102,1200,750,1200,750,8-20-2022,12-19-42,136,depth_duration_stimuli/001110_2014-06-15_17-25-28_260595134347_rgbf000150-resize_1/001110_2014-06-15_17-25-28_260595134347_rgbf000150-resize_1-target.png,250,1.7115,6,5509,237,feet,jsons/v1_VE250_randls_66.json,923970,1156030,49,Man
136,476113,DepthScenes,duration_manipulation_targetAtFixation,jsons/v1_VE250_randls_66.json,http://54.235.29.9/FacialAge/BNav_EC2/DepthDuration/v2_depth_duration_MTurk/v2_DepthDuration_HTML.html#102,102,1200,750,1200,750,8-20-2022,12-19-42,137,depth_duration_stimuli/000927_2014-06-09_16-32-30_260595134347_rgbf000123-resize_3/000927_2014-06-09_16-32-30_260595134347_rgbf000123-resize_3-target.png,250,2.6785,8,4598,252,feet,jsons/v1_VE250_randls_66.json,923970,1156030,49,Man
137,476113,DepthScenes,duration_manipulation_targetAtFixation,jsons/v1_VE250_randls_66.json,http://54.235.29.9/FacialAge/BNav_EC2/DepthDuration/v2_depth_duration_MTurk/v2_DepthDuration_HTML.html#102,102,1200,750,1200,750,8-20-2022,12-19-42,138,depth_duration_stimuli/001570_2014-06-20_17-21-09_260595134347_rgbf000135-resize_4/001570_2014-06-20_17-21-09_260595134347_rgbf000135-resize_4-target.png,250,4.467,15,3205,237,feet,jsons/v1_VE250_randls_66.json,923970,1156030,49,Man
138,476113,DepthScenes,duration_manipulation_targetAtFixation,jsons/v1_VE250_randls_66.json,http://54.235.29.9/FacialAge/BNav_EC2/DepthDuration/v2_depth_duration_MTurk/v2_DepthDuration_HTML.html#102,102,1200,750,1200,750,8-20-2022,12-19-42,139,depth_duration_stimuli/001392_2014-06-19_16-07-59_260595134347_rgbf000046-resize_1/001392_2014-06-19_16-07-59_260595134347_rgbf000046-resize_1-target.png,250,4.135,18,3386,253,feet,jsons/v1_VE250_randls_66.json,923970,1156030,49,Man
139,476113,DepthScenes,duration_manipulation_targetAtFixation,jsons/v1_VE250_randls_66.json,http://54.235.29.9/FacialAge/BNav_EC2/DepthDuration/v2_depth_duration_MTurk/v2_DepthDuration_HTML.html#102,102,1200,750,1200,750,8-20-2022,12-19-42,140,depth_duration_stimuli/000878_2014-06-08_22-52-45_260595134347_rgbf000045-resize_2/000878_2014-06-08_22-52-45_260595134347_rgbf000045-resize_2-target.png,250,2.092,7,3445,254,feet,jsons/v1_VE250_randls_66.json,923970,1156030,49,Man
140,476113,DepthScenes,duration_manipulation_targetAtFixation,jsons/v1_VE250_randls_66.json,http://54.235.29.9/FacialAge/BNav_EC2/DepthDuration/v2_depth_duration_MTurk/v2_DepthDuration_HTML.html#102,102,1200,750,1200,750,8-20-2022,12-19-42,141,depth_duration_stimuli/002953_2014-06-08_17-32-18_094959634447_rgbf000059-resize_5/002953_2014-06-08_17-32-18_094959634447_rgbf000059-resize_5-target.png,250,1.551,6,7080,230,feet,jsons/v1_VE250_randls_66.json,923970,1156030,49,Man
141,476113,DepthScenes,duration_manipulation_targetAtFixation,jsons/v1_VE250_randls_66.json,http://54.235.29.9/FacialAge/BNav_EC2/DepthDuration/v2_depth_duration_MTurk/v2_DepthDuration_HTML.html#102,102,1200,750,1200,750,8-20-2022,12-19-42,142,depth_duration_stimuli/002725_2014-06-22_11-47-51_094959634447_rgbf000070-resize_1/002725_2014-06-22_11-47-51_094959634447_rgbf000070-resize_1-target.png,250,2.195,8,3010,254,feet,jsons/v1_VE250_randls_66.json,923970,1156030,49,Man
142,476113,DepthScenes,duration_manipulation_targetAtFixation,jsons/v1_VE250_randls_66.json,http://54.235.29.9/FacialAge/BNav_EC2/DepthDuration/v2_depth_duration_MTurk/v2_DepthDuration_HTML.html#102,102,1200,750,1200,750,8-20-2022,12-19-42,143,depth_duration_stimuli/002344_2014-06-28_20-06-29_260595134347_rgbf000030-resize_1/002344_2014-06-28_20-06-29_260595134347_rgbf000030-resize_1-target.png,250,1.5795,5,2469,238,feet,jsons/v1_VE250_randls_66.json,923970,1156030,49,Man
143,476113,DepthScenes,duration_manipulation_targetAtFixation,jsons/v1_VE250_randls_66.json,http://54.235.29.9/FacialAge/BNav_EC2/DepthDuration/v2_depth_duration_MTurk/v2_DepthDuration_HTML.html#102,102,1200,750,1200,750,8-20-2022,12-19-42,144,depth_duration_stimuli/001055_2014-06-08_18-45-35_260595134347_rgbf000111-resize_4/001055_2014-06-08_18-45-35_260595134347_rgbf000111-resize_4-target.png,250,2.4290000000000003,20,3015,253,feet,jsons/v1_VE250_randls_66.json,923970,1156030,49,Man
144,476113,DepthScenes,duration_manipulation_targetAtFixation,jsons/v1_VE250_randls_66.json,http://54.235.29.9/FacialAge/BNav_EC2/DepthDuration/v2_depth_duration_MTurk/v2_DepthDuration_HTML.html#102,102,1200,750,1200,750,8-20-2022,12-19-42,145,depth_duration_stimuli/000549_2014-06-08_22-10-24_260595134347_rgbf000247-resize_3/000549_2014-06-08_22-10-24_260595134347_rgbf000247-resize_3-target.png,250,1.841,5,4803,254,feet,jsons/v1_VE250_randls_66.json,923970,1156030,49,Man
145,476113,DepthScenes,duration_manipulation_targetAtFixation,jsons/v1_VE250_randls_66.json,http://54.235.29.9/FacialAge/BNav_EC2/DepthDuration/v2_depth_duration_MTurk/v2_DepthDuration_HTML.html#102,102,1200,750,1200,750,8-20-2022,12-19-42,146,depth_duration_stimuli/001498_2014-06-19_17-45-14_260595134347_rgbf000129-resize_4/001498_2014-06-19_17-45-14_260595134347_rgbf000129-resize-original.jpg,250,1.4075,0,2786,253,feet,jsons/v1_VE250_randls_66.json,923970,1156030,49,Man
146,476113,DepthScenes,duration_manipulation_targetAtFixation,jsons/v1_VE250_randls_66.json,http://54.235.29.9/FacialAge/BNav_EC2/DepthDuration/v2_depth_duration_MTurk/v2_DepthDuration_HTML.html#102,102,1200,750,1200,750,8-20-2022,12-19-42,147,depth_duration_stimuli/002043_2014-06-24_20-29-38_260595134347_rgbf000039-resize_4/002043_2014-06-24_20-29-38_260595134347_rgbf000039-resize_4-target.png,250,2.8435,7,4152,246,feet,jsons/v1_VE250_randls_66.json,923970,1156030,49,Man
147,476113,DepthScenes,duration_manipulation_targetAtFixation,jsons/v1_VE250_randls_66.json,http://54.235.29.9/FacialAge/BNav_EC2/DepthDuration/v2_depth_duration_MTurk/v2_DepthDuration_HTML.html#102,102,1200,750,1200,750,8-20-2022,12-19-42,148,depth_duration_stimuli/003048_2014-06-15_13-49-43_094959634447_rgbf000150-resize_1/003048_2014-06-15_13-49-43_094959634447_rgbf000150-resize_1-target.png,250,4.0035,15,2701,253,feet,jsons/v1_VE250_randls_66.json,923970,1156030,49,Man
148,476113,DepthScenes,duration_manipulation_targetAtFixation,jsons/v1_VE250_randls_66.json,http://54.235.29.9/FacialAge/BNav_EC2/DepthDuration/v2_depth_duration_MTurk/v2_DepthDuration_HTML.html#102,102,1200,750,1200,750,8-20-2022,12-19-42,149,depth_duration_stimuli/001059_2014-06-08_21-53-27_260595134347_rgbf000061-resize_4/001059_2014-06-08_21-53-27_260595134347_rgbf000061-resize_4-target.png,250,2.4185,10,3631,253,feet,jsons/v1_VE250_randls_66.json,923970,1156030,49,Man
149,476113,DepthScenes,duration_manipulation_targetAtFixation,jsons/v1_VE250_randls_66.json,http://54.235.29.9/FacialAge/BNav_EC2/DepthDuration/v2_depth_duration_MTurk/v2_DepthDuration_HTML.html#102,102,1200,750,1200,750,8-20-2022,12-19-42,150,depth_duration_stimuli/001032_2014-06-08_13-23-17_260595134347_rgbf000021-resize_3/001032_2014-06-08_13-23-17_260595134347_rgbf000021-resize_3-target.png,250,3.2725,8,3844,248,feet,jsons/v1_VE250_randls_66.json,923970,1156030,49,Man
150,476113,DepthScenes,duration_manipulation_targetAtFixation,jsons/v1_VE250_randls_66.json,http://54.235.29.9/FacialAge/BNav_EC2/DepthDuration/v2_depth_duration_MTurk/v2_DepthDuration_HTML.html#102,102,1200,750,1200,750,8-20-2022,12-19-42,151,depth_duration_stimuli/002549_2014-06-24_13-41-39_094959634447_rgbf000022-resize_3/002549_2014-06-24_13-41-39_094959634447_rgbf000022-resize_3-target.png,250,1.476,6,4016,253,feet,jsons/v1_VE250_randls_66.json,923970,1156030,49,Man
151,476113,DepthScenes,duration_manipulation_targetAtFixation,jsons/v1_VE250_randls_66.json,http://54.235.29.9/FacialAge/BNav_EC2/DepthDuration/v2_depth_duration_MTurk/v2_DepthDuration_HTML.html#102,102,1200,750,1200,750,8-20-2022,12-19-42,152,depth_duration_stimuli/002750_2014-06-22_19-08-03_094959634447_rgbf000094-resize_4/002750_2014-06-22_19-08-03_094959634447_rgbf000094-resize_4-target.png,250,2.354,8,3496,249,feet,jsons/v1_VE250_randls_66.json,923970,1156030,49,Man
152,476113,DepthScenes,duration_manipulation_targetAtFixation,jsons/v1_VE250_randls_66.json,http://54.235.29.9/FacialAge/BNav_EC2/DepthDuration/v2_depth_duration_MTurk/v2_DepthDuration_HTML.html#102,102,1200,750,1200,750,8-20-2022,12-19-42,153,depth_duration_stimuli/003534_2014-05-22_15-06-10_094959634447_rgbf000102-resize_4/003534_2014-05-22_15-06-10_094959634447_rgbf000102-resize_4-target.png,250,1.426,4,3011,253,feet,jsons/v1_VE250_randls_66.json,923970,1156030,49,Man
153,476113,DepthScenes,duration_manipulation_targetAtFixation,jsons/v1_VE250_randls_66.json,http://54.235.29.9/FacialAge/BNav_EC2/DepthDuration/v2_depth_duration_MTurk/v2_DepthDuration_HTML.html#102,102,1200,750,1200,750,8-20-2022,12-19-42,154,depth_duration_stimuli/002637_2014-06-24_14-51-13_094959634447_rgbf000066-resize_4/002637_2014-06-24_14-51-13_094959634447_rgbf000066-resize_4-target.png,250,1.9955,8,2612,250,feet,jsons/v1_VE250_randls_66.json,923970,1156030,49,Man
154,476113,DepthScenes,duration_manipulation_targetAtFixation,jsons/v1_VE250_randls_66.json,http://54.235.29.9/FacialAge/BNav_EC2/DepthDuration/v2_depth_duration_MTurk/v2_DepthDuration_HTML.html#102,102,1200,750,1200,750,8-20-2022,12-19-42,155,depth_duration_stimuli/003070_2014-06-15_14-58-27_094959634447_rgbf000150-resize_3/003070_2014-06-15_14-58-27_094959634447_rgbf000150-resize_3-target.png,250,2.9415,10,4597,243,feet,jsons/v1_VE250_randls_66.json,923970,1156030,49,Man
155,476113,DepthScenes,duration_manipulation_targetAtFixation,jsons/v1_VE250_randls_66.json,http://54.235.29.9/FacialAge/BNav_EC2/DepthDuration/v2_depth_duration_MTurk/v2_DepthDuration_HTML.html#102,102,1200,750,1200,750,8-20-2022,12-19-42,156,depth_duration_stimuli/000943_2014-06-09_19-31-07_260595134347_rgbf000128-resize_1/000943_2014-06-09_19-31-07_260595134347_rgbf000128-resize_1-target.png,250,1.9765,10,3754,254,feet,jsons/v1_VE250_randls_66.json,923970,1156030,49,Man
156,476113,DepthScenes,duration_manipulation_targetAtFixation,jsons/v1_VE250_randls_66.json,http://54.235.29.9/FacialAge/BNav_EC2/DepthDuration/v2_depth_duration_MTurk/v2_DepthDuration_HTML.html#102,102,1200,750,1200,750,8-20-2022,12-19-42,157,depth_duration_stimuli/001449_2014-06-19_17-01-27_260595134347_rgbf000116-resize_2/001449_2014-06-19_17-01-27_260595134347_rgbf000116-resize_2-target.png,250,3.452,15,2619,247,feet,jsons/v1_VE250_randls_66.json,923970,1156030,49,Man
157,476113,DepthScenes,duration_manipulation_targetAtFixation,jsons/v1_VE250_randls_66.json,http://54.235.29.9/FacialAge/BNav_EC2/DepthDuration/v2_depth_duration_MTurk/v2_DepthDuration_HTML.html#102,102,1200,750,1200,750,8-20-2022,12-19-42,158,depth_duration_stimuli/001450_2014-06-19_17-02-03_260595134347_rgbf000203-resize_4/001450_2014-06-19_17-02-03_260595134347_rgbf000203-resize_4-target.png,250,4.0106666666667,8,4121,263,feet,jsons/v1_VE250_randls_66.json,923970,1156030,49,Man
158,476113,DepthScenes,duration_manipulation_targetAtFixation,jsons/v1_VE250_randls_66.json,http://54.235.29.9/FacialAge/BNav_EC2/DepthDuration/v2_depth_duration_MTurk/v2_DepthDuration_HTML.html#102,102,1200,750,1200,750,8-20-2022,12-19-42,159,depth_duration_stimuli/001158_2014-06-17_15-32-16_260595134347_rgbf000138-resize_2/001158_2014-06-17_15-32-16_260595134347_rgbf000138-resize_2-target.png,250,4.5315,16,5376,248,feet,jsons/v1_VE250_randls_66.json,923970,1156030,49,Man
159,476113,DepthScenes,duration_manipulation_targetAtFixation,jsons/v1_VE250_randls_66.json,http://54.235.29.9/FacialAge/BNav_EC2/DepthDuration/v2_depth_duration_MTurk/v2_DepthDuration_HTML.html#102,102,1200,750,1200,750,8-20-2022,12-19-42,160,depth_duration_stimuli/000556_2014-06-09_22-42-56_260595134347_rgbf000214-resize_1/000556_2014-06-09_22-42-56_260595134347_rgbf000214-resize_1-target.png,250,4.8415,22,7084,247,feet,jsons/v1_VE250_randls_66.json,923970,1156030,49,Man
160,476113,DepthScenes,duration_manipulation_targetAtFixation,jsons/v1_VE250_randls_66.json,http://54.235.29.9/FacialAge/BNav_EC2/DepthDuration/v2_depth_duration_MTurk/v2_DepthDuration_HTML.html#102,102,1200,750,1200,750,8-20-2022,12-19-42,161,depth_duration_stimuli/002600_2014-06-24_14-27-04_094959634447_rgbf000074-resize_2/002600_2014-06-24_14-27-04_094959634447_rgbf000074-resize_2-target.png,250,2.7575,10,3859,254,feet,jsons/v1_VE250_randls_66.json,923970,1156030,49,Man
161,476113,DepthScenes,duration_manipulation_targetAtFixation,jsons/v1_VE250_randls_66.json,http://54.235.29.9/FacialAge/BNav_EC2/DepthDuration/v2_depth_duration_MTurk/v2_DepthDuration_HTML.html#102,102,1200,750,1200,750,8-20-2022,12-19-42,162,depth_duration_stimuli/003228_2014-05-14_13-42-35_094959634447_rgbf000101-resize_1/003228_2014-05-14_13-42-35_094959634447_rgbf000101-resize_1-target.png,250,1.9680000000000002,5,2749,248,feet,jsons/v1_VE250_randls_66.json,923970,1156030,49,Man
162,476113,DepthScenes,duration_manipulation_targetAtFixation,jsons/v1_VE250_randls_66.json,http://54.235.29.9/FacialAge/BNav_EC2/DepthDuration/v2_depth_duration_MTurk/v2_DepthDuration_HTML.html#102,102,1200,750,1200,750,8-20-2022,12-19-42,163,depth_duration_stimuli/000486_2014-06-09_20-47-20_260595134347_rgbf000143-resize_2/000486_2014-06-09_20-47-20_260595134347_rgbf000143-resize_2-target.png,250,4.8325,13,6663,252,feet,jsons/v1_VE250_randls_66.json,923970,1156030,49,Man
163,476113,DepthScenes,duration_manipulation_targetAtFixation,jsons/v1_VE250_randls_66.json,http://54.235.29.9/FacialAge/BNav_EC2/DepthDuration/v2_depth_duration_MTurk/v2_DepthDuration_HTML.html#102,102,1200,750,1200,750,8-20-2022,12-19-42,164,depth_duration_stimuli/003083_2014-06-15_15-21-03_094959634447_rgbf000063-resize_1/003083_2014-06-15_15-21-03_094959634447_rgbf000063-resize_1-target.png,250,4.1405,18,7105,246,feet,jsons/v1_VE250_randls_66.json,923970,1156030,49,Man
