,subjID,experimentName,versionName,sequenceName,url,selected_row,windowWidth,windowHeight,screenWidth,screenHeight,startDate,startTime,trial,stimulus,duration,actual_depth,depth_estimate,trial_RT,log_sceneDuration,unitSelection,seq_filepath,experimentTime,totalTime,age,gender
0,476295,DepthScenes,duration_manipulation_targetAtFixation,jsons/v1_VE250_randls_70_rotated.json,http://54.235.29.9/FacialAge/BNav_EC2/DepthDuration/v2_depth_duration_MTurk/v2_DepthDuration_HTML.html#66,66,1366,657,1366,768,9-3-2022,9-38-1,1,depth_duration_stimuli/002953_2014-06-08_17-32-18_094959634447_rgbf000059-resize_5/002953_2014-06-08_17-32-18_094959634447_rgbf000059-resize_5-target.png,250,1.551,0.3,5826,255,meters,jsons/v1_VE250_randls_70_rotated.json,842550,989145,1962,Man
1,476295,DepthScenes,duration_manipulation_targetAtFixation,jsons/v1_VE250_randls_70_rotated.json,http://54.235.29.9/FacialAge/BNav_EC2/DepthDuration/v2_depth_duration_MTurk/v2_DepthDuration_HTML.html#66,66,1366,657,1366,768,9-3-2022,9-38-1,2,depth_duration_stimuli/000878_2014-06-08_22-52-45_260595134347_rgbf000045-resize_2/000878_2014-06-08_22-52-45_260595134347_rgbf000045-resize_2-target.png,250,2.092,0.2,18577,237,meters,jsons/v1_VE250_randls_70_rotated.json,842550,989145,1962,Man
2,476295,DepthScenes,duration_manipulation_targetAtFixation,jsons/v1_VE250_randls_70_rotated.json,http://54.235.29.9/FacialAge/BNav_EC2/DepthDuration/v2_depth_duration_MTurk/v2_DepthDuration_HTML.html#66,66,1366,657,1366,768,9-3-2022,9-38-1,3,depth_duration_stimuli/001100_2014-06-15_17-46-26_260595134347_rgbf000225-resize_2/001100_2014-06-15_17-46-26_260595134347_rgbf000225-resize_2-target.png,250,2.24,0.3,4068,248,meters,jsons/v1_VE250_randls_70_rotated.json,842550,989145,1962,Man
3,476295,DepthScenes,duration_manipulation_targetAtFixation,jsons/v1_VE250_randls_70_rotated.json,http://54.235.29.9/FacialAge/BNav_EC2/DepthDuration/v2_depth_duration_MTurk/v2_DepthDuration_HTML.html#66,66,1366,657,1366,768,9-3-2022,9-38-1,4,depth_duration_stimuli/002784_2014-06-22_19-26-30_094959634447_rgbf000083-resize_3/002784_2014-06-22_19-26-30_094959634447_rgbf000083-resize_3-target.png,250,1.8046666666667,0.0,7537,222,meters,jsons/v1_VE250_randls_70_rotated.json,842550,989145,1962,Man
4,476295,DepthScenes,duration_manipulation_targetAtFixation,jsons/v1_VE250_randls_70_rotated.json,http://54.235.29.9/FacialAge/BNav_EC2/DepthDuration/v2_depth_duration_MTurk/v2_DepthDuration_HTML.html#66,66,1366,657,1366,768,9-3-2022,9-38-1,5,depth_duration_stimuli/002444_2014-06-28_20-32-08_260595134347_rgbf000027-resize_0/002444_2014-06-28_20-32-08_260595134347_rgbf000027-resize_0-target.png,250,4.388999999999999,0.3,3910,249,meters,jsons/v1_VE250_randls_70_rotated.json,842550,989145,1962,Man
5,476295,DepthScenes,duration_manipulation_targetAtFixation,jsons/v1_VE250_randls_70_rotated.json,http://54.235.29.9/FacialAge/BNav_EC2/DepthDuration/v2_depth_duration_MTurk/v2_DepthDuration_HTML.html#66,66,1366,657,1366,768,9-3-2022,9-38-1,6,depth_duration_stimuli/000436_2014-06-09_22-25-11_260595134347_rgbf000137-resize_1/000436_2014-06-09_22-25-11_260595134347_rgbf000137-resize_1-target.png,250,4.0705,0.4,4528,254,meters,jsons/v1_VE250_randls_70_rotated.json,842550,989145,1962,Man
6,476295,DepthScenes,duration_manipulation_targetAtFixation,jsons/v1_VE250_randls_70_rotated.json,http://54.235.29.9/FacialAge/BNav_EC2/DepthDuration/v2_depth_duration_MTurk/v2_DepthDuration_HTML.html#66,66,1366,657,1366,768,9-3-2022,9-38-1,7,depth_duration_stimuli/001094_2014-06-15_17-36-00_260595134347_rgbf000205-resize_0/001094_2014-06-15_17-36-00_260595134347_rgbf000205-resize_0-target.png,250,4.2175,0.3,4684,250,meters,jsons/v1_VE250_randls_70_rotated.json,842550,989145,1962,Man
7,476295,DepthScenes,duration_manipulation_targetAtFixation,jsons/v1_VE250_randls_70_rotated.json,http://54.235.29.9/FacialAge/BNav_EC2/DepthDuration/v2_depth_duration_MTurk/v2_DepthDuration_HTML.html#66,66,1366,657,1366,768,9-3-2022,9-38-1,8,depth_duration_stimuli/000692_2014-06-08_13-09-42_260595134347_rgbf000199-resize_2/000692_2014-06-08_13-09-42_260595134347_rgbf000199-resize_2-target.png,250,3.661,0.3,6272,246,meters,jsons/v1_VE250_randls_70_rotated.json,842550,989145,1962,Man
8,476295,DepthScenes,duration_manipulation_targetAtFixation,jsons/v1_VE250_randls_70_rotated.json,http://54.235.29.9/FacialAge/BNav_EC2/DepthDuration/v2_depth_duration_MTurk/v2_DepthDuration_HTML.html#66,66,1366,657,1366,768,9-3-2022,9-38-1,9,depth_duration_stimuli/000103_2014-05-14_22-01-17_260595134347_rgbf000152-resize_5/000103_2014-05-14_22-01-17_260595134347_rgbf000152-resize_5-target.png,250,1.993,0.4,5586,541,meters,jsons/v1_VE250_randls_70_rotated.json,842550,989145,1962,Man
9,476295,DepthScenes,duration_manipulation_targetAtFixation,jsons/v1_VE250_randls_70_rotated.json,http://54.235.29.9/FacialAge/BNav_EC2/DepthDuration/v2_depth_duration_MTurk/v2_DepthDuration_HTML.html#66,66,1366,657,1366,768,9-3-2022,9-38-1,10,depth_duration_stimuli/001555_2014-06-20_17-12-10_260595134347_rgbf000065-resize_4/001555_2014-06-20_17-12-10_260595134347_rgbf000065-resize_4-target.png,250,1.633,0.2,4652,262,meters,jsons/v1_VE250_randls_70_rotated.json,842550,989145,1962,Man
10,476295,DepthScenes,duration_manipulation_targetAtFixation,jsons/v1_VE250_randls_70_rotated.json,http://54.235.29.9/FacialAge/BNav_EC2/DepthDuration/v2_depth_duration_MTurk/v2_DepthDuration_HTML.html#66,66,1366,657,1366,768,9-3-2022,9-38-1,11,depth_duration_stimuli/000943_2014-06-09_19-31-07_260595134347_rgbf000128-resize_1/000943_2014-06-09_19-31-07_260595134347_rgbf000128-resize_1-target.png,250,1.9765,0.3,14338,260,meters,jsons/v1_VE250_randls_70_rotated.json,842550,989145,1962,Man
11,476295,DepthScenes,duration_manipulation_targetAtFixation,jsons/v1_VE250_randls_70_rotated.json,http://54.235.29.9/FacialAge/BNav_EC2/DepthDuration/v2_depth_duration_MTurk/v2_DepthDuration_HTML.html#66,66,1366,657,1366,768,9-3-2022,9-38-1,12,depth_duration_stimuli/003070_2014-06-15_14-58-27_094959634447_rgbf000150-resize_3/003070_2014-06-15_14-58-27_094959634447_rgbf000150-resize_3-target.png,250,2.9415,0.3,6770,236,meters,jsons/v1_VE250_randls_70_rotated.json,842550,989145,1962,Man
12,476295,DepthScenes,duration_manipulation_targetAtFixation,jsons/v1_VE250_randls_70_rotated.json,http://54.235.29.9/FacialAge/BNav_EC2/DepthDuration/v2_depth_duration_MTurk/v2_DepthDuration_HTML.html#66,66,1366,657,1366,768,9-3-2022,9-38-1,13,depth_duration_stimuli/000137_2014-05-20_17-04-49_260595134347_rgbf000120-resize_1/000137_2014-05-20_17-04-49_260595134347_rgbf000120-resize_1-target.png,250,3.786,0.2,11225,250,meters,jsons/v1_VE250_randls_70_rotated.json,842550,989145,1962,Man
13,476295,DepthScenes,duration_manipulation_targetAtFixation,jsons/v1_VE250_randls_70_rotated.json,http://54.235.29.9/FacialAge/BNav_EC2/DepthDuration/v2_depth_duration_MTurk/v2_DepthDuration_HTML.html#66,66,1366,657,1366,768,9-3-2022,9-38-1,14,depth_duration_stimuli/000736_2014-06-08_18-24-15_260595134347_rgbf000206-resize_3/000736_2014-06-08_18-24-15_260595134347_rgbf000206-resize_3-target.png,250,3.515,0.3,3415,248,meters,jsons/v1_VE250_randls_70_rotated.json,842550,989145,1962,Man
14,476295,DepthScenes,duration_manipulation_targetAtFixation,jsons/v1_VE250_randls_70_rotated.json,http://54.235.29.9/FacialAge/BNav_EC2/DepthDuration/v2_depth_duration_MTurk/v2_DepthDuration_HTML.html#66,66,1366,657,1366,768,9-3-2022,9-38-1,15,depth_duration_stimuli/001214_2014-06-17_16-13-55_260595134347_rgbf000111-resize_0/001214_2014-06-17_16-13-55_260595134347_rgbf000111-resize_0-target.png,250,2.6505,0.3,3929,261,meters,jsons/v1_VE250_randls_70_rotated.json,842550,989145,1962,Man
15,476295,DepthScenes,duration_manipulation_targetAtFixation,jsons/v1_VE250_randls_70_rotated.json,http://54.235.29.9/FacialAge/BNav_EC2/DepthDuration/v2_depth_duration_MTurk/v2_DepthDuration_HTML.html#66,66,1366,657,1366,768,9-3-2022,9-38-1,16,depth_duration_stimuli/000810_2014-06-08_17-20-01_260595134347_rgbf000105-resize_0/000810_2014-06-08_17-20-01_260595134347_rgbf000105-resize_0-target.png,250,1.4865,0.3,3534,238,meters,jsons/v1_VE250_randls_70_rotated.json,842550,989145,1962,Man
16,476295,DepthScenes,duration_manipulation_targetAtFixation,jsons/v1_VE250_randls_70_rotated.json,http://54.235.29.9/FacialAge/BNav_EC2/DepthDuration/v2_depth_duration_MTurk/v2_DepthDuration_HTML.html#66,66,1366,657,1366,768,9-3-2022,9-38-1,17,depth_duration_stimuli/000854_2014-06-09_19-43-13_260595134347_rgbf000066-resize_0/000854_2014-06-09_19-43-13_260595134347_rgbf000066-resize_0-target.png,250,3.068,0.3,3607,256,meters,jsons/v1_VE250_randls_70_rotated.json,842550,989145,1962,Man
17,476295,DepthScenes,duration_manipulation_targetAtFixation,jsons/v1_VE250_randls_70_rotated.json,http://54.235.29.9/FacialAge/BNav_EC2/DepthDuration/v2_depth_duration_MTurk/v2_DepthDuration_HTML.html#66,66,1366,657,1366,768,9-3-2022,9-38-1,18,depth_duration_stimuli/000758_2014-06-08_22-05-08_260595134347_rgbf000085-resize_0/000758_2014-06-08_22-05-08_260595134347_rgbf000085-resize_0-target.png,250,3.3810000000000002,0.3,3957,235,meters,jsons/v1_VE250_randls_70_rotated.json,842550,989145,1962,Man
18,476295,DepthScenes,duration_manipulation_targetAtFixation,jsons/v1_VE250_randls_70_rotated.json,http://54.235.29.9/FacialAge/BNav_EC2/DepthDuration/v2_depth_duration_MTurk/v2_DepthDuration_HTML.html#66,66,1366,657,1366,768,9-3-2022,9-38-1,19,depth_duration_stimuli/001498_2014-06-19_17-45-14_260595134347_rgbf000129-resize_4/001498_2014-06-19_17-45-14_260595134347_rgbf000129-resize-original.jpg,250,1.4075,0.2,3595,247,meters,jsons/v1_VE250_randls_70_rotated.json,842550,989145,1962,Man
19,476295,DepthScenes,duration_manipulation_targetAtFixation,jsons/v1_VE250_randls_70_rotated.json,http://54.235.29.9/FacialAge/BNav_EC2/DepthDuration/v2_depth_duration_MTurk/v2_DepthDuration_HTML.html#66,66,1366,657,1366,768,9-3-2022,9-38-1,20,depth_duration_stimuli/003587_2014-05-23_16-48-02_094959634447_rgbf002384-resize_2/003587_2014-05-23_16-48-02_094959634447_rgbf002384-resize_2-target.png,250,1.357,0.4,3700,307,meters,jsons/v1_VE250_randls_70_rotated.json,842550,989145,1962,Man
20,476295,DepthScenes,duration_manipulation_targetAtFixation,jsons/v1_VE250_randls_70_rotated.json,http://54.235.29.9/FacialAge/BNav_EC2/DepthDuration/v2_depth_duration_MTurk/v2_DepthDuration_HTML.html#66,66,1366,657,1366,768,9-3-2022,9-38-1,21,depth_duration_stimuli/001167_2014-06-17_15-38-07_260595134347_rgbf000108-resize_0/001167_2014-06-17_15-38-07_260595134347_rgbf000108-resize_0-target.png,250,1.8505,0.2,4442,248,meters,jsons/v1_VE250_randls_70_rotated.json,842550,989145,1962,Man
21,476295,DepthScenes,duration_manipulation_targetAtFixation,jsons/v1_VE250_randls_70_rotated.json,http://54.235.29.9/FacialAge/BNav_EC2/DepthDuration/v2_depth_duration_MTurk/v2_DepthDuration_HTML.html#66,66,1366,657,1366,768,9-3-2022,9-38-1,22,depth_duration_stimuli/000549_2014-06-08_22-10-24_260595134347_rgbf000247-resize_3/000549_2014-06-08_22-10-24_260595134347_rgbf000247-resize_3-target.png,250,1.841,0.2,4056,240,meters,jsons/v1_VE250_randls_70_rotated.json,842550,989145,1962,Man
22,476295,DepthScenes,duration_manipulation_targetAtFixation,jsons/v1_VE250_randls_70_rotated.json,http://54.235.29.9/FacialAge/BNav_EC2/DepthDuration/v2_depth_duration_MTurk/v2_DepthDuration_HTML.html#66,66,1366,657,1366,768,9-3-2022,9-38-1,23,depth_duration_stimuli/001055_2014-06-08_18-45-35_260595134347_rgbf000111-resize_4/001055_2014-06-08_18-45-35_260595134347_rgbf000111-resize_4-target.png,250,2.4290000000000003,0.3,6227,250,meters,jsons/v1_VE250_randls_70_rotated.json,842550,989145,1962,Man
23,476295,DepthScenes,duration_manipulation_targetAtFixation,jsons/v1_VE250_randls_70_rotated.json,http://54.235.29.9/FacialAge/BNav_EC2/DepthDuration/v2_depth_duration_MTurk/v2_DepthDuration_HTML.html#66,66,1366,657,1366,768,9-3-2022,9-38-1,24,depth_duration_stimuli/002660_2014-06-13_15-44-18_094959634447_rgbf001878-resize_2/002660_2014-06-13_15-44-18_094959634447_rgbf001878-resize_2-target.png,250,3.576,0.3,11967,206,meters,jsons/v1_VE250_randls_70_rotated.json,842550,989145,1962,Man
24,476295,DepthScenes,duration_manipulation_targetAtFixation,jsons/v1_VE250_randls_70_rotated.json,http://54.235.29.9/FacialAge/BNav_EC2/DepthDuration/v2_depth_duration_MTurk/v2_DepthDuration_HTML.html#66,66,1366,657,1366,768,9-3-2022,9-38-1,25,depth_duration_stimuli/002153_2014-06-25_21-27-18_260595134347_rgbf000038-resize_5/002153_2014-06-25_21-27-18_260595134347_rgbf000038-resize_5-target.png,250,2.505,0.3,5482,238,meters,jsons/v1_VE250_randls_70_rotated.json,842550,989145,1962,Man
25,476295,DepthScenes,duration_manipulation_targetAtFixation,jsons/v1_VE250_randls_70_rotated.json,http://54.235.29.9/FacialAge/BNav_EC2/DepthDuration/v2_depth_duration_MTurk/v2_DepthDuration_HTML.html#66,66,1366,657,1366,768,9-3-2022,9-38-1,26,depth_duration_stimuli/002467_2014-06-28_20-38-07_260595134347_rgbf000026-resize_2/002467_2014-06-28_20-38-07_260595134347_rgbf000026-resize_2-target.png,250,4.742,0.2,3475,249,meters,jsons/v1_VE250_randls_70_rotated.json,842550,989145,1962,Man
26,476295,DepthScenes,duration_manipulation_targetAtFixation,jsons/v1_VE250_randls_70_rotated.json,http://54.235.29.9/FacialAge/BNav_EC2/DepthDuration/v2_depth_duration_MTurk/v2_DepthDuration_HTML.html#66,66,1366,657,1366,768,9-3-2022,9-38-1,27,depth_duration_stimuli/002570_2014-06-24_13-59-54_094959634447_rgbf000059-resize_0/002570_2014-06-24_13-59-54_094959634447_rgbf000059-resize_0-target.png,250,4.037,0.2,5961,254,meters,jsons/v1_VE250_randls_70_rotated.json,842550,989145,1962,Man
27,476295,DepthScenes,duration_manipulation_targetAtFixation,jsons/v1_VE250_randls_70_rotated.json,http://54.235.29.9/FacialAge/BNav_EC2/DepthDuration/v2_depth_duration_MTurk/v2_DepthDuration_HTML.html#66,66,1366,657,1366,768,9-3-2022,9-38-1,28,depth_duration_stimuli/000780_2014-06-08_22-28-29_260595134347_rgbf000126-resize_1/000780_2014-06-08_22-28-29_260595134347_rgbf000126-resize_1-target.png,250,3.3825,0.3,5277,552,meters,jsons/v1_VE250_randls_70_rotated.json,842550,989145,1962,Man
28,476295,DepthScenes,duration_manipulation_targetAtFixation,jsons/v1_VE250_randls_70_rotated.json,http://54.235.29.9/FacialAge/BNav_EC2/DepthDuration/v2_depth_duration_MTurk/v2_DepthDuration_HTML.html#66,66,1366,657,1366,768,9-3-2022,9-38-1,29,depth_duration_stimuli/002445_2014-06-28_20-32-16_260595134347_rgbf000029-resize_4/002445_2014-06-28_20-32-16_260595134347_rgbf000029-resize_4-target.png,250,2.5315,0.3,4822,241,meters,jsons/v1_VE250_randls_70_rotated.json,842550,989145,1962,Man
29,476295,DepthScenes,duration_manipulation_targetAtFixation,jsons/v1_VE250_randls_70_rotated.json,http://54.235.29.9/FacialAge/BNav_EC2/DepthDuration/v2_depth_duration_MTurk/v2_DepthDuration_HTML.html#66,66,1366,657,1366,768,9-3-2022,9-38-1,30,depth_duration_stimuli/002072_2014-06-24_21-48-06_260595134347_rgbf000115-resize_0/002072_2014-06-24_21-48-06_260595134347_rgbf000115-resize-original.jpg,250,4.702,0.0,6192,247,meters,jsons/v1_VE250_randls_70_rotated.json,842550,989145,1962,Man
30,476295,DepthScenes,duration_manipulation_targetAtFixation,jsons/v1_VE250_randls_70_rotated.json,http://54.235.29.9/FacialAge/BNav_EC2/DepthDuration/v2_depth_duration_MTurk/v2_DepthDuration_HTML.html#66,66,1366,657,1366,768,9-3-2022,9-38-1,31,depth_duration_stimuli/002639_2014-06-24_14-51-37_094959634447_rgbf000074-resize_4/002639_2014-06-24_14-51-37_094959634447_rgbf000074-resize_4-target.png,250,4.0375,0.2,3295,236,meters,jsons/v1_VE250_randls_70_rotated.json,842550,989145,1962,Man
31,476295,DepthScenes,duration_manipulation_targetAtFixation,jsons/v1_VE250_randls_70_rotated.json,http://54.235.29.9/FacialAge/BNav_EC2/DepthDuration/v2_depth_duration_MTurk/v2_DepthDuration_HTML.html#66,66,1366,657,1366,768,9-3-2022,9-38-1,32,depth_duration_stimuli/003292_2014-05-14_21-53-49_094959634447_rgbf000100-resize_2/003292_2014-05-14_21-53-49_094959634447_rgbf000100-resize_2-target.png,250,3.4815,0.3,4400,243,meters,jsons/v1_VE250_randls_70_rotated.json,842550,989145,1962,Man
32,476295,DepthScenes,duration_manipulation_targetAtFixation,jsons/v1_VE250_randls_70_rotated.json,http://54.235.29.9/FacialAge/BNav_EC2/DepthDuration/v2_depth_duration_MTurk/v2_DepthDuration_HTML.html#66,66,1366,657,1366,768,9-3-2022,9-38-1,33,depth_duration_stimuli/001032_2014-06-08_13-23-17_260595134347_rgbf000021-resize_3/001032_2014-06-08_13-23-17_260595134347_rgbf000021-resize_3-target.png,250,3.2725,0.3,4080,249,meters,jsons/v1_VE250_randls_70_rotated.json,842550,989145,1962,Man
33,476295,DepthScenes,duration_manipulation_targetAtFixation,jsons/v1_VE250_randls_70_rotated.json,http://54.235.29.9/FacialAge/BNav_EC2/DepthDuration/v2_depth_duration_MTurk/v2_DepthDuration_HTML.html#66,66,1366,657,1366,768,9-3-2022,9-38-1,34,depth_duration_stimuli/001059_2014-06-08_21-53-27_260595134347_rgbf000061-resize_4/001059_2014-06-08_21-53-27_260595134347_rgbf000061-resize_4-target.png,250,2.4185,0.3,4931,247,meters,jsons/v1_VE250_randls_70_rotated.json,842550,989145,1962,Man
34,476295,DepthScenes,duration_manipulation_targetAtFixation,jsons/v1_VE250_randls_70_rotated.json,http://54.235.29.9/FacialAge/BNav_EC2/DepthDuration/v2_depth_duration_MTurk/v2_DepthDuration_HTML.html#66,66,1366,657,1366,768,9-3-2022,9-38-1,35,depth_duration_stimuli/000109_2014-05-14_23-41-52_260595134347_rgbf000035-resize_9/000109_2014-05-14_23-41-52_260595134347_rgbf000035-resize_9-target.png,250,1.3545,0.3,18615,240,meters,jsons/v1_VE250_randls_70_rotated.json,842550,989145,1962,Man
35,476295,DepthScenes,duration_manipulation_targetAtFixation,jsons/v1_VE250_randls_70_rotated.json,http://54.235.29.9/FacialAge/BNav_EC2/DepthDuration/v2_depth_duration_MTurk/v2_DepthDuration_HTML.html#66,66,1366,657,1366,768,9-3-2022,9-38-1,36,depth_duration_stimuli/000470_2014-06-09_19-42-40_260595134347_rgbf000094-resize_1/000470_2014-06-09_19-42-40_260595134347_rgbf000094-resize_1-target.png,250,1.831,0.0,5360,256,meters,jsons/v1_VE250_randls_70_rotated.json,842550,989145,1962,Man
36,476295,DepthScenes,duration_manipulation_targetAtFixation,jsons/v1_VE250_randls_70_rotated.json,http://54.235.29.9/FacialAge/BNav_EC2/DepthDuration/v2_depth_duration_MTurk/v2_DepthDuration_HTML.html#66,66,1366,657,1366,768,9-3-2022,9-38-1,37,depth_duration_stimuli/002425_2014-06-28_20-27-29_260595134347_rgbf000031-resize_8/002425_2014-06-28_20-27-29_260595134347_rgbf000031-resize_8-target.png,250,3.8960000000000004,0.0,5475,252,meters,jsons/v1_VE250_randls_70_rotated.json,842550,989145,1962,Man
37,476295,DepthScenes,duration_manipulation_targetAtFixation,jsons/v1_VE250_randls_70_rotated.json,http://54.235.29.9/FacialAge/BNav_EC2/DepthDuration/v2_depth_duration_MTurk/v2_DepthDuration_HTML.html#66,66,1366,657,1366,768,9-3-2022,9-38-1,38,depth_duration_stimuli/000642_2014-06-08_16-59-25_260595134347_rgbf000098-resize_2/000642_2014-06-08_16-59-25_260595134347_rgbf000098-resize_2-target.png,250,2.8815,0.0,2868,249,meters,jsons/v1_VE250_randls_70_rotated.json,842550,989145,1962,Man
38,476295,DepthScenes,duration_manipulation_targetAtFixation,jsons/v1_VE250_randls_70_rotated.json,http://54.235.29.9/FacialAge/BNav_EC2/DepthDuration/v2_depth_duration_MTurk/v2_DepthDuration_HTML.html#66,66,1366,657,1366,768,9-3-2022,9-38-1,39,depth_duration_stimuli/002136_2014-06-25_21-18-03_260595134347_rgbf000109-resize_3/002136_2014-06-25_21-18-03_260595134347_rgbf000109-resize_3-target.png,250,1.9569999999999999,0.0,2609,108,meters,jsons/v1_VE250_randls_70_rotated.json,842550,989145,1962,Man
39,476295,DepthScenes,duration_manipulation_targetAtFixation,jsons/v1_VE250_randls_70_rotated.json,http://54.235.29.9/FacialAge/BNav_EC2/DepthDuration/v2_depth_duration_MTurk/v2_DepthDuration_HTML.html#66,66,1366,657,1366,768,9-3-2022,9-38-1,40,depth_duration_stimuli/002964_2014-06-08_17-46-11_094959634447_rgbf000091-resize_4/002964_2014-06-08_17-46-11_094959634447_rgbf000091-resize_4-target.png,250,1.6909999999999998,0.2,3293,278,meters,jsons/v1_VE250_randls_70_rotated.json,842550,989145,1962,Man
40,476295,DepthScenes,duration_manipulation_targetAtFixation,jsons/v1_VE250_randls_70_rotated.json,http://54.235.29.9/FacialAge/BNav_EC2/DepthDuration/v2_depth_duration_MTurk/v2_DepthDuration_HTML.html#66,66,1366,657,1366,768,9-3-2022,9-38-1,41,depth_duration_stimuli/002103_2014-06-25_20-00-40_260595134347_rgbf000049-resize_0/002103_2014-06-25_20-00-40_260595134347_rgbf000049-resize_0-target.png,250,4.105,0.3,3215,244,meters,jsons/v1_VE250_randls_70_rotated.json,842550,989145,1962,Man
41,476295,DepthScenes,duration_manipulation_targetAtFixation,jsons/v1_VE250_randls_70_rotated.json,http://54.235.29.9/FacialAge/BNav_EC2/DepthDuration/v2_depth_duration_MTurk/v2_DepthDuration_HTML.html#66,66,1366,657,1366,768,9-3-2022,9-38-1,42,depth_duration_stimuli/002039_2014-06-24_20-22-38_260595134347_rgbf000084-resize_1/002039_2014-06-24_20-22-38_260595134347_rgbf000084-resize_1-target.png,250,4.408,0.4,3331,254,meters,jsons/v1_VE250_randls_70_rotated.json,842550,989145,1962,Man
42,476295,DepthScenes,duration_manipulation_targetAtFixation,jsons/v1_VE250_randls_70_rotated.json,http://54.235.29.9/FacialAge/BNav_EC2/DepthDuration/v2_depth_duration_MTurk/v2_DepthDuration_HTML.html#66,66,1366,657,1366,768,9-3-2022,9-38-1,43,depth_duration_stimuli/000709_2014-06-08_13-51-55_260595134347_rgbf000068-resize_3/000709_2014-06-08_13-51-55_260595134347_rgbf000068-resize_3-target.png,250,1.8030000000000002,0.3,3234,256,meters,jsons/v1_VE250_randls_70_rotated.json,842550,989145,1962,Man
43,476295,DepthScenes,duration_manipulation_targetAtFixation,jsons/v1_VE250_randls_70_rotated.json,http://54.235.29.9/FacialAge/BNav_EC2/DepthDuration/v2_depth_duration_MTurk/v2_DepthDuration_HTML.html#66,66,1366,657,1366,768,9-3-2022,9-38-1,44,depth_duration_stimuli/002057_2014-06-24_21-00-13_260595134347_rgbf000120-resize_1/002057_2014-06-24_21-00-13_260595134347_rgbf000120-resize_1-target.png,250,2.967,0.3,4016,253,meters,jsons/v1_VE250_randls_70_rotated.json,842550,989145,1962,Man
44,476295,DepthScenes,duration_manipulation_targetAtFixation,jsons/v1_VE250_randls_70_rotated.json,http://54.235.29.9/FacialAge/BNav_EC2/DepthDuration/v2_depth_duration_MTurk/v2_DepthDuration_HTML.html#66,66,1366,657,1366,768,9-3-2022,9-38-1,45,depth_duration_stimuli/001516_2014-06-20_16-25-09_260595134347_rgbf000076-resize_2/001516_2014-06-20_16-25-09_260595134347_rgbf000076-resize_2-target.png,250,1.7445,0.3,3365,251,meters,jsons/v1_VE250_randls_70_rotated.json,842550,989145,1962,Man
45,476295,DepthScenes,duration_manipulation_targetAtFixation,jsons/v1_VE250_randls_70_rotated.json,http://54.235.29.9/FacialAge/BNav_EC2/DepthDuration/v2_depth_duration_MTurk/v2_DepthDuration_HTML.html#66,66,1366,657,1366,768,9-3-2022,9-38-1,46,depth_duration_stimuli/002118_2014-06-25_20-32-08_260595134347_rgbf000078-resize_1/002118_2014-06-25_20-32-08_260595134347_rgbf000078-resize_1-target.png,250,2.6460000000000004,0.0,2508,258,meters,jsons/v1_VE250_randls_70_rotated.json,842550,989145,1962,Man
46,476295,DepthScenes,duration_manipulation_targetAtFixation,jsons/v1_VE250_randls_70_rotated.json,http://54.235.29.9/FacialAge/BNav_EC2/DepthDuration/v2_depth_duration_MTurk/v2_DepthDuration_HTML.html#66,66,1366,657,1366,768,9-3-2022,9-38-1,47,depth_duration_stimuli/002199_2014-06-28_18-33-56_260595134347_rgbf000074-resize_0/002199_2014-06-28_18-33-56_260595134347_rgbf000074-resize_0-target.png,250,1.996,0.2,3804,232,meters,jsons/v1_VE250_randls_70_rotated.json,842550,989145,1962,Man
47,476295,DepthScenes,duration_manipulation_targetAtFixation,jsons/v1_VE250_randls_70_rotated.json,http://54.235.29.9/FacialAge/BNav_EC2/DepthDuration/v2_depth_duration_MTurk/v2_DepthDuration_HTML.html#66,66,1366,657,1366,768,9-3-2022,9-38-1,48,depth_duration_stimuli/001056_2014-06-08_18-46-44_260595134347_rgbf000068-resize_0/001056_2014-06-08_18-46-44_260595134347_rgbf000068-resize_0-target.png,250,2.6625,0.3,3879,249,meters,jsons/v1_VE250_randls_70_rotated.json,842550,989145,1962,Man
48,476295,DepthScenes,duration_manipulation_targetAtFixation,jsons/v1_VE250_randls_70_rotated.json,http://54.235.29.9/FacialAge/BNav_EC2/DepthDuration/v2_depth_duration_MTurk/v2_DepthDuration_HTML.html#66,66,1366,657,1366,768,9-3-2022,9-38-1,49,depth_duration_stimuli/001170_2014-06-17_15-43-44_260595134347_rgbf000096-resize_6/001170_2014-06-17_15-43-44_260595134347_rgbf000096-resize-original.jpg,250,1.1909999999999998,0.3,5706,248,meters,jsons/v1_VE250_randls_70_rotated.json,842550,989145,1962,Man
49,476295,DepthScenes,duration_manipulation_targetAtFixation,jsons/v1_VE250_randls_70_rotated.json,http://54.235.29.9/FacialAge/BNav_EC2/DepthDuration/v2_depth_duration_MTurk/v2_DepthDuration_HTML.html#66,66,1366,657,1366,768,9-3-2022,9-38-1,50,depth_duration_stimuli/002340_2014-06-28_20-05-46_260595134347_rgbf000113-resize_0/002340_2014-06-28_20-05-46_260595134347_rgbf000113-resize_0-target.png,250,2.4735,0.3,3952,241,meters,jsons/v1_VE250_randls_70_rotated.json,842550,989145,1962,Man
50,476295,DepthScenes,duration_manipulation_targetAtFixation,jsons/v1_VE250_randls_70_rotated.json,http://54.235.29.9/FacialAge/BNav_EC2/DepthDuration/v2_depth_duration_MTurk/v2_DepthDuration_HTML.html#66,66,1366,657,1366,768,9-3-2022,9-38-1,51,depth_duration_stimuli/001016_2014-06-09_16-16-10_260595134347_rgbf000112-resize_5/001016_2014-06-09_16-16-10_260595134347_rgbf000112-resize_5-target.png,250,1.6565,0.3,3843,250,meters,jsons/v1_VE250_randls_70_rotated.json,842550,989145,1962,Man
51,476295,DepthScenes,duration_manipulation_targetAtFixation,jsons/v1_VE250_randls_70_rotated.json,http://54.235.29.9/FacialAge/BNav_EC2/DepthDuration/v2_depth_duration_MTurk/v2_DepthDuration_HTML.html#66,66,1366,657,1366,768,9-3-2022,9-38-1,52,depth_duration_stimuli/003010_2014-06-15_12-54-35_094959634447_rgbf000112-resize_0/003010_2014-06-15_12-54-35_094959634447_rgbf000112-resize_0-target.png,250,3.1185,0.4,3523,266,meters,jsons/v1_VE250_randls_70_rotated.json,842550,989145,1962,Man
52,476295,DepthScenes,duration_manipulation_targetAtFixation,jsons/v1_VE250_randls_70_rotated.json,http://54.235.29.9/FacialAge/BNav_EC2/DepthDuration/v2_depth_duration_MTurk/v2_DepthDuration_HTML.html#66,66,1366,657,1366,768,9-3-2022,9-38-1,53,depth_duration_stimuli/001810_2014-06-26_20-51-35_260595134347_rgbf000040-resize_3/001810_2014-06-26_20-51-35_260595134347_rgbf000040-resize_3-target.png,250,2.2525,0.2,3932,250,meters,jsons/v1_VE250_randls_70_rotated.json,842550,989145,1962,Man
53,476295,DepthScenes,duration_manipulation_targetAtFixation,jsons/v1_VE250_randls_70_rotated.json,http://54.235.29.9/FacialAge/BNav_EC2/DepthDuration/v2_depth_duration_MTurk/v2_DepthDuration_HTML.html#66,66,1366,657,1366,768,9-3-2022,9-38-1,54,depth_duration_stimuli/002805_2014-06-22_19-54-03_094959634447_rgbf000079-resize_1/002805_2014-06-22_19-54-03_094959634447_rgbf000079-resize_1-target.png,250,3.1439999999999997,0.2,5640,247,meters,jsons/v1_VE250_randls_70_rotated.json,842550,989145,1962,Man
54,476295,DepthScenes,duration_manipulation_targetAtFixation,jsons/v1_VE250_randls_70_rotated.json,http://54.235.29.9/FacialAge/BNav_EC2/DepthDuration/v2_depth_duration_MTurk/v2_DepthDuration_HTML.html#66,66,1366,657,1366,768,9-3-2022,9-38-1,55,depth_duration_stimuli/000906_2014-06-08_13-35-43_260595134347_rgbf000155-resize_1/000906_2014-06-08_13-35-43_260595134347_rgbf000155-resize_1-target.png,250,2.8489999999999998,0.3,12077,249,meters,jsons/v1_VE250_randls_70_rotated.json,842550,989145,1962,Man
55,476295,DepthScenes,duration_manipulation_targetAtFixation,jsons/v1_VE250_randls_70_rotated.json,http://54.235.29.9/FacialAge/BNav_EC2/DepthDuration/v2_depth_duration_MTurk/v2_DepthDuration_HTML.html#66,66,1366,657,1366,768,9-3-2022,9-38-1,56,depth_duration_stimuli/001828_2014-06-26_21-40-03_260595134347_rgbf000024-resize_0/001828_2014-06-26_21-40-03_260595134347_rgbf000024-resize_0-target.png,250,4.8260000000000005,0.0,5603,238,meters,jsons/v1_VE250_randls_70_rotated.json,842550,989145,1962,Man
56,476295,DepthScenes,duration_manipulation_targetAtFixation,jsons/v1_VE250_randls_70_rotated.json,http://54.235.29.9/FacialAge/BNav_EC2/DepthDuration/v2_depth_duration_MTurk/v2_DepthDuration_HTML.html#66,66,1366,657,1366,768,9-3-2022,9-38-1,57,depth_duration_stimuli/000009_2014-05-26_14-32-05_260595134347_rgbf000034-resize_3/000009_2014-05-26_14-32-05_260595134347_rgbf000034-resize_3-target.png,250,3.8715,0.0,2902,248,meters,jsons/v1_VE250_randls_70_rotated.json,842550,989145,1962,Man
57,476295,DepthScenes,duration_manipulation_targetAtFixation,jsons/v1_VE250_randls_70_rotated.json,http://54.235.29.9/FacialAge/BNav_EC2/DepthDuration/v2_depth_duration_MTurk/v2_DepthDuration_HTML.html#66,66,1366,657,1366,768,9-3-2022,9-38-1,58,depth_duration_stimuli/003048_2014-06-15_13-49-43_094959634447_rgbf000150-resize_1/003048_2014-06-15_13-49-43_094959634447_rgbf000150-resize_1-target.png,250,4.0035,0.0,3307,243,meters,jsons/v1_VE250_randls_70_rotated.json,842550,989145,1962,Man
58,476295,DepthScenes,duration_manipulation_targetAtFixation,jsons/v1_VE250_randls_70_rotated.json,http://54.235.29.9/FacialAge/BNav_EC2/DepthDuration/v2_depth_duration_MTurk/v2_DepthDuration_HTML.html#66,66,1366,657,1366,768,9-3-2022,9-38-1,59,depth_duration_stimuli/002043_2014-06-24_20-29-38_260595134347_rgbf000039-resize_4/002043_2014-06-24_20-29-38_260595134347_rgbf000039-resize_4-target.png,250,2.8435,0.2,3973,245,meters,jsons/v1_VE250_randls_70_rotated.json,842550,989145,1962,Man
59,476295,DepthScenes,duration_manipulation_targetAtFixation,jsons/v1_VE250_randls_70_rotated.json,http://54.235.29.9/FacialAge/BNav_EC2/DepthDuration/v2_depth_duration_MTurk/v2_DepthDuration_HTML.html#66,66,1366,657,1366,768,9-3-2022,9-38-1,60,depth_duration_stimuli/001571_2014-06-20_17-21-32_260595134347_rgbf000089-resize_1/001571_2014-06-20_17-21-32_260595134347_rgbf000089-resize_1-target.png,250,1.86,0.3,5282,249,meters,jsons/v1_VE250_randls_70_rotated.json,842550,989145,1962,Man
60,476295,DepthScenes,duration_manipulation_targetAtFixation,jsons/v1_VE250_randls_70_rotated.json,http://54.235.29.9/FacialAge/BNav_EC2/DepthDuration/v2_depth_duration_MTurk/v2_DepthDuration_HTML.html#66,66,1366,657,1366,768,9-3-2022,9-38-1,61,depth_duration_stimuli/002272_2014-06-28_18-53-56_260595134347_rgbf000067-resize_2/002272_2014-06-28_18-53-56_260595134347_rgbf000067-resize_2-target.png,250,1.138,0.3,3783,244,meters,jsons/v1_VE250_randls_70_rotated.json,842550,989145,1962,Man
61,476295,DepthScenes,duration_manipulation_targetAtFixation,jsons/v1_VE250_randls_70_rotated.json,http://54.235.29.9/FacialAge/BNav_EC2/DepthDuration/v2_depth_duration_MTurk/v2_DepthDuration_HTML.html#66,66,1366,657,1366,768,9-3-2022,9-38-1,62,depth_duration_stimuli/002657_2014-06-13_15-29-54_094959634447_rgbf000150-resize_1/002657_2014-06-13_15-29-54_094959634447_rgbf000150-resize_1-target.png,250,4.919,0.2,3874,240,meters,jsons/v1_VE250_randls_70_rotated.json,842550,989145,1962,Man
62,476295,DepthScenes,duration_manipulation_targetAtFixation,jsons/v1_VE250_randls_70_rotated.json,http://54.235.29.9/FacialAge/BNav_EC2/DepthDuration/v2_depth_duration_MTurk/v2_DepthDuration_HTML.html#66,66,1366,657,1366,768,9-3-2022,9-38-1,63,depth_duration_stimuli/002375_2014-06-28_20-13-44_260595134347_rgbf000032-resize_1/002375_2014-06-28_20-13-44_260595134347_rgbf000032-resize_1-target.png,250,4.0175,0.2,7259,246,meters,jsons/v1_VE250_randls_70_rotated.json,842550,989145,1962,Man
63,476295,DepthScenes,duration_manipulation_targetAtFixation,jsons/v1_VE250_randls_70_rotated.json,http://54.235.29.9/FacialAge/BNav_EC2/DepthDuration/v2_depth_duration_MTurk/v2_DepthDuration_HTML.html#66,66,1366,657,1366,768,9-3-2022,9-38-1,64,depth_duration_stimuli/003338_2014-05-20_11-01-23_094959634447_rgbf000051-resize_6/003338_2014-05-20_11-01-23_094959634447_rgbf000051-resize_6-target.png,250,1.693,0.3,6926,251,meters,jsons/v1_VE250_randls_70_rotated.json,842550,989145,1962,Man
64,476295,DepthScenes,duration_manipulation_targetAtFixation,jsons/v1_VE250_randls_70_rotated.json,http://54.235.29.9/FacialAge/BNav_EC2/DepthDuration/v2_depth_duration_MTurk/v2_DepthDuration_HTML.html#66,66,1366,657,1366,768,9-3-2022,9-38-1,65,depth_duration_stimuli/002509_2014-06-24_13-19-22_094959634447_rgbf000077-resize_0/002509_2014-06-24_13-19-22_094959634447_rgbf000077-resize_0-target.png,250,1.3065,0.3,4266,256,meters,jsons/v1_VE250_randls_70_rotated.json,842550,989145,1962,Man
65,476295,DepthScenes,duration_manipulation_targetAtFixation,jsons/v1_VE250_randls_70_rotated.json,http://54.235.29.9/FacialAge/BNav_EC2/DepthDuration/v2_depth_duration_MTurk/v2_DepthDuration_HTML.html#66,66,1366,657,1366,768,9-3-2022,9-38-1,66,depth_duration_stimuli/001540_2014-06-20_17-01-05_260595134347_rgbf000086-resize_2/001540_2014-06-20_17-01-05_260595134347_rgbf000086-resize-original.jpg,250,1.459,0.0,2829,249,meters,jsons/v1_VE250_randls_70_rotated.json,842550,989145,1962,Man
66,476295,DepthScenes,duration_manipulation_targetAtFixation,jsons/v1_VE250_randls_70_rotated.json,http://54.235.29.9/FacialAge/BNav_EC2/DepthDuration/v2_depth_duration_MTurk/v2_DepthDuration_HTML.html#66,66,1366,657,1366,768,9-3-2022,9-38-1,67,depth_duration_stimuli/000483_2014-06-09_20-41-45_260595134347_rgbf000116-resize_4/000483_2014-06-09_20-41-45_260595134347_rgbf000116-resize_4-target.png,250,1.337,0.2,4203,248,meters,jsons/v1_VE250_randls_70_rotated.json,842550,989145,1962,Man
67,476295,DepthScenes,duration_manipulation_targetAtFixation,jsons/v1_VE250_randls_70_rotated.json,http://54.235.29.9/FacialAge/BNav_EC2/DepthDuration/v2_depth_duration_MTurk/v2_DepthDuration_HTML.html#66,66,1366,657,1366,768,9-3-2022,9-38-1,68,depth_duration_stimuli/000469_2014-06-09_19-42-10_260595134347_rgbf000081-resize_1/000469_2014-06-09_19-42-10_260595134347_rgbf000081-resize_1-target.png,250,1.652,0.2,4143,238,meters,jsons/v1_VE250_randls_70_rotated.json,842550,989145,1962,Man
68,476295,DepthScenes,duration_manipulation_targetAtFixation,jsons/v1_VE250_randls_70_rotated.json,http://54.235.29.9/FacialAge/BNav_EC2/DepthDuration/v2_depth_duration_MTurk/v2_DepthDuration_HTML.html#66,66,1366,657,1366,768,9-3-2022,9-38-1,69,depth_duration_stimuli/001450_2014-06-19_17-02-03_260595134347_rgbf000203-resize_4/001450_2014-06-19_17-02-03_260595134347_rgbf000203-resize_4-target.png,250,4.0106666666667,0.3,3820,242,meters,jsons/v1_VE250_randls_70_rotated.json,842550,989145,1962,Man
69,476295,DepthScenes,duration_manipulation_targetAtFixation,jsons/v1_VE250_randls_70_rotated.json,http://54.235.29.9/FacialAge/BNav_EC2/DepthDuration/v2_depth_duration_MTurk/v2_DepthDuration_HTML.html#66,66,1366,657,1366,768,9-3-2022,9-38-1,70,depth_duration_stimuli/001449_2014-06-19_17-01-27_260595134347_rgbf000116-resize_2/001449_2014-06-19_17-01-27_260595134347_rgbf000116-resize_2-target.png,250,3.452,0.3,4895,258,meters,jsons/v1_VE250_randls_70_rotated.json,842550,989145,1962,Man
70,476295,DepthScenes,duration_manipulation_targetAtFixation,jsons/v1_VE250_randls_70_rotated.json,http://54.235.29.9/FacialAge/BNav_EC2/DepthDuration/v2_depth_duration_MTurk/v2_DepthDuration_HTML.html#66,66,1366,657,1366,768,9-3-2022,9-38-1,71,depth_duration_stimuli/001447_2014-06-19_17-00-32_260595134347_rgbf000082-resize_5/001447_2014-06-19_17-00-32_260595134347_rgbf000082-resize_5-target.png,250,4.13775,0.0,4590,252,meters,jsons/v1_VE250_randls_70_rotated.json,842550,989145,1962,Man
71,476295,DepthScenes,duration_manipulation_targetAtFixation,jsons/v1_VE250_randls_70_rotated.json,http://54.235.29.9/FacialAge/BNav_EC2/DepthDuration/v2_depth_duration_MTurk/v2_DepthDuration_HTML.html#66,66,1366,657,1366,768,9-3-2022,9-38-1,72,depth_duration_stimuli/000447_2014-06-08_16-15-46_260595134347_rgbf000130-resize_1/000447_2014-06-08_16-15-46_260595134347_rgbf000130-resize_1-target.png,250,4.479,0.0,3592,240,meters,jsons/v1_VE250_randls_70_rotated.json,842550,989145,1962,Man
72,476295,DepthScenes,duration_manipulation_targetAtFixation,jsons/v1_VE250_randls_70_rotated.json,http://54.235.29.9/FacialAge/BNav_EC2/DepthDuration/v2_depth_duration_MTurk/v2_DepthDuration_HTML.html#66,66,1366,657,1366,768,9-3-2022,9-38-1,73,depth_duration_stimuli/003081_2014-06-15_15-19-16_094959634447_rgbf000150-resize_1/003081_2014-06-15_15-19-16_094959634447_rgbf000150-resize_1-target.png,250,3.9125,0.2,3977,254,meters,jsons/v1_VE250_randls_70_rotated.json,842550,989145,1962,Man
73,476295,DepthScenes,duration_manipulation_targetAtFixation,jsons/v1_VE250_randls_70_rotated.json,http://54.235.29.9/FacialAge/BNav_EC2/DepthDuration/v2_depth_duration_MTurk/v2_DepthDuration_HTML.html#66,66,1366,657,1366,768,9-3-2022,9-38-1,74,depth_duration_stimuli/001417_2014-06-19_16-25-36_260595134347_rgbf000115-resize_5/001417_2014-06-19_16-25-36_260595134347_rgbf000115-resize_5-target.png,250,4.6255,0.2,6674,252,meters,jsons/v1_VE250_randls_70_rotated.json,842550,989145,1962,Man
74,476295,DepthScenes,duration_manipulation_targetAtFixation,jsons/v1_VE250_randls_70_rotated.json,http://54.235.29.9/FacialAge/BNav_EC2/DepthDuration/v2_depth_duration_MTurk/v2_DepthDuration_HTML.html#66,66,1366,657,1366,768,9-3-2022,9-38-1,75,depth_duration_stimuli/002568_2014-06-24_13-59-21_094959634447_rgbf000062-resize_4/002568_2014-06-24_13-59-21_094959634447_rgbf000062-resize_4-target.png,250,3.015,0.3,4750,543,meters,jsons/v1_VE250_randls_70_rotated.json,842550,989145,1962,Man
75,476295,DepthScenes,duration_manipulation_targetAtFixation,jsons/v1_VE250_randls_70_rotated.json,http://54.235.29.9/FacialAge/BNav_EC2/DepthDuration/v2_depth_duration_MTurk/v2_DepthDuration_HTML.html#66,66,1366,657,1366,768,9-3-2022,9-38-1,76,depth_duration_stimuli/003492_2014-05-21_15-50-55_094959634447_rgbf000828-resize_1/003492_2014-05-21_15-50-55_094959634447_rgbf000828-resize_1-target.png,250,4.06875,0.3,5190,263,meters,jsons/v1_VE250_randls_70_rotated.json,842550,989145,1962,Man
76,476295,DepthScenes,duration_manipulation_targetAtFixation,jsons/v1_VE250_randls_70_rotated.json,http://54.235.29.9/FacialAge/BNav_EC2/DepthDuration/v2_depth_duration_MTurk/v2_DepthDuration_HTML.html#66,66,1366,657,1366,768,9-3-2022,9-38-1,77,depth_duration_stimuli/001136_2014-06-17_15-19-41_260595134347_rgbf000076-resize_3/001136_2014-06-17_15-19-41_260595134347_rgbf000076-resize_3-target.png,250,1.8655,0.3,4132,241,meters,jsons/v1_VE250_randls_70_rotated.json,842550,989145,1962,Man
77,476295,DepthScenes,duration_manipulation_targetAtFixation,jsons/v1_VE250_randls_70_rotated.json,http://54.235.29.9/FacialAge/BNav_EC2/DepthDuration/v2_depth_duration_MTurk/v2_DepthDuration_HTML.html#66,66,1366,657,1366,768,9-3-2022,9-38-1,78,depth_duration_stimuli/001164_2014-06-17_15-35-46_260595134347_rgbf000085-resize_3/001164_2014-06-17_15-35-46_260595134347_rgbf000085-resize_3-target.png,250,2.354,0.2,4365,242,meters,jsons/v1_VE250_randls_70_rotated.json,842550,989145,1962,Man
78,476295,DepthScenes,duration_manipulation_targetAtFixation,jsons/v1_VE250_randls_70_rotated.json,http://54.235.29.9/FacialAge/BNav_EC2/DepthDuration/v2_depth_duration_MTurk/v2_DepthDuration_HTML.html#66,66,1366,657,1366,768,9-3-2022,9-38-1,79,depth_duration_stimuli/003228_2014-05-14_13-42-35_094959634447_rgbf000101-resize_1/003228_2014-05-14_13-42-35_094959634447_rgbf000101-resize_1-target.png,250,1.9680000000000002,0.3,3471,241,meters,jsons/v1_VE250_randls_70_rotated.json,842550,989145,1962,Man
79,476295,DepthScenes,duration_manipulation_targetAtFixation,jsons/v1_VE250_randls_70_rotated.json,http://54.235.29.9/FacialAge/BNav_EC2/DepthDuration/v2_depth_duration_MTurk/v2_DepthDuration_HTML.html#66,66,1366,657,1366,768,9-3-2022,9-38-1,80,depth_duration_stimuli/002600_2014-06-24_14-27-04_094959634447_rgbf000074-resize_2/002600_2014-06-24_14-27-04_094959634447_rgbf000074-resize_2-target.png,250,2.7575,0.3,3365,252,meters,jsons/v1_VE250_randls_70_rotated.json,842550,989145,1962,Man
80,476295,DepthScenes,duration_manipulation_targetAtFixation,jsons/v1_VE250_randls_70_rotated.json,http://54.235.29.9/FacialAge/BNav_EC2/DepthDuration/v2_depth_duration_MTurk/v2_DepthDuration_HTML.html#66,66,1366,657,1366,768,9-3-2022,9-38-1,81,depth_duration_stimuli/001132_2014-06-17_14-48-54_260595134347_rgbf000100-resize_2/001132_2014-06-17_14-48-54_260595134347_rgbf000100-resize_2-target.png,250,3.753,0.3,4535,250,meters,jsons/v1_VE250_randls_70_rotated.json,842550,989145,1962,Man
81,476295,DepthScenes,duration_manipulation_targetAtFixation,jsons/v1_VE250_randls_70_rotated.json,http://54.235.29.9/FacialAge/BNav_EC2/DepthDuration/v2_depth_duration_MTurk/v2_DepthDuration_HTML.html#66,66,1366,657,1366,768,9-3-2022,9-38-1,82,depth_duration_stimuli/001133_2014-06-17_14-49-16_260595134347_rgbf000100-resize_0/001133_2014-06-17_14-49-16_260595134347_rgbf000100-resize_0-target.png,250,4.2115,0.2,3476,243,meters,jsons/v1_VE250_randls_70_rotated.json,842550,989145,1962,Man
82,476295,DepthScenes,duration_manipulation_targetAtFixation,jsons/v1_VE250_randls_70_rotated.json,http://54.235.29.9/FacialAge/BNav_EC2/DepthDuration/v2_depth_duration_MTurk/v2_DepthDuration_HTML.html#66,66,1366,657,1366,768,9-3-2022,9-38-1,83,depth_duration_stimuli/000191_2014-05-12_17-07-38_260595134347_rgbf000199-resize_0/000191_2014-05-12_17-07-38_260595134347_rgbf000199-resize_0-target.png,250,3.7995,0.3,5126,248,meters,jsons/v1_VE250_randls_70_rotated.json,842550,989145,1962,Man
83,476295,DepthScenes,duration_manipulation_targetAtFixation,jsons/v1_VE250_randls_70_rotated.json,http://54.235.29.9/FacialAge/BNav_EC2/DepthDuration/v2_depth_duration_MTurk/v2_DepthDuration_HTML.html#66,66,1366,657,1366,768,9-3-2022,9-38-1,84,depth_duration_stimuli/000493_2014-06-09_21-01-18_260595134347_rgbf000196-resize_3/000493_2014-06-09_21-01-18_260595134347_rgbf000196-resize_3-target.png,250,3.44,0.3,3320,250,meters,jsons/v1_VE250_randls_70_rotated.json,842550,989145,1962,Man
84,476295,DepthScenes,duration_manipulation_targetAtFixation,jsons/v1_VE250_randls_70_rotated.json,http://54.235.29.9/FacialAge/BNav_EC2/DepthDuration/v2_depth_duration_MTurk/v2_DepthDuration_HTML.html#66,66,1366,657,1366,768,9-3-2022,9-38-1,85,depth_duration_stimuli/000866_2014-06-09_20-45-42_260595134347_rgbf000139-resize_1/000866_2014-06-09_20-45-42_260595134347_rgbf000139-resize_1-target.png,250,3.2155,0.3,4803,257,meters,jsons/v1_VE250_randls_70_rotated.json,842550,989145,1962,Man
85,476295,DepthScenes,duration_manipulation_targetAtFixation,jsons/v1_VE250_randls_70_rotated.json,http://54.235.29.9/FacialAge/BNav_EC2/DepthDuration/v2_depth_duration_MTurk/v2_DepthDuration_HTML.html#66,66,1366,657,1366,768,9-3-2022,9-38-1,86,depth_duration_stimuli/002989_2014-06-15_12-25-03_094959634447_rgbf000150-resize_3/002989_2014-06-15_12-25-03_094959634447_rgbf000150-resize_3-target.png,250,4.1975,0.2,4737,249,meters,jsons/v1_VE250_randls_70_rotated.json,842550,989145,1962,Man
86,476295,DepthScenes,duration_manipulation_targetAtFixation,jsons/v1_VE250_randls_70_rotated.json,http://54.235.29.9/FacialAge/BNav_EC2/DepthDuration/v2_depth_duration_MTurk/v2_DepthDuration_HTML.html#66,66,1366,657,1366,768,9-3-2022,9-38-1,87,depth_duration_stimuli/000691_2014-06-08_13-08-50_260595134347_rgbf000132-resize_3/000691_2014-06-08_13-08-50_260595134347_rgbf000132-resize_3-target.png,250,4.1530000000000005,0.2,3717,239,meters,jsons/v1_VE250_randls_70_rotated.json,842550,989145,1962,Man
87,476295,DepthScenes,duration_manipulation_targetAtFixation,jsons/v1_VE250_randls_70_rotated.json,http://54.235.29.9/FacialAge/BNav_EC2/DepthDuration/v2_depth_duration_MTurk/v2_DepthDuration_HTML.html#66,66,1366,657,1366,768,9-3-2022,9-38-1,88,depth_duration_stimuli/002213_2014-06-28_18-37-58_260595134347_rgbf000055-resize_1/002213_2014-06-28_18-37-58_260595134347_rgbf000055-resize_1-target.png,250,3.62,0.2,4156,242,meters,jsons/v1_VE250_randls_70_rotated.json,842550,989145,1962,Man
88,476295,DepthScenes,duration_manipulation_targetAtFixation,jsons/v1_VE250_randls_70_rotated.json,http://54.235.29.9/FacialAge/BNav_EC2/DepthDuration/v2_depth_duration_MTurk/v2_DepthDuration_HTML.html#66,66,1366,657,1366,768,9-3-2022,9-38-1,89,depth_duration_stimuli/000927_2014-06-09_16-32-30_260595134347_rgbf000123-resize_3/000927_2014-06-09_16-32-30_260595134347_rgbf000123-resize_3-target.png,250,2.6785,0.2,3355,247,meters,jsons/v1_VE250_randls_70_rotated.json,842550,989145,1962,Man
89,476295,DepthScenes,duration_manipulation_targetAtFixation,jsons/v1_VE250_randls_70_rotated.json,http://54.235.29.9/FacialAge/BNav_EC2/DepthDuration/v2_depth_duration_MTurk/v2_DepthDuration_HTML.html#66,66,1366,657,1366,768,9-3-2022,9-38-1,90,depth_duration_stimuli/001110_2014-06-15_17-25-28_260595134347_rgbf000150-resize_1/001110_2014-06-15_17-25-28_260595134347_rgbf000150-resize_1-target.png,250,1.7115,0.2,4983,249,meters,jsons/v1_VE250_randls_70_rotated.json,842550,989145,1962,Man
90,476295,DepthScenes,duration_manipulation_targetAtFixation,jsons/v1_VE250_randls_70_rotated.json,http://54.235.29.9/FacialAge/BNav_EC2/DepthDuration/v2_depth_duration_MTurk/v2_DepthDuration_HTML.html#66,66,1366,657,1366,768,9-3-2022,9-38-1,91,depth_duration_stimuli/000665_2014-06-09_20-42-35_260595134347_rgbf000110-resize_1/000665_2014-06-09_20-42-35_260595134347_rgbf000110-resize_1-target.png,250,3.057,0.2,4744,224,meters,jsons/v1_VE250_randls_70_rotated.json,842550,989145,1962,Man
91,476295,DepthScenes,duration_manipulation_targetAtFixation,jsons/v1_VE250_randls_70_rotated.json,http://54.235.29.9/FacialAge/BNav_EC2/DepthDuration/v2_depth_duration_MTurk/v2_DepthDuration_HTML.html#66,66,1366,657,1366,768,9-3-2022,9-38-1,92,depth_duration_stimuli/001150_2014-06-17_15-27-34_260595134347_rgbf000108-resize_2/001150_2014-06-17_15-27-34_260595134347_rgbf000108-resize_2-target.png,250,4.0325,0.2,4505,235,meters,jsons/v1_VE250_randls_70_rotated.json,842550,989145,1962,Man
92,476295,DepthScenes,duration_manipulation_targetAtFixation,jsons/v1_VE250_randls_70_rotated.json,http://54.235.29.9/FacialAge/BNav_EC2/DepthDuration/v2_depth_duration_MTurk/v2_DepthDuration_HTML.html#66,66,1366,657,1366,768,9-3-2022,9-38-1,93,depth_duration_stimuli/000742_2014-06-08_18-48-09_260595134347_rgbf000164-resize_4/000742_2014-06-08_18-48-09_260595134347_rgbf000164-resize_4-target.png,250,4.632,0.3,4149,250,meters,jsons/v1_VE250_randls_70_rotated.json,842550,989145,1962,Man
93,476295,DepthScenes,duration_manipulation_targetAtFixation,jsons/v1_VE250_randls_70_rotated.json,http://54.235.29.9/FacialAge/BNav_EC2/DepthDuration/v2_depth_duration_MTurk/v2_DepthDuration_HTML.html#66,66,1366,657,1366,768,9-3-2022,9-38-1,94,depth_duration_stimuli/001066_2014-06-08_22-03-20_260595134347_rgbf000066-resize_4/001066_2014-06-08_22-03-20_260595134347_rgbf000066-resize_4-target.png,250,4.2330000000000005,0.2,3571,236,meters,jsons/v1_VE250_randls_70_rotated.json,842550,989145,1962,Man
94,476295,DepthScenes,duration_manipulation_targetAtFixation,jsons/v1_VE250_randls_70_rotated.json,http://54.235.29.9/FacialAge/BNav_EC2/DepthDuration/v2_depth_duration_MTurk/v2_DepthDuration_HTML.html#66,66,1366,657,1366,768,9-3-2022,9-38-1,95,depth_duration_stimuli/002545_2014-06-24_13-38-53_094959634447_rgbf000080-resize_4/002545_2014-06-24_13-38-53_094959634447_rgbf000080-resize_4-target.png,250,1.9205,0.2,3777,245,meters,jsons/v1_VE250_randls_70_rotated.json,842550,989145,1962,Man
95,476295,DepthScenes,duration_manipulation_targetAtFixation,jsons/v1_VE250_randls_70_rotated.json,http://54.235.29.9/FacialAge/BNav_EC2/DepthDuration/v2_depth_duration_MTurk/v2_DepthDuration_HTML.html#66,66,1366,657,1366,768,9-3-2022,9-38-1,96,depth_duration_stimuli/001092_2014-06-15_17-34-58_260595134347_rgbf000171-resize_3/001092_2014-06-15_17-34-58_260595134347_rgbf000171-resize_3-target.png,250,2.6935,0.2,3637,244,meters,jsons/v1_VE250_randls_70_rotated.json,842550,989145,1962,Man
96,476295,DepthScenes,duration_manipulation_targetAtFixation,jsons/v1_VE250_randls_70_rotated.json,http://54.235.29.9/FacialAge/BNav_EC2/DepthDuration/v2_depth_duration_MTurk/v2_DepthDuration_HTML.html#66,66,1366,657,1366,768,9-3-2022,9-38-1,97,depth_duration_stimuli/001235_2014-06-17_16-37-36_260595134347_rgbf000084-resize_4/001235_2014-06-17_16-37-36_260595134347_rgbf000084-resize_4-target.png,250,3.6605,0.3,3316,251,meters,jsons/v1_VE250_randls_70_rotated.json,842550,989145,1962,Man
97,476295,DepthScenes,duration_manipulation_targetAtFixation,jsons/v1_VE250_randls_70_rotated.json,http://54.235.29.9/FacialAge/BNav_EC2/DepthDuration/v2_depth_duration_MTurk/v2_DepthDuration_HTML.html#66,66,1366,657,1366,768,9-3-2022,9-38-1,98,depth_duration_stimuli/000788_2014-06-08_22-34-36_260595134347_rgbf000131-resize_1/000788_2014-06-08_22-34-36_260595134347_rgbf000131-resize_1-target.png,250,3.359,0.3,3181,171,meters,jsons/v1_VE250_randls_70_rotated.json,842550,989145,1962,Man
98,476295,DepthScenes,duration_manipulation_targetAtFixation,jsons/v1_VE250_randls_70_rotated.json,http://54.235.29.9/FacialAge/BNav_EC2/DepthDuration/v2_depth_duration_MTurk/v2_DepthDuration_HTML.html#66,66,1366,657,1366,768,9-3-2022,9-38-1,99,depth_duration_stimuli/001222_2014-06-17_16-24-06_260595134347_rgbf000073-resize_0/001222_2014-06-17_16-24-06_260595134347_rgbf000073-resize-original.jpg,250,1.4385,0.0,3451,243,meters,jsons/v1_VE250_randls_70_rotated.json,842550,989145,1962,Man
99,476295,DepthScenes,duration_manipulation_targetAtFixation,jsons/v1_VE250_randls_70_rotated.json,http://54.235.29.9/FacialAge/BNav_EC2/DepthDuration/v2_depth_duration_MTurk/v2_DepthDuration_HTML.html#66,66,1366,657,1366,768,9-3-2022,9-38-1,100,depth_duration_stimuli/000409_2014-06-04_19-23-33_260595134347_rgbf000067-resize_0/000409_2014-06-04_19-23-33_260595134347_rgbf000067-resize_0-target.png,250,3.7335,0.2,5673,242,meters,jsons/v1_VE250_randls_70_rotated.json,842550,989145,1962,Man
100,476295,DepthScenes,duration_manipulation_targetAtFixation,jsons/v1_VE250_randls_70_rotated.json,http://54.235.29.9/FacialAge/BNav_EC2/DepthDuration/v2_depth_duration_MTurk/v2_DepthDuration_HTML.html#66,66,1366,657,1366,768,9-3-2022,9-38-1,101,depth_duration_stimuli/002663_2014-06-13_15-50-26_094959634447_rgbf000075-resize_1/002663_2014-06-13_15-50-26_094959634447_rgbf000075-resize_1-target.png,250,4.7495,0.2,4143,258,meters,jsons/v1_VE250_randls_70_rotated.json,842550,989145,1962,Man
101,476295,DepthScenes,duration_manipulation_targetAtFixation,jsons/v1_VE250_randls_70_rotated.json,http://54.235.29.9/FacialAge/BNav_EC2/DepthDuration/v2_depth_duration_MTurk/v2_DepthDuration_HTML.html#66,66,1366,657,1366,768,9-3-2022,9-38-1,102,depth_duration_stimuli/000677_2014-06-08_23-10-32_260595134347_rgbf000158-resize_6/000677_2014-06-08_23-10-32_260595134347_rgbf000158-resize_6-target.png,250,3.556,0.3,4376,241,meters,jsons/v1_VE250_randls_70_rotated.json,842550,989145,1962,Man
102,476295,DepthScenes,duration_manipulation_targetAtFixation,jsons/v1_VE250_randls_70_rotated.json,http://54.235.29.9/FacialAge/BNav_EC2/DepthDuration/v2_depth_duration_MTurk/v2_DepthDuration_HTML.html#66,66,1366,657,1366,768,9-3-2022,9-38-1,103,depth_duration_stimuli/001029_2014-06-08_13-17-57_260595134347_rgbf000065-resize_1/001029_2014-06-08_13-17-57_260595134347_rgbf000065-resize_1-target.png,250,3.0835,0.3,4255,253,meters,jsons/v1_VE250_randls_70_rotated.json,842550,989145,1962,Man
103,476295,DepthScenes,duration_manipulation_targetAtFixation,jsons/v1_VE250_randls_70_rotated.json,http://54.235.29.9/FacialAge/BNav_EC2/DepthDuration/v2_depth_duration_MTurk/v2_DepthDuration_HTML.html#66,66,1366,657,1366,768,9-3-2022,9-38-1,104,depth_duration_stimuli/000635_2014-06-08_16-38-42_260595134347_rgbf000106-resize_1/000635_2014-06-08_16-38-42_260595134347_rgbf000106-resize_1-target.png,250,2.074,0.2,3544,250,meters,jsons/v1_VE250_randls_70_rotated.json,842550,989145,1962,Man
104,476295,DepthScenes,duration_manipulation_targetAtFixation,jsons/v1_VE250_randls_70_rotated.json,http://54.235.29.9/FacialAge/BNav_EC2/DepthDuration/v2_depth_duration_MTurk/v2_DepthDuration_HTML.html#66,66,1366,657,1366,768,9-3-2022,9-38-1,105,depth_duration_stimuli/002279_2014-06-28_18-55-32_260595134347_rgbf000040-resize_5/002279_2014-06-28_18-55-32_260595134347_rgbf000040-resize_5-target.png,250,1.5043333333333,0.3,3500,252,meters,jsons/v1_VE250_randls_70_rotated.json,842550,989145,1962,Man
105,476295,DepthScenes,duration_manipulation_targetAtFixation,jsons/v1_VE250_randls_70_rotated.json,http://54.235.29.9/FacialAge/BNav_EC2/DepthDuration/v2_depth_duration_MTurk/v2_DepthDuration_HTML.html#66,66,1366,657,1366,768,9-3-2022,9-38-1,106,depth_duration_stimuli/001617_2014-06-20_11-35-32_260595134347_rgbf000066-resize_1/001617_2014-06-20_11-35-32_260595134347_rgbf000066-resize_1-target.png,250,3.7910000000000004,0.2,3250,246,meters,jsons/v1_VE250_randls_70_rotated.json,842550,989145,1962,Man
106,476295,DepthScenes,duration_manipulation_targetAtFixation,jsons/v1_VE250_randls_70_rotated.json,http://54.235.29.9/FacialAge/BNav_EC2/DepthDuration/v2_depth_duration_MTurk/v2_DepthDuration_HTML.html#66,66,1366,657,1366,768,9-3-2022,9-38-1,107,depth_duration_stimuli/001806_2014-06-26_20-50-20_260595134347_rgbf000091-resize_1/001806_2014-06-26_20-50-20_260595134347_rgbf000091-resize_1-target.png,250,2.7305,0.3,3350,263,meters,jsons/v1_VE250_randls_70_rotated.json,842550,989145,1962,Man
107,476295,DepthScenes,duration_manipulation_targetAtFixation,jsons/v1_VE250_randls_70_rotated.json,http://54.235.29.9/FacialAge/BNav_EC2/DepthDuration/v2_depth_duration_MTurk/v2_DepthDuration_HTML.html#66,66,1366,657,1366,768,9-3-2022,9-38-1,108,depth_duration_stimuli/003079_2014-06-15_15-18-20_094959634447_rgbf000152-resize_8/003079_2014-06-15_15-18-20_094959634447_rgbf000152-resize_8-target.png,250,2.8775,0.2,8108,246,meters,jsons/v1_VE250_randls_70_rotated.json,842550,989145,1962,Man
108,476295,DepthScenes,duration_manipulation_targetAtFixation,jsons/v1_VE250_randls_70_rotated.json,http://54.235.29.9/FacialAge/BNav_EC2/DepthDuration/v2_depth_duration_MTurk/v2_DepthDuration_HTML.html#66,66,1366,657,1366,768,9-3-2022,9-38-1,109,depth_duration_stimuli/000506_2014-06-08_23-21-00_260595134347_rgbf000070-resize_7/000506_2014-06-08_23-21-00_260595134347_rgbf000070-resize_7-target.png,250,4.0585,0.3,3713,255,meters,jsons/v1_VE250_randls_70_rotated.json,842550,989145,1962,Man
109,476295,DepthScenes,duration_manipulation_targetAtFixation,jsons/v1_VE250_randls_70_rotated.json,http://54.235.29.9/FacialAge/BNav_EC2/DepthDuration/v2_depth_duration_MTurk/v2_DepthDuration_HTML.html#66,66,1366,657,1366,768,9-3-2022,9-38-1,110,depth_duration_stimuli/002758_2014-06-22_19-11-20_094959634447_rgbf000128-resize_1/002758_2014-06-22_19-11-20_094959634447_rgbf000128-resize_1-target.png,250,2.555,0.3,3398,252,meters,jsons/v1_VE250_randls_70_rotated.json,842550,989145,1962,Man
110,476295,DepthScenes,duration_manipulation_targetAtFixation,jsons/v1_VE250_randls_70_rotated.json,http://54.235.29.9/FacialAge/BNav_EC2/DepthDuration/v2_depth_duration_MTurk/v2_DepthDuration_HTML.html#66,66,1366,657,1366,768,9-3-2022,9-38-1,111,depth_duration_stimuli/002630_2014-06-24_14-47-50_094959634447_rgbf000055-resize_1/002630_2014-06-24_14-47-50_094959634447_rgbf000055-resize_1-target.png,250,3.0095,0.2,12111,251,meters,jsons/v1_VE250_randls_70_rotated.json,842550,989145,1962,Man
111,476295,DepthScenes,duration_manipulation_targetAtFixation,jsons/v1_VE250_randls_70_rotated.json,http://54.235.29.9/FacialAge/BNav_EC2/DepthDuration/v2_depth_duration_MTurk/v2_DepthDuration_HTML.html#66,66,1366,657,1366,768,9-3-2022,9-38-1,112,depth_duration_stimuli/002949_2014-06-26_15-57-42_094959634447_rgbf000079-resize_1/002949_2014-06-26_15-57-42_094959634447_rgbf000079-resize_1-target.png,250,1.8915,0.0,3657,222,meters,jsons/v1_VE250_randls_70_rotated.json,842550,989145,1962,Man
112,476295,DepthScenes,duration_manipulation_targetAtFixation,jsons/v1_VE250_randls_70_rotated.json,http://54.235.29.9/FacialAge/BNav_EC2/DepthDuration/v2_depth_duration_MTurk/v2_DepthDuration_HTML.html#66,66,1366,657,1366,768,9-3-2022,9-38-1,113,depth_duration_stimuli/000522_2014-06-08_13-35-06_260595134347_rgbf000244-resize_1/000522_2014-06-08_13-35-06_260595134347_rgbf000244-resize_1-target.png,250,2.3715,0.2,3749,242,meters,jsons/v1_VE250_randls_70_rotated.json,842550,989145,1962,Man
113,476295,DepthScenes,duration_manipulation_targetAtFixation,jsons/v1_VE250_randls_70_rotated.json,http://54.235.29.9/FacialAge/BNav_EC2/DepthDuration/v2_depth_duration_MTurk/v2_DepthDuration_HTML.html#66,66,1366,657,1366,768,9-3-2022,9-38-1,114,depth_duration_stimuli/002637_2014-06-24_14-51-13_094959634447_rgbf000066-resize_4/002637_2014-06-24_14-51-13_094959634447_rgbf000066-resize_4-target.png,250,1.9955,0.3,3800,235,meters,jsons/v1_VE250_randls_70_rotated.json,842550,989145,1962,Man
114,476295,DepthScenes,duration_manipulation_targetAtFixation,jsons/v1_VE250_randls_70_rotated.json,http://54.235.29.9/FacialAge/BNav_EC2/DepthDuration/v2_depth_duration_MTurk/v2_DepthDuration_HTML.html#66,66,1366,657,1366,768,9-3-2022,9-38-1,115,depth_duration_stimuli/003534_2014-05-22_15-06-10_094959634447_rgbf000102-resize_4/003534_2014-05-22_15-06-10_094959634447_rgbf000102-resize_4-target.png,250,1.426,0.3,3491,257,meters,jsons/v1_VE250_randls_70_rotated.json,842550,989145,1962,Man
115,476295,DepthScenes,duration_manipulation_targetAtFixation,jsons/v1_VE250_randls_70_rotated.json,http://54.235.29.9/FacialAge/BNav_EC2/DepthDuration/v2_depth_duration_MTurk/v2_DepthDuration_HTML.html#66,66,1366,657,1366,768,9-3-2022,9-38-1,116,depth_duration_stimuli/002323_2014-06-28_20-01-54_260595134347_rgbf000051-resize_4/002323_2014-06-28_20-01-54_260595134347_rgbf000051-resize_4-target.png,250,3.7310000000000003,0.3,3549,249,meters,jsons/v1_VE250_randls_70_rotated.json,842550,989145,1962,Man
116,476295,DepthScenes,duration_manipulation_targetAtFixation,jsons/v1_VE250_randls_70_rotated.json,http://54.235.29.9/FacialAge/BNav_EC2/DepthDuration/v2_depth_duration_MTurk/v2_DepthDuration_HTML.html#66,66,1366,657,1366,768,9-3-2022,9-38-1,117,depth_duration_stimuli/000917_2014-06-09_22-45-29_260595134347_rgbf000149-resize_3/000917_2014-06-09_22-45-29_260595134347_rgbf000149-resize_3-target.png,250,4.1865,0.3,4537,245,meters,jsons/v1_VE250_randls_70_rotated.json,842550,989145,1962,Man
117,476295,DepthScenes,duration_manipulation_targetAtFixation,jsons/v1_VE250_randls_70_rotated.json,http://54.235.29.9/FacialAge/BNav_EC2/DepthDuration/v2_depth_duration_MTurk/v2_DepthDuration_HTML.html#66,66,1366,657,1366,768,9-3-2022,9-38-1,118,depth_duration_stimuli/003490_2014-05-21_15-50-11_094959634447_rgbf000101-resize_3/003490_2014-05-21_15-50-11_094959634447_rgbf000101-resize_3-target.png,250,3.6445,0.3,4098,246,meters,jsons/v1_VE250_randls_70_rotated.json,842550,989145,1962,Man
118,476295,DepthScenes,duration_manipulation_targetAtFixation,jsons/v1_VE250_randls_70_rotated.json,http://54.235.29.9/FacialAge/BNav_EC2/DepthDuration/v2_depth_duration_MTurk/v2_DepthDuration_HTML.html#66,66,1366,657,1366,768,9-3-2022,9-38-1,119,depth_duration_stimuli/001175_2014-06-17_15-45-55_260595134347_rgbf000129-resize_4/001175_2014-06-17_15-45-55_260595134347_rgbf000129-resize_4-target.png,250,4.255,0.4,3418,251,meters,jsons/v1_VE250_randls_70_rotated.json,842550,989145,1962,Man
119,476295,DepthScenes,duration_manipulation_targetAtFixation,jsons/v1_VE250_randls_70_rotated.json,http://54.235.29.9/FacialAge/BNav_EC2/DepthDuration/v2_depth_duration_MTurk/v2_DepthDuration_HTML.html#66,66,1366,657,1366,768,9-3-2022,9-38-1,120,depth_duration_stimuli/000787_2014-06-08_22-33-53_260595134347_rgbf000175-resize_1/000787_2014-06-08_22-33-53_260595134347_rgbf000175-resize-original.jpg,250,4.784,0.3,3899,249,meters,jsons/v1_VE250_randls_70_rotated.json,842550,989145,1962,Man
120,476295,DepthScenes,duration_manipulation_targetAtFixation,jsons/v1_VE250_randls_70_rotated.json,http://54.235.29.9/FacialAge/BNav_EC2/DepthDuration/v2_depth_duration_MTurk/v2_DepthDuration_HTML.html#66,66,1366,657,1366,768,9-3-2022,9-38-1,121,depth_duration_stimuli/002750_2014-06-22_19-08-03_094959634447_rgbf000094-resize_4/002750_2014-06-22_19-08-03_094959634447_rgbf000094-resize_4-target.png,250,2.354,0.3,5026,247,meters,jsons/v1_VE250_randls_70_rotated.json,842550,989145,1962,Man
121,476295,DepthScenes,duration_manipulation_targetAtFixation,jsons/v1_VE250_randls_70_rotated.json,http://54.235.29.9/FacialAge/BNav_EC2/DepthDuration/v2_depth_duration_MTurk/v2_DepthDuration_HTML.html#66,66,1366,657,1366,768,9-3-2022,9-38-1,122,depth_duration_stimuli/002549_2014-06-24_13-41-39_094959634447_rgbf000022-resize_3/002549_2014-06-24_13-41-39_094959634447_rgbf000022-resize_3-target.png,250,1.476,0.2,6980,241,meters,jsons/v1_VE250_randls_70_rotated.json,842550,989145,1962,Man
122,476295,DepthScenes,duration_manipulation_targetAtFixation,jsons/v1_VE250_randls_70_rotated.json,http://54.235.29.9/FacialAge/BNav_EC2/DepthDuration/v2_depth_duration_MTurk/v2_DepthDuration_HTML.html#66,66,1366,657,1366,768,9-3-2022,9-38-1,123,depth_duration_stimuli/001392_2014-06-19_16-07-59_260595134347_rgbf000046-resize_1/001392_2014-06-19_16-07-59_260595134347_rgbf000046-resize_1-target.png,250,4.135,0.3,4678,235,meters,jsons/v1_VE250_randls_70_rotated.json,842550,989145,1962,Man
123,476295,DepthScenes,duration_manipulation_targetAtFixation,jsons/v1_VE250_randls_70_rotated.json,http://54.235.29.9/FacialAge/BNav_EC2/DepthDuration/v2_depth_duration_MTurk/v2_DepthDuration_HTML.html#66,66,1366,657,1366,768,9-3-2022,9-38-1,124,depth_duration_stimuli/001570_2014-06-20_17-21-09_260595134347_rgbf000135-resize_4/001570_2014-06-20_17-21-09_260595134347_rgbf000135-resize_4-target.png,250,4.467,0.3,3791,247,meters,jsons/v1_VE250_randls_70_rotated.json,842550,989145,1962,Man
124,476295,DepthScenes,duration_manipulation_targetAtFixation,jsons/v1_VE250_randls_70_rotated.json,http://54.235.29.9/FacialAge/BNav_EC2/DepthDuration/v2_depth_duration_MTurk/v2_DepthDuration_HTML.html#66,66,1366,657,1366,768,9-3-2022,9-38-1,125,depth_duration_stimuli/002414_2014-06-28_20-24-58_260595134347_rgbf000067-resize_4/002414_2014-06-28_20-24-58_260595134347_rgbf000067-resize_4-target.png,250,4.363,0.3,3485,253,meters,jsons/v1_VE250_randls_70_rotated.json,842550,989145,1962,Man
125,476295,DepthScenes,duration_manipulation_targetAtFixation,jsons/v1_VE250_randls_70_rotated.json,http://54.235.29.9/FacialAge/BNav_EC2/DepthDuration/v2_depth_duration_MTurk/v2_DepthDuration_HTML.html#66,66,1366,657,1366,768,9-3-2022,9-38-1,126,depth_duration_stimuli/000773_2014-06-08_22-24-54_260595134347_rgbf000093-resize_1/000773_2014-06-08_22-24-54_260595134347_rgbf000093-resize_1-target.png,250,4.973,0.3,3634,250,meters,jsons/v1_VE250_randls_70_rotated.json,842550,989145,1962,Man
126,476295,DepthScenes,duration_manipulation_targetAtFixation,jsons/v1_VE250_randls_70_rotated.json,http://54.235.29.9/FacialAge/BNav_EC2/DepthDuration/v2_depth_duration_MTurk/v2_DepthDuration_HTML.html#66,66,1366,657,1366,768,9-3-2022,9-38-1,127,depth_duration_stimuli/001052_2014-06-08_18-24-54_260595134347_rgbf000130-resize_1/001052_2014-06-08_18-24-54_260595134347_rgbf000130-resize_1-target.png,250,4.1045,0.3,5951,237,meters,jsons/v1_VE250_randls_70_rotated.json,842550,989145,1962,Man
127,476295,DepthScenes,duration_manipulation_targetAtFixation,jsons/v1_VE250_randls_70_rotated.json,http://54.235.29.9/FacialAge/BNav_EC2/DepthDuration/v2_depth_duration_MTurk/v2_DepthDuration_HTML.html#66,66,1366,657,1366,768,9-3-2022,9-38-1,128,depth_duration_stimuli/002988_2014-06-15_12-24-20_094959634447_rgbf000150-resize_1/002988_2014-06-15_12-24-20_094959634447_rgbf000150-resize_1-target.png,250,4.7669999999999995,0.3,3734,244,meters,jsons/v1_VE250_randls_70_rotated.json,842550,989145,1962,Man
128,476295,DepthScenes,duration_manipulation_targetAtFixation,jsons/v1_VE250_randls_70_rotated.json,http://54.235.29.9/FacialAge/BNav_EC2/DepthDuration/v2_depth_duration_MTurk/v2_DepthDuration_HTML.html#66,66,1366,657,1366,768,9-3-2022,9-38-1,129,depth_duration_stimuli/000556_2014-06-09_22-42-56_260595134347_rgbf000214-resize_1/000556_2014-06-09_22-42-56_260595134347_rgbf000214-resize_1-target.png,250,4.8415,0.2,6007,270,meters,jsons/v1_VE250_randls_70_rotated.json,842550,989145,1962,Man
129,476295,DepthScenes,duration_manipulation_targetAtFixation,jsons/v1_VE250_randls_70_rotated.json,http://54.235.29.9/FacialAge/BNav_EC2/DepthDuration/v2_depth_duration_MTurk/v2_DepthDuration_HTML.html#66,66,1366,657,1366,768,9-3-2022,9-38-1,130,depth_duration_stimuli/001158_2014-06-17_15-32-16_260595134347_rgbf000138-resize_2/001158_2014-06-17_15-32-16_260595134347_rgbf000138-resize_2-target.png,250,4.5315,0.3,3484,249,meters,jsons/v1_VE250_randls_70_rotated.json,842550,989145,1962,Man
130,476295,DepthScenes,duration_manipulation_targetAtFixation,jsons/v1_VE250_randls_70_rotated.json,http://54.235.29.9/FacialAge/BNav_EC2/DepthDuration/v2_depth_duration_MTurk/v2_DepthDuration_HTML.html#66,66,1366,657,1366,768,9-3-2022,9-38-1,131,depth_duration_stimuli/000502_2014-06-08_23-02-32_260595134347_rgbf000063-resize_4/000502_2014-06-08_23-02-32_260595134347_rgbf000063-resize_4-target.png,250,2.431,0.0,2918,255,meters,jsons/v1_VE250_randls_70_rotated.json,842550,989145,1962,Man
131,476295,DepthScenes,duration_manipulation_targetAtFixation,jsons/v1_VE250_randls_70_rotated.json,http://54.235.29.9/FacialAge/BNav_EC2/DepthDuration/v2_depth_duration_MTurk/v2_DepthDuration_HTML.html#66,66,1366,657,1366,768,9-3-2022,9-38-1,132,depth_duration_stimuli/001199_2014-06-17_16-03-48_260595134347_rgbf000077-resize_0/001199_2014-06-17_16-03-48_260595134347_rgbf000077-resize_0-target.png,250,3.4375,0.2,3236,231,meters,jsons/v1_VE250_randls_70_rotated.json,842550,989145,1962,Man
132,476295,DepthScenes,duration_manipulation_targetAtFixation,jsons/v1_VE250_randls_70_rotated.json,http://54.235.29.9/FacialAge/BNav_EC2/DepthDuration/v2_depth_duration_MTurk/v2_DepthDuration_HTML.html#66,66,1366,657,1366,768,9-3-2022,9-38-1,133,depth_duration_stimuli/000749_2014-06-08_21-55-06_260595134347_rgbf000070-resize_2/000749_2014-06-08_21-55-06_260595134347_rgbf000070-resize_2-target.png,250,2.331,0.3,4023,234,meters,jsons/v1_VE250_randls_70_rotated.json,842550,989145,1962,Man
133,476295,DepthScenes,duration_manipulation_targetAtFixation,jsons/v1_VE250_randls_70_rotated.json,http://54.235.29.9/FacialAge/BNav_EC2/DepthDuration/v2_depth_duration_MTurk/v2_DepthDuration_HTML.html#66,66,1366,657,1366,768,9-3-2022,9-38-1,134,depth_duration_stimuli/002788_2014-06-22_19-36-03_094959634447_rgbf000088-resize_2/002788_2014-06-22_19-36-03_094959634447_rgbf000088-resize_2-target.png,250,1.6465,0.4,3961,252,meters,jsons/v1_VE250_randls_70_rotated.json,842550,989145,1962,Man
134,476295,DepthScenes,duration_manipulation_targetAtFixation,jsons/v1_VE250_randls_70_rotated.json,http://54.235.29.9/FacialAge/BNav_EC2/DepthDuration/v2_depth_duration_MTurk/v2_DepthDuration_HTML.html#66,66,1366,657,1366,768,9-3-2022,9-38-1,135,depth_duration_stimuli/000375_2014-06-08_11-17-29_260595134347_rgbf000133-resize_2/000375_2014-06-08_11-17-29_260595134347_rgbf000133-resize-original.jpg,250,4.718,0.0,3878,250,meters,jsons/v1_VE250_randls_70_rotated.json,842550,989145,1962,Man
135,476295,DepthScenes,duration_manipulation_targetAtFixation,jsons/v1_VE250_randls_70_rotated.json,http://54.235.29.9/FacialAge/BNav_EC2/DepthDuration/v2_depth_duration_MTurk/v2_DepthDuration_HTML.html#66,66,1366,657,1366,768,9-3-2022,9-38-1,136,depth_duration_stimuli/002678_2014-06-13_16-15-32_094959634447_rgbf000151-resize_6/002678_2014-06-13_16-15-32_094959634447_rgbf000151-resize_6-target.png,250,2.1830000000000003,0.0,3146,244,meters,jsons/v1_VE250_randls_70_rotated.json,842550,989145,1962,Man
136,476295,DepthScenes,duration_manipulation_targetAtFixation,jsons/v1_VE250_randls_70_rotated.json,http://54.235.29.9/FacialAge/BNav_EC2/DepthDuration/v2_depth_duration_MTurk/v2_DepthDuration_HTML.html#66,66,1366,657,1366,768,9-3-2022,9-38-1,137,depth_duration_stimuli/000368_2014-06-09_15-53-01_260595134347_rgbf000155-resize_2/000368_2014-06-09_15-53-01_260595134347_rgbf000155-resize_2-target.png,250,2.4859999999999998,0.2,3814,237,meters,jsons/v1_VE250_randls_70_rotated.json,842550,989145,1962,Man
137,476295,DepthScenes,duration_manipulation_targetAtFixation,jsons/v1_VE250_randls_70_rotated.json,http://54.235.29.9/FacialAge/BNav_EC2/DepthDuration/v2_depth_duration_MTurk/v2_DepthDuration_HTML.html#66,66,1366,657,1366,768,9-3-2022,9-38-1,138,depth_duration_stimuli/000734_2014-06-08_17-39-11_260595134347_rgbf000128-resize_2/000734_2014-06-08_17-39-11_260595134347_rgbf000128-resize_2-target.png,250,4.098,0.3,3395,254,meters,jsons/v1_VE250_randls_70_rotated.json,842550,989145,1962,Man
138,476295,DepthScenes,duration_manipulation_targetAtFixation,jsons/v1_VE250_randls_70_rotated.json,http://54.235.29.9/FacialAge/BNav_EC2/DepthDuration/v2_depth_duration_MTurk/v2_DepthDuration_HTML.html#66,66,1366,657,1366,768,9-3-2022,9-38-1,139,depth_duration_stimuli/000739_2014-06-08_18-45-58_260595134347_rgbf000068-resize_1/000739_2014-06-08_18-45-58_260595134347_rgbf000068-resize_1-target.png,250,3.534,0.3,3399,250,meters,jsons/v1_VE250_randls_70_rotated.json,842550,989145,1962,Man
139,476295,DepthScenes,duration_manipulation_targetAtFixation,jsons/v1_VE250_randls_70_rotated.json,http://54.235.29.9/FacialAge/BNav_EC2/DepthDuration/v2_depth_duration_MTurk/v2_DepthDuration_HTML.html#66,66,1366,657,1366,768,9-3-2022,9-38-1,140,depth_duration_stimuli/001650_2014-06-20_12-09-00_260595134347_rgbf000087-resize_3/001650_2014-06-20_12-09-00_260595134347_rgbf000087-resize_3-target.png,250,1.9505,0.3,3884,251,meters,jsons/v1_VE250_randls_70_rotated.json,842550,989145,1962,Man
140,476295,DepthScenes,duration_manipulation_targetAtFixation,jsons/v1_VE250_randls_70_rotated.json,http://54.235.29.9/FacialAge/BNav_EC2/DepthDuration/v2_depth_duration_MTurk/v2_DepthDuration_HTML.html#66,66,1366,657,1366,768,9-3-2022,9-38-1,141,depth_duration_stimuli/000682_2014-06-08_23-14-58_260595134347_rgbf000041-resize_5/000682_2014-06-08_23-14-58_260595134347_rgbf000041-resize_5-target.png,250,2.7239999999999998,0.3,4139,280,meters,jsons/v1_VE250_randls_70_rotated.json,842550,989145,1962,Man
141,476295,DepthScenes,duration_manipulation_targetAtFixation,jsons/v1_VE250_randls_70_rotated.json,http://54.235.29.9/FacialAge/BNav_EC2/DepthDuration/v2_depth_duration_MTurk/v2_DepthDuration_HTML.html#66,66,1366,657,1366,768,9-3-2022,9-38-1,142,depth_duration_stimuli/003495_2014-05-21_16-01-51_094959634447_rgbf000100-resize_3/003495_2014-05-21_16-01-51_094959634447_rgbf000100-resize_3-target.png,250,1.6255,0.3,3466,231,meters,jsons/v1_VE250_randls_70_rotated.json,842550,989145,1962,Man
142,476295,DepthScenes,duration_manipulation_targetAtFixation,jsons/v1_VE250_randls_70_rotated.json,http://54.235.29.9/FacialAge/BNav_EC2/DepthDuration/v2_depth_duration_MTurk/v2_DepthDuration_HTML.html#66,66,1366,657,1366,768,9-3-2022,9-38-1,143,depth_duration_stimuli/001244_2014-06-17_16-47-45_260595134347_rgbf000030-resize_4/001244_2014-06-17_16-47-45_260595134347_rgbf000030-resize_4-target.png,250,2.0425,0.2,3494,253,meters,jsons/v1_VE250_randls_70_rotated.json,842550,989145,1962,Man
143,476295,DepthScenes,duration_manipulation_targetAtFixation,jsons/v1_VE250_randls_70_rotated.json,http://54.235.29.9/FacialAge/BNav_EC2/DepthDuration/v2_depth_duration_MTurk/v2_DepthDuration_HTML.html#66,66,1366,657,1366,768,9-3-2022,9-38-1,144,depth_duration_stimuli/000457_2014-06-08_16-52-43_260595134347_rgbf000199-resize_1/000457_2014-06-08_16-52-43_260595134347_rgbf000199-resize_1-target.png,250,3.6489999999999996,0.2,6254,247,meters,jsons/v1_VE250_randls_70_rotated.json,842550,989145,1962,Man
144,476295,DepthScenes,duration_manipulation_targetAtFixation,jsons/v1_VE250_randls_70_rotated.json,http://54.235.29.9/FacialAge/BNav_EC2/DepthDuration/v2_depth_duration_MTurk/v2_DepthDuration_HTML.html#66,66,1366,657,1366,768,9-3-2022,9-38-1,145,depth_duration_stimuli/000929_2014-06-09_16-33-19_260595134347_rgbf000139-resize_0/000929_2014-06-09_16-33-19_260595134347_rgbf000139-resize_0-target.png,250,2.8680000000000003,0.3,3128,251,meters,jsons/v1_VE250_randls_70_rotated.json,842550,989145,1962,Man
145,476295,DepthScenes,duration_manipulation_targetAtFixation,jsons/v1_VE250_randls_70_rotated.json,http://54.235.29.9/FacialAge/BNav_EC2/DepthDuration/v2_depth_duration_MTurk/v2_DepthDuration_HTML.html#66,66,1366,657,1366,768,9-3-2022,9-38-1,146,depth_duration_stimuli/003423_2014-05-21_10-23-26_094959634447_rgbf002665-resize_2/003423_2014-05-21_10-23-26_094959634447_rgbf002665-resize_2-target.png,250,3.2575,0.3,3150,255,meters,jsons/v1_VE250_randls_70_rotated.json,842550,989145,1962,Man
146,476295,DepthScenes,duration_manipulation_targetAtFixation,jsons/v1_VE250_randls_70_rotated.json,http://54.235.29.9/FacialAge/BNav_EC2/DepthDuration/v2_depth_duration_MTurk/v2_DepthDuration_HTML.html#66,66,1366,657,1366,768,9-3-2022,9-38-1,147,depth_duration_stimuli/002905_2014-06-03_18-04-43_094959634447_rgbf000151-resize_2/002905_2014-06-03_18-04-43_094959634447_rgbf000151-resize_2-target.png,250,2.0295,0.3,3004,290,meters,jsons/v1_VE250_randls_70_rotated.json,842550,989145,1962,Man
147,476295,DepthScenes,duration_manipulation_targetAtFixation,jsons/v1_VE250_randls_70_rotated.json,http://54.235.29.9/FacialAge/BNav_EC2/DepthDuration/v2_depth_duration_MTurk/v2_DepthDuration_HTML.html#66,66,1366,657,1366,768,9-3-2022,9-38-1,148,depth_duration_stimuli/002209_2014-06-28_18-36-10_260595134347_rgbf000051-resize_1/002209_2014-06-28_18-36-10_260595134347_rgbf000051-resize_1-target.png,250,2.057,0.4,3043,248,meters,jsons/v1_VE250_randls_70_rotated.json,842550,989145,1962,Man
148,476295,DepthScenes,duration_manipulation_targetAtFixation,jsons/v1_VE250_randls_70_rotated.json,http://54.235.29.9/FacialAge/BNav_EC2/DepthDuration/v2_depth_duration_MTurk/v2_DepthDuration_HTML.html#66,66,1366,657,1366,768,9-3-2022,9-38-1,149,depth_duration_stimuli/002763_2014-06-22_19-13-10_094959634447_rgbf000075-resize_4/002763_2014-06-22_19-13-10_094959634447_rgbf000075-resize_4-target.png,250,1.68375,0.3,2919,226,meters,jsons/v1_VE250_randls_70_rotated.json,842550,989145,1962,Man
149,476295,DepthScenes,duration_manipulation_targetAtFixation,jsons/v1_VE250_randls_70_rotated.json,http://54.235.29.9/FacialAge/BNav_EC2/DepthDuration/v2_depth_duration_MTurk/v2_DepthDuration_HTML.html#66,66,1366,657,1366,768,9-3-2022,9-38-1,150,depth_duration_stimuli/002875_2014-06-01_15-19-00_094959634447_rgbf000151-resize_1/002875_2014-06-01_15-19-00_094959634447_rgbf000151-resize_1-target.png,250,1.9675,0.4,3453,251,meters,jsons/v1_VE250_randls_70_rotated.json,842550,989145,1962,Man
150,476295,DepthScenes,duration_manipulation_targetAtFixation,jsons/v1_VE250_randls_70_rotated.json,http://54.235.29.9/FacialAge/BNav_EC2/DepthDuration/v2_depth_duration_MTurk/v2_DepthDuration_HTML.html#66,66,1366,657,1366,768,9-3-2022,9-38-1,151,depth_duration_stimuli/001011_2014-06-08_23-18-54_260595134347_rgbf000044-resize_4/001011_2014-06-08_23-18-54_260595134347_rgbf000044-resize_4-target.png,250,2.4730000000000003,0.2,3142,251,meters,jsons/v1_VE250_randls_70_rotated.json,842550,989145,1962,Man
151,476295,DepthScenes,duration_manipulation_targetAtFixation,jsons/v1_VE250_randls_70_rotated.json,http://54.235.29.9/FacialAge/BNav_EC2/DepthDuration/v2_depth_duration_MTurk/v2_DepthDuration_HTML.html#66,66,1366,657,1366,768,9-3-2022,9-38-1,152,depth_duration_stimuli/000569_2014-06-09_22-51-47_260595134347_rgbf000141-resize_3/000569_2014-06-09_22-51-47_260595134347_rgbf000141-resize-original.jpg,250,4.512,0.2,5108,244,meters,jsons/v1_VE250_randls_70_rotated.json,842550,989145,1962,Man
152,476295,DepthScenes,duration_manipulation_targetAtFixation,jsons/v1_VE250_randls_70_rotated.json,http://54.235.29.9/FacialAge/BNav_EC2/DepthDuration/v2_depth_duration_MTurk/v2_DepthDuration_HTML.html#66,66,1366,657,1366,768,9-3-2022,9-38-1,153,depth_duration_stimuli/002995_2014-06-15_12-31-26_094959634447_rgbf000150-resize_1/002995_2014-06-15_12-31-26_094959634447_rgbf000150-resize_1-target.png,250,3.8360000000000003,0.2,4369,234,meters,jsons/v1_VE250_randls_70_rotated.json,842550,989145,1962,Man
153,476295,DepthScenes,duration_manipulation_targetAtFixation,jsons/v1_VE250_randls_70_rotated.json,http://54.235.29.9/FacialAge/BNav_EC2/DepthDuration/v2_depth_duration_MTurk/v2_DepthDuration_HTML.html#66,66,1366,657,1366,768,9-3-2022,9-38-1,154,depth_duration_stimuli/002748_2014-06-22_19-07-22_094959634447_rgbf000078-resize_1/002748_2014-06-22_19-07-22_094959634447_rgbf000078-resize_1-target.png,250,4.6705,0.2,6393,246,meters,jsons/v1_VE250_randls_70_rotated.json,842550,989145,1962,Man
154,476295,DepthScenes,duration_manipulation_targetAtFixation,jsons/v1_VE250_randls_70_rotated.json,http://54.235.29.9/FacialAge/BNav_EC2/DepthDuration/v2_depth_duration_MTurk/v2_DepthDuration_HTML.html#66,66,1366,657,1366,768,9-3-2022,9-38-1,155,depth_duration_stimuli/001584_2014-06-20_11-07-43_260595134347_rgbf000002-resize_1/001584_2014-06-20_11-07-43_260595134347_rgbf000002-resize_1-target.png,250,3.53,0.3,3410,251,meters,jsons/v1_VE250_randls_70_rotated.json,842550,989145,1962,Man
155,476295,DepthScenes,duration_manipulation_targetAtFixation,jsons/v1_VE250_randls_70_rotated.json,http://54.235.29.9/FacialAge/BNav_EC2/DepthDuration/v2_depth_duration_MTurk/v2_DepthDuration_HTML.html#66,66,1366,657,1366,768,9-3-2022,9-38-1,156,depth_duration_stimuli/003621_2014-05-23_18-06-08_094959634447_rgbf000101-resize_1/003621_2014-05-23_18-06-08_094959634447_rgbf000101-resize_1-target.png,250,3.9835,0.2,3780,249,meters,jsons/v1_VE250_randls_70_rotated.json,842550,989145,1962,Man
156,476295,DepthScenes,duration_manipulation_targetAtFixation,jsons/v1_VE250_randls_70_rotated.json,http://54.235.29.9/FacialAge/BNav_EC2/DepthDuration/v2_depth_duration_MTurk/v2_DepthDuration_HTML.html#66,66,1366,657,1366,768,9-3-2022,9-38-1,157,depth_duration_stimuli/003129_2014-05-12_10-48-10_094959634447_rgbf000100-resize_0/003129_2014-05-12_10-48-10_094959634447_rgbf000100-resize_0-target.png,250,4.9305,0.2,3453,346,meters,jsons/v1_VE250_randls_70_rotated.json,842550,989145,1962,Man
157,476295,DepthScenes,duration_manipulation_targetAtFixation,jsons/v1_VE250_randls_70_rotated.json,http://54.235.29.9/FacialAge/BNav_EC2/DepthDuration/v2_depth_duration_MTurk/v2_DepthDuration_HTML.html#66,66,1366,657,1366,768,9-3-2022,9-38-1,158,depth_duration_stimuli/000414_2014-06-04_19-49-13_260595134347_rgbf000044-resize_0/000414_2014-06-04_19-49-13_260595134347_rgbf000044-resize_0-target.png,250,4.329,0.3,3055,246,meters,jsons/v1_VE250_randls_70_rotated.json,842550,989145,1962,Man
158,476295,DepthScenes,duration_manipulation_targetAtFixation,jsons/v1_VE250_randls_70_rotated.json,http://54.235.29.9/FacialAge/BNav_EC2/DepthDuration/v2_depth_duration_MTurk/v2_DepthDuration_HTML.html#66,66,1366,657,1366,768,9-3-2022,9-38-1,159,depth_duration_stimuli/003083_2014-06-15_15-21-03_094959634447_rgbf000063-resize_1/003083_2014-06-15_15-21-03_094959634447_rgbf000063-resize_1-target.png,250,4.1405,0.2,3192,258,meters,jsons/v1_VE250_randls_70_rotated.json,842550,989145,1962,Man
159,476295,DepthScenes,duration_manipulation_targetAtFixation,jsons/v1_VE250_randls_70_rotated.json,http://54.235.29.9/FacialAge/BNav_EC2/DepthDuration/v2_depth_duration_MTurk/v2_DepthDuration_HTML.html#66,66,1366,657,1366,768,9-3-2022,9-38-1,160,depth_duration_stimuli/000486_2014-06-09_20-47-20_260595134347_rgbf000143-resize_2/000486_2014-06-09_20-47-20_260595134347_rgbf000143-resize_2-target.png,250,4.8325,0.3,3476,263,meters,jsons/v1_VE250_randls_70_rotated.json,842550,989145,1962,Man
160,476295,DepthScenes,duration_manipulation_targetAtFixation,jsons/v1_VE250_randls_70_rotated.json,http://54.235.29.9/FacialAge/BNav_EC2/DepthDuration/v2_depth_duration_MTurk/v2_DepthDuration_HTML.html#66,66,1366,657,1366,768,9-3-2022,9-38-1,161,depth_duration_stimuli/001815_2014-06-26_20-52-55_260595134347_rgbf000020-resize_0/001815_2014-06-26_20-52-55_260595134347_rgbf000020-resize_0-target.png,250,3.3865,0.2,3174,253,meters,jsons/v1_VE250_randls_70_rotated.json,842550,989145,1962,Man
161,476295,DepthScenes,duration_manipulation_targetAtFixation,jsons/v1_VE250_randls_70_rotated.json,http://54.235.29.9/FacialAge/BNav_EC2/DepthDuration/v2_depth_duration_MTurk/v2_DepthDuration_HTML.html#66,66,1366,657,1366,768,9-3-2022,9-38-1,162,depth_duration_stimuli/001808_2014-06-26_20-50-58_260595134347_rgbf000029-resize_1/001808_2014-06-26_20-50-58_260595134347_rgbf000029-resize_1-target.png,250,4.249,0.3,3800,236,meters,jsons/v1_VE250_randls_70_rotated.json,842550,989145,1962,Man
162,476295,DepthScenes,duration_manipulation_targetAtFixation,jsons/v1_VE250_randls_70_rotated.json,http://54.235.29.9/FacialAge/BNav_EC2/DepthDuration/v2_depth_duration_MTurk/v2_DepthDuration_HTML.html#66,66,1366,657,1366,768,9-3-2022,9-38-1,163,depth_duration_stimuli/002344_2014-06-28_20-06-29_260595134347_rgbf000030-resize_1/002344_2014-06-28_20-06-29_260595134347_rgbf000030-resize_1-target.png,250,1.5795,0.2,3581,259,meters,jsons/v1_VE250_randls_70_rotated.json,842550,989145,1962,Man
163,476295,DepthScenes,duration_manipulation_targetAtFixation,jsons/v1_VE250_randls_70_rotated.json,http://54.235.29.9/FacialAge/BNav_EC2/DepthDuration/v2_depth_duration_MTurk/v2_DepthDuration_HTML.html#66,66,1366,657,1366,768,9-3-2022,9-38-1,164,depth_duration_stimuli/002725_2014-06-22_11-47-51_094959634447_rgbf000070-resize_1/002725_2014-06-22_11-47-51_094959634447_rgbf000070-resize_1-target.png,250,2.195,0.0,5982,238,meters,jsons/v1_VE250_randls_70_rotated.json,842550,989145,1962,Man
