,subjID,experimentName,versionName,sequenceName,url,selected_row,windowWidth,windowHeight,screenWidth,screenHeight,startDate,startTime,trial,stimulus,duration,actual_depth,depth_estimate,trial_RT,log_sceneDuration,unitSelection,seq_filepath,experimentTime,totalTime,age,gender
0,476246,DepthScenes,duration_manipulation_targetAtFixation,jsons/v1_VE1000_randls_15_rotated.json,http://54.235.29.9/FacialAge/BNav_EC2/DepthDuration/v2_depth_duration_MTurk/v2_DepthDuration_HTML.html#231,231,1920,961,1920,1080,8-29-2022,13-55-24,1,depth_duration_stimuli/000409_2014-06-04_19-23-33_260595134347_rgbf000067-resize_0/000409_2014-06-04_19-23-33_260595134347_rgbf000067-resize_0-target.png,1000,3.7335,5,4194,1000,feet,jsons/v1_VE1000_randls_15_rotated.json,845609,1115747,54,Woman
1,476246,DepthScenes,duration_manipulation_targetAtFixation,jsons/v1_VE1000_randls_15_rotated.json,http://54.235.29.9/FacialAge/BNav_EC2/DepthDuration/v2_depth_duration_MTurk/v2_DepthDuration_HTML.html#231,231,1920,961,1920,1080,8-29-2022,13-55-24,2,depth_duration_stimuli/002663_2014-06-13_15-50-26_094959634447_rgbf000075-resize_1/002663_2014-06-13_15-50-26_094959634447_rgbf000075-resize_1-target.png,1000,4.7495,10,3872,994,feet,jsons/v1_VE1000_randls_15_rotated.json,845609,1115747,54,Woman
2,476246,DepthScenes,duration_manipulation_targetAtFixation,jsons/v1_VE1000_randls_15_rotated.json,http://54.235.29.9/FacialAge/BNav_EC2/DepthDuration/v2_depth_duration_MTurk/v2_DepthDuration_HTML.html#231,231,1920,961,1920,1080,8-29-2022,13-55-24,3,depth_duration_stimuli/000709_2014-06-08_13-51-55_260595134347_rgbf000068-resize_3/000709_2014-06-08_13-51-55_260595134347_rgbf000068-resize_3-target.png,1000,1.8030000000000002,4,3956,1000,feet,jsons/v1_VE1000_randls_15_rotated.json,845609,1115747,54,Woman
3,476246,DepthScenes,duration_manipulation_targetAtFixation,jsons/v1_VE1000_randls_15_rotated.json,http://54.235.29.9/FacialAge/BNav_EC2/DepthDuration/v2_depth_duration_MTurk/v2_DepthDuration_HTML.html#231,231,1920,961,1920,1080,8-29-2022,13-55-24,4,depth_duration_stimuli/002057_2014-06-24_21-00-13_260595134347_rgbf000120-resize_1/002057_2014-06-24_21-00-13_260595134347_rgbf000120-resize_1-target.png,1000,2.967,10,4823,998,feet,jsons/v1_VE1000_randls_15_rotated.json,845609,1115747,54,Woman
4,476246,DepthScenes,duration_manipulation_targetAtFixation,jsons/v1_VE1000_randls_15_rotated.json,http://54.235.29.9/FacialAge/BNav_EC2/DepthDuration/v2_depth_duration_MTurk/v2_DepthDuration_HTML.html#231,231,1920,961,1920,1080,8-29-2022,13-55-24,5,depth_duration_stimuli/003490_2014-05-21_15-50-11_094959634447_rgbf000101-resize_3/003490_2014-05-21_15-50-11_094959634447_rgbf000101-resize_3-target.png,1000,3.6445,10,4539,1000,feet,jsons/v1_VE1000_randls_15_rotated.json,845609,1115747,54,Woman
5,476246,DepthScenes,duration_manipulation_targetAtFixation,jsons/v1_VE1000_randls_15_rotated.json,http://54.235.29.9/FacialAge/BNav_EC2/DepthDuration/v2_depth_duration_MTurk/v2_DepthDuration_HTML.html#231,231,1920,961,1920,1080,8-29-2022,13-55-24,6,depth_duration_stimuli/001175_2014-06-17_15-45-55_260595134347_rgbf000129-resize_4/001175_2014-06-17_15-45-55_260595134347_rgbf000129-resize_4-target.png,1000,4.255,12,3947,1000,feet,jsons/v1_VE1000_randls_15_rotated.json,845609,1115747,54,Woman
6,476246,DepthScenes,duration_manipulation_targetAtFixation,jsons/v1_VE1000_randls_15_rotated.json,http://54.235.29.9/FacialAge/BNav_EC2/DepthDuration/v2_depth_duration_MTurk/v2_DepthDuration_HTML.html#231,231,1920,961,1920,1080,8-29-2022,13-55-24,7,depth_duration_stimuli/002805_2014-06-22_19-54-03_094959634447_rgbf000079-resize_1/002805_2014-06-22_19-54-03_094959634447_rgbf000079-resize_1-target.png,1000,3.1439999999999997,10,5781,1000,feet,jsons/v1_VE1000_randls_15_rotated.json,845609,1115747,54,Woman
7,476246,DepthScenes,duration_manipulation_targetAtFixation,jsons/v1_VE1000_randls_15_rotated.json,http://54.235.29.9/FacialAge/BNav_EC2/DepthDuration/v2_depth_duration_MTurk/v2_DepthDuration_HTML.html#231,231,1920,961,1920,1080,8-29-2022,13-55-24,8,depth_duration_stimuli/000906_2014-06-08_13-35-43_260595134347_rgbf000155-resize_1/000906_2014-06-08_13-35-43_260595134347_rgbf000155-resize_1-target.png,1000,2.8489999999999998,9,6959,999,feet,jsons/v1_VE1000_randls_15_rotated.json,845609,1115747,54,Woman
8,476246,DepthScenes,duration_manipulation_targetAtFixation,jsons/v1_VE1000_randls_15_rotated.json,http://54.235.29.9/FacialAge/BNav_EC2/DepthDuration/v2_depth_duration_MTurk/v2_DepthDuration_HTML.html#231,231,1920,961,1920,1080,8-29-2022,13-55-24,9,depth_duration_stimuli/001392_2014-06-19_16-07-59_260595134347_rgbf000046-resize_1/001392_2014-06-19_16-07-59_260595134347_rgbf000046-resize_1-target.png,1000,4.135,10,6630,1000,feet,jsons/v1_VE1000_randls_15_rotated.json,845609,1115747,54,Woman
9,476246,DepthScenes,duration_manipulation_targetAtFixation,jsons/v1_VE1000_randls_15_rotated.json,http://54.235.29.9/FacialAge/BNav_EC2/DepthDuration/v2_depth_duration_MTurk/v2_DepthDuration_HTML.html#231,231,1920,961,1920,1080,8-29-2022,13-55-24,10,depth_duration_stimuli/001570_2014-06-20_17-21-09_260595134347_rgbf000135-resize_4/001570_2014-06-20_17-21-09_260595134347_rgbf000135-resize_4-target.png,1000,4.467,9,5046,1007,feet,jsons/v1_VE1000_randls_15_rotated.json,845609,1115747,54,Woman
10,476246,DepthScenes,duration_manipulation_targetAtFixation,jsons/v1_VE1000_randls_15_rotated.json,http://54.235.29.9/FacialAge/BNav_EC2/DepthDuration/v2_depth_duration_MTurk/v2_DepthDuration_HTML.html#231,231,1920,961,1920,1080,8-29-2022,13-55-24,11,depth_duration_stimuli/001100_2014-06-15_17-46-26_260595134347_rgbf000225-resize_2/001100_2014-06-15_17-46-26_260595134347_rgbf000225-resize_2-target.png,1000,2.24,1,4680,1002,feet,jsons/v1_VE1000_randls_15_rotated.json,845609,1115747,54,Woman
11,476246,DepthScenes,duration_manipulation_targetAtFixation,jsons/v1_VE1000_randls_15_rotated.json,http://54.235.29.9/FacialAge/BNav_EC2/DepthDuration/v2_depth_duration_MTurk/v2_DepthDuration_HTML.html#231,231,1920,961,1920,1080,8-29-2022,13-55-24,12,depth_duration_stimuli/002784_2014-06-22_19-26-30_094959634447_rgbf000083-resize_3/002784_2014-06-22_19-26-30_094959634447_rgbf000083-resize_3-target.png,1000,1.8046666666667,2,3793,1000,feet,jsons/v1_VE1000_randls_15_rotated.json,845609,1115747,54,Woman
12,476246,DepthScenes,duration_manipulation_targetAtFixation,jsons/v1_VE1000_randls_15_rotated.json,http://54.235.29.9/FacialAge/BNav_EC2/DepthDuration/v2_depth_duration_MTurk/v2_DepthDuration_HTML.html#231,231,1920,961,1920,1080,8-29-2022,13-55-24,13,depth_duration_stimuli/000734_2014-06-08_17-39-11_260595134347_rgbf000128-resize_2/000734_2014-06-08_17-39-11_260595134347_rgbf000128-resize_2-target.png,1000,4.098,4,3707,1000,feet,jsons/v1_VE1000_randls_15_rotated.json,845609,1115747,54,Woman
13,476246,DepthScenes,duration_manipulation_targetAtFixation,jsons/v1_VE1000_randls_15_rotated.json,http://54.235.29.9/FacialAge/BNav_EC2/DepthDuration/v2_depth_duration_MTurk/v2_DepthDuration_HTML.html#231,231,1920,961,1920,1080,8-29-2022,13-55-24,14,depth_duration_stimuli/000739_2014-06-08_18-45-58_260595134347_rgbf000068-resize_1/000739_2014-06-08_18-45-58_260595134347_rgbf000068-resize_1-target.png,1000,3.534,5,3813,999,feet,jsons/v1_VE1000_randls_15_rotated.json,845609,1115747,54,Woman
14,476246,DepthScenes,duration_manipulation_targetAtFixation,jsons/v1_VE1000_randls_15_rotated.json,http://54.235.29.9/FacialAge/BNav_EC2/DepthDuration/v2_depth_duration_MTurk/v2_DepthDuration_HTML.html#231,231,1920,961,1920,1080,8-29-2022,13-55-24,15,depth_duration_stimuli/000749_2014-06-08_21-55-06_260595134347_rgbf000070-resize_2/000749_2014-06-08_21-55-06_260595134347_rgbf000070-resize_2-target.png,1000,2.331,6,5588,991,feet,jsons/v1_VE1000_randls_15_rotated.json,845609,1115747,54,Woman
15,476246,DepthScenes,duration_manipulation_targetAtFixation,jsons/v1_VE1000_randls_15_rotated.json,http://54.235.29.9/FacialAge/BNav_EC2/DepthDuration/v2_depth_duration_MTurk/v2_DepthDuration_HTML.html#231,231,1920,961,1920,1080,8-29-2022,13-55-24,16,depth_duration_stimuli/002788_2014-06-22_19-36-03_094959634447_rgbf000088-resize_2/002788_2014-06-22_19-36-03_094959634447_rgbf000088-resize_2-target.png,1000,1.6465,7,6360,1001,feet,jsons/v1_VE1000_randls_15_rotated.json,845609,1115747,54,Woman
16,476246,DepthScenes,duration_manipulation_targetAtFixation,jsons/v1_VE1000_randls_15_rotated.json,http://54.235.29.9/FacialAge/BNav_EC2/DepthDuration/v2_depth_duration_MTurk/v2_DepthDuration_HTML.html#231,231,1920,961,1920,1080,8-29-2022,13-55-24,17,depth_duration_stimuli/000677_2014-06-08_23-10-32_260595134347_rgbf000158-resize_6/000677_2014-06-08_23-10-32_260595134347_rgbf000158-resize_6-target.png,1000,3.556,7,3506,998,feet,jsons/v1_VE1000_randls_15_rotated.json,845609,1115747,54,Woman
17,476246,DepthScenes,duration_manipulation_targetAtFixation,jsons/v1_VE1000_randls_15_rotated.json,http://54.235.29.9/FacialAge/BNav_EC2/DepthDuration/v2_depth_duration_MTurk/v2_DepthDuration_HTML.html#231,231,1920,961,1920,1080,8-29-2022,13-55-24,18,depth_duration_stimuli/001029_2014-06-08_13-17-57_260595134347_rgbf000065-resize_1/001029_2014-06-08_13-17-57_260595134347_rgbf000065-resize_1-target.png,1000,3.0835,6,6958,1003,feet,jsons/v1_VE1000_randls_15_rotated.json,845609,1115747,54,Woman
18,476246,DepthScenes,duration_manipulation_targetAtFixation,jsons/v1_VE1000_randls_15_rotated.json,http://54.235.29.9/FacialAge/BNav_EC2/DepthDuration/v2_depth_duration_MTurk/v2_DepthDuration_HTML.html#231,231,1920,961,1920,1080,8-29-2022,13-55-24,19,depth_duration_stimuli/001498_2014-06-19_17-45-14_260595134347_rgbf000129-resize_4/001498_2014-06-19_17-45-14_260595134347_rgbf000129-resize-original.jpg,1000,1.4075,0,3452,999,feet,jsons/v1_VE1000_randls_15_rotated.json,845609,1115747,54,Woman
19,476246,DepthScenes,duration_manipulation_targetAtFixation,jsons/v1_VE1000_randls_15_rotated.json,http://54.235.29.9/FacialAge/BNav_EC2/DepthDuration/v2_depth_duration_MTurk/v2_DepthDuration_HTML.html#231,231,1920,961,1920,1080,8-29-2022,13-55-24,20,depth_duration_stimuli/000457_2014-06-08_16-52-43_260595134347_rgbf000199-resize_1/000457_2014-06-08_16-52-43_260595134347_rgbf000199-resize_1-target.png,1000,3.6489999999999996,7,5173,999,feet,jsons/v1_VE1000_randls_15_rotated.json,845609,1115747,54,Woman
20,476246,DepthScenes,duration_manipulation_targetAtFixation,jsons/v1_VE1000_randls_15_rotated.json,http://54.235.29.9/FacialAge/BNav_EC2/DepthDuration/v2_depth_duration_MTurk/v2_DepthDuration_HTML.html#231,231,1920,961,1920,1080,8-29-2022,13-55-24,21,depth_duration_stimuli/000929_2014-06-09_16-33-19_260595134347_rgbf000139-resize_0/000929_2014-06-09_16-33-19_260595134347_rgbf000139-resize_0-target.png,1000,2.8680000000000003,3,5416,1000,feet,jsons/v1_VE1000_randls_15_rotated.json,845609,1115747,54,Woman
21,476246,DepthScenes,duration_manipulation_targetAtFixation,jsons/v1_VE1000_randls_15_rotated.json,http://54.235.29.9/FacialAge/BNav_EC2/DepthDuration/v2_depth_duration_MTurk/v2_DepthDuration_HTML.html#231,231,1920,961,1920,1080,8-29-2022,13-55-24,22,depth_duration_stimuli/002467_2014-06-28_20-38-07_260595134347_rgbf000026-resize_2/002467_2014-06-28_20-38-07_260595134347_rgbf000026-resize_2-target.png,1000,4.742,10,6800,999,feet,jsons/v1_VE1000_randls_15_rotated.json,845609,1115747,54,Woman
22,476246,DepthScenes,duration_manipulation_targetAtFixation,jsons/v1_VE1000_randls_15_rotated.json,http://54.235.29.9/FacialAge/BNav_EC2/DepthDuration/v2_depth_duration_MTurk/v2_DepthDuration_HTML.html#231,231,1920,961,1920,1080,8-29-2022,13-55-24,23,depth_duration_stimuli/002570_2014-06-24_13-59-54_094959634447_rgbf000059-resize_0/002570_2014-06-24_13-59-54_094959634447_rgbf000059-resize_0-target.png,1000,4.037,5,6559,999,feet,jsons/v1_VE1000_randls_15_rotated.json,845609,1115747,54,Woman
23,476246,DepthScenes,duration_manipulation_targetAtFixation,jsons/v1_VE1000_randls_15_rotated.json,http://54.235.29.9/FacialAge/BNav_EC2/DepthDuration/v2_depth_duration_MTurk/v2_DepthDuration_HTML.html#231,231,1920,961,1920,1080,8-29-2022,13-55-24,24,depth_duration_stimuli/001450_2014-06-19_17-02-03_260595134347_rgbf000203-resize_4/001450_2014-06-19_17-02-03_260595134347_rgbf000203-resize_4-target.png,1000,4.0106666666667,9,3986,999,feet,jsons/v1_VE1000_randls_15_rotated.json,845609,1115747,54,Woman
24,476246,DepthScenes,duration_manipulation_targetAtFixation,jsons/v1_VE1000_randls_15_rotated.json,http://54.235.29.9/FacialAge/BNav_EC2/DepthDuration/v2_depth_duration_MTurk/v2_DepthDuration_HTML.html#231,231,1920,961,1920,1080,8-29-2022,13-55-24,25,depth_duration_stimuli/001449_2014-06-19_17-01-27_260595134347_rgbf000116-resize_2/001449_2014-06-19_17-01-27_260595134347_rgbf000116-resize_2-target.png,1000,3.452,6,4330,999,feet,jsons/v1_VE1000_randls_15_rotated.json,845609,1115747,54,Woman
25,476246,DepthScenes,duration_manipulation_targetAtFixation,jsons/v1_VE1000_randls_15_rotated.json,http://54.235.29.9/FacialAge/BNav_EC2/DepthDuration/v2_depth_duration_MTurk/v2_DepthDuration_HTML.html#231,231,1920,961,1920,1080,8-29-2022,13-55-24,26,depth_duration_stimuli/002953_2014-06-08_17-32-18_094959634447_rgbf000059-resize_5/002953_2014-06-08_17-32-18_094959634447_rgbf000059-resize_5-target.png,1000,1.551,2,4238,1000,feet,jsons/v1_VE1000_randls_15_rotated.json,845609,1115747,54,Woman
26,476246,DepthScenes,duration_manipulation_targetAtFixation,jsons/v1_VE1000_randls_15_rotated.json,http://54.235.29.9/FacialAge/BNav_EC2/DepthDuration/v2_depth_duration_MTurk/v2_DepthDuration_HTML.html#231,231,1920,961,1920,1080,8-29-2022,13-55-24,27,depth_duration_stimuli/000878_2014-06-08_22-52-45_260595134347_rgbf000045-resize_2/000878_2014-06-08_22-52-45_260595134347_rgbf000045-resize_2-target.png,1000,2.092,5,5171,1024,feet,jsons/v1_VE1000_randls_15_rotated.json,845609,1115747,54,Woman
27,476246,DepthScenes,duration_manipulation_targetAtFixation,jsons/v1_VE1000_randls_15_rotated.json,http://54.235.29.9/FacialAge/BNav_EC2/DepthDuration/v2_depth_duration_MTurk/v2_DepthDuration_HTML.html#231,231,1920,961,1920,1080,8-29-2022,13-55-24,28,depth_duration_stimuli/000854_2014-06-09_19-43-13_260595134347_rgbf000066-resize_0/000854_2014-06-09_19-43-13_260595134347_rgbf000066-resize_0-target.png,1000,3.068,4,3352,1000,feet,jsons/v1_VE1000_randls_15_rotated.json,845609,1115747,54,Woman
28,476246,DepthScenes,duration_manipulation_targetAtFixation,jsons/v1_VE1000_randls_15_rotated.json,http://54.235.29.9/FacialAge/BNav_EC2/DepthDuration/v2_depth_duration_MTurk/v2_DepthDuration_HTML.html#231,231,1920,961,1920,1080,8-29-2022,13-55-24,29,depth_duration_stimuli/000758_2014-06-08_22-05-08_260595134347_rgbf000085-resize_0/000758_2014-06-08_22-05-08_260595134347_rgbf000085-resize_0-target.png,1000,3.3810000000000002,8,5796,999,feet,jsons/v1_VE1000_randls_15_rotated.json,845609,1115747,54,Woman
29,476246,DepthScenes,duration_manipulation_targetAtFixation,jsons/v1_VE1000_randls_15_rotated.json,http://54.235.29.9/FacialAge/BNav_EC2/DepthDuration/v2_depth_duration_MTurk/v2_DepthDuration_HTML.html#231,231,1920,961,1920,1080,8-29-2022,13-55-24,30,depth_duration_stimuli/002072_2014-06-24_21-48-06_260595134347_rgbf000115-resize_0/002072_2014-06-24_21-48-06_260595134347_rgbf000115-resize-original.jpg,1000,4.702,0,3599,999,feet,jsons/v1_VE1000_randls_15_rotated.json,845609,1115747,54,Woman
30,476246,DepthScenes,duration_manipulation_targetAtFixation,jsons/v1_VE1000_randls_15_rotated.json,http://54.235.29.9/FacialAge/BNav_EC2/DepthDuration/v2_depth_duration_MTurk/v2_DepthDuration_HTML.html#231,231,1920,961,1920,1080,8-29-2022,13-55-24,31,depth_duration_stimuli/001132_2014-06-17_14-48-54_260595134347_rgbf000100-resize_2/001132_2014-06-17_14-48-54_260595134347_rgbf000100-resize_2-target.png,1000,3.753,10,4415,999,feet,jsons/v1_VE1000_randls_15_rotated.json,845609,1115747,54,Woman
31,476246,DepthScenes,duration_manipulation_targetAtFixation,jsons/v1_VE1000_randls_15_rotated.json,http://54.235.29.9/FacialAge/BNav_EC2/DepthDuration/v2_depth_duration_MTurk/v2_DepthDuration_HTML.html#231,231,1920,961,1920,1080,8-29-2022,13-55-24,32,depth_duration_stimuli/001133_2014-06-17_14-49-16_260595134347_rgbf000100-resize_0/001133_2014-06-17_14-49-16_260595134347_rgbf000100-resize_0-target.png,1000,4.2115,11,5170,1000,feet,jsons/v1_VE1000_randls_15_rotated.json,845609,1115747,54,Woman
32,476246,DepthScenes,duration_manipulation_targetAtFixation,jsons/v1_VE1000_randls_15_rotated.json,http://54.235.29.9/FacialAge/BNav_EC2/DepthDuration/v2_depth_duration_MTurk/v2_DepthDuration_HTML.html#231,231,1920,961,1920,1080,8-29-2022,13-55-24,33,depth_duration_stimuli/001447_2014-06-19_17-00-32_260595134347_rgbf000082-resize_5/001447_2014-06-19_17-00-32_260595134347_rgbf000082-resize_5-target.png,1000,4.13775,5,4056,1000,feet,jsons/v1_VE1000_randls_15_rotated.json,845609,1115747,54,Woman
33,476246,DepthScenes,duration_manipulation_targetAtFixation,jsons/v1_VE1000_randls_15_rotated.json,http://54.235.29.9/FacialAge/BNav_EC2/DepthDuration/v2_depth_duration_MTurk/v2_DepthDuration_HTML.html#231,231,1920,961,1920,1080,8-29-2022,13-55-24,34,depth_duration_stimuli/000447_2014-06-08_16-15-46_260595134347_rgbf000130-resize_1/000447_2014-06-08_16-15-46_260595134347_rgbf000130-resize_1-target.png,1000,4.479,10,5347,999,feet,jsons/v1_VE1000_randls_15_rotated.json,845609,1115747,54,Woman
34,476246,DepthScenes,duration_manipulation_targetAtFixation,jsons/v1_VE1000_randls_15_rotated.json,http://54.235.29.9/FacialAge/BNav_EC2/DepthDuration/v2_depth_duration_MTurk/v2_DepthDuration_HTML.html#231,231,1920,961,1920,1080,8-29-2022,13-55-24,35,depth_duration_stimuli/000191_2014-05-12_17-07-38_260595134347_rgbf000199-resize_0/000191_2014-05-12_17-07-38_260595134347_rgbf000199-resize_0-target.png,1000,3.7995,9,6483,1011,feet,jsons/v1_VE1000_randls_15_rotated.json,845609,1115747,54,Woman
35,476246,DepthScenes,duration_manipulation_targetAtFixation,jsons/v1_VE1000_randls_15_rotated.json,http://54.235.29.9/FacialAge/BNav_EC2/DepthDuration/v2_depth_duration_MTurk/v2_DepthDuration_HTML.html#231,231,1920,961,1920,1080,8-29-2022,13-55-24,36,depth_duration_stimuli/000493_2014-06-09_21-01-18_260595134347_rgbf000196-resize_3/000493_2014-06-09_21-01-18_260595134347_rgbf000196-resize_3-target.png,1000,3.44,7,4315,999,feet,jsons/v1_VE1000_randls_15_rotated.json,845609,1115747,54,Woman
36,476246,DepthScenes,duration_manipulation_targetAtFixation,jsons/v1_VE1000_randls_15_rotated.json,http://54.235.29.9/FacialAge/BNav_EC2/DepthDuration/v2_depth_duration_MTurk/v2_DepthDuration_HTML.html#231,231,1920,961,1920,1080,8-29-2022,13-55-24,37,depth_duration_stimuli/000691_2014-06-08_13-08-50_260595134347_rgbf000132-resize_3/000691_2014-06-08_13-08-50_260595134347_rgbf000132-resize_3-target.png,1000,4.1530000000000005,7,4661,991,feet,jsons/v1_VE1000_randls_15_rotated.json,845609,1115747,54,Woman
37,476246,DepthScenes,duration_manipulation_targetAtFixation,jsons/v1_VE1000_randls_15_rotated.json,http://54.235.29.9/FacialAge/BNav_EC2/DepthDuration/v2_depth_duration_MTurk/v2_DepthDuration_HTML.html#231,231,1920,961,1920,1080,8-29-2022,13-55-24,38,depth_duration_stimuli/002213_2014-06-28_18-37-58_260595134347_rgbf000055-resize_1/002213_2014-06-28_18-37-58_260595134347_rgbf000055-resize_1-target.png,1000,3.62,9,3945,1001,feet,jsons/v1_VE1000_randls_15_rotated.json,845609,1115747,54,Woman
38,476246,DepthScenes,duration_manipulation_targetAtFixation,jsons/v1_VE1000_randls_15_rotated.json,http://54.235.29.9/FacialAge/BNav_EC2/DepthDuration/v2_depth_duration_MTurk/v2_DepthDuration_HTML.html#231,231,1920,961,1920,1080,8-29-2022,13-55-24,39,depth_duration_stimuli/002103_2014-06-25_20-00-40_260595134347_rgbf000049-resize_0/002103_2014-06-25_20-00-40_260595134347_rgbf000049-resize_0-target.png,1000,4.105,9,4372,1001,feet,jsons/v1_VE1000_randls_15_rotated.json,845609,1115747,54,Woman
39,476246,DepthScenes,duration_manipulation_targetAtFixation,jsons/v1_VE1000_randls_15_rotated.json,http://54.235.29.9/FacialAge/BNav_EC2/DepthDuration/v2_depth_duration_MTurk/v2_DepthDuration_HTML.html#231,231,1920,961,1920,1080,8-29-2022,13-55-24,40,depth_duration_stimuli/002039_2014-06-24_20-22-38_260595134347_rgbf000084-resize_1/002039_2014-06-24_20-22-38_260595134347_rgbf000084-resize_1-target.png,1000,4.408,10,3713,998,feet,jsons/v1_VE1000_randls_15_rotated.json,845609,1115747,54,Woman
40,476246,DepthScenes,duration_manipulation_targetAtFixation,jsons/v1_VE1000_randls_15_rotated.json,http://54.235.29.9/FacialAge/BNav_EC2/DepthDuration/v2_depth_duration_MTurk/v2_DepthDuration_HTML.html#231,231,1920,961,1920,1080,8-29-2022,13-55-24,41,depth_duration_stimuli/003048_2014-06-15_13-49-43_094959634447_rgbf000150-resize_1/003048_2014-06-15_13-49-43_094959634447_rgbf000150-resize_1-target.png,1000,4.0035,10,3349,999,feet,jsons/v1_VE1000_randls_15_rotated.json,845609,1115747,54,Woman
41,476246,DepthScenes,duration_manipulation_targetAtFixation,jsons/v1_VE1000_randls_15_rotated.json,http://54.235.29.9/FacialAge/BNav_EC2/DepthDuration/v2_depth_duration_MTurk/v2_DepthDuration_HTML.html#231,231,1920,961,1920,1080,8-29-2022,13-55-24,42,depth_duration_stimuli/002043_2014-06-24_20-29-38_260595134347_rgbf000039-resize_4/002043_2014-06-24_20-29-38_260595134347_rgbf000039-resize_4-target.png,1000,2.8435,8,4686,1001,feet,jsons/v1_VE1000_randls_15_rotated.json,845609,1115747,54,Woman
42,476246,DepthScenes,duration_manipulation_targetAtFixation,jsons/v1_VE1000_randls_15_rotated.json,http://54.235.29.9/FacialAge/BNav_EC2/DepthDuration/v2_depth_duration_MTurk/v2_DepthDuration_HTML.html#231,231,1920,961,1920,1080,8-29-2022,13-55-24,43,depth_duration_stimuli/001136_2014-06-17_15-19-41_260595134347_rgbf000076-resize_3/001136_2014-06-17_15-19-41_260595134347_rgbf000076-resize_3-target.png,1000,1.8655,5,8033,994,feet,jsons/v1_VE1000_randls_15_rotated.json,845609,1115747,54,Woman
43,476246,DepthScenes,duration_manipulation_targetAtFixation,jsons/v1_VE1000_randls_15_rotated.json,http://54.235.29.9/FacialAge/BNav_EC2/DepthDuration/v2_depth_duration_MTurk/v2_DepthDuration_HTML.html#231,231,1920,961,1920,1080,8-29-2022,13-55-24,44,depth_duration_stimuli/001164_2014-06-17_15-35-46_260595134347_rgbf000085-resize_3/001164_2014-06-17_15-35-46_260595134347_rgbf000085-resize_3-target.png,1000,2.354,5,6211,1000,feet,jsons/v1_VE1000_randls_15_rotated.json,845609,1115747,54,Woman
44,476246,DepthScenes,duration_manipulation_targetAtFixation,jsons/v1_VE1000_randls_15_rotated.json,http://54.235.29.9/FacialAge/BNav_EC2/DepthDuration/v2_depth_duration_MTurk/v2_DepthDuration_HTML.html#231,231,1920,961,1920,1080,8-29-2022,13-55-24,45,depth_duration_stimuli/002545_2014-06-24_13-38-53_094959634447_rgbf000080-resize_4/002545_2014-06-24_13-38-53_094959634447_rgbf000080-resize_4-target.png,1000,1.9205,5,5201,1000,feet,jsons/v1_VE1000_randls_15_rotated.json,845609,1115747,54,Woman
45,476246,DepthScenes,duration_manipulation_targetAtFixation,jsons/v1_VE1000_randls_15_rotated.json,http://54.235.29.9/FacialAge/BNav_EC2/DepthDuration/v2_depth_duration_MTurk/v2_DepthDuration_HTML.html#231,231,1920,961,1920,1080,8-29-2022,13-55-24,46,depth_duration_stimuli/001092_2014-06-15_17-34-58_260595134347_rgbf000171-resize_3/001092_2014-06-15_17-34-58_260595134347_rgbf000171-resize_3-target.png,1000,2.6935,4,3390,999,feet,jsons/v1_VE1000_randls_15_rotated.json,845609,1115747,54,Woman
46,476246,DepthScenes,duration_manipulation_targetAtFixation,jsons/v1_VE1000_randls_15_rotated.json,http://54.235.29.9/FacialAge/BNav_EC2/DepthDuration/v2_depth_duration_MTurk/v2_DepthDuration_HTML.html#231,231,1920,961,1920,1080,8-29-2022,13-55-24,47,depth_duration_stimuli/002750_2014-06-22_19-08-03_094959634447_rgbf000094-resize_4/002750_2014-06-22_19-08-03_094959634447_rgbf000094-resize_4-target.png,1000,2.354,6,3405,1000,feet,jsons/v1_VE1000_randls_15_rotated.json,845609,1115747,54,Woman
47,476246,DepthScenes,duration_manipulation_targetAtFixation,jsons/v1_VE1000_randls_15_rotated.json,http://54.235.29.9/FacialAge/BNav_EC2/DepthDuration/v2_depth_duration_MTurk/v2_DepthDuration_HTML.html#231,231,1920,961,1920,1080,8-29-2022,13-55-24,48,depth_duration_stimuli/002549_2014-06-24_13-41-39_094959634447_rgbf000022-resize_3/002549_2014-06-24_13-41-39_094959634447_rgbf000022-resize_3-target.png,1000,1.476,3,4001,999,feet,jsons/v1_VE1000_randls_15_rotated.json,845609,1115747,54,Woman
48,476246,DepthScenes,duration_manipulation_targetAtFixation,jsons/v1_VE1000_randls_15_rotated.json,http://54.235.29.9/FacialAge/BNav_EC2/DepthDuration/v2_depth_duration_MTurk/v2_DepthDuration_HTML.html#231,231,1920,961,1920,1080,8-29-2022,13-55-24,49,depth_duration_stimuli/001170_2014-06-17_15-43-44_260595134347_rgbf000096-resize_6/001170_2014-06-17_15-43-44_260595134347_rgbf000096-resize-original.jpg,1000,1.1909999999999998,0,4534,999,feet,jsons/v1_VE1000_randls_15_rotated.json,845609,1115747,54,Woman
49,476246,DepthScenes,duration_manipulation_targetAtFixation,jsons/v1_VE1000_randls_15_rotated.json,http://54.235.29.9/FacialAge/BNav_EC2/DepthDuration/v2_depth_duration_MTurk/v2_DepthDuration_HTML.html#231,231,1920,961,1920,1080,8-29-2022,13-55-24,50,depth_duration_stimuli/001032_2014-06-08_13-23-17_260595134347_rgbf000021-resize_3/001032_2014-06-08_13-23-17_260595134347_rgbf000021-resize_3-target.png,1000,3.2725,4,5869,1000,feet,jsons/v1_VE1000_randls_15_rotated.json,845609,1115747,54,Woman
50,476246,DepthScenes,duration_manipulation_targetAtFixation,jsons/v1_VE1000_randls_15_rotated.json,http://54.235.29.9/FacialAge/BNav_EC2/DepthDuration/v2_depth_duration_MTurk/v2_DepthDuration_HTML.html#231,231,1920,961,1920,1080,8-29-2022,13-55-24,51,depth_duration_stimuli/001059_2014-06-08_21-53-27_260595134347_rgbf000061-resize_4/001059_2014-06-08_21-53-27_260595134347_rgbf000061-resize_4-target.png,1000,2.4185,4,3575,998,feet,jsons/v1_VE1000_randls_15_rotated.json,845609,1115747,54,Woman
51,476246,DepthScenes,duration_manipulation_targetAtFixation,jsons/v1_VE1000_randls_15_rotated.json,http://54.235.29.9/FacialAge/BNav_EC2/DepthDuration/v2_depth_duration_MTurk/v2_DepthDuration_HTML.html#231,231,1920,961,1920,1080,8-29-2022,13-55-24,52,depth_duration_stimuli/000109_2014-05-14_23-41-52_260595134347_rgbf000035-resize_9/000109_2014-05-14_23-41-52_260595134347_rgbf000035-resize_9-target.png,1000,1.3545,2,4076,997,feet,jsons/v1_VE1000_randls_15_rotated.json,845609,1115747,54,Woman
52,476246,DepthScenes,duration_manipulation_targetAtFixation,jsons/v1_VE1000_randls_15_rotated.json,http://54.235.29.9/FacialAge/BNav_EC2/DepthDuration/v2_depth_duration_MTurk/v2_DepthDuration_HTML.html#231,231,1920,961,1920,1080,8-29-2022,13-55-24,53,depth_duration_stimuli/000470_2014-06-09_19-42-40_260595134347_rgbf000094-resize_1/000470_2014-06-09_19-42-40_260595134347_rgbf000094-resize_1-target.png,1000,1.831,3,4589,990,feet,jsons/v1_VE1000_randls_15_rotated.json,845609,1115747,54,Woman
53,476246,DepthScenes,duration_manipulation_targetAtFixation,jsons/v1_VE1000_randls_15_rotated.json,http://54.235.29.9/FacialAge/BNav_EC2/DepthDuration/v2_depth_duration_MTurk/v2_DepthDuration_HTML.html#231,231,1920,961,1920,1080,8-29-2022,13-55-24,54,depth_duration_stimuli/002199_2014-06-28_18-33-56_260595134347_rgbf000074-resize_0/002199_2014-06-28_18-33-56_260595134347_rgbf000074-resize_0-target.png,1000,1.996,1,3846,1001,feet,jsons/v1_VE1000_randls_15_rotated.json,845609,1115747,54,Woman
54,476246,DepthScenes,duration_manipulation_targetAtFixation,jsons/v1_VE1000_randls_15_rotated.json,http://54.235.29.9/FacialAge/BNav_EC2/DepthDuration/v2_depth_duration_MTurk/v2_DepthDuration_HTML.html#231,231,1920,961,1920,1080,8-29-2022,13-55-24,55,depth_duration_stimuli/001056_2014-06-08_18-46-44_260595134347_rgbf000068-resize_0/001056_2014-06-08_18-46-44_260595134347_rgbf000068-resize_0-target.png,1000,2.6625,4,3544,999,feet,jsons/v1_VE1000_randls_15_rotated.json,845609,1115747,54,Woman
55,476246,DepthScenes,duration_manipulation_targetAtFixation,jsons/v1_VE1000_randls_15_rotated.json,http://54.235.29.9/FacialAge/BNav_EC2/DepthDuration/v2_depth_duration_MTurk/v2_DepthDuration_HTML.html#231,231,1920,961,1920,1080,8-29-2022,13-55-24,56,depth_duration_stimuli/000483_2014-06-09_20-41-45_260595134347_rgbf000116-resize_4/000483_2014-06-09_20-41-45_260595134347_rgbf000116-resize_4-target.png,1000,1.337,2,3483,1000,feet,jsons/v1_VE1000_randls_15_rotated.json,845609,1115747,54,Woman
56,476246,DepthScenes,duration_manipulation_targetAtFixation,jsons/v1_VE1000_randls_15_rotated.json,http://54.235.29.9/FacialAge/BNav_EC2/DepthDuration/v2_depth_duration_MTurk/v2_DepthDuration_HTML.html#231,231,1920,961,1920,1080,8-29-2022,13-55-24,57,depth_duration_stimuli/000469_2014-06-09_19-42-10_260595134347_rgbf000081-resize_1/000469_2014-06-09_19-42-10_260595134347_rgbf000081-resize_1-target.png,1000,1.652,3,5179,999,feet,jsons/v1_VE1000_randls_15_rotated.json,845609,1115747,54,Woman
57,476246,DepthScenes,duration_manipulation_targetAtFixation,jsons/v1_VE1000_randls_15_rotated.json,http://54.235.29.9/FacialAge/BNav_EC2/DepthDuration/v2_depth_duration_MTurk/v2_DepthDuration_HTML.html#231,231,1920,961,1920,1080,8-29-2022,13-55-24,58,depth_duration_stimuli/001516_2014-06-20_16-25-09_260595134347_rgbf000076-resize_2/001516_2014-06-20_16-25-09_260595134347_rgbf000076-resize_2-target.png,1000,1.7445,5,7490,1001,feet,jsons/v1_VE1000_randls_15_rotated.json,845609,1115747,54,Woman
58,476246,DepthScenes,duration_manipulation_targetAtFixation,jsons/v1_VE1000_randls_15_rotated.json,http://54.235.29.9/FacialAge/BNav_EC2/DepthDuration/v2_depth_duration_MTurk/v2_DepthDuration_HTML.html#231,231,1920,961,1920,1080,8-29-2022,13-55-24,59,depth_duration_stimuli/002118_2014-06-25_20-32-08_260595134347_rgbf000078-resize_1/002118_2014-06-25_20-32-08_260595134347_rgbf000078-resize_1-target.png,1000,2.6460000000000004,6,4854,1000,feet,jsons/v1_VE1000_randls_15_rotated.json,845609,1115747,54,Woman
59,476246,DepthScenes,duration_manipulation_targetAtFixation,jsons/v1_VE1000_randls_15_rotated.json,http://54.235.29.9/FacialAge/BNav_EC2/DepthDuration/v2_depth_duration_MTurk/v2_DepthDuration_HTML.html#231,231,1920,961,1920,1080,8-29-2022,13-55-24,60,depth_duration_stimuli/002639_2014-06-24_14-51-37_094959634447_rgbf000074-resize_4/002639_2014-06-24_14-51-37_094959634447_rgbf000074-resize_4-target.png,1000,4.0375,8,3522,1001,feet,jsons/v1_VE1000_randls_15_rotated.json,845609,1115747,54,Woman
60,476246,DepthScenes,duration_manipulation_targetAtFixation,jsons/v1_VE1000_randls_15_rotated.json,http://54.235.29.9/FacialAge/BNav_EC2/DepthDuration/v2_depth_duration_MTurk/v2_DepthDuration_HTML.html#231,231,1920,961,1920,1080,8-29-2022,13-55-24,61,depth_duration_stimuli/003292_2014-05-14_21-53-49_094959634447_rgbf000100-resize_2/003292_2014-05-14_21-53-49_094959634447_rgbf000100-resize_2-target.png,1000,3.4815,7,4140,1001,feet,jsons/v1_VE1000_randls_15_rotated.json,845609,1115747,54,Woman
61,476246,DepthScenes,duration_manipulation_targetAtFixation,jsons/v1_VE1000_randls_15_rotated.json,http://54.235.29.9/FacialAge/BNav_EC2/DepthDuration/v2_depth_duration_MTurk/v2_DepthDuration_HTML.html#231,231,1920,961,1920,1080,8-29-2022,13-55-24,62,depth_duration_stimuli/001214_2014-06-17_16-13-55_260595134347_rgbf000111-resize_0/001214_2014-06-17_16-13-55_260595134347_rgbf000111-resize_0-target.png,1000,2.6505,5,4386,1000,feet,jsons/v1_VE1000_randls_15_rotated.json,845609,1115747,54,Woman
62,476246,DepthScenes,duration_manipulation_targetAtFixation,jsons/v1_VE1000_randls_15_rotated.json,http://54.235.29.9/FacialAge/BNav_EC2/DepthDuration/v2_depth_duration_MTurk/v2_DepthDuration_HTML.html#231,231,1920,961,1920,1080,8-29-2022,13-55-24,63,depth_duration_stimuli/000810_2014-06-08_17-20-01_260595134347_rgbf000105-resize_0/000810_2014-06-08_17-20-01_260595134347_rgbf000105-resize_0-target.png,1000,1.4865,5,8219,998,feet,jsons/v1_VE1000_randls_15_rotated.json,845609,1115747,54,Woman
63,476246,DepthScenes,duration_manipulation_targetAtFixation,jsons/v1_VE1000_randls_15_rotated.json,http://54.235.29.9/FacialAge/BNav_EC2/DepthDuration/v2_depth_duration_MTurk/v2_DepthDuration_HTML.html#231,231,1920,961,1920,1080,8-29-2022,13-55-24,64,depth_duration_stimuli/001094_2014-06-15_17-36-00_260595134347_rgbf000205-resize_0/001094_2014-06-15_17-36-00_260595134347_rgbf000205-resize_0-target.png,1000,4.2175,10,4422,1016,feet,jsons/v1_VE1000_randls_15_rotated.json,845609,1115747,54,Woman
64,476246,DepthScenes,duration_manipulation_targetAtFixation,jsons/v1_VE1000_randls_15_rotated.json,http://54.235.29.9/FacialAge/BNav_EC2/DepthDuration/v2_depth_duration_MTurk/v2_DepthDuration_HTML.html#231,231,1920,961,1920,1080,8-29-2022,13-55-24,65,depth_duration_stimuli/000692_2014-06-08_13-09-42_260595134347_rgbf000199-resize_2/000692_2014-06-08_13-09-42_260595134347_rgbf000199-resize_2-target.png,1000,3.661,9,8047,999,feet,jsons/v1_VE1000_randls_15_rotated.json,845609,1115747,54,Woman
65,476246,DepthScenes,duration_manipulation_targetAtFixation,jsons/v1_VE1000_randls_15_rotated.json,http://54.235.29.9/FacialAge/BNav_EC2/DepthDuration/v2_depth_duration_MTurk/v2_DepthDuration_HTML.html#231,231,1920,961,1920,1080,8-29-2022,13-55-24,66,depth_duration_stimuli/001540_2014-06-20_17-01-05_260595134347_rgbf000086-resize_2/001540_2014-06-20_17-01-05_260595134347_rgbf000086-resize-original.jpg,1000,1.459,0,3421,1000,feet,jsons/v1_VE1000_randls_15_rotated.json,845609,1115747,54,Woman
66,476246,DepthScenes,duration_manipulation_targetAtFixation,jsons/v1_VE1000_randls_15_rotated.json,http://54.235.29.9/FacialAge/BNav_EC2/DepthDuration/v2_depth_duration_MTurk/v2_DepthDuration_HTML.html#231,231,1920,961,1920,1080,8-29-2022,13-55-24,67,depth_duration_stimuli/001235_2014-06-17_16-37-36_260595134347_rgbf000084-resize_4/001235_2014-06-17_16-37-36_260595134347_rgbf000084-resize_4-target.png,1000,3.6605,6,4154,999,feet,jsons/v1_VE1000_randls_15_rotated.json,845609,1115747,54,Woman
67,476246,DepthScenes,duration_manipulation_targetAtFixation,jsons/v1_VE1000_randls_15_rotated.json,http://54.235.29.9/FacialAge/BNav_EC2/DepthDuration/v2_depth_duration_MTurk/v2_DepthDuration_HTML.html#231,231,1920,961,1920,1080,8-29-2022,13-55-24,68,depth_duration_stimuli/000788_2014-06-08_22-34-36_260595134347_rgbf000131-resize_1/000788_2014-06-08_22-34-36_260595134347_rgbf000131-resize_1-target.png,1000,3.359,7,5093,999,feet,jsons/v1_VE1000_randls_15_rotated.json,845609,1115747,54,Woman
68,476246,DepthScenes,duration_manipulation_targetAtFixation,jsons/v1_VE1000_randls_15_rotated.json,http://54.235.29.9/FacialAge/BNav_EC2/DepthDuration/v2_depth_duration_MTurk/v2_DepthDuration_HTML.html#231,231,1920,961,1920,1080,8-29-2022,13-55-24,69,depth_duration_stimuli/000780_2014-06-08_22-28-29_260595134347_rgbf000126-resize_1/000780_2014-06-08_22-28-29_260595134347_rgbf000126-resize_1-target.png,1000,3.3825,8,4561,999,feet,jsons/v1_VE1000_randls_15_rotated.json,845609,1115747,54,Woman
69,476246,DepthScenes,duration_manipulation_targetAtFixation,jsons/v1_VE1000_randls_15_rotated.json,http://54.235.29.9/FacialAge/BNav_EC2/DepthDuration/v2_depth_duration_MTurk/v2_DepthDuration_HTML.html#231,231,1920,961,1920,1080,8-29-2022,13-55-24,70,depth_duration_stimuli/002445_2014-06-28_20-32-16_260595134347_rgbf000029-resize_4/002445_2014-06-28_20-32-16_260595134347_rgbf000029-resize_4-target.png,1000,2.5315,4,3767,1000,feet,jsons/v1_VE1000_randls_15_rotated.json,845609,1115747,54,Woman
70,476246,DepthScenes,duration_manipulation_targetAtFixation,jsons/v1_VE1000_randls_15_rotated.json,http://54.235.29.9/FacialAge/BNav_EC2/DepthDuration/v2_depth_duration_MTurk/v2_DepthDuration_HTML.html#231,231,1920,961,1920,1080,8-29-2022,13-55-24,71,depth_duration_stimuli/001650_2014-06-20_12-09-00_260595134347_rgbf000087-resize_3/001650_2014-06-20_12-09-00_260595134347_rgbf000087-resize_3-target.png,1000,1.9505,2,4210,996,feet,jsons/v1_VE1000_randls_15_rotated.json,845609,1115747,54,Woman
71,476246,DepthScenes,duration_manipulation_targetAtFixation,jsons/v1_VE1000_randls_15_rotated.json,http://54.235.29.9/FacialAge/BNav_EC2/DepthDuration/v2_depth_duration_MTurk/v2_DepthDuration_HTML.html#231,231,1920,961,1920,1080,8-29-2022,13-55-24,72,depth_duration_stimuli/000682_2014-06-08_23-14-58_260595134347_rgbf000041-resize_5/000682_2014-06-08_23-14-58_260595134347_rgbf000041-resize_5-target.png,1000,2.7239999999999998,0,17046,1000,feet,jsons/v1_VE1000_randls_15_rotated.json,845609,1115747,54,Woman
72,476246,DepthScenes,duration_manipulation_targetAtFixation,jsons/v1_VE1000_randls_15_rotated.json,http://54.235.29.9/FacialAge/BNav_EC2/DepthDuration/v2_depth_duration_MTurk/v2_DepthDuration_HTML.html#231,231,1920,961,1920,1080,8-29-2022,13-55-24,73,depth_duration_stimuli/003228_2014-05-14_13-42-35_094959634447_rgbf000101-resize_1/003228_2014-05-14_13-42-35_094959634447_rgbf000101-resize_1-target.png,1000,1.9680000000000002,3,5025,1000,feet,jsons/v1_VE1000_randls_15_rotated.json,845609,1115747,54,Woman
73,476246,DepthScenes,duration_manipulation_targetAtFixation,jsons/v1_VE1000_randls_15_rotated.json,http://54.235.29.9/FacialAge/BNav_EC2/DepthDuration/v2_depth_duration_MTurk/v2_DepthDuration_HTML.html#231,231,1920,961,1920,1080,8-29-2022,13-55-24,74,depth_duration_stimuli/002600_2014-06-24_14-27-04_094959634447_rgbf000074-resize_2/002600_2014-06-24_14-27-04_094959634447_rgbf000074-resize_2-target.png,1000,2.7575,6,6141,1000,feet,jsons/v1_VE1000_randls_15_rotated.json,845609,1115747,54,Woman
74,476246,DepthScenes,duration_manipulation_targetAtFixation,jsons/v1_VE1000_randls_15_rotated.json,http://54.235.29.9/FacialAge/BNav_EC2/DepthDuration/v2_depth_duration_MTurk/v2_DepthDuration_HTML.html#231,231,1920,961,1920,1080,8-29-2022,13-55-24,75,depth_duration_stimuli/002444_2014-06-28_20-32-08_260595134347_rgbf000027-resize_0/002444_2014-06-28_20-32-08_260595134347_rgbf000027-resize_0-target.png,1000,4.388999999999999,8,6248,998,feet,jsons/v1_VE1000_randls_15_rotated.json,845609,1115747,54,Woman
75,476246,DepthScenes,duration_manipulation_targetAtFixation,jsons/v1_VE1000_randls_15_rotated.json,http://54.235.29.9/FacialAge/BNav_EC2/DepthDuration/v2_depth_duration_MTurk/v2_DepthDuration_HTML.html#231,231,1920,961,1920,1080,8-29-2022,13-55-24,76,depth_duration_stimuli/000436_2014-06-09_22-25-11_260595134347_rgbf000137-resize_1/000436_2014-06-09_22-25-11_260595134347_rgbf000137-resize_1-target.png,1000,4.0705,9,5424,1000,feet,jsons/v1_VE1000_randls_15_rotated.json,845609,1115747,54,Woman
76,476246,DepthScenes,duration_manipulation_targetAtFixation,jsons/v1_VE1000_randls_15_rotated.json,http://54.235.29.9/FacialAge/BNav_EC2/DepthDuration/v2_depth_duration_MTurk/v2_DepthDuration_HTML.html#231,231,1920,961,1920,1080,8-29-2022,13-55-24,77,depth_duration_stimuli/000137_2014-05-20_17-04-49_260595134347_rgbf000120-resize_1/000137_2014-05-20_17-04-49_260595134347_rgbf000120-resize_1-target.png,1000,3.786,9,3090,1000,feet,jsons/v1_VE1000_randls_15_rotated.json,845609,1115747,54,Woman
77,476246,DepthScenes,duration_manipulation_targetAtFixation,jsons/v1_VE1000_randls_15_rotated.json,http://54.235.29.9/FacialAge/BNav_EC2/DepthDuration/v2_depth_duration_MTurk/v2_DepthDuration_HTML.html#231,231,1920,961,1920,1080,8-29-2022,13-55-24,78,depth_duration_stimuli/000736_2014-06-08_18-24-15_260595134347_rgbf000206-resize_3/000736_2014-06-08_18-24-15_260595134347_rgbf000206-resize_3-target.png,1000,3.515,6,3378,986,feet,jsons/v1_VE1000_randls_15_rotated.json,845609,1115747,54,Woman
78,476246,DepthScenes,duration_manipulation_targetAtFixation,jsons/v1_VE1000_randls_15_rotated.json,http://54.235.29.9/FacialAge/BNav_EC2/DepthDuration/v2_depth_duration_MTurk/v2_DepthDuration_HTML.html#231,231,1920,961,1920,1080,8-29-2022,13-55-24,79,depth_duration_stimuli/002344_2014-06-28_20-06-29_260595134347_rgbf000030-resize_1/002344_2014-06-28_20-06-29_260595134347_rgbf000030-resize_1-target.png,1000,1.5795,1,3837,999,feet,jsons/v1_VE1000_randls_15_rotated.json,845609,1115747,54,Woman
79,476246,DepthScenes,duration_manipulation_targetAtFixation,jsons/v1_VE1000_randls_15_rotated.json,http://54.235.29.9/FacialAge/BNav_EC2/DepthDuration/v2_depth_duration_MTurk/v2_DepthDuration_HTML.html#231,231,1920,961,1920,1080,8-29-2022,13-55-24,80,depth_duration_stimuli/002725_2014-06-22_11-47-51_094959634447_rgbf000070-resize_1/002725_2014-06-22_11-47-51_094959634447_rgbf000070-resize_1-target.png,1000,2.195,5,3992,1000,feet,jsons/v1_VE1000_randls_15_rotated.json,845609,1115747,54,Woman
80,476246,DepthScenes,duration_manipulation_targetAtFixation,jsons/v1_VE1000_randls_15_rotated.json,http://54.235.29.9/FacialAge/BNav_EC2/DepthDuration/v2_depth_duration_MTurk/v2_DepthDuration_HTML.html#231,231,1920,961,1920,1080,8-29-2022,13-55-24,81,depth_duration_stimuli/003587_2014-05-23_16-48-02_094959634447_rgbf002384-resize_2/003587_2014-05-23_16-48-02_094959634447_rgbf002384-resize_2-target.png,1000,1.357,2,5172,999,feet,jsons/v1_VE1000_randls_15_rotated.json,845609,1115747,54,Woman
81,476246,DepthScenes,duration_manipulation_targetAtFixation,jsons/v1_VE1000_randls_15_rotated.json,http://54.235.29.9/FacialAge/BNav_EC2/DepthDuration/v2_depth_duration_MTurk/v2_DepthDuration_HTML.html#231,231,1920,961,1920,1080,8-29-2022,13-55-24,82,depth_duration_stimuli/001167_2014-06-17_15-38-07_260595134347_rgbf000108-resize_0/001167_2014-06-17_15-38-07_260595134347_rgbf000108-resize_0-target.png,1000,1.8505,3,3276,1000,feet,jsons/v1_VE1000_randls_15_rotated.json,845609,1115747,54,Woman
82,476246,DepthScenes,duration_manipulation_targetAtFixation,jsons/v1_VE1000_randls_15_rotated.json,http://54.235.29.9/FacialAge/BNav_EC2/DepthDuration/v2_depth_duration_MTurk/v2_DepthDuration_HTML.html#231,231,1920,961,1920,1080,8-29-2022,13-55-24,83,depth_duration_stimuli/000556_2014-06-09_22-42-56_260595134347_rgbf000214-resize_1/000556_2014-06-09_22-42-56_260595134347_rgbf000214-resize_1-target.png,1000,4.8415,7,3998,1000,feet,jsons/v1_VE1000_randls_15_rotated.json,845609,1115747,54,Woman
83,476246,DepthScenes,duration_manipulation_targetAtFixation,jsons/v1_VE1000_randls_15_rotated.json,http://54.235.29.9/FacialAge/BNav_EC2/DepthDuration/v2_depth_duration_MTurk/v2_DepthDuration_HTML.html#231,231,1920,961,1920,1080,8-29-2022,13-55-24,84,depth_duration_stimuli/001158_2014-06-17_15-32-16_260595134347_rgbf000138-resize_2/001158_2014-06-17_15-32-16_260595134347_rgbf000138-resize_2-target.png,1000,4.5315,10,4446,998,feet,jsons/v1_VE1000_randls_15_rotated.json,845609,1115747,54,Woman
84,476246,DepthScenes,duration_manipulation_targetAtFixation,jsons/v1_VE1000_randls_15_rotated.json,http://54.235.29.9/FacialAge/BNav_EC2/DepthDuration/v2_depth_duration_MTurk/v2_DepthDuration_HTML.html#231,231,1920,961,1920,1080,8-29-2022,13-55-24,85,depth_duration_stimuli/002758_2014-06-22_19-11-20_094959634447_rgbf000128-resize_1/002758_2014-06-22_19-11-20_094959634447_rgbf000128-resize_1-target.png,1000,2.555,5,4423,1001,feet,jsons/v1_VE1000_randls_15_rotated.json,845609,1115747,54,Woman
85,476246,DepthScenes,duration_manipulation_targetAtFixation,jsons/v1_VE1000_randls_15_rotated.json,http://54.235.29.9/FacialAge/BNav_EC2/DepthDuration/v2_depth_duration_MTurk/v2_DepthDuration_HTML.html#231,231,1920,961,1920,1080,8-29-2022,13-55-24,86,depth_duration_stimuli/002630_2014-06-24_14-47-50_094959634447_rgbf000055-resize_1/002630_2014-06-24_14-47-50_094959634447_rgbf000055-resize_1-target.png,1000,3.0095,7,5548,1001,feet,jsons/v1_VE1000_randls_15_rotated.json,845609,1115747,54,Woman
86,476246,DepthScenes,duration_manipulation_targetAtFixation,jsons/v1_VE1000_randls_15_rotated.json,http://54.235.29.9/FacialAge/BNav_EC2/DepthDuration/v2_depth_duration_MTurk/v2_DepthDuration_HTML.html#231,231,1920,961,1920,1080,8-29-2022,13-55-24,87,depth_duration_stimuli/002425_2014-06-28_20-27-29_260595134347_rgbf000031-resize_8/002425_2014-06-28_20-27-29_260595134347_rgbf000031-resize_8-target.png,1000,3.8960000000000004,10,4106,999,feet,jsons/v1_VE1000_randls_15_rotated.json,845609,1115747,54,Woman
87,476246,DepthScenes,duration_manipulation_targetAtFixation,jsons/v1_VE1000_randls_15_rotated.json,http://54.235.29.9/FacialAge/BNav_EC2/DepthDuration/v2_depth_duration_MTurk/v2_DepthDuration_HTML.html#231,231,1920,961,1920,1080,8-29-2022,13-55-24,88,depth_duration_stimuli/000642_2014-06-08_16-59-25_260595134347_rgbf000098-resize_2/000642_2014-06-08_16-59-25_260595134347_rgbf000098-resize_2-target.png,1000,2.8815,6,3684,1000,feet,jsons/v1_VE1000_randls_15_rotated.json,845609,1115747,54,Woman
88,476246,DepthScenes,duration_manipulation_targetAtFixation,jsons/v1_VE1000_randls_15_rotated.json,http://54.235.29.9/FacialAge/BNav_EC2/DepthDuration/v2_depth_duration_MTurk/v2_DepthDuration_HTML.html#231,231,1920,961,1920,1080,8-29-2022,13-55-24,89,depth_duration_stimuli/001828_2014-06-26_21-40-03_260595134347_rgbf000024-resize_0/001828_2014-06-26_21-40-03_260595134347_rgbf000024-resize_0-target.png,1000,4.8260000000000005,9,4345,1000,feet,jsons/v1_VE1000_randls_15_rotated.json,845609,1115747,54,Woman
89,476246,DepthScenes,duration_manipulation_targetAtFixation,jsons/v1_VE1000_randls_15_rotated.json,http://54.235.29.9/FacialAge/BNav_EC2/DepthDuration/v2_depth_duration_MTurk/v2_DepthDuration_HTML.html#231,231,1920,961,1920,1080,8-29-2022,13-55-24,90,depth_duration_stimuli/000009_2014-05-26_14-32-05_260595134347_rgbf000034-resize_3/000009_2014-05-26_14-32-05_260595134347_rgbf000034-resize_3-target.png,1000,3.8715,10,4908,998,feet,jsons/v1_VE1000_randls_15_rotated.json,845609,1115747,54,Woman
90,476246,DepthScenes,duration_manipulation_targetAtFixation,jsons/v1_VE1000_randls_15_rotated.json,http://54.235.29.9/FacialAge/BNav_EC2/DepthDuration/v2_depth_duration_MTurk/v2_DepthDuration_HTML.html#231,231,1920,961,1920,1080,8-29-2022,13-55-24,91,depth_duration_stimuli/000103_2014-05-14_22-01-17_260595134347_rgbf000152-resize_5/000103_2014-05-14_22-01-17_260595134347_rgbf000152-resize_5-target.png,1000,1.993,4,4799,999,feet,jsons/v1_VE1000_randls_15_rotated.json,845609,1115747,54,Woman
91,476246,DepthScenes,duration_manipulation_targetAtFixation,jsons/v1_VE1000_randls_15_rotated.json,http://54.235.29.9/FacialAge/BNav_EC2/DepthDuration/v2_depth_duration_MTurk/v2_DepthDuration_HTML.html#231,231,1920,961,1920,1080,8-29-2022,13-55-24,92,depth_duration_stimuli/001555_2014-06-20_17-12-10_260595134347_rgbf000065-resize_4/001555_2014-06-20_17-12-10_260595134347_rgbf000065-resize_4-target.png,1000,1.633,2,4330,999,feet,jsons/v1_VE1000_randls_15_rotated.json,845609,1115747,54,Woman
92,476246,DepthScenes,duration_manipulation_targetAtFixation,jsons/v1_VE1000_randls_15_rotated.json,http://54.235.29.9/FacialAge/BNav_EC2/DepthDuration/v2_depth_duration_MTurk/v2_DepthDuration_HTML.html#231,231,1920,961,1920,1080,8-29-2022,13-55-24,93,depth_duration_stimuli/000943_2014-06-09_19-31-07_260595134347_rgbf000128-resize_1/000943_2014-06-09_19-31-07_260595134347_rgbf000128-resize_1-target.png,1000,1.9765,4,3434,1000,feet,jsons/v1_VE1000_randls_15_rotated.json,845609,1115747,54,Woman
93,476246,DepthScenes,duration_manipulation_targetAtFixation,jsons/v1_VE1000_randls_15_rotated.json,http://54.235.29.9/FacialAge/BNav_EC2/DepthDuration/v2_depth_duration_MTurk/v2_DepthDuration_HTML.html#231,231,1920,961,1920,1080,8-29-2022,13-55-24,94,depth_duration_stimuli/003070_2014-06-15_14-58-27_094959634447_rgbf000150-resize_3/003070_2014-06-15_14-58-27_094959634447_rgbf000150-resize_3-target.png,1000,2.9415,6,3831,1001,feet,jsons/v1_VE1000_randls_15_rotated.json,845609,1115747,54,Woman
94,476246,DepthScenes,duration_manipulation_targetAtFixation,jsons/v1_VE1000_randls_15_rotated.json,http://54.235.29.9/FacialAge/BNav_EC2/DepthDuration/v2_depth_duration_MTurk/v2_DepthDuration_HTML.html#231,231,1920,961,1920,1080,8-29-2022,13-55-24,95,depth_duration_stimuli/003338_2014-05-20_11-01-23_094959634447_rgbf000051-resize_6/003338_2014-05-20_11-01-23_094959634447_rgbf000051-resize_6-target.png,1000,1.693,4,5484,1000,feet,jsons/v1_VE1000_randls_15_rotated.json,845609,1115747,54,Woman
95,476246,DepthScenes,duration_manipulation_targetAtFixation,jsons/v1_VE1000_randls_15_rotated.json,http://54.235.29.9/FacialAge/BNav_EC2/DepthDuration/v2_depth_duration_MTurk/v2_DepthDuration_HTML.html#231,231,1920,961,1920,1080,8-29-2022,13-55-24,96,depth_duration_stimuli/002509_2014-06-24_13-19-22_094959634447_rgbf000077-resize_0/002509_2014-06-24_13-19-22_094959634447_rgbf000077-resize_0-target.png,1000,1.3065,3,5335,1001,feet,jsons/v1_VE1000_randls_15_rotated.json,845609,1115747,54,Woman
96,476246,DepthScenes,duration_manipulation_targetAtFixation,jsons/v1_VE1000_randls_15_rotated.json,http://54.235.29.9/FacialAge/BNav_EC2/DepthDuration/v2_depth_duration_MTurk/v2_DepthDuration_HTML.html#231,231,1920,961,1920,1080,8-29-2022,13-55-24,97,depth_duration_stimuli/002660_2014-06-13_15-44-18_094959634447_rgbf001878-resize_2/002660_2014-06-13_15-44-18_094959634447_rgbf001878-resize_2-target.png,1000,3.576,6,8202,1001,feet,jsons/v1_VE1000_randls_15_rotated.json,845609,1115747,54,Woman
97,476246,DepthScenes,duration_manipulation_targetAtFixation,jsons/v1_VE1000_randls_15_rotated.json,http://54.235.29.9/FacialAge/BNav_EC2/DepthDuration/v2_depth_duration_MTurk/v2_DepthDuration_HTML.html#231,231,1920,961,1920,1080,8-29-2022,13-55-24,98,depth_duration_stimuli/002153_2014-06-25_21-27-18_260595134347_rgbf000038-resize_5/002153_2014-06-25_21-27-18_260595134347_rgbf000038-resize_5-target.png,1000,2.505,5,6187,1001,feet,jsons/v1_VE1000_randls_15_rotated.json,845609,1115747,54,Woman
98,476246,DepthScenes,duration_manipulation_targetAtFixation,jsons/v1_VE1000_randls_15_rotated.json,http://54.235.29.9/FacialAge/BNav_EC2/DepthDuration/v2_depth_duration_MTurk/v2_DepthDuration_HTML.html#231,231,1920,961,1920,1080,8-29-2022,13-55-24,99,depth_duration_stimuli/001222_2014-06-17_16-24-06_260595134347_rgbf000073-resize_0/001222_2014-06-17_16-24-06_260595134347_rgbf000073-resize-original.jpg,1000,1.4385,0,6627,1001,feet,jsons/v1_VE1000_randls_15_rotated.json,845609,1115747,54,Woman
99,476246,DepthScenes,duration_manipulation_targetAtFixation,jsons/v1_VE1000_randls_15_rotated.json,http://54.235.29.9/FacialAge/BNav_EC2/DepthDuration/v2_depth_duration_MTurk/v2_DepthDuration_HTML.html#231,231,1920,961,1920,1080,8-29-2022,13-55-24,100,depth_duration_stimuli/001815_2014-06-26_20-52-55_260595134347_rgbf000020-resize_0/001815_2014-06-26_20-52-55_260595134347_rgbf000020-resize_0-target.png,1000,3.3865,10,3606,999,feet,jsons/v1_VE1000_randls_15_rotated.json,845609,1115747,54,Woman
100,476246,DepthScenes,duration_manipulation_targetAtFixation,jsons/v1_VE1000_randls_15_rotated.json,http://54.235.29.9/FacialAge/BNav_EC2/DepthDuration/v2_depth_duration_MTurk/v2_DepthDuration_HTML.html#231,231,1920,961,1920,1080,8-29-2022,13-55-24,101,depth_duration_stimuli/001808_2014-06-26_20-50-58_260595134347_rgbf000029-resize_1/001808_2014-06-26_20-50-58_260595134347_rgbf000029-resize_1-target.png,1000,4.249,11,3775,999,feet,jsons/v1_VE1000_randls_15_rotated.json,845609,1115747,54,Woman
101,476246,DepthScenes,duration_manipulation_targetAtFixation,jsons/v1_VE1000_randls_15_rotated.json,http://54.235.29.9/FacialAge/BNav_EC2/DepthDuration/v2_depth_duration_MTurk/v2_DepthDuration_HTML.html#231,231,1920,961,1920,1080,8-29-2022,13-55-24,102,depth_duration_stimuli/000549_2014-06-08_22-10-24_260595134347_rgbf000247-resize_3/000549_2014-06-08_22-10-24_260595134347_rgbf000247-resize_3-target.png,1000,1.841,0,7890,1000,feet,jsons/v1_VE1000_randls_15_rotated.json,845609,1115747,54,Woman
102,476246,DepthScenes,duration_manipulation_targetAtFixation,jsons/v1_VE1000_randls_15_rotated.json,http://54.235.29.9/FacialAge/BNav_EC2/DepthDuration/v2_depth_duration_MTurk/v2_DepthDuration_HTML.html#231,231,1920,961,1920,1080,8-29-2022,13-55-24,103,depth_duration_stimuli/001055_2014-06-08_18-45-35_260595134347_rgbf000111-resize_4/001055_2014-06-08_18-45-35_260595134347_rgbf000111-resize_4-target.png,1000,2.4290000000000003,7,5186,1000,feet,jsons/v1_VE1000_randls_15_rotated.json,845609,1115747,54,Woman
103,476246,DepthScenes,duration_manipulation_targetAtFixation,jsons/v1_VE1000_randls_15_rotated.json,http://54.235.29.9/FacialAge/BNav_EC2/DepthDuration/v2_depth_duration_MTurk/v2_DepthDuration_HTML.html#231,231,1920,961,1920,1080,8-29-2022,13-55-24,104,depth_duration_stimuli/002949_2014-06-26_15-57-42_094959634447_rgbf000079-resize_1/002949_2014-06-26_15-57-42_094959634447_rgbf000079-resize_1-target.png,1000,1.8915,4,4977,999,feet,jsons/v1_VE1000_randls_15_rotated.json,845609,1115747,54,Woman
104,476246,DepthScenes,duration_manipulation_targetAtFixation,jsons/v1_VE1000_randls_15_rotated.json,http://54.235.29.9/FacialAge/BNav_EC2/DepthDuration/v2_depth_duration_MTurk/v2_DepthDuration_HTML.html#231,231,1920,961,1920,1080,8-29-2022,13-55-24,105,depth_duration_stimuli/000522_2014-06-08_13-35-06_260595134347_rgbf000244-resize_1/000522_2014-06-08_13-35-06_260595134347_rgbf000244-resize_1-target.png,1000,2.3715,2,3405,999,feet,jsons/v1_VE1000_randls_15_rotated.json,845609,1115747,54,Woman
105,476246,DepthScenes,duration_manipulation_targetAtFixation,jsons/v1_VE1000_randls_15_rotated.json,http://54.235.29.9/FacialAge/BNav_EC2/DepthDuration/v2_depth_duration_MTurk/v2_DepthDuration_HTML.html#231,231,1920,961,1920,1080,8-29-2022,13-55-24,106,depth_duration_stimuli/001584_2014-06-20_11-07-43_260595134347_rgbf000002-resize_1/001584_2014-06-20_11-07-43_260595134347_rgbf000002-resize_1-target.png,1000,3.53,6,3867,1000,feet,jsons/v1_VE1000_randls_15_rotated.json,845609,1115747,54,Woman
106,476246,DepthScenes,duration_manipulation_targetAtFixation,jsons/v1_VE1000_randls_15_rotated.json,http://54.235.29.9/FacialAge/BNav_EC2/DepthDuration/v2_depth_duration_MTurk/v2_DepthDuration_HTML.html#231,231,1920,961,1920,1080,8-29-2022,13-55-24,107,depth_duration_stimuli/003621_2014-05-23_18-06-08_094959634447_rgbf000101-resize_1/003621_2014-05-23_18-06-08_094959634447_rgbf000101-resize_1-target.png,1000,3.9835,8,3475,999,feet,jsons/v1_VE1000_randls_15_rotated.json,845609,1115747,54,Woman
107,476246,DepthScenes,duration_manipulation_targetAtFixation,jsons/v1_VE1000_randls_15_rotated.json,http://54.235.29.9/FacialAge/BNav_EC2/DepthDuration/v2_depth_duration_MTurk/v2_DepthDuration_HTML.html#231,231,1920,961,1920,1080,8-29-2022,13-55-24,108,depth_duration_stimuli/002637_2014-06-24_14-51-13_094959634447_rgbf000066-resize_4/002637_2014-06-24_14-51-13_094959634447_rgbf000066-resize_4-target.png,1000,1.9955,6,3967,1001,feet,jsons/v1_VE1000_randls_15_rotated.json,845609,1115747,54,Woman
108,476246,DepthScenes,duration_manipulation_targetAtFixation,jsons/v1_VE1000_randls_15_rotated.json,http://54.235.29.9/FacialAge/BNav_EC2/DepthDuration/v2_depth_duration_MTurk/v2_DepthDuration_HTML.html#231,231,1920,961,1920,1080,8-29-2022,13-55-24,109,depth_duration_stimuli/003534_2014-05-22_15-06-10_094959634447_rgbf000102-resize_4/003534_2014-05-22_15-06-10_094959634447_rgbf000102-resize_4-target.png,1000,1.426,2,3381,999,feet,jsons/v1_VE1000_randls_15_rotated.json,845609,1115747,54,Woman
109,476246,DepthScenes,duration_manipulation_targetAtFixation,jsons/v1_VE1000_randls_15_rotated.json,http://54.235.29.9/FacialAge/BNav_EC2/DepthDuration/v2_depth_duration_MTurk/v2_DepthDuration_HTML.html#231,231,1920,961,1920,1080,8-29-2022,13-55-24,110,depth_duration_stimuli/003495_2014-05-21_16-01-51_094959634447_rgbf000100-resize_3/003495_2014-05-21_16-01-51_094959634447_rgbf000100-resize_3-target.png,1000,1.6255,3,4152,984,feet,jsons/v1_VE1000_randls_15_rotated.json,845609,1115747,54,Woman
110,476246,DepthScenes,duration_manipulation_targetAtFixation,jsons/v1_VE1000_randls_15_rotated.json,http://54.235.29.9/FacialAge/BNav_EC2/DepthDuration/v2_depth_duration_MTurk/v2_DepthDuration_HTML.html#231,231,1920,961,1920,1080,8-29-2022,13-55-24,111,depth_duration_stimuli/001244_2014-06-17_16-47-45_260595134347_rgbf000030-resize_4/001244_2014-06-17_16-47-45_260595134347_rgbf000030-resize_4-target.png,1000,2.0425,5,3392,1000,feet,jsons/v1_VE1000_randls_15_rotated.json,845609,1115747,54,Woman
111,476246,DepthScenes,duration_manipulation_targetAtFixation,jsons/v1_VE1000_randls_15_rotated.json,http://54.235.29.9/FacialAge/BNav_EC2/DepthDuration/v2_depth_duration_MTurk/v2_DepthDuration_HTML.html#231,231,1920,961,1920,1080,8-29-2022,13-55-24,112,depth_duration_stimuli/000665_2014-06-09_20-42-35_260595134347_rgbf000110-resize_1/000665_2014-06-09_20-42-35_260595134347_rgbf000110-resize_1-target.png,1000,3.057,7,4174,1000,feet,jsons/v1_VE1000_randls_15_rotated.json,845609,1115747,54,Woman
112,476246,DepthScenes,duration_manipulation_targetAtFixation,jsons/v1_VE1000_randls_15_rotated.json,http://54.235.29.9/FacialAge/BNav_EC2/DepthDuration/v2_depth_duration_MTurk/v2_DepthDuration_HTML.html#231,231,1920,961,1920,1080,8-29-2022,13-55-24,113,depth_duration_stimuli/001150_2014-06-17_15-27-34_260595134347_rgbf000108-resize_2/001150_2014-06-17_15-27-34_260595134347_rgbf000108-resize_2-target.png,1000,4.0325,8,7349,1000,feet,jsons/v1_VE1000_randls_15_rotated.json,845609,1115747,54,Woman
113,476246,DepthScenes,duration_manipulation_targetAtFixation,jsons/v1_VE1000_randls_15_rotated.json,http://54.235.29.9/FacialAge/BNav_EC2/DepthDuration/v2_depth_duration_MTurk/v2_DepthDuration_HTML.html#231,231,1920,961,1920,1080,8-29-2022,13-55-24,114,depth_duration_stimuli/002323_2014-06-28_20-01-54_260595134347_rgbf000051-resize_4/002323_2014-06-28_20-01-54_260595134347_rgbf000051-resize_4-target.png,1000,3.7310000000000003,9,3986,1000,feet,jsons/v1_VE1000_randls_15_rotated.json,845609,1115747,54,Woman
114,476246,DepthScenes,duration_manipulation_targetAtFixation,jsons/v1_VE1000_randls_15_rotated.json,http://54.235.29.9/FacialAge/BNav_EC2/DepthDuration/v2_depth_duration_MTurk/v2_DepthDuration_HTML.html#231,231,1920,961,1920,1080,8-29-2022,13-55-24,115,depth_duration_stimuli/000917_2014-06-09_22-45-29_260595134347_rgbf000149-resize_3/000917_2014-06-09_22-45-29_260595134347_rgbf000149-resize_3-target.png,1000,4.1865,8,3984,1000,feet,jsons/v1_VE1000_randls_15_rotated.json,845609,1115747,54,Woman
115,476246,DepthScenes,duration_manipulation_targetAtFixation,jsons/v1_VE1000_randls_15_rotated.json,http://54.235.29.9/FacialAge/BNav_EC2/DepthDuration/v2_depth_duration_MTurk/v2_DepthDuration_HTML.html#231,231,1920,961,1920,1080,8-29-2022,13-55-24,116,depth_duration_stimuli/002678_2014-06-13_16-15-32_094959634447_rgbf000151-resize_6/002678_2014-06-13_16-15-32_094959634447_rgbf000151-resize_6-target.png,1000,2.1830000000000003,6,6985,1000,feet,jsons/v1_VE1000_randls_15_rotated.json,845609,1115747,54,Woman
116,476246,DepthScenes,duration_manipulation_targetAtFixation,jsons/v1_VE1000_randls_15_rotated.json,http://54.235.29.9/FacialAge/BNav_EC2/DepthDuration/v2_depth_duration_MTurk/v2_DepthDuration_HTML.html#231,231,1920,961,1920,1080,8-29-2022,13-55-24,117,depth_duration_stimuli/000368_2014-06-09_15-53-01_260595134347_rgbf000155-resize_2/000368_2014-06-09_15-53-01_260595134347_rgbf000155-resize_2-target.png,1000,2.4859999999999998,5,6112,999,feet,jsons/v1_VE1000_randls_15_rotated.json,845609,1115747,54,Woman
117,476246,DepthScenes,duration_manipulation_targetAtFixation,jsons/v1_VE1000_randls_15_rotated.json,http://54.235.29.9/FacialAge/BNav_EC2/DepthDuration/v2_depth_duration_MTurk/v2_DepthDuration_HTML.html#231,231,1920,961,1920,1080,8-29-2022,13-55-24,118,depth_duration_stimuli/002340_2014-06-28_20-05-46_260595134347_rgbf000113-resize_0/002340_2014-06-28_20-05-46_260595134347_rgbf000113-resize_0-target.png,1000,2.4735,6,5029,998,feet,jsons/v1_VE1000_randls_15_rotated.json,845609,1115747,54,Woman
118,476246,DepthScenes,duration_manipulation_targetAtFixation,jsons/v1_VE1000_randls_15_rotated.json,http://54.235.29.9/FacialAge/BNav_EC2/DepthDuration/v2_depth_duration_MTurk/v2_DepthDuration_HTML.html#231,231,1920,961,1920,1080,8-29-2022,13-55-24,119,depth_duration_stimuli/001016_2014-06-09_16-16-10_260595134347_rgbf000112-resize_5/001016_2014-06-09_16-16-10_260595134347_rgbf000112-resize_5-target.png,1000,1.6565,5,4999,1000,feet,jsons/v1_VE1000_randls_15_rotated.json,845609,1115747,54,Woman
119,476246,DepthScenes,duration_manipulation_targetAtFixation,jsons/v1_VE1000_randls_15_rotated.json,http://54.235.29.9/FacialAge/BNav_EC2/DepthDuration/v2_depth_duration_MTurk/v2_DepthDuration_HTML.html#231,231,1920,961,1920,1080,8-29-2022,13-55-24,120,depth_duration_stimuli/000787_2014-06-08_22-33-53_260595134347_rgbf000175-resize_1/000787_2014-06-08_22-33-53_260595134347_rgbf000175-resize-original.jpg,1000,4.784,0,3852,1000,feet,jsons/v1_VE1000_randls_15_rotated.json,845609,1115747,54,Woman
120,476246,DepthScenes,duration_manipulation_targetAtFixation,jsons/v1_VE1000_randls_15_rotated.json,http://54.235.29.9/FacialAge/BNav_EC2/DepthDuration/v2_depth_duration_MTurk/v2_DepthDuration_HTML.html#231,231,1920,961,1920,1080,8-29-2022,13-55-24,121,depth_duration_stimuli/003079_2014-06-15_15-18-20_094959634447_rgbf000152-resize_8/003079_2014-06-15_15-18-20_094959634447_rgbf000152-resize_8-target.png,1000,2.8775,7,4244,999,feet,jsons/v1_VE1000_randls_15_rotated.json,845609,1115747,54,Woman
121,476246,DepthScenes,duration_manipulation_targetAtFixation,jsons/v1_VE1000_randls_15_rotated.json,http://54.235.29.9/FacialAge/BNav_EC2/DepthDuration/v2_depth_duration_MTurk/v2_DepthDuration_HTML.html#231,231,1920,961,1920,1080,8-29-2022,13-55-24,122,depth_duration_stimuli/000506_2014-06-08_23-21-00_260595134347_rgbf000070-resize_7/000506_2014-06-08_23-21-00_260595134347_rgbf000070-resize_7-target.png,1000,4.0585,8,3336,998,feet,jsons/v1_VE1000_randls_15_rotated.json,845609,1115747,54,Woman
122,476246,DepthScenes,duration_manipulation_targetAtFixation,jsons/v1_VE1000_randls_15_rotated.json,http://54.235.29.9/FacialAge/BNav_EC2/DepthDuration/v2_depth_duration_MTurk/v2_DepthDuration_HTML.html#231,231,1920,961,1920,1080,8-29-2022,13-55-24,123,depth_duration_stimuli/003129_2014-05-12_10-48-10_094959634447_rgbf000100-resize_0/003129_2014-05-12_10-48-10_094959634447_rgbf000100-resize_0-target.png,1000,4.9305,10,3767,999,feet,jsons/v1_VE1000_randls_15_rotated.json,845609,1115747,54,Woman
123,476246,DepthScenes,duration_manipulation_targetAtFixation,jsons/v1_VE1000_randls_15_rotated.json,http://54.235.29.9/FacialAge/BNav_EC2/DepthDuration/v2_depth_duration_MTurk/v2_DepthDuration_HTML.html#231,231,1920,961,1920,1080,8-29-2022,13-55-24,124,depth_duration_stimuli/000414_2014-06-04_19-49-13_260595134347_rgbf000044-resize_0/000414_2014-06-04_19-49-13_260595134347_rgbf000044-resize_0-target.png,1000,4.329,11,3992,999,feet,jsons/v1_VE1000_randls_15_rotated.json,845609,1115747,54,Woman
124,476246,DepthScenes,duration_manipulation_targetAtFixation,jsons/v1_VE1000_randls_15_rotated.json,http://54.235.29.9/FacialAge/BNav_EC2/DepthDuration/v2_depth_duration_MTurk/v2_DepthDuration_HTML.html#231,231,1920,961,1920,1080,8-29-2022,13-55-24,125,depth_duration_stimuli/002875_2014-06-01_15-19-00_094959634447_rgbf000151-resize_1/002875_2014-06-01_15-19-00_094959634447_rgbf000151-resize_1-target.png,1000,1.9675,5,4215,1000,feet,jsons/v1_VE1000_randls_15_rotated.json,845609,1115747,54,Woman
125,476246,DepthScenes,duration_manipulation_targetAtFixation,jsons/v1_VE1000_randls_15_rotated.json,http://54.235.29.9/FacialAge/BNav_EC2/DepthDuration/v2_depth_duration_MTurk/v2_DepthDuration_HTML.html#231,231,1920,961,1920,1080,8-29-2022,13-55-24,126,depth_duration_stimuli/001011_2014-06-08_23-18-54_260595134347_rgbf000044-resize_4/001011_2014-06-08_23-18-54_260595134347_rgbf000044-resize_4-target.png,1000,2.4730000000000003,6,4083,1000,feet,jsons/v1_VE1000_randls_15_rotated.json,845609,1115747,54,Woman
126,476246,DepthScenes,duration_manipulation_targetAtFixation,jsons/v1_VE1000_randls_15_rotated.json,http://54.235.29.9/FacialAge/BNav_EC2/DepthDuration/v2_depth_duration_MTurk/v2_DepthDuration_HTML.html#231,231,1920,961,1920,1080,8-29-2022,13-55-24,127,depth_duration_stimuli/003423_2014-05-21_10-23-26_094959634447_rgbf002665-resize_2/003423_2014-05-21_10-23-26_094959634447_rgbf002665-resize_2-target.png,1000,3.2575,7,3416,999,feet,jsons/v1_VE1000_randls_15_rotated.json,845609,1115747,54,Woman
127,476246,DepthScenes,duration_manipulation_targetAtFixation,jsons/v1_VE1000_randls_15_rotated.json,http://54.235.29.9/FacialAge/BNav_EC2/DepthDuration/v2_depth_duration_MTurk/v2_DepthDuration_HTML.html#231,231,1920,961,1920,1080,8-29-2022,13-55-24,128,depth_duration_stimuli/002905_2014-06-03_18-04-43_094959634447_rgbf000151-resize_2/002905_2014-06-03_18-04-43_094959634447_rgbf000151-resize_2-target.png,1000,2.0295,5,3229,972,feet,jsons/v1_VE1000_randls_15_rotated.json,845609,1115747,54,Woman
128,476246,DepthScenes,duration_manipulation_targetAtFixation,jsons/v1_VE1000_randls_15_rotated.json,http://54.235.29.9/FacialAge/BNav_EC2/DepthDuration/v2_depth_duration_MTurk/v2_DepthDuration_HTML.html#231,231,1920,961,1920,1080,8-29-2022,13-55-24,129,depth_duration_stimuli/002209_2014-06-28_18-36-10_260595134347_rgbf000051-resize_1/002209_2014-06-28_18-36-10_260595134347_rgbf000051-resize_1-target.png,1000,2.057,4,5435,985,feet,jsons/v1_VE1000_randls_15_rotated.json,845609,1115747,54,Woman
129,476246,DepthScenes,duration_manipulation_targetAtFixation,jsons/v1_VE1000_randls_15_rotated.json,http://54.235.29.9/FacialAge/BNav_EC2/DepthDuration/v2_depth_duration_MTurk/v2_DepthDuration_HTML.html#231,231,1920,961,1920,1080,8-29-2022,13-55-24,130,depth_duration_stimuli/002763_2014-06-22_19-13-10_094959634447_rgbf000075-resize_4/002763_2014-06-22_19-13-10_094959634447_rgbf000075-resize_4-target.png,1000,1.68375,5,3950,999,feet,jsons/v1_VE1000_randls_15_rotated.json,845609,1115747,54,Woman
130,476246,DepthScenes,duration_manipulation_targetAtFixation,jsons/v1_VE1000_randls_15_rotated.json,http://54.235.29.9/FacialAge/BNav_EC2/DepthDuration/v2_depth_duration_MTurk/v2_DepthDuration_HTML.html#231,231,1920,961,1920,1080,8-29-2022,13-55-24,131,depth_duration_stimuli/001617_2014-06-20_11-35-32_260595134347_rgbf000066-resize_1/001617_2014-06-20_11-35-32_260595134347_rgbf000066-resize_1-target.png,1000,3.7910000000000004,8,3622,1000,feet,jsons/v1_VE1000_randls_15_rotated.json,845609,1115747,54,Woman
131,476246,DepthScenes,duration_manipulation_targetAtFixation,jsons/v1_VE1000_randls_15_rotated.json,http://54.235.29.9/FacialAge/BNav_EC2/DepthDuration/v2_depth_duration_MTurk/v2_DepthDuration_HTML.html#231,231,1920,961,1920,1080,8-29-2022,13-55-24,132,depth_duration_stimuli/001806_2014-06-26_20-50-20_260595134347_rgbf000091-resize_1/001806_2014-06-26_20-50-20_260595134347_rgbf000091-resize_1-target.png,1000,2.7305,4,3506,998,feet,jsons/v1_VE1000_randls_15_rotated.json,845609,1115747,54,Woman
132,476246,DepthScenes,duration_manipulation_targetAtFixation,jsons/v1_VE1000_randls_15_rotated.json,http://54.235.29.9/FacialAge/BNav_EC2/DepthDuration/v2_depth_duration_MTurk/v2_DepthDuration_HTML.html#231,231,1920,961,1920,1080,8-29-2022,13-55-24,133,depth_duration_stimuli/000742_2014-06-08_18-48-09_260595134347_rgbf000164-resize_4/000742_2014-06-08_18-48-09_260595134347_rgbf000164-resize_4-target.png,1000,4.632,8,3189,1000,feet,jsons/v1_VE1000_randls_15_rotated.json,845609,1115747,54,Woman
133,476246,DepthScenes,duration_manipulation_targetAtFixation,jsons/v1_VE1000_randls_15_rotated.json,http://54.235.29.9/FacialAge/BNav_EC2/DepthDuration/v2_depth_duration_MTurk/v2_DepthDuration_HTML.html#231,231,1920,961,1920,1080,8-29-2022,13-55-24,134,depth_duration_stimuli/001066_2014-06-08_22-03-20_260595134347_rgbf000066-resize_4/001066_2014-06-08_22-03-20_260595134347_rgbf000066-resize_4-target.png,1000,4.2330000000000005,12,3643,991,feet,jsons/v1_VE1000_randls_15_rotated.json,845609,1115747,54,Woman
134,476246,DepthScenes,duration_manipulation_targetAtFixation,jsons/v1_VE1000_randls_15_rotated.json,http://54.235.29.9/FacialAge/BNav_EC2/DepthDuration/v2_depth_duration_MTurk/v2_DepthDuration_HTML.html#231,231,1920,961,1920,1080,8-29-2022,13-55-24,135,depth_duration_stimuli/000375_2014-06-08_11-17-29_260595134347_rgbf000133-resize_2/000375_2014-06-08_11-17-29_260595134347_rgbf000133-resize-original.jpg,1000,4.718,0,3550,999,feet,jsons/v1_VE1000_randls_15_rotated.json,845609,1115747,54,Woman
135,476246,DepthScenes,duration_manipulation_targetAtFixation,jsons/v1_VE1000_randls_15_rotated.json,http://54.235.29.9/FacialAge/BNav_EC2/DepthDuration/v2_depth_duration_MTurk/v2_DepthDuration_HTML.html#231,231,1920,961,1920,1080,8-29-2022,13-55-24,136,depth_duration_stimuli/000502_2014-06-08_23-02-32_260595134347_rgbf000063-resize_4/000502_2014-06-08_23-02-32_260595134347_rgbf000063-resize_4-target.png,1000,2.431,4,3514,999,feet,jsons/v1_VE1000_randls_15_rotated.json,845609,1115747,54,Woman
136,476246,DepthScenes,duration_manipulation_targetAtFixation,jsons/v1_VE1000_randls_15_rotated.json,http://54.235.29.9/FacialAge/BNav_EC2/DepthDuration/v2_depth_duration_MTurk/v2_DepthDuration_HTML.html#231,231,1920,961,1920,1080,8-29-2022,13-55-24,137,depth_duration_stimuli/001199_2014-06-17_16-03-48_260595134347_rgbf000077-resize_0/001199_2014-06-17_16-03-48_260595134347_rgbf000077-resize_0-target.png,1000,3.4375,9,4253,1000,feet,jsons/v1_VE1000_randls_15_rotated.json,845609,1115747,54,Woman
137,476246,DepthScenes,duration_manipulation_targetAtFixation,jsons/v1_VE1000_randls_15_rotated.json,http://54.235.29.9/FacialAge/BNav_EC2/DepthDuration/v2_depth_duration_MTurk/v2_DepthDuration_HTML.html#231,231,1920,961,1920,1080,8-29-2022,13-55-24,138,depth_duration_stimuli/002657_2014-06-13_15-29-54_094959634447_rgbf000150-resize_1/002657_2014-06-13_15-29-54_094959634447_rgbf000150-resize_1-target.png,1000,4.919,8,3885,999,feet,jsons/v1_VE1000_randls_15_rotated.json,845609,1115747,54,Woman
138,476246,DepthScenes,duration_manipulation_targetAtFixation,jsons/v1_VE1000_randls_15_rotated.json,http://54.235.29.9/FacialAge/BNav_EC2/DepthDuration/v2_depth_duration_MTurk/v2_DepthDuration_HTML.html#231,231,1920,961,1920,1080,8-29-2022,13-55-24,139,depth_duration_stimuli/002375_2014-06-28_20-13-44_260595134347_rgbf000032-resize_1/002375_2014-06-28_20-13-44_260595134347_rgbf000032-resize_1-target.png,1000,4.0175,6,3513,1008,feet,jsons/v1_VE1000_randls_15_rotated.json,845609,1115747,54,Woman
139,476246,DepthScenes,duration_manipulation_targetAtFixation,jsons/v1_VE1000_randls_15_rotated.json,http://54.235.29.9/FacialAge/BNav_EC2/DepthDuration/v2_depth_duration_MTurk/v2_DepthDuration_HTML.html#231,231,1920,961,1920,1080,8-29-2022,13-55-24,140,depth_duration_stimuli/003083_2014-06-15_15-21-03_094959634447_rgbf000063-resize_1/003083_2014-06-15_15-21-03_094959634447_rgbf000063-resize_1-target.png,1000,4.1405,10,5130,1000,feet,jsons/v1_VE1000_randls_15_rotated.json,845609,1115747,54,Woman
140,476246,DepthScenes,duration_manipulation_targetAtFixation,jsons/v1_VE1000_randls_15_rotated.json,http://54.235.29.9/FacialAge/BNav_EC2/DepthDuration/v2_depth_duration_MTurk/v2_DepthDuration_HTML.html#231,231,1920,961,1920,1080,8-29-2022,13-55-24,141,depth_duration_stimuli/000486_2014-06-09_20-47-20_260595134347_rgbf000143-resize_2/000486_2014-06-09_20-47-20_260595134347_rgbf000143-resize_2-target.png,1000,4.8325,10,3322,999,feet,jsons/v1_VE1000_randls_15_rotated.json,845609,1115747,54,Woman
141,476246,DepthScenes,duration_manipulation_targetAtFixation,jsons/v1_VE1000_randls_15_rotated.json,http://54.235.29.9/FacialAge/BNav_EC2/DepthDuration/v2_depth_duration_MTurk/v2_DepthDuration_HTML.html#231,231,1920,961,1920,1080,8-29-2022,13-55-24,142,depth_duration_stimuli/003010_2014-06-15_12-54-35_094959634447_rgbf000112-resize_0/003010_2014-06-15_12-54-35_094959634447_rgbf000112-resize_0-target.png,1000,3.1185,10,3552,1007,feet,jsons/v1_VE1000_randls_15_rotated.json,845609,1115747,54,Woman
142,476246,DepthScenes,duration_manipulation_targetAtFixation,jsons/v1_VE1000_randls_15_rotated.json,http://54.235.29.9/FacialAge/BNav_EC2/DepthDuration/v2_depth_duration_MTurk/v2_DepthDuration_HTML.html#231,231,1920,961,1920,1080,8-29-2022,13-55-24,143,depth_duration_stimuli/001810_2014-06-26_20-51-35_260595134347_rgbf000040-resize_3/001810_2014-06-26_20-51-35_260595134347_rgbf000040-resize_3-target.png,1000,2.2525,4,3653,1000,feet,jsons/v1_VE1000_randls_15_rotated.json,845609,1115747,54,Woman
143,476246,DepthScenes,duration_manipulation_targetAtFixation,jsons/v1_VE1000_randls_15_rotated.json,http://54.235.29.9/FacialAge/BNav_EC2/DepthDuration/v2_depth_duration_MTurk/v2_DepthDuration_HTML.html#231,231,1920,961,1920,1080,8-29-2022,13-55-24,144,depth_duration_stimuli/000866_2014-06-09_20-45-42_260595134347_rgbf000139-resize_1/000866_2014-06-09_20-45-42_260595134347_rgbf000139-resize_1-target.png,1000,3.2155,5,3489,1000,feet,jsons/v1_VE1000_randls_15_rotated.json,845609,1115747,54,Woman
144,476246,DepthScenes,duration_manipulation_targetAtFixation,jsons/v1_VE1000_randls_15_rotated.json,http://54.235.29.9/FacialAge/BNav_EC2/DepthDuration/v2_depth_duration_MTurk/v2_DepthDuration_HTML.html#231,231,1920,961,1920,1080,8-29-2022,13-55-24,145,depth_duration_stimuli/002989_2014-06-15_12-25-03_094959634447_rgbf000150-resize_3/002989_2014-06-15_12-25-03_094959634447_rgbf000150-resize_3-target.png,1000,4.1975,10,3954,1000,feet,jsons/v1_VE1000_randls_15_rotated.json,845609,1115747,54,Woman
145,476246,DepthScenes,duration_manipulation_targetAtFixation,jsons/v1_VE1000_randls_15_rotated.json,http://54.235.29.9/FacialAge/BNav_EC2/DepthDuration/v2_depth_duration_MTurk/v2_DepthDuration_HTML.html#231,231,1920,961,1920,1080,8-29-2022,13-55-24,146,depth_duration_stimuli/002568_2014-06-24_13-59-21_094959634447_rgbf000062-resize_4/002568_2014-06-24_13-59-21_094959634447_rgbf000062-resize_4-target.png,1000,3.015,6,3913,1000,feet,jsons/v1_VE1000_randls_15_rotated.json,845609,1115747,54,Woman
146,476246,DepthScenes,duration_manipulation_targetAtFixation,jsons/v1_VE1000_randls_15_rotated.json,http://54.235.29.9/FacialAge/BNav_EC2/DepthDuration/v2_depth_duration_MTurk/v2_DepthDuration_HTML.html#231,231,1920,961,1920,1080,8-29-2022,13-55-24,147,depth_duration_stimuli/003492_2014-05-21_15-50-55_094959634447_rgbf000828-resize_1/003492_2014-05-21_15-50-55_094959634447_rgbf000828-resize_1-target.png,1000,4.06875,9,3349,990,feet,jsons/v1_VE1000_randls_15_rotated.json,845609,1115747,54,Woman
147,476246,DepthScenes,duration_manipulation_targetAtFixation,jsons/v1_VE1000_randls_15_rotated.json,http://54.235.29.9/FacialAge/BNav_EC2/DepthDuration/v2_depth_duration_MTurk/v2_DepthDuration_HTML.html#231,231,1920,961,1920,1080,8-29-2022,13-55-24,148,depth_duration_stimuli/003081_2014-06-15_15-19-16_094959634447_rgbf000150-resize_1/003081_2014-06-15_15-19-16_094959634447_rgbf000150-resize_1-target.png,1000,3.9125,9,3713,999,feet,jsons/v1_VE1000_randls_15_rotated.json,845609,1115747,54,Woman
148,476246,DepthScenes,duration_manipulation_targetAtFixation,jsons/v1_VE1000_randls_15_rotated.json,http://54.235.29.9/FacialAge/BNav_EC2/DepthDuration/v2_depth_duration_MTurk/v2_DepthDuration_HTML.html#231,231,1920,961,1920,1080,8-29-2022,13-55-24,149,depth_duration_stimuli/001417_2014-06-19_16-25-36_260595134347_rgbf000115-resize_5/001417_2014-06-19_16-25-36_260595134347_rgbf000115-resize_5-target.png,1000,4.6255,8,8160,1000,feet,jsons/v1_VE1000_randls_15_rotated.json,845609,1115747,54,Woman
149,476246,DepthScenes,duration_manipulation_targetAtFixation,jsons/v1_VE1000_randls_15_rotated.json,http://54.235.29.9/FacialAge/BNav_EC2/DepthDuration/v2_depth_duration_MTurk/v2_DepthDuration_HTML.html#231,231,1920,961,1920,1080,8-29-2022,13-55-24,150,depth_duration_stimuli/000635_2014-06-08_16-38-42_260595134347_rgbf000106-resize_1/000635_2014-06-08_16-38-42_260595134347_rgbf000106-resize_1-target.png,1000,2.074,7,5009,991,feet,jsons/v1_VE1000_randls_15_rotated.json,845609,1115747,54,Woman
150,476246,DepthScenes,duration_manipulation_targetAtFixation,jsons/v1_VE1000_randls_15_rotated.json,http://54.235.29.9/FacialAge/BNav_EC2/DepthDuration/v2_depth_duration_MTurk/v2_DepthDuration_HTML.html#231,231,1920,961,1920,1080,8-29-2022,13-55-24,151,depth_duration_stimuli/002279_2014-06-28_18-55-32_260595134347_rgbf000040-resize_5/002279_2014-06-28_18-55-32_260595134347_rgbf000040-resize_5-target.png,1000,1.5043333333333,4,3314,999,feet,jsons/v1_VE1000_randls_15_rotated.json,845609,1115747,54,Woman
151,476246,DepthScenes,duration_manipulation_targetAtFixation,jsons/v1_VE1000_randls_15_rotated.json,http://54.235.29.9/FacialAge/BNav_EC2/DepthDuration/v2_depth_duration_MTurk/v2_DepthDuration_HTML.html#231,231,1920,961,1920,1080,8-29-2022,13-55-24,152,depth_duration_stimuli/000569_2014-06-09_22-51-47_260595134347_rgbf000141-resize_3/000569_2014-06-09_22-51-47_260595134347_rgbf000141-resize-original.jpg,1000,4.512,0,3413,1000,feet,jsons/v1_VE1000_randls_15_rotated.json,845609,1115747,54,Woman
152,476246,DepthScenes,duration_manipulation_targetAtFixation,jsons/v1_VE1000_randls_15_rotated.json,http://54.235.29.9/FacialAge/BNav_EC2/DepthDuration/v2_depth_duration_MTurk/v2_DepthDuration_HTML.html#231,231,1920,961,1920,1080,8-29-2022,13-55-24,153,depth_duration_stimuli/002414_2014-06-28_20-24-58_260595134347_rgbf000067-resize_4/002414_2014-06-28_20-24-58_260595134347_rgbf000067-resize_4-target.png,1000,4.363,8,5006,1000,feet,jsons/v1_VE1000_randls_15_rotated.json,845609,1115747,54,Woman
153,476246,DepthScenes,duration_manipulation_targetAtFixation,jsons/v1_VE1000_randls_15_rotated.json,http://54.235.29.9/FacialAge/BNav_EC2/DepthDuration/v2_depth_duration_MTurk/v2_DepthDuration_HTML.html#231,231,1920,961,1920,1080,8-29-2022,13-55-24,154,depth_duration_stimuli/000773_2014-06-08_22-24-54_260595134347_rgbf000093-resize_1/000773_2014-06-08_22-24-54_260595134347_rgbf000093-resize_1-target.png,1000,4.973,8,3408,1000,feet,jsons/v1_VE1000_randls_15_rotated.json,845609,1115747,54,Woman
154,476246,DepthScenes,duration_manipulation_targetAtFixation,jsons/v1_VE1000_randls_15_rotated.json,http://54.235.29.9/FacialAge/BNav_EC2/DepthDuration/v2_depth_duration_MTurk/v2_DepthDuration_HTML.html#231,231,1920,961,1920,1080,8-29-2022,13-55-24,155,depth_duration_stimuli/002995_2014-06-15_12-31-26_094959634447_rgbf000150-resize_1/002995_2014-06-15_12-31-26_094959634447_rgbf000150-resize_1-target.png,1000,3.8360000000000003,10,5881,980,feet,jsons/v1_VE1000_randls_15_rotated.json,845609,1115747,54,Woman
155,476246,DepthScenes,duration_manipulation_targetAtFixation,jsons/v1_VE1000_randls_15_rotated.json,http://54.235.29.9/FacialAge/BNav_EC2/DepthDuration/v2_depth_duration_MTurk/v2_DepthDuration_HTML.html#231,231,1920,961,1920,1080,8-29-2022,13-55-24,156,depth_duration_stimuli/002748_2014-06-22_19-07-22_094959634447_rgbf000078-resize_1/002748_2014-06-22_19-07-22_094959634447_rgbf000078-resize_1-target.png,1000,4.6705,11,4286,1000,feet,jsons/v1_VE1000_randls_15_rotated.json,845609,1115747,54,Woman
156,476246,DepthScenes,duration_manipulation_targetAtFixation,jsons/v1_VE1000_randls_15_rotated.json,http://54.235.29.9/FacialAge/BNav_EC2/DepthDuration/v2_depth_duration_MTurk/v2_DepthDuration_HTML.html#231,231,1920,961,1920,1080,8-29-2022,13-55-24,157,depth_duration_stimuli/000927_2014-06-09_16-32-30_260595134347_rgbf000123-resize_3/000927_2014-06-09_16-32-30_260595134347_rgbf000123-resize_3-target.png,1000,2.6785,6,4139,998,feet,jsons/v1_VE1000_randls_15_rotated.json,845609,1115747,54,Woman
157,476246,DepthScenes,duration_manipulation_targetAtFixation,jsons/v1_VE1000_randls_15_rotated.json,http://54.235.29.9/FacialAge/BNav_EC2/DepthDuration/v2_depth_duration_MTurk/v2_DepthDuration_HTML.html#231,231,1920,961,1920,1080,8-29-2022,13-55-24,158,depth_duration_stimuli/001110_2014-06-15_17-25-28_260595134347_rgbf000150-resize_1/001110_2014-06-15_17-25-28_260595134347_rgbf000150-resize_1-target.png,1000,1.7115,5,4408,1000,feet,jsons/v1_VE1000_randls_15_rotated.json,845609,1115747,54,Woman
158,476246,DepthScenes,duration_manipulation_targetAtFixation,jsons/v1_VE1000_randls_15_rotated.json,http://54.235.29.9/FacialAge/BNav_EC2/DepthDuration/v2_depth_duration_MTurk/v2_DepthDuration_HTML.html#231,231,1920,961,1920,1080,8-29-2022,13-55-24,159,depth_duration_stimuli/001052_2014-06-08_18-24-54_260595134347_rgbf000130-resize_1/001052_2014-06-08_18-24-54_260595134347_rgbf000130-resize_1-target.png,1000,4.1045,7,5070,999,feet,jsons/v1_VE1000_randls_15_rotated.json,845609,1115747,54,Woman
159,476246,DepthScenes,duration_manipulation_targetAtFixation,jsons/v1_VE1000_randls_15_rotated.json,http://54.235.29.9/FacialAge/BNav_EC2/DepthDuration/v2_depth_duration_MTurk/v2_DepthDuration_HTML.html#231,231,1920,961,1920,1080,8-29-2022,13-55-24,160,depth_duration_stimuli/002988_2014-06-15_12-24-20_094959634447_rgbf000150-resize_1/002988_2014-06-15_12-24-20_094959634447_rgbf000150-resize_1-target.png,1000,4.7669999999999995,11,4685,1000,feet,jsons/v1_VE1000_randls_15_rotated.json,845609,1115747,54,Woman
160,476246,DepthScenes,duration_manipulation_targetAtFixation,jsons/v1_VE1000_randls_15_rotated.json,http://54.235.29.9/FacialAge/BNav_EC2/DepthDuration/v2_depth_duration_MTurk/v2_DepthDuration_HTML.html#231,231,1920,961,1920,1080,8-29-2022,13-55-24,161,depth_duration_stimuli/001571_2014-06-20_17-21-32_260595134347_rgbf000089-resize_1/001571_2014-06-20_17-21-32_260595134347_rgbf000089-resize_1-target.png,1000,1.86,4,4522,999,feet,jsons/v1_VE1000_randls_15_rotated.json,845609,1115747,54,Woman
161,476246,DepthScenes,duration_manipulation_targetAtFixation,jsons/v1_VE1000_randls_15_rotated.json,http://54.235.29.9/FacialAge/BNav_EC2/DepthDuration/v2_depth_duration_MTurk/v2_DepthDuration_HTML.html#231,231,1920,961,1920,1080,8-29-2022,13-55-24,162,depth_duration_stimuli/002272_2014-06-28_18-53-56_260595134347_rgbf000067-resize_2/002272_2014-06-28_18-53-56_260595134347_rgbf000067-resize_2-target.png,1000,1.138,2,3327,999,feet,jsons/v1_VE1000_randls_15_rotated.json,845609,1115747,54,Woman
162,476246,DepthScenes,duration_manipulation_targetAtFixation,jsons/v1_VE1000_randls_15_rotated.json,http://54.235.29.9/FacialAge/BNav_EC2/DepthDuration/v2_depth_duration_MTurk/v2_DepthDuration_HTML.html#231,231,1920,961,1920,1080,8-29-2022,13-55-24,163,depth_duration_stimuli/002136_2014-06-25_21-18-03_260595134347_rgbf000109-resize_3/002136_2014-06-25_21-18-03_260595134347_rgbf000109-resize_3-target.png,1000,1.9569999999999999,4,3354,999,feet,jsons/v1_VE1000_randls_15_rotated.json,845609,1115747,54,Woman
163,476246,DepthScenes,duration_manipulation_targetAtFixation,jsons/v1_VE1000_randls_15_rotated.json,http://54.235.29.9/FacialAge/BNav_EC2/DepthDuration/v2_depth_duration_MTurk/v2_DepthDuration_HTML.html#231,231,1920,961,1920,1080,8-29-2022,13-55-24,164,depth_duration_stimuli/002964_2014-06-08_17-46-11_094959634447_rgbf000091-resize_4/002964_2014-06-08_17-46-11_094959634447_rgbf000091-resize_4-target.png,1000,1.6909999999999998,4,5238,999,feet,jsons/v1_VE1000_randls_15_rotated.json,845609,1115747,54,Woman
