,subjID,experimentName,versionName,sequenceName,url,selected_row,windowWidth,windowHeight,screenWidth,screenHeight,startDate,startTime,trial,stimulus,duration,actual_depth,depth_estimate,trial_RT,log_sceneDuration,unitSelection,seq_filepath,experimentTime,totalTime,age,gender
0,476475,DepthScenes,duration_manipulation_targetAtFixation,jsons/VE125_randls_75_rotated.json,http://54.235.29.9/FacialAge/BNav_EC2/DepthDuration/v2_depth_duration_MTurk/v2_DepthDuration_HTML.html#111,111,1440,821,1440,900,8-21-2022,6-47-49,1,depth_duration_stimuli/001516_2014-06-20_16-25-09_260595134347_rgbf000076-resize_2/001516_2014-06-20_16-25-09_260595134347_rgbf000076-resize_2-target.png,125,1.7445,5,2281,124,feet,jsons/VE125_randls_75_rotated.json,480385,757059,24,Man
1,476475,DepthScenes,duration_manipulation_targetAtFixation,jsons/VE125_randls_75_rotated.json,http://54.235.29.9/FacialAge/BNav_EC2/DepthDuration/v2_depth_duration_MTurk/v2_DepthDuration_HTML.html#111,111,1440,821,1440,900,8-21-2022,6-47-49,2,depth_duration_stimuli/002118_2014-06-25_20-32-08_260595134347_rgbf000078-resize_1/002118_2014-06-25_20-32-08_260595134347_rgbf000078-resize_1-target.png,125,2.6460000000000004,5,2514,126,feet,jsons/VE125_randls_75_rotated.json,480385,757059,24,Man
2,476475,DepthScenes,duration_manipulation_targetAtFixation,jsons/VE125_randls_75_rotated.json,http://54.235.29.9/FacialAge/BNav_EC2/DepthDuration/v2_depth_duration_MTurk/v2_DepthDuration_HTML.html#111,111,1440,821,1440,900,8-21-2022,6-47-49,3,depth_duration_stimuli/002414_2014-06-28_20-24-58_260595134347_rgbf000067-resize_4/002414_2014-06-28_20-24-58_260595134347_rgbf000067-resize_4-target.png,125,4.363,8,2313,122,feet,jsons/VE125_randls_75_rotated.json,480385,757059,24,Man
3,476475,DepthScenes,duration_manipulation_targetAtFixation,jsons/VE125_randls_75_rotated.json,http://54.235.29.9/FacialAge/BNav_EC2/DepthDuration/v2_depth_duration_MTurk/v2_DepthDuration_HTML.html#111,111,1440,821,1440,900,8-21-2022,6-47-49,4,depth_duration_stimuli/000773_2014-06-08_22-24-54_260595134347_rgbf000093-resize_1/000773_2014-06-08_22-24-54_260595134347_rgbf000093-resize_1-target.png,125,4.973,7,2127,123,feet,jsons/VE125_randls_75_rotated.json,480385,757059,24,Man
4,476475,DepthScenes,duration_manipulation_targetAtFixation,jsons/VE125_randls_75_rotated.json,http://54.235.29.9/FacialAge/BNav_EC2/DepthDuration/v2_depth_duration_MTurk/v2_DepthDuration_HTML.html#111,111,1440,821,1440,900,8-21-2022,6-47-49,5,depth_duration_stimuli/001617_2014-06-20_11-35-32_260595134347_rgbf000066-resize_1/001617_2014-06-20_11-35-32_260595134347_rgbf000066-resize_1-target.png,125,3.7910000000000004,6,2132,128,feet,jsons/VE125_randls_75_rotated.json,480385,757059,24,Man
5,476475,DepthScenes,duration_manipulation_targetAtFixation,jsons/VE125_randls_75_rotated.json,http://54.235.29.9/FacialAge/BNav_EC2/DepthDuration/v2_depth_duration_MTurk/v2_DepthDuration_HTML.html#111,111,1440,821,1440,900,8-21-2022,6-47-49,6,depth_duration_stimuli/001806_2014-06-26_20-50-20_260595134347_rgbf000091-resize_1/001806_2014-06-26_20-50-20_260595134347_rgbf000091-resize_1-target.png,125,2.7305,4,2126,123,feet,jsons/VE125_randls_75_rotated.json,480385,757059,24,Man
6,476475,DepthScenes,duration_manipulation_targetAtFixation,jsons/VE125_randls_75_rotated.json,http://54.235.29.9/FacialAge/BNav_EC2/DepthDuration/v2_depth_duration_MTurk/v2_DepthDuration_HTML.html#111,111,1440,821,1440,900,8-21-2022,6-47-49,7,depth_duration_stimuli/000854_2014-06-09_19-43-13_260595134347_rgbf000066-resize_0/000854_2014-06-09_19-43-13_260595134347_rgbf000066-resize_0-target.png,125,3.068,3,2211,122,feet,jsons/VE125_randls_75_rotated.json,480385,757059,24,Man
7,476475,DepthScenes,duration_manipulation_targetAtFixation,jsons/VE125_randls_75_rotated.json,http://54.235.29.9/FacialAge/BNav_EC2/DepthDuration/v2_depth_duration_MTurk/v2_DepthDuration_HTML.html#111,111,1440,821,1440,900,8-21-2022,6-47-49,8,depth_duration_stimuli/000758_2014-06-08_22-05-08_260595134347_rgbf000085-resize_0/000758_2014-06-08_22-05-08_260595134347_rgbf000085-resize_0-target.png,125,3.3810000000000002,6,2230,124,feet,jsons/VE125_randls_75_rotated.json,480385,757059,24,Man
8,476475,DepthScenes,duration_manipulation_targetAtFixation,jsons/VE125_randls_75_rotated.json,http://54.235.29.9/FacialAge/BNav_EC2/DepthDuration/v2_depth_duration_MTurk/v2_DepthDuration_HTML.html#111,111,1440,821,1440,900,8-21-2022,6-47-49,9,depth_duration_stimuli/002953_2014-06-08_17-32-18_094959634447_rgbf000059-resize_5/002953_2014-06-08_17-32-18_094959634447_rgbf000059-resize_5-target.png,125,1.551,1,2277,123,feet,jsons/VE125_randls_75_rotated.json,480385,757059,24,Man
9,476475,DepthScenes,duration_manipulation_targetAtFixation,jsons/VE125_randls_75_rotated.json,http://54.235.29.9/FacialAge/BNav_EC2/DepthDuration/v2_depth_duration_MTurk/v2_DepthDuration_HTML.html#111,111,1440,821,1440,900,8-21-2022,6-47-49,10,depth_duration_stimuli/000878_2014-06-08_22-52-45_260595134347_rgbf000045-resize_2/000878_2014-06-08_22-52-45_260595134347_rgbf000045-resize_2-target.png,125,2.092,5,2044,123,feet,jsons/VE125_randls_75_rotated.json,480385,757059,24,Man
10,476475,DepthScenes,duration_manipulation_targetAtFixation,jsons/VE125_randls_75_rotated.json,http://54.235.29.9/FacialAge/BNav_EC2/DepthDuration/v2_depth_duration_MTurk/v2_DepthDuration_HTML.html#111,111,1440,821,1440,900,8-21-2022,6-47-49,11,depth_duration_stimuli/000749_2014-06-08_21-55-06_260595134347_rgbf000070-resize_2/000749_2014-06-08_21-55-06_260595134347_rgbf000070-resize_2-target.png,125,2.331,6,1961,122,feet,jsons/VE125_randls_75_rotated.json,480385,757059,24,Man
11,476475,DepthScenes,duration_manipulation_targetAtFixation,jsons/VE125_randls_75_rotated.json,http://54.235.29.9/FacialAge/BNav_EC2/DepthDuration/v2_depth_duration_MTurk/v2_DepthDuration_HTML.html#111,111,1440,821,1440,900,8-21-2022,6-47-49,12,depth_duration_stimuli/002788_2014-06-22_19-36-03_094959634447_rgbf000088-resize_2/002788_2014-06-22_19-36-03_094959634447_rgbf000088-resize_2-target.png,125,1.6465,4,1976,123,feet,jsons/VE125_randls_75_rotated.json,480385,757059,24,Man
12,476475,DepthScenes,duration_manipulation_targetAtFixation,jsons/VE125_randls_75_rotated.json,http://54.235.29.9/FacialAge/BNav_EC2/DepthDuration/v2_depth_duration_MTurk/v2_DepthDuration_HTML.html#111,111,1440,821,1440,900,8-21-2022,6-47-49,13,depth_duration_stimuli/003129_2014-05-12_10-48-10_094959634447_rgbf000100-resize_0/003129_2014-05-12_10-48-10_094959634447_rgbf000100-resize_0-target.png,125,4.9305,4,1765,124,feet,jsons/VE125_randls_75_rotated.json,480385,757059,24,Man
13,476475,DepthScenes,duration_manipulation_targetAtFixation,jsons/VE125_randls_75_rotated.json,http://54.235.29.9/FacialAge/BNav_EC2/DepthDuration/v2_depth_duration_MTurk/v2_DepthDuration_HTML.html#111,111,1440,821,1440,900,8-21-2022,6-47-49,14,depth_duration_stimuli/000414_2014-06-04_19-49-13_260595134347_rgbf000044-resize_0/000414_2014-06-04_19-49-13_260595134347_rgbf000044-resize_0-target.png,125,4.329,3,1697,127,feet,jsons/VE125_randls_75_rotated.json,480385,757059,24,Man
14,476475,DepthScenes,duration_manipulation_targetAtFixation,jsons/VE125_randls_75_rotated.json,http://54.235.29.9/FacialAge/BNav_EC2/DepthDuration/v2_depth_duration_MTurk/v2_DepthDuration_HTML.html#111,111,1440,821,1440,900,8-21-2022,6-47-49,15,depth_duration_stimuli/000502_2014-06-08_23-02-32_260595134347_rgbf000063-resize_4/000502_2014-06-08_23-02-32_260595134347_rgbf000063-resize_4-target.png,125,2.431,6,2079,124,feet,jsons/VE125_randls_75_rotated.json,480385,757059,24,Man
15,476475,DepthScenes,duration_manipulation_targetAtFixation,jsons/VE125_randls_75_rotated.json,http://54.235.29.9/FacialAge/BNav_EC2/DepthDuration/v2_depth_duration_MTurk/v2_DepthDuration_HTML.html#111,111,1440,821,1440,900,8-21-2022,6-47-49,16,depth_duration_stimuli/001199_2014-06-17_16-03-48_260595134347_rgbf000077-resize_0/001199_2014-06-17_16-03-48_260595134347_rgbf000077-resize_0-target.png,125,3.4375,8,2396,125,feet,jsons/VE125_randls_75_rotated.json,480385,757059,24,Man
16,476475,DepthScenes,duration_manipulation_targetAtFixation,jsons/VE125_randls_75_rotated.json,http://54.235.29.9/FacialAge/BNav_EC2/DepthDuration/v2_depth_duration_MTurk/v2_DepthDuration_HTML.html#111,111,1440,821,1440,900,8-21-2022,6-47-49,17,depth_duration_stimuli/002545_2014-06-24_13-38-53_094959634447_rgbf000080-resize_4/002545_2014-06-24_13-38-53_094959634447_rgbf000080-resize_4-target.png,125,1.9205,9,2080,124,feet,jsons/VE125_randls_75_rotated.json,480385,757059,24,Man
17,476475,DepthScenes,duration_manipulation_targetAtFixation,jsons/VE125_randls_75_rotated.json,http://54.235.29.9/FacialAge/BNav_EC2/DepthDuration/v2_depth_duration_MTurk/v2_DepthDuration_HTML.html#111,111,1440,821,1440,900,8-21-2022,6-47-49,18,depth_duration_stimuli/001092_2014-06-15_17-34-58_260595134347_rgbf000171-resize_3/001092_2014-06-15_17-34-58_260595134347_rgbf000171-resize_3-target.png,125,2.6935,5,2743,123,feet,jsons/VE125_randls_75_rotated.json,480385,757059,24,Man
18,476475,DepthScenes,duration_manipulation_targetAtFixation,jsons/VE125_randls_75_rotated.json,http://54.235.29.9/FacialAge/BNav_EC2/DepthDuration/v2_depth_duration_MTurk/v2_DepthDuration_HTML.html#111,111,1440,821,1440,900,8-21-2022,6-47-49,19,depth_duration_stimuli/001498_2014-06-19_17-45-14_260595134347_rgbf000129-resize_4/001498_2014-06-19_17-45-14_260595134347_rgbf000129-resize-original.jpg,125,1.4075,0,3094,122,feet,jsons/VE125_randls_75_rotated.json,480385,757059,24,Man
19,476475,DepthScenes,duration_manipulation_targetAtFixation,jsons/VE125_randls_75_rotated.json,http://54.235.29.9/FacialAge/BNav_EC2/DepthDuration/v2_depth_duration_MTurk/v2_DepthDuration_HTML.html#111,111,1440,821,1440,900,8-21-2022,6-47-49,20,depth_duration_stimuli/003490_2014-05-21_15-50-11_094959634447_rgbf000101-resize_3/003490_2014-05-21_15-50-11_094959634447_rgbf000101-resize_3-target.png,125,3.6445,7,2161,123,feet,jsons/VE125_randls_75_rotated.json,480385,757059,24,Man
20,476475,DepthScenes,duration_manipulation_targetAtFixation,jsons/VE125_randls_75_rotated.json,http://54.235.29.9/FacialAge/BNav_EC2/DepthDuration/v2_depth_duration_MTurk/v2_DepthDuration_HTML.html#111,111,1440,821,1440,900,8-21-2022,6-47-49,21,depth_duration_stimuli/001175_2014-06-17_15-45-55_260595134347_rgbf000129-resize_4/001175_2014-06-17_15-45-55_260595134347_rgbf000129-resize_4-target.png,125,4.255,6,1830,126,feet,jsons/VE125_randls_75_rotated.json,480385,757059,24,Man
21,476475,DepthScenes,duration_manipulation_targetAtFixation,jsons/VE125_randls_75_rotated.json,http://54.235.29.9/FacialAge/BNav_EC2/DepthDuration/v2_depth_duration_MTurk/v2_DepthDuration_HTML.html#111,111,1440,821,1440,900,8-21-2022,6-47-49,22,depth_duration_stimuli/002805_2014-06-22_19-54-03_094959634447_rgbf000079-resize_1/002805_2014-06-22_19-54-03_094959634447_rgbf000079-resize_1-target.png,125,3.1439999999999997,8,1980,123,feet,jsons/VE125_randls_75_rotated.json,480385,757059,24,Man
22,476475,DepthScenes,duration_manipulation_targetAtFixation,jsons/VE125_randls_75_rotated.json,http://54.235.29.9/FacialAge/BNav_EC2/DepthDuration/v2_depth_duration_MTurk/v2_DepthDuration_HTML.html#111,111,1440,821,1440,900,8-21-2022,6-47-49,23,depth_duration_stimuli/000906_2014-06-08_13-35-43_260595134347_rgbf000155-resize_1/000906_2014-06-08_13-35-43_260595134347_rgbf000155-resize_1-target.png,125,2.8489999999999998,5,2178,123,feet,jsons/VE125_randls_75_rotated.json,480385,757059,24,Man
23,476475,DepthScenes,duration_manipulation_targetAtFixation,jsons/VE125_randls_75_rotated.json,http://54.235.29.9/FacialAge/BNav_EC2/DepthDuration/v2_depth_duration_MTurk/v2_DepthDuration_HTML.html#111,111,1440,821,1440,900,8-21-2022,6-47-49,24,depth_duration_stimuli/002340_2014-06-28_20-05-46_260595134347_rgbf000113-resize_0/002340_2014-06-28_20-05-46_260595134347_rgbf000113-resize_0-target.png,125,2.4735,6,2613,122,feet,jsons/VE125_randls_75_rotated.json,480385,757059,24,Man
24,476475,DepthScenes,duration_manipulation_targetAtFixation,jsons/VE125_randls_75_rotated.json,http://54.235.29.9/FacialAge/BNav_EC2/DepthDuration/v2_depth_duration_MTurk/v2_DepthDuration_HTML.html#111,111,1440,821,1440,900,8-21-2022,6-47-49,25,depth_duration_stimuli/001016_2014-06-09_16-16-10_260595134347_rgbf000112-resize_5/001016_2014-06-09_16-16-10_260595134347_rgbf000112-resize_5-target.png,125,1.6565,5,1744,123,feet,jsons/VE125_randls_75_rotated.json,480385,757059,24,Man
25,476475,DepthScenes,duration_manipulation_targetAtFixation,jsons/VE125_randls_75_rotated.json,http://54.235.29.9/FacialAge/BNav_EC2/DepthDuration/v2_depth_duration_MTurk/v2_DepthDuration_HTML.html#111,111,1440,821,1440,900,8-21-2022,6-47-49,26,depth_duration_stimuli/002323_2014-06-28_20-01-54_260595134347_rgbf000051-resize_4/002323_2014-06-28_20-01-54_260595134347_rgbf000051-resize_4-target.png,125,3.7310000000000003,6,1645,123,feet,jsons/VE125_randls_75_rotated.json,480385,757059,24,Man
26,476475,DepthScenes,duration_manipulation_targetAtFixation,jsons/VE125_randls_75_rotated.json,http://54.235.29.9/FacialAge/BNav_EC2/DepthDuration/v2_depth_duration_MTurk/v2_DepthDuration_HTML.html#111,111,1440,821,1440,900,8-21-2022,6-47-49,27,depth_duration_stimuli/000917_2014-06-09_22-45-29_260595134347_rgbf000149-resize_3/000917_2014-06-09_22-45-29_260595134347_rgbf000149-resize_3-target.png,125,4.1865,6,1677,123,feet,jsons/VE125_randls_75_rotated.json,480385,757059,24,Man
27,476475,DepthScenes,duration_manipulation_targetAtFixation,jsons/VE125_randls_75_rotated.json,http://54.235.29.9/FacialAge/BNav_EC2/DepthDuration/v2_depth_duration_MTurk/v2_DepthDuration_HTML.html#111,111,1440,821,1440,900,8-21-2022,6-47-49,28,depth_duration_stimuli/002425_2014-06-28_20-27-29_260595134347_rgbf000031-resize_8/002425_2014-06-28_20-27-29_260595134347_rgbf000031-resize_8-target.png,125,3.8960000000000004,4,1680,126,feet,jsons/VE125_randls_75_rotated.json,480385,757059,24,Man
28,476475,DepthScenes,duration_manipulation_targetAtFixation,jsons/VE125_randls_75_rotated.json,http://54.235.29.9/FacialAge/BNav_EC2/DepthDuration/v2_depth_duration_MTurk/v2_DepthDuration_HTML.html#111,111,1440,821,1440,900,8-21-2022,6-47-49,29,depth_duration_stimuli/000642_2014-06-08_16-59-25_260595134347_rgbf000098-resize_2/000642_2014-06-08_16-59-25_260595134347_rgbf000098-resize_2-target.png,125,2.8815,5,1528,123,feet,jsons/VE125_randls_75_rotated.json,480385,757059,24,Man
29,476475,DepthScenes,duration_manipulation_targetAtFixation,jsons/VE125_randls_75_rotated.json,http://54.235.29.9/FacialAge/BNav_EC2/DepthDuration/v2_depth_duration_MTurk/v2_DepthDuration_HTML.html#111,111,1440,821,1440,900,8-21-2022,6-47-49,30,depth_duration_stimuli/002072_2014-06-24_21-48-06_260595134347_rgbf000115-resize_0/002072_2014-06-24_21-48-06_260595134347_rgbf000115-resize-original.jpg,125,4.702,0,2333,125,feet,jsons/VE125_randls_75_rotated.json,480385,757059,24,Man
30,476475,DepthScenes,duration_manipulation_targetAtFixation,jsons/VE125_randls_75_rotated.json,http://54.235.29.9/FacialAge/BNav_EC2/DepthDuration/v2_depth_duration_MTurk/v2_DepthDuration_HTML.html#111,111,1440,821,1440,900,8-21-2022,6-47-49,31,depth_duration_stimuli/001447_2014-06-19_17-00-32_260595134347_rgbf000082-resize_5/001447_2014-06-19_17-00-32_260595134347_rgbf000082-resize_5-target.png,125,4.13775,5,3477,122,feet,jsons/VE125_randls_75_rotated.json,480385,757059,24,Man
31,476475,DepthScenes,duration_manipulation_targetAtFixation,jsons/VE125_randls_75_rotated.json,http://54.235.29.9/FacialAge/BNav_EC2/DepthDuration/v2_depth_duration_MTurk/v2_DepthDuration_HTML.html#111,111,1440,821,1440,900,8-21-2022,6-47-49,32,depth_duration_stimuli/000447_2014-06-08_16-15-46_260595134347_rgbf000130-resize_1/000447_2014-06-08_16-15-46_260595134347_rgbf000130-resize_1-target.png,125,4.479,7,2260,124,feet,jsons/VE125_randls_75_rotated.json,480385,757059,24,Man
32,476475,DepthScenes,duration_manipulation_targetAtFixation,jsons/VE125_randls_75_rotated.json,http://54.235.29.9/FacialAge/BNav_EC2/DepthDuration/v2_depth_duration_MTurk/v2_DepthDuration_HTML.html#111,111,1440,821,1440,900,8-21-2022,6-47-49,33,depth_duration_stimuli/002949_2014-06-26_15-57-42_094959634447_rgbf000079-resize_1/002949_2014-06-26_15-57-42_094959634447_rgbf000079-resize_1-target.png,125,1.8915,7,2115,127,feet,jsons/VE125_randls_75_rotated.json,480385,757059,24,Man
33,476475,DepthScenes,duration_manipulation_targetAtFixation,jsons/VE125_randls_75_rotated.json,http://54.235.29.9/FacialAge/BNav_EC2/DepthDuration/v2_depth_duration_MTurk/v2_DepthDuration_HTML.html#111,111,1440,821,1440,900,8-21-2022,6-47-49,34,depth_duration_stimuli/000522_2014-06-08_13-35-06_260595134347_rgbf000244-resize_1/000522_2014-06-08_13-35-06_260595134347_rgbf000244-resize_1-target.png,125,2.3715,3,2166,129,feet,jsons/VE125_randls_75_rotated.json,480385,757059,24,Man
34,476475,DepthScenes,duration_manipulation_targetAtFixation,jsons/VE125_randls_75_rotated.json,http://54.235.29.9/FacialAge/BNav_EC2/DepthDuration/v2_depth_duration_MTurk/v2_DepthDuration_HTML.html#111,111,1440,821,1440,900,8-21-2022,6-47-49,35,depth_duration_stimuli/001828_2014-06-26_21-40-03_260595134347_rgbf000024-resize_0/001828_2014-06-26_21-40-03_260595134347_rgbf000024-resize_0-target.png,125,4.8260000000000005,4,1694,119,feet,jsons/VE125_randls_75_rotated.json,480385,757059,24,Man
35,476475,DepthScenes,duration_manipulation_targetAtFixation,jsons/VE125_randls_75_rotated.json,http://54.235.29.9/FacialAge/BNav_EC2/DepthDuration/v2_depth_duration_MTurk/v2_DepthDuration_HTML.html#111,111,1440,821,1440,900,8-21-2022,6-47-49,36,depth_duration_stimuli/000009_2014-05-26_14-32-05_260595134347_rgbf000034-resize_3/000009_2014-05-26_14-32-05_260595134347_rgbf000034-resize_3-target.png,125,3.8715,9,2382,128,feet,jsons/VE125_randls_75_rotated.json,480385,757059,24,Man
36,476475,DepthScenes,duration_manipulation_targetAtFixation,jsons/VE125_randls_75_rotated.json,http://54.235.29.9/FacialAge/BNav_EC2/DepthDuration/v2_depth_duration_MTurk/v2_DepthDuration_HTML.html#111,111,1440,821,1440,900,8-21-2022,6-47-49,37,depth_duration_stimuli/003338_2014-05-20_11-01-23_094959634447_rgbf000051-resize_6/003338_2014-05-20_11-01-23_094959634447_rgbf000051-resize_6-target.png,125,1.693,4,1883,128,feet,jsons/VE125_randls_75_rotated.json,480385,757059,24,Man
37,476475,DepthScenes,duration_manipulation_targetAtFixation,jsons/VE125_randls_75_rotated.json,http://54.235.29.9/FacialAge/BNav_EC2/DepthDuration/v2_depth_duration_MTurk/v2_DepthDuration_HTML.html#111,111,1440,821,1440,900,8-21-2022,6-47-49,38,depth_duration_stimuli/002509_2014-06-24_13-19-22_094959634447_rgbf000077-resize_0/002509_2014-06-24_13-19-22_094959634447_rgbf000077-resize_0-target.png,125,1.3065,5,1496,122,feet,jsons/VE125_randls_75_rotated.json,480385,757059,24,Man
38,476475,DepthScenes,duration_manipulation_targetAtFixation,jsons/VE125_randls_75_rotated.json,http://54.235.29.9/FacialAge/BNav_EC2/DepthDuration/v2_depth_duration_MTurk/v2_DepthDuration_HTML.html#111,111,1440,821,1440,900,8-21-2022,6-47-49,39,depth_duration_stimuli/001450_2014-06-19_17-02-03_260595134347_rgbf000203-resize_4/001450_2014-06-19_17-02-03_260595134347_rgbf000203-resize_4-target.png,125,4.0106666666667,6,1697,126,feet,jsons/VE125_randls_75_rotated.json,480385,757059,24,Man
39,476475,DepthScenes,duration_manipulation_targetAtFixation,jsons/VE125_randls_75_rotated.json,http://54.235.29.9/FacialAge/BNav_EC2/DepthDuration/v2_depth_duration_MTurk/v2_DepthDuration_HTML.html#111,111,1440,821,1440,900,8-21-2022,6-47-49,40,depth_duration_stimuli/001449_2014-06-19_17-01-27_260595134347_rgbf000116-resize_2/001449_2014-06-19_17-01-27_260595134347_rgbf000116-resize_2-target.png,125,3.452,5,1497,126,feet,jsons/VE125_randls_75_rotated.json,480385,757059,24,Man
40,476475,DepthScenes,duration_manipulation_targetAtFixation,jsons/VE125_randls_75_rotated.json,http://54.235.29.9/FacialAge/BNav_EC2/DepthDuration/v2_depth_duration_MTurk/v2_DepthDuration_HTML.html#111,111,1440,821,1440,900,8-21-2022,6-47-49,41,depth_duration_stimuli/000549_2014-06-08_22-10-24_260595134347_rgbf000247-resize_3/000549_2014-06-08_22-10-24_260595134347_rgbf000247-resize_3-target.png,125,1.841,3,2048,125,feet,jsons/VE125_randls_75_rotated.json,480385,757059,24,Man
41,476475,DepthScenes,duration_manipulation_targetAtFixation,jsons/VE125_randls_75_rotated.json,http://54.235.29.9/FacialAge/BNav_EC2/DepthDuration/v2_depth_duration_MTurk/v2_DepthDuration_HTML.html#111,111,1440,821,1440,900,8-21-2022,6-47-49,42,depth_duration_stimuli/001055_2014-06-08_18-45-35_260595134347_rgbf000111-resize_4/001055_2014-06-08_18-45-35_260595134347_rgbf000111-resize_4-target.png,125,2.4290000000000003,7,1882,126,feet,jsons/VE125_randls_75_rotated.json,480385,757059,24,Man
42,476475,DepthScenes,duration_manipulation_targetAtFixation,jsons/VE125_randls_75_rotated.json,http://54.235.29.9/FacialAge/BNav_EC2/DepthDuration/v2_depth_duration_MTurk/v2_DepthDuration_HTML.html#111,111,1440,821,1440,900,8-21-2022,6-47-49,43,depth_duration_stimuli/000780_2014-06-08_22-28-29_260595134347_rgbf000126-resize_1/000780_2014-06-08_22-28-29_260595134347_rgbf000126-resize_1-target.png,125,3.3825,9,2160,122,feet,jsons/VE125_randls_75_rotated.json,480385,757059,24,Man
43,476475,DepthScenes,duration_manipulation_targetAtFixation,jsons/VE125_randls_75_rotated.json,http://54.235.29.9/FacialAge/BNav_EC2/DepthDuration/v2_depth_duration_MTurk/v2_DepthDuration_HTML.html#111,111,1440,821,1440,900,8-21-2022,6-47-49,44,depth_duration_stimuli/002445_2014-06-28_20-32-16_260595134347_rgbf000029-resize_4/002445_2014-06-28_20-32-16_260595134347_rgbf000029-resize_4-target.png,125,2.5315,5,2211,122,feet,jsons/VE125_randls_75_rotated.json,480385,757059,24,Man
44,476475,DepthScenes,duration_manipulation_targetAtFixation,jsons/VE125_randls_75_rotated.json,http://54.235.29.9/FacialAge/BNav_EC2/DepthDuration/v2_depth_duration_MTurk/v2_DepthDuration_HTML.html#111,111,1440,821,1440,900,8-21-2022,6-47-49,45,depth_duration_stimuli/003048_2014-06-15_13-49-43_094959634447_rgbf000150-resize_1/003048_2014-06-15_13-49-43_094959634447_rgbf000150-resize_1-target.png,125,4.0035,7,1894,123,feet,jsons/VE125_randls_75_rotated.json,480385,757059,24,Man
45,476475,DepthScenes,duration_manipulation_targetAtFixation,jsons/VE125_randls_75_rotated.json,http://54.235.29.9/FacialAge/BNav_EC2/DepthDuration/v2_depth_duration_MTurk/v2_DepthDuration_HTML.html#111,111,1440,821,1440,900,8-21-2022,6-47-49,46,depth_duration_stimuli/002043_2014-06-24_20-29-38_260595134347_rgbf000039-resize_4/002043_2014-06-24_20-29-38_260595134347_rgbf000039-resize_4-target.png,125,2.8435,7,1528,123,feet,jsons/VE125_randls_75_rotated.json,480385,757059,24,Man
46,476475,DepthScenes,duration_manipulation_targetAtFixation,jsons/VE125_randls_75_rotated.json,http://54.235.29.9/FacialAge/BNav_EC2/DepthDuration/v2_depth_duration_MTurk/v2_DepthDuration_HTML.html#111,111,1440,821,1440,900,8-21-2022,6-47-49,47,depth_duration_stimuli/001235_2014-06-17_16-37-36_260595134347_rgbf000084-resize_4/001235_2014-06-17_16-37-36_260595134347_rgbf000084-resize_4-target.png,125,3.6605,10,2799,128,feet,jsons/VE125_randls_75_rotated.json,480385,757059,24,Man
47,476475,DepthScenes,duration_manipulation_targetAtFixation,jsons/VE125_randls_75_rotated.json,http://54.235.29.9/FacialAge/BNav_EC2/DepthDuration/v2_depth_duration_MTurk/v2_DepthDuration_HTML.html#111,111,1440,821,1440,900,8-21-2022,6-47-49,48,depth_duration_stimuli/000788_2014-06-08_22-34-36_260595134347_rgbf000131-resize_1/000788_2014-06-08_22-34-36_260595134347_rgbf000131-resize_1-target.png,125,3.359,8,2147,125,feet,jsons/VE125_randls_75_rotated.json,480385,757059,24,Man
48,476475,DepthScenes,duration_manipulation_targetAtFixation,jsons/VE125_randls_75_rotated.json,http://54.235.29.9/FacialAge/BNav_EC2/DepthDuration/v2_depth_duration_MTurk/v2_DepthDuration_HTML.html#111,111,1440,821,1440,900,8-21-2022,6-47-49,49,depth_duration_stimuli/001170_2014-06-17_15-43-44_260595134347_rgbf000096-resize_6/001170_2014-06-17_15-43-44_260595134347_rgbf000096-resize-original.jpg,125,1.1909999999999998,0,2245,123,feet,jsons/VE125_randls_75_rotated.json,480385,757059,24,Man
49,476475,DepthScenes,duration_manipulation_targetAtFixation,jsons/VE125_randls_75_rotated.json,http://54.235.29.9/FacialAge/BNav_EC2/DepthDuration/v2_depth_duration_MTurk/v2_DepthDuration_HTML.html#111,111,1440,821,1440,900,8-21-2022,6-47-49,50,depth_duration_stimuli/000943_2014-06-09_19-31-07_260595134347_rgbf000128-resize_1/000943_2014-06-09_19-31-07_260595134347_rgbf000128-resize_1-target.png,125,1.9765,5,2114,126,feet,jsons/VE125_randls_75_rotated.json,480385,757059,24,Man
50,476475,DepthScenes,duration_manipulation_targetAtFixation,jsons/VE125_randls_75_rotated.json,http://54.235.29.9/FacialAge/BNav_EC2/DepthDuration/v2_depth_duration_MTurk/v2_DepthDuration_HTML.html#111,111,1440,821,1440,900,8-21-2022,6-47-49,51,depth_duration_stimuli/003070_2014-06-15_14-58-27_094959634447_rgbf000150-resize_3/003070_2014-06-15_14-58-27_094959634447_rgbf000150-resize_3-target.png,125,2.9415,9,2098,123,feet,jsons/VE125_randls_75_rotated.json,480385,757059,24,Man
51,476475,DepthScenes,duration_manipulation_targetAtFixation,jsons/VE125_randls_75_rotated.json,http://54.235.29.9/FacialAge/BNav_EC2/DepthDuration/v2_depth_duration_MTurk/v2_DepthDuration_HTML.html#111,111,1440,821,1440,900,8-21-2022,6-47-49,52,depth_duration_stimuli/001094_2014-06-15_17-36-00_260595134347_rgbf000205-resize_0/001094_2014-06-15_17-36-00_260595134347_rgbf000205-resize_0-target.png,125,4.2175,14,2881,127,feet,jsons/VE125_randls_75_rotated.json,480385,757059,24,Man
52,476475,DepthScenes,duration_manipulation_targetAtFixation,jsons/VE125_randls_75_rotated.json,http://54.235.29.9/FacialAge/BNav_EC2/DepthDuration/v2_depth_duration_MTurk/v2_DepthDuration_HTML.html#111,111,1440,821,1440,900,8-21-2022,6-47-49,53,depth_duration_stimuli/000692_2014-06-08_13-09-42_260595134347_rgbf000199-resize_2/000692_2014-06-08_13-09-42_260595134347_rgbf000199-resize_2-target.png,125,3.661,16,2315,124,feet,jsons/VE125_randls_75_rotated.json,480385,757059,24,Man
53,476475,DepthScenes,duration_manipulation_targetAtFixation,jsons/VE125_randls_75_rotated.json,http://54.235.29.9/FacialAge/BNav_EC2/DepthDuration/v2_depth_duration_MTurk/v2_DepthDuration_HTML.html#111,111,1440,821,1440,900,8-21-2022,6-47-49,54,depth_duration_stimuli/001815_2014-06-26_20-52-55_260595134347_rgbf000020-resize_0/001815_2014-06-26_20-52-55_260595134347_rgbf000020-resize_0-target.png,125,3.3865,7,2361,124,feet,jsons/VE125_randls_75_rotated.json,480385,757059,24,Man
54,476475,DepthScenes,duration_manipulation_targetAtFixation,jsons/VE125_randls_75_rotated.json,http://54.235.29.9/FacialAge/BNav_EC2/DepthDuration/v2_depth_duration_MTurk/v2_DepthDuration_HTML.html#111,111,1440,821,1440,900,8-21-2022,6-47-49,55,depth_duration_stimuli/001808_2014-06-26_20-50-58_260595134347_rgbf000029-resize_1/001808_2014-06-26_20-50-58_260595134347_rgbf000029-resize_1-target.png,125,4.249,0,2426,122,feet,jsons/VE125_randls_75_rotated.json,480385,757059,24,Man
55,476475,DepthScenes,duration_manipulation_targetAtFixation,jsons/VE125_randls_75_rotated.json,http://54.235.29.9/FacialAge/BNav_EC2/DepthDuration/v2_depth_duration_MTurk/v2_DepthDuration_HTML.html#111,111,1440,821,1440,900,8-21-2022,6-47-49,56,depth_duration_stimuli/000191_2014-05-12_17-07-38_260595134347_rgbf000199-resize_0/000191_2014-05-12_17-07-38_260595134347_rgbf000199-resize_0-target.png,125,3.7995,14,6029,122,feet,jsons/VE125_randls_75_rotated.json,480385,757059,24,Man
56,476475,DepthScenes,duration_manipulation_targetAtFixation,jsons/VE125_randls_75_rotated.json,http://54.235.29.9/FacialAge/BNav_EC2/DepthDuration/v2_depth_duration_MTurk/v2_DepthDuration_HTML.html#111,111,1440,821,1440,900,8-21-2022,6-47-49,57,depth_duration_stimuli/000493_2014-06-09_21-01-18_260595134347_rgbf000196-resize_3/000493_2014-06-09_21-01-18_260595134347_rgbf000196-resize_3-target.png,125,3.44,8,2227,123,feet,jsons/VE125_randls_75_rotated.json,480385,757059,24,Man
57,476475,DepthScenes,duration_manipulation_targetAtFixation,jsons/VE125_randls_75_rotated.json,http://54.235.29.9/FacialAge/BNav_EC2/DepthDuration/v2_depth_duration_MTurk/v2_DepthDuration_HTML.html#111,111,1440,821,1440,900,8-21-2022,6-47-49,58,depth_duration_stimuli/000742_2014-06-08_18-48-09_260595134347_rgbf000164-resize_4/000742_2014-06-08_18-48-09_260595134347_rgbf000164-resize_4-target.png,125,4.632,8,1999,128,feet,jsons/VE125_randls_75_rotated.json,480385,757059,24,Man
58,476475,DepthScenes,duration_manipulation_targetAtFixation,jsons/VE125_randls_75_rotated.json,http://54.235.29.9/FacialAge/BNav_EC2/DepthDuration/v2_depth_duration_MTurk/v2_DepthDuration_HTML.html#111,111,1440,821,1440,900,8-21-2022,6-47-49,59,depth_duration_stimuli/001066_2014-06-08_22-03-20_260595134347_rgbf000066-resize_4/001066_2014-06-08_22-03-20_260595134347_rgbf000066-resize_4-target.png,125,4.2330000000000005,6,1977,123,feet,jsons/VE125_randls_75_rotated.json,480385,757059,24,Man
59,476475,DepthScenes,duration_manipulation_targetAtFixation,jsons/VE125_randls_75_rotated.json,http://54.235.29.9/FacialAge/BNav_EC2/DepthDuration/v2_depth_duration_MTurk/v2_DepthDuration_HTML.html#111,111,1440,821,1440,900,8-21-2022,6-47-49,60,depth_duration_stimuli/002209_2014-06-28_18-36-10_260595134347_rgbf000051-resize_1/002209_2014-06-28_18-36-10_260595134347_rgbf000051-resize_1-target.png,125,2.057,5,1844,119,feet,jsons/VE125_randls_75_rotated.json,480385,757059,24,Man
60,476475,DepthScenes,duration_manipulation_targetAtFixation,jsons/VE125_randls_75_rotated.json,http://54.235.29.9/FacialAge/BNav_EC2/DepthDuration/v2_depth_duration_MTurk/v2_DepthDuration_HTML.html#111,111,1440,821,1440,900,8-21-2022,6-47-49,61,depth_duration_stimuli/002763_2014-06-22_19-13-10_094959634447_rgbf000075-resize_4/002763_2014-06-22_19-13-10_094959634447_rgbf000075-resize_4-target.png,125,1.68375,6,1715,127,feet,jsons/VE125_randls_75_rotated.json,480385,757059,24,Man
61,476475,DepthScenes,duration_manipulation_targetAtFixation,jsons/VE125_randls_75_rotated.json,http://54.235.29.9/FacialAge/BNav_EC2/DepthDuration/v2_depth_duration_MTurk/v2_DepthDuration_HTML.html#111,111,1440,821,1440,900,8-21-2022,6-47-49,62,depth_duration_stimuli/000709_2014-06-08_13-51-55_260595134347_rgbf000068-resize_3/000709_2014-06-08_13-51-55_260595134347_rgbf000068-resize_3-target.png,125,1.8030000000000002,7,1910,120,feet,jsons/VE125_randls_75_rotated.json,480385,757059,24,Man
62,476475,DepthScenes,duration_manipulation_targetAtFixation,jsons/VE125_randls_75_rotated.json,http://54.235.29.9/FacialAge/BNav_EC2/DepthDuration/v2_depth_duration_MTurk/v2_DepthDuration_HTML.html#111,111,1440,821,1440,900,8-21-2022,6-47-49,63,depth_duration_stimuli/002057_2014-06-24_21-00-13_260595134347_rgbf000120-resize_1/002057_2014-06-24_21-00-13_260595134347_rgbf000120-resize_1-target.png,125,2.967,0,2493,120,feet,jsons/VE125_randls_75_rotated.json,480385,757059,24,Man
63,476475,DepthScenes,duration_manipulation_targetAtFixation,jsons/VE125_randls_75_rotated.json,http://54.235.29.9/FacialAge/BNav_EC2/DepthDuration/v2_depth_duration_MTurk/v2_DepthDuration_HTML.html#111,111,1440,821,1440,900,8-21-2022,6-47-49,64,depth_duration_stimuli/001650_2014-06-20_12-09-00_260595134347_rgbf000087-resize_3/001650_2014-06-20_12-09-00_260595134347_rgbf000087-resize_3-target.png,125,1.9505,3,2211,123,feet,jsons/VE125_randls_75_rotated.json,480385,757059,24,Man
64,476475,DepthScenes,duration_manipulation_targetAtFixation,jsons/VE125_randls_75_rotated.json,http://54.235.29.9/FacialAge/BNav_EC2/DepthDuration/v2_depth_duration_MTurk/v2_DepthDuration_HTML.html#111,111,1440,821,1440,900,8-21-2022,6-47-49,65,depth_duration_stimuli/000682_2014-06-08_23-14-58_260595134347_rgbf000041-resize_5/000682_2014-06-08_23-14-58_260595134347_rgbf000041-resize_5-target.png,125,2.7239999999999998,7,2130,125,feet,jsons/VE125_randls_75_rotated.json,480385,757059,24,Man
65,476475,DepthScenes,duration_manipulation_targetAtFixation,jsons/VE125_randls_75_rotated.json,http://54.235.29.9/FacialAge/BNav_EC2/DepthDuration/v2_depth_duration_MTurk/v2_DepthDuration_HTML.html#111,111,1440,821,1440,900,8-21-2022,6-47-49,66,depth_duration_stimuli/001540_2014-06-20_17-01-05_260595134347_rgbf000086-resize_2/001540_2014-06-20_17-01-05_260595134347_rgbf000086-resize-original.jpg,125,1.459,0,2183,126,feet,jsons/VE125_randls_75_rotated.json,480385,757059,24,Man
66,476475,DepthScenes,duration_manipulation_targetAtFixation,jsons/VE125_randls_75_rotated.json,http://54.235.29.9/FacialAge/BNav_EC2/DepthDuration/v2_depth_duration_MTurk/v2_DepthDuration_HTML.html#111,111,1440,821,1440,900,8-21-2022,6-47-49,67,depth_duration_stimuli/000103_2014-05-14_22-01-17_260595134347_rgbf000152-resize_5/000103_2014-05-14_22-01-17_260595134347_rgbf000152-resize_5-target.png,125,1.993,7,2065,129,feet,jsons/VE125_randls_75_rotated.json,480385,757059,24,Man
67,476475,DepthScenes,duration_manipulation_targetAtFixation,jsons/VE125_randls_75_rotated.json,http://54.235.29.9/FacialAge/BNav_EC2/DepthDuration/v2_depth_duration_MTurk/v2_DepthDuration_HTML.html#111,111,1440,821,1440,900,8-21-2022,6-47-49,68,depth_duration_stimuli/001555_2014-06-20_17-12-10_260595134347_rgbf000065-resize_4/001555_2014-06-20_17-12-10_260595134347_rgbf000065-resize_4-target.png,125,1.633,6,1727,123,feet,jsons/VE125_randls_75_rotated.json,480385,757059,24,Man
68,476475,DepthScenes,duration_manipulation_targetAtFixation,jsons/VE125_randls_75_rotated.json,http://54.235.29.9/FacialAge/BNav_EC2/DepthDuration/v2_depth_duration_MTurk/v2_DepthDuration_HTML.html#111,111,1440,821,1440,900,8-21-2022,6-47-49,69,depth_duration_stimuli/003587_2014-05-23_16-48-02_094959634447_rgbf002384-resize_2/003587_2014-05-23_16-48-02_094959634447_rgbf002384-resize_2-target.png,125,1.357,4,1678,122,feet,jsons/VE125_randls_75_rotated.json,480385,757059,24,Man
69,476475,DepthScenes,duration_manipulation_targetAtFixation,jsons/VE125_randls_75_rotated.json,http://54.235.29.9/FacialAge/BNav_EC2/DepthDuration/v2_depth_duration_MTurk/v2_DepthDuration_HTML.html#111,111,1440,821,1440,900,8-21-2022,6-47-49,70,depth_duration_stimuli/001167_2014-06-17_15-38-07_260595134347_rgbf000108-resize_0/001167_2014-06-17_15-38-07_260595134347_rgbf000108-resize_0-target.png,125,1.8505,4,1615,125,feet,jsons/VE125_randls_75_rotated.json,480385,757059,24,Man
70,476475,DepthScenes,duration_manipulation_targetAtFixation,jsons/VE125_randls_75_rotated.json,http://54.235.29.9/FacialAge/BNav_EC2/DepthDuration/v2_depth_duration_MTurk/v2_DepthDuration_HTML.html#111,111,1440,821,1440,900,8-21-2022,6-47-49,71,depth_duration_stimuli/000457_2014-06-08_16-52-43_260595134347_rgbf000199-resize_1/000457_2014-06-08_16-52-43_260595134347_rgbf000199-resize_1-target.png,125,3.6489999999999996,6,1778,120,feet,jsons/VE125_randls_75_rotated.json,480385,757059,24,Man
71,476475,DepthScenes,duration_manipulation_targetAtFixation,jsons/VE125_randls_75_rotated.json,http://54.235.29.9/FacialAge/BNav_EC2/DepthDuration/v2_depth_duration_MTurk/v2_DepthDuration_HTML.html#111,111,1440,821,1440,900,8-21-2022,6-47-49,72,depth_duration_stimuli/000929_2014-06-09_16-33-19_260595134347_rgbf000139-resize_0/000929_2014-06-09_16-33-19_260595134347_rgbf000139-resize_0-target.png,125,2.8680000000000003,7,1777,119,feet,jsons/VE125_randls_75_rotated.json,480385,757059,24,Man
72,476475,DepthScenes,duration_manipulation_targetAtFixation,jsons/VE125_randls_75_rotated.json,http://54.235.29.9/FacialAge/BNav_EC2/DepthDuration/v2_depth_duration_MTurk/v2_DepthDuration_HTML.html#111,111,1440,821,1440,900,8-21-2022,6-47-49,73,depth_duration_stimuli/002444_2014-06-28_20-32-08_260595134347_rgbf000027-resize_0/002444_2014-06-28_20-32-08_260595134347_rgbf000027-resize_0-target.png,125,4.388999999999999,0,1927,123,feet,jsons/VE125_randls_75_rotated.json,480385,757059,24,Man
73,476475,DepthScenes,duration_manipulation_targetAtFixation,jsons/VE125_randls_75_rotated.json,http://54.235.29.9/FacialAge/BNav_EC2/DepthDuration/v2_depth_duration_MTurk/v2_DepthDuration_HTML.html#111,111,1440,821,1440,900,8-21-2022,6-47-49,74,depth_duration_stimuli/000436_2014-06-09_22-25-11_260595134347_rgbf000137-resize_1/000436_2014-06-09_22-25-11_260595134347_rgbf000137-resize_1-target.png,125,4.0705,13,2278,123,feet,jsons/VE125_randls_75_rotated.json,480385,757059,24,Man
74,476475,DepthScenes,duration_manipulation_targetAtFixation,jsons/VE125_randls_75_rotated.json,http://54.235.29.9/FacialAge/BNav_EC2/DepthDuration/v2_depth_duration_MTurk/v2_DepthDuration_HTML.html#111,111,1440,821,1440,900,8-21-2022,6-47-49,75,depth_duration_stimuli/002639_2014-06-24_14-51-37_094959634447_rgbf000074-resize_4/002639_2014-06-24_14-51-37_094959634447_rgbf000074-resize_4-target.png,125,4.0375,12,2894,124,feet,jsons/VE125_randls_75_rotated.json,480385,757059,24,Man
75,476475,DepthScenes,duration_manipulation_targetAtFixation,jsons/VE125_randls_75_rotated.json,http://54.235.29.9/FacialAge/BNav_EC2/DepthDuration/v2_depth_duration_MTurk/v2_DepthDuration_HTML.html#111,111,1440,821,1440,900,8-21-2022,6-47-49,76,depth_duration_stimuli/003292_2014-05-14_21-53-49_094959634447_rgbf000100-resize_2/003292_2014-05-14_21-53-49_094959634447_rgbf000100-resize_2-target.png,125,3.4815,15,2332,124,feet,jsons/VE125_randls_75_rotated.json,480385,757059,24,Man
76,476475,DepthScenes,duration_manipulation_targetAtFixation,jsons/VE125_randls_75_rotated.json,http://54.235.29.9/FacialAge/BNav_EC2/DepthDuration/v2_depth_duration_MTurk/v2_DepthDuration_HTML.html#111,111,1440,821,1440,900,8-21-2022,6-47-49,77,depth_duration_stimuli/002103_2014-06-25_20-00-40_260595134347_rgbf000049-resize_0/002103_2014-06-25_20-00-40_260595134347_rgbf000049-resize_0-target.png,125,4.105,8,1982,125,feet,jsons/VE125_randls_75_rotated.json,480385,757059,24,Man
77,476475,DepthScenes,duration_manipulation_targetAtFixation,jsons/VE125_randls_75_rotated.json,http://54.235.29.9/FacialAge/BNav_EC2/DepthDuration/v2_depth_duration_MTurk/v2_DepthDuration_HTML.html#111,111,1440,821,1440,900,8-21-2022,6-47-49,78,depth_duration_stimuli/002039_2014-06-24_20-22-38_260595134347_rgbf000084-resize_1/002039_2014-06-24_20-22-38_260595134347_rgbf000084-resize_1-target.png,125,4.408,7,1728,122,feet,jsons/VE125_randls_75_rotated.json,480385,757059,24,Man
78,476475,DepthScenes,duration_manipulation_targetAtFixation,jsons/VE125_randls_75_rotated.json,http://54.235.29.9/FacialAge/BNav_EC2/DepthDuration/v2_depth_duration_MTurk/v2_DepthDuration_HTML.html#111,111,1440,821,1440,900,8-21-2022,6-47-49,79,depth_duration_stimuli/002660_2014-06-13_15-44-18_094959634447_rgbf001878-resize_2/002660_2014-06-13_15-44-18_094959634447_rgbf001878-resize_2-target.png,125,3.576,6,1514,123,feet,jsons/VE125_randls_75_rotated.json,480385,757059,24,Man
79,476475,DepthScenes,duration_manipulation_targetAtFixation,jsons/VE125_randls_75_rotated.json,http://54.235.29.9/FacialAge/BNav_EC2/DepthDuration/v2_depth_duration_MTurk/v2_DepthDuration_HTML.html#111,111,1440,821,1440,900,8-21-2022,6-47-49,80,depth_duration_stimuli/002153_2014-06-25_21-27-18_260595134347_rgbf000038-resize_5/002153_2014-06-25_21-27-18_260595134347_rgbf000038-resize_5-target.png,125,2.505,7,1499,127,feet,jsons/VE125_randls_75_rotated.json,480385,757059,24,Man
80,476475,DepthScenes,duration_manipulation_targetAtFixation,jsons/VE125_randls_75_rotated.json,http://54.235.29.9/FacialAge/BNav_EC2/DepthDuration/v2_depth_duration_MTurk/v2_DepthDuration_HTML.html#111,111,1440,821,1440,900,8-21-2022,6-47-49,81,depth_duration_stimuli/000691_2014-06-08_13-08-50_260595134347_rgbf000132-resize_3/000691_2014-06-08_13-08-50_260595134347_rgbf000132-resize_3-target.png,125,4.1530000000000005,7,1532,128,feet,jsons/VE125_randls_75_rotated.json,480385,757059,24,Man
81,476475,DepthScenes,duration_manipulation_targetAtFixation,jsons/VE125_randls_75_rotated.json,http://54.235.29.9/FacialAge/BNav_EC2/DepthDuration/v2_depth_duration_MTurk/v2_DepthDuration_HTML.html#111,111,1440,821,1440,900,8-21-2022,6-47-49,82,depth_duration_stimuli/002213_2014-06-28_18-37-58_260595134347_rgbf000055-resize_1/002213_2014-06-28_18-37-58_260595134347_rgbf000055-resize_1-target.png,125,3.62,0,2482,127,feet,jsons/VE125_randls_75_rotated.json,480385,757059,24,Man
82,476475,DepthScenes,duration_manipulation_targetAtFixation,jsons/VE125_randls_75_rotated.json,http://54.235.29.9/FacialAge/BNav_EC2/DepthDuration/v2_depth_duration_MTurk/v2_DepthDuration_HTML.html#111,111,1440,821,1440,900,8-21-2022,6-47-49,83,depth_duration_stimuli/002467_2014-06-28_20-38-07_260595134347_rgbf000026-resize_2/002467_2014-06-28_20-38-07_260595134347_rgbf000026-resize_2-target.png,125,4.742,6,1697,125,feet,jsons/VE125_randls_75_rotated.json,480385,757059,24,Man
83,476475,DepthScenes,duration_manipulation_targetAtFixation,jsons/VE125_randls_75_rotated.json,http://54.235.29.9/FacialAge/BNav_EC2/DepthDuration/v2_depth_duration_MTurk/v2_DepthDuration_HTML.html#111,111,1440,821,1440,900,8-21-2022,6-47-49,84,depth_duration_stimuli/002570_2014-06-24_13-59-54_094959634447_rgbf000059-resize_0/002570_2014-06-24_13-59-54_094959634447_rgbf000059-resize_0-target.png,125,4.037,6,1944,122,feet,jsons/VE125_randls_75_rotated.json,480385,757059,24,Man
84,476475,DepthScenes,duration_manipulation_targetAtFixation,jsons/VE125_randls_75_rotated.json,http://54.235.29.9/FacialAge/BNav_EC2/DepthDuration/v2_depth_duration_MTurk/v2_DepthDuration_HTML.html#111,111,1440,821,1440,900,8-21-2022,6-47-49,85,depth_duration_stimuli/000734_2014-06-08_17-39-11_260595134347_rgbf000128-resize_2/000734_2014-06-08_17-39-11_260595134347_rgbf000128-resize_2-target.png,125,4.098,9,2616,128,feet,jsons/VE125_randls_75_rotated.json,480385,757059,24,Man
85,476475,DepthScenes,duration_manipulation_targetAtFixation,jsons/VE125_randls_75_rotated.json,http://54.235.29.9/FacialAge/BNav_EC2/DepthDuration/v2_depth_duration_MTurk/v2_DepthDuration_HTML.html#111,111,1440,821,1440,900,8-21-2022,6-47-49,86,depth_duration_stimuli/000739_2014-06-08_18-45-58_260595134347_rgbf000068-resize_1/000739_2014-06-08_18-45-58_260595134347_rgbf000068-resize_1-target.png,125,3.534,11,2064,128,feet,jsons/VE125_randls_75_rotated.json,480385,757059,24,Man
86,476475,DepthScenes,duration_manipulation_targetAtFixation,jsons/VE125_randls_75_rotated.json,http://54.235.29.9/FacialAge/BNav_EC2/DepthDuration/v2_depth_duration_MTurk/v2_DepthDuration_HTML.html#111,111,1440,821,1440,900,8-21-2022,6-47-49,87,depth_duration_stimuli/001032_2014-06-08_13-23-17_260595134347_rgbf000021-resize_3/001032_2014-06-08_13-23-17_260595134347_rgbf000021-resize_3-target.png,125,3.2725,13,2144,122,feet,jsons/VE125_randls_75_rotated.json,480385,757059,24,Man
87,476475,DepthScenes,duration_manipulation_targetAtFixation,jsons/VE125_randls_75_rotated.json,http://54.235.29.9/FacialAge/BNav_EC2/DepthDuration/v2_depth_duration_MTurk/v2_DepthDuration_HTML.html#111,111,1440,821,1440,900,8-21-2022,6-47-49,88,depth_duration_stimuli/001059_2014-06-08_21-53-27_260595134347_rgbf000061-resize_4/001059_2014-06-08_21-53-27_260595134347_rgbf000061-resize_4-target.png,125,2.4185,8,2565,128,feet,jsons/VE125_randls_75_rotated.json,480385,757059,24,Man
88,476475,DepthScenes,duration_manipulation_targetAtFixation,jsons/VE125_randls_75_rotated.json,http://54.235.29.9/FacialAge/BNav_EC2/DepthDuration/v2_depth_duration_MTurk/v2_DepthDuration_HTML.html#111,111,1440,821,1440,900,8-21-2022,6-47-49,89,depth_duration_stimuli/003495_2014-05-21_16-01-51_094959634447_rgbf000100-resize_3/003495_2014-05-21_16-01-51_094959634447_rgbf000100-resize_3-target.png,125,1.6255,4,1632,128,feet,jsons/VE125_randls_75_rotated.json,480385,757059,24,Man
89,476475,DepthScenes,duration_manipulation_targetAtFixation,jsons/VE125_randls_75_rotated.json,http://54.235.29.9/FacialAge/BNav_EC2/DepthDuration/v2_depth_duration_MTurk/v2_DepthDuration_HTML.html#111,111,1440,821,1440,900,8-21-2022,6-47-49,90,depth_duration_stimuli/001244_2014-06-17_16-47-45_260595134347_rgbf000030-resize_4/001244_2014-06-17_16-47-45_260595134347_rgbf000030-resize_4-target.png,125,2.0425,5,1949,124,feet,jsons/VE125_randls_75_rotated.json,480385,757059,24,Man
90,476475,DepthScenes,duration_manipulation_targetAtFixation,jsons/VE125_randls_75_rotated.json,http://54.235.29.9/FacialAge/BNav_EC2/DepthDuration/v2_depth_duration_MTurk/v2_DepthDuration_HTML.html#111,111,1440,821,1440,900,8-21-2022,6-47-49,91,depth_duration_stimuli/003010_2014-06-15_12-54-35_094959634447_rgbf000112-resize_0/003010_2014-06-15_12-54-35_094959634447_rgbf000112-resize_0-target.png,125,3.1185,0,2383,126,feet,jsons/VE125_randls_75_rotated.json,480385,757059,24,Man
91,476475,DepthScenes,duration_manipulation_targetAtFixation,jsons/VE125_randls_75_rotated.json,http://54.235.29.9/FacialAge/BNav_EC2/DepthDuration/v2_depth_duration_MTurk/v2_DepthDuration_HTML.html#111,111,1440,821,1440,900,8-21-2022,6-47-49,92,depth_duration_stimuli/001810_2014-06-26_20-51-35_260595134347_rgbf000040-resize_3/001810_2014-06-26_20-51-35_260595134347_rgbf000040-resize_3-target.png,125,2.2525,3,1982,124,feet,jsons/VE125_randls_75_rotated.json,480385,757059,24,Man
92,476475,DepthScenes,duration_manipulation_targetAtFixation,jsons/VE125_randls_75_rotated.json,http://54.235.29.9/FacialAge/BNav_EC2/DepthDuration/v2_depth_duration_MTurk/v2_DepthDuration_HTML.html#111,111,1440,821,1440,900,8-21-2022,6-47-49,93,depth_duration_stimuli/001584_2014-06-20_11-07-43_260595134347_rgbf000002-resize_1/001584_2014-06-20_11-07-43_260595134347_rgbf000002-resize_1-target.png,125,3.53,0,2181,127,feet,jsons/VE125_randls_75_rotated.json,480385,757059,24,Man
93,476475,DepthScenes,duration_manipulation_targetAtFixation,jsons/VE125_randls_75_rotated.json,http://54.235.29.9/FacialAge/BNav_EC2/DepthDuration/v2_depth_duration_MTurk/v2_DepthDuration_HTML.html#111,111,1440,821,1440,900,8-21-2022,6-47-49,94,depth_duration_stimuli/003621_2014-05-23_18-06-08_094959634447_rgbf000101-resize_1/003621_2014-05-23_18-06-08_094959634447_rgbf000101-resize_1-target.png,125,3.9835,4,1545,122,feet,jsons/VE125_randls_75_rotated.json,480385,757059,24,Man
94,476475,DepthScenes,duration_manipulation_targetAtFixation,jsons/VE125_randls_75_rotated.json,http://54.235.29.9/FacialAge/BNav_EC2/DepthDuration/v2_depth_duration_MTurk/v2_DepthDuration_HTML.html#111,111,1440,821,1440,900,8-21-2022,6-47-49,95,depth_duration_stimuli/002637_2014-06-24_14-51-13_094959634447_rgbf000066-resize_4/002637_2014-06-24_14-51-13_094959634447_rgbf000066-resize_4-target.png,125,1.9955,5,1481,124,feet,jsons/VE125_randls_75_rotated.json,480385,757059,24,Man
95,476475,DepthScenes,duration_manipulation_targetAtFixation,jsons/VE125_randls_75_rotated.json,http://54.235.29.9/FacialAge/BNav_EC2/DepthDuration/v2_depth_duration_MTurk/v2_DepthDuration_HTML.html#111,111,1440,821,1440,900,8-21-2022,6-47-49,96,depth_duration_stimuli/003534_2014-05-22_15-06-10_094959634447_rgbf000102-resize_4/003534_2014-05-22_15-06-10_094959634447_rgbf000102-resize_4-target.png,125,1.426,4,1748,124,feet,jsons/VE125_randls_75_rotated.json,480385,757059,24,Man
96,476475,DepthScenes,duration_manipulation_targetAtFixation,jsons/VE125_randls_75_rotated.json,http://54.235.29.9/FacialAge/BNav_EC2/DepthDuration/v2_depth_duration_MTurk/v2_DepthDuration_HTML.html#111,111,1440,821,1440,900,8-21-2022,6-47-49,97,depth_duration_stimuli/002199_2014-06-28_18-33-56_260595134347_rgbf000074-resize_0/002199_2014-06-28_18-33-56_260595134347_rgbf000074-resize_0-target.png,125,1.996,0,3230,123,feet,jsons/VE125_randls_75_rotated.json,480385,757059,24,Man
97,476475,DepthScenes,duration_manipulation_targetAtFixation,jsons/VE125_randls_75_rotated.json,http://54.235.29.9/FacialAge/BNav_EC2/DepthDuration/v2_depth_duration_MTurk/v2_DepthDuration_HTML.html#111,111,1440,821,1440,900,8-21-2022,6-47-49,98,depth_duration_stimuli/001056_2014-06-08_18-46-44_260595134347_rgbf000068-resize_0/001056_2014-06-08_18-46-44_260595134347_rgbf000068-resize_0-target.png,125,2.6625,7,2693,123,feet,jsons/VE125_randls_75_rotated.json,480385,757059,24,Man
98,476475,DepthScenes,duration_manipulation_targetAtFixation,jsons/VE125_randls_75_rotated.json,http://54.235.29.9/FacialAge/BNav_EC2/DepthDuration/v2_depth_duration_MTurk/v2_DepthDuration_HTML.html#111,111,1440,821,1440,900,8-21-2022,6-47-49,99,depth_duration_stimuli/001222_2014-06-17_16-24-06_260595134347_rgbf000073-resize_0/001222_2014-06-17_16-24-06_260595134347_rgbf000073-resize-original.jpg,125,1.4385,0,2179,122,feet,jsons/VE125_randls_75_rotated.json,480385,757059,24,Man
99,476475,DepthScenes,duration_manipulation_targetAtFixation,jsons/VE125_randls_75_rotated.json,http://54.235.29.9/FacialAge/BNav_EC2/DepthDuration/v2_depth_duration_MTurk/v2_DepthDuration_HTML.html#111,111,1440,821,1440,900,8-21-2022,6-47-49,100,depth_duration_stimuli/000665_2014-06-09_20-42-35_260595134347_rgbf000110-resize_1/000665_2014-06-09_20-42-35_260595134347_rgbf000110-resize_1-target.png,125,3.057,4,2043,124,feet,jsons/VE125_randls_75_rotated.json,480385,757059,24,Man
100,476475,DepthScenes,duration_manipulation_targetAtFixation,jsons/VE125_randls_75_rotated.json,http://54.235.29.9/FacialAge/BNav_EC2/DepthDuration/v2_depth_duration_MTurk/v2_DepthDuration_HTML.html#111,111,1440,821,1440,900,8-21-2022,6-47-49,101,depth_duration_stimuli/001150_2014-06-17_15-27-34_260595134347_rgbf000108-resize_2/001150_2014-06-17_15-27-34_260595134347_rgbf000108-resize_2-target.png,125,4.0325,5,2315,125,feet,jsons/VE125_randls_75_rotated.json,480385,757059,24,Man
101,476475,DepthScenes,duration_manipulation_targetAtFixation,jsons/VE125_randls_75_rotated.json,http://54.235.29.9/FacialAge/BNav_EC2/DepthDuration/v2_depth_duration_MTurk/v2_DepthDuration_HTML.html#111,111,1440,821,1440,900,8-21-2022,6-47-49,102,depth_duration_stimuli/003228_2014-05-14_13-42-35_094959634447_rgbf000101-resize_1/003228_2014-05-14_13-42-35_094959634447_rgbf000101-resize_1-target.png,125,1.9680000000000002,3,1764,124,feet,jsons/VE125_randls_75_rotated.json,480385,757059,24,Man
102,476475,DepthScenes,duration_manipulation_targetAtFixation,jsons/VE125_randls_75_rotated.json,http://54.235.29.9/FacialAge/BNav_EC2/DepthDuration/v2_depth_duration_MTurk/v2_DepthDuration_HTML.html#111,111,1440,821,1440,900,8-21-2022,6-47-49,103,depth_duration_stimuli/002600_2014-06-24_14-27-04_094959634447_rgbf000074-resize_2/002600_2014-06-24_14-27-04_094959634447_rgbf000074-resize_2-target.png,125,2.7575,4,2011,120,feet,jsons/VE125_randls_75_rotated.json,480385,757059,24,Man
103,476475,DepthScenes,duration_manipulation_targetAtFixation,jsons/VE125_randls_75_rotated.json,http://54.235.29.9/FacialAge/BNav_EC2/DepthDuration/v2_depth_duration_MTurk/v2_DepthDuration_HTML.html#111,111,1440,821,1440,900,8-21-2022,6-47-49,104,depth_duration_stimuli/001132_2014-06-17_14-48-54_260595134347_rgbf000100-resize_2/001132_2014-06-17_14-48-54_260595134347_rgbf000100-resize_2-target.png,125,3.753,5,1793,122,feet,jsons/VE125_randls_75_rotated.json,480385,757059,24,Man
104,476475,DepthScenes,duration_manipulation_targetAtFixation,jsons/VE125_randls_75_rotated.json,http://54.235.29.9/FacialAge/BNav_EC2/DepthDuration/v2_depth_duration_MTurk/v2_DepthDuration_HTML.html#111,111,1440,821,1440,900,8-21-2022,6-47-49,105,depth_duration_stimuli/001133_2014-06-17_14-49-16_260595134347_rgbf000100-resize_0/001133_2014-06-17_14-49-16_260595134347_rgbf000100-resize_0-target.png,125,4.2115,7,2315,125,feet,jsons/VE125_randls_75_rotated.json,480385,757059,24,Man
105,476475,DepthScenes,duration_manipulation_targetAtFixation,jsons/VE125_randls_75_rotated.json,http://54.235.29.9/FacialAge/BNav_EC2/DepthDuration/v2_depth_duration_MTurk/v2_DepthDuration_HTML.html#111,111,1440,821,1440,900,8-21-2022,6-47-49,106,depth_duration_stimuli/002344_2014-06-28_20-06-29_260595134347_rgbf000030-resize_1/002344_2014-06-28_20-06-29_260595134347_rgbf000030-resize_1-target.png,125,1.5795,4,1666,126,feet,jsons/VE125_randls_75_rotated.json,480385,757059,24,Man
106,476475,DepthScenes,duration_manipulation_targetAtFixation,jsons/VE125_randls_75_rotated.json,http://54.235.29.9/FacialAge/BNav_EC2/DepthDuration/v2_depth_duration_MTurk/v2_DepthDuration_HTML.html#111,111,1440,821,1440,900,8-21-2022,6-47-49,107,depth_duration_stimuli/002725_2014-06-22_11-47-51_094959634447_rgbf000070-resize_1/002725_2014-06-22_11-47-51_094959634447_rgbf000070-resize_1-target.png,125,2.195,4,1559,122,feet,jsons/VE125_randls_75_rotated.json,480385,757059,24,Man
107,476475,DepthScenes,duration_manipulation_targetAtFixation,jsons/VE125_randls_75_rotated.json,http://54.235.29.9/FacialAge/BNav_EC2/DepthDuration/v2_depth_duration_MTurk/v2_DepthDuration_HTML.html#111,111,1440,821,1440,900,8-21-2022,6-47-49,108,depth_duration_stimuli/002750_2014-06-22_19-08-03_094959634447_rgbf000094-resize_4/002750_2014-06-22_19-08-03_094959634447_rgbf000094-resize_4-target.png,125,2.354,0,2263,123,feet,jsons/VE125_randls_75_rotated.json,480385,757059,24,Man
108,476475,DepthScenes,duration_manipulation_targetAtFixation,jsons/VE125_randls_75_rotated.json,http://54.235.29.9/FacialAge/BNav_EC2/DepthDuration/v2_depth_duration_MTurk/v2_DepthDuration_HTML.html#111,111,1440,821,1440,900,8-21-2022,6-47-49,109,depth_duration_stimuli/002549_2014-06-24_13-41-39_094959634447_rgbf000022-resize_3/002549_2014-06-24_13-41-39_094959634447_rgbf000022-resize_3-target.png,125,1.476,5,1949,124,feet,jsons/VE125_randls_75_rotated.json,480385,757059,24,Man
109,476475,DepthScenes,duration_manipulation_targetAtFixation,jsons/VE125_randls_75_rotated.json,http://54.235.29.9/FacialAge/BNav_EC2/DepthDuration/v2_depth_duration_MTurk/v2_DepthDuration_HTML.html#111,111,1440,821,1440,900,8-21-2022,6-47-49,110,depth_duration_stimuli/002875_2014-06-01_15-19-00_094959634447_rgbf000151-resize_1/002875_2014-06-01_15-19-00_094959634447_rgbf000151-resize_1-target.png,125,1.9675,6,1532,124,feet,jsons/VE125_randls_75_rotated.json,480385,757059,24,Man
110,476475,DepthScenes,duration_manipulation_targetAtFixation,jsons/VE125_randls_75_rotated.json,http://54.235.29.9/FacialAge/BNav_EC2/DepthDuration/v2_depth_duration_MTurk/v2_DepthDuration_HTML.html#111,111,1440,821,1440,900,8-21-2022,6-47-49,111,depth_duration_stimuli/001011_2014-06-08_23-18-54_260595134347_rgbf000044-resize_4/001011_2014-06-08_23-18-54_260595134347_rgbf000044-resize_4-target.png,125,2.4730000000000003,4,1764,125,feet,jsons/VE125_randls_75_rotated.json,480385,757059,24,Man
111,476475,DepthScenes,duration_manipulation_targetAtFixation,jsons/VE125_randls_75_rotated.json,http://54.235.29.9/FacialAge/BNav_EC2/DepthDuration/v2_depth_duration_MTurk/v2_DepthDuration_HTML.html#111,111,1440,821,1440,900,8-21-2022,6-47-49,112,depth_duration_stimuli/002657_2014-06-13_15-29-54_094959634447_rgbf000150-resize_1/002657_2014-06-13_15-29-54_094959634447_rgbf000150-resize_1-target.png,125,4.919,4,1544,121,feet,jsons/VE125_randls_75_rotated.json,480385,757059,24,Man
112,476475,DepthScenes,duration_manipulation_targetAtFixation,jsons/VE125_randls_75_rotated.json,http://54.235.29.9/FacialAge/BNav_EC2/DepthDuration/v2_depth_duration_MTurk/v2_DepthDuration_HTML.html#111,111,1440,821,1440,900,8-21-2022,6-47-49,113,depth_duration_stimuli/002375_2014-06-28_20-13-44_260595134347_rgbf000032-resize_1/002375_2014-06-28_20-13-44_260595134347_rgbf000032-resize_1-target.png,125,4.0175,5,1616,124,feet,jsons/VE125_randls_75_rotated.json,480385,757059,24,Man
113,476475,DepthScenes,duration_manipulation_targetAtFixation,jsons/VE125_randls_75_rotated.json,http://54.235.29.9/FacialAge/BNav_EC2/DepthDuration/v2_depth_duration_MTurk/v2_DepthDuration_HTML.html#111,111,1440,821,1440,900,8-21-2022,6-47-49,114,depth_duration_stimuli/002995_2014-06-15_12-31-26_094959634447_rgbf000150-resize_1/002995_2014-06-15_12-31-26_094959634447_rgbf000150-resize_1-target.png,125,3.8360000000000003,6,1596,126,feet,jsons/VE125_randls_75_rotated.json,480385,757059,24,Man
114,476475,DepthScenes,duration_manipulation_targetAtFixation,jsons/VE125_randls_75_rotated.json,http://54.235.29.9/FacialAge/BNav_EC2/DepthDuration/v2_depth_duration_MTurk/v2_DepthDuration_HTML.html#111,111,1440,821,1440,900,8-21-2022,6-47-49,115,depth_duration_stimuli/002748_2014-06-22_19-07-22_094959634447_rgbf000078-resize_1/002748_2014-06-22_19-07-22_094959634447_rgbf000078-resize_1-target.png,125,4.6705,0,2217,126,feet,jsons/VE125_randls_75_rotated.json,480385,757059,24,Man
115,476475,DepthScenes,duration_manipulation_targetAtFixation,jsons/VE125_randls_75_rotated.json,http://54.235.29.9/FacialAge/BNav_EC2/DepthDuration/v2_depth_duration_MTurk/v2_DepthDuration_HTML.html#111,111,1440,821,1440,900,8-21-2022,6-47-49,116,depth_duration_stimuli/003081_2014-06-15_15-19-16_094959634447_rgbf000150-resize_1/003081_2014-06-15_15-19-16_094959634447_rgbf000150-resize_1-target.png,125,3.9125,5,49596,122,feet,jsons/VE125_randls_75_rotated.json,480385,757059,24,Man
116,476475,DepthScenes,duration_manipulation_targetAtFixation,jsons/VE125_randls_75_rotated.json,http://54.235.29.9/FacialAge/BNav_EC2/DepthDuration/v2_depth_duration_MTurk/v2_DepthDuration_HTML.html#111,111,1440,821,1440,900,8-21-2022,6-47-49,117,depth_duration_stimuli/001417_2014-06-19_16-25-36_260595134347_rgbf000115-resize_5/001417_2014-06-19_16-25-36_260595134347_rgbf000115-resize_5-target.png,125,4.6255,5,1865,124,feet,jsons/VE125_randls_75_rotated.json,480385,757059,24,Man
117,476475,DepthScenes,duration_manipulation_targetAtFixation,jsons/VE125_randls_75_rotated.json,http://54.235.29.9/FacialAge/BNav_EC2/DepthDuration/v2_depth_duration_MTurk/v2_DepthDuration_HTML.html#111,111,1440,821,1440,900,8-21-2022,6-47-49,118,depth_duration_stimuli/000556_2014-06-09_22-42-56_260595134347_rgbf000214-resize_1/000556_2014-06-09_22-42-56_260595134347_rgbf000214-resize_1-target.png,125,4.8415,5,1649,125,feet,jsons/VE125_randls_75_rotated.json,480385,757059,24,Man
118,476475,DepthScenes,duration_manipulation_targetAtFixation,jsons/VE125_randls_75_rotated.json,http://54.235.29.9/FacialAge/BNav_EC2/DepthDuration/v2_depth_duration_MTurk/v2_DepthDuration_HTML.html#111,111,1440,821,1440,900,8-21-2022,6-47-49,119,depth_duration_stimuli/001158_2014-06-17_15-32-16_260595134347_rgbf000138-resize_2/001158_2014-06-17_15-32-16_260595134347_rgbf000138-resize_2-target.png,125,4.5315,5,1615,125,feet,jsons/VE125_randls_75_rotated.json,480385,757059,24,Man
119,476475,DepthScenes,duration_manipulation_targetAtFixation,jsons/VE125_randls_75_rotated.json,http://54.235.29.9/FacialAge/BNav_EC2/DepthDuration/v2_depth_duration_MTurk/v2_DepthDuration_HTML.html#111,111,1440,821,1440,900,8-21-2022,6-47-49,120,depth_duration_stimuli/000787_2014-06-08_22-33-53_260595134347_rgbf000175-resize_1/000787_2014-06-08_22-33-53_260595134347_rgbf000175-resize-original.jpg,125,4.784,0,2266,124,feet,jsons/VE125_randls_75_rotated.json,480385,757059,24,Man
120,476475,DepthScenes,duration_manipulation_targetAtFixation,jsons/VE125_randls_75_rotated.json,http://54.235.29.9/FacialAge/BNav_EC2/DepthDuration/v2_depth_duration_MTurk/v2_DepthDuration_HTML.html#111,111,1440,821,1440,900,8-21-2022,6-47-49,121,depth_duration_stimuli/001214_2014-06-17_16-13-55_260595134347_rgbf000111-resize_0/001214_2014-06-17_16-13-55_260595134347_rgbf000111-resize_0-target.png,125,2.6505,0,1645,124,feet,jsons/VE125_randls_75_rotated.json,480385,757059,24,Man
121,476475,DepthScenes,duration_manipulation_targetAtFixation,jsons/VE125_randls_75_rotated.json,http://54.235.29.9/FacialAge/BNav_EC2/DepthDuration/v2_depth_duration_MTurk/v2_DepthDuration_HTML.html#111,111,1440,821,1440,900,8-21-2022,6-47-49,122,depth_duration_stimuli/000810_2014-06-08_17-20-01_260595134347_rgbf000105-resize_0/000810_2014-06-08_17-20-01_260595134347_rgbf000105-resize_0-target.png,125,1.4865,4,3310,119,feet,jsons/VE125_randls_75_rotated.json,480385,757059,24,Man
122,476475,DepthScenes,duration_manipulation_targetAtFixation,jsons/VE125_randls_75_rotated.json,http://54.235.29.9/FacialAge/BNav_EC2/DepthDuration/v2_depth_duration_MTurk/v2_DepthDuration_HTML.html#111,111,1440,821,1440,900,8-21-2022,6-47-49,123,depth_duration_stimuli/000635_2014-06-08_16-38-42_260595134347_rgbf000106-resize_1/000635_2014-06-08_16-38-42_260595134347_rgbf000106-resize_1-target.png,125,2.074,4,1699,125,feet,jsons/VE125_randls_75_rotated.json,480385,757059,24,Man
123,476475,DepthScenes,duration_manipulation_targetAtFixation,jsons/VE125_randls_75_rotated.json,http://54.235.29.9/FacialAge/BNav_EC2/DepthDuration/v2_depth_duration_MTurk/v2_DepthDuration_HTML.html#111,111,1440,821,1440,900,8-21-2022,6-47-49,124,depth_duration_stimuli/002279_2014-06-28_18-55-32_260595134347_rgbf000040-resize_5/002279_2014-06-28_18-55-32_260595134347_rgbf000040-resize_5-target.png,125,1.5043333333333,4,1565,125,feet,jsons/VE125_randls_75_rotated.json,480385,757059,24,Man
124,476475,DepthScenes,duration_manipulation_targetAtFixation,jsons/VE125_randls_75_rotated.json,http://54.235.29.9/FacialAge/BNav_EC2/DepthDuration/v2_depth_duration_MTurk/v2_DepthDuration_HTML.html#111,111,1440,821,1440,900,8-21-2022,6-47-49,125,depth_duration_stimuli/000109_2014-05-14_23-41-52_260595134347_rgbf000035-resize_9/000109_2014-05-14_23-41-52_260595134347_rgbf000035-resize_9-target.png,125,1.3545,4,15333,124,feet,jsons/VE125_randls_75_rotated.json,480385,757059,24,Man
125,476475,DepthScenes,duration_manipulation_targetAtFixation,jsons/VE125_randls_75_rotated.json,http://54.235.29.9/FacialAge/BNav_EC2/DepthDuration/v2_depth_duration_MTurk/v2_DepthDuration_HTML.html#111,111,1440,821,1440,900,8-21-2022,6-47-49,126,depth_duration_stimuli/000470_2014-06-09_19-42-40_260595134347_rgbf000094-resize_1/000470_2014-06-09_19-42-40_260595134347_rgbf000094-resize_1-target.png,125,1.831,5,1565,126,feet,jsons/VE125_randls_75_rotated.json,480385,757059,24,Man
126,476475,DepthScenes,duration_manipulation_targetAtFixation,jsons/VE125_randls_75_rotated.json,http://54.235.29.9/FacialAge/BNav_EC2/DepthDuration/v2_depth_duration_MTurk/v2_DepthDuration_HTML.html#111,111,1440,821,1440,900,8-21-2022,6-47-49,127,depth_duration_stimuli/001136_2014-06-17_15-19-41_260595134347_rgbf000076-resize_3/001136_2014-06-17_15-19-41_260595134347_rgbf000076-resize_3-target.png,125,1.8655,5,1694,123,feet,jsons/VE125_randls_75_rotated.json,480385,757059,24,Man
127,476475,DepthScenes,duration_manipulation_targetAtFixation,jsons/VE125_randls_75_rotated.json,http://54.235.29.9/FacialAge/BNav_EC2/DepthDuration/v2_depth_duration_MTurk/v2_DepthDuration_HTML.html#111,111,1440,821,1440,900,8-21-2022,6-47-49,128,depth_duration_stimuli/001164_2014-06-17_15-35-46_260595134347_rgbf000085-resize_3/001164_2014-06-17_15-35-46_260595134347_rgbf000085-resize_3-target.png,125,2.354,5,1499,124,feet,jsons/VE125_randls_75_rotated.json,480385,757059,24,Man
128,476475,DepthScenes,duration_manipulation_targetAtFixation,jsons/VE125_randls_75_rotated.json,http://54.235.29.9/FacialAge/BNav_EC2/DepthDuration/v2_depth_duration_MTurk/v2_DepthDuration_HTML.html#111,111,1440,821,1440,900,8-21-2022,6-47-49,129,depth_duration_stimuli/003423_2014-05-21_10-23-26_094959634447_rgbf002665-resize_2/003423_2014-05-21_10-23-26_094959634447_rgbf002665-resize_2-target.png,125,3.2575,5,1793,122,feet,jsons/VE125_randls_75_rotated.json,480385,757059,24,Man
129,476475,DepthScenes,duration_manipulation_targetAtFixation,jsons/VE125_randls_75_rotated.json,http://54.235.29.9/FacialAge/BNav_EC2/DepthDuration/v2_depth_duration_MTurk/v2_DepthDuration_HTML.html#111,111,1440,821,1440,900,8-21-2022,6-47-49,130,depth_duration_stimuli/002905_2014-06-03_18-04-43_094959634447_rgbf000151-resize_2/002905_2014-06-03_18-04-43_094959634447_rgbf000151-resize_2-target.png,125,2.0295,6,2133,124,feet,jsons/VE125_randls_75_rotated.json,480385,757059,24,Man
130,476475,DepthScenes,duration_manipulation_targetAtFixation,jsons/VE125_randls_75_rotated.json,http://54.235.29.9/FacialAge/BNav_EC2/DepthDuration/v2_depth_duration_MTurk/v2_DepthDuration_HTML.html#111,111,1440,821,1440,900,8-21-2022,6-47-49,131,depth_duration_stimuli/000137_2014-05-20_17-04-49_260595134347_rgbf000120-resize_1/000137_2014-05-20_17-04-49_260595134347_rgbf000120-resize_1-target.png,125,3.786,0,2247,123,feet,jsons/VE125_randls_75_rotated.json,480385,757059,24,Man
131,476475,DepthScenes,duration_manipulation_targetAtFixation,jsons/VE125_randls_75_rotated.json,http://54.235.29.9/FacialAge/BNav_EC2/DepthDuration/v2_depth_duration_MTurk/v2_DepthDuration_HTML.html#111,111,1440,821,1440,900,8-21-2022,6-47-49,132,depth_duration_stimuli/000736_2014-06-08_18-24-15_260595134347_rgbf000206-resize_3/000736_2014-06-08_18-24-15_260595134347_rgbf000206-resize_3-target.png,125,3.515,7,1533,124,feet,jsons/VE125_randls_75_rotated.json,480385,757059,24,Man
132,476475,DepthScenes,duration_manipulation_targetAtFixation,jsons/VE125_randls_75_rotated.json,http://54.235.29.9/FacialAge/BNav_EC2/DepthDuration/v2_depth_duration_MTurk/v2_DepthDuration_HTML.html#111,111,1440,821,1440,900,8-21-2022,6-47-49,133,depth_duration_stimuli/000866_2014-06-09_20-45-42_260595134347_rgbf000139-resize_1/000866_2014-06-09_20-45-42_260595134347_rgbf000139-resize_1-target.png,125,3.2155,4,1664,123,feet,jsons/VE125_randls_75_rotated.json,480385,757059,24,Man
133,476475,DepthScenes,duration_manipulation_targetAtFixation,jsons/VE125_randls_75_rotated.json,http://54.235.29.9/FacialAge/BNav_EC2/DepthDuration/v2_depth_duration_MTurk/v2_DepthDuration_HTML.html#111,111,1440,821,1440,900,8-21-2022,6-47-49,134,depth_duration_stimuli/002989_2014-06-15_12-25-03_094959634447_rgbf000150-resize_3/002989_2014-06-15_12-25-03_094959634447_rgbf000150-resize_3-target.png,125,4.1975,4,1632,125,feet,jsons/VE125_randls_75_rotated.json,480385,757059,24,Man
134,476475,DepthScenes,duration_manipulation_targetAtFixation,jsons/VE125_randls_75_rotated.json,http://54.235.29.9/FacialAge/BNav_EC2/DepthDuration/v2_depth_duration_MTurk/v2_DepthDuration_HTML.html#111,111,1440,821,1440,900,8-21-2022,6-47-49,135,depth_duration_stimuli/000375_2014-06-08_11-17-29_260595134347_rgbf000133-resize_2/000375_2014-06-08_11-17-29_260595134347_rgbf000133-resize-original.jpg,125,4.718,0,2632,128,feet,jsons/VE125_randls_75_rotated.json,480385,757059,24,Man
135,476475,DepthScenes,duration_manipulation_targetAtFixation,jsons/VE125_randls_75_rotated.json,http://54.235.29.9/FacialAge/BNav_EC2/DepthDuration/v2_depth_duration_MTurk/v2_DepthDuration_HTML.html#111,111,1440,821,1440,900,8-21-2022,6-47-49,136,depth_duration_stimuli/000483_2014-06-09_20-41-45_260595134347_rgbf000116-resize_4/000483_2014-06-09_20-41-45_260595134347_rgbf000116-resize_4-target.png,125,1.337,4,2382,125,feet,jsons/VE125_randls_75_rotated.json,480385,757059,24,Man
136,476475,DepthScenes,duration_manipulation_targetAtFixation,jsons/VE125_randls_75_rotated.json,http://54.235.29.9/FacialAge/BNav_EC2/DepthDuration/v2_depth_duration_MTurk/v2_DepthDuration_HTML.html#111,111,1440,821,1440,900,8-21-2022,6-47-49,137,depth_duration_stimuli/000469_2014-06-09_19-42-10_260595134347_rgbf000081-resize_1/000469_2014-06-09_19-42-10_260595134347_rgbf000081-resize_1-target.png,125,1.652,4,1649,125,feet,jsons/VE125_randls_75_rotated.json,480385,757059,24,Man
137,476475,DepthScenes,duration_manipulation_targetAtFixation,jsons/VE125_randls_75_rotated.json,http://54.235.29.9/FacialAge/BNav_EC2/DepthDuration/v2_depth_duration_MTurk/v2_DepthDuration_HTML.html#111,111,1440,821,1440,900,8-21-2022,6-47-49,138,depth_duration_stimuli/002758_2014-06-22_19-11-20_094959634447_rgbf000128-resize_1/002758_2014-06-22_19-11-20_094959634447_rgbf000128-resize_1-target.png,125,2.555,6,1733,128,feet,jsons/VE125_randls_75_rotated.json,480385,757059,24,Man
138,476475,DepthScenes,duration_manipulation_targetAtFixation,jsons/VE125_randls_75_rotated.json,http://54.235.29.9/FacialAge/BNav_EC2/DepthDuration/v2_depth_duration_MTurk/v2_DepthDuration_HTML.html#111,111,1440,821,1440,900,8-21-2022,6-47-49,139,depth_duration_stimuli/002630_2014-06-24_14-47-50_094959634447_rgbf000055-resize_1/002630_2014-06-24_14-47-50_094959634447_rgbf000055-resize_1-target.png,125,3.0095,5,1615,125,feet,jsons/VE125_randls_75_rotated.json,480385,757059,24,Man
139,476475,DepthScenes,duration_manipulation_targetAtFixation,jsons/VE125_randls_75_rotated.json,http://54.235.29.9/FacialAge/BNav_EC2/DepthDuration/v2_depth_duration_MTurk/v2_DepthDuration_HTML.html#111,111,1440,821,1440,900,8-21-2022,6-47-49,140,depth_duration_stimuli/001571_2014-06-20_17-21-32_260595134347_rgbf000089-resize_1/001571_2014-06-20_17-21-32_260595134347_rgbf000089-resize_1-target.png,125,1.86,5,1466,124,feet,jsons/VE125_randls_75_rotated.json,480385,757059,24,Man
140,476475,DepthScenes,duration_manipulation_targetAtFixation,jsons/VE125_randls_75_rotated.json,http://54.235.29.9/FacialAge/BNav_EC2/DepthDuration/v2_depth_duration_MTurk/v2_DepthDuration_HTML.html#111,111,1440,821,1440,900,8-21-2022,6-47-49,141,depth_duration_stimuli/002272_2014-06-28_18-53-56_260595134347_rgbf000067-resize_2/002272_2014-06-28_18-53-56_260595134347_rgbf000067-resize_2-target.png,125,1.138,2,2199,124,feet,jsons/VE125_randls_75_rotated.json,480385,757059,24,Man
141,476475,DepthScenes,duration_manipulation_targetAtFixation,jsons/VE125_randls_75_rotated.json,http://54.235.29.9/FacialAge/BNav_EC2/DepthDuration/v2_depth_duration_MTurk/v2_DepthDuration_HTML.html#111,111,1440,821,1440,900,8-21-2022,6-47-49,142,depth_duration_stimuli/000927_2014-06-09_16-32-30_260595134347_rgbf000123-resize_3/000927_2014-06-09_16-32-30_260595134347_rgbf000123-resize_3-target.png,125,2.6785,4,1815,124,feet,jsons/VE125_randls_75_rotated.json,480385,757059,24,Man
142,476475,DepthScenes,duration_manipulation_targetAtFixation,jsons/VE125_randls_75_rotated.json,http://54.235.29.9/FacialAge/BNav_EC2/DepthDuration/v2_depth_duration_MTurk/v2_DepthDuration_HTML.html#111,111,1440,821,1440,900,8-21-2022,6-47-49,143,depth_duration_stimuli/001110_2014-06-15_17-25-28_260595134347_rgbf000150-resize_1/001110_2014-06-15_17-25-28_260595134347_rgbf000150-resize_1-target.png,125,1.7115,5,1565,125,feet,jsons/VE125_randls_75_rotated.json,480385,757059,24,Man
143,476475,DepthScenes,duration_manipulation_targetAtFixation,jsons/VE125_randls_75_rotated.json,http://54.235.29.9/FacialAge/BNav_EC2/DepthDuration/v2_depth_duration_MTurk/v2_DepthDuration_HTML.html#111,111,1440,821,1440,900,8-21-2022,6-47-49,144,depth_duration_stimuli/001052_2014-06-08_18-24-54_260595134347_rgbf000130-resize_1/001052_2014-06-08_18-24-54_260595134347_rgbf000130-resize_1-target.png,125,4.1045,6,1816,124,feet,jsons/VE125_randls_75_rotated.json,480385,757059,24,Man
144,476475,DepthScenes,duration_manipulation_targetAtFixation,jsons/VE125_randls_75_rotated.json,http://54.235.29.9/FacialAge/BNav_EC2/DepthDuration/v2_depth_duration_MTurk/v2_DepthDuration_HTML.html#111,111,1440,821,1440,900,8-21-2022,6-47-49,145,depth_duration_stimuli/002988_2014-06-15_12-24-20_094959634447_rgbf000150-resize_1/002988_2014-06-15_12-24-20_094959634447_rgbf000150-resize_1-target.png,125,4.7669999999999995,7,2249,124,feet,jsons/VE125_randls_75_rotated.json,480385,757059,24,Man
145,476475,DepthScenes,duration_manipulation_targetAtFixation,jsons/VE125_randls_75_rotated.json,http://54.235.29.9/FacialAge/BNav_EC2/DepthDuration/v2_depth_duration_MTurk/v2_DepthDuration_HTML.html#111,111,1440,821,1440,900,8-21-2022,6-47-49,146,depth_duration_stimuli/000677_2014-06-08_23-10-32_260595134347_rgbf000158-resize_6/000677_2014-06-08_23-10-32_260595134347_rgbf000158-resize_6-target.png,125,3.556,5,2332,126,feet,jsons/VE125_randls_75_rotated.json,480385,757059,24,Man
146,476475,DepthScenes,duration_manipulation_targetAtFixation,jsons/VE125_randls_75_rotated.json,http://54.235.29.9/FacialAge/BNav_EC2/DepthDuration/v2_depth_duration_MTurk/v2_DepthDuration_HTML.html#111,111,1440,821,1440,900,8-21-2022,6-47-49,147,depth_duration_stimuli/001029_2014-06-08_13-17-57_260595134347_rgbf000065-resize_1/001029_2014-06-08_13-17-57_260595134347_rgbf000065-resize_1-target.png,125,3.0835,0,2329,123,feet,jsons/VE125_randls_75_rotated.json,480385,757059,24,Man
147,476475,DepthScenes,duration_manipulation_targetAtFixation,jsons/VE125_randls_75_rotated.json,http://54.235.29.9/FacialAge/BNav_EC2/DepthDuration/v2_depth_duration_MTurk/v2_DepthDuration_HTML.html#111,111,1440,821,1440,900,8-21-2022,6-47-49,148,depth_duration_stimuli/002568_2014-06-24_13-59-21_094959634447_rgbf000062-resize_4/002568_2014-06-24_13-59-21_094959634447_rgbf000062-resize_4-target.png,125,3.015,4,1877,122,feet,jsons/VE125_randls_75_rotated.json,480385,757059,24,Man
148,476475,DepthScenes,duration_manipulation_targetAtFixation,jsons/VE125_randls_75_rotated.json,http://54.235.29.9/FacialAge/BNav_EC2/DepthDuration/v2_depth_duration_MTurk/v2_DepthDuration_HTML.html#111,111,1440,821,1440,900,8-21-2022,6-47-49,149,depth_duration_stimuli/003492_2014-05-21_15-50-55_094959634447_rgbf000828-resize_1/003492_2014-05-21_15-50-55_094959634447_rgbf000828-resize_1-target.png,125,4.06875,5,1780,125,feet,jsons/VE125_randls_75_rotated.json,480385,757059,24,Man
149,476475,DepthScenes,duration_manipulation_targetAtFixation,jsons/VE125_randls_75_rotated.json,http://54.235.29.9/FacialAge/BNav_EC2/DepthDuration/v2_depth_duration_MTurk/v2_DepthDuration_HTML.html#111,111,1440,821,1440,900,8-21-2022,6-47-49,150,depth_duration_stimuli/002136_2014-06-25_21-18-03_260595134347_rgbf000109-resize_3/002136_2014-06-25_21-18-03_260595134347_rgbf000109-resize_3-target.png,125,1.9569999999999999,3,1961,122,feet,jsons/VE125_randls_75_rotated.json,480385,757059,24,Man
150,476475,DepthScenes,duration_manipulation_targetAtFixation,jsons/VE125_randls_75_rotated.json,http://54.235.29.9/FacialAge/BNav_EC2/DepthDuration/v2_depth_duration_MTurk/v2_DepthDuration_HTML.html#111,111,1440,821,1440,900,8-21-2022,6-47-49,151,depth_duration_stimuli/002964_2014-06-08_17-46-11_094959634447_rgbf000091-resize_4/002964_2014-06-08_17-46-11_094959634447_rgbf000091-resize_4-target.png,125,1.6909999999999998,3,1544,120,feet,jsons/VE125_randls_75_rotated.json,480385,757059,24,Man
151,476475,DepthScenes,duration_manipulation_targetAtFixation,jsons/VE125_randls_75_rotated.json,http://54.235.29.9/FacialAge/BNav_EC2/DepthDuration/v2_depth_duration_MTurk/v2_DepthDuration_HTML.html#111,111,1440,821,1440,900,8-21-2022,6-47-49,152,depth_duration_stimuli/000569_2014-06-09_22-51-47_260595134347_rgbf000141-resize_3/000569_2014-06-09_22-51-47_260595134347_rgbf000141-resize-original.jpg,125,4.512,0,1999,124,feet,jsons/VE125_randls_75_rotated.json,480385,757059,24,Man
152,476475,DepthScenes,duration_manipulation_targetAtFixation,jsons/VE125_randls_75_rotated.json,http://54.235.29.9/FacialAge/BNav_EC2/DepthDuration/v2_depth_duration_MTurk/v2_DepthDuration_HTML.html#111,111,1440,821,1440,900,8-21-2022,6-47-49,153,depth_duration_stimuli/000409_2014-06-04_19-23-33_260595134347_rgbf000067-resize_0/000409_2014-06-04_19-23-33_260595134347_rgbf000067-resize_0-target.png,125,3.7335,4,1514,125,feet,jsons/VE125_randls_75_rotated.json,480385,757059,24,Man
153,476475,DepthScenes,duration_manipulation_targetAtFixation,jsons/VE125_randls_75_rotated.json,http://54.235.29.9/FacialAge/BNav_EC2/DepthDuration/v2_depth_duration_MTurk/v2_DepthDuration_HTML.html#111,111,1440,821,1440,900,8-21-2022,6-47-49,154,depth_duration_stimuli/002663_2014-06-13_15-50-26_094959634447_rgbf000075-resize_1/002663_2014-06-13_15-50-26_094959634447_rgbf000075-resize_1-target.png,125,4.7495,4,1482,126,feet,jsons/VE125_randls_75_rotated.json,480385,757059,24,Man
154,476475,DepthScenes,duration_manipulation_targetAtFixation,jsons/VE125_randls_75_rotated.json,http://54.235.29.9/FacialAge/BNav_EC2/DepthDuration/v2_depth_duration_MTurk/v2_DepthDuration_HTML.html#111,111,1440,821,1440,900,8-21-2022,6-47-49,155,depth_duration_stimuli/003083_2014-06-15_15-21-03_094959634447_rgbf000063-resize_1/003083_2014-06-15_15-21-03_094959634447_rgbf000063-resize_1-target.png,125,4.1405,3,1544,123,feet,jsons/VE125_randls_75_rotated.json,480385,757059,24,Man
155,476475,DepthScenes,duration_manipulation_targetAtFixation,jsons/VE125_randls_75_rotated.json,http://54.235.29.9/FacialAge/BNav_EC2/DepthDuration/v2_depth_duration_MTurk/v2_DepthDuration_HTML.html#111,111,1440,821,1440,900,8-21-2022,6-47-49,156,depth_duration_stimuli/000486_2014-06-09_20-47-20_260595134347_rgbf000143-resize_2/000486_2014-06-09_20-47-20_260595134347_rgbf000143-resize_2-target.png,125,4.8325,0,2879,125,feet,jsons/VE125_randls_75_rotated.json,480385,757059,24,Man
156,476475,DepthScenes,duration_manipulation_targetAtFixation,jsons/VE125_randls_75_rotated.json,http://54.235.29.9/FacialAge/BNav_EC2/DepthDuration/v2_depth_duration_MTurk/v2_DepthDuration_HTML.html#111,111,1440,821,1440,900,8-21-2022,6-47-49,157,depth_duration_stimuli/002678_2014-06-13_16-15-32_094959634447_rgbf000151-resize_6/002678_2014-06-13_16-15-32_094959634447_rgbf000151-resize_6-target.png,125,2.1830000000000003,5,3677,123,feet,jsons/VE125_randls_75_rotated.json,480385,757059,24,Man
157,476475,DepthScenes,duration_manipulation_targetAtFixation,jsons/VE125_randls_75_rotated.json,http://54.235.29.9/FacialAge/BNav_EC2/DepthDuration/v2_depth_duration_MTurk/v2_DepthDuration_HTML.html#111,111,1440,821,1440,900,8-21-2022,6-47-49,158,depth_duration_stimuli/000368_2014-06-09_15-53-01_260595134347_rgbf000155-resize_2/000368_2014-06-09_15-53-01_260595134347_rgbf000155-resize_2-target.png,125,2.4859999999999998,0,3112,124,feet,jsons/VE125_randls_75_rotated.json,480385,757059,24,Man
158,476475,DepthScenes,duration_manipulation_targetAtFixation,jsons/VE125_randls_75_rotated.json,http://54.235.29.9/FacialAge/BNav_EC2/DepthDuration/v2_depth_duration_MTurk/v2_DepthDuration_HTML.html#111,111,1440,821,1440,900,8-21-2022,6-47-49,159,depth_duration_stimuli/001100_2014-06-15_17-46-26_260595134347_rgbf000225-resize_2/001100_2014-06-15_17-46-26_260595134347_rgbf000225-resize_2-target.png,125,2.24,4,2995,124,feet,jsons/VE125_randls_75_rotated.json,480385,757059,24,Man
159,476475,DepthScenes,duration_manipulation_targetAtFixation,jsons/VE125_randls_75_rotated.json,http://54.235.29.9/FacialAge/BNav_EC2/DepthDuration/v2_depth_duration_MTurk/v2_DepthDuration_HTML.html#111,111,1440,821,1440,900,8-21-2022,6-47-49,160,depth_duration_stimuli/002784_2014-06-22_19-26-30_094959634447_rgbf000083-resize_3/002784_2014-06-22_19-26-30_094959634447_rgbf000083-resize_3-target.png,125,1.8046666666667,3,1565,124,feet,jsons/VE125_randls_75_rotated.json,480385,757059,24,Man
160,476475,DepthScenes,duration_manipulation_targetAtFixation,jsons/VE125_randls_75_rotated.json,http://54.235.29.9/FacialAge/BNav_EC2/DepthDuration/v2_depth_duration_MTurk/v2_DepthDuration_HTML.html#111,111,1440,821,1440,900,8-21-2022,6-47-49,161,depth_duration_stimuli/001392_2014-06-19_16-07-59_260595134347_rgbf000046-resize_1/001392_2014-06-19_16-07-59_260595134347_rgbf000046-resize_1-target.png,125,4.135,4,1448,124,feet,jsons/VE125_randls_75_rotated.json,480385,757059,24,Man
161,476475,DepthScenes,duration_manipulation_targetAtFixation,jsons/VE125_randls_75_rotated.json,http://54.235.29.9/FacialAge/BNav_EC2/DepthDuration/v2_depth_duration_MTurk/v2_DepthDuration_HTML.html#111,111,1440,821,1440,900,8-21-2022,6-47-49,162,depth_duration_stimuli/001570_2014-06-20_17-21-09_260595134347_rgbf000135-resize_4/001570_2014-06-20_17-21-09_260595134347_rgbf000135-resize_4-target.png,125,4.467,6,2299,123,feet,jsons/VE125_randls_75_rotated.json,480385,757059,24,Man
162,476475,DepthScenes,duration_manipulation_targetAtFixation,jsons/VE125_randls_75_rotated.json,http://54.235.29.9/FacialAge/BNav_EC2/DepthDuration/v2_depth_duration_MTurk/v2_DepthDuration_HTML.html#111,111,1440,821,1440,900,8-21-2022,6-47-49,163,depth_duration_stimuli/003079_2014-06-15_15-18-20_094959634447_rgbf000152-resize_8/003079_2014-06-15_15-18-20_094959634447_rgbf000152-resize_8-target.png,125,2.8775,7,1779,123,feet,jsons/VE125_randls_75_rotated.json,480385,757059,24,Man
163,476475,DepthScenes,duration_manipulation_targetAtFixation,jsons/VE125_randls_75_rotated.json,http://54.235.29.9/FacialAge/BNav_EC2/DepthDuration/v2_depth_duration_MTurk/v2_DepthDuration_HTML.html#111,111,1440,821,1440,900,8-21-2022,6-47-49,164,depth_duration_stimuli/000506_2014-06-08_23-21-00_260595134347_rgbf000070-resize_7/000506_2014-06-08_23-21-00_260595134347_rgbf000070-resize_7-target.png,125,4.0585,5,1581,122,feet,jsons/VE125_randls_75_rotated.json,480385,757059,24,Man
