,subjID,experimentName,versionName,sequenceName,url,selected_row,windowWidth,windowHeight,screenWidth,screenHeight,startDate,startTime,trial,stimulus,duration,actual_depth,depth_estimate,trial_RT,log_sceneDuration,unitSelection,seq_filepath,experimentTime,totalTime,age,gender
0,477725,DepthScenes,duration_manipulation_targetAtFixation,jsons/VE125_randls_21.json,http://54.235.29.9/FacialAge/BNav_EC2/DepthDuration/v2_depth_duration_MTurk/v2_DepthDuration_HTML.html#407,407,1366,768,1366,768,9-19-2022,14-11-11,1,depth_duration_stimuli/000009_2014-05-26_14-32-05_260595134347_rgbf000034-resize_3/000009_2014-05-26_14-32-05_260595134347_rgbf000034-resize_3-target.png,125,3.8715,1,2483,128,meters,jsons/VE125_randls_21.json,1132693,1372190,39,Woman
1,477725,DepthScenes,duration_manipulation_targetAtFixation,jsons/VE125_randls_21.json,http://54.235.29.9/FacialAge/BNav_EC2/DepthDuration/v2_depth_duration_MTurk/v2_DepthDuration_HTML.html#407,407,1366,768,1366,768,9-19-2022,14-11-11,2,depth_duration_stimuli/001828_2014-06-26_21-40-03_260595134347_rgbf000024-resize_0/001828_2014-06-26_21-40-03_260595134347_rgbf000024-resize_0-target.png,125,4.8260000000000005,1,3077,118,meters,jsons/VE125_randls_21.json,1132693,1372190,39,Woman
2,477725,DepthScenes,duration_manipulation_targetAtFixation,jsons/VE125_randls_21.json,http://54.235.29.9/FacialAge/BNav_EC2/DepthDuration/v2_depth_duration_MTurk/v2_DepthDuration_HTML.html#407,407,1366,768,1366,768,9-19-2022,14-11-11,3,depth_duration_stimuli/001056_2014-06-08_18-46-44_260595134347_rgbf000068-resize_0/001056_2014-06-08_18-46-44_260595134347_rgbf000068-resize_0-target.png,125,2.6625,0,2360,124,meters,jsons/VE125_randls_21.json,1132693,1372190,39,Woman
3,477725,DepthScenes,duration_manipulation_targetAtFixation,jsons/VE125_randls_21.json,http://54.235.29.9/FacialAge/BNav_EC2/DepthDuration/v2_depth_duration_MTurk/v2_DepthDuration_HTML.html#407,407,1366,768,1366,768,9-19-2022,14-11-11,4,depth_duration_stimuli/002199_2014-06-28_18-33-56_260595134347_rgbf000074-resize_0/002199_2014-06-28_18-33-56_260595134347_rgbf000074-resize_0-target.png,125,1.996,1,2145,124,meters,jsons/VE125_randls_21.json,1132693,1372190,39,Woman
4,477725,DepthScenes,duration_manipulation_targetAtFixation,jsons/VE125_randls_21.json,http://54.235.29.9/FacialAge/BNav_EC2/DepthDuration/v2_depth_duration_MTurk/v2_DepthDuration_HTML.html#407,407,1366,768,1366,768,9-19-2022,14-11-11,5,depth_duration_stimuli/000469_2014-06-09_19-42-10_260595134347_rgbf000081-resize_1/000469_2014-06-09_19-42-10_260595134347_rgbf000081-resize_1-target.png,125,1.652,2,2386,129,meters,jsons/VE125_randls_21.json,1132693,1372190,39,Woman
5,477725,DepthScenes,duration_manipulation_targetAtFixation,jsons/VE125_randls_21.json,http://54.235.29.9/FacialAge/BNav_EC2/DepthDuration/v2_depth_duration_MTurk/v2_DepthDuration_HTML.html#407,407,1366,768,1366,768,9-19-2022,14-11-11,6,depth_duration_stimuli/000483_2014-06-09_20-41-45_260595134347_rgbf000116-resize_4/000483_2014-06-09_20-41-45_260595134347_rgbf000116-resize_4-target.png,125,1.337,1,2697,139,meters,jsons/VE125_randls_21.json,1132693,1372190,39,Woman
6,477725,DepthScenes,duration_manipulation_targetAtFixation,jsons/VE125_randls_21.json,http://54.235.29.9/FacialAge/BNav_EC2/DepthDuration/v2_depth_duration_MTurk/v2_DepthDuration_HTML.html#407,407,1366,768,1366,768,9-19-2022,14-11-11,7,depth_duration_stimuli/001175_2014-06-17_15-45-55_260595134347_rgbf000129-resize_4/001175_2014-06-17_15-45-55_260595134347_rgbf000129-resize_4-target.png,125,4.255,1,6825,110,meters,jsons/VE125_randls_21.json,1132693,1372190,39,Woman
7,477725,DepthScenes,duration_manipulation_targetAtFixation,jsons/VE125_randls_21.json,http://54.235.29.9/FacialAge/BNav_EC2/DepthDuration/v2_depth_duration_MTurk/v2_DepthDuration_HTML.html#407,407,1366,768,1366,768,9-19-2022,14-11-11,8,depth_duration_stimuli/003490_2014-05-21_15-50-11_094959634447_rgbf000101-resize_3/003490_2014-05-21_15-50-11_094959634447_rgbf000101-resize_3-target.png,125,3.6445,3,3384,127,meters,jsons/VE125_randls_21.json,1132693,1372190,39,Woman
8,477725,DepthScenes,duration_manipulation_targetAtFixation,jsons/VE125_randls_21.json,http://54.235.29.9/FacialAge/BNav_EC2/DepthDuration/v2_depth_duration_MTurk/v2_DepthDuration_HTML.html#407,407,1366,768,1366,768,9-19-2022,14-11-11,9,depth_duration_stimuli/002509_2014-06-24_13-19-22_094959634447_rgbf000077-resize_0/002509_2014-06-24_13-19-22_094959634447_rgbf000077-resize_0-target.png,125,1.3065,2,15413,106,meters,jsons/VE125_randls_21.json,1132693,1372190,39,Woman
9,477725,DepthScenes,duration_manipulation_targetAtFixation,jsons/VE125_randls_21.json,http://54.235.29.9/FacialAge/BNav_EC2/DepthDuration/v2_depth_duration_MTurk/v2_DepthDuration_HTML.html#407,407,1366,768,1366,768,9-19-2022,14-11-11,10,depth_duration_stimuli/003338_2014-05-20_11-01-23_094959634447_rgbf000051-resize_6/003338_2014-05-20_11-01-23_094959634447_rgbf000051-resize_6-target.png,125,1.693,1,4359,125,meters,jsons/VE125_randls_21.json,1132693,1372190,39,Woman
10,477725,DepthScenes,duration_manipulation_targetAtFixation,jsons/VE125_randls_21.json,http://54.235.29.9/FacialAge/BNav_EC2/DepthDuration/v2_depth_duration_MTurk/v2_DepthDuration_HTML.html#407,407,1366,768,1366,768,9-19-2022,14-11-11,11,depth_duration_stimuli/000493_2014-06-09_21-01-18_260595134347_rgbf000196-resize_3/000493_2014-06-09_21-01-18_260595134347_rgbf000196-resize_3-target.png,125,3.44,1,3630,124,meters,jsons/VE125_randls_21.json,1132693,1372190,39,Woman
11,477725,DepthScenes,duration_manipulation_targetAtFixation,jsons/VE125_randls_21.json,http://54.235.29.9/FacialAge/BNav_EC2/DepthDuration/v2_depth_duration_MTurk/v2_DepthDuration_HTML.html#407,407,1366,768,1366,768,9-19-2022,14-11-11,12,depth_duration_stimuli/000191_2014-05-12_17-07-38_260595134347_rgbf000199-resize_0/000191_2014-05-12_17-07-38_260595134347_rgbf000199-resize_0-target.png,125,3.7995,0,2641,125,meters,jsons/VE125_randls_21.json,1132693,1372190,39,Woman
12,477725,DepthScenes,duration_manipulation_targetAtFixation,jsons/VE125_randls_21.json,http://54.235.29.9/FacialAge/BNav_EC2/DepthDuration/v2_depth_duration_MTurk/v2_DepthDuration_HTML.html#407,407,1366,768,1366,768,9-19-2022,14-11-11,13,depth_duration_stimuli/000569_2014-06-09_22-51-47_260595134347_rgbf000141-resize_3/000569_2014-06-09_22-51-47_260595134347_rgbf000141-resize-original.jpg,125,4.512,1,2599,122,meters,jsons/VE125_randls_21.json,1132693,1372190,39,Woman
13,477725,DepthScenes,duration_manipulation_targetAtFixation,jsons/VE125_randls_21.json,http://54.235.29.9/FacialAge/BNav_EC2/DepthDuration/v2_depth_duration_MTurk/v2_DepthDuration_HTML.html#407,407,1366,768,1366,768,9-19-2022,14-11-11,14,depth_duration_stimuli/001555_2014-06-20_17-12-10_260595134347_rgbf000065-resize_4/001555_2014-06-20_17-12-10_260595134347_rgbf000065-resize_4-target.png,125,1.633,2,3029,125,meters,jsons/VE125_randls_21.json,1132693,1372190,39,Woman
14,477725,DepthScenes,duration_manipulation_targetAtFixation,jsons/VE125_randls_21.json,http://54.235.29.9/FacialAge/BNav_EC2/DepthDuration/v2_depth_duration_MTurk/v2_DepthDuration_HTML.html#407,407,1366,768,1366,768,9-19-2022,14-11-11,15,depth_duration_stimuli/000103_2014-05-14_22-01-17_260595134347_rgbf000152-resize_5/000103_2014-05-14_22-01-17_260595134347_rgbf000152-resize_5-target.png,125,1.993,2,2530,144,meters,jsons/VE125_randls_21.json,1132693,1372190,39,Woman
15,477725,DepthScenes,duration_manipulation_targetAtFixation,jsons/VE125_randls_21.json,http://54.235.29.9/FacialAge/BNav_EC2/DepthDuration/v2_depth_duration_MTurk/v2_DepthDuration_HTML.html#407,407,1366,768,1366,768,9-19-2022,14-11-11,16,depth_duration_stimuli/000642_2014-06-08_16-59-25_260595134347_rgbf000098-resize_2/000642_2014-06-08_16-59-25_260595134347_rgbf000098-resize_2-target.png,125,2.8815,2,3714,140,meters,jsons/VE125_randls_21.json,1132693,1372190,39,Woman
16,477725,DepthScenes,duration_manipulation_targetAtFixation,jsons/VE125_randls_21.json,http://54.235.29.9/FacialAge/BNav_EC2/DepthDuration/v2_depth_duration_MTurk/v2_DepthDuration_HTML.html#407,407,1366,768,1366,768,9-19-2022,14-11-11,17,depth_duration_stimuli/002425_2014-06-28_20-27-29_260595134347_rgbf000031-resize_8/002425_2014-06-28_20-27-29_260595134347_rgbf000031-resize_8-target.png,125,3.8960000000000004,1,2581,122,meters,jsons/VE125_randls_21.json,1132693,1372190,39,Woman
17,477725,DepthScenes,duration_manipulation_targetAtFixation,jsons/VE125_randls_21.json,http://54.235.29.9/FacialAge/BNav_EC2/DepthDuration/v2_depth_duration_MTurk/v2_DepthDuration_HTML.html#407,407,1366,768,1366,768,9-19-2022,14-11-11,18,depth_duration_stimuli/001449_2014-06-19_17-01-27_260595134347_rgbf000116-resize_2/001449_2014-06-19_17-01-27_260595134347_rgbf000116-resize_2-target.png,125,3.452,1,2529,124,meters,jsons/VE125_randls_21.json,1132693,1372190,39,Woman
18,477725,DepthScenes,duration_manipulation_targetAtFixation,jsons/VE125_randls_21.json,http://54.235.29.9/FacialAge/BNav_EC2/DepthDuration/v2_depth_duration_MTurk/v2_DepthDuration_HTML.html#407,407,1366,768,1366,768,9-19-2022,14-11-11,19,depth_duration_stimuli/001450_2014-06-19_17-02-03_260595134347_rgbf000203-resize_4/001450_2014-06-19_17-02-03_260595134347_rgbf000203-resize_4-target.png,125,4.0106666666667,1,3953,114,meters,jsons/VE125_randls_21.json,1132693,1372190,39,Woman
19,477725,DepthScenes,duration_manipulation_targetAtFixation,jsons/VE125_randls_21.json,http://54.235.29.9/FacialAge/BNav_EC2/DepthDuration/v2_depth_duration_MTurk/v2_DepthDuration_HTML.html#407,407,1366,768,1366,768,9-19-2022,14-11-11,20,depth_duration_stimuli/001055_2014-06-08_18-45-35_260595134347_rgbf000111-resize_4/001055_2014-06-08_18-45-35_260595134347_rgbf000111-resize_4-target.png,125,2.4290000000000003,1,9202,123,meters,jsons/VE125_randls_21.json,1132693,1372190,39,Woman
20,477725,DepthScenes,duration_manipulation_targetAtFixation,jsons/VE125_randls_21.json,http://54.235.29.9/FacialAge/BNav_EC2/DepthDuration/v2_depth_duration_MTurk/v2_DepthDuration_HTML.html#407,407,1366,768,1366,768,9-19-2022,14-11-11,21,depth_duration_stimuli/000549_2014-06-08_22-10-24_260595134347_rgbf000247-resize_3/000549_2014-06-08_22-10-24_260595134347_rgbf000247-resize_3-target.png,125,1.841,0,7011,135,meters,jsons/VE125_randls_21.json,1132693,1372190,39,Woman
21,477725,DepthScenes,duration_manipulation_targetAtFixation,jsons/VE125_randls_21.json,http://54.235.29.9/FacialAge/BNav_EC2/DepthDuration/v2_depth_duration_MTurk/v2_DepthDuration_HTML.html#407,407,1366,768,1366,768,9-19-2022,14-11-11,22,depth_duration_stimuli/001011_2014-06-08_23-18-54_260595134347_rgbf000044-resize_4/001011_2014-06-08_23-18-54_260595134347_rgbf000044-resize_4-target.png,125,2.4730000000000003,1,4182,139,meters,jsons/VE125_randls_21.json,1132693,1372190,39,Woman
22,477725,DepthScenes,duration_manipulation_targetAtFixation,jsons/VE125_randls_21.json,http://54.235.29.9/FacialAge/BNav_EC2/DepthDuration/v2_depth_duration_MTurk/v2_DepthDuration_HTML.html#407,407,1366,768,1366,768,9-19-2022,14-11-11,23,depth_duration_stimuli/002875_2014-06-01_15-19-00_094959634447_rgbf000151-resize_1/002875_2014-06-01_15-19-00_094959634447_rgbf000151-resize_1-target.png,125,1.9675,3,4048,128,meters,jsons/VE125_randls_21.json,1132693,1372190,39,Woman
23,477725,DepthScenes,duration_manipulation_targetAtFixation,jsons/VE125_randls_21.json,http://54.235.29.9/FacialAge/BNav_EC2/DepthDuration/v2_depth_duration_MTurk/v2_DepthDuration_HTML.html#407,407,1366,768,1366,768,9-19-2022,14-11-11,24,depth_duration_stimuli/000758_2014-06-08_22-05-08_260595134347_rgbf000085-resize_0/000758_2014-06-08_22-05-08_260595134347_rgbf000085-resize_0-target.png,125,3.3810000000000002,1,4068,124,meters,jsons/VE125_randls_21.json,1132693,1372190,39,Woman
24,477725,DepthScenes,duration_manipulation_targetAtFixation,jsons/VE125_randls_21.json,http://54.235.29.9/FacialAge/BNav_EC2/DepthDuration/v2_depth_duration_MTurk/v2_DepthDuration_HTML.html#407,407,1366,768,1366,768,9-19-2022,14-11-11,25,depth_duration_stimuli/000854_2014-06-09_19-43-13_260595134347_rgbf000066-resize_0/000854_2014-06-09_19-43-13_260595134347_rgbf000066-resize_0-target.png,125,3.068,1,2918,125,meters,jsons/VE125_randls_21.json,1132693,1372190,39,Woman
25,477725,DepthScenes,duration_manipulation_targetAtFixation,jsons/VE125_randls_21.json,http://54.235.29.9/FacialAge/BNav_EC2/DepthDuration/v2_depth_duration_MTurk/v2_DepthDuration_HTML.html#407,407,1366,768,1366,768,9-19-2022,14-11-11,26,depth_duration_stimuli/000470_2014-06-09_19-42-40_260595134347_rgbf000094-resize_1/000470_2014-06-09_19-42-40_260595134347_rgbf000094-resize_1-target.png,125,1.831,2,2817,124,meters,jsons/VE125_randls_21.json,1132693,1372190,39,Woman
26,477725,DepthScenes,duration_manipulation_targetAtFixation,jsons/VE125_randls_21.json,http://54.235.29.9/FacialAge/BNav_EC2/DepthDuration/v2_depth_duration_MTurk/v2_DepthDuration_HTML.html#407,407,1366,768,1366,768,9-19-2022,14-11-11,27,depth_duration_stimuli/000109_2014-05-14_23-41-52_260595134347_rgbf000035-resize_9/000109_2014-05-14_23-41-52_260595134347_rgbf000035-resize_9-target.png,125,1.3545,1,3620,125,meters,jsons/VE125_randls_21.json,1132693,1372190,39,Woman
27,477725,DepthScenes,duration_manipulation_targetAtFixation,jsons/VE125_randls_21.json,http://54.235.29.9/FacialAge/BNav_EC2/DepthDuration/v2_depth_duration_MTurk/v2_DepthDuration_HTML.html#407,407,1366,768,1366,768,9-19-2022,14-11-11,28,depth_duration_stimuli/001244_2014-06-17_16-47-45_260595134347_rgbf000030-resize_4/001244_2014-06-17_16-47-45_260595134347_rgbf000030-resize_4-target.png,125,2.0425,0,10700,124,meters,jsons/VE125_randls_21.json,1132693,1372190,39,Woman
28,477725,DepthScenes,duration_manipulation_targetAtFixation,jsons/VE125_randls_21.json,http://54.235.29.9/FacialAge/BNav_EC2/DepthDuration/v2_depth_duration_MTurk/v2_DepthDuration_HTML.html#407,407,1366,768,1366,768,9-19-2022,14-11-11,29,depth_duration_stimuli/003495_2014-05-21_16-01-51_094959634447_rgbf000100-resize_3/003495_2014-05-21_16-01-51_094959634447_rgbf000100-resize_3-target.png,125,1.6255,1,10876,128,meters,jsons/VE125_randls_21.json,1132693,1372190,39,Woman
29,477725,DepthScenes,duration_manipulation_targetAtFixation,jsons/VE125_randls_21.json,http://54.235.29.9/FacialAge/BNav_EC2/DepthDuration/v2_depth_duration_MTurk/v2_DepthDuration_HTML.html#407,407,1366,768,1366,768,9-19-2022,14-11-11,30,depth_duration_stimuli/000375_2014-06-08_11-17-29_260595134347_rgbf000133-resize_2/000375_2014-06-08_11-17-29_260595134347_rgbf000133-resize-original.jpg,125,4.718,2,5137,126,meters,jsons/VE125_randls_21.json,1132693,1372190,39,Woman
30,477725,DepthScenes,duration_manipulation_targetAtFixation,jsons/VE125_randls_21.json,http://54.235.29.9/FacialAge/BNav_EC2/DepthDuration/v2_depth_duration_MTurk/v2_DepthDuration_HTML.html#407,407,1366,768,1366,768,9-19-2022,14-11-11,31,depth_duration_stimuli/002905_2014-06-03_18-04-43_094959634447_rgbf000151-resize_2/002905_2014-06-03_18-04-43_094959634447_rgbf000151-resize_2-target.png,125,2.0295,1,7136,113,meters,jsons/VE125_randls_21.json,1132693,1372190,39,Woman
31,477725,DepthScenes,duration_manipulation_targetAtFixation,jsons/VE125_randls_21.json,http://54.235.29.9/FacialAge/BNav_EC2/DepthDuration/v2_depth_duration_MTurk/v2_DepthDuration_HTML.html#407,407,1366,768,1366,768,9-19-2022,14-11-11,32,depth_duration_stimuli/003423_2014-05-21_10-23-26_094959634447_rgbf002665-resize_2/003423_2014-05-21_10-23-26_094959634447_rgbf002665-resize_2-target.png,125,3.2575,1,8813,115,meters,jsons/VE125_randls_21.json,1132693,1372190,39,Woman
32,477725,DepthScenes,duration_manipulation_targetAtFixation,jsons/VE125_randls_21.json,http://54.235.29.9/FacialAge/BNav_EC2/DepthDuration/v2_depth_duration_MTurk/v2_DepthDuration_HTML.html#407,407,1366,768,1366,768,9-19-2022,14-11-11,33,depth_duration_stimuli/002118_2014-06-25_20-32-08_260595134347_rgbf000078-resize_1/002118_2014-06-25_20-32-08_260595134347_rgbf000078-resize_1-target.png,125,2.6460000000000004,0,3530,124,meters,jsons/VE125_randls_21.json,1132693,1372190,39,Woman
33,477725,DepthScenes,duration_manipulation_targetAtFixation,jsons/VE125_randls_21.json,http://54.235.29.9/FacialAge/BNav_EC2/DepthDuration/v2_depth_duration_MTurk/v2_DepthDuration_HTML.html#407,407,1366,768,1366,768,9-19-2022,14-11-11,34,depth_duration_stimuli/001516_2014-06-20_16-25-09_260595134347_rgbf000076-resize_2/001516_2014-06-20_16-25-09_260595134347_rgbf000076-resize_2-target.png,125,1.7445,2,4955,124,meters,jsons/VE125_randls_21.json,1132693,1372190,39,Woman
34,477725,DepthScenes,duration_manipulation_targetAtFixation,jsons/VE125_randls_21.json,http://54.235.29.9/FacialAge/BNav_EC2/DepthDuration/v2_depth_duration_MTurk/v2_DepthDuration_HTML.html#407,407,1366,768,1366,768,9-19-2022,14-11-11,35,depth_duration_stimuli/002153_2014-06-25_21-27-18_260595134347_rgbf000038-resize_5/002153_2014-06-25_21-27-18_260595134347_rgbf000038-resize_5-target.png,125,2.505,1,4270,124,meters,jsons/VE125_randls_21.json,1132693,1372190,39,Woman
35,477725,DepthScenes,duration_manipulation_targetAtFixation,jsons/VE125_randls_21.json,http://54.235.29.9/FacialAge/BNav_EC2/DepthDuration/v2_depth_duration_MTurk/v2_DepthDuration_HTML.html#407,407,1366,768,1366,768,9-19-2022,14-11-11,36,depth_duration_stimuli/002660_2014-06-13_15-44-18_094959634447_rgbf001878-resize_2/002660_2014-06-13_15-44-18_094959634447_rgbf001878-resize_2-target.png,125,3.576,1,5399,128,meters,jsons/VE125_randls_21.json,1132693,1372190,39,Woman
36,477725,DepthScenes,duration_manipulation_targetAtFixation,jsons/VE125_randls_21.json,http://54.235.29.9/FacialAge/BNav_EC2/DepthDuration/v2_depth_duration_MTurk/v2_DepthDuration_HTML.html#407,407,1366,768,1366,768,9-19-2022,14-11-11,37,depth_duration_stimuli/002600_2014-06-24_14-27-04_094959634447_rgbf000074-resize_2/002600_2014-06-24_14-27-04_094959634447_rgbf000074-resize_2-target.png,125,2.7575,1,8863,123,meters,jsons/VE125_randls_21.json,1132693,1372190,39,Woman
37,477725,DepthScenes,duration_manipulation_targetAtFixation,jsons/VE125_randls_21.json,http://54.235.29.9/FacialAge/BNav_EC2/DepthDuration/v2_depth_duration_MTurk/v2_DepthDuration_HTML.html#407,407,1366,768,1366,768,9-19-2022,14-11-11,38,depth_duration_stimuli/003228_2014-05-14_13-42-35_094959634447_rgbf000101-resize_1/003228_2014-05-14_13-42-35_094959634447_rgbf000101-resize_1-target.png,125,1.9680000000000002,1,7579,124,meters,jsons/VE125_randls_21.json,1132693,1372190,39,Woman
38,477725,DepthScenes,duration_manipulation_targetAtFixation,jsons/VE125_randls_21.json,http://54.235.29.9/FacialAge/BNav_EC2/DepthDuration/v2_depth_duration_MTurk/v2_DepthDuration_HTML.html#407,407,1366,768,1366,768,9-19-2022,14-11-11,39,depth_duration_stimuli/002964_2014-06-08_17-46-11_094959634447_rgbf000091-resize_4/002964_2014-06-08_17-46-11_094959634447_rgbf000091-resize_4-target.png,125,1.6909999999999998,2,7277,126,meters,jsons/VE125_randls_21.json,1132693,1372190,39,Woman
39,477725,DepthScenes,duration_manipulation_targetAtFixation,jsons/VE125_randls_21.json,http://54.235.29.9/FacialAge/BNav_EC2/DepthDuration/v2_depth_duration_MTurk/v2_DepthDuration_HTML.html#407,407,1366,768,1366,768,9-19-2022,14-11-11,40,depth_duration_stimuli/002136_2014-06-25_21-18-03_260595134347_rgbf000109-resize_3/002136_2014-06-25_21-18-03_260595134347_rgbf000109-resize_3-target.png,125,1.9569999999999999,1,4123,121,meters,jsons/VE125_randls_21.json,1132693,1372190,39,Woman
40,477725,DepthScenes,duration_manipulation_targetAtFixation,jsons/VE125_randls_21.json,http://54.235.29.9/FacialAge/BNav_EC2/DepthDuration/v2_depth_duration_MTurk/v2_DepthDuration_HTML.html#407,407,1366,768,1366,768,9-19-2022,14-11-11,41,depth_duration_stimuli/003070_2014-06-15_14-58-27_094959634447_rgbf000150-resize_3/003070_2014-06-15_14-58-27_094959634447_rgbf000150-resize_3-target.png,125,2.9415,1,8700,124,meters,jsons/VE125_randls_21.json,1132693,1372190,39,Woman
41,477725,DepthScenes,duration_manipulation_targetAtFixation,jsons/VE125_randls_21.json,http://54.235.29.9/FacialAge/BNav_EC2/DepthDuration/v2_depth_duration_MTurk/v2_DepthDuration_HTML.html#407,407,1366,768,1366,768,9-19-2022,14-11-11,42,depth_duration_stimuli/000943_2014-06-09_19-31-07_260595134347_rgbf000128-resize_1/000943_2014-06-09_19-31-07_260595134347_rgbf000128-resize_1-target.png,125,1.9765,1,9345,122,meters,jsons/VE125_randls_21.json,1132693,1372190,39,Woman
42,477725,DepthScenes,duration_manipulation_targetAtFixation,jsons/VE125_randls_21.json,http://54.235.29.9/FacialAge/BNav_EC2/DepthDuration/v2_depth_duration_MTurk/v2_DepthDuration_HTML.html#407,407,1366,768,1366,768,9-19-2022,14-11-11,43,depth_duration_stimuli/001150_2014-06-17_15-27-34_260595134347_rgbf000108-resize_2/001150_2014-06-17_15-27-34_260595134347_rgbf000108-resize_2-target.png,125,4.0325,1,6952,109,meters,jsons/VE125_randls_21.json,1132693,1372190,39,Woman
43,477725,DepthScenes,duration_manipulation_targetAtFixation,jsons/VE125_randls_21.json,http://54.235.29.9/FacialAge/BNav_EC2/DepthDuration/v2_depth_duration_MTurk/v2_DepthDuration_HTML.html#407,407,1366,768,1366,768,9-19-2022,14-11-11,44,depth_duration_stimuli/000665_2014-06-09_20-42-35_260595134347_rgbf000110-resize_1/000665_2014-06-09_20-42-35_260595134347_rgbf000110-resize_1-target.png,125,3.057,0,4722,162,meters,jsons/VE125_randls_21.json,1132693,1372190,39,Woman
44,477725,DepthScenes,duration_manipulation_targetAtFixation,jsons/VE125_randls_21.json,http://54.235.29.9/FacialAge/BNav_EC2/DepthDuration/v2_depth_duration_MTurk/v2_DepthDuration_HTML.html#407,407,1366,768,1366,768,9-19-2022,14-11-11,45,depth_duration_stimuli/000787_2014-06-08_22-33-53_260595134347_rgbf000175-resize_1/000787_2014-06-08_22-33-53_260595134347_rgbf000175-resize-original.jpg,125,4.784,2,5782,121,meters,jsons/VE125_randls_21.json,1132693,1372190,39,Woman
45,477725,DepthScenes,duration_manipulation_targetAtFixation,jsons/VE125_randls_21.json,http://54.235.29.9/FacialAge/BNav_EC2/DepthDuration/v2_depth_duration_MTurk/v2_DepthDuration_HTML.html#407,407,1366,768,1366,768,9-19-2022,14-11-11,46,depth_duration_stimuli/001092_2014-06-15_17-34-58_260595134347_rgbf000171-resize_3/001092_2014-06-15_17-34-58_260595134347_rgbf000171-resize_3-target.png,125,2.6935,1,5131,125,meters,jsons/VE125_randls_21.json,1132693,1372190,39,Woman
46,477725,DepthScenes,duration_manipulation_targetAtFixation,jsons/VE125_randls_21.json,http://54.235.29.9/FacialAge/BNav_EC2/DepthDuration/v2_depth_duration_MTurk/v2_DepthDuration_HTML.html#407,407,1366,768,1366,768,9-19-2022,14-11-11,47,depth_duration_stimuli/002545_2014-06-24_13-38-53_094959634447_rgbf000080-resize_4/002545_2014-06-24_13-38-53_094959634447_rgbf000080-resize_4-target.png,125,1.9205,2,30314,123,meters,jsons/VE125_randls_21.json,1132693,1372190,39,Woman
47,477725,DepthScenes,duration_manipulation_targetAtFixation,jsons/VE125_randls_21.json,http://54.235.29.9/FacialAge/BNav_EC2/DepthDuration/v2_depth_duration_MTurk/v2_DepthDuration_HTML.html#407,407,1366,768,1366,768,9-19-2022,14-11-11,48,depth_duration_stimuli/002445_2014-06-28_20-32-16_260595134347_rgbf000029-resize_4/002445_2014-06-28_20-32-16_260595134347_rgbf000029-resize_4-target.png,125,2.5315,0,3283,121,meters,jsons/VE125_randls_21.json,1132693,1372190,39,Woman
48,477725,DepthScenes,duration_manipulation_targetAtFixation,jsons/VE125_randls_21.json,http://54.235.29.9/FacialAge/BNav_EC2/DepthDuration/v2_depth_duration_MTurk/v2_DepthDuration_HTML.html#407,407,1366,768,1366,768,9-19-2022,14-11-11,49,depth_duration_stimuli/000780_2014-06-08_22-28-29_260595134347_rgbf000126-resize_1/000780_2014-06-08_22-28-29_260595134347_rgbf000126-resize_1-target.png,125,3.3825,1,10864,109,meters,jsons/VE125_randls_21.json,1132693,1372190,39,Woman
49,477725,DepthScenes,duration_manipulation_targetAtFixation,jsons/VE125_randls_21.json,http://54.235.29.9/FacialAge/BNav_EC2/DepthDuration/v2_depth_duration_MTurk/v2_DepthDuration_HTML.html#407,407,1366,768,1366,768,9-19-2022,14-11-11,50,depth_duration_stimuli/001059_2014-06-08_21-53-27_260595134347_rgbf000061-resize_4/001059_2014-06-08_21-53-27_260595134347_rgbf000061-resize_4-target.png,125,2.4185,1,6483,125,meters,jsons/VE125_randls_21.json,1132693,1372190,39,Woman
50,477725,DepthScenes,duration_manipulation_targetAtFixation,jsons/VE125_randls_21.json,http://54.235.29.9/FacialAge/BNav_EC2/DepthDuration/v2_depth_duration_MTurk/v2_DepthDuration_HTML.html#407,407,1366,768,1366,768,9-19-2022,14-11-11,51,depth_duration_stimuli/001032_2014-06-08_13-23-17_260595134347_rgbf000021-resize_3/001032_2014-06-08_13-23-17_260595134347_rgbf000021-resize_3-target.png,125,3.2725,1,3592,125,meters,jsons/VE125_randls_21.json,1132693,1372190,39,Woman
51,477725,DepthScenes,duration_manipulation_targetAtFixation,jsons/VE125_randls_21.json,http://54.235.29.9/FacialAge/BNav_EC2/DepthDuration/v2_depth_duration_MTurk/v2_DepthDuration_HTML.html#407,407,1366,768,1366,768,9-19-2022,14-11-11,52,depth_duration_stimuli/003492_2014-05-21_15-50-55_094959634447_rgbf000828-resize_1/003492_2014-05-21_15-50-55_094959634447_rgbf000828-resize_1-target.png,125,4.06875,2,3596,125,meters,jsons/VE125_randls_21.json,1132693,1372190,39,Woman
52,477725,DepthScenes,duration_manipulation_targetAtFixation,jsons/VE125_randls_21.json,http://54.235.29.9/FacialAge/BNav_EC2/DepthDuration/v2_depth_duration_MTurk/v2_DepthDuration_HTML.html#407,407,1366,768,1366,768,9-19-2022,14-11-11,53,depth_duration_stimuli/002568_2014-06-24_13-59-21_094959634447_rgbf000062-resize_4/002568_2014-06-24_13-59-21_094959634447_rgbf000062-resize_4-target.png,125,3.015,0,3992,110,meters,jsons/VE125_randls_21.json,1132693,1372190,39,Woman
53,477725,DepthScenes,duration_manipulation_targetAtFixation,jsons/VE125_randls_21.json,http://54.235.29.9/FacialAge/BNav_EC2/DepthDuration/v2_depth_duration_MTurk/v2_DepthDuration_HTML.html#407,407,1366,768,1366,768,9-19-2022,14-11-11,54,depth_duration_stimuli/000447_2014-06-08_16-15-46_260595134347_rgbf000130-resize_1/000447_2014-06-08_16-15-46_260595134347_rgbf000130-resize_1-target.png,125,4.479,1,12092,115,meters,jsons/VE125_randls_21.json,1132693,1372190,39,Woman
54,477725,DepthScenes,duration_manipulation_targetAtFixation,jsons/VE125_randls_21.json,http://54.235.29.9/FacialAge/BNav_EC2/DepthDuration/v2_depth_duration_MTurk/v2_DepthDuration_HTML.html#407,407,1366,768,1366,768,9-19-2022,14-11-11,55,depth_duration_stimuli/001447_2014-06-19_17-00-32_260595134347_rgbf000082-resize_5/001447_2014-06-19_17-00-32_260595134347_rgbf000082-resize_5-target.png,125,4.13775,1,22280,121,meters,jsons/VE125_randls_21.json,1132693,1372190,39,Woman
55,477725,DepthScenes,duration_manipulation_targetAtFixation,jsons/VE125_randls_21.json,http://54.235.29.9/FacialAge/BNav_EC2/DepthDuration/v2_depth_duration_MTurk/v2_DepthDuration_HTML.html#407,407,1366,768,1366,768,9-19-2022,14-11-11,56,depth_duration_stimuli/003292_2014-05-14_21-53-49_094959634447_rgbf000100-resize_2/003292_2014-05-14_21-53-49_094959634447_rgbf000100-resize_2-target.png,125,3.4815,1,16133,130,meters,jsons/VE125_randls_21.json,1132693,1372190,39,Woman
56,477725,DepthScenes,duration_manipulation_targetAtFixation,jsons/VE125_randls_21.json,http://54.235.29.9/FacialAge/BNav_EC2/DepthDuration/v2_depth_duration_MTurk/v2_DepthDuration_HTML.html#407,407,1366,768,1366,768,9-19-2022,14-11-11,57,depth_duration_stimuli/002639_2014-06-24_14-51-37_094959634447_rgbf000074-resize_4/002639_2014-06-24_14-51-37_094959634447_rgbf000074-resize_4-target.png,125,4.0375,0,4508,126,meters,jsons/VE125_randls_21.json,1132693,1372190,39,Woman
57,477725,DepthScenes,duration_manipulation_targetAtFixation,jsons/VE125_randls_21.json,http://54.235.29.9/FacialAge/BNav_EC2/DepthDuration/v2_depth_duration_MTurk/v2_DepthDuration_HTML.html#407,407,1366,768,1366,768,9-19-2022,14-11-11,58,depth_duration_stimuli/002057_2014-06-24_21-00-13_260595134347_rgbf000120-resize_1/002057_2014-06-24_21-00-13_260595134347_rgbf000120-resize_1-target.png,125,2.967,0,3580,124,meters,jsons/VE125_randls_21.json,1132693,1372190,39,Woman
58,477725,DepthScenes,duration_manipulation_targetAtFixation,jsons/VE125_randls_21.json,http://54.235.29.9/FacialAge/BNav_EC2/DepthDuration/v2_depth_duration_MTurk/v2_DepthDuration_HTML.html#407,407,1366,768,1366,768,9-19-2022,14-11-11,59,depth_duration_stimuli/000709_2014-06-08_13-51-55_260595134347_rgbf000068-resize_3/000709_2014-06-08_13-51-55_260595134347_rgbf000068-resize_3-target.png,125,1.8030000000000002,1,7824,124,meters,jsons/VE125_randls_21.json,1132693,1372190,39,Woman
59,477725,DepthScenes,duration_manipulation_targetAtFixation,jsons/VE125_randls_21.json,http://54.235.29.9/FacialAge/BNav_EC2/DepthDuration/v2_depth_duration_MTurk/v2_DepthDuration_HTML.html#407,407,1366,768,1366,768,9-19-2022,14-11-11,60,depth_duration_stimuli/000736_2014-06-08_18-24-15_260595134347_rgbf000206-resize_3/000736_2014-06-08_18-24-15_260595134347_rgbf000206-resize_3-target.png,125,3.515,1,24398,124,meters,jsons/VE125_randls_21.json,1132693,1372190,39,Woman
60,477725,DepthScenes,duration_manipulation_targetAtFixation,jsons/VE125_randls_21.json,http://54.235.29.9/FacialAge/BNav_EC2/DepthDuration/v2_depth_duration_MTurk/v2_DepthDuration_HTML.html#407,407,1366,768,1366,768,9-19-2022,14-11-11,61,depth_duration_stimuli/000137_2014-05-20_17-04-49_260595134347_rgbf000120-resize_1/000137_2014-05-20_17-04-49_260595134347_rgbf000120-resize_1-target.png,125,3.786,1,28047,125,meters,jsons/VE125_randls_21.json,1132693,1372190,39,Woman
61,477725,DepthScenes,duration_manipulation_targetAtFixation,jsons/VE125_randls_21.json,http://54.235.29.9/FacialAge/BNav_EC2/DepthDuration/v2_depth_duration_MTurk/v2_DepthDuration_HTML.html#407,407,1366,768,1366,768,9-19-2022,14-11-11,62,depth_duration_stimuli/000788_2014-06-08_22-34-36_260595134347_rgbf000131-resize_1/000788_2014-06-08_22-34-36_260595134347_rgbf000131-resize_1-target.png,125,3.359,1,36583,125,meters,jsons/VE125_randls_21.json,1132693,1372190,39,Woman
62,477725,DepthScenes,duration_manipulation_targetAtFixation,jsons/VE125_randls_21.json,http://54.235.29.9/FacialAge/BNav_EC2/DepthDuration/v2_depth_duration_MTurk/v2_DepthDuration_HTML.html#407,407,1366,768,1366,768,9-19-2022,14-11-11,63,depth_duration_stimuli/001235_2014-06-17_16-37-36_260595134347_rgbf000084-resize_4/001235_2014-06-17_16-37-36_260595134347_rgbf000084-resize_4-target.png,125,3.6605,1,14042,123,meters,jsons/VE125_randls_21.json,1132693,1372190,39,Woman
63,477725,DepthScenes,duration_manipulation_targetAtFixation,jsons/VE125_randls_21.json,http://54.235.29.9/FacialAge/BNav_EC2/DepthDuration/v2_depth_duration_MTurk/v2_DepthDuration_HTML.html#407,407,1366,768,1366,768,9-19-2022,14-11-11,64,depth_duration_stimuli/002272_2014-06-28_18-53-56_260595134347_rgbf000067-resize_2/002272_2014-06-28_18-53-56_260595134347_rgbf000067-resize_2-target.png,125,1.138,2,5239,124,meters,jsons/VE125_randls_21.json,1132693,1372190,39,Woman
64,477725,DepthScenes,duration_manipulation_targetAtFixation,jsons/VE125_randls_21.json,http://54.235.29.9/FacialAge/BNav_EC2/DepthDuration/v2_depth_duration_MTurk/v2_DepthDuration_HTML.html#407,407,1366,768,1366,768,9-19-2022,14-11-11,65,depth_duration_stimuli/001571_2014-06-20_17-21-32_260595134347_rgbf000089-resize_1/001571_2014-06-20_17-21-32_260595134347_rgbf000089-resize_1-target.png,125,1.86,0,3134,118,meters,jsons/VE125_randls_21.json,1132693,1372190,39,Woman
65,477725,DepthScenes,duration_manipulation_targetAtFixation,jsons/VE125_randls_21.json,http://54.235.29.9/FacialAge/BNav_EC2/DepthDuration/v2_depth_duration_MTurk/v2_DepthDuration_HTML.html#407,407,1366,768,1366,768,9-19-2022,14-11-11,66,depth_duration_stimuli/001222_2014-06-17_16-24-06_260595134347_rgbf000073-resize_0/001222_2014-06-17_16-24-06_260595134347_rgbf000073-resize-original.jpg,125,1.4385,1,4521,118,meters,jsons/VE125_randls_21.json,1132693,1372190,39,Woman
66,477725,DepthScenes,duration_manipulation_targetAtFixation,jsons/VE125_randls_21.json,http://54.235.29.9/FacialAge/BNav_EC2/DepthDuration/v2_depth_duration_MTurk/v2_DepthDuration_HTML.html#407,407,1366,768,1366,768,9-19-2022,14-11-11,67,depth_duration_stimuli/000739_2014-06-08_18-45-58_260595134347_rgbf000068-resize_1/000739_2014-06-08_18-45-58_260595134347_rgbf000068-resize_1-target.png,125,3.534,1,18768,124,meters,jsons/VE125_randls_21.json,1132693,1372190,39,Woman
67,477725,DepthScenes,duration_manipulation_targetAtFixation,jsons/VE125_randls_21.json,http://54.235.29.9/FacialAge/BNav_EC2/DepthDuration/v2_depth_duration_MTurk/v2_DepthDuration_HTML.html#407,407,1366,768,1366,768,9-19-2022,14-11-11,68,depth_duration_stimuli/000734_2014-06-08_17-39-11_260595134347_rgbf000128-resize_2/000734_2014-06-08_17-39-11_260595134347_rgbf000128-resize_2-target.png,125,4.098,1,16865,124,meters,jsons/VE125_randls_21.json,1132693,1372190,39,Woman
68,477725,DepthScenes,duration_manipulation_targetAtFixation,jsons/VE125_randls_21.json,http://54.235.29.9/FacialAge/BNav_EC2/DepthDuration/v2_depth_duration_MTurk/v2_DepthDuration_HTML.html#407,407,1366,768,1366,768,9-19-2022,14-11-11,69,depth_duration_stimuli/001016_2014-06-09_16-16-10_260595134347_rgbf000112-resize_5/001016_2014-06-09_16-16-10_260595134347_rgbf000112-resize_5-target.png,125,1.6565,0,6668,117,meters,jsons/VE125_randls_21.json,1132693,1372190,39,Woman
69,477725,DepthScenes,duration_manipulation_targetAtFixation,jsons/VE125_randls_21.json,http://54.235.29.9/FacialAge/BNav_EC2/DepthDuration/v2_depth_duration_MTurk/v2_DepthDuration_HTML.html#407,407,1366,768,1366,768,9-19-2022,14-11-11,70,depth_duration_stimuli/002340_2014-06-28_20-05-46_260595134347_rgbf000113-resize_0/002340_2014-06-28_20-05-46_260595134347_rgbf000113-resize_0-target.png,125,2.4735,0,3718,127,meters,jsons/VE125_randls_21.json,1132693,1372190,39,Woman
70,477725,DepthScenes,duration_manipulation_targetAtFixation,jsons/VE125_randls_21.json,http://54.235.29.9/FacialAge/BNav_EC2/DepthDuration/v2_depth_duration_MTurk/v2_DepthDuration_HTML.html#407,407,1366,768,1366,768,9-19-2022,14-11-11,71,depth_duration_stimuli/001110_2014-06-15_17-25-28_260595134347_rgbf000150-resize_1/001110_2014-06-15_17-25-28_260595134347_rgbf000150-resize_1-target.png,125,1.7115,2,3883,145,meters,jsons/VE125_randls_21.json,1132693,1372190,39,Woman
71,477725,DepthScenes,duration_manipulation_targetAtFixation,jsons/VE125_randls_21.json,http://54.235.29.9/FacialAge/BNav_EC2/DepthDuration/v2_depth_duration_MTurk/v2_DepthDuration_HTML.html#407,407,1366,768,1366,768,9-19-2022,14-11-11,72,depth_duration_stimuli/000927_2014-06-09_16-32-30_260595134347_rgbf000123-resize_3/000927_2014-06-09_16-32-30_260595134347_rgbf000123-resize_3-target.png,125,2.6785,1,3524,124,meters,jsons/VE125_randls_21.json,1132693,1372190,39,Woman
72,477725,DepthScenes,duration_manipulation_targetAtFixation,jsons/VE125_randls_21.json,http://54.235.29.9/FacialAge/BNav_EC2/DepthDuration/v2_depth_duration_MTurk/v2_DepthDuration_HTML.html#407,407,1366,768,1366,768,9-19-2022,14-11-11,73,depth_duration_stimuli/002375_2014-06-28_20-13-44_260595134347_rgbf000032-resize_1/002375_2014-06-28_20-13-44_260595134347_rgbf000032-resize_1-target.png,125,4.0175,0,4294,124,meters,jsons/VE125_randls_21.json,1132693,1372190,39,Woman
73,477725,DepthScenes,duration_manipulation_targetAtFixation,jsons/VE125_randls_21.json,http://54.235.29.9/FacialAge/BNav_EC2/DepthDuration/v2_depth_duration_MTurk/v2_DepthDuration_HTML.html#407,407,1366,768,1366,768,9-19-2022,14-11-11,74,depth_duration_stimuli/002657_2014-06-13_15-29-54_094959634447_rgbf000150-resize_1/002657_2014-06-13_15-29-54_094959634447_rgbf000150-resize_1-target.png,125,4.919,1,12090,124,meters,jsons/VE125_randls_21.json,1132693,1372190,39,Woman
74,477725,DepthScenes,duration_manipulation_targetAtFixation,jsons/VE125_randls_21.json,http://54.235.29.9/FacialAge/BNav_EC2/DepthDuration/v2_depth_duration_MTurk/v2_DepthDuration_HTML.html#407,407,1366,768,1366,768,9-19-2022,14-11-11,75,depth_duration_stimuli/000773_2014-06-08_22-24-54_260595134347_rgbf000093-resize_1/000773_2014-06-08_22-24-54_260595134347_rgbf000093-resize_1-target.png,125,4.973,1,6252,124,meters,jsons/VE125_randls_21.json,1132693,1372190,39,Woman
75,477725,DepthScenes,duration_manipulation_targetAtFixation,jsons/VE125_randls_21.json,http://54.235.29.9/FacialAge/BNav_EC2/DepthDuration/v2_depth_duration_MTurk/v2_DepthDuration_HTML.html#407,407,1366,768,1366,768,9-19-2022,14-11-11,76,depth_duration_stimuli/002414_2014-06-28_20-24-58_260595134347_rgbf000067-resize_4/002414_2014-06-28_20-24-58_260595134347_rgbf000067-resize_4-target.png,125,4.363,1,5559,118,meters,jsons/VE125_randls_21.json,1132693,1372190,39,Woman
76,477725,DepthScenes,duration_manipulation_targetAtFixation,jsons/VE125_randls_21.json,http://54.235.29.9/FacialAge/BNav_EC2/DepthDuration/v2_depth_duration_MTurk/v2_DepthDuration_HTML.html#407,407,1366,768,1366,768,9-19-2022,14-11-11,77,depth_duration_stimuli/000436_2014-06-09_22-25-11_260595134347_rgbf000137-resize_1/000436_2014-06-09_22-25-11_260595134347_rgbf000137-resize_1-target.png,125,4.0705,0,4502,108,meters,jsons/VE125_randls_21.json,1132693,1372190,39,Woman
77,477725,DepthScenes,duration_manipulation_targetAtFixation,jsons/VE125_randls_21.json,http://54.235.29.9/FacialAge/BNav_EC2/DepthDuration/v2_depth_duration_MTurk/v2_DepthDuration_HTML.html#407,407,1366,768,1366,768,9-19-2022,14-11-11,78,depth_duration_stimuli/002444_2014-06-28_20-32-08_260595134347_rgbf000027-resize_0/002444_2014-06-28_20-32-08_260595134347_rgbf000027-resize_0-target.png,125,4.388999999999999,2,4370,102,meters,jsons/VE125_randls_21.json,1132693,1372190,39,Woman
78,477725,DepthScenes,duration_manipulation_targetAtFixation,jsons/VE125_randls_21.json,http://54.235.29.9/FacialAge/BNav_EC2/DepthDuration/v2_depth_duration_MTurk/v2_DepthDuration_HTML.html#407,407,1366,768,1366,768,9-19-2022,14-11-11,79,depth_duration_stimuli/002570_2014-06-24_13-59-54_094959634447_rgbf000059-resize_0/002570_2014-06-24_13-59-54_094959634447_rgbf000059-resize_0-target.png,125,4.037,0,3484,124,meters,jsons/VE125_randls_21.json,1132693,1372190,39,Woman
79,477725,DepthScenes,duration_manipulation_targetAtFixation,jsons/VE125_randls_21.json,http://54.235.29.9/FacialAge/BNav_EC2/DepthDuration/v2_depth_duration_MTurk/v2_DepthDuration_HTML.html#407,407,1366,768,1366,768,9-19-2022,14-11-11,80,depth_duration_stimuli/002467_2014-06-28_20-38-07_260595134347_rgbf000026-resize_2/002467_2014-06-28_20-38-07_260595134347_rgbf000026-resize_2-target.png,125,4.742,1,5637,125,meters,jsons/VE125_randls_21.json,1132693,1372190,39,Woman
80,477725,DepthScenes,duration_manipulation_targetAtFixation,jsons/VE125_randls_21.json,http://54.235.29.9/FacialAge/BNav_EC2/DepthDuration/v2_depth_duration_MTurk/v2_DepthDuration_HTML.html#407,407,1366,768,1366,768,9-19-2022,14-11-11,81,depth_duration_stimuli/002725_2014-06-22_11-47-51_094959634447_rgbf000070-resize_1/002725_2014-06-22_11-47-51_094959634447_rgbf000070-resize_1-target.png,125,2.195,1,8169,122,meters,jsons/VE125_randls_21.json,1132693,1372190,39,Woman
81,477725,DepthScenes,duration_manipulation_targetAtFixation,jsons/VE125_randls_21.json,http://54.235.29.9/FacialAge/BNav_EC2/DepthDuration/v2_depth_duration_MTurk/v2_DepthDuration_HTML.html#407,407,1366,768,1366,768,9-19-2022,14-11-11,82,depth_duration_stimuli/002344_2014-06-28_20-06-29_260595134347_rgbf000030-resize_1/002344_2014-06-28_20-06-29_260595134347_rgbf000030-resize_1-target.png,125,1.5795,2,5521,126,meters,jsons/VE125_randls_21.json,1132693,1372190,39,Woman
82,477725,DepthScenes,duration_manipulation_targetAtFixation,jsons/VE125_randls_21.json,http://54.235.29.9/FacialAge/BNav_EC2/DepthDuration/v2_depth_duration_MTurk/v2_DepthDuration_HTML.html#407,407,1366,768,1366,768,9-19-2022,14-11-11,83,depth_duration_stimuli/003534_2014-05-22_15-06-10_094959634447_rgbf000102-resize_4/003534_2014-05-22_15-06-10_094959634447_rgbf000102-resize_4-target.png,125,1.426,2,7217,125,meters,jsons/VE125_randls_21.json,1132693,1372190,39,Woman
83,477725,DepthScenes,duration_manipulation_targetAtFixation,jsons/VE125_randls_21.json,http://54.235.29.9/FacialAge/BNav_EC2/DepthDuration/v2_depth_duration_MTurk/v2_DepthDuration_HTML.html#407,407,1366,768,1366,768,9-19-2022,14-11-11,84,depth_duration_stimuli/002637_2014-06-24_14-51-13_094959634447_rgbf000066-resize_4/002637_2014-06-24_14-51-13_094959634447_rgbf000066-resize_4-target.png,125,1.9955,1,5281,109,meters,jsons/VE125_randls_21.json,1132693,1372190,39,Woman
84,477725,DepthScenes,duration_manipulation_targetAtFixation,jsons/VE125_randls_21.json,http://54.235.29.9/FacialAge/BNav_EC2/DepthDuration/v2_depth_duration_MTurk/v2_DepthDuration_HTML.html#407,407,1366,768,1366,768,9-19-2022,14-11-11,85,depth_duration_stimuli/000878_2014-06-08_22-52-45_260595134347_rgbf000045-resize_2/000878_2014-06-08_22-52-45_260595134347_rgbf000045-resize_2-target.png,125,2.092,1,9614,134,meters,jsons/VE125_randls_21.json,1132693,1372190,39,Woman
85,477725,DepthScenes,duration_manipulation_targetAtFixation,jsons/VE125_randls_21.json,http://54.235.29.9/FacialAge/BNav_EC2/DepthDuration/v2_depth_duration_MTurk/v2_DepthDuration_HTML.html#407,407,1366,768,1366,768,9-19-2022,14-11-11,86,depth_duration_stimuli/002953_2014-06-08_17-32-18_094959634447_rgbf000059-resize_5/002953_2014-06-08_17-32-18_094959634447_rgbf000059-resize_5-target.png,125,1.551,1,11119,129,meters,jsons/VE125_randls_21.json,1132693,1372190,39,Woman
86,477725,DepthScenes,duration_manipulation_targetAtFixation,jsons/VE125_randls_21.json,http://54.235.29.9/FacialAge/BNav_EC2/DepthDuration/v2_depth_duration_MTurk/v2_DepthDuration_HTML.html#407,407,1366,768,1366,768,9-19-2022,14-11-11,87,depth_duration_stimuli/001133_2014-06-17_14-49-16_260595134347_rgbf000100-resize_0/001133_2014-06-17_14-49-16_260595134347_rgbf000100-resize_0-target.png,125,4.2115,0,5015,123,meters,jsons/VE125_randls_21.json,1132693,1372190,39,Woman
87,477725,DepthScenes,duration_manipulation_targetAtFixation,jsons/VE125_randls_21.json,http://54.235.29.9/FacialAge/BNav_EC2/DepthDuration/v2_depth_duration_MTurk/v2_DepthDuration_HTML.html#407,407,1366,768,1366,768,9-19-2022,14-11-11,88,depth_duration_stimuli/001132_2014-06-17_14-48-54_260595134347_rgbf000100-resize_2/001132_2014-06-17_14-48-54_260595134347_rgbf000100-resize_2-target.png,125,3.753,1,13491,123,meters,jsons/VE125_randls_21.json,1132693,1372190,39,Woman
88,477725,DepthScenes,duration_manipulation_targetAtFixation,jsons/VE125_randls_21.json,http://54.235.29.9/FacialAge/BNav_EC2/DepthDuration/v2_depth_duration_MTurk/v2_DepthDuration_HTML.html#407,407,1366,768,1366,768,9-19-2022,14-11-11,89,depth_duration_stimuli/002788_2014-06-22_19-36-03_094959634447_rgbf000088-resize_2/002788_2014-06-22_19-36-03_094959634447_rgbf000088-resize_2-target.png,125,1.6465,1,18158,125,meters,jsons/VE125_randls_21.json,1132693,1372190,39,Woman
89,477725,DepthScenes,duration_manipulation_targetAtFixation,jsons/VE125_randls_21.json,http://54.235.29.9/FacialAge/BNav_EC2/DepthDuration/v2_depth_duration_MTurk/v2_DepthDuration_HTML.html#407,407,1366,768,1366,768,9-19-2022,14-11-11,90,depth_duration_stimuli/000749_2014-06-08_21-55-06_260595134347_rgbf000070-resize_2/000749_2014-06-08_21-55-06_260595134347_rgbf000070-resize_2-target.png,125,2.331,1,18895,125,meters,jsons/VE125_randls_21.json,1132693,1372190,39,Woman
90,477725,DepthScenes,duration_manipulation_targetAtFixation,jsons/VE125_randls_21.json,http://54.235.29.9/FacialAge/BNav_EC2/DepthDuration/v2_depth_duration_MTurk/v2_DepthDuration_HTML.html#407,407,1366,768,1366,768,9-19-2022,14-11-11,91,depth_duration_stimuli/002988_2014-06-15_12-24-20_094959634447_rgbf000150-resize_1/002988_2014-06-15_12-24-20_094959634447_rgbf000150-resize_1-target.png,125,4.7669999999999995,1,7733,124,meters,jsons/VE125_randls_21.json,1132693,1372190,39,Woman
91,477725,DepthScenes,duration_manipulation_targetAtFixation,jsons/VE125_randls_21.json,http://54.235.29.9/FacialAge/BNav_EC2/DepthDuration/v2_depth_duration_MTurk/v2_DepthDuration_HTML.html#407,407,1366,768,1366,768,9-19-2022,14-11-11,92,depth_duration_stimuli/001052_2014-06-08_18-24-54_260595134347_rgbf000130-resize_1/001052_2014-06-08_18-24-54_260595134347_rgbf000130-resize_1-target.png,125,4.1045,0,5293,138,meters,jsons/VE125_randls_21.json,1132693,1372190,39,Woman
92,477725,DepthScenes,duration_manipulation_targetAtFixation,jsons/VE125_randls_21.json,http://54.235.29.9/FacialAge/BNav_EC2/DepthDuration/v2_depth_duration_MTurk/v2_DepthDuration_HTML.html#407,407,1366,768,1366,768,9-19-2022,14-11-11,93,depth_duration_stimuli/000368_2014-06-09_15-53-01_260595134347_rgbf000155-resize_2/000368_2014-06-09_15-53-01_260595134347_rgbf000155-resize_2-target.png,125,2.4859999999999998,2,5849,124,meters,jsons/VE125_randls_21.json,1132693,1372190,39,Woman
93,477725,DepthScenes,duration_manipulation_targetAtFixation,jsons/VE125_randls_21.json,http://54.235.29.9/FacialAge/BNav_EC2/DepthDuration/v2_depth_duration_MTurk/v2_DepthDuration_HTML.html#407,407,1366,768,1366,768,9-19-2022,14-11-11,94,depth_duration_stimuli/002678_2014-06-13_16-15-32_094959634447_rgbf000151-resize_6/002678_2014-06-13_16-15-32_094959634447_rgbf000151-resize_6-target.png,125,2.1830000000000003,1,8724,119,meters,jsons/VE125_randls_21.json,1132693,1372190,39,Woman
94,477725,DepthScenes,duration_manipulation_targetAtFixation,jsons/VE125_randls_21.json,http://54.235.29.9/FacialAge/BNav_EC2/DepthDuration/v2_depth_duration_MTurk/v2_DepthDuration_HTML.html#407,407,1366,768,1366,768,9-19-2022,14-11-11,95,depth_duration_stimuli/001066_2014-06-08_22-03-20_260595134347_rgbf000066-resize_4/001066_2014-06-08_22-03-20_260595134347_rgbf000066-resize_4-target.png,125,4.2330000000000005,1,10489,138,meters,jsons/VE125_randls_21.json,1132693,1372190,39,Woman
95,477725,DepthScenes,duration_manipulation_targetAtFixation,jsons/VE125_randls_21.json,http://54.235.29.9/FacialAge/BNav_EC2/DepthDuration/v2_depth_duration_MTurk/v2_DepthDuration_HTML.html#407,407,1366,768,1366,768,9-19-2022,14-11-11,96,depth_duration_stimuli/000742_2014-06-08_18-48-09_260595134347_rgbf000164-resize_4/000742_2014-06-08_18-48-09_260595134347_rgbf000164-resize_4-target.png,125,4.632,2,4471,107,meters,jsons/VE125_randls_21.json,1132693,1372190,39,Woman
96,477725,DepthScenes,duration_manipulation_targetAtFixation,jsons/VE125_randls_21.json,http://54.235.29.9/FacialAge/BNav_EC2/DepthDuration/v2_depth_duration_MTurk/v2_DepthDuration_HTML.html#407,407,1366,768,1366,768,9-19-2022,14-11-11,97,depth_duration_stimuli/001808_2014-06-26_20-50-58_260595134347_rgbf000029-resize_1/001808_2014-06-26_20-50-58_260595134347_rgbf000029-resize_1-target.png,125,4.249,0,4118,130,meters,jsons/VE125_randls_21.json,1132693,1372190,39,Woman
97,477725,DepthScenes,duration_manipulation_targetAtFixation,jsons/VE125_randls_21.json,http://54.235.29.9/FacialAge/BNav_EC2/DepthDuration/v2_depth_duration_MTurk/v2_DepthDuration_HTML.html#407,407,1366,768,1366,768,9-19-2022,14-11-11,98,depth_duration_stimuli/001815_2014-06-26_20-52-55_260595134347_rgbf000020-resize_0/001815_2014-06-26_20-52-55_260595134347_rgbf000020-resize_0-target.png,125,3.3865,1,3484,130,meters,jsons/VE125_randls_21.json,1132693,1372190,39,Woman
98,477725,DepthScenes,duration_manipulation_targetAtFixation,jsons/VE125_randls_21.json,http://54.235.29.9/FacialAge/BNav_EC2/DepthDuration/v2_depth_duration_MTurk/v2_DepthDuration_HTML.html#407,407,1366,768,1366,768,9-19-2022,14-11-11,99,depth_duration_stimuli/001540_2014-06-20_17-01-05_260595134347_rgbf000086-resize_2/001540_2014-06-20_17-01-05_260595134347_rgbf000086-resize-original.jpg,125,1.459,2,3532,129,meters,jsons/VE125_randls_21.json,1132693,1372190,39,Woman
99,477725,DepthScenes,duration_manipulation_targetAtFixation,jsons/VE125_randls_21.json,http://54.235.29.9/FacialAge/BNav_EC2/DepthDuration/v2_depth_duration_MTurk/v2_DepthDuration_HTML.html#407,407,1366,768,1366,768,9-19-2022,14-11-11,100,depth_duration_stimuli/002763_2014-06-22_19-13-10_094959634447_rgbf000075-resize_4/002763_2014-06-22_19-13-10_094959634447_rgbf000075-resize_4-target.png,125,1.68375,2,3788,138,meters,jsons/VE125_randls_21.json,1132693,1372190,39,Woman
100,477725,DepthScenes,duration_manipulation_targetAtFixation,jsons/VE125_randls_21.json,http://54.235.29.9/FacialAge/BNav_EC2/DepthDuration/v2_depth_duration_MTurk/v2_DepthDuration_HTML.html#407,407,1366,768,1366,768,9-19-2022,14-11-11,101,depth_duration_stimuli/002209_2014-06-28_18-36-10_260595134347_rgbf000051-resize_1/002209_2014-06-28_18-36-10_260595134347_rgbf000051-resize_1-target.png,125,2.057,1,4125,134,meters,jsons/VE125_randls_21.json,1132693,1372190,39,Woman
101,477725,DepthScenes,duration_manipulation_targetAtFixation,jsons/VE125_randls_21.json,http://54.235.29.9/FacialAge/BNav_EC2/DepthDuration/v2_depth_duration_MTurk/v2_DepthDuration_HTML.html#407,407,1366,768,1366,768,9-19-2022,14-11-11,102,depth_duration_stimuli/000682_2014-06-08_23-14-58_260595134347_rgbf000041-resize_5/000682_2014-06-08_23-14-58_260595134347_rgbf000041-resize_5-target.png,125,2.7239999999999998,0,3348,115,meters,jsons/VE125_randls_21.json,1132693,1372190,39,Woman
102,477725,DepthScenes,duration_manipulation_targetAtFixation,jsons/VE125_randls_21.json,http://54.235.29.9/FacialAge/BNav_EC2/DepthDuration/v2_depth_duration_MTurk/v2_DepthDuration_HTML.html#407,407,1366,768,1366,768,9-19-2022,14-11-11,103,depth_duration_stimuli/001650_2014-06-20_12-09-00_260595134347_rgbf000087-resize_3/001650_2014-06-20_12-09-00_260595134347_rgbf000087-resize_3-target.png,125,1.9505,1,3337,124,meters,jsons/VE125_randls_21.json,1132693,1372190,39,Woman
103,477725,DepthScenes,duration_manipulation_targetAtFixation,jsons/VE125_randls_21.json,http://54.235.29.9/FacialAge/BNav_EC2/DepthDuration/v2_depth_duration_MTurk/v2_DepthDuration_HTML.html#407,407,1366,768,1366,768,9-19-2022,14-11-11,104,depth_duration_stimuli/001164_2014-06-17_15-35-46_260595134347_rgbf000085-resize_3/001164_2014-06-17_15-35-46_260595134347_rgbf000085-resize_3-target.png,125,2.354,1,4341,124,meters,jsons/VE125_randls_21.json,1132693,1372190,39,Woman
104,477725,DepthScenes,duration_manipulation_targetAtFixation,jsons/VE125_randls_21.json,http://54.235.29.9/FacialAge/BNav_EC2/DepthDuration/v2_depth_duration_MTurk/v2_DepthDuration_HTML.html#407,407,1366,768,1366,768,9-19-2022,14-11-11,105,depth_duration_stimuli/001136_2014-06-17_15-19-41_260595134347_rgbf000076-resize_3/001136_2014-06-17_15-19-41_260595134347_rgbf000076-resize_3-target.png,125,1.8655,0,3382,135,meters,jsons/VE125_randls_21.json,1132693,1372190,39,Woman
105,477725,DepthScenes,duration_manipulation_targetAtFixation,jsons/VE125_randls_21.json,http://54.235.29.9/FacialAge/BNav_EC2/DepthDuration/v2_depth_duration_MTurk/v2_DepthDuration_HTML.html#407,407,1366,768,1366,768,9-19-2022,14-11-11,106,depth_duration_stimuli/002039_2014-06-24_20-22-38_260595134347_rgbf000084-resize_1/002039_2014-06-24_20-22-38_260595134347_rgbf000084-resize_1-target.png,125,4.408,1,4496,109,meters,jsons/VE125_randls_21.json,1132693,1372190,39,Woman
106,477725,DepthScenes,duration_manipulation_targetAtFixation,jsons/VE125_randls_21.json,http://54.235.29.9/FacialAge/BNav_EC2/DepthDuration/v2_depth_duration_MTurk/v2_DepthDuration_HTML.html#407,407,1366,768,1366,768,9-19-2022,14-11-11,107,depth_duration_stimuli/002103_2014-06-25_20-00-40_260595134347_rgbf000049-resize_0/002103_2014-06-25_20-00-40_260595134347_rgbf000049-resize_0-target.png,125,4.105,1,11410,125,meters,jsons/VE125_randls_21.json,1132693,1372190,39,Woman
107,477725,DepthScenes,duration_manipulation_targetAtFixation,jsons/VE125_randls_21.json,http://54.235.29.9/FacialAge/BNav_EC2/DepthDuration/v2_depth_duration_MTurk/v2_DepthDuration_HTML.html#407,407,1366,768,1366,768,9-19-2022,14-11-11,108,depth_duration_stimuli/001158_2014-06-17_15-32-16_260595134347_rgbf000138-resize_2/001158_2014-06-17_15-32-16_260595134347_rgbf000138-resize_2-target.png,125,4.5315,1,4670,114,meters,jsons/VE125_randls_21.json,1132693,1372190,39,Woman
108,477725,DepthScenes,duration_manipulation_targetAtFixation,jsons/VE125_randls_21.json,http://54.235.29.9/FacialAge/BNav_EC2/DepthDuration/v2_depth_duration_MTurk/v2_DepthDuration_HTML.html#407,407,1366,768,1366,768,9-19-2022,14-11-11,109,depth_duration_stimuli/000556_2014-06-09_22-42-56_260595134347_rgbf000214-resize_1/000556_2014-06-09_22-42-56_260595134347_rgbf000214-resize_1-target.png,125,4.8415,2,5463,120,meters,jsons/VE125_randls_21.json,1132693,1372190,39,Woman
109,477725,DepthScenes,duration_manipulation_targetAtFixation,jsons/VE125_randls_21.json,http://54.235.29.9/FacialAge/BNav_EC2/DepthDuration/v2_depth_duration_MTurk/v2_DepthDuration_HTML.html#407,407,1366,768,1366,768,9-19-2022,14-11-11,110,depth_duration_stimuli/002549_2014-06-24_13-41-39_094959634447_rgbf000022-resize_3/002549_2014-06-24_13-41-39_094959634447_rgbf000022-resize_3-target.png,125,1.476,1,5775,124,meters,jsons/VE125_randls_21.json,1132693,1372190,39,Woman
110,477725,DepthScenes,duration_manipulation_targetAtFixation,jsons/VE125_randls_21.json,http://54.235.29.9/FacialAge/BNav_EC2/DepthDuration/v2_depth_duration_MTurk/v2_DepthDuration_HTML.html#407,407,1366,768,1366,768,9-19-2022,14-11-11,111,depth_duration_stimuli/002750_2014-06-22_19-08-03_094959634447_rgbf000094-resize_4/002750_2014-06-22_19-08-03_094959634447_rgbf000094-resize_4-target.png,125,2.354,1,9977,124,meters,jsons/VE125_randls_21.json,1132693,1372190,39,Woman
111,477725,DepthScenes,duration_manipulation_targetAtFixation,jsons/VE125_randls_21.json,http://54.235.29.9/FacialAge/BNav_EC2/DepthDuration/v2_depth_duration_MTurk/v2_DepthDuration_HTML.html#407,407,1366,768,1366,768,9-19-2022,14-11-11,112,depth_duration_stimuli/001570_2014-06-20_17-21-09_260595134347_rgbf000135-resize_4/001570_2014-06-20_17-21-09_260595134347_rgbf000135-resize_4-target.png,125,4.467,0,3814,124,meters,jsons/VE125_randls_21.json,1132693,1372190,39,Woman
112,477725,DepthScenes,duration_manipulation_targetAtFixation,jsons/VE125_randls_21.json,http://54.235.29.9/FacialAge/BNav_EC2/DepthDuration/v2_depth_duration_MTurk/v2_DepthDuration_HTML.html#407,407,1366,768,1366,768,9-19-2022,14-11-11,113,depth_duration_stimuli/001392_2014-06-19_16-07-59_260595134347_rgbf000046-resize_1/001392_2014-06-19_16-07-59_260595134347_rgbf000046-resize_1-target.png,125,4.135,1,9557,125,meters,jsons/VE125_randls_21.json,1132693,1372190,39,Woman
113,477725,DepthScenes,duration_manipulation_targetAtFixation,jsons/VE125_randls_21.json,http://54.235.29.9/FacialAge/BNav_EC2/DepthDuration/v2_depth_duration_MTurk/v2_DepthDuration_HTML.html#407,407,1366,768,1366,768,9-19-2022,14-11-11,114,depth_duration_stimuli/001810_2014-06-26_20-51-35_260595134347_rgbf000040-resize_3/001810_2014-06-26_20-51-35_260595134347_rgbf000040-resize_3-target.png,125,2.2525,1,7337,124,meters,jsons/VE125_randls_21.json,1132693,1372190,39,Woman
114,477725,DepthScenes,duration_manipulation_targetAtFixation,jsons/VE125_randls_21.json,http://54.235.29.9/FacialAge/BNav_EC2/DepthDuration/v2_depth_duration_MTurk/v2_DepthDuration_HTML.html#407,407,1366,768,1366,768,9-19-2022,14-11-11,115,depth_duration_stimuli/003010_2014-06-15_12-54-35_094959634447_rgbf000112-resize_0/003010_2014-06-15_12-54-35_094959634447_rgbf000112-resize_0-target.png,125,3.1185,1,6634,124,meters,jsons/VE125_randls_21.json,1132693,1372190,39,Woman
115,477725,DepthScenes,duration_manipulation_targetAtFixation,jsons/VE125_randls_21.json,http://54.235.29.9/FacialAge/BNav_EC2/DepthDuration/v2_depth_duration_MTurk/v2_DepthDuration_HTML.html#407,407,1366,768,1366,768,9-19-2022,14-11-11,116,depth_duration_stimuli/001170_2014-06-17_15-43-44_260595134347_rgbf000096-resize_6/001170_2014-06-17_15-43-44_260595134347_rgbf000096-resize-original.jpg,125,1.1909999999999998,0,4223,124,meters,jsons/VE125_randls_21.json,1132693,1372190,39,Woman
116,477725,DepthScenes,duration_manipulation_targetAtFixation,jsons/VE125_randls_21.json,http://54.235.29.9/FacialAge/BNav_EC2/DepthDuration/v2_depth_duration_MTurk/v2_DepthDuration_HTML.html#407,407,1366,768,1366,768,9-19-2022,14-11-11,117,depth_duration_stimuli/003621_2014-05-23_18-06-08_094959634447_rgbf000101-resize_1/003621_2014-05-23_18-06-08_094959634447_rgbf000101-resize_1-target.png,125,3.9835,1,4154,109,meters,jsons/VE125_randls_21.json,1132693,1372190,39,Woman
117,477725,DepthScenes,duration_manipulation_targetAtFixation,jsons/VE125_randls_21.json,http://54.235.29.9/FacialAge/BNav_EC2/DepthDuration/v2_depth_duration_MTurk/v2_DepthDuration_HTML.html#407,407,1366,768,1366,768,9-19-2022,14-11-11,118,depth_duration_stimuli/001584_2014-06-20_11-07-43_260595134347_rgbf000002-resize_1/001584_2014-06-20_11-07-43_260595134347_rgbf000002-resize_1-target.png,125,3.53,0,5365,112,meters,jsons/VE125_randls_21.json,1132693,1372190,39,Woman
118,477725,DepthScenes,duration_manipulation_targetAtFixation,jsons/VE125_randls_21.json,http://54.235.29.9/FacialAge/BNav_EC2/DepthDuration/v2_depth_duration_MTurk/v2_DepthDuration_HTML.html#407,407,1366,768,1366,768,9-19-2022,14-11-11,119,depth_duration_stimuli/002663_2014-06-13_15-50-26_094959634447_rgbf000075-resize_1/002663_2014-06-13_15-50-26_094959634447_rgbf000075-resize_1-target.png,125,4.7495,0,3471,109,meters,jsons/VE125_randls_21.json,1132693,1372190,39,Woman
119,477725,DepthScenes,duration_manipulation_targetAtFixation,jsons/VE125_randls_21.json,http://54.235.29.9/FacialAge/BNav_EC2/DepthDuration/v2_depth_duration_MTurk/v2_DepthDuration_HTML.html#407,407,1366,768,1366,768,9-19-2022,14-11-11,120,depth_duration_stimuli/000409_2014-06-04_19-23-33_260595134347_rgbf000067-resize_0/000409_2014-06-04_19-23-33_260595134347_rgbf000067-resize_0-target.png,125,3.7335,1,3525,124,meters,jsons/VE125_randls_21.json,1132693,1372190,39,Woman
120,477725,DepthScenes,duration_manipulation_targetAtFixation,jsons/VE125_randls_21.json,http://54.235.29.9/FacialAge/BNav_EC2/DepthDuration/v2_depth_duration_MTurk/v2_DepthDuration_HTML.html#407,407,1366,768,1366,768,9-19-2022,14-11-11,121,depth_duration_stimuli/000917_2014-06-09_22-45-29_260595134347_rgbf000149-resize_3/000917_2014-06-09_22-45-29_260595134347_rgbf000149-resize_3-target.png,125,4.1865,1,9663,125,meters,jsons/VE125_randls_21.json,1132693,1372190,39,Woman
121,477725,DepthScenes,duration_manipulation_targetAtFixation,jsons/VE125_randls_21.json,http://54.235.29.9/FacialAge/BNav_EC2/DepthDuration/v2_depth_duration_MTurk/v2_DepthDuration_HTML.html#407,407,1366,768,1366,768,9-19-2022,14-11-11,122,depth_duration_stimuli/002323_2014-06-28_20-01-54_260595134347_rgbf000051-resize_4/002323_2014-06-28_20-01-54_260595134347_rgbf000051-resize_4-target.png,125,3.7310000000000003,1,6203,122,meters,jsons/VE125_randls_21.json,1132693,1372190,39,Woman
122,477725,DepthScenes,duration_manipulation_targetAtFixation,jsons/VE125_randls_21.json,http://54.235.29.9/FacialAge/BNav_EC2/DepthDuration/v2_depth_duration_MTurk/v2_DepthDuration_HTML.html#407,407,1366,768,1366,768,9-19-2022,14-11-11,123,depth_duration_stimuli/001167_2014-06-17_15-38-07_260595134347_rgbf000108-resize_0/001167_2014-06-17_15-38-07_260595134347_rgbf000108-resize_0-target.png,125,1.8505,2,3422,131,meters,jsons/VE125_randls_21.json,1132693,1372190,39,Woman
123,477725,DepthScenes,duration_manipulation_targetAtFixation,jsons/VE125_randls_21.json,http://54.235.29.9/FacialAge/BNav_EC2/DepthDuration/v2_depth_duration_MTurk/v2_DepthDuration_HTML.html#407,407,1366,768,1366,768,9-19-2022,14-11-11,124,depth_duration_stimuli/003587_2014-05-23_16-48-02_094959634447_rgbf002384-resize_2/003587_2014-05-23_16-48-02_094959634447_rgbf002384-resize_2-target.png,125,1.357,0,5082,114,meters,jsons/VE125_randls_21.json,1132693,1372190,39,Woman
124,477725,DepthScenes,duration_manipulation_targetAtFixation,jsons/VE125_randls_21.json,http://54.235.29.9/FacialAge/BNav_EC2/DepthDuration/v2_depth_duration_MTurk/v2_DepthDuration_HTML.html#407,407,1366,768,1366,768,9-19-2022,14-11-11,125,depth_duration_stimuli/002748_2014-06-22_19-07-22_094959634447_rgbf000078-resize_1/002748_2014-06-22_19-07-22_094959634447_rgbf000078-resize_1-target.png,125,4.6705,1,14278,124,meters,jsons/VE125_randls_21.json,1132693,1372190,39,Woman
125,477725,DepthScenes,duration_manipulation_targetAtFixation,jsons/VE125_randls_21.json,http://54.235.29.9/FacialAge/BNav_EC2/DepthDuration/v2_depth_duration_MTurk/v2_DepthDuration_HTML.html#407,407,1366,768,1366,768,9-19-2022,14-11-11,126,depth_duration_stimuli/002995_2014-06-15_12-31-26_094959634447_rgbf000150-resize_1/002995_2014-06-15_12-31-26_094959634447_rgbf000150-resize_1-target.png,125,3.8360000000000003,0,3500,124,meters,jsons/VE125_randls_21.json,1132693,1372190,39,Woman
126,477725,DepthScenes,duration_manipulation_targetAtFixation,jsons/VE125_randls_21.json,http://54.235.29.9/FacialAge/BNav_EC2/DepthDuration/v2_depth_duration_MTurk/v2_DepthDuration_HTML.html#407,407,1366,768,1366,768,9-19-2022,14-11-11,127,depth_duration_stimuli/002989_2014-06-15_12-25-03_094959634447_rgbf000150-resize_3/002989_2014-06-15_12-25-03_094959634447_rgbf000150-resize_3-target.png,125,4.1975,2,3256,110,meters,jsons/VE125_randls_21.json,1132693,1372190,39,Woman
127,477725,DepthScenes,duration_manipulation_targetAtFixation,jsons/VE125_randls_21.json,http://54.235.29.9/FacialAge/BNav_EC2/DepthDuration/v2_depth_duration_MTurk/v2_DepthDuration_HTML.html#407,407,1366,768,1366,768,9-19-2022,14-11-11,128,depth_duration_stimuli/000866_2014-06-09_20-45-42_260595134347_rgbf000139-resize_1/000866_2014-06-09_20-45-42_260595134347_rgbf000139-resize_1-target.png,125,3.2155,1,4958,124,meters,jsons/VE125_randls_21.json,1132693,1372190,39,Woman
128,477725,DepthScenes,duration_manipulation_targetAtFixation,jsons/VE125_randls_21.json,http://54.235.29.9/FacialAge/BNav_EC2/DepthDuration/v2_depth_duration_MTurk/v2_DepthDuration_HTML.html#407,407,1366,768,1366,768,9-19-2022,14-11-11,129,depth_duration_stimuli/001029_2014-06-08_13-17-57_260595134347_rgbf000065-resize_1/001029_2014-06-08_13-17-57_260595134347_rgbf000065-resize_1-target.png,125,3.0835,0,4126,125,meters,jsons/VE125_randls_21.json,1132693,1372190,39,Woman
129,477725,DepthScenes,duration_manipulation_targetAtFixation,jsons/VE125_randls_21.json,http://54.235.29.9/FacialAge/BNav_EC2/DepthDuration/v2_depth_duration_MTurk/v2_DepthDuration_HTML.html#407,407,1366,768,1366,768,9-19-2022,14-11-11,130,depth_duration_stimuli/000677_2014-06-08_23-10-32_260595134347_rgbf000158-resize_6/000677_2014-06-08_23-10-32_260595134347_rgbf000158-resize_6-target.png,125,3.556,2,3447,122,meters,jsons/VE125_randls_21.json,1132693,1372190,39,Woman
130,477725,DepthScenes,duration_manipulation_targetAtFixation,jsons/VE125_randls_21.json,http://54.235.29.9/FacialAge/BNav_EC2/DepthDuration/v2_depth_duration_MTurk/v2_DepthDuration_HTML.html#407,407,1366,768,1366,768,9-19-2022,14-11-11,131,depth_duration_stimuli/000906_2014-06-08_13-35-43_260595134347_rgbf000155-resize_1/000906_2014-06-08_13-35-43_260595134347_rgbf000155-resize_1-target.png,125,2.8489999999999998,1,23559,125,meters,jsons/VE125_randls_21.json,1132693,1372190,39,Woman
131,477725,DepthScenes,duration_manipulation_targetAtFixation,jsons/VE125_randls_21.json,http://54.235.29.9/FacialAge/BNav_EC2/DepthDuration/v2_depth_duration_MTurk/v2_DepthDuration_HTML.html#407,407,1366,768,1366,768,9-19-2022,14-11-11,132,depth_duration_stimuli/002805_2014-06-22_19-54-03_094959634447_rgbf000079-resize_1/002805_2014-06-22_19-54-03_094959634447_rgbf000079-resize_1-target.png,125,3.1439999999999997,0,4014,125,meters,jsons/VE125_randls_21.json,1132693,1372190,39,Woman
132,477725,DepthScenes,duration_manipulation_targetAtFixation,jsons/VE125_randls_21.json,http://54.235.29.9/FacialAge/BNav_EC2/DepthDuration/v2_depth_duration_MTurk/v2_DepthDuration_HTML.html#407,407,1366,768,1366,768,9-19-2022,14-11-11,133,depth_duration_stimuli/001417_2014-06-19_16-25-36_260595134347_rgbf000115-resize_5/001417_2014-06-19_16-25-36_260595134347_rgbf000115-resize_5-target.png,125,4.6255,2,3416,135,meters,jsons/VE125_randls_21.json,1132693,1372190,39,Woman
133,477725,DepthScenes,duration_manipulation_targetAtFixation,jsons/VE125_randls_21.json,http://54.235.29.9/FacialAge/BNav_EC2/DepthDuration/v2_depth_duration_MTurk/v2_DepthDuration_HTML.html#407,407,1366,768,1366,768,9-19-2022,14-11-11,134,depth_duration_stimuli/003081_2014-06-15_15-19-16_094959634447_rgbf000150-resize_1/003081_2014-06-15_15-19-16_094959634447_rgbf000150-resize_1-target.png,125,3.9125,1,3557,126,meters,jsons/VE125_randls_21.json,1132693,1372190,39,Woman
134,477725,DepthScenes,duration_manipulation_targetAtFixation,jsons/VE125_randls_21.json,http://54.235.29.9/FacialAge/BNav_EC2/DepthDuration/v2_depth_duration_MTurk/v2_DepthDuration_HTML.html#407,407,1366,768,1366,768,9-19-2022,14-11-11,135,depth_duration_stimuli/002072_2014-06-24_21-48-06_260595134347_rgbf000115-resize_0/002072_2014-06-24_21-48-06_260595134347_rgbf000115-resize-original.jpg,125,4.702,0,3288,109,meters,jsons/VE125_randls_21.json,1132693,1372190,39,Woman
135,477725,DepthScenes,duration_manipulation_targetAtFixation,jsons/VE125_randls_21.json,http://54.235.29.9/FacialAge/BNav_EC2/DepthDuration/v2_depth_duration_MTurk/v2_DepthDuration_HTML.html#407,407,1366,768,1366,768,9-19-2022,14-11-11,136,depth_duration_stimuli/000486_2014-06-09_20-47-20_260595134347_rgbf000143-resize_2/000486_2014-06-09_20-47-20_260595134347_rgbf000143-resize_2-target.png,125,4.8325,2,3996,124,meters,jsons/VE125_randls_21.json,1132693,1372190,39,Woman
136,477725,DepthScenes,duration_manipulation_targetAtFixation,jsons/VE125_randls_21.json,http://54.235.29.9/FacialAge/BNav_EC2/DepthDuration/v2_depth_duration_MTurk/v2_DepthDuration_HTML.html#407,407,1366,768,1366,768,9-19-2022,14-11-11,137,depth_duration_stimuli/003083_2014-06-15_15-21-03_094959634447_rgbf000063-resize_1/003083_2014-06-15_15-21-03_094959634447_rgbf000063-resize_1-target.png,125,4.1405,2,3182,121,meters,jsons/VE125_randls_21.json,1132693,1372190,39,Woman
137,477725,DepthScenes,duration_manipulation_targetAtFixation,jsons/VE125_randls_21.json,http://54.235.29.9/FacialAge/BNav_EC2/DepthDuration/v2_depth_duration_MTurk/v2_DepthDuration_HTML.html#407,407,1366,768,1366,768,9-19-2022,14-11-11,138,depth_duration_stimuli/002043_2014-06-24_20-29-38_260595134347_rgbf000039-resize_4/002043_2014-06-24_20-29-38_260595134347_rgbf000039-resize_4-target.png,125,2.8435,1,4169,134,meters,jsons/VE125_randls_21.json,1132693,1372190,39,Woman
138,477725,DepthScenes,duration_manipulation_targetAtFixation,jsons/VE125_randls_21.json,http://54.235.29.9/FacialAge/BNav_EC2/DepthDuration/v2_depth_duration_MTurk/v2_DepthDuration_HTML.html#407,407,1366,768,1366,768,9-19-2022,14-11-11,139,depth_duration_stimuli/003048_2014-06-15_13-49-43_094959634447_rgbf000150-resize_1/003048_2014-06-15_13-49-43_094959634447_rgbf000150-resize_1-target.png,125,4.0035,0,3569,107,meters,jsons/VE125_randls_21.json,1132693,1372190,39,Woman
139,477725,DepthScenes,duration_manipulation_targetAtFixation,jsons/VE125_randls_21.json,http://54.235.29.9/FacialAge/BNav_EC2/DepthDuration/v2_depth_duration_MTurk/v2_DepthDuration_HTML.html#407,407,1366,768,1366,768,9-19-2022,14-11-11,140,depth_duration_stimuli/002213_2014-06-28_18-37-58_260595134347_rgbf000055-resize_1/002213_2014-06-28_18-37-58_260595134347_rgbf000055-resize_1-target.png,125,3.62,0,3445,139,meters,jsons/VE125_randls_21.json,1132693,1372190,39,Woman
140,477725,DepthScenes,duration_manipulation_targetAtFixation,jsons/VE125_randls_21.json,http://54.235.29.9/FacialAge/BNav_EC2/DepthDuration/v2_depth_duration_MTurk/v2_DepthDuration_HTML.html#407,407,1366,768,1366,768,9-19-2022,14-11-11,141,depth_duration_stimuli/000691_2014-06-08_13-08-50_260595134347_rgbf000132-resize_3/000691_2014-06-08_13-08-50_260595134347_rgbf000132-resize_3-target.png,125,4.1530000000000005,1,3730,124,meters,jsons/VE125_randls_21.json,1132693,1372190,39,Woman
141,477725,DepthScenes,duration_manipulation_targetAtFixation,jsons/VE125_randls_21.json,http://54.235.29.9/FacialAge/BNav_EC2/DepthDuration/v2_depth_duration_MTurk/v2_DepthDuration_HTML.html#407,407,1366,768,1366,768,9-19-2022,14-11-11,142,depth_duration_stimuli/001806_2014-06-26_20-50-20_260595134347_rgbf000091-resize_1/001806_2014-06-26_20-50-20_260595134347_rgbf000091-resize_1-target.png,125,2.7305,2,3471,109,meters,jsons/VE125_randls_21.json,1132693,1372190,39,Woman
142,477725,DepthScenes,duration_manipulation_targetAtFixation,jsons/VE125_randls_21.json,http://54.235.29.9/FacialAge/BNav_EC2/DepthDuration/v2_depth_duration_MTurk/v2_DepthDuration_HTML.html#407,407,1366,768,1366,768,9-19-2022,14-11-11,143,depth_duration_stimuli/001617_2014-06-20_11-35-32_260595134347_rgbf000066-resize_1/001617_2014-06-20_11-35-32_260595134347_rgbf000066-resize_1-target.png,125,3.7910000000000004,1,3281,125,meters,jsons/VE125_randls_21.json,1132693,1372190,39,Woman
143,477725,DepthScenes,duration_manipulation_targetAtFixation,jsons/VE125_randls_21.json,http://54.235.29.9/FacialAge/BNav_EC2/DepthDuration/v2_depth_duration_MTurk/v2_DepthDuration_HTML.html#407,407,1366,768,1366,768,9-19-2022,14-11-11,144,depth_duration_stimuli/000506_2014-06-08_23-21-00_260595134347_rgbf000070-resize_7/000506_2014-06-08_23-21-00_260595134347_rgbf000070-resize_7-target.png,125,4.0585,2,3034,140,meters,jsons/VE125_randls_21.json,1132693,1372190,39,Woman
144,477725,DepthScenes,duration_manipulation_targetAtFixation,jsons/VE125_randls_21.json,http://54.235.29.9/FacialAge/BNav_EC2/DepthDuration/v2_depth_duration_MTurk/v2_DepthDuration_HTML.html#407,407,1366,768,1366,768,9-19-2022,14-11-11,145,depth_duration_stimuli/003079_2014-06-15_15-18-20_094959634447_rgbf000152-resize_8/003079_2014-06-15_15-18-20_094959634447_rgbf000152-resize_8-target.png,125,2.8775,2,3624,127,meters,jsons/VE125_randls_21.json,1132693,1372190,39,Woman
145,477725,DepthScenes,duration_manipulation_targetAtFixation,jsons/VE125_randls_21.json,http://54.235.29.9/FacialAge/BNav_EC2/DepthDuration/v2_depth_duration_MTurk/v2_DepthDuration_HTML.html#407,407,1366,768,1366,768,9-19-2022,14-11-11,146,depth_duration_stimuli/001498_2014-06-19_17-45-14_260595134347_rgbf000129-resize_4/001498_2014-06-19_17-45-14_260595134347_rgbf000129-resize-original.jpg,125,1.4075,1,3403,123,meters,jsons/VE125_randls_21.json,1132693,1372190,39,Woman
146,477725,DepthScenes,duration_manipulation_targetAtFixation,jsons/VE125_randls_21.json,http://54.235.29.9/FacialAge/BNav_EC2/DepthDuration/v2_depth_duration_MTurk/v2_DepthDuration_HTML.html#407,407,1366,768,1366,768,9-19-2022,14-11-11,147,depth_duration_stimuli/002784_2014-06-22_19-26-30_094959634447_rgbf000083-resize_3/002784_2014-06-22_19-26-30_094959634447_rgbf000083-resize_3-target.png,125,1.8046666666667,2,3239,123,meters,jsons/VE125_randls_21.json,1132693,1372190,39,Woman
147,477725,DepthScenes,duration_manipulation_targetAtFixation,jsons/VE125_randls_21.json,http://54.235.29.9/FacialAge/BNav_EC2/DepthDuration/v2_depth_duration_MTurk/v2_DepthDuration_HTML.html#407,407,1366,768,1366,768,9-19-2022,14-11-11,148,depth_duration_stimuli/001100_2014-06-15_17-46-26_260595134347_rgbf000225-resize_2/001100_2014-06-15_17-46-26_260595134347_rgbf000225-resize_2-target.png,125,2.24,1,3397,125,meters,jsons/VE125_randls_21.json,1132693,1372190,39,Woman
148,477725,DepthScenes,duration_manipulation_targetAtFixation,jsons/VE125_randls_21.json,http://54.235.29.9/FacialAge/BNav_EC2/DepthDuration/v2_depth_duration_MTurk/v2_DepthDuration_HTML.html#407,407,1366,768,1366,768,9-19-2022,14-11-11,149,depth_duration_stimuli/000692_2014-06-08_13-09-42_260595134347_rgbf000199-resize_2/000692_2014-06-08_13-09-42_260595134347_rgbf000199-resize_2-target.png,125,3.661,2,3406,126,meters,jsons/VE125_randls_21.json,1132693,1372190,39,Woman
149,477725,DepthScenes,duration_manipulation_targetAtFixation,jsons/VE125_randls_21.json,http://54.235.29.9/FacialAge/BNav_EC2/DepthDuration/v2_depth_duration_MTurk/v2_DepthDuration_HTML.html#407,407,1366,768,1366,768,9-19-2022,14-11-11,150,depth_duration_stimuli/001094_2014-06-15_17-36-00_260595134347_rgbf000205-resize_0/001094_2014-06-15_17-36-00_260595134347_rgbf000205-resize_0-target.png,125,4.2175,0,4857,110,meters,jsons/VE125_randls_21.json,1132693,1372190,39,Woman
150,477725,DepthScenes,duration_manipulation_targetAtFixation,jsons/VE125_randls_21.json,http://54.235.29.9/FacialAge/BNav_EC2/DepthDuration/v2_depth_duration_MTurk/v2_DepthDuration_HTML.html#407,407,1366,768,1366,768,9-19-2022,14-11-11,151,depth_duration_stimuli/001199_2014-06-17_16-03-48_260595134347_rgbf000077-resize_0/001199_2014-06-17_16-03-48_260595134347_rgbf000077-resize_0-target.png,125,3.4375,1,3400,138,meters,jsons/VE125_randls_21.json,1132693,1372190,39,Woman
151,477725,DepthScenes,duration_manipulation_targetAtFixation,jsons/VE125_randls_21.json,http://54.235.29.9/FacialAge/BNav_EC2/DepthDuration/v2_depth_duration_MTurk/v2_DepthDuration_HTML.html#407,407,1366,768,1366,768,9-19-2022,14-11-11,152,depth_duration_stimuli/000502_2014-06-08_23-02-32_260595134347_rgbf000063-resize_4/000502_2014-06-08_23-02-32_260595134347_rgbf000063-resize_4-target.png,125,2.431,2,3328,123,meters,jsons/VE125_randls_21.json,1132693,1372190,39,Woman
152,477725,DepthScenes,duration_manipulation_targetAtFixation,jsons/VE125_randls_21.json,http://54.235.29.9/FacialAge/BNav_EC2/DepthDuration/v2_depth_duration_MTurk/v2_DepthDuration_HTML.html#407,407,1366,768,1366,768,9-19-2022,14-11-11,153,depth_duration_stimuli/002630_2014-06-24_14-47-50_094959634447_rgbf000055-resize_1/002630_2014-06-24_14-47-50_094959634447_rgbf000055-resize_1-target.png,125,3.0095,2,2955,129,meters,jsons/VE125_randls_21.json,1132693,1372190,39,Woman
153,477725,DepthScenes,duration_manipulation_targetAtFixation,jsons/VE125_randls_21.json,http://54.235.29.9/FacialAge/BNav_EC2/DepthDuration/v2_depth_duration_MTurk/v2_DepthDuration_HTML.html#407,407,1366,768,1366,768,9-19-2022,14-11-11,154,depth_duration_stimuli/002758_2014-06-22_19-11-20_094959634447_rgbf000128-resize_1/002758_2014-06-22_19-11-20_094959634447_rgbf000128-resize_1-target.png,125,2.555,3,3118,124,meters,jsons/VE125_randls_21.json,1132693,1372190,39,Woman
154,477725,DepthScenes,duration_manipulation_targetAtFixation,jsons/VE125_randls_21.json,http://54.235.29.9/FacialAge/BNav_EC2/DepthDuration/v2_depth_duration_MTurk/v2_DepthDuration_HTML.html#407,407,1366,768,1366,768,9-19-2022,14-11-11,155,depth_duration_stimuli/000810_2014-06-08_17-20-01_260595134347_rgbf000105-resize_0/000810_2014-06-08_17-20-01_260595134347_rgbf000105-resize_0-target.png,125,1.4865,2,3148,125,meters,jsons/VE125_randls_21.json,1132693,1372190,39,Woman
155,477725,DepthScenes,duration_manipulation_targetAtFixation,jsons/VE125_randls_21.json,http://54.235.29.9/FacialAge/BNav_EC2/DepthDuration/v2_depth_duration_MTurk/v2_DepthDuration_HTML.html#407,407,1366,768,1366,768,9-19-2022,14-11-11,156,depth_duration_stimuli/001214_2014-06-17_16-13-55_260595134347_rgbf000111-resize_0/001214_2014-06-17_16-13-55_260595134347_rgbf000111-resize_0-target.png,125,2.6505,2,3132,129,meters,jsons/VE125_randls_21.json,1132693,1372190,39,Woman
156,477725,DepthScenes,duration_manipulation_targetAtFixation,jsons/VE125_randls_21.json,http://54.235.29.9/FacialAge/BNav_EC2/DepthDuration/v2_depth_duration_MTurk/v2_DepthDuration_HTML.html#407,407,1366,768,1366,768,9-19-2022,14-11-11,157,depth_duration_stimuli/000929_2014-06-09_16-33-19_260595134347_rgbf000139-resize_0/000929_2014-06-09_16-33-19_260595134347_rgbf000139-resize_0-target.png,125,2.8680000000000003,2,3683,124,meters,jsons/VE125_randls_21.json,1132693,1372190,39,Woman
157,477725,DepthScenes,duration_manipulation_targetAtFixation,jsons/VE125_randls_21.json,http://54.235.29.9/FacialAge/BNav_EC2/DepthDuration/v2_depth_duration_MTurk/v2_DepthDuration_HTML.html#407,407,1366,768,1366,768,9-19-2022,14-11-11,158,depth_duration_stimuli/000457_2014-06-08_16-52-43_260595134347_rgbf000199-resize_1/000457_2014-06-08_16-52-43_260595134347_rgbf000199-resize_1-target.png,125,3.6489999999999996,1,3399,127,meters,jsons/VE125_randls_21.json,1132693,1372190,39,Woman
158,477725,DepthScenes,duration_manipulation_targetAtFixation,jsons/VE125_randls_21.json,http://54.235.29.9/FacialAge/BNav_EC2/DepthDuration/v2_depth_duration_MTurk/v2_DepthDuration_HTML.html#407,407,1366,768,1366,768,9-19-2022,14-11-11,159,depth_duration_stimuli/002279_2014-06-28_18-55-32_260595134347_rgbf000040-resize_5/002279_2014-06-28_18-55-32_260595134347_rgbf000040-resize_5-target.png,125,1.5043333333333,3,3087,116,meters,jsons/VE125_randls_21.json,1132693,1372190,39,Woman
159,477725,DepthScenes,duration_manipulation_targetAtFixation,jsons/VE125_randls_21.json,http://54.235.29.9/FacialAge/BNav_EC2/DepthDuration/v2_depth_duration_MTurk/v2_DepthDuration_HTML.html#407,407,1366,768,1366,768,9-19-2022,14-11-11,160,depth_duration_stimuli/000635_2014-06-08_16-38-42_260595134347_rgbf000106-resize_1/000635_2014-06-08_16-38-42_260595134347_rgbf000106-resize_1-target.png,125,2.074,2,3768,117,meters,jsons/VE125_randls_21.json,1132693,1372190,39,Woman
160,477725,DepthScenes,duration_manipulation_targetAtFixation,jsons/VE125_randls_21.json,http://54.235.29.9/FacialAge/BNav_EC2/DepthDuration/v2_depth_duration_MTurk/v2_DepthDuration_HTML.html#407,407,1366,768,1366,768,9-19-2022,14-11-11,161,depth_duration_stimuli/000414_2014-06-04_19-49-13_260595134347_rgbf000044-resize_0/000414_2014-06-04_19-49-13_260595134347_rgbf000044-resize_0-target.png,125,4.329,1,3340,109,meters,jsons/VE125_randls_21.json,1132693,1372190,39,Woman
161,477725,DepthScenes,duration_manipulation_targetAtFixation,jsons/VE125_randls_21.json,http://54.235.29.9/FacialAge/BNav_EC2/DepthDuration/v2_depth_duration_MTurk/v2_DepthDuration_HTML.html#407,407,1366,768,1366,768,9-19-2022,14-11-11,162,depth_duration_stimuli/003129_2014-05-12_10-48-10_094959634447_rgbf000100-resize_0/003129_2014-05-12_10-48-10_094959634447_rgbf000100-resize_0-target.png,125,4.9305,2,3010,117,meters,jsons/VE125_randls_21.json,1132693,1372190,39,Woman
162,477725,DepthScenes,duration_manipulation_targetAtFixation,jsons/VE125_randls_21.json,http://54.235.29.9/FacialAge/BNav_EC2/DepthDuration/v2_depth_duration_MTurk/v2_DepthDuration_HTML.html#407,407,1366,768,1366,768,9-19-2022,14-11-11,163,depth_duration_stimuli/000522_2014-06-08_13-35-06_260595134347_rgbf000244-resize_1/000522_2014-06-08_13-35-06_260595134347_rgbf000244-resize_1-target.png,125,2.3715,2,4471,125,meters,jsons/VE125_randls_21.json,1132693,1372190,39,Woman
163,477725,DepthScenes,duration_manipulation_targetAtFixation,jsons/VE125_randls_21.json,http://54.235.29.9/FacialAge/BNav_EC2/DepthDuration/v2_depth_duration_MTurk/v2_DepthDuration_HTML.html#407,407,1366,768,1366,768,9-19-2022,14-11-11,164,depth_duration_stimuli/002949_2014-06-26_15-57-42_094959634447_rgbf000079-resize_1/002949_2014-06-26_15-57-42_094959634447_rgbf000079-resize_1-target.png,125,1.8915,0,3342,124,meters,jsons/VE125_randls_21.json,1132693,1372190,39,Woman
