,subjID,experimentName,versionName,sequenceName,url,selected_row,windowWidth,windowHeight,screenWidth,screenHeight,startDate,startTime,trial,stimulus,duration,actual_depth,depth_estimate,trial_RT,log_sceneDuration,unitSelection,seq_filepath,experimentTime,totalTime,age,gender
0,477954,DepthScenes,duration_manipulation_targetAtFixation,jsons/VE125_randls_14_rotated.json,http://54.235.29.9/FacialAge/BNav_EC2/DepthDuration/v2_depth_duration_MTurk/v2_DepthDuration_HTML.html#170,170,1707,960,1707,960,8-29-2022,14-41-3,1,depth_duration_stimuli/002340_2014-06-28_20-05-46_260595134347_rgbf000113-resize_0/002340_2014-06-28_20-05-46_260595134347_rgbf000113-resize_0-target.png,125,2.4735,4.5,5431,123,feet,jsons/VE125_randls_14_rotated.json,1042829,1227146,43,Man
1,477954,DepthScenes,duration_manipulation_targetAtFixation,jsons/VE125_randls_14_rotated.json,http://54.235.29.9/FacialAge/BNav_EC2/DepthDuration/v2_depth_duration_MTurk/v2_DepthDuration_HTML.html#170,170,1707,960,1707,960,8-29-2022,14-41-3,2,depth_duration_stimuli/001016_2014-06-09_16-16-10_260595134347_rgbf000112-resize_5/001016_2014-06-09_16-16-10_260595134347_rgbf000112-resize_5-target.png,125,1.6565,2.0,2452,123,feet,jsons/VE125_randls_14_rotated.json,1042829,1227146,43,Man
2,477954,DepthScenes,duration_manipulation_targetAtFixation,jsons/VE125_randls_14_rotated.json,http://54.235.29.9/FacialAge/BNav_EC2/DepthDuration/v2_depth_duration_MTurk/v2_DepthDuration_HTML.html#170,170,1707,960,1707,960,8-29-2022,14-41-3,3,depth_duration_stimuli/001447_2014-06-19_17-00-32_260595134347_rgbf000082-resize_5/001447_2014-06-19_17-00-32_260595134347_rgbf000082-resize_5-target.png,125,4.13775,2.5,5711,122,feet,jsons/VE125_randls_14_rotated.json,1042829,1227146,43,Man
3,477954,DepthScenes,duration_manipulation_targetAtFixation,jsons/VE125_randls_14_rotated.json,http://54.235.29.9/FacialAge/BNav_EC2/DepthDuration/v2_depth_duration_MTurk/v2_DepthDuration_HTML.html#170,170,1707,960,1707,960,8-29-2022,14-41-3,4,depth_duration_stimuli/000447_2014-06-08_16-15-46_260595134347_rgbf000130-resize_1/000447_2014-06-08_16-15-46_260595134347_rgbf000130-resize_1-target.png,125,4.479,6.0,8353,124,feet,jsons/VE125_randls_14_rotated.json,1042829,1227146,43,Man
4,477954,DepthScenes,duration_manipulation_targetAtFixation,jsons/VE125_randls_14_rotated.json,http://54.235.29.9/FacialAge/BNav_EC2/DepthDuration/v2_depth_duration_MTurk/v2_DepthDuration_HTML.html#170,170,1707,960,1707,960,8-29-2022,14-41-3,5,depth_duration_stimuli/002344_2014-06-28_20-06-29_260595134347_rgbf000030-resize_1/002344_2014-06-28_20-06-29_260595134347_rgbf000030-resize_1-target.png,125,1.5795,1.0,4448,122,feet,jsons/VE125_randls_14_rotated.json,1042829,1227146,43,Man
5,477954,DepthScenes,duration_manipulation_targetAtFixation,jsons/VE125_randls_14_rotated.json,http://54.235.29.9/FacialAge/BNav_EC2/DepthDuration/v2_depth_duration_MTurk/v2_DepthDuration_HTML.html#170,170,1707,960,1707,960,8-29-2022,14-41-3,6,depth_duration_stimuli/002725_2014-06-22_11-47-51_094959634447_rgbf000070-resize_1/002725_2014-06-22_11-47-51_094959634447_rgbf000070-resize_1-target.png,125,2.195,3.5,5548,123,feet,jsons/VE125_randls_14_rotated.json,1042829,1227146,43,Man
6,477954,DepthScenes,duration_manipulation_targetAtFixation,jsons/VE125_randls_14_rotated.json,http://54.235.29.9/FacialAge/BNav_EC2/DepthDuration/v2_depth_duration_MTurk/v2_DepthDuration_HTML.html#170,170,1707,960,1707,960,8-29-2022,14-41-3,7,depth_duration_stimuli/001516_2014-06-20_16-25-09_260595134347_rgbf000076-resize_2/001516_2014-06-20_16-25-09_260595134347_rgbf000076-resize_2-target.png,125,1.7445,2.0,4393,122,feet,jsons/VE125_randls_14_rotated.json,1042829,1227146,43,Man
7,477954,DepthScenes,duration_manipulation_targetAtFixation,jsons/VE125_randls_14_rotated.json,http://54.235.29.9/FacialAge/BNav_EC2/DepthDuration/v2_depth_duration_MTurk/v2_DepthDuration_HTML.html#170,170,1707,960,1707,960,8-29-2022,14-41-3,8,depth_duration_stimuli/002118_2014-06-25_20-32-08_260595134347_rgbf000078-resize_1/002118_2014-06-25_20-32-08_260595134347_rgbf000078-resize_1-target.png,125,2.6460000000000004,4.0,5586,136,feet,jsons/VE125_randls_14_rotated.json,1042829,1227146,43,Man
8,477954,DepthScenes,duration_manipulation_targetAtFixation,jsons/VE125_randls_14_rotated.json,http://54.235.29.9/FacialAge/BNav_EC2/DepthDuration/v2_depth_duration_MTurk/v2_DepthDuration_HTML.html#170,170,1707,960,1707,960,8-29-2022,14-41-3,9,depth_duration_stimuli/002467_2014-06-28_20-38-07_260595134347_rgbf000026-resize_2/002467_2014-06-28_20-38-07_260595134347_rgbf000026-resize_2-target.png,125,4.742,5.0,5255,138,feet,jsons/VE125_randls_14_rotated.json,1042829,1227146,43,Man
9,477954,DepthScenes,duration_manipulation_targetAtFixation,jsons/VE125_randls_14_rotated.json,http://54.235.29.9/FacialAge/BNav_EC2/DepthDuration/v2_depth_duration_MTurk/v2_DepthDuration_HTML.html#170,170,1707,960,1707,960,8-29-2022,14-41-3,10,depth_duration_stimuli/002570_2014-06-24_13-59-54_094959634447_rgbf000059-resize_0/002570_2014-06-24_13-59-54_094959634447_rgbf000059-resize_0-target.png,125,4.037,6.0,7129,124,feet,jsons/VE125_randls_14_rotated.json,1042829,1227146,43,Man
10,477954,DepthScenes,duration_manipulation_targetAtFixation,jsons/VE125_randls_14_rotated.json,http://54.235.29.9/FacialAge/BNav_EC2/DepthDuration/v2_depth_duration_MTurk/v2_DepthDuration_HTML.html#170,170,1707,960,1707,960,8-29-2022,14-41-3,11,depth_duration_stimuli/000742_2014-06-08_18-48-09_260595134347_rgbf000164-resize_4/000742_2014-06-08_18-48-09_260595134347_rgbf000164-resize_4-target.png,125,4.632,6.5,11338,122,feet,jsons/VE125_randls_14_rotated.json,1042829,1227146,43,Man
11,477954,DepthScenes,duration_manipulation_targetAtFixation,jsons/VE125_randls_14_rotated.json,http://54.235.29.9/FacialAge/BNav_EC2/DepthDuration/v2_depth_duration_MTurk/v2_DepthDuration_HTML.html#170,170,1707,960,1707,960,8-29-2022,14-41-3,12,depth_duration_stimuli/001066_2014-06-08_22-03-20_260595134347_rgbf000066-resize_4/001066_2014-06-08_22-03-20_260595134347_rgbf000066-resize_4-target.png,125,4.2330000000000005,5.0,3922,124,feet,jsons/VE125_randls_14_rotated.json,1042829,1227146,43,Man
12,477954,DepthScenes,duration_manipulation_targetAtFixation,jsons/VE125_randls_14_rotated.json,http://54.235.29.9/FacialAge/BNav_EC2/DepthDuration/v2_depth_duration_MTurk/v2_DepthDuration_HTML.html#170,170,1707,960,1707,960,8-29-2022,14-41-3,13,depth_duration_stimuli/003083_2014-06-15_15-21-03_094959634447_rgbf000063-resize_1/003083_2014-06-15_15-21-03_094959634447_rgbf000063-resize_1-target.png,125,4.1405,6.0,9497,124,feet,jsons/VE125_randls_14_rotated.json,1042829,1227146,43,Man
13,477954,DepthScenes,duration_manipulation_targetAtFixation,jsons/VE125_randls_14_rotated.json,http://54.235.29.9/FacialAge/BNav_EC2/DepthDuration/v2_depth_duration_MTurk/v2_DepthDuration_HTML.html#170,170,1707,960,1707,960,8-29-2022,14-41-3,14,depth_duration_stimuli/000486_2014-06-09_20-47-20_260595134347_rgbf000143-resize_2/000486_2014-06-09_20-47-20_260595134347_rgbf000143-resize_2-target.png,125,4.8325,5.0,6687,123,feet,jsons/VE125_randls_14_rotated.json,1042829,1227146,43,Man
14,477954,DepthScenes,duration_manipulation_targetAtFixation,jsons/VE125_randls_14_rotated.json,http://54.235.29.9/FacialAge/BNav_EC2/DepthDuration/v2_depth_duration_MTurk/v2_DepthDuration_HTML.html#170,170,1707,960,1707,960,8-29-2022,14-41-3,15,depth_duration_stimuli/000483_2014-06-09_20-41-45_260595134347_rgbf000116-resize_4/000483_2014-06-09_20-41-45_260595134347_rgbf000116-resize_4-target.png,125,1.337,2.0,3114,123,feet,jsons/VE125_randls_14_rotated.json,1042829,1227146,43,Man
15,477954,DepthScenes,duration_manipulation_targetAtFixation,jsons/VE125_randls_14_rotated.json,http://54.235.29.9/FacialAge/BNav_EC2/DepthDuration/v2_depth_duration_MTurk/v2_DepthDuration_HTML.html#170,170,1707,960,1707,960,8-29-2022,14-41-3,16,depth_duration_stimuli/000469_2014-06-09_19-42-10_260595134347_rgbf000081-resize_1/000469_2014-06-09_19-42-10_260595134347_rgbf000081-resize_1-target.png,125,1.652,2.5,6965,124,feet,jsons/VE125_randls_14_rotated.json,1042829,1227146,43,Man
16,477954,DepthScenes,duration_manipulation_targetAtFixation,jsons/VE125_randls_14_rotated.json,http://54.235.29.9/FacialAge/BNav_EC2/DepthDuration/v2_depth_duration_MTurk/v2_DepthDuration_HTML.html#170,170,1707,960,1707,960,8-29-2022,14-41-3,17,depth_duration_stimuli/001235_2014-06-17_16-37-36_260595134347_rgbf000084-resize_4/001235_2014-06-17_16-37-36_260595134347_rgbf000084-resize_4-target.png,125,3.6605,4.0,5503,140,feet,jsons/VE125_randls_14_rotated.json,1042829,1227146,43,Man
17,477954,DepthScenes,duration_manipulation_targetAtFixation,jsons/VE125_randls_14_rotated.json,http://54.235.29.9/FacialAge/BNav_EC2/DepthDuration/v2_depth_duration_MTurk/v2_DepthDuration_HTML.html#170,170,1707,960,1707,960,8-29-2022,14-41-3,18,depth_duration_stimuli/000788_2014-06-08_22-34-36_260595134347_rgbf000131-resize_1/000788_2014-06-08_22-34-36_260595134347_rgbf000131-resize_1-target.png,125,3.359,3.0,4666,123,feet,jsons/VE125_randls_14_rotated.json,1042829,1227146,43,Man
18,477954,DepthScenes,duration_manipulation_targetAtFixation,jsons/VE125_randls_14_rotated.json,http://54.235.29.9/FacialAge/BNav_EC2/DepthDuration/v2_depth_duration_MTurk/v2_DepthDuration_HTML.html#170,170,1707,960,1707,960,8-29-2022,14-41-3,19,depth_duration_stimuli/001498_2014-06-19_17-45-14_260595134347_rgbf000129-resize_4/001498_2014-06-19_17-45-14_260595134347_rgbf000129-resize-original.jpg,125,1.4075,0.0,3151,130,feet,jsons/VE125_randls_14_rotated.json,1042829,1227146,43,Man
19,477954,DepthScenes,duration_manipulation_targetAtFixation,jsons/VE125_randls_14_rotated.json,http://54.235.29.9/FacialAge/BNav_EC2/DepthDuration/v2_depth_duration_MTurk/v2_DepthDuration_HTML.html#170,170,1707,960,1707,960,8-29-2022,14-41-3,20,depth_duration_stimuli/002750_2014-06-22_19-08-03_094959634447_rgbf000094-resize_4/002750_2014-06-22_19-08-03_094959634447_rgbf000094-resize_4-target.png,125,2.354,4.0,7124,125,feet,jsons/VE125_randls_14_rotated.json,1042829,1227146,43,Man
20,477954,DepthScenes,duration_manipulation_targetAtFixation,jsons/VE125_randls_14_rotated.json,http://54.235.29.9/FacialAge/BNav_EC2/DepthDuration/v2_depth_duration_MTurk/v2_DepthDuration_HTML.html#170,170,1707,960,1707,960,8-29-2022,14-41-3,21,depth_duration_stimuli/002549_2014-06-24_13-41-39_094959634447_rgbf000022-resize_3/002549_2014-06-24_13-41-39_094959634447_rgbf000022-resize_3-target.png,125,1.476,2.0,5051,123,feet,jsons/VE125_randls_14_rotated.json,1042829,1227146,43,Man
21,477954,DepthScenes,duration_manipulation_targetAtFixation,jsons/VE125_randls_14_rotated.json,http://54.235.29.9/FacialAge/BNav_EC2/DepthDuration/v2_depth_duration_MTurk/v2_DepthDuration_HTML.html#170,170,1707,960,1707,960,8-29-2022,14-41-3,22,depth_duration_stimuli/001815_2014-06-26_20-52-55_260595134347_rgbf000020-resize_0/001815_2014-06-26_20-52-55_260595134347_rgbf000020-resize_0-target.png,125,3.3865,7.0,8671,124,feet,jsons/VE125_randls_14_rotated.json,1042829,1227146,43,Man
22,477954,DepthScenes,duration_manipulation_targetAtFixation,jsons/VE125_randls_14_rotated.json,http://54.235.29.9/FacialAge/BNav_EC2/DepthDuration/v2_depth_duration_MTurk/v2_DepthDuration_HTML.html#170,170,1707,960,1707,960,8-29-2022,14-41-3,23,depth_duration_stimuli/001808_2014-06-26_20-50-58_260595134347_rgbf000029-resize_1/001808_2014-06-26_20-50-58_260595134347_rgbf000029-resize_1-target.png,125,4.249,7.0,9164,123,feet,jsons/VE125_randls_14_rotated.json,1042829,1227146,43,Man
23,477954,DepthScenes,duration_manipulation_targetAtFixation,jsons/VE125_randls_14_rotated.json,http://54.235.29.9/FacialAge/BNav_EC2/DepthDuration/v2_depth_duration_MTurk/v2_DepthDuration_HTML.html#170,170,1707,960,1707,960,8-29-2022,14-41-3,24,depth_duration_stimuli/000191_2014-05-12_17-07-38_260595134347_rgbf000199-resize_0/000191_2014-05-12_17-07-38_260595134347_rgbf000199-resize_0-target.png,125,3.7995,8.0,5078,125,feet,jsons/VE125_randls_14_rotated.json,1042829,1227146,43,Man
24,477954,DepthScenes,duration_manipulation_targetAtFixation,jsons/VE125_randls_14_rotated.json,http://54.235.29.9/FacialAge/BNav_EC2/DepthDuration/v2_depth_duration_MTurk/v2_DepthDuration_HTML.html#170,170,1707,960,1707,960,8-29-2022,14-41-3,25,depth_duration_stimuli/000493_2014-06-09_21-01-18_260595134347_rgbf000196-resize_3/000493_2014-06-09_21-01-18_260595134347_rgbf000196-resize_3-target.png,125,3.44,5.0,7402,123,feet,jsons/VE125_randls_14_rotated.json,1042829,1227146,43,Man
25,477954,DepthScenes,duration_manipulation_targetAtFixation,jsons/VE125_randls_14_rotated.json,http://54.235.29.9/FacialAge/BNav_EC2/DepthDuration/v2_depth_duration_MTurk/v2_DepthDuration_HTML.html#170,170,1707,960,1707,960,8-29-2022,14-41-3,26,depth_duration_stimuli/002995_2014-06-15_12-31-26_094959634447_rgbf000150-resize_1/002995_2014-06-15_12-31-26_094959634447_rgbf000150-resize_1-target.png,125,3.8360000000000003,7.0,9158,124,feet,jsons/VE125_randls_14_rotated.json,1042829,1227146,43,Man
26,477954,DepthScenes,duration_manipulation_targetAtFixation,jsons/VE125_randls_14_rotated.json,http://54.235.29.9/FacialAge/BNav_EC2/DepthDuration/v2_depth_duration_MTurk/v2_DepthDuration_HTML.html#170,170,1707,960,1707,960,8-29-2022,14-41-3,27,depth_duration_stimuli/002748_2014-06-22_19-07-22_094959634447_rgbf000078-resize_1/002748_2014-06-22_19-07-22_094959634447_rgbf000078-resize_1-target.png,125,4.6705,8.0,9225,121,feet,jsons/VE125_randls_14_rotated.json,1042829,1227146,43,Man
27,477954,DepthScenes,duration_manipulation_targetAtFixation,jsons/VE125_randls_14_rotated.json,http://54.235.29.9/FacialAge/BNav_EC2/DepthDuration/v2_depth_duration_MTurk/v2_DepthDuration_HTML.html#170,170,1707,960,1707,960,8-29-2022,14-41-3,28,depth_duration_stimuli/000549_2014-06-08_22-10-24_260595134347_rgbf000247-resize_3/000549_2014-06-08_22-10-24_260595134347_rgbf000247-resize_3-target.png,125,1.841,2.0,2917,125,feet,jsons/VE125_randls_14_rotated.json,1042829,1227146,43,Man
28,477954,DepthScenes,duration_manipulation_targetAtFixation,jsons/VE125_randls_14_rotated.json,http://54.235.29.9/FacialAge/BNav_EC2/DepthDuration/v2_depth_duration_MTurk/v2_DepthDuration_HTML.html#170,170,1707,960,1707,960,8-29-2022,14-41-3,29,depth_duration_stimuli/001055_2014-06-08_18-45-35_260595134347_rgbf000111-resize_4/001055_2014-06-08_18-45-35_260595134347_rgbf000111-resize_4-target.png,125,2.4290000000000003,7.0,6734,124,feet,jsons/VE125_randls_14_rotated.json,1042829,1227146,43,Man
29,477954,DepthScenes,duration_manipulation_targetAtFixation,jsons/VE125_randls_14_rotated.json,http://54.235.29.9/FacialAge/BNav_EC2/DepthDuration/v2_depth_duration_MTurk/v2_DepthDuration_HTML.html#170,170,1707,960,1707,960,8-29-2022,14-41-3,30,depth_duration_stimuli/002072_2014-06-24_21-48-06_260595134347_rgbf000115-resize_0/002072_2014-06-24_21-48-06_260595134347_rgbf000115-resize-original.jpg,125,4.702,0.0,2497,124,feet,jsons/VE125_randls_14_rotated.json,1042829,1227146,43,Man
30,477954,DepthScenes,duration_manipulation_targetAtFixation,jsons/VE125_randls_14_rotated.json,http://54.235.29.9/FacialAge/BNav_EC2/DepthDuration/v2_depth_duration_MTurk/v2_DepthDuration_HTML.html#170,170,1707,960,1707,960,8-29-2022,14-41-3,31,depth_duration_stimuli/003010_2014-06-15_12-54-35_094959634447_rgbf000112-resize_0/003010_2014-06-15_12-54-35_094959634447_rgbf000112-resize_0-target.png,125,3.1185,6.5,7644,124,feet,jsons/VE125_randls_14_rotated.json,1042829,1227146,43,Man
31,477954,DepthScenes,duration_manipulation_targetAtFixation,jsons/VE125_randls_14_rotated.json,http://54.235.29.9/FacialAge/BNav_EC2/DepthDuration/v2_depth_duration_MTurk/v2_DepthDuration_HTML.html#170,170,1707,960,1707,960,8-29-2022,14-41-3,32,depth_duration_stimuli/001810_2014-06-26_20-51-35_260595134347_rgbf000040-resize_3/001810_2014-06-26_20-51-35_260595134347_rgbf000040-resize_3-target.png,125,2.2525,3.5,11085,124,feet,jsons/VE125_randls_14_rotated.json,1042829,1227146,43,Man
32,477954,DepthScenes,duration_manipulation_targetAtFixation,jsons/VE125_randls_14_rotated.json,http://54.235.29.9/FacialAge/BNav_EC2/DepthDuration/v2_depth_duration_MTurk/v2_DepthDuration_HTML.html#170,170,1707,960,1707,960,8-29-2022,14-41-3,33,depth_duration_stimuli/002425_2014-06-28_20-27-29_260595134347_rgbf000031-resize_8/002425_2014-06-28_20-27-29_260595134347_rgbf000031-resize_8-target.png,125,3.8960000000000004,6.0,10752,124,feet,jsons/VE125_randls_14_rotated.json,1042829,1227146,43,Man
33,477954,DepthScenes,duration_manipulation_targetAtFixation,jsons/VE125_randls_14_rotated.json,http://54.235.29.9/FacialAge/BNav_EC2/DepthDuration/v2_depth_duration_MTurk/v2_DepthDuration_HTML.html#170,170,1707,960,1707,960,8-29-2022,14-41-3,34,depth_duration_stimuli/000642_2014-06-08_16-59-25_260595134347_rgbf000098-resize_2/000642_2014-06-08_16-59-25_260595134347_rgbf000098-resize_2-target.png,125,2.8815,4.5,6861,123,feet,jsons/VE125_randls_14_rotated.json,1042829,1227146,43,Man
34,477954,DepthScenes,duration_manipulation_targetAtFixation,jsons/VE125_randls_14_rotated.json,http://54.235.29.9/FacialAge/BNav_EC2/DepthDuration/v2_depth_duration_MTurk/v2_DepthDuration_HTML.html#170,170,1707,960,1707,960,8-29-2022,14-41-3,35,depth_duration_stimuli/002568_2014-06-24_13-59-21_094959634447_rgbf000062-resize_4/002568_2014-06-24_13-59-21_094959634447_rgbf000062-resize_4-target.png,125,3.015,5.5,5496,138,feet,jsons/VE125_randls_14_rotated.json,1042829,1227146,43,Man
35,477954,DepthScenes,duration_manipulation_targetAtFixation,jsons/VE125_randls_14_rotated.json,http://54.235.29.9/FacialAge/BNav_EC2/DepthDuration/v2_depth_duration_MTurk/v2_DepthDuration_HTML.html#170,170,1707,960,1707,960,8-29-2022,14-41-3,36,depth_duration_stimuli/003492_2014-05-21_15-50-55_094959634447_rgbf000828-resize_1/003492_2014-05-21_15-50-55_094959634447_rgbf000828-resize_1-target.png,125,4.06875,8.5,8795,123,feet,jsons/VE125_randls_14_rotated.json,1042829,1227146,43,Man
36,477954,DepthScenes,duration_manipulation_targetAtFixation,jsons/VE125_randls_14_rotated.json,http://54.235.29.9/FacialAge/BNav_EC2/DepthDuration/v2_depth_duration_MTurk/v2_DepthDuration_HTML.html#170,170,1707,960,1707,960,8-29-2022,14-41-3,37,depth_duration_stimuli/002103_2014-06-25_20-00-40_260595134347_rgbf000049-resize_0/002103_2014-06-25_20-00-40_260595134347_rgbf000049-resize_0-target.png,125,4.105,8.0,8020,123,feet,jsons/VE125_randls_14_rotated.json,1042829,1227146,43,Man
37,477954,DepthScenes,duration_manipulation_targetAtFixation,jsons/VE125_randls_14_rotated.json,http://54.235.29.9/FacialAge/BNav_EC2/DepthDuration/v2_depth_duration_MTurk/v2_DepthDuration_HTML.html#170,170,1707,960,1707,960,8-29-2022,14-41-3,38,depth_duration_stimuli/002039_2014-06-24_20-22-38_260595134347_rgbf000084-resize_1/002039_2014-06-24_20-22-38_260595134347_rgbf000084-resize_1-target.png,125,4.408,7.0,11050,123,feet,jsons/VE125_randls_14_rotated.json,1042829,1227146,43,Man
38,477954,DepthScenes,duration_manipulation_targetAtFixation,jsons/VE125_randls_14_rotated.json,http://54.235.29.9/FacialAge/BNav_EC2/DepthDuration/v2_depth_duration_MTurk/v2_DepthDuration_HTML.html#170,170,1707,960,1707,960,8-29-2022,14-41-3,39,depth_duration_stimuli/001214_2014-06-17_16-13-55_260595134347_rgbf000111-resize_0/001214_2014-06-17_16-13-55_260595134347_rgbf000111-resize_0-target.png,125,2.6505,4.5,5352,122,feet,jsons/VE125_randls_14_rotated.json,1042829,1227146,43,Man
39,477954,DepthScenes,duration_manipulation_targetAtFixation,jsons/VE125_randls_14_rotated.json,http://54.235.29.9/FacialAge/BNav_EC2/DepthDuration/v2_depth_duration_MTurk/v2_DepthDuration_HTML.html#170,170,1707,960,1707,960,8-29-2022,14-41-3,40,depth_duration_stimuli/000810_2014-06-08_17-20-01_260595134347_rgbf000105-resize_0/000810_2014-06-08_17-20-01_260595134347_rgbf000105-resize_0-target.png,125,1.4865,3.0,3583,139,feet,jsons/VE125_randls_14_rotated.json,1042829,1227146,43,Man
40,477954,DepthScenes,duration_manipulation_targetAtFixation,jsons/VE125_randls_14_rotated.json,http://54.235.29.9/FacialAge/BNav_EC2/DepthDuration/v2_depth_duration_MTurk/v2_DepthDuration_HTML.html#170,170,1707,960,1707,960,8-29-2022,14-41-3,41,depth_duration_stimuli/000780_2014-06-08_22-28-29_260595134347_rgbf000126-resize_1/000780_2014-06-08_22-28-29_260595134347_rgbf000126-resize_1-target.png,125,3.3825,7.0,10574,124,feet,jsons/VE125_randls_14_rotated.json,1042829,1227146,43,Man
41,477954,DepthScenes,duration_manipulation_targetAtFixation,jsons/VE125_randls_14_rotated.json,http://54.235.29.9/FacialAge/BNav_EC2/DepthDuration/v2_depth_duration_MTurk/v2_DepthDuration_HTML.html#170,170,1707,960,1707,960,8-29-2022,14-41-3,42,depth_duration_stimuli/002445_2014-06-28_20-32-16_260595134347_rgbf000029-resize_4/002445_2014-06-28_20-32-16_260595134347_rgbf000029-resize_4-target.png,125,2.5315,5.0,7251,124,feet,jsons/VE125_randls_14_rotated.json,1042829,1227146,43,Man
42,477954,DepthScenes,duration_manipulation_targetAtFixation,jsons/VE125_randls_14_rotated.json,http://54.235.29.9/FacialAge/BNav_EC2/DepthDuration/v2_depth_duration_MTurk/v2_DepthDuration_HTML.html#170,170,1707,960,1707,960,8-29-2022,14-41-3,43,depth_duration_stimuli/001617_2014-06-20_11-35-32_260595134347_rgbf000066-resize_1/001617_2014-06-20_11-35-32_260595134347_rgbf000066-resize_1-target.png,125,3.7910000000000004,6.0,7962,124,feet,jsons/VE125_randls_14_rotated.json,1042829,1227146,43,Man
43,477954,DepthScenes,duration_manipulation_targetAtFixation,jsons/VE125_randls_14_rotated.json,http://54.235.29.9/FacialAge/BNav_EC2/DepthDuration/v2_depth_duration_MTurk/v2_DepthDuration_HTML.html#170,170,1707,960,1707,960,8-29-2022,14-41-3,44,depth_duration_stimuli/001806_2014-06-26_20-50-20_260595134347_rgbf000091-resize_1/001806_2014-06-26_20-50-20_260595134347_rgbf000091-resize_1-target.png,125,2.7305,5.0,6979,123,feet,jsons/VE125_randls_14_rotated.json,1042829,1227146,43,Man
44,477954,DepthScenes,duration_manipulation_targetAtFixation,jsons/VE125_randls_14_rotated.json,http://54.235.29.9/FacialAge/BNav_EC2/DepthDuration/v2_depth_duration_MTurk/v2_DepthDuration_HTML.html#170,170,1707,960,1707,960,8-29-2022,14-41-3,45,depth_duration_stimuli/003081_2014-06-15_15-19-16_094959634447_rgbf000150-resize_1/003081_2014-06-15_15-19-16_094959634447_rgbf000150-resize_1-target.png,125,3.9125,7.0,4730,124,feet,jsons/VE125_randls_14_rotated.json,1042829,1227146,43,Man
45,477954,DepthScenes,duration_manipulation_targetAtFixation,jsons/VE125_randls_14_rotated.json,http://54.235.29.9/FacialAge/BNav_EC2/DepthDuration/v2_depth_duration_MTurk/v2_DepthDuration_HTML.html#170,170,1707,960,1707,960,8-29-2022,14-41-3,46,depth_duration_stimuli/001417_2014-06-19_16-25-36_260595134347_rgbf000115-resize_5/001417_2014-06-19_16-25-36_260595134347_rgbf000115-resize_5-target.png,125,4.6255,7.0,10529,124,feet,jsons/VE125_randls_14_rotated.json,1042829,1227146,43,Man
46,477954,DepthScenes,duration_manipulation_targetAtFixation,jsons/VE125_randls_14_rotated.json,http://54.235.29.9/FacialAge/BNav_EC2/DepthDuration/v2_depth_duration_MTurk/v2_DepthDuration_HTML.html#170,170,1707,960,1707,960,8-29-2022,14-41-3,47,depth_duration_stimuli/003587_2014-05-23_16-48-02_094959634447_rgbf002384-resize_2/003587_2014-05-23_16-48-02_094959634447_rgbf002384-resize_2-target.png,125,1.357,2.5,5343,121,feet,jsons/VE125_randls_14_rotated.json,1042829,1227146,43,Man
47,477954,DepthScenes,duration_manipulation_targetAtFixation,jsons/VE125_randls_14_rotated.json,http://54.235.29.9/FacialAge/BNav_EC2/DepthDuration/v2_depth_duration_MTurk/v2_DepthDuration_HTML.html#170,170,1707,960,1707,960,8-29-2022,14-41-3,48,depth_duration_stimuli/001167_2014-06-17_15-38-07_260595134347_rgbf000108-resize_0/001167_2014-06-17_15-38-07_260595134347_rgbf000108-resize_0-target.png,125,1.8505,3.0,4511,123,feet,jsons/VE125_randls_14_rotated.json,1042829,1227146,43,Man
48,477954,DepthScenes,duration_manipulation_targetAtFixation,jsons/VE125_randls_14_rotated.json,http://54.235.29.9/FacialAge/BNav_EC2/DepthDuration/v2_depth_duration_MTurk/v2_DepthDuration_HTML.html#170,170,1707,960,1707,960,8-29-2022,14-41-3,49,depth_duration_stimuli/001170_2014-06-17_15-43-44_260595134347_rgbf000096-resize_6/001170_2014-06-17_15-43-44_260595134347_rgbf000096-resize-original.jpg,125,1.1909999999999998,0.0,2679,123,feet,jsons/VE125_randls_14_rotated.json,1042829,1227146,43,Man
49,477954,DepthScenes,duration_manipulation_targetAtFixation,jsons/VE125_randls_14_rotated.json,http://54.235.29.9/FacialAge/BNav_EC2/DepthDuration/v2_depth_duration_MTurk/v2_DepthDuration_HTML.html#170,170,1707,960,1707,960,8-29-2022,14-41-3,50,depth_duration_stimuli/001650_2014-06-20_12-09-00_260595134347_rgbf000087-resize_3/001650_2014-06-20_12-09-00_260595134347_rgbf000087-resize_3-target.png,125,1.9505,3.0,7670,116,feet,jsons/VE125_randls_14_rotated.json,1042829,1227146,43,Man
50,477954,DepthScenes,duration_manipulation_targetAtFixation,jsons/VE125_randls_14_rotated.json,http://54.235.29.9/FacialAge/BNav_EC2/DepthDuration/v2_depth_duration_MTurk/v2_DepthDuration_HTML.html#170,170,1707,960,1707,960,8-29-2022,14-41-3,51,depth_duration_stimuli/000682_2014-06-08_23-14-58_260595134347_rgbf000041-resize_5/000682_2014-06-08_23-14-58_260595134347_rgbf000041-resize_5-target.png,125,2.7239999999999998,4.5,4720,123,feet,jsons/VE125_randls_14_rotated.json,1042829,1227146,43,Man
51,477954,DepthScenes,duration_manipulation_targetAtFixation,jsons/VE125_randls_14_rotated.json,http://54.235.29.9/FacialAge/BNav_EC2/DepthDuration/v2_depth_duration_MTurk/v2_DepthDuration_HTML.html#170,170,1707,960,1707,960,8-29-2022,14-41-3,52,depth_duration_stimuli/002949_2014-06-26_15-57-42_094959634447_rgbf000079-resize_1/002949_2014-06-26_15-57-42_094959634447_rgbf000079-resize_1-target.png,125,1.8915,3.5,10255,124,feet,jsons/VE125_randls_14_rotated.json,1042829,1227146,43,Man
52,477954,DepthScenes,duration_manipulation_targetAtFixation,jsons/VE125_randls_14_rotated.json,http://54.235.29.9/FacialAge/BNav_EC2/DepthDuration/v2_depth_duration_MTurk/v2_DepthDuration_HTML.html#170,170,1707,960,1707,960,8-29-2022,14-41-3,53,depth_duration_stimuli/000522_2014-06-08_13-35-06_260595134347_rgbf000244-resize_1/000522_2014-06-08_13-35-06_260595134347_rgbf000244-resize_1-target.png,125,2.3715,2.5,3747,122,feet,jsons/VE125_randls_14_rotated.json,1042829,1227146,43,Man
53,477954,DepthScenes,duration_manipulation_targetAtFixation,jsons/VE125_randls_14_rotated.json,http://54.235.29.9/FacialAge/BNav_EC2/DepthDuration/v2_depth_duration_MTurk/v2_DepthDuration_HTML.html#170,170,1707,960,1707,960,8-29-2022,14-41-3,54,depth_duration_stimuli/000866_2014-06-09_20-45-42_260595134347_rgbf000139-resize_1/000866_2014-06-09_20-45-42_260595134347_rgbf000139-resize_1-target.png,125,3.2155,9.0,7479,124,feet,jsons/VE125_randls_14_rotated.json,1042829,1227146,43,Man
54,477954,DepthScenes,duration_manipulation_targetAtFixation,jsons/VE125_randls_14_rotated.json,http://54.235.29.9/FacialAge/BNav_EC2/DepthDuration/v2_depth_duration_MTurk/v2_DepthDuration_HTML.html#170,170,1707,960,1707,960,8-29-2022,14-41-3,55,depth_duration_stimuli/002989_2014-06-15_12-25-03_094959634447_rgbf000150-resize_3/002989_2014-06-15_12-25-03_094959634447_rgbf000150-resize_3-target.png,125,4.1975,10.0,5985,124,feet,jsons/VE125_randls_14_rotated.json,1042829,1227146,43,Man
55,477954,DepthScenes,duration_manipulation_targetAtFixation,jsons/VE125_randls_14_rotated.json,http://54.235.29.9/FacialAge/BNav_EC2/DepthDuration/v2_depth_duration_MTurk/v2_DepthDuration_HTML.html#170,170,1707,960,1707,960,8-29-2022,14-41-3,56,depth_duration_stimuli/002657_2014-06-13_15-29-54_094959634447_rgbf000150-resize_1/002657_2014-06-13_15-29-54_094959634447_rgbf000150-resize_1-target.png,125,4.919,8.0,5256,123,feet,jsons/VE125_randls_14_rotated.json,1042829,1227146,43,Man
56,477954,DepthScenes,duration_manipulation_targetAtFixation,jsons/VE125_randls_14_rotated.json,http://54.235.29.9/FacialAge/BNav_EC2/DepthDuration/v2_depth_duration_MTurk/v2_DepthDuration_HTML.html#170,170,1707,960,1707,960,8-29-2022,14-41-3,57,depth_duration_stimuli/002375_2014-06-28_20-13-44_260595134347_rgbf000032-resize_1/002375_2014-06-28_20-13-44_260595134347_rgbf000032-resize_1-target.png,125,4.0175,6.0,5640,123,feet,jsons/VE125_randls_14_rotated.json,1042829,1227146,43,Man
57,477954,DepthScenes,duration_manipulation_targetAtFixation,jsons/VE125_randls_14_rotated.json,http://54.235.29.9/FacialAge/BNav_EC2/DepthDuration/v2_depth_duration_MTurk/v2_DepthDuration_HTML.html#170,170,1707,960,1707,960,8-29-2022,14-41-3,58,depth_duration_stimuli/002323_2014-06-28_20-01-54_260595134347_rgbf000051-resize_4/002323_2014-06-28_20-01-54_260595134347_rgbf000051-resize_4-target.png,125,3.7310000000000003,12.0,5765,125,feet,jsons/VE125_randls_14_rotated.json,1042829,1227146,43,Man
58,477954,DepthScenes,duration_manipulation_targetAtFixation,jsons/VE125_randls_14_rotated.json,http://54.235.29.9/FacialAge/BNav_EC2/DepthDuration/v2_depth_duration_MTurk/v2_DepthDuration_HTML.html#170,170,1707,960,1707,960,8-29-2022,14-41-3,59,depth_duration_stimuli/000917_2014-06-09_22-45-29_260595134347_rgbf000149-resize_3/000917_2014-06-09_22-45-29_260595134347_rgbf000149-resize_3-target.png,125,4.1865,6.5,7782,122,feet,jsons/VE125_randls_14_rotated.json,1042829,1227146,43,Man
59,477954,DepthScenes,duration_manipulation_targetAtFixation,jsons/VE125_randls_14_rotated.json,http://54.235.29.9/FacialAge/BNav_EC2/DepthDuration/v2_depth_duration_MTurk/v2_DepthDuration_HTML.html#170,170,1707,960,1707,960,8-29-2022,14-41-3,60,depth_duration_stimuli/000854_2014-06-09_19-43-13_260595134347_rgbf000066-resize_0/000854_2014-06-09_19-43-13_260595134347_rgbf000066-resize_0-target.png,125,3.068,5.0,9127,123,feet,jsons/VE125_randls_14_rotated.json,1042829,1227146,43,Man
60,477954,DepthScenes,duration_manipulation_targetAtFixation,jsons/VE125_randls_14_rotated.json,http://54.235.29.9/FacialAge/BNav_EC2/DepthDuration/v2_depth_duration_MTurk/v2_DepthDuration_HTML.html#170,170,1707,960,1707,960,8-29-2022,14-41-3,61,depth_duration_stimuli/000758_2014-06-08_22-05-08_260595134347_rgbf000085-resize_0/000758_2014-06-08_22-05-08_260595134347_rgbf000085-resize_0-target.png,125,3.3810000000000002,6.5,9682,124,feet,jsons/VE125_randls_14_rotated.json,1042829,1227146,43,Man
61,477954,DepthScenes,duration_manipulation_targetAtFixation,jsons/VE125_randls_14_rotated.json,http://54.235.29.9/FacialAge/BNav_EC2/DepthDuration/v2_depth_duration_MTurk/v2_DepthDuration_HTML.html#170,170,1707,960,1707,960,8-29-2022,14-41-3,62,depth_duration_stimuli/000665_2014-06-09_20-42-35_260595134347_rgbf000110-resize_1/000665_2014-06-09_20-42-35_260595134347_rgbf000110-resize_1-target.png,125,3.057,5.0,6687,123,feet,jsons/VE125_randls_14_rotated.json,1042829,1227146,43,Man
62,477954,DepthScenes,duration_manipulation_targetAtFixation,jsons/VE125_randls_14_rotated.json,http://54.235.29.9/FacialAge/BNav_EC2/DepthDuration/v2_depth_duration_MTurk/v2_DepthDuration_HTML.html#170,170,1707,960,1707,960,8-29-2022,14-41-3,63,depth_duration_stimuli/001150_2014-06-17_15-27-34_260595134347_rgbf000108-resize_2/001150_2014-06-17_15-27-34_260595134347_rgbf000108-resize_2-target.png,125,4.0325,6.5,7261,136,feet,jsons/VE125_randls_14_rotated.json,1042829,1227146,43,Man
63,477954,DepthScenes,duration_manipulation_targetAtFixation,jsons/VE125_randls_14_rotated.json,http://54.235.29.9/FacialAge/BNav_EC2/DepthDuration/v2_depth_duration_MTurk/v2_DepthDuration_HTML.html#170,170,1707,960,1707,960,8-29-2022,14-41-3,64,depth_duration_stimuli/000137_2014-05-20_17-04-49_260595134347_rgbf000120-resize_1/000137_2014-05-20_17-04-49_260595134347_rgbf000120-resize_1-target.png,125,3.786,6.5,8735,123,feet,jsons/VE125_randls_14_rotated.json,1042829,1227146,43,Man
64,477954,DepthScenes,duration_manipulation_targetAtFixation,jsons/VE125_randls_14_rotated.json,http://54.235.29.9/FacialAge/BNav_EC2/DepthDuration/v2_depth_duration_MTurk/v2_DepthDuration_HTML.html#170,170,1707,960,1707,960,8-29-2022,14-41-3,65,depth_duration_stimuli/000736_2014-06-08_18-24-15_260595134347_rgbf000206-resize_3/000736_2014-06-08_18-24-15_260595134347_rgbf000206-resize_3-target.png,125,3.515,5.0,5593,124,feet,jsons/VE125_randls_14_rotated.json,1042829,1227146,43,Man
65,477954,DepthScenes,duration_manipulation_targetAtFixation,jsons/VE125_randls_14_rotated.json,http://54.235.29.9/FacialAge/BNav_EC2/DepthDuration/v2_depth_duration_MTurk/v2_DepthDuration_HTML.html#170,170,1707,960,1707,960,8-29-2022,14-41-3,66,depth_duration_stimuli/001540_2014-06-20_17-01-05_260595134347_rgbf000086-resize_2/001540_2014-06-20_17-01-05_260595134347_rgbf000086-resize-original.jpg,125,1.459,0.0,2483,123,feet,jsons/VE125_randls_14_rotated.json,1042829,1227146,43,Man
66,477954,DepthScenes,duration_manipulation_targetAtFixation,jsons/VE125_randls_14_rotated.json,http://54.235.29.9/FacialAge/BNav_EC2/DepthDuration/v2_depth_duration_MTurk/v2_DepthDuration_HTML.html#170,170,1707,960,1707,960,8-29-2022,14-41-3,67,depth_duration_stimuli/002637_2014-06-24_14-51-13_094959634447_rgbf000066-resize_4/002637_2014-06-24_14-51-13_094959634447_rgbf000066-resize_4-target.png,125,1.9955,5.5,9397,124,feet,jsons/VE125_randls_14_rotated.json,1042829,1227146,43,Man
67,477954,DepthScenes,duration_manipulation_targetAtFixation,jsons/VE125_randls_14_rotated.json,http://54.235.29.9/FacialAge/BNav_EC2/DepthDuration/v2_depth_duration_MTurk/v2_DepthDuration_HTML.html#170,170,1707,960,1707,960,8-29-2022,14-41-3,68,depth_duration_stimuli/003534_2014-05-22_15-06-10_094959634447_rgbf000102-resize_4/003534_2014-05-22_15-06-10_094959634447_rgbf000102-resize_4-target.png,125,1.426,3.0,6061,122,feet,jsons/VE125_randls_14_rotated.json,1042829,1227146,43,Man
68,477954,DepthScenes,duration_manipulation_targetAtFixation,jsons/VE125_randls_14_rotated.json,http://54.235.29.9/FacialAge/BNav_EC2/DepthDuration/v2_depth_duration_MTurk/v2_DepthDuration_HTML.html#170,170,1707,960,1707,960,8-29-2022,14-41-3,69,depth_duration_stimuli/001052_2014-06-08_18-24-54_260595134347_rgbf000130-resize_1/001052_2014-06-08_18-24-54_260595134347_rgbf000130-resize_1-target.png,125,4.1045,7.0,6775,123,feet,jsons/VE125_randls_14_rotated.json,1042829,1227146,43,Man
69,477954,DepthScenes,duration_manipulation_targetAtFixation,jsons/VE125_randls_14_rotated.json,http://54.235.29.9/FacialAge/BNav_EC2/DepthDuration/v2_depth_duration_MTurk/v2_DepthDuration_HTML.html#170,170,1707,960,1707,960,8-29-2022,14-41-3,70,depth_duration_stimuli/002988_2014-06-15_12-24-20_094959634447_rgbf000150-resize_1/002988_2014-06-15_12-24-20_094959634447_rgbf000150-resize_1-target.png,125,4.7669999999999995,9.0,4594,125,feet,jsons/VE125_randls_14_rotated.json,1042829,1227146,43,Man
70,477954,DepthScenes,duration_manipulation_targetAtFixation,jsons/VE125_randls_14_rotated.json,http://54.235.29.9/FacialAge/BNav_EC2/DepthDuration/v2_depth_duration_MTurk/v2_DepthDuration_HTML.html#170,170,1707,960,1707,960,8-29-2022,14-41-3,71,depth_duration_stimuli/000677_2014-06-08_23-10-32_260595134347_rgbf000158-resize_6/000677_2014-06-08_23-10-32_260595134347_rgbf000158-resize_6-target.png,125,3.556,6.0,4948,124,feet,jsons/VE125_randls_14_rotated.json,1042829,1227146,43,Man
71,477954,DepthScenes,duration_manipulation_targetAtFixation,jsons/VE125_randls_14_rotated.json,http://54.235.29.9/FacialAge/BNav_EC2/DepthDuration/v2_depth_duration_MTurk/v2_DepthDuration_HTML.html#170,170,1707,960,1707,960,8-29-2022,14-41-3,72,depth_duration_stimuli/001029_2014-06-08_13-17-57_260595134347_rgbf000065-resize_1/001029_2014-06-08_13-17-57_260595134347_rgbf000065-resize_1-target.png,125,3.0835,6.5,7957,122,feet,jsons/VE125_randls_14_rotated.json,1042829,1227146,43,Man
72,477954,DepthScenes,duration_manipulation_targetAtFixation,jsons/VE125_randls_14_rotated.json,http://54.235.29.9/FacialAge/BNav_EC2/DepthDuration/v2_depth_duration_MTurk/v2_DepthDuration_HTML.html#170,170,1707,960,1707,960,8-29-2022,14-41-3,73,depth_duration_stimuli/000457_2014-06-08_16-52-43_260595134347_rgbf000199-resize_1/000457_2014-06-08_16-52-43_260595134347_rgbf000199-resize_1-target.png,125,3.6489999999999996,5.0,8809,124,feet,jsons/VE125_randls_14_rotated.json,1042829,1227146,43,Man
73,477954,DepthScenes,duration_manipulation_targetAtFixation,jsons/VE125_randls_14_rotated.json,http://54.235.29.9/FacialAge/BNav_EC2/DepthDuration/v2_depth_duration_MTurk/v2_DepthDuration_HTML.html#170,170,1707,960,1707,960,8-29-2022,14-41-3,74,depth_duration_stimuli/000929_2014-06-09_16-33-19_260595134347_rgbf000139-resize_0/000929_2014-06-09_16-33-19_260595134347_rgbf000139-resize_0-target.png,125,2.8680000000000003,5.5,6490,122,feet,jsons/VE125_randls_14_rotated.json,1042829,1227146,43,Man
74,477954,DepthScenes,duration_manipulation_targetAtFixation,jsons/VE125_randls_14_rotated.json,http://54.235.29.9/FacialAge/BNav_EC2/DepthDuration/v2_depth_duration_MTurk/v2_DepthDuration_HTML.html#170,170,1707,960,1707,960,8-29-2022,14-41-3,75,depth_duration_stimuli/002678_2014-06-13_16-15-32_094959634447_rgbf000151-resize_6/002678_2014-06-13_16-15-32_094959634447_rgbf000151-resize_6-target.png,125,2.1830000000000003,5.0,10297,122,feet,jsons/VE125_randls_14_rotated.json,1042829,1227146,43,Man
75,477954,DepthScenes,duration_manipulation_targetAtFixation,jsons/VE125_randls_14_rotated.json,http://54.235.29.9/FacialAge/BNav_EC2/DepthDuration/v2_depth_duration_MTurk/v2_DepthDuration_HTML.html#170,170,1707,960,1707,960,8-29-2022,14-41-3,76,depth_duration_stimuli/000368_2014-06-09_15-53-01_260595134347_rgbf000155-resize_2/000368_2014-06-09_15-53-01_260595134347_rgbf000155-resize_2-target.png,125,2.4859999999999998,6.0,9571,124,feet,jsons/VE125_randls_14_rotated.json,1042829,1227146,43,Man
76,477954,DepthScenes,duration_manipulation_targetAtFixation,jsons/VE125_randls_14_rotated.json,http://54.235.29.9/FacialAge/BNav_EC2/DepthDuration/v2_depth_duration_MTurk/v2_DepthDuration_HTML.html#170,170,1707,960,1707,960,8-29-2022,14-41-3,77,depth_duration_stimuli/000556_2014-06-09_22-42-56_260595134347_rgbf000214-resize_1/000556_2014-06-09_22-42-56_260595134347_rgbf000214-resize_1-target.png,125,4.8415,6.5,10463,124,feet,jsons/VE125_randls_14_rotated.json,1042829,1227146,43,Man
77,477954,DepthScenes,duration_manipulation_targetAtFixation,jsons/VE125_randls_14_rotated.json,http://54.235.29.9/FacialAge/BNav_EC2/DepthDuration/v2_depth_duration_MTurk/v2_DepthDuration_HTML.html#170,170,1707,960,1707,960,8-29-2022,14-41-3,78,depth_duration_stimuli/001158_2014-06-17_15-32-16_260595134347_rgbf000138-resize_2/001158_2014-06-17_15-32-16_260595134347_rgbf000138-resize_2-target.png,125,4.5315,8.5,5696,123,feet,jsons/VE125_randls_14_rotated.json,1042829,1227146,43,Man
78,477954,DepthScenes,duration_manipulation_targetAtFixation,jsons/VE125_randls_14_rotated.json,http://54.235.29.9/FacialAge/BNav_EC2/DepthDuration/v2_depth_duration_MTurk/v2_DepthDuration_HTML.html#170,170,1707,960,1707,960,8-29-2022,14-41-3,79,depth_duration_stimuli/001136_2014-06-17_15-19-41_260595134347_rgbf000076-resize_3/001136_2014-06-17_15-19-41_260595134347_rgbf000076-resize_3-target.png,125,1.8655,3.0,5687,139,feet,jsons/VE125_randls_14_rotated.json,1042829,1227146,43,Man
79,477954,DepthScenes,duration_manipulation_targetAtFixation,jsons/VE125_randls_14_rotated.json,http://54.235.29.9/FacialAge/BNav_EC2/DepthDuration/v2_depth_duration_MTurk/v2_DepthDuration_HTML.html#170,170,1707,960,1707,960,8-29-2022,14-41-3,80,depth_duration_stimuli/001164_2014-06-17_15-35-46_260595134347_rgbf000085-resize_3/001164_2014-06-17_15-35-46_260595134347_rgbf000085-resize_3-target.png,125,2.354,3.5,16355,124,feet,jsons/VE125_randls_14_rotated.json,1042829,1227146,43,Man
80,477954,DepthScenes,duration_manipulation_targetAtFixation,jsons/VE125_randls_14_rotated.json,http://54.235.29.9/FacialAge/BNav_EC2/DepthDuration/v2_depth_duration_MTurk/v2_DepthDuration_HTML.html#170,170,1707,960,1707,960,8-29-2022,14-41-3,81,depth_duration_stimuli/003129_2014-05-12_10-48-10_094959634447_rgbf000100-resize_0/003129_2014-05-12_10-48-10_094959634447_rgbf000100-resize_0-target.png,125,4.9305,7.0,4042,123,feet,jsons/VE125_randls_14_rotated.json,1042829,1227146,43,Man
81,477954,DepthScenes,duration_manipulation_targetAtFixation,jsons/VE125_randls_14_rotated.json,http://54.235.29.9/FacialAge/BNav_EC2/DepthDuration/v2_depth_duration_MTurk/v2_DepthDuration_HTML.html#170,170,1707,960,1707,960,8-29-2022,14-41-3,82,depth_duration_stimuli/000414_2014-06-04_19-49-13_260595134347_rgbf000044-resize_0/000414_2014-06-04_19-49-13_260595134347_rgbf000044-resize_0-target.png,125,4.329,9.0,4469,124,feet,jsons/VE125_randls_14_rotated.json,1042829,1227146,43,Man
82,477954,DepthScenes,duration_manipulation_targetAtFixation,jsons/VE125_randls_14_rotated.json,http://54.235.29.9/FacialAge/BNav_EC2/DepthDuration/v2_depth_duration_MTurk/v2_DepthDuration_HTML.html#170,170,1707,960,1707,960,8-29-2022,14-41-3,83,depth_duration_stimuli/000943_2014-06-09_19-31-07_260595134347_rgbf000128-resize_1/000943_2014-06-09_19-31-07_260595134347_rgbf000128-resize_1-target.png,125,1.9765,4.0,6758,123,feet,jsons/VE125_randls_14_rotated.json,1042829,1227146,43,Man
83,477954,DepthScenes,duration_manipulation_targetAtFixation,jsons/VE125_randls_14_rotated.json,http://54.235.29.9/FacialAge/BNav_EC2/DepthDuration/v2_depth_duration_MTurk/v2_DepthDuration_HTML.html#170,170,1707,960,1707,960,8-29-2022,14-41-3,84,depth_duration_stimuli/003070_2014-06-15_14-58-27_094959634447_rgbf000150-resize_3/003070_2014-06-15_14-58-27_094959634447_rgbf000150-resize_3-target.png,125,2.9415,5.5,9095,124,feet,jsons/VE125_randls_14_rotated.json,1042829,1227146,43,Man
84,477954,DepthScenes,duration_manipulation_targetAtFixation,jsons/VE125_randls_14_rotated.json,http://54.235.29.9/FacialAge/BNav_EC2/DepthDuration/v2_depth_duration_MTurk/v2_DepthDuration_HTML.html#170,170,1707,960,1707,960,8-29-2022,14-41-3,85,depth_duration_stimuli/003079_2014-06-15_15-18-20_094959634447_rgbf000152-resize_8/003079_2014-06-15_15-18-20_094959634447_rgbf000152-resize_8-target.png,125,2.8775,5.5,9250,124,feet,jsons/VE125_randls_14_rotated.json,1042829,1227146,43,Man
85,477954,DepthScenes,duration_manipulation_targetAtFixation,jsons/VE125_randls_14_rotated.json,http://54.235.29.9/FacialAge/BNav_EC2/DepthDuration/v2_depth_duration_MTurk/v2_DepthDuration_HTML.html#170,170,1707,960,1707,960,8-29-2022,14-41-3,86,depth_duration_stimuli/000506_2014-06-08_23-21-00_260595134347_rgbf000070-resize_7/000506_2014-06-08_23-21-00_260595134347_rgbf000070-resize_7-target.png,125,4.0585,6.5,9095,139,feet,jsons/VE125_randls_14_rotated.json,1042829,1227146,43,Man
86,477954,DepthScenes,duration_manipulation_targetAtFixation,jsons/VE125_randls_14_rotated.json,http://54.235.29.9/FacialAge/BNav_EC2/DepthDuration/v2_depth_duration_MTurk/v2_DepthDuration_HTML.html#170,170,1707,960,1707,960,8-29-2022,14-41-3,87,depth_duration_stimuli/001392_2014-06-19_16-07-59_260595134347_rgbf000046-resize_1/001392_2014-06-19_16-07-59_260595134347_rgbf000046-resize_1-target.png,125,4.135,8.0,7350,123,feet,jsons/VE125_randls_14_rotated.json,1042829,1227146,43,Man
87,477954,DepthScenes,duration_manipulation_targetAtFixation,jsons/VE125_randls_14_rotated.json,http://54.235.29.9/FacialAge/BNav_EC2/DepthDuration/v2_depth_duration_MTurk/v2_DepthDuration_HTML.html#170,170,1707,960,1707,960,8-29-2022,14-41-3,88,depth_duration_stimuli/001570_2014-06-20_17-21-09_260595134347_rgbf000135-resize_4/001570_2014-06-20_17-21-09_260595134347_rgbf000135-resize_4-target.png,125,4.467,7.5,7627,122,feet,jsons/VE125_randls_14_rotated.json,1042829,1227146,43,Man
88,477954,DepthScenes,duration_manipulation_targetAtFixation,jsons/VE125_randls_14_rotated.json,http://54.235.29.9/FacialAge/BNav_EC2/DepthDuration/v2_depth_duration_MTurk/v2_DepthDuration_HTML.html#170,170,1707,960,1707,960,8-29-2022,14-41-3,89,depth_duration_stimuli/002639_2014-06-24_14-51-37_094959634447_rgbf000074-resize_4/002639_2014-06-24_14-51-37_094959634447_rgbf000074-resize_4-target.png,125,4.0375,7.0,9718,124,feet,jsons/VE125_randls_14_rotated.json,1042829,1227146,43,Man
89,477954,DepthScenes,duration_manipulation_targetAtFixation,jsons/VE125_randls_14_rotated.json,http://54.235.29.9/FacialAge/BNav_EC2/DepthDuration/v2_depth_duration_MTurk/v2_DepthDuration_HTML.html#170,170,1707,960,1707,960,8-29-2022,14-41-3,90,depth_duration_stimuli/003292_2014-05-14_21-53-49_094959634447_rgbf000100-resize_2/003292_2014-05-14_21-53-49_094959634447_rgbf000100-resize_2-target.png,125,3.4815,5.0,8465,123,feet,jsons/VE125_randls_14_rotated.json,1042829,1227146,43,Man
90,477954,DepthScenes,duration_manipulation_targetAtFixation,jsons/VE125_randls_14_rotated.json,http://54.235.29.9/FacialAge/BNav_EC2/DepthDuration/v2_depth_duration_MTurk/v2_DepthDuration_HTML.html#170,170,1707,960,1707,960,8-29-2022,14-41-3,91,depth_duration_stimuli/000749_2014-06-08_21-55-06_260595134347_rgbf000070-resize_2/000749_2014-06-08_21-55-06_260595134347_rgbf000070-resize_2-target.png,125,2.331,5.5,6314,122,feet,jsons/VE125_randls_14_rotated.json,1042829,1227146,43,Man
91,477954,DepthScenes,duration_manipulation_targetAtFixation,jsons/VE125_randls_14_rotated.json,http://54.235.29.9/FacialAge/BNav_EC2/DepthDuration/v2_depth_duration_MTurk/v2_DepthDuration_HTML.html#170,170,1707,960,1707,960,8-29-2022,14-41-3,92,depth_duration_stimuli/002788_2014-06-22_19-36-03_094959634447_rgbf000088-resize_2/002788_2014-06-22_19-36-03_094959634447_rgbf000088-resize_2-target.png,125,1.6465,5.0,6411,123,feet,jsons/VE125_randls_14_rotated.json,1042829,1227146,43,Man
92,477954,DepthScenes,duration_manipulation_targetAtFixation,jsons/VE125_randls_14_rotated.json,http://54.235.29.9/FacialAge/BNav_EC2/DepthDuration/v2_depth_duration_MTurk/v2_DepthDuration_HTML.html#170,170,1707,960,1707,960,8-29-2022,14-41-3,93,depth_duration_stimuli/001094_2014-06-15_17-36-00_260595134347_rgbf000205-resize_0/001094_2014-06-15_17-36-00_260595134347_rgbf000205-resize_0-target.png,125,4.2175,8.0,6701,122,feet,jsons/VE125_randls_14_rotated.json,1042829,1227146,43,Man
93,477954,DepthScenes,duration_manipulation_targetAtFixation,jsons/VE125_randls_14_rotated.json,http://54.235.29.9/FacialAge/BNav_EC2/DepthDuration/v2_depth_duration_MTurk/v2_DepthDuration_HTML.html#170,170,1707,960,1707,960,8-29-2022,14-41-3,94,depth_duration_stimuli/000692_2014-06-08_13-09-42_260595134347_rgbf000199-resize_2/000692_2014-06-08_13-09-42_260595134347_rgbf000199-resize_2-target.png,125,3.661,10.0,4595,124,feet,jsons/VE125_randls_14_rotated.json,1042829,1227146,43,Man
94,477954,DepthScenes,duration_manipulation_targetAtFixation,jsons/VE125_randls_14_rotated.json,http://54.235.29.9/FacialAge/BNav_EC2/DepthDuration/v2_depth_duration_MTurk/v2_DepthDuration_HTML.html#170,170,1707,960,1707,960,8-29-2022,14-41-3,95,depth_duration_stimuli/002199_2014-06-28_18-33-56_260595134347_rgbf000074-resize_0/002199_2014-06-28_18-33-56_260595134347_rgbf000074-resize_0-target.png,125,1.996,2.0,3436,125,feet,jsons/VE125_randls_14_rotated.json,1042829,1227146,43,Man
95,477954,DepthScenes,duration_manipulation_targetAtFixation,jsons/VE125_randls_14_rotated.json,http://54.235.29.9/FacialAge/BNav_EC2/DepthDuration/v2_depth_duration_MTurk/v2_DepthDuration_HTML.html#170,170,1707,960,1707,960,8-29-2022,14-41-3,96,depth_duration_stimuli/001056_2014-06-08_18-46-44_260595134347_rgbf000068-resize_0/001056_2014-06-08_18-46-44_260595134347_rgbf000068-resize_0-target.png,125,2.6625,6.5,4128,124,feet,jsons/VE125_randls_14_rotated.json,1042829,1227146,43,Man
96,477954,DepthScenes,duration_manipulation_targetAtFixation,jsons/VE125_randls_14_rotated.json,http://54.235.29.9/FacialAge/BNav_EC2/DepthDuration/v2_depth_duration_MTurk/v2_DepthDuration_HTML.html#170,170,1707,960,1707,960,8-29-2022,14-41-3,97,depth_duration_stimuli/003338_2014-05-20_11-01-23_094959634447_rgbf000051-resize_6/003338_2014-05-20_11-01-23_094959634447_rgbf000051-resize_6-target.png,125,1.693,3.0,4504,123,feet,jsons/VE125_randls_14_rotated.json,1042829,1227146,43,Man
97,477954,DepthScenes,duration_manipulation_targetAtFixation,jsons/VE125_randls_14_rotated.json,http://54.235.29.9/FacialAge/BNav_EC2/DepthDuration/v2_depth_duration_MTurk/v2_DepthDuration_HTML.html#170,170,1707,960,1707,960,8-29-2022,14-41-3,98,depth_duration_stimuli/002509_2014-06-24_13-19-22_094959634447_rgbf000077-resize_0/002509_2014-06-24_13-19-22_094959634447_rgbf000077-resize_0-target.png,125,1.3065,2.5,4798,123,feet,jsons/VE125_randls_14_rotated.json,1042829,1227146,43,Man
98,477954,DepthScenes,duration_manipulation_targetAtFixation,jsons/VE125_randls_14_rotated.json,http://54.235.29.9/FacialAge/BNav_EC2/DepthDuration/v2_depth_duration_MTurk/v2_DepthDuration_HTML.html#170,170,1707,960,1707,960,8-29-2022,14-41-3,99,depth_duration_stimuli/001222_2014-06-17_16-24-06_260595134347_rgbf000073-resize_0/001222_2014-06-17_16-24-06_260595134347_rgbf000073-resize-original.jpg,125,1.4385,0.0,2086,124,feet,jsons/VE125_randls_14_rotated.json,1042829,1227146,43,Man
99,477954,DepthScenes,duration_manipulation_targetAtFixation,jsons/VE125_randls_14_rotated.json,http://54.235.29.9/FacialAge/BNav_EC2/DepthDuration/v2_depth_duration_MTurk/v2_DepthDuration_HTML.html#170,170,1707,960,1707,960,8-29-2022,14-41-3,100,depth_duration_stimuli/000109_2014-05-14_23-41-52_260595134347_rgbf000035-resize_9/000109_2014-05-14_23-41-52_260595134347_rgbf000035-resize_9-target.png,125,1.3545,3.0,5095,123,feet,jsons/VE125_randls_14_rotated.json,1042829,1227146,43,Man
100,477954,DepthScenes,duration_manipulation_targetAtFixation,jsons/VE125_randls_14_rotated.json,http://54.235.29.9/FacialAge/BNav_EC2/DepthDuration/v2_depth_duration_MTurk/v2_DepthDuration_HTML.html#170,170,1707,960,1707,960,8-29-2022,14-41-3,101,depth_duration_stimuli/000470_2014-06-09_19-42-40_260595134347_rgbf000094-resize_1/000470_2014-06-09_19-42-40_260595134347_rgbf000094-resize_1-target.png,125,1.831,3.0,3820,122,feet,jsons/VE125_randls_14_rotated.json,1042829,1227146,43,Man
101,477954,DepthScenes,duration_manipulation_targetAtFixation,jsons/VE125_randls_14_rotated.json,http://54.235.29.9/FacialAge/BNav_EC2/DepthDuration/v2_depth_duration_MTurk/v2_DepthDuration_HTML.html#170,170,1707,960,1707,960,8-29-2022,14-41-3,102,depth_duration_stimuli/002805_2014-06-22_19-54-03_094959634447_rgbf000079-resize_1/002805_2014-06-22_19-54-03_094959634447_rgbf000079-resize_1-target.png,125,3.1439999999999997,6.0,3211,122,feet,jsons/VE125_randls_14_rotated.json,1042829,1227146,43,Man
102,477954,DepthScenes,duration_manipulation_targetAtFixation,jsons/VE125_randls_14_rotated.json,http://54.235.29.9/FacialAge/BNav_EC2/DepthDuration/v2_depth_duration_MTurk/v2_DepthDuration_HTML.html#170,170,1707,960,1707,960,8-29-2022,14-41-3,103,depth_duration_stimuli/000906_2014-06-08_13-35-43_260595134347_rgbf000155-resize_1/000906_2014-06-08_13-35-43_260595134347_rgbf000155-resize_1-target.png,125,2.8489999999999998,7.0,5159,138,feet,jsons/VE125_randls_14_rotated.json,1042829,1227146,43,Man
103,477954,DepthScenes,duration_manipulation_targetAtFixation,jsons/VE125_randls_14_rotated.json,http://54.235.29.9/FacialAge/BNav_EC2/DepthDuration/v2_depth_duration_MTurk/v2_DepthDuration_HTML.html#170,170,1707,960,1707,960,8-29-2022,14-41-3,104,depth_duration_stimuli/000709_2014-06-08_13-51-55_260595134347_rgbf000068-resize_3/000709_2014-06-08_13-51-55_260595134347_rgbf000068-resize_3-target.png,125,1.8030000000000002,3.5,7199,124,feet,jsons/VE125_randls_14_rotated.json,1042829,1227146,43,Man
104,477954,DepthScenes,duration_manipulation_targetAtFixation,jsons/VE125_randls_14_rotated.json,http://54.235.29.9/FacialAge/BNav_EC2/DepthDuration/v2_depth_duration_MTurk/v2_DepthDuration_HTML.html#170,170,1707,960,1707,960,8-29-2022,14-41-3,105,depth_duration_stimuli/002057_2014-06-24_21-00-13_260595134347_rgbf000120-resize_1/002057_2014-06-24_21-00-13_260595134347_rgbf000120-resize_1-target.png,125,2.967,7.5,5679,124,feet,jsons/VE125_randls_14_rotated.json,1042829,1227146,43,Man
105,477954,DepthScenes,duration_manipulation_targetAtFixation,jsons/VE125_randls_14_rotated.json,http://54.235.29.9/FacialAge/BNav_EC2/DepthDuration/v2_depth_duration_MTurk/v2_DepthDuration_HTML.html#170,170,1707,960,1707,960,8-29-2022,14-41-3,106,depth_duration_stimuli/003228_2014-05-14_13-42-35_094959634447_rgbf000101-resize_1/003228_2014-05-14_13-42-35_094959634447_rgbf000101-resize_1-target.png,125,1.9680000000000002,3.0,3745,122,feet,jsons/VE125_randls_14_rotated.json,1042829,1227146,43,Man
106,477954,DepthScenes,duration_manipulation_targetAtFixation,jsons/VE125_randls_14_rotated.json,http://54.235.29.9/FacialAge/BNav_EC2/DepthDuration/v2_depth_duration_MTurk/v2_DepthDuration_HTML.html#170,170,1707,960,1707,960,8-29-2022,14-41-3,107,depth_duration_stimuli/002600_2014-06-24_14-27-04_094959634447_rgbf000074-resize_2/002600_2014-06-24_14-27-04_094959634447_rgbf000074-resize_2-target.png,125,2.7575,6.5,4349,125,feet,jsons/VE125_randls_14_rotated.json,1042829,1227146,43,Man
107,477954,DepthScenes,duration_manipulation_targetAtFixation,jsons/VE125_randls_14_rotated.json,http://54.235.29.9/FacialAge/BNav_EC2/DepthDuration/v2_depth_duration_MTurk/v2_DepthDuration_HTML.html#170,170,1707,960,1707,960,8-29-2022,14-41-3,108,depth_duration_stimuli/003423_2014-05-21_10-23-26_094959634447_rgbf002665-resize_2/003423_2014-05-21_10-23-26_094959634447_rgbf002665-resize_2-target.png,125,3.2575,9.0,3427,123,feet,jsons/VE125_randls_14_rotated.json,1042829,1227146,43,Man
108,477954,DepthScenes,duration_manipulation_targetAtFixation,jsons/VE125_randls_14_rotated.json,http://54.235.29.9/FacialAge/BNav_EC2/DepthDuration/v2_depth_duration_MTurk/v2_DepthDuration_HTML.html#170,170,1707,960,1707,960,8-29-2022,14-41-3,109,depth_duration_stimuli/002905_2014-06-03_18-04-43_094959634447_rgbf000151-resize_2/002905_2014-06-03_18-04-43_094959634447_rgbf000151-resize_2-target.png,125,2.0295,6.0,7713,123,feet,jsons/VE125_randls_14_rotated.json,1042829,1227146,43,Man
109,477954,DepthScenes,duration_manipulation_targetAtFixation,jsons/VE125_randls_14_rotated.json,http://54.235.29.9/FacialAge/BNav_EC2/DepthDuration/v2_depth_duration_MTurk/v2_DepthDuration_HTML.html#170,170,1707,960,1707,960,8-29-2022,14-41-3,110,depth_duration_stimuli/001571_2014-06-20_17-21-32_260595134347_rgbf000089-resize_1/001571_2014-06-20_17-21-32_260595134347_rgbf000089-resize_1-target.png,125,1.86,5.0,2968,124,feet,jsons/VE125_randls_14_rotated.json,1042829,1227146,43,Man
110,477954,DepthScenes,duration_manipulation_targetAtFixation,jsons/VE125_randls_14_rotated.json,http://54.235.29.9/FacialAge/BNav_EC2/DepthDuration/v2_depth_duration_MTurk/v2_DepthDuration_HTML.html#170,170,1707,960,1707,960,8-29-2022,14-41-3,111,depth_duration_stimuli/002272_2014-06-28_18-53-56_260595134347_rgbf000067-resize_2/002272_2014-06-28_18-53-56_260595134347_rgbf000067-resize_2-target.png,125,1.138,2.5,5178,123,feet,jsons/VE125_randls_14_rotated.json,1042829,1227146,43,Man
111,477954,DepthScenes,duration_manipulation_targetAtFixation,jsons/VE125_randls_14_rotated.json,http://54.235.29.9/FacialAge/BNav_EC2/DepthDuration/v2_depth_duration_MTurk/v2_DepthDuration_HTML.html#170,170,1707,960,1707,960,8-29-2022,14-41-3,112,depth_duration_stimuli/001828_2014-06-26_21-40-03_260595134347_rgbf000024-resize_0/001828_2014-06-26_21-40-03_260595134347_rgbf000024-resize_0-target.png,125,4.8260000000000005,6.0,5739,124,feet,jsons/VE125_randls_14_rotated.json,1042829,1227146,43,Man
112,477954,DepthScenes,duration_manipulation_targetAtFixation,jsons/VE125_randls_14_rotated.json,http://54.235.29.9/FacialAge/BNav_EC2/DepthDuration/v2_depth_duration_MTurk/v2_DepthDuration_HTML.html#170,170,1707,960,1707,960,8-29-2022,14-41-3,113,depth_duration_stimuli/000009_2014-05-26_14-32-05_260595134347_rgbf000034-resize_3/000009_2014-05-26_14-32-05_260595134347_rgbf000034-resize_3-target.png,125,3.8715,9.5,4409,122,feet,jsons/VE125_randls_14_rotated.json,1042829,1227146,43,Man
113,477954,DepthScenes,duration_manipulation_targetAtFixation,jsons/VE125_randls_14_rotated.json,http://54.235.29.9/FacialAge/BNav_EC2/DepthDuration/v2_depth_duration_MTurk/v2_DepthDuration_HTML.html#170,170,1707,960,1707,960,8-29-2022,14-41-3,114,depth_duration_stimuli/002414_2014-06-28_20-24-58_260595134347_rgbf000067-resize_4/002414_2014-06-28_20-24-58_260595134347_rgbf000067-resize_4-target.png,125,4.363,9.0,3497,123,feet,jsons/VE125_randls_14_rotated.json,1042829,1227146,43,Man
114,477954,DepthScenes,duration_manipulation_targetAtFixation,jsons/VE125_randls_14_rotated.json,http://54.235.29.9/FacialAge/BNav_EC2/DepthDuration/v2_depth_duration_MTurk/v2_DepthDuration_HTML.html#170,170,1707,960,1707,960,8-29-2022,14-41-3,115,depth_duration_stimuli/000773_2014-06-08_22-24-54_260595134347_rgbf000093-resize_1/000773_2014-06-08_22-24-54_260595134347_rgbf000093-resize_1-target.png,125,4.973,7.0,3474,125,feet,jsons/VE125_randls_14_rotated.json,1042829,1227146,43,Man
115,477954,DepthScenes,duration_manipulation_targetAtFixation,jsons/VE125_randls_14_rotated.json,http://54.235.29.9/FacialAge/BNav_EC2/DepthDuration/v2_depth_duration_MTurk/v2_DepthDuration_HTML.html#170,170,1707,960,1707,960,8-29-2022,14-41-3,116,depth_duration_stimuli/001100_2014-06-15_17-46-26_260595134347_rgbf000225-resize_2/001100_2014-06-15_17-46-26_260595134347_rgbf000225-resize_2-target.png,125,2.24,3.5,4164,139,feet,jsons/VE125_randls_14_rotated.json,1042829,1227146,43,Man
116,477954,DepthScenes,duration_manipulation_targetAtFixation,jsons/VE125_randls_14_rotated.json,http://54.235.29.9/FacialAge/BNav_EC2/DepthDuration/v2_depth_duration_MTurk/v2_DepthDuration_HTML.html#170,170,1707,960,1707,960,8-29-2022,14-41-3,117,depth_duration_stimuli/002784_2014-06-22_19-26-30_094959634447_rgbf000083-resize_3/002784_2014-06-22_19-26-30_094959634447_rgbf000083-resize_3-target.png,125,1.8046666666667,3.0,2666,122,feet,jsons/VE125_randls_14_rotated.json,1042829,1227146,43,Man
117,477954,DepthScenes,duration_manipulation_targetAtFixation,jsons/VE125_randls_14_rotated.json,http://54.235.29.9/FacialAge/BNav_EC2/DepthDuration/v2_depth_duration_MTurk/v2_DepthDuration_HTML.html#170,170,1707,960,1707,960,8-29-2022,14-41-3,118,depth_duration_stimuli/000635_2014-06-08_16-38-42_260595134347_rgbf000106-resize_1/000635_2014-06-08_16-38-42_260595134347_rgbf000106-resize_1-target.png,125,2.074,3.5,4137,124,feet,jsons/VE125_randls_14_rotated.json,1042829,1227146,43,Man
118,477954,DepthScenes,duration_manipulation_targetAtFixation,jsons/VE125_randls_14_rotated.json,http://54.235.29.9/FacialAge/BNav_EC2/DepthDuration/v2_depth_duration_MTurk/v2_DepthDuration_HTML.html#170,170,1707,960,1707,960,8-29-2022,14-41-3,119,depth_duration_stimuli/002279_2014-06-28_18-55-32_260595134347_rgbf000040-resize_5/002279_2014-06-28_18-55-32_260595134347_rgbf000040-resize_5-target.png,125,1.5043333333333,3.0,3306,124,feet,jsons/VE125_randls_14_rotated.json,1042829,1227146,43,Man
119,477954,DepthScenes,duration_manipulation_targetAtFixation,jsons/VE125_randls_14_rotated.json,http://54.235.29.9/FacialAge/BNav_EC2/DepthDuration/v2_depth_duration_MTurk/v2_DepthDuration_HTML.html#170,170,1707,960,1707,960,8-29-2022,14-41-3,120,depth_duration_stimuli/000787_2014-06-08_22-33-53_260595134347_rgbf000175-resize_1/000787_2014-06-08_22-33-53_260595134347_rgbf000175-resize-original.jpg,125,4.784,0.0,1761,124,feet,jsons/VE125_randls_14_rotated.json,1042829,1227146,43,Man
120,477954,DepthScenes,duration_manipulation_targetAtFixation,jsons/VE125_randls_14_rotated.json,http://54.235.29.9/FacialAge/BNav_EC2/DepthDuration/v2_depth_duration_MTurk/v2_DepthDuration_HTML.html#170,170,1707,960,1707,960,8-29-2022,14-41-3,121,depth_duration_stimuli/002758_2014-06-22_19-11-20_094959634447_rgbf000128-resize_1/002758_2014-06-22_19-11-20_094959634447_rgbf000128-resize_1-target.png,125,2.555,4.0,5295,124,feet,jsons/VE125_randls_14_rotated.json,1042829,1227146,43,Man
121,477954,DepthScenes,duration_manipulation_targetAtFixation,jsons/VE125_randls_14_rotated.json,http://54.235.29.9/FacialAge/BNav_EC2/DepthDuration/v2_depth_duration_MTurk/v2_DepthDuration_HTML.html#170,170,1707,960,1707,960,8-29-2022,14-41-3,122,depth_duration_stimuli/002630_2014-06-24_14-47-50_094959634447_rgbf000055-resize_1/002630_2014-06-24_14-47-50_094959634447_rgbf000055-resize_1-target.png,125,3.0095,7.5,5950,124,feet,jsons/VE125_randls_14_rotated.json,1042829,1227146,43,Man
122,477954,DepthScenes,duration_manipulation_targetAtFixation,jsons/VE125_randls_14_rotated.json,http://54.235.29.9/FacialAge/BNav_EC2/DepthDuration/v2_depth_duration_MTurk/v2_DepthDuration_HTML.html#170,170,1707,960,1707,960,8-29-2022,14-41-3,123,depth_duration_stimuli/003495_2014-05-21_16-01-51_094959634447_rgbf000100-resize_3/003495_2014-05-21_16-01-51_094959634447_rgbf000100-resize_3-target.png,125,1.6255,4.0,2658,124,feet,jsons/VE125_randls_14_rotated.json,1042829,1227146,43,Man
123,477954,DepthScenes,duration_manipulation_targetAtFixation,jsons/VE125_randls_14_rotated.json,http://54.235.29.9/FacialAge/BNav_EC2/DepthDuration/v2_depth_duration_MTurk/v2_DepthDuration_HTML.html#170,170,1707,960,1707,960,8-29-2022,14-41-3,124,depth_duration_stimuli/001244_2014-06-17_16-47-45_260595134347_rgbf000030-resize_4/001244_2014-06-17_16-47-45_260595134347_rgbf000030-resize_4-target.png,125,2.0425,4.0,2941,138,feet,jsons/VE125_randls_14_rotated.json,1042829,1227146,43,Man
124,477954,DepthScenes,duration_manipulation_targetAtFixation,jsons/VE125_randls_14_rotated.json,http://54.235.29.9/FacialAge/BNav_EC2/DepthDuration/v2_depth_duration_MTurk/v2_DepthDuration_HTML.html#170,170,1707,960,1707,960,8-29-2022,14-41-3,125,depth_duration_stimuli/000927_2014-06-09_16-32-30_260595134347_rgbf000123-resize_3/000927_2014-06-09_16-32-30_260595134347_rgbf000123-resize_3-target.png,125,2.6785,6.0,3336,122,feet,jsons/VE125_randls_14_rotated.json,1042829,1227146,43,Man
125,477954,DepthScenes,duration_manipulation_targetAtFixation,jsons/VE125_randls_14_rotated.json,http://54.235.29.9/FacialAge/BNav_EC2/DepthDuration/v2_depth_duration_MTurk/v2_DepthDuration_HTML.html#170,170,1707,960,1707,960,8-29-2022,14-41-3,126,depth_duration_stimuli/001110_2014-06-15_17-25-28_260595134347_rgbf000150-resize_1/001110_2014-06-15_17-25-28_260595134347_rgbf000150-resize_1-target.png,125,1.7115,5.0,5074,124,feet,jsons/VE125_randls_14_rotated.json,1042829,1227146,43,Man
126,477954,DepthScenes,duration_manipulation_targetAtFixation,jsons/VE125_randls_14_rotated.json,http://54.235.29.9/FacialAge/BNav_EC2/DepthDuration/v2_depth_duration_MTurk/v2_DepthDuration_HTML.html#170,170,1707,960,1707,960,8-29-2022,14-41-3,127,depth_duration_stimuli/002444_2014-06-28_20-32-08_260595134347_rgbf000027-resize_0/002444_2014-06-28_20-32-08_260595134347_rgbf000027-resize_0-target.png,125,4.388999999999999,7.0,5511,123,feet,jsons/VE125_randls_14_rotated.json,1042829,1227146,43,Man
127,477954,DepthScenes,duration_manipulation_targetAtFixation,jsons/VE125_randls_14_rotated.json,http://54.235.29.9/FacialAge/BNav_EC2/DepthDuration/v2_depth_duration_MTurk/v2_DepthDuration_HTML.html#170,170,1707,960,1707,960,8-29-2022,14-41-3,128,depth_duration_stimuli/000436_2014-06-09_22-25-11_260595134347_rgbf000137-resize_1/000436_2014-06-09_22-25-11_260595134347_rgbf000137-resize_1-target.png,125,4.0705,9.0,3092,122,feet,jsons/VE125_randls_14_rotated.json,1042829,1227146,43,Man
128,477954,DepthScenes,duration_manipulation_targetAtFixation,jsons/VE125_randls_14_rotated.json,http://54.235.29.9/FacialAge/BNav_EC2/DepthDuration/v2_depth_duration_MTurk/v2_DepthDuration_HTML.html#170,170,1707,960,1707,960,8-29-2022,14-41-3,129,depth_duration_stimuli/000103_2014-05-14_22-01-17_260595134347_rgbf000152-resize_5/000103_2014-05-14_22-01-17_260595134347_rgbf000152-resize_5-target.png,125,1.993,6.0,3025,123,feet,jsons/VE125_randls_14_rotated.json,1042829,1227146,43,Man
129,477954,DepthScenes,duration_manipulation_targetAtFixation,jsons/VE125_randls_14_rotated.json,http://54.235.29.9/FacialAge/BNav_EC2/DepthDuration/v2_depth_duration_MTurk/v2_DepthDuration_HTML.html#170,170,1707,960,1707,960,8-29-2022,14-41-3,130,depth_duration_stimuli/001555_2014-06-20_17-12-10_260595134347_rgbf000065-resize_4/001555_2014-06-20_17-12-10_260595134347_rgbf000065-resize_4-target.png,125,1.633,4.0,1980,122,feet,jsons/VE125_randls_14_rotated.json,1042829,1227146,43,Man
130,477954,DepthScenes,duration_manipulation_targetAtFixation,jsons/VE125_randls_14_rotated.json,http://54.235.29.9/FacialAge/BNav_EC2/DepthDuration/v2_depth_duration_MTurk/v2_DepthDuration_HTML.html#170,170,1707,960,1707,960,8-29-2022,14-41-3,131,depth_duration_stimuli/001032_2014-06-08_13-23-17_260595134347_rgbf000021-resize_3/001032_2014-06-08_13-23-17_260595134347_rgbf000021-resize_3-target.png,125,3.2725,4.0,3287,124,feet,jsons/VE125_randls_14_rotated.json,1042829,1227146,43,Man
131,477954,DepthScenes,duration_manipulation_targetAtFixation,jsons/VE125_randls_14_rotated.json,http://54.235.29.9/FacialAge/BNav_EC2/DepthDuration/v2_depth_duration_MTurk/v2_DepthDuration_HTML.html#170,170,1707,960,1707,960,8-29-2022,14-41-3,132,depth_duration_stimuli/001059_2014-06-08_21-53-27_260595134347_rgbf000061-resize_4/001059_2014-06-08_21-53-27_260595134347_rgbf000061-resize_4-target.png,125,2.4185,3.5,4165,123,feet,jsons/VE125_randls_14_rotated.json,1042829,1227146,43,Man
132,477954,DepthScenes,duration_manipulation_targetAtFixation,jsons/VE125_randls_14_rotated.json,http://54.235.29.9/FacialAge/BNav_EC2/DepthDuration/v2_depth_duration_MTurk/v2_DepthDuration_HTML.html#170,170,1707,960,1707,960,8-29-2022,14-41-3,133,depth_duration_stimuli/002209_2014-06-28_18-36-10_260595134347_rgbf000051-resize_1/002209_2014-06-28_18-36-10_260595134347_rgbf000051-resize_1-target.png,125,2.057,3.5,3675,123,feet,jsons/VE125_randls_14_rotated.json,1042829,1227146,43,Man
133,477954,DepthScenes,duration_manipulation_targetAtFixation,jsons/VE125_randls_14_rotated.json,http://54.235.29.9/FacialAge/BNav_EC2/DepthDuration/v2_depth_duration_MTurk/v2_DepthDuration_HTML.html#170,170,1707,960,1707,960,8-29-2022,14-41-3,134,depth_duration_stimuli/002763_2014-06-22_19-13-10_094959634447_rgbf000075-resize_4/002763_2014-06-22_19-13-10_094959634447_rgbf000075-resize_4-target.png,125,1.68375,4.0,5737,122,feet,jsons/VE125_randls_14_rotated.json,1042829,1227146,43,Man
134,477954,DepthScenes,duration_manipulation_targetAtFixation,jsons/VE125_randls_14_rotated.json,http://54.235.29.9/FacialAge/BNav_EC2/DepthDuration/v2_depth_duration_MTurk/v2_DepthDuration_HTML.html#170,170,1707,960,1707,960,8-29-2022,14-41-3,135,depth_duration_stimuli/000375_2014-06-08_11-17-29_260595134347_rgbf000133-resize_2/000375_2014-06-08_11-17-29_260595134347_rgbf000133-resize-original.jpg,125,4.718,0.0,1740,124,feet,jsons/VE125_randls_14_rotated.json,1042829,1227146,43,Man
135,477954,DepthScenes,duration_manipulation_targetAtFixation,jsons/VE125_randls_14_rotated.json,http://54.235.29.9/FacialAge/BNav_EC2/DepthDuration/v2_depth_duration_MTurk/v2_DepthDuration_HTML.html#170,170,1707,960,1707,960,8-29-2022,14-41-3,136,depth_duration_stimuli/002875_2014-06-01_15-19-00_094959634447_rgbf000151-resize_1/002875_2014-06-01_15-19-00_094959634447_rgbf000151-resize_1-target.png,125,1.9675,6.5,4499,138,feet,jsons/VE125_randls_14_rotated.json,1042829,1227146,43,Man
136,477954,DepthScenes,duration_manipulation_targetAtFixation,jsons/VE125_randls_14_rotated.json,http://54.235.29.9/FacialAge/BNav_EC2/DepthDuration/v2_depth_duration_MTurk/v2_DepthDuration_HTML.html#170,170,1707,960,1707,960,8-29-2022,14-41-3,137,depth_duration_stimuli/001011_2014-06-08_23-18-54_260595134347_rgbf000044-resize_4/001011_2014-06-08_23-18-54_260595134347_rgbf000044-resize_4-target.png,125,2.4730000000000003,5.5,10365,124,feet,jsons/VE125_randls_14_rotated.json,1042829,1227146,43,Man
137,477954,DepthScenes,duration_manipulation_targetAtFixation,jsons/VE125_randls_14_rotated.json,http://54.235.29.9/FacialAge/BNav_EC2/DepthDuration/v2_depth_duration_MTurk/v2_DepthDuration_HTML.html#170,170,1707,960,1707,960,8-29-2022,14-41-3,138,depth_duration_stimuli/002660_2014-06-13_15-44-18_094959634447_rgbf001878-resize_2/002660_2014-06-13_15-44-18_094959634447_rgbf001878-resize_2-target.png,125,3.576,7.0,6214,123,feet,jsons/VE125_randls_14_rotated.json,1042829,1227146,43,Man
138,477954,DepthScenes,duration_manipulation_targetAtFixation,jsons/VE125_randls_14_rotated.json,http://54.235.29.9/FacialAge/BNav_EC2/DepthDuration/v2_depth_duration_MTurk/v2_DepthDuration_HTML.html#170,170,1707,960,1707,960,8-29-2022,14-41-3,139,depth_duration_stimuli/002153_2014-06-25_21-27-18_260595134347_rgbf000038-resize_5/002153_2014-06-25_21-27-18_260595134347_rgbf000038-resize_5-target.png,125,2.505,5.0,2609,123,feet,jsons/VE125_randls_14_rotated.json,1042829,1227146,43,Man
139,477954,DepthScenes,duration_manipulation_targetAtFixation,jsons/VE125_randls_14_rotated.json,http://54.235.29.9/FacialAge/BNav_EC2/DepthDuration/v2_depth_duration_MTurk/v2_DepthDuration_HTML.html#170,170,1707,960,1707,960,8-29-2022,14-41-3,140,depth_duration_stimuli/002136_2014-06-25_21-18-03_260595134347_rgbf000109-resize_3/002136_2014-06-25_21-18-03_260595134347_rgbf000109-resize_3-target.png,125,1.9569999999999999,4.5,4615,138,feet,jsons/VE125_randls_14_rotated.json,1042829,1227146,43,Man
140,477954,DepthScenes,duration_manipulation_targetAtFixation,jsons/VE125_randls_14_rotated.json,http://54.235.29.9/FacialAge/BNav_EC2/DepthDuration/v2_depth_duration_MTurk/v2_DepthDuration_HTML.html#170,170,1707,960,1707,960,8-29-2022,14-41-3,141,depth_duration_stimuli/002964_2014-06-08_17-46-11_094959634447_rgbf000091-resize_4/002964_2014-06-08_17-46-11_094959634447_rgbf000091-resize_4-target.png,125,1.6909999999999998,4.0,2860,122,feet,jsons/VE125_randls_14_rotated.json,1042829,1227146,43,Man
141,477954,DepthScenes,duration_manipulation_targetAtFixation,jsons/VE125_randls_14_rotated.json,http://54.235.29.9/FacialAge/BNav_EC2/DepthDuration/v2_depth_duration_MTurk/v2_DepthDuration_HTML.html#170,170,1707,960,1707,960,8-29-2022,14-41-3,142,depth_duration_stimuli/002953_2014-06-08_17-32-18_094959634447_rgbf000059-resize_5/002953_2014-06-08_17-32-18_094959634447_rgbf000059-resize_5-target.png,125,1.551,2.0,2728,123,feet,jsons/VE125_randls_14_rotated.json,1042829,1227146,43,Man
142,477954,DepthScenes,duration_manipulation_targetAtFixation,jsons/VE125_randls_14_rotated.json,http://54.235.29.9/FacialAge/BNav_EC2/DepthDuration/v2_depth_duration_MTurk/v2_DepthDuration_HTML.html#170,170,1707,960,1707,960,8-29-2022,14-41-3,143,depth_duration_stimuli/000878_2014-06-08_22-52-45_260595134347_rgbf000045-resize_2/000878_2014-06-08_22-52-45_260595134347_rgbf000045-resize_2-target.png,125,2.092,4.5,4987,124,feet,jsons/VE125_randls_14_rotated.json,1042829,1227146,43,Man
143,477954,DepthScenes,duration_manipulation_targetAtFixation,jsons/VE125_randls_14_rotated.json,http://54.235.29.9/FacialAge/BNav_EC2/DepthDuration/v2_depth_duration_MTurk/v2_DepthDuration_HTML.html#170,170,1707,960,1707,960,8-29-2022,14-41-3,144,depth_duration_stimuli/001132_2014-06-17_14-48-54_260595134347_rgbf000100-resize_2/001132_2014-06-17_14-48-54_260595134347_rgbf000100-resize_2-target.png,125,3.753,6.5,4822,123,feet,jsons/VE125_randls_14_rotated.json,1042829,1227146,43,Man
144,477954,DepthScenes,duration_manipulation_targetAtFixation,jsons/VE125_randls_14_rotated.json,http://54.235.29.9/FacialAge/BNav_EC2/DepthDuration/v2_depth_duration_MTurk/v2_DepthDuration_HTML.html#170,170,1707,960,1707,960,8-29-2022,14-41-3,145,depth_duration_stimuli/001133_2014-06-17_14-49-16_260595134347_rgbf000100-resize_0/001133_2014-06-17_14-49-16_260595134347_rgbf000100-resize_0-target.png,125,4.2115,8.0,2583,123,feet,jsons/VE125_randls_14_rotated.json,1042829,1227146,43,Man
145,477954,DepthScenes,duration_manipulation_targetAtFixation,jsons/VE125_randls_14_rotated.json,http://54.235.29.9/FacialAge/BNav_EC2/DepthDuration/v2_depth_duration_MTurk/v2_DepthDuration_HTML.html#170,170,1707,960,1707,960,8-29-2022,14-41-3,146,depth_duration_stimuli/002545_2014-06-24_13-38-53_094959634447_rgbf000080-resize_4/002545_2014-06-24_13-38-53_094959634447_rgbf000080-resize_4-target.png,125,1.9205,6.0,3029,124,feet,jsons/VE125_randls_14_rotated.json,1042829,1227146,43,Man
146,477954,DepthScenes,duration_manipulation_targetAtFixation,jsons/VE125_randls_14_rotated.json,http://54.235.29.9/FacialAge/BNav_EC2/DepthDuration/v2_depth_duration_MTurk/v2_DepthDuration_HTML.html#170,170,1707,960,1707,960,8-29-2022,14-41-3,147,depth_duration_stimuli/001092_2014-06-15_17-34-58_260595134347_rgbf000171-resize_3/001092_2014-06-15_17-34-58_260595134347_rgbf000171-resize_3-target.png,125,2.6935,0.0,15016,123,feet,jsons/VE125_randls_14_rotated.json,1042829,1227146,43,Man
147,477954,DepthScenes,duration_manipulation_targetAtFixation,jsons/VE125_randls_14_rotated.json,http://54.235.29.9/FacialAge/BNav_EC2/DepthDuration/v2_depth_duration_MTurk/v2_DepthDuration_HTML.html#170,170,1707,960,1707,960,8-29-2022,14-41-3,148,depth_duration_stimuli/000409_2014-06-04_19-23-33_260595134347_rgbf000067-resize_0/000409_2014-06-04_19-23-33_260595134347_rgbf000067-resize_0-target.png,125,3.7335,6.5,5241,122,feet,jsons/VE125_randls_14_rotated.json,1042829,1227146,43,Man
148,477954,DepthScenes,duration_manipulation_targetAtFixation,jsons/VE125_randls_14_rotated.json,http://54.235.29.9/FacialAge/BNav_EC2/DepthDuration/v2_depth_duration_MTurk/v2_DepthDuration_HTML.html#170,170,1707,960,1707,960,8-29-2022,14-41-3,149,depth_duration_stimuli/002663_2014-06-13_15-50-26_094959634447_rgbf000075-resize_1/002663_2014-06-13_15-50-26_094959634447_rgbf000075-resize_1-target.png,125,4.7495,9.0,2560,123,feet,jsons/VE125_randls_14_rotated.json,1042829,1227146,43,Man
149,477954,DepthScenes,duration_manipulation_targetAtFixation,jsons/VE125_randls_14_rotated.json,http://54.235.29.9/FacialAge/BNav_EC2/DepthDuration/v2_depth_duration_MTurk/v2_DepthDuration_HTML.html#170,170,1707,960,1707,960,8-29-2022,14-41-3,150,depth_duration_stimuli/000691_2014-06-08_13-08-50_260595134347_rgbf000132-resize_3/000691_2014-06-08_13-08-50_260595134347_rgbf000132-resize_3-target.png,125,4.1530000000000005,6.5,4398,123,feet,jsons/VE125_randls_14_rotated.json,1042829,1227146,43,Man
150,477954,DepthScenes,duration_manipulation_targetAtFixation,jsons/VE125_randls_14_rotated.json,http://54.235.29.9/FacialAge/BNav_EC2/DepthDuration/v2_depth_duration_MTurk/v2_DepthDuration_HTML.html#170,170,1707,960,1707,960,8-29-2022,14-41-3,151,depth_duration_stimuli/002213_2014-06-28_18-37-58_260595134347_rgbf000055-resize_1/002213_2014-06-28_18-37-58_260595134347_rgbf000055-resize_1-target.png,125,3.62,9.0,2519,123,feet,jsons/VE125_randls_14_rotated.json,1042829,1227146,43,Man
151,477954,DepthScenes,duration_manipulation_targetAtFixation,jsons/VE125_randls_14_rotated.json,http://54.235.29.9/FacialAge/BNav_EC2/DepthDuration/v2_depth_duration_MTurk/v2_DepthDuration_HTML.html#170,170,1707,960,1707,960,8-29-2022,14-41-3,152,depth_duration_stimuli/000569_2014-06-09_22-51-47_260595134347_rgbf000141-resize_3/000569_2014-06-09_22-51-47_260595134347_rgbf000141-resize-original.jpg,125,4.512,0.0,1844,123,feet,jsons/VE125_randls_14_rotated.json,1042829,1227146,43,Man
152,477954,DepthScenes,duration_manipulation_targetAtFixation,jsons/VE125_randls_14_rotated.json,http://54.235.29.9/FacialAge/BNav_EC2/DepthDuration/v2_depth_duration_MTurk/v2_DepthDuration_HTML.html#170,170,1707,960,1707,960,8-29-2022,14-41-3,153,depth_duration_stimuli/003048_2014-06-15_13-49-43_094959634447_rgbf000150-resize_1/003048_2014-06-15_13-49-43_094959634447_rgbf000150-resize_1-target.png,125,4.0035,6.5,9086,123,feet,jsons/VE125_randls_14_rotated.json,1042829,1227146,43,Man
153,477954,DepthScenes,duration_manipulation_targetAtFixation,jsons/VE125_randls_14_rotated.json,http://54.235.29.9/FacialAge/BNav_EC2/DepthDuration/v2_depth_duration_MTurk/v2_DepthDuration_HTML.html#170,170,1707,960,1707,960,8-29-2022,14-41-3,154,depth_duration_stimuli/002043_2014-06-24_20-29-38_260595134347_rgbf000039-resize_4/002043_2014-06-24_20-29-38_260595134347_rgbf000039-resize_4-target.png,125,2.8435,6.5,7488,124,feet,jsons/VE125_randls_14_rotated.json,1042829,1227146,43,Man
154,477954,DepthScenes,duration_manipulation_targetAtFixation,jsons/VE125_randls_14_rotated.json,http://54.235.29.9/FacialAge/BNav_EC2/DepthDuration/v2_depth_duration_MTurk/v2_DepthDuration_HTML.html#170,170,1707,960,1707,960,8-29-2022,14-41-3,155,depth_duration_stimuli/003490_2014-05-21_15-50-11_094959634447_rgbf000101-resize_3/003490_2014-05-21_15-50-11_094959634447_rgbf000101-resize_3-target.png,125,3.6445,7.0,5643,122,feet,jsons/VE125_randls_14_rotated.json,1042829,1227146,43,Man
155,477954,DepthScenes,duration_manipulation_targetAtFixation,jsons/VE125_randls_14_rotated.json,http://54.235.29.9/FacialAge/BNav_EC2/DepthDuration/v2_depth_duration_MTurk/v2_DepthDuration_HTML.html#170,170,1707,960,1707,960,8-29-2022,14-41-3,156,depth_duration_stimuli/001175_2014-06-17_15-45-55_260595134347_rgbf000129-resize_4/001175_2014-06-17_15-45-55_260595134347_rgbf000129-resize_4-target.png,125,4.255,9.0,3236,123,feet,jsons/VE125_randls_14_rotated.json,1042829,1227146,43,Man
156,477954,DepthScenes,duration_manipulation_targetAtFixation,jsons/VE125_randls_14_rotated.json,http://54.235.29.9/FacialAge/BNav_EC2/DepthDuration/v2_depth_duration_MTurk/v2_DepthDuration_HTML.html#170,170,1707,960,1707,960,8-29-2022,14-41-3,157,depth_duration_stimuli/000502_2014-06-08_23-02-32_260595134347_rgbf000063-resize_4/000502_2014-06-08_23-02-32_260595134347_rgbf000063-resize_4-target.png,125,2.431,5.0,2259,125,feet,jsons/VE125_randls_14_rotated.json,1042829,1227146,43,Man
157,477954,DepthScenes,duration_manipulation_targetAtFixation,jsons/VE125_randls_14_rotated.json,http://54.235.29.9/FacialAge/BNav_EC2/DepthDuration/v2_depth_duration_MTurk/v2_DepthDuration_HTML.html#170,170,1707,960,1707,960,8-29-2022,14-41-3,158,depth_duration_stimuli/001199_2014-06-17_16-03-48_260595134347_rgbf000077-resize_0/001199_2014-06-17_16-03-48_260595134347_rgbf000077-resize_0-target.png,125,3.4375,7.0,5163,122,feet,jsons/VE125_randls_14_rotated.json,1042829,1227146,43,Man
158,477954,DepthScenes,duration_manipulation_targetAtFixation,jsons/VE125_randls_14_rotated.json,http://54.235.29.9/FacialAge/BNav_EC2/DepthDuration/v2_depth_duration_MTurk/v2_DepthDuration_HTML.html#170,170,1707,960,1707,960,8-29-2022,14-41-3,159,depth_duration_stimuli/000734_2014-06-08_17-39-11_260595134347_rgbf000128-resize_2/000734_2014-06-08_17-39-11_260595134347_rgbf000128-resize_2-target.png,125,4.098,7.0,6382,123,feet,jsons/VE125_randls_14_rotated.json,1042829,1227146,43,Man
159,477954,DepthScenes,duration_manipulation_targetAtFixation,jsons/VE125_randls_14_rotated.json,http://54.235.29.9/FacialAge/BNav_EC2/DepthDuration/v2_depth_duration_MTurk/v2_DepthDuration_HTML.html#170,170,1707,960,1707,960,8-29-2022,14-41-3,160,depth_duration_stimuli/000739_2014-06-08_18-45-58_260595134347_rgbf000068-resize_1/000739_2014-06-08_18-45-58_260595134347_rgbf000068-resize_1-target.png,125,3.534,6.5,6483,125,feet,jsons/VE125_randls_14_rotated.json,1042829,1227146,43,Man
160,477954,DepthScenes,duration_manipulation_targetAtFixation,jsons/VE125_randls_14_rotated.json,http://54.235.29.9/FacialAge/BNav_EC2/DepthDuration/v2_depth_duration_MTurk/v2_DepthDuration_HTML.html#170,170,1707,960,1707,960,8-29-2022,14-41-3,161,depth_duration_stimuli/001450_2014-06-19_17-02-03_260595134347_rgbf000203-resize_4/001450_2014-06-19_17-02-03_260595134347_rgbf000203-resize_4-target.png,125,4.0106666666667,8.5,3298,124,feet,jsons/VE125_randls_14_rotated.json,1042829,1227146,43,Man
161,477954,DepthScenes,duration_manipulation_targetAtFixation,jsons/VE125_randls_14_rotated.json,http://54.235.29.9/FacialAge/BNav_EC2/DepthDuration/v2_depth_duration_MTurk/v2_DepthDuration_HTML.html#170,170,1707,960,1707,960,8-29-2022,14-41-3,162,depth_duration_stimuli/001449_2014-06-19_17-01-27_260595134347_rgbf000116-resize_2/001449_2014-06-19_17-01-27_260595134347_rgbf000116-resize_2-target.png,125,3.452,5.0,4056,124,feet,jsons/VE125_randls_14_rotated.json,1042829,1227146,43,Man
162,477954,DepthScenes,duration_manipulation_targetAtFixation,jsons/VE125_randls_14_rotated.json,http://54.235.29.9/FacialAge/BNav_EC2/DepthDuration/v2_depth_duration_MTurk/v2_DepthDuration_HTML.html#170,170,1707,960,1707,960,8-29-2022,14-41-3,163,depth_duration_stimuli/001584_2014-06-20_11-07-43_260595134347_rgbf000002-resize_1/001584_2014-06-20_11-07-43_260595134347_rgbf000002-resize_1-target.png,125,3.53,6.0,5594,125,feet,jsons/VE125_randls_14_rotated.json,1042829,1227146,43,Man
163,477954,DepthScenes,duration_manipulation_targetAtFixation,jsons/VE125_randls_14_rotated.json,http://54.235.29.9/FacialAge/BNav_EC2/DepthDuration/v2_depth_duration_MTurk/v2_DepthDuration_HTML.html#170,170,1707,960,1707,960,8-29-2022,14-41-3,164,depth_duration_stimuli/003621_2014-05-23_18-06-08_094959634447_rgbf000101-resize_1/003621_2014-05-23_18-06-08_094959634447_rgbf000101-resize_1-target.png,125,3.9835,12.0,4477,138,feet,jsons/VE125_randls_14_rotated.json,1042829,1227146,43,Man
