,subjID,experimentName,versionName,sequenceName,url,selected_row,windowWidth,windowHeight,screenWidth,screenHeight,startDate,startTime,trial,stimulus,duration,actual_depth,depth_estimate,trial_RT,log_sceneDuration,unitSelection,seq_filepath,experimentTime,totalTime,age,gender
0,478211,DepthScenes,duration_manipulation_targetAtFixation,jsons/VE125_randls_46.json,http://54.235.29.9/FacialAge/BNav_EC2/DepthDuration/v2_depth_duration_MTurk/v2_DepthDuration_HTML.html#281,281,1920,1099,1920,1200,8-29-2022,13-33-11,1,depth_duration_stimuli/002272_2014-06-28_18-53-56_260595134347_rgbf000067-resize_2/002272_2014-06-28_18-53-56_260595134347_rgbf000067-resize_2-target.png,125,1.138,1.0,4493,124,feet,jsons/VE125_randls_46.json,659458,1866807,35,Man
1,478211,DepthScenes,duration_manipulation_targetAtFixation,jsons/VE125_randls_46.json,http://54.235.29.9/FacialAge/BNav_EC2/DepthDuration/v2_depth_duration_MTurk/v2_DepthDuration_HTML.html#281,281,1920,1099,1920,1200,8-29-2022,13-33-11,2,depth_duration_stimuli/001571_2014-06-20_17-21-32_260595134347_rgbf000089-resize_1/001571_2014-06-20_17-21-32_260595134347_rgbf000089-resize_1-target.png,125,1.86,1.5,9441,124,feet,jsons/VE125_randls_46.json,659458,1866807,35,Man
2,478211,DepthScenes,duration_manipulation_targetAtFixation,jsons/VE125_randls_46.json,http://54.235.29.9/FacialAge/BNav_EC2/DepthDuration/v2_depth_duration_MTurk/v2_DepthDuration_HTML.html#281,281,1920,1099,1920,1200,8-29-2022,13-33-11,3,depth_duration_stimuli/002509_2014-06-24_13-19-22_094959634447_rgbf000077-resize_0/002509_2014-06-24_13-19-22_094959634447_rgbf000077-resize_0-target.png,125,1.3065,2.0,3267,123,feet,jsons/VE125_randls_46.json,659458,1866807,35,Man
3,478211,DepthScenes,duration_manipulation_targetAtFixation,jsons/VE125_randls_46.json,http://54.235.29.9/FacialAge/BNav_EC2/DepthDuration/v2_depth_duration_MTurk/v2_DepthDuration_HTML.html#281,281,1920,1099,1920,1200,8-29-2022,13-33-11,4,depth_duration_stimuli/003338_2014-05-20_11-01-23_094959634447_rgbf000051-resize_6/003338_2014-05-20_11-01-23_094959634447_rgbf000051-resize_6-target.png,125,1.693,2.0,3021,125,feet,jsons/VE125_randls_46.json,659458,1866807,35,Man
4,478211,DepthScenes,duration_manipulation_targetAtFixation,jsons/VE125_randls_46.json,http://54.235.29.9/FacialAge/BNav_EC2/DepthDuration/v2_depth_duration_MTurk/v2_DepthDuration_HTML.html#281,281,1920,1099,1920,1200,8-29-2022,13-33-11,5,depth_duration_stimuli/001244_2014-06-17_16-47-45_260595134347_rgbf000030-resize_4/001244_2014-06-17_16-47-45_260595134347_rgbf000030-resize_4-target.png,125,2.0425,3.0,2568,125,feet,jsons/VE125_randls_46.json,659458,1866807,35,Man
5,478211,DepthScenes,duration_manipulation_targetAtFixation,jsons/VE125_randls_46.json,http://54.235.29.9/FacialAge/BNav_EC2/DepthDuration/v2_depth_duration_MTurk/v2_DepthDuration_HTML.html#281,281,1920,1099,1920,1200,8-29-2022,13-33-11,6,depth_duration_stimuli/003495_2014-05-21_16-01-51_094959634447_rgbf000100-resize_3/003495_2014-05-21_16-01-51_094959634447_rgbf000100-resize_3-target.png,125,1.6255,4.0,8168,124,feet,jsons/VE125_randls_46.json,659458,1866807,35,Man
6,478211,DepthScenes,duration_manipulation_targetAtFixation,jsons/VE125_randls_46.json,http://54.235.29.9/FacialAge/BNav_EC2/DepthDuration/v2_depth_duration_MTurk/v2_DepthDuration_HTML.html#281,281,1920,1099,1920,1200,8-29-2022,13-33-11,7,depth_duration_stimuli/000506_2014-06-08_23-21-00_260595134347_rgbf000070-resize_7/000506_2014-06-08_23-21-00_260595134347_rgbf000070-resize_7-target.png,125,4.0585,9.0,7623,124,feet,jsons/VE125_randls_46.json,659458,1866807,35,Man
7,478211,DepthScenes,duration_manipulation_targetAtFixation,jsons/VE125_randls_46.json,http://54.235.29.9/FacialAge/BNav_EC2/DepthDuration/v2_depth_duration_MTurk/v2_DepthDuration_HTML.html#281,281,1920,1099,1920,1200,8-29-2022,13-33-11,8,depth_duration_stimuli/003079_2014-06-15_15-18-20_094959634447_rgbf000152-resize_8/003079_2014-06-15_15-18-20_094959634447_rgbf000152-resize_8-target.png,125,2.8775,12.0,3669,125,feet,jsons/VE125_randls_46.json,659458,1866807,35,Man
8,478211,DepthScenes,duration_manipulation_targetAtFixation,jsons/VE125_randls_46.json,http://54.235.29.9/FacialAge/BNav_EC2/DepthDuration/v2_depth_duration_MTurk/v2_DepthDuration_HTML.html#281,281,1920,1099,1920,1200,8-29-2022,13-33-11,9,depth_duration_stimuli/002630_2014-06-24_14-47-50_094959634447_rgbf000055-resize_1/002630_2014-06-24_14-47-50_094959634447_rgbf000055-resize_1-target.png,125,3.0095,10.0,4614,125,feet,jsons/VE125_randls_46.json,659458,1866807,35,Man
9,478211,DepthScenes,duration_manipulation_targetAtFixation,jsons/VE125_randls_46.json,http://54.235.29.9/FacialAge/BNav_EC2/DepthDuration/v2_depth_duration_MTurk/v2_DepthDuration_HTML.html#281,281,1920,1099,1920,1200,8-29-2022,13-33-11,10,depth_duration_stimuli/002758_2014-06-22_19-11-20_094959634447_rgbf000128-resize_1/002758_2014-06-22_19-11-20_094959634447_rgbf000128-resize_1-target.png,125,2.555,5.0,3478,123,feet,jsons/VE125_randls_46.json,659458,1866807,35,Man
10,478211,DepthScenes,duration_manipulation_targetAtFixation,jsons/VE125_randls_46.json,http://54.235.29.9/FacialAge/BNav_EC2/DepthDuration/v2_depth_duration_MTurk/v2_DepthDuration_HTML.html#281,281,1920,1099,1920,1200,8-29-2022,13-33-11,11,depth_duration_stimuli/000736_2014-06-08_18-24-15_260595134347_rgbf000206-resize_3/000736_2014-06-08_18-24-15_260595134347_rgbf000206-resize_3-target.png,125,3.515,12.0,6049,124,feet,jsons/VE125_randls_46.json,659458,1866807,35,Man
11,478211,DepthScenes,duration_manipulation_targetAtFixation,jsons/VE125_randls_46.json,http://54.235.29.9/FacialAge/BNav_EC2/DepthDuration/v2_depth_duration_MTurk/v2_DepthDuration_HTML.html#281,281,1920,1099,1920,1200,8-29-2022,13-33-11,12,depth_duration_stimuli/000137_2014-05-20_17-04-49_260595134347_rgbf000120-resize_1/000137_2014-05-20_17-04-49_260595134347_rgbf000120-resize_1-target.png,125,3.786,11.0,4780,125,feet,jsons/VE125_randls_46.json,659458,1866807,35,Man
12,478211,DepthScenes,duration_manipulation_targetAtFixation,jsons/VE125_randls_46.json,http://54.235.29.9/FacialAge/BNav_EC2/DepthDuration/v2_depth_duration_MTurk/v2_DepthDuration_HTML.html#281,281,1920,1099,1920,1200,8-29-2022,13-33-11,13,depth_duration_stimuli/000569_2014-06-09_22-51-47_260595134347_rgbf000141-resize_3/000569_2014-06-09_22-51-47_260595134347_rgbf000141-resize-original.jpg,125,4.512,0.0,3969,124,feet,jsons/VE125_randls_46.json,659458,1866807,35,Man
13,478211,DepthScenes,duration_manipulation_targetAtFixation,jsons/VE125_randls_46.json,http://54.235.29.9/FacialAge/BNav_EC2/DepthDuration/v2_depth_duration_MTurk/v2_DepthDuration_HTML.html#281,281,1920,1099,1920,1200,8-29-2022,13-33-11,14,depth_duration_stimuli/001167_2014-06-17_15-38-07_260595134347_rgbf000108-resize_0/001167_2014-06-17_15-38-07_260595134347_rgbf000108-resize_0-target.png,125,1.8505,3.0,3513,124,feet,jsons/VE125_randls_46.json,659458,1866807,35,Man
14,478211,DepthScenes,duration_manipulation_targetAtFixation,jsons/VE125_randls_46.json,http://54.235.29.9/FacialAge/BNav_EC2/DepthDuration/v2_depth_duration_MTurk/v2_DepthDuration_HTML.html#281,281,1920,1099,1920,1200,8-29-2022,13-33-11,15,depth_duration_stimuli/003587_2014-05-23_16-48-02_094959634447_rgbf002384-resize_2/003587_2014-05-23_16-48-02_094959634447_rgbf002384-resize_2-target.png,125,1.357,4.0,2609,124,feet,jsons/VE125_randls_46.json,659458,1866807,35,Man
15,478211,DepthScenes,duration_manipulation_targetAtFixation,jsons/VE125_randls_46.json,http://54.235.29.9/FacialAge/BNav_EC2/DepthDuration/v2_depth_duration_MTurk/v2_DepthDuration_HTML.html#281,281,1920,1099,1920,1200,8-29-2022,13-33-11,16,depth_duration_stimuli/002279_2014-06-28_18-55-32_260595134347_rgbf000040-resize_5/002279_2014-06-28_18-55-32_260595134347_rgbf000040-resize_5-target.png,125,1.5043333333333,4.0,3745,125,feet,jsons/VE125_randls_46.json,659458,1866807,35,Man
16,478211,DepthScenes,duration_manipulation_targetAtFixation,jsons/VE125_randls_46.json,http://54.235.29.9/FacialAge/BNav_EC2/DepthDuration/v2_depth_duration_MTurk/v2_DepthDuration_HTML.html#281,281,1920,1099,1920,1200,8-29-2022,13-33-11,17,depth_duration_stimuli/000635_2014-06-08_16-38-42_260595134347_rgbf000106-resize_1/000635_2014-06-08_16-38-42_260595134347_rgbf000106-resize_1-target.png,125,2.074,8.0,3390,125,feet,jsons/VE125_randls_46.json,659458,1866807,35,Man
17,478211,DepthScenes,duration_manipulation_targetAtFixation,jsons/VE125_randls_46.json,http://54.235.29.9/FacialAge/BNav_EC2/DepthDuration/v2_depth_duration_MTurk/v2_DepthDuration_HTML.html#281,281,1920,1099,1920,1200,8-29-2022,13-33-11,18,depth_duration_stimuli/001056_2014-06-08_18-46-44_260595134347_rgbf000068-resize_0/001056_2014-06-08_18-46-44_260595134347_rgbf000068-resize_0-target.png,125,2.6625,14.0,6740,125,feet,jsons/VE125_randls_46.json,659458,1866807,35,Man
18,478211,DepthScenes,duration_manipulation_targetAtFixation,jsons/VE125_randls_46.json,http://54.235.29.9/FacialAge/BNav_EC2/DepthDuration/v2_depth_duration_MTurk/v2_DepthDuration_HTML.html#281,281,1920,1099,1920,1200,8-29-2022,13-33-11,19,depth_duration_stimuli/002199_2014-06-28_18-33-56_260595134347_rgbf000074-resize_0/002199_2014-06-28_18-33-56_260595134347_rgbf000074-resize_0-target.png,125,1.996,3.0,4939,125,feet,jsons/VE125_randls_46.json,659458,1866807,35,Man
19,478211,DepthScenes,duration_manipulation_targetAtFixation,jsons/VE125_randls_46.json,http://54.235.29.9/FacialAge/BNav_EC2/DepthDuration/v2_depth_duration_MTurk/v2_DepthDuration_HTML.html#281,281,1920,1099,1920,1200,8-29-2022,13-33-11,20,depth_duration_stimuli/002039_2014-06-24_20-22-38_260595134347_rgbf000084-resize_1/002039_2014-06-24_20-22-38_260595134347_rgbf000084-resize_1-target.png,125,4.408,14.0,3694,124,feet,jsons/VE125_randls_46.json,659458,1866807,35,Man
20,478211,DepthScenes,duration_manipulation_targetAtFixation,jsons/VE125_randls_46.json,http://54.235.29.9/FacialAge/BNav_EC2/DepthDuration/v2_depth_duration_MTurk/v2_DepthDuration_HTML.html#281,281,1920,1099,1920,1200,8-29-2022,13-33-11,21,depth_duration_stimuli/002103_2014-06-25_20-00-40_260595134347_rgbf000049-resize_0/002103_2014-06-25_20-00-40_260595134347_rgbf000049-resize_0-target.png,125,4.105,12.0,4712,125,feet,jsons/VE125_randls_46.json,659458,1866807,35,Man
21,478211,DepthScenes,duration_manipulation_targetAtFixation,jsons/VE125_randls_46.json,http://54.235.29.9/FacialAge/BNav_EC2/DepthDuration/v2_depth_duration_MTurk/v2_DepthDuration_HTML.html#281,281,1920,1099,1920,1200,8-29-2022,13-33-11,22,depth_duration_stimuli/001016_2014-06-09_16-16-10_260595134347_rgbf000112-resize_5/001016_2014-06-09_16-16-10_260595134347_rgbf000112-resize_5-target.png,125,1.6565,8.0,13515,124,feet,jsons/VE125_randls_46.json,659458,1866807,35,Man
22,478211,DepthScenes,duration_manipulation_targetAtFixation,jsons/VE125_randls_46.json,http://54.235.29.9/FacialAge/BNav_EC2/DepthDuration/v2_depth_duration_MTurk/v2_DepthDuration_HTML.html#281,281,1920,1099,1920,1200,8-29-2022,13-33-11,23,depth_duration_stimuli/002340_2014-06-28_20-05-46_260595134347_rgbf000113-resize_0/002340_2014-06-28_20-05-46_260595134347_rgbf000113-resize_0-target.png,125,2.4735,15.0,3929,124,feet,jsons/VE125_randls_46.json,659458,1866807,35,Man
23,478211,DepthScenes,duration_manipulation_targetAtFixation,jsons/VE125_randls_46.json,http://54.235.29.9/FacialAge/BNav_EC2/DepthDuration/v2_depth_duration_MTurk/v2_DepthDuration_HTML.html#281,281,1920,1099,1920,1200,8-29-2022,13-33-11,24,depth_duration_stimuli/001066_2014-06-08_22-03-20_260595134347_rgbf000066-resize_4/001066_2014-06-08_22-03-20_260595134347_rgbf000066-resize_4-target.png,125,4.2330000000000005,12.0,4743,124,feet,jsons/VE125_randls_46.json,659458,1866807,35,Man
24,478211,DepthScenes,duration_manipulation_targetAtFixation,jsons/VE125_randls_46.json,http://54.235.29.9/FacialAge/BNav_EC2/DepthDuration/v2_depth_duration_MTurk/v2_DepthDuration_HTML.html#281,281,1920,1099,1920,1200,8-29-2022,13-33-11,25,depth_duration_stimuli/000742_2014-06-08_18-48-09_260595134347_rgbf000164-resize_4/000742_2014-06-08_18-48-09_260595134347_rgbf000164-resize_4-target.png,125,4.632,12.0,5341,124,feet,jsons/VE125_randls_46.json,659458,1866807,35,Man
25,478211,DepthScenes,duration_manipulation_targetAtFixation,jsons/VE125_randls_46.json,http://54.235.29.9/FacialAge/BNav_EC2/DepthDuration/v2_depth_duration_MTurk/v2_DepthDuration_HTML.html#281,281,1920,1099,1920,1200,8-29-2022,13-33-11,26,depth_duration_stimuli/001808_2014-06-26_20-50-58_260595134347_rgbf000029-resize_1/001808_2014-06-26_20-50-58_260595134347_rgbf000029-resize_1-target.png,125,4.249,15.0,3446,124,feet,jsons/VE125_randls_46.json,659458,1866807,35,Man
26,478211,DepthScenes,duration_manipulation_targetAtFixation,jsons/VE125_randls_46.json,http://54.235.29.9/FacialAge/BNav_EC2/DepthDuration/v2_depth_duration_MTurk/v2_DepthDuration_HTML.html#281,281,1920,1099,1920,1200,8-29-2022,13-33-11,27,depth_duration_stimuli/001815_2014-06-26_20-52-55_260595134347_rgbf000020-resize_0/001815_2014-06-26_20-52-55_260595134347_rgbf000020-resize_0-target.png,125,3.3865,12.0,3601,125,feet,jsons/VE125_randls_46.json,659458,1866807,35,Man
27,478211,DepthScenes,duration_manipulation_targetAtFixation,jsons/VE125_randls_46.json,http://54.235.29.9/FacialAge/BNav_EC2/DepthDuration/v2_depth_duration_MTurk/v2_DepthDuration_HTML.html#281,281,1920,1099,1920,1200,8-29-2022,13-33-11,28,depth_duration_stimuli/002445_2014-06-28_20-32-16_260595134347_rgbf000029-resize_4/002445_2014-06-28_20-32-16_260595134347_rgbf000029-resize_4-target.png,125,2.5315,6.0,4285,124,feet,jsons/VE125_randls_46.json,659458,1866807,35,Man
28,478211,DepthScenes,duration_manipulation_targetAtFixation,jsons/VE125_randls_46.json,http://54.235.29.9/FacialAge/BNav_EC2/DepthDuration/v2_depth_duration_MTurk/v2_DepthDuration_HTML.html#281,281,1920,1099,1920,1200,8-29-2022,13-33-11,29,depth_duration_stimuli/000780_2014-06-08_22-28-29_260595134347_rgbf000126-resize_1/000780_2014-06-08_22-28-29_260595134347_rgbf000126-resize_1-target.png,125,3.3825,10.0,5802,125,feet,jsons/VE125_randls_46.json,659458,1866807,35,Man
29,478211,DepthScenes,duration_manipulation_targetAtFixation,jsons/VE125_randls_46.json,http://54.235.29.9/FacialAge/BNav_EC2/DepthDuration/v2_depth_duration_MTurk/v2_DepthDuration_HTML.html#281,281,1920,1099,1920,1200,8-29-2022,13-33-11,30,depth_duration_stimuli/000375_2014-06-08_11-17-29_260595134347_rgbf000133-resize_2/000375_2014-06-08_11-17-29_260595134347_rgbf000133-resize-original.jpg,125,4.718,0.0,2437,125,feet,jsons/VE125_randls_46.json,659458,1866807,35,Man
30,478211,DepthScenes,duration_manipulation_targetAtFixation,jsons/VE125_randls_46.json,http://54.235.29.9/FacialAge/BNav_EC2/DepthDuration/v2_depth_duration_MTurk/v2_DepthDuration_HTML.html#281,281,1920,1099,1920,1200,8-29-2022,13-33-11,31,depth_duration_stimuli/000522_2014-06-08_13-35-06_260595134347_rgbf000244-resize_1/000522_2014-06-08_13-35-06_260595134347_rgbf000244-resize_1-target.png,125,2.3715,4.0,3072,125,feet,jsons/VE125_randls_46.json,659458,1866807,35,Man
31,478211,DepthScenes,duration_manipulation_targetAtFixation,jsons/VE125_randls_46.json,http://54.235.29.9/FacialAge/BNav_EC2/DepthDuration/v2_depth_duration_MTurk/v2_DepthDuration_HTML.html#281,281,1920,1099,1920,1200,8-29-2022,13-33-11,32,depth_duration_stimuli/002949_2014-06-26_15-57-42_094959634447_rgbf000079-resize_1/002949_2014-06-26_15-57-42_094959634447_rgbf000079-resize_1-target.png,125,1.8915,5.0,2471,125,feet,jsons/VE125_randls_46.json,659458,1866807,35,Man
32,478211,DepthScenes,duration_manipulation_targetAtFixation,jsons/VE125_randls_46.json,http://54.235.29.9/FacialAge/BNav_EC2/DepthDuration/v2_depth_duration_MTurk/v2_DepthDuration_HTML.html#281,281,1920,1099,1920,1200,8-29-2022,13-33-11,33,depth_duration_stimuli/001555_2014-06-20_17-12-10_260595134347_rgbf000065-resize_4/001555_2014-06-20_17-12-10_260595134347_rgbf000065-resize_4-target.png,125,1.633,3.0,4040,125,feet,jsons/VE125_randls_46.json,659458,1866807,35,Man
33,478211,DepthScenes,duration_manipulation_targetAtFixation,jsons/VE125_randls_46.json,http://54.235.29.9/FacialAge/BNav_EC2/DepthDuration/v2_depth_duration_MTurk/v2_DepthDuration_HTML.html#281,281,1920,1099,1920,1200,8-29-2022,13-33-11,34,depth_duration_stimuli/000103_2014-05-14_22-01-17_260595134347_rgbf000152-resize_5/000103_2014-05-14_22-01-17_260595134347_rgbf000152-resize_5-target.png,125,1.993,10.0,2762,125,feet,jsons/VE125_randls_46.json,659458,1866807,35,Man
34,478211,DepthScenes,duration_manipulation_targetAtFixation,jsons/VE125_randls_46.json,http://54.235.29.9/FacialAge/BNav_EC2/DepthDuration/v2_depth_duration_MTurk/v2_DepthDuration_HTML.html#281,281,1920,1099,1920,1200,8-29-2022,13-33-11,35,depth_duration_stimuli/001199_2014-06-17_16-03-48_260595134347_rgbf000077-resize_0/001199_2014-06-17_16-03-48_260595134347_rgbf000077-resize_0-target.png,125,3.4375,9.0,3636,125,feet,jsons/VE125_randls_46.json,659458,1866807,35,Man
35,478211,DepthScenes,duration_manipulation_targetAtFixation,jsons/VE125_randls_46.json,http://54.235.29.9/FacialAge/BNav_EC2/DepthDuration/v2_depth_duration_MTurk/v2_DepthDuration_HTML.html#281,281,1920,1099,1920,1200,8-29-2022,13-33-11,36,depth_duration_stimuli/000502_2014-06-08_23-02-32_260595134347_rgbf000063-resize_4/000502_2014-06-08_23-02-32_260595134347_rgbf000063-resize_4-target.png,125,2.431,7.0,2367,125,feet,jsons/VE125_randls_46.json,659458,1866807,35,Man
36,478211,DepthScenes,duration_manipulation_targetAtFixation,jsons/VE125_randls_46.json,http://54.235.29.9/FacialAge/BNav_EC2/DepthDuration/v2_depth_duration_MTurk/v2_DepthDuration_HTML.html#281,281,1920,1099,1920,1200,8-29-2022,13-33-11,37,depth_duration_stimuli/001059_2014-06-08_21-53-27_260595134347_rgbf000061-resize_4/001059_2014-06-08_21-53-27_260595134347_rgbf000061-resize_4-target.png,125,2.4185,8.0,3176,125,feet,jsons/VE125_randls_46.json,659458,1866807,35,Man
37,478211,DepthScenes,duration_manipulation_targetAtFixation,jsons/VE125_randls_46.json,http://54.235.29.9/FacialAge/BNav_EC2/DepthDuration/v2_depth_duration_MTurk/v2_DepthDuration_HTML.html#281,281,1920,1099,1920,1200,8-29-2022,13-33-11,38,depth_duration_stimuli/001032_2014-06-08_13-23-17_260595134347_rgbf000021-resize_3/001032_2014-06-08_13-23-17_260595134347_rgbf000021-resize_3-target.png,125,3.2725,7.0,2725,124,feet,jsons/VE125_randls_46.json,659458,1866807,35,Man
38,478211,DepthScenes,duration_manipulation_targetAtFixation,jsons/VE125_randls_46.json,http://54.235.29.9/FacialAge/BNav_EC2/DepthDuration/v2_depth_duration_MTurk/v2_DepthDuration_HTML.html#281,281,1920,1099,1920,1200,8-29-2022,13-33-11,39,depth_duration_stimuli/001417_2014-06-19_16-25-36_260595134347_rgbf000115-resize_5/001417_2014-06-19_16-25-36_260595134347_rgbf000115-resize_5-target.png,125,4.6255,12.0,3491,124,feet,jsons/VE125_randls_46.json,659458,1866807,35,Man
39,478211,DepthScenes,duration_manipulation_targetAtFixation,jsons/VE125_randls_46.json,http://54.235.29.9/FacialAge/BNav_EC2/DepthDuration/v2_depth_duration_MTurk/v2_DepthDuration_HTML.html#281,281,1920,1099,1920,1200,8-29-2022,13-33-11,40,depth_duration_stimuli/003081_2014-06-15_15-19-16_094959634447_rgbf000150-resize_1/003081_2014-06-15_15-19-16_094959634447_rgbf000150-resize_1-target.png,125,3.9125,15.0,2948,125,feet,jsons/VE125_randls_46.json,659458,1866807,35,Man
40,478211,DepthScenes,duration_manipulation_targetAtFixation,jsons/VE125_randls_46.json,http://54.235.29.9/FacialAge/BNav_EC2/DepthDuration/v2_depth_duration_MTurk/v2_DepthDuration_HTML.html#281,281,1920,1099,1920,1200,8-29-2022,13-33-11,41,depth_duration_stimuli/002964_2014-06-08_17-46-11_094959634447_rgbf000091-resize_4/002964_2014-06-08_17-46-11_094959634447_rgbf000091-resize_4-target.png,125,1.6909999999999998,6.0,5377,125,feet,jsons/VE125_randls_46.json,659458,1866807,35,Man
41,478211,DepthScenes,duration_manipulation_targetAtFixation,jsons/VE125_randls_46.json,http://54.235.29.9/FacialAge/BNav_EC2/DepthDuration/v2_depth_duration_MTurk/v2_DepthDuration_HTML.html#281,281,1920,1099,1920,1200,8-29-2022,13-33-11,42,depth_duration_stimuli/002136_2014-06-25_21-18-03_260595134347_rgbf000109-resize_3/002136_2014-06-25_21-18-03_260595134347_rgbf000109-resize_3-target.png,125,1.9569999999999999,5.0,2206,124,feet,jsons/VE125_randls_46.json,659458,1866807,35,Man
42,478211,DepthScenes,duration_manipulation_targetAtFixation,jsons/VE125_randls_46.json,http://54.235.29.9/FacialAge/BNav_EC2/DepthDuration/v2_depth_duration_MTurk/v2_DepthDuration_HTML.html#281,281,1920,1099,1920,1200,8-29-2022,13-33-11,43,depth_duration_stimuli/000642_2014-06-08_16-59-25_260595134347_rgbf000098-resize_2/000642_2014-06-08_16-59-25_260595134347_rgbf000098-resize_2-target.png,125,2.8815,10.0,2488,125,feet,jsons/VE125_randls_46.json,659458,1866807,35,Man
43,478211,DepthScenes,duration_manipulation_targetAtFixation,jsons/VE125_randls_46.json,http://54.235.29.9/FacialAge/BNav_EC2/DepthDuration/v2_depth_duration_MTurk/v2_DepthDuration_HTML.html#281,281,1920,1099,1920,1200,8-29-2022,13-33-11,44,depth_duration_stimuli/002425_2014-06-28_20-27-29_260595134347_rgbf000031-resize_8/002425_2014-06-28_20-27-29_260595134347_rgbf000031-resize_8-target.png,125,3.8960000000000004,13.0,2734,125,feet,jsons/VE125_randls_46.json,659458,1866807,35,Man
44,478211,DepthScenes,duration_manipulation_targetAtFixation,jsons/VE125_randls_46.json,http://54.235.29.9/FacialAge/BNav_EC2/DepthDuration/v2_depth_duration_MTurk/v2_DepthDuration_HTML.html#281,281,1920,1099,1920,1200,8-29-2022,13-33-11,45,depth_duration_stimuli/000787_2014-06-08_22-33-53_260595134347_rgbf000175-resize_1/000787_2014-06-08_22-33-53_260595134347_rgbf000175-resize-original.jpg,125,4.784,0.0,2443,125,feet,jsons/VE125_randls_46.json,659458,1866807,35,Man
45,478211,DepthScenes,duration_manipulation_targetAtFixation,jsons/VE125_randls_46.json,http://54.235.29.9/FacialAge/BNav_EC2/DepthDuration/v2_depth_duration_MTurk/v2_DepthDuration_HTML.html#281,281,1920,1099,1920,1200,8-29-2022,13-33-11,46,depth_duration_stimuli/002118_2014-06-25_20-32-08_260595134347_rgbf000078-resize_1/002118_2014-06-25_20-32-08_260595134347_rgbf000078-resize_1-target.png,125,2.6460000000000004,10.0,3084,125,feet,jsons/VE125_randls_46.json,659458,1866807,35,Man
46,478211,DepthScenes,duration_manipulation_targetAtFixation,jsons/VE125_randls_46.json,http://54.235.29.9/FacialAge/BNav_EC2/DepthDuration/v2_depth_duration_MTurk/v2_DepthDuration_HTML.html#281,281,1920,1099,1920,1200,8-29-2022,13-33-11,47,depth_duration_stimuli/001516_2014-06-20_16-25-09_260595134347_rgbf000076-resize_2/001516_2014-06-20_16-25-09_260595134347_rgbf000076-resize_2-target.png,125,1.7445,8.0,2367,124,feet,jsons/VE125_randls_46.json,659458,1866807,35,Man
47,478211,DepthScenes,duration_manipulation_targetAtFixation,jsons/VE125_randls_46.json,http://54.235.29.9/FacialAge/BNav_EC2/DepthDuration/v2_depth_duration_MTurk/v2_DepthDuration_HTML.html#281,281,1920,1099,1920,1200,8-29-2022,13-33-11,48,depth_duration_stimuli/001092_2014-06-15_17-34-58_260595134347_rgbf000171-resize_3/001092_2014-06-15_17-34-58_260595134347_rgbf000171-resize_3-target.png,125,2.6935,7.0,3845,124,feet,jsons/VE125_randls_46.json,659458,1866807,35,Man
48,478211,DepthScenes,duration_manipulation_targetAtFixation,jsons/VE125_randls_46.json,http://54.235.29.9/FacialAge/BNav_EC2/DepthDuration/v2_depth_duration_MTurk/v2_DepthDuration_HTML.html#281,281,1920,1099,1920,1200,8-29-2022,13-33-11,49,depth_duration_stimuli/002545_2014-06-24_13-38-53_094959634447_rgbf000080-resize_4/002545_2014-06-24_13-38-53_094959634447_rgbf000080-resize_4-target.png,125,1.9205,8.0,3541,124,feet,jsons/VE125_randls_46.json,659458,1866807,35,Man
49,478211,DepthScenes,duration_manipulation_targetAtFixation,jsons/VE125_randls_46.json,http://54.235.29.9/FacialAge/BNav_EC2/DepthDuration/v2_depth_duration_MTurk/v2_DepthDuration_HTML.html#281,281,1920,1099,1920,1200,8-29-2022,13-33-11,50,depth_duration_stimuli/002725_2014-06-22_11-47-51_094959634447_rgbf000070-resize_1/002725_2014-06-22_11-47-51_094959634447_rgbf000070-resize_1-target.png,125,2.195,6.0,5356,125,feet,jsons/VE125_randls_46.json,659458,1866807,35,Man
50,478211,DepthScenes,duration_manipulation_targetAtFixation,jsons/VE125_randls_46.json,http://54.235.29.9/FacialAge/BNav_EC2/DepthDuration/v2_depth_duration_MTurk/v2_DepthDuration_HTML.html#281,281,1920,1099,1920,1200,8-29-2022,13-33-11,51,depth_duration_stimuli/002344_2014-06-28_20-06-29_260595134347_rgbf000030-resize_1/002344_2014-06-28_20-06-29_260595134347_rgbf000030-resize_1-target.png,125,1.5795,5.0,2060,124,feet,jsons/VE125_randls_46.json,659458,1866807,35,Man
51,478211,DepthScenes,duration_manipulation_targetAtFixation,jsons/VE125_randls_46.json,http://54.235.29.9/FacialAge/BNav_EC2/DepthDuration/v2_depth_duration_MTurk/v2_DepthDuration_HTML.html#281,281,1920,1099,1920,1200,8-29-2022,13-33-11,52,depth_duration_stimuli/000929_2014-06-09_16-33-19_260595134347_rgbf000139-resize_0/000929_2014-06-09_16-33-19_260595134347_rgbf000139-resize_0-target.png,125,2.8680000000000003,10.0,2387,124,feet,jsons/VE125_randls_46.json,659458,1866807,35,Man
52,478211,DepthScenes,duration_manipulation_targetAtFixation,jsons/VE125_randls_46.json,http://54.235.29.9/FacialAge/BNav_EC2/DepthDuration/v2_depth_duration_MTurk/v2_DepthDuration_HTML.html#281,281,1920,1099,1920,1200,8-29-2022,13-33-11,53,depth_duration_stimuli/000457_2014-06-08_16-52-43_260595134347_rgbf000199-resize_1/000457_2014-06-08_16-52-43_260595134347_rgbf000199-resize_1-target.png,125,3.6489999999999996,12.0,2195,125,feet,jsons/VE125_randls_46.json,659458,1866807,35,Man
53,478211,DepthScenes,duration_manipulation_targetAtFixation,jsons/VE125_randls_46.json,http://54.235.29.9/FacialAge/BNav_EC2/DepthDuration/v2_depth_duration_MTurk/v2_DepthDuration_HTML.html#281,281,1920,1099,1920,1200,8-29-2022,13-33-11,54,depth_duration_stimuli/001806_2014-06-26_20-50-20_260595134347_rgbf000091-resize_1/001806_2014-06-26_20-50-20_260595134347_rgbf000091-resize_1-target.png,125,2.7305,5.0,2305,124,feet,jsons/VE125_randls_46.json,659458,1866807,35,Man
54,478211,DepthScenes,duration_manipulation_targetAtFixation,jsons/VE125_randls_46.json,http://54.235.29.9/FacialAge/BNav_EC2/DepthDuration/v2_depth_duration_MTurk/v2_DepthDuration_HTML.html#281,281,1920,1099,1920,1200,8-29-2022,13-33-11,55,depth_duration_stimuli/001617_2014-06-20_11-35-32_260595134347_rgbf000066-resize_1/001617_2014-06-20_11-35-32_260595134347_rgbf000066-resize_1-target.png,125,3.7910000000000004,10.0,2598,124,feet,jsons/VE125_randls_46.json,659458,1866807,35,Man
55,478211,DepthScenes,duration_manipulation_targetAtFixation,jsons/VE125_randls_46.json,http://54.235.29.9/FacialAge/BNav_EC2/DepthDuration/v2_depth_duration_MTurk/v2_DepthDuration_HTML.html#281,281,1920,1099,1920,1200,8-29-2022,13-33-11,56,depth_duration_stimuli/000739_2014-06-08_18-45-58_260595134347_rgbf000068-resize_1/000739_2014-06-08_18-45-58_260595134347_rgbf000068-resize_1-target.png,125,3.534,13.0,2642,124,feet,jsons/VE125_randls_46.json,659458,1866807,35,Man
56,478211,DepthScenes,duration_manipulation_targetAtFixation,jsons/VE125_randls_46.json,http://54.235.29.9/FacialAge/BNav_EC2/DepthDuration/v2_depth_duration_MTurk/v2_DepthDuration_HTML.html#281,281,1920,1099,1920,1200,8-29-2022,13-33-11,57,depth_duration_stimuli/000734_2014-06-08_17-39-11_260595134347_rgbf000128-resize_2/000734_2014-06-08_17-39-11_260595134347_rgbf000128-resize_2-target.png,125,4.098,10.0,7777,126,feet,jsons/VE125_randls_46.json,659458,1866807,35,Man
57,478211,DepthScenes,duration_manipulation_targetAtFixation,jsons/VE125_randls_46.json,http://54.235.29.9/FacialAge/BNav_EC2/DepthDuration/v2_depth_duration_MTurk/v2_DepthDuration_HTML.html#281,281,1920,1099,1920,1200,8-29-2022,13-33-11,58,depth_duration_stimuli/000758_2014-06-08_22-05-08_260595134347_rgbf000085-resize_0/000758_2014-06-08_22-05-08_260595134347_rgbf000085-resize_0-target.png,125,3.3810000000000002,13.0,2513,124,feet,jsons/VE125_randls_46.json,659458,1866807,35,Man
58,478211,DepthScenes,duration_manipulation_targetAtFixation,jsons/VE125_randls_46.json,http://54.235.29.9/FacialAge/BNav_EC2/DepthDuration/v2_depth_duration_MTurk/v2_DepthDuration_HTML.html#281,281,1920,1099,1920,1200,8-29-2022,13-33-11,59,depth_duration_stimuli/000854_2014-06-09_19-43-13_260595134347_rgbf000066-resize_0/000854_2014-06-09_19-43-13_260595134347_rgbf000066-resize_0-target.png,125,3.068,4.0,6252,124,feet,jsons/VE125_randls_46.json,659458,1866807,35,Man
59,478211,DepthScenes,duration_manipulation_targetAtFixation,jsons/VE125_randls_46.json,http://54.235.29.9/FacialAge/BNav_EC2/DepthDuration/v2_depth_duration_MTurk/v2_DepthDuration_HTML.html#281,281,1920,1099,1920,1200,8-29-2022,13-33-11,60,depth_duration_stimuli/003492_2014-05-21_15-50-55_094959634447_rgbf000828-resize_1/003492_2014-05-21_15-50-55_094959634447_rgbf000828-resize_1-target.png,125,4.06875,8.0,2813,125,feet,jsons/VE125_randls_46.json,659458,1866807,35,Man
60,478211,DepthScenes,duration_manipulation_targetAtFixation,jsons/VE125_randls_46.json,http://54.235.29.9/FacialAge/BNav_EC2/DepthDuration/v2_depth_duration_MTurk/v2_DepthDuration_HTML.html#281,281,1920,1099,1920,1200,8-29-2022,13-33-11,61,depth_duration_stimuli/002568_2014-06-24_13-59-21_094959634447_rgbf000062-resize_4/002568_2014-06-24_13-59-21_094959634447_rgbf000062-resize_4-target.png,125,3.015,9.0,5289,124,feet,jsons/VE125_randls_46.json,659458,1866807,35,Man
61,478211,DepthScenes,duration_manipulation_targetAtFixation,jsons/VE125_randls_46.json,http://54.235.29.9/FacialAge/BNav_EC2/DepthDuration/v2_depth_duration_MTurk/v2_DepthDuration_HTML.html#281,281,1920,1099,1920,1200,8-29-2022,13-33-11,62,depth_duration_stimuli/000447_2014-06-08_16-15-46_260595134347_rgbf000130-resize_1/000447_2014-06-08_16-15-46_260595134347_rgbf000130-resize_1-target.png,125,4.479,11.0,3079,124,feet,jsons/VE125_randls_46.json,659458,1866807,35,Man
62,478211,DepthScenes,duration_manipulation_targetAtFixation,jsons/VE125_randls_46.json,http://54.235.29.9/FacialAge/BNav_EC2/DepthDuration/v2_depth_duration_MTurk/v2_DepthDuration_HTML.html#281,281,1920,1099,1920,1200,8-29-2022,13-33-11,63,depth_duration_stimuli/001447_2014-06-19_17-00-32_260595134347_rgbf000082-resize_5/001447_2014-06-19_17-00-32_260595134347_rgbf000082-resize_5-target.png,125,4.13775,6.0,3632,124,feet,jsons/VE125_randls_46.json,659458,1866807,35,Man
63,478211,DepthScenes,duration_manipulation_targetAtFixation,jsons/VE125_randls_46.json,http://54.235.29.9/FacialAge/BNav_EC2/DepthDuration/v2_depth_duration_MTurk/v2_DepthDuration_HTML.html#281,281,1920,1099,1920,1200,8-29-2022,13-33-11,64,depth_duration_stimuli/000810_2014-06-08_17-20-01_260595134347_rgbf000105-resize_0/000810_2014-06-08_17-20-01_260595134347_rgbf000105-resize_0-target.png,125,1.4865,4.0,2205,125,feet,jsons/VE125_randls_46.json,659458,1866807,35,Man
64,478211,DepthScenes,duration_manipulation_targetAtFixation,jsons/VE125_randls_46.json,http://54.235.29.9/FacialAge/BNav_EC2/DepthDuration/v2_depth_duration_MTurk/v2_DepthDuration_HTML.html#281,281,1920,1099,1920,1200,8-29-2022,13-33-11,65,depth_duration_stimuli/001214_2014-06-17_16-13-55_260595134347_rgbf000111-resize_0/001214_2014-06-17_16-13-55_260595134347_rgbf000111-resize_0-target.png,125,2.6505,4.0,3068,125,feet,jsons/VE125_randls_46.json,659458,1866807,35,Man
65,478211,DepthScenes,duration_manipulation_targetAtFixation,jsons/VE125_randls_46.json,http://54.235.29.9/FacialAge/BNav_EC2/DepthDuration/v2_depth_duration_MTurk/v2_DepthDuration_HTML.html#281,281,1920,1099,1920,1200,8-29-2022,13-33-11,66,depth_duration_stimuli/001222_2014-06-17_16-24-06_260595134347_rgbf000073-resize_0/001222_2014-06-17_16-24-06_260595134347_rgbf000073-resize-original.jpg,125,1.4385,0.0,2144,123,feet,jsons/VE125_randls_46.json,659458,1866807,35,Man
66,478211,DepthScenes,duration_manipulation_targetAtFixation,jsons/VE125_randls_46.json,http://54.235.29.9/FacialAge/BNav_EC2/DepthDuration/v2_depth_duration_MTurk/v2_DepthDuration_HTML.html#281,281,1920,1099,1920,1200,8-29-2022,13-33-11,67,depth_duration_stimuli/002989_2014-06-15_12-25-03_094959634447_rgbf000150-resize_3/002989_2014-06-15_12-25-03_094959634447_rgbf000150-resize_3-target.png,125,4.1975,10.0,6028,124,feet,jsons/VE125_randls_46.json,659458,1866807,35,Man
67,478211,DepthScenes,duration_manipulation_targetAtFixation,jsons/VE125_randls_46.json,http://54.235.29.9/FacialAge/BNav_EC2/DepthDuration/v2_depth_duration_MTurk/v2_DepthDuration_HTML.html#281,281,1920,1099,1920,1200,8-29-2022,13-33-11,68,depth_duration_stimuli/000866_2014-06-09_20-45-42_260595134347_rgbf000139-resize_1/000866_2014-06-09_20-45-42_260595134347_rgbf000139-resize_1-target.png,125,3.2155,10.0,3913,124,feet,jsons/VE125_randls_46.json,659458,1866807,35,Man
68,478211,DepthScenes,duration_manipulation_targetAtFixation,jsons/VE125_randls_46.json,http://54.235.29.9/FacialAge/BNav_EC2/DepthDuration/v2_depth_duration_MTurk/v2_DepthDuration_HTML.html#281,281,1920,1099,1920,1200,8-29-2022,13-33-11,69,depth_duration_stimuli/002763_2014-06-22_19-13-10_094959634447_rgbf000075-resize_4/002763_2014-06-22_19-13-10_094959634447_rgbf000075-resize_4-target.png,125,1.68375,4.0,2331,125,feet,jsons/VE125_randls_46.json,659458,1866807,35,Man
69,478211,DepthScenes,duration_manipulation_targetAtFixation,jsons/VE125_randls_46.json,http://54.235.29.9/FacialAge/BNav_EC2/DepthDuration/v2_depth_duration_MTurk/v2_DepthDuration_HTML.html#281,281,1920,1099,1920,1200,8-29-2022,13-33-11,70,depth_duration_stimuli/002209_2014-06-28_18-36-10_260595134347_rgbf000051-resize_1/002209_2014-06-28_18-36-10_260595134347_rgbf000051-resize_1-target.png,125,2.057,4.0,1929,124,feet,jsons/VE125_randls_46.json,659458,1866807,35,Man
70,478211,DepthScenes,duration_manipulation_targetAtFixation,jsons/VE125_randls_46.json,http://54.235.29.9/FacialAge/BNav_EC2/DepthDuration/v2_depth_duration_MTurk/v2_DepthDuration_HTML.html#281,281,1920,1099,1920,1200,8-29-2022,13-33-11,71,depth_duration_stimuli/002784_2014-06-22_19-26-30_094959634447_rgbf000083-resize_3/002784_2014-06-22_19-26-30_094959634447_rgbf000083-resize_3-target.png,125,1.8046666666667,3.0,2664,124,feet,jsons/VE125_randls_46.json,659458,1866807,35,Man
71,478211,DepthScenes,duration_manipulation_targetAtFixation,jsons/VE125_randls_46.json,http://54.235.29.9/FacialAge/BNav_EC2/DepthDuration/v2_depth_duration_MTurk/v2_DepthDuration_HTML.html#281,281,1920,1099,1920,1200,8-29-2022,13-33-11,72,depth_duration_stimuli/001100_2014-06-15_17-46-26_260595134347_rgbf000225-resize_2/001100_2014-06-15_17-46-26_260595134347_rgbf000225-resize_2-target.png,125,2.24,3.0,4584,124,feet,jsons/VE125_randls_46.json,659458,1866807,35,Man
72,478211,DepthScenes,duration_manipulation_targetAtFixation,jsons/VE125_randls_46.json,http://54.235.29.9/FacialAge/BNav_EC2/DepthDuration/v2_depth_duration_MTurk/v2_DepthDuration_HTML.html#281,281,1920,1099,1920,1200,8-29-2022,13-33-11,73,depth_duration_stimuli/000878_2014-06-08_22-52-45_260595134347_rgbf000045-resize_2/000878_2014-06-08_22-52-45_260595134347_rgbf000045-resize_2-target.png,125,2.092,4.0,3046,124,feet,jsons/VE125_randls_46.json,659458,1866807,35,Man
73,478211,DepthScenes,duration_manipulation_targetAtFixation,jsons/VE125_randls_46.json,http://54.235.29.9/FacialAge/BNav_EC2/DepthDuration/v2_depth_duration_MTurk/v2_DepthDuration_HTML.html#281,281,1920,1099,1920,1200,8-29-2022,13-33-11,74,depth_duration_stimuli/002953_2014-06-08_17-32-18_094959634447_rgbf000059-resize_5/002953_2014-06-08_17-32-18_094959634447_rgbf000059-resize_5-target.png,125,1.551,3.0,2144,124,feet,jsons/VE125_randls_46.json,659458,1866807,35,Man
74,478211,DepthScenes,duration_manipulation_targetAtFixation,jsons/VE125_randls_46.json,http://54.235.29.9/FacialAge/BNav_EC2/DepthDuration/v2_depth_duration_MTurk/v2_DepthDuration_HTML.html#281,281,1920,1099,1920,1200,8-29-2022,13-33-11,75,depth_duration_stimuli/002057_2014-06-24_21-00-13_260595134347_rgbf000120-resize_1/002057_2014-06-24_21-00-13_260595134347_rgbf000120-resize_1-target.png,125,2.967,12.0,2871,126,feet,jsons/VE125_randls_46.json,659458,1866807,35,Man
75,478211,DepthScenes,duration_manipulation_targetAtFixation,jsons/VE125_randls_46.json,http://54.235.29.9/FacialAge/BNav_EC2/DepthDuration/v2_depth_duration_MTurk/v2_DepthDuration_HTML.html#281,281,1920,1099,1920,1200,8-29-2022,13-33-11,76,depth_duration_stimuli/000709_2014-06-08_13-51-55_260595134347_rgbf000068-resize_3/000709_2014-06-08_13-51-55_260595134347_rgbf000068-resize_3-target.png,125,1.8030000000000002,9.0,3470,124,feet,jsons/VE125_randls_46.json,659458,1866807,35,Man
76,478211,DepthScenes,duration_manipulation_targetAtFixation,jsons/VE125_randls_46.json,http://54.235.29.9/FacialAge/BNav_EC2/DepthDuration/v2_depth_duration_MTurk/v2_DepthDuration_HTML.html#281,281,1920,1099,1920,1200,8-29-2022,13-33-11,77,depth_duration_stimuli/003070_2014-06-15_14-58-27_094959634447_rgbf000150-resize_3/003070_2014-06-15_14-58-27_094959634447_rgbf000150-resize_3-target.png,125,2.9415,8.0,5467,125,feet,jsons/VE125_randls_46.json,659458,1866807,35,Man
77,478211,DepthScenes,duration_manipulation_targetAtFixation,jsons/VE125_randls_46.json,http://54.235.29.9/FacialAge/BNav_EC2/DepthDuration/v2_depth_duration_MTurk/v2_DepthDuration_HTML.html#281,281,1920,1099,1920,1200,8-29-2022,13-33-11,78,depth_duration_stimuli/000943_2014-06-09_19-31-07_260595134347_rgbf000128-resize_1/000943_2014-06-09_19-31-07_260595134347_rgbf000128-resize_1-target.png,125,1.9765,5.0,2843,125,feet,jsons/VE125_randls_46.json,659458,1866807,35,Man
78,478211,DepthScenes,duration_manipulation_targetAtFixation,jsons/VE125_randls_46.json,http://54.235.29.9/FacialAge/BNav_EC2/DepthDuration/v2_depth_duration_MTurk/v2_DepthDuration_HTML.html#281,281,1920,1099,1920,1200,8-29-2022,13-33-11,79,depth_duration_stimuli/000368_2014-06-09_15-53-01_260595134347_rgbf000155-resize_2/000368_2014-06-09_15-53-01_260595134347_rgbf000155-resize_2-target.png,125,2.4859999999999998,6.0,1991,125,feet,jsons/VE125_randls_46.json,659458,1866807,35,Man
79,478211,DepthScenes,duration_manipulation_targetAtFixation,jsons/VE125_randls_46.json,http://54.235.29.9/FacialAge/BNav_EC2/DepthDuration/v2_depth_duration_MTurk/v2_DepthDuration_HTML.html#281,281,1920,1099,1920,1200,8-29-2022,13-33-11,80,depth_duration_stimuli/002678_2014-06-13_16-15-32_094959634447_rgbf000151-resize_6/002678_2014-06-13_16-15-32_094959634447_rgbf000151-resize_6-target.png,125,2.1830000000000003,11.0,3226,124,feet,jsons/VE125_randls_46.json,659458,1866807,35,Man
80,478211,DepthScenes,duration_manipulation_targetAtFixation,jsons/VE125_randls_46.json,http://54.235.29.9/FacialAge/BNav_EC2/DepthDuration/v2_depth_duration_MTurk/v2_DepthDuration_HTML.html#281,281,1920,1099,1920,1200,8-29-2022,13-33-11,81,depth_duration_stimuli/002905_2014-06-03_18-04-43_094959634447_rgbf000151-resize_2/002905_2014-06-03_18-04-43_094959634447_rgbf000151-resize_2-target.png,125,2.0295,5.0,1889,126,feet,jsons/VE125_randls_46.json,659458,1866807,35,Man
81,478211,DepthScenes,duration_manipulation_targetAtFixation,jsons/VE125_randls_46.json,http://54.235.29.9/FacialAge/BNav_EC2/DepthDuration/v2_depth_duration_MTurk/v2_DepthDuration_HTML.html#281,281,1920,1099,1920,1200,8-29-2022,13-33-11,82,depth_duration_stimuli/003423_2014-05-21_10-23-26_094959634447_rgbf002665-resize_2/003423_2014-05-21_10-23-26_094959634447_rgbf002665-resize_2-target.png,125,3.2575,10.0,3607,124,feet,jsons/VE125_randls_46.json,659458,1866807,35,Man
82,478211,DepthScenes,duration_manipulation_targetAtFixation,jsons/VE125_randls_46.json,http://54.235.29.9/FacialAge/BNav_EC2/DepthDuration/v2_depth_duration_MTurk/v2_DepthDuration_HTML.html#281,281,1920,1099,1920,1200,8-29-2022,13-33-11,83,depth_duration_stimuli/002375_2014-06-28_20-13-44_260595134347_rgbf000032-resize_1/002375_2014-06-28_20-13-44_260595134347_rgbf000032-resize_1-target.png,125,4.0175,8.0,2654,125,feet,jsons/VE125_randls_46.json,659458,1866807,35,Man
83,478211,DepthScenes,duration_manipulation_targetAtFixation,jsons/VE125_randls_46.json,http://54.235.29.9/FacialAge/BNav_EC2/DepthDuration/v2_depth_duration_MTurk/v2_DepthDuration_HTML.html#281,281,1920,1099,1920,1200,8-29-2022,13-33-11,84,depth_duration_stimuli/002657_2014-06-13_15-29-54_094959634447_rgbf000150-resize_1/002657_2014-06-13_15-29-54_094959634447_rgbf000150-resize_1-target.png,125,4.919,12.0,2201,125,feet,jsons/VE125_randls_46.json,659458,1866807,35,Man
84,478211,DepthScenes,duration_manipulation_targetAtFixation,jsons/VE125_randls_46.json,http://54.235.29.9/FacialAge/BNav_EC2/DepthDuration/v2_depth_duration_MTurk/v2_DepthDuration_HTML.html#281,281,1920,1099,1920,1200,8-29-2022,13-33-11,85,depth_duration_stimuli/000469_2014-06-09_19-42-10_260595134347_rgbf000081-resize_1/000469_2014-06-09_19-42-10_260595134347_rgbf000081-resize_1-target.png,125,1.652,5.0,1901,125,feet,jsons/VE125_randls_46.json,659458,1866807,35,Man
85,478211,DepthScenes,duration_manipulation_targetAtFixation,jsons/VE125_randls_46.json,http://54.235.29.9/FacialAge/BNav_EC2/DepthDuration/v2_depth_duration_MTurk/v2_DepthDuration_HTML.html#281,281,1920,1099,1920,1200,8-29-2022,13-33-11,86,depth_duration_stimuli/000483_2014-06-09_20-41-45_260595134347_rgbf000116-resize_4/000483_2014-06-09_20-41-45_260595134347_rgbf000116-resize_4-target.png,125,1.337,3.0,2736,125,feet,jsons/VE125_randls_46.json,659458,1866807,35,Man
86,478211,DepthScenes,duration_manipulation_targetAtFixation,jsons/VE125_randls_46.json,http://54.235.29.9/FacialAge/BNav_EC2/DepthDuration/v2_depth_duration_MTurk/v2_DepthDuration_HTML.html#281,281,1920,1099,1920,1200,8-29-2022,13-33-11,87,depth_duration_stimuli/001011_2014-06-08_23-18-54_260595134347_rgbf000044-resize_4/001011_2014-06-08_23-18-54_260595134347_rgbf000044-resize_4-target.png,125,2.4730000000000003,8.0,2195,125,feet,jsons/VE125_randls_46.json,659458,1866807,35,Man
87,478211,DepthScenes,duration_manipulation_targetAtFixation,jsons/VE125_randls_46.json,http://54.235.29.9/FacialAge/BNav_EC2/DepthDuration/v2_depth_duration_MTurk/v2_DepthDuration_HTML.html#281,281,1920,1099,1920,1200,8-29-2022,13-33-11,88,depth_duration_stimuli/002875_2014-06-01_15-19-00_094959634447_rgbf000151-resize_1/002875_2014-06-01_15-19-00_094959634447_rgbf000151-resize_1-target.png,125,1.9675,6.0,2911,125,feet,jsons/VE125_randls_46.json,659458,1866807,35,Man
88,478211,DepthScenes,duration_manipulation_targetAtFixation,jsons/VE125_randls_46.json,http://54.235.29.9/FacialAge/BNav_EC2/DepthDuration/v2_depth_duration_MTurk/v2_DepthDuration_HTML.html#281,281,1920,1099,1920,1200,8-29-2022,13-33-11,89,depth_duration_stimuli/000788_2014-06-08_22-34-36_260595134347_rgbf000131-resize_1/000788_2014-06-08_22-34-36_260595134347_rgbf000131-resize_1-target.png,125,3.359,7.0,2300,125,feet,jsons/VE125_randls_46.json,659458,1866807,35,Man
89,478211,DepthScenes,duration_manipulation_targetAtFixation,jsons/VE125_randls_46.json,http://54.235.29.9/FacialAge/BNav_EC2/DepthDuration/v2_depth_duration_MTurk/v2_DepthDuration_HTML.html#281,281,1920,1099,1920,1200,8-29-2022,13-33-11,90,depth_duration_stimuli/001235_2014-06-17_16-37-36_260595134347_rgbf000084-resize_4/001235_2014-06-17_16-37-36_260595134347_rgbf000084-resize_4-target.png,125,3.6605,8.0,2003,124,feet,jsons/VE125_randls_46.json,659458,1866807,35,Man
90,478211,DepthScenes,duration_manipulation_targetAtFixation,jsons/VE125_randls_46.json,http://54.235.29.9/FacialAge/BNav_EC2/DepthDuration/v2_depth_duration_MTurk/v2_DepthDuration_HTML.html#281,281,1920,1099,1920,1200,8-29-2022,13-33-11,91,depth_duration_stimuli/003292_2014-05-14_21-53-49_094959634447_rgbf000100-resize_2/003292_2014-05-14_21-53-49_094959634447_rgbf000100-resize_2-target.png,125,3.4815,8.0,4273,124,feet,jsons/VE125_randls_46.json,659458,1866807,35,Man
91,478211,DepthScenes,duration_manipulation_targetAtFixation,jsons/VE125_randls_46.json,http://54.235.29.9/FacialAge/BNav_EC2/DepthDuration/v2_depth_duration_MTurk/v2_DepthDuration_HTML.html#281,281,1920,1099,1920,1200,8-29-2022,13-33-11,92,depth_duration_stimuli/002639_2014-06-24_14-51-37_094959634447_rgbf000074-resize_4/002639_2014-06-24_14-51-37_094959634447_rgbf000074-resize_4-target.png,125,4.0375,10.0,3124,123,feet,jsons/VE125_randls_46.json,659458,1866807,35,Man
92,478211,DepthScenes,duration_manipulation_targetAtFixation,jsons/VE125_randls_46.json,http://54.235.29.9/FacialAge/BNav_EC2/DepthDuration/v2_depth_duration_MTurk/v2_DepthDuration_HTML.html#281,281,1920,1099,1920,1200,8-29-2022,13-33-11,93,depth_duration_stimuli/000470_2014-06-09_19-42-40_260595134347_rgbf000094-resize_1/000470_2014-06-09_19-42-40_260595134347_rgbf000094-resize_1-target.png,125,1.831,5.0,2128,124,feet,jsons/VE125_randls_46.json,659458,1866807,35,Man
93,478211,DepthScenes,duration_manipulation_targetAtFixation,jsons/VE125_randls_46.json,http://54.235.29.9/FacialAge/BNav_EC2/DepthDuration/v2_depth_duration_MTurk/v2_DepthDuration_HTML.html#281,281,1920,1099,1920,1200,8-29-2022,13-33-11,94,depth_duration_stimuli/000109_2014-05-14_23-41-52_260595134347_rgbf000035-resize_9/000109_2014-05-14_23-41-52_260595134347_rgbf000035-resize_9-target.png,125,1.3545,4.0,1670,126,feet,jsons/VE125_randls_46.json,659458,1866807,35,Man
94,478211,DepthScenes,duration_manipulation_targetAtFixation,jsons/VE125_randls_46.json,http://54.235.29.9/FacialAge/BNav_EC2/DepthDuration/v2_depth_duration_MTurk/v2_DepthDuration_HTML.html#281,281,1920,1099,1920,1200,8-29-2022,13-33-11,95,depth_duration_stimuli/000682_2014-06-08_23-14-58_260595134347_rgbf000041-resize_5/000682_2014-06-08_23-14-58_260595134347_rgbf000041-resize_5-target.png,125,2.7239999999999998,6.0,2896,124,feet,jsons/VE125_randls_46.json,659458,1866807,35,Man
95,478211,DepthScenes,duration_manipulation_targetAtFixation,jsons/VE125_randls_46.json,http://54.235.29.9/FacialAge/BNav_EC2/DepthDuration/v2_depth_duration_MTurk/v2_DepthDuration_HTML.html#281,281,1920,1099,1920,1200,8-29-2022,13-33-11,96,depth_duration_stimuli/001650_2014-06-20_12-09-00_260595134347_rgbf000087-resize_3/001650_2014-06-20_12-09-00_260595134347_rgbf000087-resize_3-target.png,125,1.9505,2.0,2096,126,feet,jsons/VE125_randls_46.json,659458,1866807,35,Man
96,478211,DepthScenes,duration_manipulation_targetAtFixation,jsons/VE125_randls_46.json,http://54.235.29.9/FacialAge/BNav_EC2/DepthDuration/v2_depth_duration_MTurk/v2_DepthDuration_HTML.html#281,281,1920,1099,1920,1200,8-29-2022,13-33-11,97,depth_duration_stimuli/000436_2014-06-09_22-25-11_260595134347_rgbf000137-resize_1/000436_2014-06-09_22-25-11_260595134347_rgbf000137-resize_1-target.png,125,4.0705,13.0,2787,125,feet,jsons/VE125_randls_46.json,659458,1866807,35,Man
97,478211,DepthScenes,duration_manipulation_targetAtFixation,jsons/VE125_randls_46.json,http://54.235.29.9/FacialAge/BNav_EC2/DepthDuration/v2_depth_duration_MTurk/v2_DepthDuration_HTML.html#281,281,1920,1099,1920,1200,8-29-2022,13-33-11,98,depth_duration_stimuli/002444_2014-06-28_20-32-08_260595134347_rgbf000027-resize_0/002444_2014-06-28_20-32-08_260595134347_rgbf000027-resize_0-target.png,125,4.388999999999999,9.0,4810,124,feet,jsons/VE125_randls_46.json,659458,1866807,35,Man
98,478211,DepthScenes,duration_manipulation_targetAtFixation,jsons/VE125_randls_46.json,http://54.235.29.9/FacialAge/BNav_EC2/DepthDuration/v2_depth_duration_MTurk/v2_DepthDuration_HTML.html#281,281,1920,1099,1920,1200,8-29-2022,13-33-11,99,depth_duration_stimuli/001540_2014-06-20_17-01-05_260595134347_rgbf000086-resize_2/001540_2014-06-20_17-01-05_260595134347_rgbf000086-resize-original.jpg,125,1.459,0.0,2152,124,feet,jsons/VE125_randls_46.json,659458,1866807,35,Man
99,478211,DepthScenes,duration_manipulation_targetAtFixation,jsons/VE125_randls_46.json,http://54.235.29.9/FacialAge/BNav_EC2/DepthDuration/v2_depth_duration_MTurk/v2_DepthDuration_HTML.html#281,281,1920,1099,1920,1200,8-29-2022,13-33-11,100,depth_duration_stimuli/002043_2014-06-24_20-29-38_260595134347_rgbf000039-resize_4/002043_2014-06-24_20-29-38_260595134347_rgbf000039-resize_4-target.png,125,2.8435,10.0,2577,125,feet,jsons/VE125_randls_46.json,659458,1866807,35,Man
100,478211,DepthScenes,duration_manipulation_targetAtFixation,jsons/VE125_randls_46.json,http://54.235.29.9/FacialAge/BNav_EC2/DepthDuration/v2_depth_duration_MTurk/v2_DepthDuration_HTML.html#281,281,1920,1099,1920,1200,8-29-2022,13-33-11,101,depth_duration_stimuli/003048_2014-06-15_13-49-43_094959634447_rgbf000150-resize_1/003048_2014-06-15_13-49-43_094959634447_rgbf000150-resize_1-target.png,125,4.0035,10.0,2986,125,feet,jsons/VE125_randls_46.json,659458,1866807,35,Man
101,478211,DepthScenes,duration_manipulation_targetAtFixation,jsons/VE125_randls_46.json,http://54.235.29.9/FacialAge/BNav_EC2/DepthDuration/v2_depth_duration_MTurk/v2_DepthDuration_HTML.html#281,281,1920,1099,1920,1200,8-29-2022,13-33-11,102,depth_duration_stimuli/000917_2014-06-09_22-45-29_260595134347_rgbf000149-resize_3/000917_2014-06-09_22-45-29_260595134347_rgbf000149-resize_3-target.png,125,4.1865,12.0,4381,125,feet,jsons/VE125_randls_46.json,659458,1866807,35,Man
102,478211,DepthScenes,duration_manipulation_targetAtFixation,jsons/VE125_randls_46.json,http://54.235.29.9/FacialAge/BNav_EC2/DepthDuration/v2_depth_duration_MTurk/v2_DepthDuration_HTML.html#281,281,1920,1099,1920,1200,8-29-2022,13-33-11,103,depth_duration_stimuli/002323_2014-06-28_20-01-54_260595134347_rgbf000051-resize_4/002323_2014-06-28_20-01-54_260595134347_rgbf000051-resize_4-target.png,125,3.7310000000000003,8.0,3006,125,feet,jsons/VE125_randls_46.json,659458,1866807,35,Man
103,478211,DepthScenes,duration_manipulation_targetAtFixation,jsons/VE125_randls_46.json,http://54.235.29.9/FacialAge/BNav_EC2/DepthDuration/v2_depth_duration_MTurk/v2_DepthDuration_HTML.html#281,281,1920,1099,1920,1200,8-29-2022,13-33-11,104,depth_duration_stimuli/000486_2014-06-09_20-47-20_260595134347_rgbf000143-resize_2/000486_2014-06-09_20-47-20_260595134347_rgbf000143-resize_2-target.png,125,4.8325,9.0,2784,125,feet,jsons/VE125_randls_46.json,659458,1866807,35,Man
104,478211,DepthScenes,duration_manipulation_targetAtFixation,jsons/VE125_randls_46.json,http://54.235.29.9/FacialAge/BNav_EC2/DepthDuration/v2_depth_duration_MTurk/v2_DepthDuration_HTML.html#281,281,1920,1099,1920,1200,8-29-2022,13-33-11,105,depth_duration_stimuli/003083_2014-06-15_15-21-03_094959634447_rgbf000063-resize_1/003083_2014-06-15_15-21-03_094959634447_rgbf000063-resize_1-target.png,125,4.1405,10.0,2755,125,feet,jsons/VE125_randls_46.json,659458,1866807,35,Man
105,478211,DepthScenes,duration_manipulation_targetAtFixation,jsons/VE125_randls_46.json,http://54.235.29.9/FacialAge/BNav_EC2/DepthDuration/v2_depth_duration_MTurk/v2_DepthDuration_HTML.html#281,281,1920,1099,1920,1200,8-29-2022,13-33-11,106,depth_duration_stimuli/000773_2014-06-08_22-24-54_260595134347_rgbf000093-resize_1/000773_2014-06-08_22-24-54_260595134347_rgbf000093-resize_1-target.png,125,4.973,10.0,10687,124,feet,jsons/VE125_randls_46.json,659458,1866807,35,Man
106,478211,DepthScenes,duration_manipulation_targetAtFixation,jsons/VE125_randls_46.json,http://54.235.29.9/FacialAge/BNav_EC2/DepthDuration/v2_depth_duration_MTurk/v2_DepthDuration_HTML.html#281,281,1920,1099,1920,1200,8-29-2022,13-33-11,107,depth_duration_stimuli/002414_2014-06-28_20-24-58_260595134347_rgbf000067-resize_4/002414_2014-06-28_20-24-58_260595134347_rgbf000067-resize_4-target.png,125,4.363,8.0,10410,125,feet,jsons/VE125_randls_46.json,659458,1866807,35,Man
107,478211,DepthScenes,duration_manipulation_targetAtFixation,jsons/VE125_randls_46.json,http://54.235.29.9/FacialAge/BNav_EC2/DepthDuration/v2_depth_duration_MTurk/v2_DepthDuration_HTML.html#281,281,1920,1099,1920,1200,8-29-2022,13-33-11,108,depth_duration_stimuli/000906_2014-06-08_13-35-43_260595134347_rgbf000155-resize_1/000906_2014-06-08_13-35-43_260595134347_rgbf000155-resize_1-target.png,125,2.8489999999999998,7.0,4796,124,feet,jsons/VE125_randls_46.json,659458,1866807,35,Man
108,478211,DepthScenes,duration_manipulation_targetAtFixation,jsons/VE125_randls_46.json,http://54.235.29.9/FacialAge/BNav_EC2/DepthDuration/v2_depth_duration_MTurk/v2_DepthDuration_HTML.html#281,281,1920,1099,1920,1200,8-29-2022,13-33-11,109,depth_duration_stimuli/002805_2014-06-22_19-54-03_094959634447_rgbf000079-resize_1/002805_2014-06-22_19-54-03_094959634447_rgbf000079-resize_1-target.png,125,3.1439999999999997,6.0,4474,124,feet,jsons/VE125_randls_46.json,659458,1866807,35,Man
109,478211,DepthScenes,duration_manipulation_targetAtFixation,jsons/VE125_randls_46.json,http://54.235.29.9/FacialAge/BNav_EC2/DepthDuration/v2_depth_duration_MTurk/v2_DepthDuration_HTML.html#281,281,1920,1099,1920,1200,8-29-2022,13-33-11,110,depth_duration_stimuli/001110_2014-06-15_17-25-28_260595134347_rgbf000150-resize_1/001110_2014-06-15_17-25-28_260595134347_rgbf000150-resize_1-target.png,125,1.7115,0.0,5846,124,feet,jsons/VE125_randls_46.json,659458,1866807,35,Man
110,478211,DepthScenes,duration_manipulation_targetAtFixation,jsons/VE125_randls_46.json,http://54.235.29.9/FacialAge/BNav_EC2/DepthDuration/v2_depth_duration_MTurk/v2_DepthDuration_HTML.html#281,281,1920,1099,1920,1200,8-29-2022,13-33-11,111,depth_duration_stimuli/000927_2014-06-09_16-32-30_260595134347_rgbf000123-resize_3/000927_2014-06-09_16-32-30_260595134347_rgbf000123-resize_3-target.png,125,2.6785,6.0,2399,125,feet,jsons/VE125_randls_46.json,659458,1866807,35,Man
111,478211,DepthScenes,duration_manipulation_targetAtFixation,jsons/VE125_randls_46.json,http://54.235.29.9/FacialAge/BNav_EC2/DepthDuration/v2_depth_duration_MTurk/v2_DepthDuration_HTML.html#281,281,1920,1099,1920,1200,8-29-2022,13-33-11,112,depth_duration_stimuli/002663_2014-06-13_15-50-26_094959634447_rgbf000075-resize_1/002663_2014-06-13_15-50-26_094959634447_rgbf000075-resize_1-target.png,125,4.7495,8.0,6171,124,feet,jsons/VE125_randls_46.json,659458,1866807,35,Man
112,478211,DepthScenes,duration_manipulation_targetAtFixation,jsons/VE125_randls_46.json,http://54.235.29.9/FacialAge/BNav_EC2/DepthDuration/v2_depth_duration_MTurk/v2_DepthDuration_HTML.html#281,281,1920,1099,1920,1200,8-29-2022,13-33-11,113,depth_duration_stimuli/000409_2014-06-04_19-23-33_260595134347_rgbf000067-resize_0/000409_2014-06-04_19-23-33_260595134347_rgbf000067-resize_0-target.png,125,3.7335,10.0,4089,125,feet,jsons/VE125_randls_46.json,659458,1866807,35,Man
113,478211,DepthScenes,duration_manipulation_targetAtFixation,jsons/VE125_randls_46.json,http://54.235.29.9/FacialAge/BNav_EC2/DepthDuration/v2_depth_duration_MTurk/v2_DepthDuration_HTML.html#281,281,1920,1099,1920,1200,8-29-2022,13-33-11,114,depth_duration_stimuli/002988_2014-06-15_12-24-20_094959634447_rgbf000150-resize_1/002988_2014-06-15_12-24-20_094959634447_rgbf000150-resize_1-target.png,125,4.7669999999999995,6.0,3948,125,feet,jsons/VE125_randls_46.json,659458,1866807,35,Man
114,478211,DepthScenes,duration_manipulation_targetAtFixation,jsons/VE125_randls_46.json,http://54.235.29.9/FacialAge/BNav_EC2/DepthDuration/v2_depth_duration_MTurk/v2_DepthDuration_HTML.html#281,281,1920,1099,1920,1200,8-29-2022,13-33-11,115,depth_duration_stimuli/001052_2014-06-08_18-24-54_260595134347_rgbf000130-resize_1/001052_2014-06-08_18-24-54_260595134347_rgbf000130-resize_1-target.png,125,4.1045,8.0,4334,125,feet,jsons/VE125_randls_46.json,659458,1866807,35,Man
115,478211,DepthScenes,duration_manipulation_targetAtFixation,jsons/VE125_randls_46.json,http://54.235.29.9/FacialAge/BNav_EC2/DepthDuration/v2_depth_duration_MTurk/v2_DepthDuration_HTML.html#281,281,1920,1099,1920,1200,8-29-2022,13-33-11,116,depth_duration_stimuli/001170_2014-06-17_15-43-44_260595134347_rgbf000096-resize_6/001170_2014-06-17_15-43-44_260595134347_rgbf000096-resize-original.jpg,125,1.1909999999999998,0.0,2553,125,feet,jsons/VE125_randls_46.json,659458,1866807,35,Man
116,478211,DepthScenes,duration_manipulation_targetAtFixation,jsons/VE125_randls_46.json,http://54.235.29.9/FacialAge/BNav_EC2/DepthDuration/v2_depth_duration_MTurk/v2_DepthDuration_HTML.html#281,281,1920,1099,1920,1200,8-29-2022,13-33-11,117,depth_duration_stimuli/002213_2014-06-28_18-37-58_260595134347_rgbf000055-resize_1/002213_2014-06-28_18-37-58_260595134347_rgbf000055-resize_1-target.png,125,3.62,6.0,4313,124,feet,jsons/VE125_randls_46.json,659458,1866807,35,Man
117,478211,DepthScenes,duration_manipulation_targetAtFixation,jsons/VE125_randls_46.json,http://54.235.29.9/FacialAge/BNav_EC2/DepthDuration/v2_depth_duration_MTurk/v2_DepthDuration_HTML.html#281,281,1920,1099,1920,1200,8-29-2022,13-33-11,118,depth_duration_stimuli/000691_2014-06-08_13-08-50_260595134347_rgbf000132-resize_3/000691_2014-06-08_13-08-50_260595134347_rgbf000132-resize_3-target.png,125,4.1530000000000005,8.0,1884,124,feet,jsons/VE125_randls_46.json,659458,1866807,35,Man
118,478211,DepthScenes,duration_manipulation_targetAtFixation,jsons/VE125_randls_46.json,http://54.235.29.9/FacialAge/BNav_EC2/DepthDuration/v2_depth_duration_MTurk/v2_DepthDuration_HTML.html#281,281,1920,1099,1920,1200,8-29-2022,13-33-11,119,depth_duration_stimuli/001133_2014-06-17_14-49-16_260595134347_rgbf000100-resize_0/001133_2014-06-17_14-49-16_260595134347_rgbf000100-resize_0-target.png,125,4.2115,10.0,2409,125,feet,jsons/VE125_randls_46.json,659458,1866807,35,Man
119,478211,DepthScenes,duration_manipulation_targetAtFixation,jsons/VE125_randls_46.json,http://54.235.29.9/FacialAge/BNav_EC2/DepthDuration/v2_depth_duration_MTurk/v2_DepthDuration_HTML.html#281,281,1920,1099,1920,1200,8-29-2022,13-33-11,120,depth_duration_stimuli/001132_2014-06-17_14-48-54_260595134347_rgbf000100-resize_2/001132_2014-06-17_14-48-54_260595134347_rgbf000100-resize_2-target.png,125,3.753,8.0,4476,125,feet,jsons/VE125_randls_46.json,659458,1866807,35,Man
120,478211,DepthScenes,duration_manipulation_targetAtFixation,jsons/VE125_randls_46.json,http://54.235.29.9/FacialAge/BNav_EC2/DepthDuration/v2_depth_duration_MTurk/v2_DepthDuration_HTML.html#281,281,1920,1099,1920,1200,8-29-2022,13-33-11,121,depth_duration_stimuli/002600_2014-06-24_14-27-04_094959634447_rgbf000074-resize_2/002600_2014-06-24_14-27-04_094959634447_rgbf000074-resize_2-target.png,125,2.7575,6.0,4828,126,feet,jsons/VE125_randls_46.json,659458,1866807,35,Man
121,478211,DepthScenes,duration_manipulation_targetAtFixation,jsons/VE125_randls_46.json,http://54.235.29.9/FacialAge/BNav_EC2/DepthDuration/v2_depth_duration_MTurk/v2_DepthDuration_HTML.html#281,281,1920,1099,1920,1200,8-29-2022,13-33-11,122,depth_duration_stimuli/003228_2014-05-14_13-42-35_094959634447_rgbf000101-resize_1/003228_2014-05-14_13-42-35_094959634447_rgbf000101-resize_1-target.png,125,1.9680000000000002,5.0,1947,124,feet,jsons/VE125_randls_46.json,659458,1866807,35,Man
122,478211,DepthScenes,duration_manipulation_targetAtFixation,jsons/VE125_randls_46.json,http://54.235.29.9/FacialAge/BNav_EC2/DepthDuration/v2_depth_duration_MTurk/v2_DepthDuration_HTML.html#281,281,1920,1099,1920,1200,8-29-2022,13-33-11,123,depth_duration_stimuli/002549_2014-06-24_13-41-39_094959634447_rgbf000022-resize_3/002549_2014-06-24_13-41-39_094959634447_rgbf000022-resize_3-target.png,125,1.476,3.0,2090,125,feet,jsons/VE125_randls_46.json,659458,1866807,35,Man
123,478211,DepthScenes,duration_manipulation_targetAtFixation,jsons/VE125_randls_46.json,http://54.235.29.9/FacialAge/BNav_EC2/DepthDuration/v2_depth_duration_MTurk/v2_DepthDuration_HTML.html#281,281,1920,1099,1920,1200,8-29-2022,13-33-11,124,depth_duration_stimuli/002750_2014-06-22_19-08-03_094959634447_rgbf000094-resize_4/002750_2014-06-22_19-08-03_094959634447_rgbf000094-resize_4-target.png,125,2.354,6.0,4092,127,feet,jsons/VE125_randls_46.json,659458,1866807,35,Man
124,478211,DepthScenes,duration_manipulation_targetAtFixation,jsons/VE125_randls_46.json,http://54.235.29.9/FacialAge/BNav_EC2/DepthDuration/v2_depth_duration_MTurk/v2_DepthDuration_HTML.html#281,281,1920,1099,1920,1200,8-29-2022,13-33-11,125,depth_duration_stimuli/000692_2014-06-08_13-09-42_260595134347_rgbf000199-resize_2/000692_2014-06-08_13-09-42_260595134347_rgbf000199-resize_2-target.png,125,3.661,10.0,2811,123,feet,jsons/VE125_randls_46.json,659458,1866807,35,Man
125,478211,DepthScenes,duration_manipulation_targetAtFixation,jsons/VE125_randls_46.json,http://54.235.29.9/FacialAge/BNav_EC2/DepthDuration/v2_depth_duration_MTurk/v2_DepthDuration_HTML.html#281,281,1920,1099,1920,1200,8-29-2022,13-33-11,126,depth_duration_stimuli/001094_2014-06-15_17-36-00_260595134347_rgbf000205-resize_0/001094_2014-06-15_17-36-00_260595134347_rgbf000205-resize_0-target.png,125,4.2175,11.0,2426,125,feet,jsons/VE125_randls_46.json,659458,1866807,35,Man
126,478211,DepthScenes,duration_manipulation_targetAtFixation,jsons/VE125_randls_46.json,http://54.235.29.9/FacialAge/BNav_EC2/DepthDuration/v2_depth_duration_MTurk/v2_DepthDuration_HTML.html#281,281,1920,1099,1920,1200,8-29-2022,13-33-11,127,depth_duration_stimuli/001029_2014-06-08_13-17-57_260595134347_rgbf000065-resize_1/001029_2014-06-08_13-17-57_260595134347_rgbf000065-resize_1-target.png,125,3.0835,5.0,2715,124,feet,jsons/VE125_randls_46.json,659458,1866807,35,Man
127,478211,DepthScenes,duration_manipulation_targetAtFixation,jsons/VE125_randls_46.json,http://54.235.29.9/FacialAge/BNav_EC2/DepthDuration/v2_depth_duration_MTurk/v2_DepthDuration_HTML.html#281,281,1920,1099,1920,1200,8-29-2022,13-33-11,128,depth_duration_stimuli/000677_2014-06-08_23-10-32_260595134347_rgbf000158-resize_6/000677_2014-06-08_23-10-32_260595134347_rgbf000158-resize_6-target.png,125,3.556,8.0,4218,124,feet,jsons/VE125_randls_46.json,659458,1866807,35,Man
128,478211,DepthScenes,duration_manipulation_targetAtFixation,jsons/VE125_randls_46.json,http://54.235.29.9/FacialAge/BNav_EC2/DepthDuration/v2_depth_duration_MTurk/v2_DepthDuration_HTML.html#281,281,1920,1099,1920,1200,8-29-2022,13-33-11,129,depth_duration_stimuli/001158_2014-06-17_15-32-16_260595134347_rgbf000138-resize_2/001158_2014-06-17_15-32-16_260595134347_rgbf000138-resize_2-target.png,125,4.5315,9.0,3149,124,feet,jsons/VE125_randls_46.json,659458,1866807,35,Man
129,478211,DepthScenes,duration_manipulation_targetAtFixation,jsons/VE125_randls_46.json,http://54.235.29.9/FacialAge/BNav_EC2/DepthDuration/v2_depth_duration_MTurk/v2_DepthDuration_HTML.html#281,281,1920,1099,1920,1200,8-29-2022,13-33-11,130,depth_duration_stimuli/000556_2014-06-09_22-42-56_260595134347_rgbf000214-resize_1/000556_2014-06-09_22-42-56_260595134347_rgbf000214-resize_1-target.png,125,4.8415,10.0,2893,125,feet,jsons/VE125_randls_46.json,659458,1866807,35,Man
130,478211,DepthScenes,duration_manipulation_targetAtFixation,jsons/VE125_randls_46.json,http://54.235.29.9/FacialAge/BNav_EC2/DepthDuration/v2_depth_duration_MTurk/v2_DepthDuration_HTML.html#281,281,1920,1099,1920,1200,8-29-2022,13-33-11,131,depth_duration_stimuli/001164_2014-06-17_15-35-46_260595134347_rgbf000085-resize_3/001164_2014-06-17_15-35-46_260595134347_rgbf000085-resize_3-target.png,125,2.354,7.0,2458,123,feet,jsons/VE125_randls_46.json,659458,1866807,35,Man
131,478211,DepthScenes,duration_manipulation_targetAtFixation,jsons/VE125_randls_46.json,http://54.235.29.9/FacialAge/BNav_EC2/DepthDuration/v2_depth_duration_MTurk/v2_DepthDuration_HTML.html#281,281,1920,1099,1920,1200,8-29-2022,13-33-11,132,depth_duration_stimuli/001136_2014-06-17_15-19-41_260595134347_rgbf000076-resize_3/001136_2014-06-17_15-19-41_260595134347_rgbf000076-resize_3-target.png,125,1.8655,9.0,2524,124,feet,jsons/VE125_randls_46.json,659458,1866807,35,Man
132,478211,DepthScenes,duration_manipulation_targetAtFixation,jsons/VE125_randls_46.json,http://54.235.29.9/FacialAge/BNav_EC2/DepthDuration/v2_depth_duration_MTurk/v2_DepthDuration_HTML.html#281,281,1920,1099,1920,1200,8-29-2022,13-33-11,133,depth_duration_stimuli/002570_2014-06-24_13-59-54_094959634447_rgbf000059-resize_0/002570_2014-06-24_13-59-54_094959634447_rgbf000059-resize_0-target.png,125,4.037,7.0,3211,125,feet,jsons/VE125_randls_46.json,659458,1866807,35,Man
133,478211,DepthScenes,duration_manipulation_targetAtFixation,jsons/VE125_randls_46.json,http://54.235.29.9/FacialAge/BNav_EC2/DepthDuration/v2_depth_duration_MTurk/v2_DepthDuration_HTML.html#281,281,1920,1099,1920,1200,8-29-2022,13-33-11,134,depth_duration_stimuli/002467_2014-06-28_20-38-07_260595134347_rgbf000026-resize_2/002467_2014-06-28_20-38-07_260595134347_rgbf000026-resize_2-target.png,125,4.742,6.0,2074,124,feet,jsons/VE125_randls_46.json,659458,1866807,35,Man
134,478211,DepthScenes,duration_manipulation_targetAtFixation,jsons/VE125_randls_46.json,http://54.235.29.9/FacialAge/BNav_EC2/DepthDuration/v2_depth_duration_MTurk/v2_DepthDuration_HTML.html#281,281,1920,1099,1920,1200,8-29-2022,13-33-11,135,depth_duration_stimuli/002072_2014-06-24_21-48-06_260595134347_rgbf000115-resize_0/002072_2014-06-24_21-48-06_260595134347_rgbf000115-resize-original.jpg,125,4.702,0.0,1963,124,feet,jsons/VE125_randls_46.json,659458,1866807,35,Man
135,478211,DepthScenes,duration_manipulation_targetAtFixation,jsons/VE125_randls_46.json,http://54.235.29.9/FacialAge/BNav_EC2/DepthDuration/v2_depth_duration_MTurk/v2_DepthDuration_HTML.html#281,281,1920,1099,1920,1200,8-29-2022,13-33-11,136,depth_duration_stimuli/002788_2014-06-22_19-36-03_094959634447_rgbf000088-resize_2/002788_2014-06-22_19-36-03_094959634447_rgbf000088-resize_2-target.png,125,1.6465,8.0,1995,124,feet,jsons/VE125_randls_46.json,659458,1866807,35,Man
136,478211,DepthScenes,duration_manipulation_targetAtFixation,jsons/VE125_randls_46.json,http://54.235.29.9/FacialAge/BNav_EC2/DepthDuration/v2_depth_duration_MTurk/v2_DepthDuration_HTML.html#281,281,1920,1099,1920,1200,8-29-2022,13-33-11,137,depth_duration_stimuli/000749_2014-06-08_21-55-06_260595134347_rgbf000070-resize_2/000749_2014-06-08_21-55-06_260595134347_rgbf000070-resize_2-target.png,125,2.331,6.0,3547,125,feet,jsons/VE125_randls_46.json,659458,1866807,35,Man
137,478211,DepthScenes,duration_manipulation_targetAtFixation,jsons/VE125_randls_46.json,http://54.235.29.9/FacialAge/BNav_EC2/DepthDuration/v2_depth_duration_MTurk/v2_DepthDuration_HTML.html#281,281,1920,1099,1920,1200,8-29-2022,13-33-11,138,depth_duration_stimuli/001055_2014-06-08_18-45-35_260595134347_rgbf000111-resize_4/001055_2014-06-08_18-45-35_260595134347_rgbf000111-resize_4-target.png,125,2.4290000000000003,7.0,2699,125,feet,jsons/VE125_randls_46.json,659458,1866807,35,Man
138,478211,DepthScenes,duration_manipulation_targetAtFixation,jsons/VE125_randls_46.json,http://54.235.29.9/FacialAge/BNav_EC2/DepthDuration/v2_depth_duration_MTurk/v2_DepthDuration_HTML.html#281,281,1920,1099,1920,1200,8-29-2022,13-33-11,139,depth_duration_stimuli/000549_2014-06-08_22-10-24_260595134347_rgbf000247-resize_3/000549_2014-06-08_22-10-24_260595134347_rgbf000247-resize_3-target.png,125,1.841,3.0,2061,124,feet,jsons/VE125_randls_46.json,659458,1866807,35,Man
139,478211,DepthScenes,duration_manipulation_targetAtFixation,jsons/VE125_randls_46.json,http://54.235.29.9/FacialAge/BNav_EC2/DepthDuration/v2_depth_duration_MTurk/v2_DepthDuration_HTML.html#281,281,1920,1099,1920,1200,8-29-2022,13-33-11,140,depth_duration_stimuli/001175_2014-06-17_15-45-55_260595134347_rgbf000129-resize_4/001175_2014-06-17_15-45-55_260595134347_rgbf000129-resize_4-target.png,125,4.255,9.0,2233,124,feet,jsons/VE125_randls_46.json,659458,1866807,35,Man
140,478211,DepthScenes,duration_manipulation_targetAtFixation,jsons/VE125_randls_46.json,http://54.235.29.9/FacialAge/BNav_EC2/DepthDuration/v2_depth_duration_MTurk/v2_DepthDuration_HTML.html#281,281,1920,1099,1920,1200,8-29-2022,13-33-11,141,depth_duration_stimuli/003490_2014-05-21_15-50-11_094959634447_rgbf000101-resize_3/003490_2014-05-21_15-50-11_094959634447_rgbf000101-resize_3-target.png,125,3.6445,7.0,2443,125,feet,jsons/VE125_randls_46.json,659458,1866807,35,Man
141,478211,DepthScenes,duration_manipulation_targetAtFixation,jsons/VE125_randls_46.json,http://54.235.29.9/FacialAge/BNav_EC2/DepthDuration/v2_depth_duration_MTurk/v2_DepthDuration_HTML.html#281,281,1920,1099,1920,1200,8-29-2022,13-33-11,142,depth_duration_stimuli/000414_2014-06-04_19-49-13_260595134347_rgbf000044-resize_0/000414_2014-06-04_19-49-13_260595134347_rgbf000044-resize_0-target.png,125,4.329,10.0,4476,125,feet,jsons/VE125_randls_46.json,659458,1866807,35,Man
142,478211,DepthScenes,duration_manipulation_targetAtFixation,jsons/VE125_randls_46.json,http://54.235.29.9/FacialAge/BNav_EC2/DepthDuration/v2_depth_duration_MTurk/v2_DepthDuration_HTML.html#281,281,1920,1099,1920,1200,8-29-2022,13-33-11,143,depth_duration_stimuli/003129_2014-05-12_10-48-10_094959634447_rgbf000100-resize_0/003129_2014-05-12_10-48-10_094959634447_rgbf000100-resize_0-target.png,125,4.9305,8.0,2123,125,feet,jsons/VE125_randls_46.json,659458,1866807,35,Man
143,478211,DepthScenes,duration_manipulation_targetAtFixation,jsons/VE125_randls_46.json,http://54.235.29.9/FacialAge/BNav_EC2/DepthDuration/v2_depth_duration_MTurk/v2_DepthDuration_HTML.html#281,281,1920,1099,1920,1200,8-29-2022,13-33-11,144,depth_duration_stimuli/003534_2014-05-22_15-06-10_094959634447_rgbf000102-resize_4/003534_2014-05-22_15-06-10_094959634447_rgbf000102-resize_4-target.png,125,1.426,2.0,2058,124,feet,jsons/VE125_randls_46.json,659458,1866807,35,Man
144,478211,DepthScenes,duration_manipulation_targetAtFixation,jsons/VE125_randls_46.json,http://54.235.29.9/FacialAge/BNav_EC2/DepthDuration/v2_depth_duration_MTurk/v2_DepthDuration_HTML.html#281,281,1920,1099,1920,1200,8-29-2022,13-33-11,145,depth_duration_stimuli/002637_2014-06-24_14-51-13_094959634447_rgbf000066-resize_4/002637_2014-06-24_14-51-13_094959634447_rgbf000066-resize_4-target.png,125,1.9955,5.0,2026,124,feet,jsons/VE125_randls_46.json,659458,1866807,35,Man
145,478211,DepthScenes,duration_manipulation_targetAtFixation,jsons/VE125_randls_46.json,http://54.235.29.9/FacialAge/BNav_EC2/DepthDuration/v2_depth_duration_MTurk/v2_DepthDuration_HTML.html#281,281,1920,1099,1920,1200,8-29-2022,13-33-11,146,depth_duration_stimuli/001498_2014-06-19_17-45-14_260595134347_rgbf000129-resize_4/001498_2014-06-19_17-45-14_260595134347_rgbf000129-resize-original.jpg,125,1.4075,0.0,2316,124,feet,jsons/VE125_randls_46.json,659458,1866807,35,Man
146,478211,DepthScenes,duration_manipulation_targetAtFixation,jsons/VE125_randls_46.json,http://54.235.29.9/FacialAge/BNav_EC2/DepthDuration/v2_depth_duration_MTurk/v2_DepthDuration_HTML.html#281,281,1920,1099,1920,1200,8-29-2022,13-33-11,147,depth_duration_stimuli/001150_2014-06-17_15-27-34_260595134347_rgbf000108-resize_2/001150_2014-06-17_15-27-34_260595134347_rgbf000108-resize_2-target.png,125,4.0325,6.0,2668,125,feet,jsons/VE125_randls_46.json,659458,1866807,35,Man
147,478211,DepthScenes,duration_manipulation_targetAtFixation,jsons/VE125_randls_46.json,http://54.235.29.9/FacialAge/BNav_EC2/DepthDuration/v2_depth_duration_MTurk/v2_DepthDuration_HTML.html#281,281,1920,1099,1920,1200,8-29-2022,13-33-11,148,depth_duration_stimuli/000665_2014-06-09_20-42-35_260595134347_rgbf000110-resize_1/000665_2014-06-09_20-42-35_260595134347_rgbf000110-resize_1-target.png,125,3.057,7.0,4938,124,feet,jsons/VE125_randls_46.json,659458,1866807,35,Man
148,478211,DepthScenes,duration_manipulation_targetAtFixation,jsons/VE125_randls_46.json,http://54.235.29.9/FacialAge/BNav_EC2/DepthDuration/v2_depth_duration_MTurk/v2_DepthDuration_HTML.html#281,281,1920,1099,1920,1200,8-29-2022,13-33-11,149,depth_duration_stimuli/000009_2014-05-26_14-32-05_260595134347_rgbf000034-resize_3/000009_2014-05-26_14-32-05_260595134347_rgbf000034-resize_3-target.png,125,3.8715,8.0,3659,125,feet,jsons/VE125_randls_46.json,659458,1866807,35,Man
149,478211,DepthScenes,duration_manipulation_targetAtFixation,jsons/VE125_randls_46.json,http://54.235.29.9/FacialAge/BNav_EC2/DepthDuration/v2_depth_duration_MTurk/v2_DepthDuration_HTML.html#281,281,1920,1099,1920,1200,8-29-2022,13-33-11,150,depth_duration_stimuli/001828_2014-06-26_21-40-03_260595134347_rgbf000024-resize_0/001828_2014-06-26_21-40-03_260595134347_rgbf000024-resize_0-target.png,125,4.8260000000000005,7.0,2827,124,feet,jsons/VE125_randls_46.json,659458,1866807,35,Man
150,478211,DepthScenes,duration_manipulation_targetAtFixation,jsons/VE125_randls_46.json,http://54.235.29.9/FacialAge/BNav_EC2/DepthDuration/v2_depth_duration_MTurk/v2_DepthDuration_HTML.html#281,281,1920,1099,1920,1200,8-29-2022,13-33-11,151,depth_duration_stimuli/001810_2014-06-26_20-51-35_260595134347_rgbf000040-resize_3/001810_2014-06-26_20-51-35_260595134347_rgbf000040-resize_3-target.png,125,2.2525,4.0,1883,125,feet,jsons/VE125_randls_46.json,659458,1866807,35,Man
151,478211,DepthScenes,duration_manipulation_targetAtFixation,jsons/VE125_randls_46.json,http://54.235.29.9/FacialAge/BNav_EC2/DepthDuration/v2_depth_duration_MTurk/v2_DepthDuration_HTML.html#281,281,1920,1099,1920,1200,8-29-2022,13-33-11,152,depth_duration_stimuli/003010_2014-06-15_12-54-35_094959634447_rgbf000112-resize_0/003010_2014-06-15_12-54-35_094959634447_rgbf000112-resize_0-target.png,125,3.1185,6.0,1867,125,feet,jsons/VE125_randls_46.json,659458,1866807,35,Man
152,478211,DepthScenes,duration_manipulation_targetAtFixation,jsons/VE125_randls_46.json,http://54.235.29.9/FacialAge/BNav_EC2/DepthDuration/v2_depth_duration_MTurk/v2_DepthDuration_HTML.html#281,281,1920,1099,1920,1200,8-29-2022,13-33-11,153,depth_duration_stimuli/000493_2014-06-09_21-01-18_260595134347_rgbf000196-resize_3/000493_2014-06-09_21-01-18_260595134347_rgbf000196-resize_3-target.png,125,3.44,7.0,6700,125,feet,jsons/VE125_randls_46.json,659458,1866807,35,Man
153,478211,DepthScenes,duration_manipulation_targetAtFixation,jsons/VE125_randls_46.json,http://54.235.29.9/FacialAge/BNav_EC2/DepthDuration/v2_depth_duration_MTurk/v2_DepthDuration_HTML.html#281,281,1920,1099,1920,1200,8-29-2022,13-33-11,154,depth_duration_stimuli/000191_2014-05-12_17-07-38_260595134347_rgbf000199-resize_0/000191_2014-05-12_17-07-38_260595134347_rgbf000199-resize_0-target.png,125,3.7995,9.0,2073,125,feet,jsons/VE125_randls_46.json,659458,1866807,35,Man
154,478211,DepthScenes,duration_manipulation_targetAtFixation,jsons/VE125_randls_46.json,http://54.235.29.9/FacialAge/BNav_EC2/DepthDuration/v2_depth_duration_MTurk/v2_DepthDuration_HTML.html#281,281,1920,1099,1920,1200,8-29-2022,13-33-11,155,depth_duration_stimuli/003621_2014-05-23_18-06-08_094959634447_rgbf000101-resize_1/003621_2014-05-23_18-06-08_094959634447_rgbf000101-resize_1-target.png,125,3.9835,10.0,3147,125,feet,jsons/VE125_randls_46.json,659458,1866807,35,Man
155,478211,DepthScenes,duration_manipulation_targetAtFixation,jsons/VE125_randls_46.json,http://54.235.29.9/FacialAge/BNav_EC2/DepthDuration/v2_depth_duration_MTurk/v2_DepthDuration_HTML.html#281,281,1920,1099,1920,1200,8-29-2022,13-33-11,156,depth_duration_stimuli/001584_2014-06-20_11-07-43_260595134347_rgbf000002-resize_1/001584_2014-06-20_11-07-43_260595134347_rgbf000002-resize_1-target.png,125,3.53,6.0,2604,125,feet,jsons/VE125_randls_46.json,659458,1866807,35,Man
156,478211,DepthScenes,duration_manipulation_targetAtFixation,jsons/VE125_randls_46.json,http://54.235.29.9/FacialAge/BNav_EC2/DepthDuration/v2_depth_duration_MTurk/v2_DepthDuration_HTML.html#281,281,1920,1099,1920,1200,8-29-2022,13-33-11,157,depth_duration_stimuli/002748_2014-06-22_19-07-22_094959634447_rgbf000078-resize_1/002748_2014-06-22_19-07-22_094959634447_rgbf000078-resize_1-target.png,125,4.6705,8.0,1963,125,feet,jsons/VE125_randls_46.json,659458,1866807,35,Man
157,478211,DepthScenes,duration_manipulation_targetAtFixation,jsons/VE125_randls_46.json,http://54.235.29.9/FacialAge/BNav_EC2/DepthDuration/v2_depth_duration_MTurk/v2_DepthDuration_HTML.html#281,281,1920,1099,1920,1200,8-29-2022,13-33-11,158,depth_duration_stimuli/002995_2014-06-15_12-31-26_094959634447_rgbf000150-resize_1/002995_2014-06-15_12-31-26_094959634447_rgbf000150-resize_1-target.png,125,3.8360000000000003,6.0,1882,125,feet,jsons/VE125_randls_46.json,659458,1866807,35,Man
158,478211,DepthScenes,duration_manipulation_targetAtFixation,jsons/VE125_randls_46.json,http://54.235.29.9/FacialAge/BNav_EC2/DepthDuration/v2_depth_duration_MTurk/v2_DepthDuration_HTML.html#281,281,1920,1099,1920,1200,8-29-2022,13-33-11,159,depth_duration_stimuli/001570_2014-06-20_17-21-09_260595134347_rgbf000135-resize_4/001570_2014-06-20_17-21-09_260595134347_rgbf000135-resize_4-target.png,125,4.467,8.0,2715,124,feet,jsons/VE125_randls_46.json,659458,1866807,35,Man
159,478211,DepthScenes,duration_manipulation_targetAtFixation,jsons/VE125_randls_46.json,http://54.235.29.9/FacialAge/BNav_EC2/DepthDuration/v2_depth_duration_MTurk/v2_DepthDuration_HTML.html#281,281,1920,1099,1920,1200,8-29-2022,13-33-11,160,depth_duration_stimuli/001392_2014-06-19_16-07-59_260595134347_rgbf000046-resize_1/001392_2014-06-19_16-07-59_260595134347_rgbf000046-resize_1-target.png,125,4.135,7.0,2395,124,feet,jsons/VE125_randls_46.json,659458,1866807,35,Man
160,478211,DepthScenes,duration_manipulation_targetAtFixation,jsons/VE125_randls_46.json,http://54.235.29.9/FacialAge/BNav_EC2/DepthDuration/v2_depth_duration_MTurk/v2_DepthDuration_HTML.html#281,281,1920,1099,1920,1200,8-29-2022,13-33-11,161,depth_duration_stimuli/001449_2014-06-19_17-01-27_260595134347_rgbf000116-resize_2/001449_2014-06-19_17-01-27_260595134347_rgbf000116-resize_2-target.png,125,3.452,6.0,2155,124,feet,jsons/VE125_randls_46.json,659458,1866807,35,Man
161,478211,DepthScenes,duration_manipulation_targetAtFixation,jsons/VE125_randls_46.json,http://54.235.29.9/FacialAge/BNav_EC2/DepthDuration/v2_depth_duration_MTurk/v2_DepthDuration_HTML.html#281,281,1920,1099,1920,1200,8-29-2022,13-33-11,162,depth_duration_stimuli/001450_2014-06-19_17-02-03_260595134347_rgbf000203-resize_4/001450_2014-06-19_17-02-03_260595134347_rgbf000203-resize_4-target.png,125,4.0106666666667,7.0,6139,126,feet,jsons/VE125_randls_46.json,659458,1866807,35,Man
162,478211,DepthScenes,duration_manipulation_targetAtFixation,jsons/VE125_randls_46.json,http://54.235.29.9/FacialAge/BNav_EC2/DepthDuration/v2_depth_duration_MTurk/v2_DepthDuration_HTML.html#281,281,1920,1099,1920,1200,8-29-2022,13-33-11,163,depth_duration_stimuli/002153_2014-06-25_21-27-18_260595134347_rgbf000038-resize_5/002153_2014-06-25_21-27-18_260595134347_rgbf000038-resize_5-target.png,125,2.505,4.0,3226,124,feet,jsons/VE125_randls_46.json,659458,1866807,35,Man
163,478211,DepthScenes,duration_manipulation_targetAtFixation,jsons/VE125_randls_46.json,http://54.235.29.9/FacialAge/BNav_EC2/DepthDuration/v2_depth_duration_MTurk/v2_DepthDuration_HTML.html#281,281,1920,1099,1920,1200,8-29-2022,13-33-11,164,depth_duration_stimuli/002660_2014-06-13_15-44-18_094959634447_rgbf001878-resize_2/002660_2014-06-13_15-44-18_094959634447_rgbf001878-resize_2-target.png,125,3.576,6.0,2267,124,feet,jsons/VE125_randls_46.json,659458,1866807,35,Man
