,subjID,experimentName,versionName,sequenceName,url,selected_row,windowWidth,windowHeight,screenWidth,screenHeight,startDate,startTime,trial,stimulus,duration,actual_depth,depth_estimate,trial_RT,log_sceneDuration,unitSelection,seq_filepath,experimentTime,totalTime,age,gender
0,478315,DepthScenes,duration_manipulation_targetAtFixation,jsons/VE125_randls_45.json,http://54.235.29.9/FacialAge/BNav_EC2/DepthDuration/v2_depth_duration_MTurk/v2_DepthDuration_HTML.html#184,184,1366,625,1366,768,8-30-2022,10-54-5,1,depth_duration_stimuli/001158_2014-06-17_15-32-16_260595134347_rgbf000138-resize_2/001158_2014-06-17_15-32-16_260595134347_rgbf000138-resize_2-target.png,125,4.5315,0,2738,128,meters,jsons/VE125_randls_45.json,601521,731432,26,Man
1,478315,DepthScenes,duration_manipulation_targetAtFixation,jsons/VE125_randls_45.json,http://54.235.29.9/FacialAge/BNav_EC2/DepthDuration/v2_depth_duration_MTurk/v2_DepthDuration_HTML.html#184,184,1366,625,1366,768,8-30-2022,10-54-5,2,depth_duration_stimuli/000556_2014-06-09_22-42-56_260595134347_rgbf000214-resize_1/000556_2014-06-09_22-42-56_260595134347_rgbf000214-resize_1-target.png,125,4.8415,0,1878,140,meters,jsons/VE125_randls_45.json,601521,731432,26,Man
2,478315,DepthScenes,duration_manipulation_targetAtFixation,jsons/VE125_randls_45.json,http://54.235.29.9/FacialAge/BNav_EC2/DepthDuration/v2_depth_duration_MTurk/v2_DepthDuration_HTML.html#184,184,1366,625,1366,768,8-30-2022,10-54-5,3,depth_duration_stimuli/001110_2014-06-15_17-25-28_260595134347_rgbf000150-resize_1/001110_2014-06-15_17-25-28_260595134347_rgbf000150-resize_1-target.png,125,1.7115,0,2103,126,meters,jsons/VE125_randls_45.json,601521,731432,26,Man
3,478315,DepthScenes,duration_manipulation_targetAtFixation,jsons/VE125_randls_45.json,http://54.235.29.9/FacialAge/BNav_EC2/DepthDuration/v2_depth_duration_MTurk/v2_DepthDuration_HTML.html#184,184,1366,625,1366,768,8-30-2022,10-54-5,4,depth_duration_stimuli/000927_2014-06-09_16-32-30_260595134347_rgbf000123-resize_3/000927_2014-06-09_16-32-30_260595134347_rgbf000123-resize_3-target.png,125,2.6785,0,1995,126,meters,jsons/VE125_randls_45.json,601521,731432,26,Man
4,478315,DepthScenes,duration_manipulation_targetAtFixation,jsons/VE125_randls_45.json,http://54.235.29.9/FacialAge/BNav_EC2/DepthDuration/v2_depth_duration_MTurk/v2_DepthDuration_HTML.html#184,184,1366,625,1366,768,8-30-2022,10-54-5,5,depth_duration_stimuli/000906_2014-06-08_13-35-43_260595134347_rgbf000155-resize_1/000906_2014-06-08_13-35-43_260595134347_rgbf000155-resize_1-target.png,125,2.8489999999999998,0,2008,114,meters,jsons/VE125_randls_45.json,601521,731432,26,Man
5,478315,DepthScenes,duration_manipulation_targetAtFixation,jsons/VE125_randls_45.json,http://54.235.29.9/FacialAge/BNav_EC2/DepthDuration/v2_depth_duration_MTurk/v2_DepthDuration_HTML.html#184,184,1366,625,1366,768,8-30-2022,10-54-5,6,depth_duration_stimuli/002805_2014-06-22_19-54-03_094959634447_rgbf000079-resize_1/002805_2014-06-22_19-54-03_094959634447_rgbf000079-resize_1-target.png,125,3.1439999999999997,0,2061,124,meters,jsons/VE125_randls_45.json,601521,731432,26,Man
6,478315,DepthScenes,duration_manipulation_targetAtFixation,jsons/VE125_randls_45.json,http://54.235.29.9/FacialAge/BNav_EC2/DepthDuration/v2_depth_duration_MTurk/v2_DepthDuration_HTML.html#184,184,1366,625,1366,768,8-30-2022,10-54-5,7,depth_duration_stimuli/001808_2014-06-26_20-50-58_260595134347_rgbf000029-resize_1/001808_2014-06-26_20-50-58_260595134347_rgbf000029-resize_1-target.png,125,4.249,0,8132,114,meters,jsons/VE125_randls_45.json,601521,731432,26,Man
7,478315,DepthScenes,duration_manipulation_targetAtFixation,jsons/VE125_randls_45.json,http://54.235.29.9/FacialAge/BNav_EC2/DepthDuration/v2_depth_duration_MTurk/v2_DepthDuration_HTML.html#184,184,1366,625,1366,768,8-30-2022,10-54-5,8,depth_duration_stimuli/001815_2014-06-26_20-52-55_260595134347_rgbf000020-resize_0/001815_2014-06-26_20-52-55_260595134347_rgbf000020-resize_0-target.png,125,3.3865,0,13286,124,meters,jsons/VE125_randls_45.json,601521,731432,26,Man
8,478315,DepthScenes,duration_manipulation_targetAtFixation,jsons/VE125_randls_45.json,http://54.235.29.9/FacialAge/BNav_EC2/DepthDuration/v2_depth_duration_MTurk/v2_DepthDuration_HTML.html#184,184,1366,625,1366,768,8-30-2022,10-54-5,9,depth_duration_stimuli/001449_2014-06-19_17-01-27_260595134347_rgbf000116-resize_2/001449_2014-06-19_17-01-27_260595134347_rgbf000116-resize_2-target.png,125,3.452,0,2701,124,meters,jsons/VE125_randls_45.json,601521,731432,26,Man
9,478315,DepthScenes,duration_manipulation_targetAtFixation,jsons/VE125_randls_45.json,http://54.235.29.9/FacialAge/BNav_EC2/DepthDuration/v2_depth_duration_MTurk/v2_DepthDuration_HTML.html#184,184,1366,625,1366,768,8-30-2022,10-54-5,10,depth_duration_stimuli/001450_2014-06-19_17-02-03_260595134347_rgbf000203-resize_4/001450_2014-06-19_17-02-03_260595134347_rgbf000203-resize_4-target.png,125,4.0106666666667,0,2339,127,meters,jsons/VE125_randls_45.json,601521,731432,26,Man
10,478315,DepthScenes,duration_manipulation_targetAtFixation,jsons/VE125_randls_45.json,http://54.235.29.9/FacialAge/BNav_EC2/DepthDuration/v2_depth_duration_MTurk/v2_DepthDuration_HTML.html#184,184,1366,625,1366,768,8-30-2022,10-54-5,11,depth_duration_stimuli/000642_2014-06-08_16-59-25_260595134347_rgbf000098-resize_2/000642_2014-06-08_16-59-25_260595134347_rgbf000098-resize_2-target.png,125,2.8815,0,2469,125,meters,jsons/VE125_randls_45.json,601521,731432,26,Man
11,478315,DepthScenes,duration_manipulation_targetAtFixation,jsons/VE125_randls_45.json,http://54.235.29.9/FacialAge/BNav_EC2/DepthDuration/v2_depth_duration_MTurk/v2_DepthDuration_HTML.html#184,184,1366,625,1366,768,8-30-2022,10-54-5,12,depth_duration_stimuli/002425_2014-06-28_20-27-29_260595134347_rgbf000031-resize_8/002425_2014-06-28_20-27-29_260595134347_rgbf000031-resize_8-target.png,125,3.8960000000000004,0,2168,124,meters,jsons/VE125_randls_45.json,601521,731432,26,Man
12,478315,DepthScenes,duration_manipulation_targetAtFixation,jsons/VE125_randls_45.json,http://54.235.29.9/FacialAge/BNav_EC2/DepthDuration/v2_depth_duration_MTurk/v2_DepthDuration_HTML.html#184,184,1366,625,1366,768,8-30-2022,10-54-5,13,depth_duration_stimuli/000569_2014-06-09_22-51-47_260595134347_rgbf000141-resize_3/000569_2014-06-09_22-51-47_260595134347_rgbf000141-resize-original.jpg,125,4.512,0,2123,126,meters,jsons/VE125_randls_45.json,601521,731432,26,Man
13,478315,DepthScenes,duration_manipulation_targetAtFixation,jsons/VE125_randls_45.json,http://54.235.29.9/FacialAge/BNav_EC2/DepthDuration/v2_depth_duration_MTurk/v2_DepthDuration_HTML.html#184,184,1366,625,1366,768,8-30-2022,10-54-5,14,depth_duration_stimuli/003292_2014-05-14_21-53-49_094959634447_rgbf000100-resize_2/003292_2014-05-14_21-53-49_094959634447_rgbf000100-resize_2-target.png,125,3.4815,0,3795,125,meters,jsons/VE125_randls_45.json,601521,731432,26,Man
14,478315,DepthScenes,duration_manipulation_targetAtFixation,jsons/VE125_randls_45.json,http://54.235.29.9/FacialAge/BNav_EC2/DepthDuration/v2_depth_duration_MTurk/v2_DepthDuration_HTML.html#184,184,1366,625,1366,768,8-30-2022,10-54-5,15,depth_duration_stimuli/002639_2014-06-24_14-51-37_094959634447_rgbf000074-resize_4/002639_2014-06-24_14-51-37_094959634447_rgbf000074-resize_4-target.png,125,4.0375,0,17855,118,meters,jsons/VE125_randls_45.json,601521,731432,26,Man
15,478315,DepthScenes,duration_manipulation_targetAtFixation,jsons/VE125_randls_45.json,http://54.235.29.9/FacialAge/BNav_EC2/DepthDuration/v2_depth_duration_MTurk/v2_DepthDuration_HTML.html#184,184,1366,625,1366,768,8-30-2022,10-54-5,16,depth_duration_stimuli/002570_2014-06-24_13-59-54_094959634447_rgbf000059-resize_0/002570_2014-06-24_13-59-54_094959634447_rgbf000059-resize_0-target.png,125,4.037,0,3976,138,meters,jsons/VE125_randls_45.json,601521,731432,26,Man
16,478315,DepthScenes,duration_manipulation_targetAtFixation,jsons/VE125_randls_45.json,http://54.235.29.9/FacialAge/BNav_EC2/DepthDuration/v2_depth_duration_MTurk/v2_DepthDuration_HTML.html#184,184,1366,625,1366,768,8-30-2022,10-54-5,17,depth_duration_stimuli/002467_2014-06-28_20-38-07_260595134347_rgbf000026-resize_2/002467_2014-06-28_20-38-07_260595134347_rgbf000026-resize_2-target.png,125,4.742,0,2895,125,meters,jsons/VE125_randls_45.json,601521,731432,26,Man
17,478315,DepthScenes,duration_manipulation_targetAtFixation,jsons/VE125_randls_45.json,http://54.235.29.9/FacialAge/BNav_EC2/DepthDuration/v2_depth_duration_MTurk/v2_DepthDuration_HTML.html#184,184,1366,625,1366,768,8-30-2022,10-54-5,18,depth_duration_stimuli/002057_2014-06-24_21-00-13_260595134347_rgbf000120-resize_1/002057_2014-06-24_21-00-13_260595134347_rgbf000120-resize_1-target.png,125,2.967,0,2058,125,meters,jsons/VE125_randls_45.json,601521,731432,26,Man
18,478315,DepthScenes,duration_manipulation_targetAtFixation,jsons/VE125_randls_45.json,http://54.235.29.9/FacialAge/BNav_EC2/DepthDuration/v2_depth_duration_MTurk/v2_DepthDuration_HTML.html#184,184,1366,625,1366,768,8-30-2022,10-54-5,19,depth_duration_stimuli/000709_2014-06-08_13-51-55_260595134347_rgbf000068-resize_3/000709_2014-06-08_13-51-55_260595134347_rgbf000068-resize_3-target.png,125,1.8030000000000002,0,1866,136,meters,jsons/VE125_randls_45.json,601521,731432,26,Man
19,478315,DepthScenes,duration_manipulation_targetAtFixation,jsons/VE125_randls_45.json,http://54.235.29.9/FacialAge/BNav_EC2/DepthDuration/v2_depth_duration_MTurk/v2_DepthDuration_HTML.html#184,184,1366,625,1366,768,8-30-2022,10-54-5,20,depth_duration_stimuli/000773_2014-06-08_22-24-54_260595134347_rgbf000093-resize_1/000773_2014-06-08_22-24-54_260595134347_rgbf000093-resize_1-target.png,125,4.973,0,2057,124,meters,jsons/VE125_randls_45.json,601521,731432,26,Man
20,478315,DepthScenes,duration_manipulation_targetAtFixation,jsons/VE125_randls_45.json,http://54.235.29.9/FacialAge/BNav_EC2/DepthDuration/v2_depth_duration_MTurk/v2_DepthDuration_HTML.html#184,184,1366,625,1366,768,8-30-2022,10-54-5,21,depth_duration_stimuli/002414_2014-06-28_20-24-58_260595134347_rgbf000067-resize_4/002414_2014-06-28_20-24-58_260595134347_rgbf000067-resize_4-target.png,125,4.363,0,2344,125,meters,jsons/VE125_randls_45.json,601521,731432,26,Man
21,478315,DepthScenes,duration_manipulation_targetAtFixation,jsons/VE125_randls_45.json,http://54.235.29.9/FacialAge/BNav_EC2/DepthDuration/v2_depth_duration_MTurk/v2_DepthDuration_HTML.html#184,184,1366,625,1366,768,8-30-2022,10-54-5,22,depth_duration_stimuli/000414_2014-06-04_19-49-13_260595134347_rgbf000044-resize_0/000414_2014-06-04_19-49-13_260595134347_rgbf000044-resize_0-target.png,125,4.329,0,2095,124,meters,jsons/VE125_randls_45.json,601521,731432,26,Man
22,478315,DepthScenes,duration_manipulation_targetAtFixation,jsons/VE125_randls_45.json,http://54.235.29.9/FacialAge/BNav_EC2/DepthDuration/v2_depth_duration_MTurk/v2_DepthDuration_HTML.html#184,184,1366,625,1366,768,8-30-2022,10-54-5,23,depth_duration_stimuli/003129_2014-05-12_10-48-10_094959634447_rgbf000100-resize_0/003129_2014-05-12_10-48-10_094959634447_rgbf000100-resize_0-target.png,125,4.9305,0,2139,116,meters,jsons/VE125_randls_45.json,601521,731432,26,Man
23,478315,DepthScenes,duration_manipulation_targetAtFixation,jsons/VE125_randls_45.json,http://54.235.29.9/FacialAge/BNav_EC2/DepthDuration/v2_depth_duration_MTurk/v2_DepthDuration_HTML.html#184,184,1366,625,1366,768,8-30-2022,10-54-5,24,depth_duration_stimuli/002988_2014-06-15_12-24-20_094959634447_rgbf000150-resize_1/002988_2014-06-15_12-24-20_094959634447_rgbf000150-resize_1-target.png,125,4.7669999999999995,0,2933,125,meters,jsons/VE125_randls_45.json,601521,731432,26,Man
24,478315,DepthScenes,duration_manipulation_targetAtFixation,jsons/VE125_randls_45.json,http://54.235.29.9/FacialAge/BNav_EC2/DepthDuration/v2_depth_duration_MTurk/v2_DepthDuration_HTML.html#184,184,1366,625,1366,768,8-30-2022,10-54-5,25,depth_duration_stimuli/001052_2014-06-08_18-24-54_260595134347_rgbf000130-resize_1/001052_2014-06-08_18-24-54_260595134347_rgbf000130-resize_1-target.png,125,4.1045,0,2132,128,meters,jsons/VE125_randls_45.json,601521,731432,26,Man
25,478315,DepthScenes,duration_manipulation_targetAtFixation,jsons/VE125_randls_45.json,http://54.235.29.9/FacialAge/BNav_EC2/DepthDuration/v2_depth_duration_MTurk/v2_DepthDuration_HTML.html#184,184,1366,625,1366,768,8-30-2022,10-54-5,26,depth_duration_stimuli/003492_2014-05-21_15-50-55_094959634447_rgbf000828-resize_1/003492_2014-05-21_15-50-55_094959634447_rgbf000828-resize_1-target.png,125,4.06875,0,1938,125,meters,jsons/VE125_randls_45.json,601521,731432,26,Man
26,478315,DepthScenes,duration_manipulation_targetAtFixation,jsons/VE125_randls_45.json,http://54.235.29.9/FacialAge/BNav_EC2/DepthDuration/v2_depth_duration_MTurk/v2_DepthDuration_HTML.html#184,184,1366,625,1366,768,8-30-2022,10-54-5,27,depth_duration_stimuli/002568_2014-06-24_13-59-21_094959634447_rgbf000062-resize_4/002568_2014-06-24_13-59-21_094959634447_rgbf000062-resize_4-target.png,125,3.015,0,3140,126,meters,jsons/VE125_randls_45.json,601521,731432,26,Man
27,478315,DepthScenes,duration_manipulation_targetAtFixation,jsons/VE125_randls_45.json,http://54.235.29.9/FacialAge/BNav_EC2/DepthDuration/v2_depth_duration_MTurk/v2_DepthDuration_HTML.html#184,184,1366,625,1366,768,8-30-2022,10-54-5,28,depth_duration_stimuli/002118_2014-06-25_20-32-08_260595134347_rgbf000078-resize_1/002118_2014-06-25_20-32-08_260595134347_rgbf000078-resize_1-target.png,125,2.6460000000000004,0,3060,124,meters,jsons/VE125_randls_45.json,601521,731432,26,Man
28,478315,DepthScenes,duration_manipulation_targetAtFixation,jsons/VE125_randls_45.json,http://54.235.29.9/FacialAge/BNav_EC2/DepthDuration/v2_depth_duration_MTurk/v2_DepthDuration_HTML.html#184,184,1366,625,1366,768,8-30-2022,10-54-5,29,depth_duration_stimuli/001516_2014-06-20_16-25-09_260595134347_rgbf000076-resize_2/001516_2014-06-20_16-25-09_260595134347_rgbf000076-resize_2-target.png,125,1.7445,0,14546,134,meters,jsons/VE125_randls_45.json,601521,731432,26,Man
29,478315,DepthScenes,duration_manipulation_targetAtFixation,jsons/VE125_randls_45.json,http://54.235.29.9/FacialAge/BNav_EC2/DepthDuration/v2_depth_duration_MTurk/v2_DepthDuration_HTML.html#184,184,1366,625,1366,768,8-30-2022,10-54-5,30,depth_duration_stimuli/000375_2014-06-08_11-17-29_260595134347_rgbf000133-resize_2/000375_2014-06-08_11-17-29_260595134347_rgbf000133-resize-original.jpg,125,4.718,0,2674,111,meters,jsons/VE125_randls_45.json,601521,731432,26,Man
30,478315,DepthScenes,duration_manipulation_targetAtFixation,jsons/VE125_randls_45.json,http://54.235.29.9/FacialAge/BNav_EC2/DepthDuration/v2_depth_duration_MTurk/v2_DepthDuration_HTML.html#184,184,1366,625,1366,768,8-30-2022,10-54-5,31,depth_duration_stimuli/003534_2014-05-22_15-06-10_094959634447_rgbf000102-resize_4/003534_2014-05-22_15-06-10_094959634447_rgbf000102-resize_4-target.png,125,1.426,0,2858,117,meters,jsons/VE125_randls_45.json,601521,731432,26,Man
31,478315,DepthScenes,duration_manipulation_targetAtFixation,jsons/VE125_randls_45.json,http://54.235.29.9/FacialAge/BNav_EC2/DepthDuration/v2_depth_duration_MTurk/v2_DepthDuration_HTML.html#184,184,1366,625,1366,768,8-30-2022,10-54-5,32,depth_duration_stimuli/002637_2014-06-24_14-51-13_094959634447_rgbf000066-resize_4/002637_2014-06-24_14-51-13_094959634447_rgbf000066-resize_4-target.png,125,1.9955,0,3061,124,meters,jsons/VE125_randls_45.json,601521,731432,26,Man
32,478315,DepthScenes,duration_manipulation_targetAtFixation,jsons/VE125_randls_45.json,http://54.235.29.9/FacialAge/BNav_EC2/DepthDuration/v2_depth_duration_MTurk/v2_DepthDuration_HTML.html#184,184,1366,625,1366,768,8-30-2022,10-54-5,33,depth_duration_stimuli/002600_2014-06-24_14-27-04_094959634447_rgbf000074-resize_2/002600_2014-06-24_14-27-04_094959634447_rgbf000074-resize_2-target.png,125,2.7575,0,2252,125,meters,jsons/VE125_randls_45.json,601521,731432,26,Man
33,478315,DepthScenes,duration_manipulation_targetAtFixation,jsons/VE125_randls_45.json,http://54.235.29.9/FacialAge/BNav_EC2/DepthDuration/v2_depth_duration_MTurk/v2_DepthDuration_HTML.html#184,184,1366,625,1366,768,8-30-2022,10-54-5,34,depth_duration_stimuli/003228_2014-05-14_13-42-35_094959634447_rgbf000101-resize_1/003228_2014-05-14_13-42-35_094959634447_rgbf000101-resize_1-target.png,125,1.9680000000000002,0,5351,124,meters,jsons/VE125_randls_45.json,601521,731432,26,Man
34,478315,DepthScenes,duration_manipulation_targetAtFixation,jsons/VE125_randls_45.json,http://54.235.29.9/FacialAge/BNav_EC2/DepthDuration/v2_depth_duration_MTurk/v2_DepthDuration_HTML.html#184,184,1366,625,1366,768,8-30-2022,10-54-5,35,depth_duration_stimuli/000736_2014-06-08_18-24-15_260595134347_rgbf000206-resize_3/000736_2014-06-08_18-24-15_260595134347_rgbf000206-resize_3-target.png,125,3.515,0,2986,114,meters,jsons/VE125_randls_45.json,601521,731432,26,Man
35,478315,DepthScenes,duration_manipulation_targetAtFixation,jsons/VE125_randls_45.json,http://54.235.29.9/FacialAge/BNav_EC2/DepthDuration/v2_depth_duration_MTurk/v2_DepthDuration_HTML.html#184,184,1366,625,1366,768,8-30-2022,10-54-5,36,depth_duration_stimuli/000137_2014-05-20_17-04-49_260595134347_rgbf000120-resize_1/000137_2014-05-20_17-04-49_260595134347_rgbf000120-resize_1-target.png,125,3.786,0,3138,124,meters,jsons/VE125_randls_45.json,601521,731432,26,Man
36,478315,DepthScenes,duration_manipulation_targetAtFixation,jsons/VE125_randls_45.json,http://54.235.29.9/FacialAge/BNav_EC2/DepthDuration/v2_depth_duration_MTurk/v2_DepthDuration_HTML.html#184,184,1366,625,1366,768,8-30-2022,10-54-5,37,depth_duration_stimuli/001555_2014-06-20_17-12-10_260595134347_rgbf000065-resize_4/001555_2014-06-20_17-12-10_260595134347_rgbf000065-resize_4-target.png,125,1.633,0,2396,47,meters,jsons/VE125_randls_45.json,601521,731432,26,Man
37,478315,DepthScenes,duration_manipulation_targetAtFixation,jsons/VE125_randls_45.json,http://54.235.29.9/FacialAge/BNav_EC2/DepthDuration/v2_depth_duration_MTurk/v2_DepthDuration_HTML.html#184,184,1366,625,1366,768,8-30-2022,10-54-5,38,depth_duration_stimuli/000103_2014-05-14_22-01-17_260595134347_rgbf000152-resize_5/000103_2014-05-14_22-01-17_260595134347_rgbf000152-resize_5-target.png,125,1.993,0,2570,124,meters,jsons/VE125_randls_45.json,601521,731432,26,Man
38,478315,DepthScenes,duration_manipulation_targetAtFixation,jsons/VE125_randls_45.json,http://54.235.29.9/FacialAge/BNav_EC2/DepthDuration/v2_depth_duration_MTurk/v2_DepthDuration_HTML.html#184,184,1366,625,1366,768,8-30-2022,10-54-5,39,depth_duration_stimuli/000522_2014-06-08_13-35-06_260595134347_rgbf000244-resize_1/000522_2014-06-08_13-35-06_260595134347_rgbf000244-resize_1-target.png,125,2.3715,0,2848,174,meters,jsons/VE125_randls_45.json,601521,731432,26,Man
39,478315,DepthScenes,duration_manipulation_targetAtFixation,jsons/VE125_randls_45.json,http://54.235.29.9/FacialAge/BNav_EC2/DepthDuration/v2_depth_duration_MTurk/v2_DepthDuration_HTML.html#184,184,1366,625,1366,768,8-30-2022,10-54-5,40,depth_duration_stimuli/002949_2014-06-26_15-57-42_094959634447_rgbf000079-resize_1/002949_2014-06-26_15-57-42_094959634447_rgbf000079-resize_1-target.png,125,1.8915,0,2280,124,meters,jsons/VE125_randls_45.json,601521,731432,26,Man
40,478315,DepthScenes,duration_manipulation_targetAtFixation,jsons/VE125_randls_45.json,http://54.235.29.9/FacialAge/BNav_EC2/DepthDuration/v2_depth_duration_MTurk/v2_DepthDuration_HTML.html#184,184,1366,625,1366,768,8-30-2022,10-54-5,41,depth_duration_stimuli/001059_2014-06-08_21-53-27_260595134347_rgbf000061-resize_4/001059_2014-06-08_21-53-27_260595134347_rgbf000061-resize_4-target.png,125,2.4185,0,3727,123,meters,jsons/VE125_randls_45.json,601521,731432,26,Man
41,478315,DepthScenes,duration_manipulation_targetAtFixation,jsons/VE125_randls_45.json,http://54.235.29.9/FacialAge/BNav_EC2/DepthDuration/v2_depth_duration_MTurk/v2_DepthDuration_HTML.html#184,184,1366,625,1366,768,8-30-2022,10-54-5,42,depth_duration_stimuli/001032_2014-06-08_13-23-17_260595134347_rgbf000021-resize_3/001032_2014-06-08_13-23-17_260595134347_rgbf000021-resize_3-target.png,125,3.2725,0,1977,125,meters,jsons/VE125_randls_45.json,601521,731432,26,Man
42,478315,DepthScenes,duration_manipulation_targetAtFixation,jsons/VE125_randls_45.json,http://54.235.29.9/FacialAge/BNav_EC2/DepthDuration/v2_depth_duration_MTurk/v2_DepthDuration_HTML.html#184,184,1366,625,1366,768,8-30-2022,10-54-5,43,depth_duration_stimuli/001806_2014-06-26_20-50-20_260595134347_rgbf000091-resize_1/001806_2014-06-26_20-50-20_260595134347_rgbf000091-resize_1-target.png,125,2.7305,0,2397,125,meters,jsons/VE125_randls_45.json,601521,731432,26,Man
43,478315,DepthScenes,duration_manipulation_targetAtFixation,jsons/VE125_randls_45.json,http://54.235.29.9/FacialAge/BNav_EC2/DepthDuration/v2_depth_duration_MTurk/v2_DepthDuration_HTML.html#184,184,1366,625,1366,768,8-30-2022,10-54-5,44,depth_duration_stimuli/001617_2014-06-20_11-35-32_260595134347_rgbf000066-resize_1/001617_2014-06-20_11-35-32_260595134347_rgbf000066-resize_1-target.png,125,3.7910000000000004,0,2817,125,meters,jsons/VE125_randls_45.json,601521,731432,26,Man
44,478315,DepthScenes,duration_manipulation_targetAtFixation,jsons/VE125_randls_45.json,http://54.235.29.9/FacialAge/BNav_EC2/DepthDuration/v2_depth_duration_MTurk/v2_DepthDuration_HTML.html#184,184,1366,625,1366,768,8-30-2022,10-54-5,45,depth_duration_stimuli/000787_2014-06-08_22-33-53_260595134347_rgbf000175-resize_1/000787_2014-06-08_22-33-53_260595134347_rgbf000175-resize-original.jpg,125,4.784,0,3694,126,meters,jsons/VE125_randls_45.json,601521,731432,26,Man
45,478315,DepthScenes,duration_manipulation_targetAtFixation,jsons/VE125_randls_45.json,http://54.235.29.9/FacialAge/BNav_EC2/DepthDuration/v2_depth_duration_MTurk/v2_DepthDuration_HTML.html#184,184,1366,625,1366,768,8-30-2022,10-54-5,46,depth_duration_stimuli/002725_2014-06-22_11-47-51_094959634447_rgbf000070-resize_1/002725_2014-06-22_11-47-51_094959634447_rgbf000070-resize_1-target.png,125,2.195,0,2181,92,meters,jsons/VE125_randls_45.json,601521,731432,26,Man
46,478315,DepthScenes,duration_manipulation_targetAtFixation,jsons/VE125_randls_45.json,http://54.235.29.9/FacialAge/BNav_EC2/DepthDuration/v2_depth_duration_MTurk/v2_DepthDuration_HTML.html#184,184,1366,625,1366,768,8-30-2022,10-54-5,47,depth_duration_stimuli/002344_2014-06-28_20-06-29_260595134347_rgbf000030-resize_1/002344_2014-06-28_20-06-29_260595134347_rgbf000030-resize_1-target.png,125,1.5795,0,2130,131,meters,jsons/VE125_randls_45.json,601521,731432,26,Man
47,478315,DepthScenes,duration_manipulation_targetAtFixation,jsons/VE125_randls_45.json,http://54.235.29.9/FacialAge/BNav_EC2/DepthDuration/v2_depth_duration_MTurk/v2_DepthDuration_HTML.html#184,184,1366,625,1366,768,8-30-2022,10-54-5,48,depth_duration_stimuli/000486_2014-06-09_20-47-20_260595134347_rgbf000143-resize_2/000486_2014-06-09_20-47-20_260595134347_rgbf000143-resize_2-target.png,125,4.8325,0,2185,125,meters,jsons/VE125_randls_45.json,601521,731432,26,Man
48,478315,DepthScenes,duration_manipulation_targetAtFixation,jsons/VE125_randls_45.json,http://54.235.29.9/FacialAge/BNav_EC2/DepthDuration/v2_depth_duration_MTurk/v2_DepthDuration_HTML.html#184,184,1366,625,1366,768,8-30-2022,10-54-5,49,depth_duration_stimuli/003083_2014-06-15_15-21-03_094959634447_rgbf000063-resize_1/003083_2014-06-15_15-21-03_094959634447_rgbf000063-resize_1-target.png,125,4.1405,0,2039,126,meters,jsons/VE125_randls_45.json,601521,731432,26,Man
49,478315,DepthScenes,duration_manipulation_targetAtFixation,jsons/VE125_randls_45.json,http://54.235.29.9/FacialAge/BNav_EC2/DepthDuration/v2_depth_duration_MTurk/v2_DepthDuration_HTML.html#184,184,1366,625,1366,768,8-30-2022,10-54-5,50,depth_duration_stimuli/001244_2014-06-17_16-47-45_260595134347_rgbf000030-resize_4/001244_2014-06-17_16-47-45_260595134347_rgbf000030-resize_4-target.png,125,2.0425,0,2447,125,meters,jsons/VE125_randls_45.json,601521,731432,26,Man
50,478315,DepthScenes,duration_manipulation_targetAtFixation,jsons/VE125_randls_45.json,http://54.235.29.9/FacialAge/BNav_EC2/DepthDuration/v2_depth_duration_MTurk/v2_DepthDuration_HTML.html#184,184,1366,625,1366,768,8-30-2022,10-54-5,51,depth_duration_stimuli/003495_2014-05-21_16-01-51_094959634447_rgbf000100-resize_3/003495_2014-05-21_16-01-51_094959634447_rgbf000100-resize_3-target.png,125,1.6255,0,1985,125,meters,jsons/VE125_randls_45.json,601521,731432,26,Man
51,478315,DepthScenes,duration_manipulation_targetAtFixation,jsons/VE125_randls_45.json,http://54.235.29.9/FacialAge/BNav_EC2/DepthDuration/v2_depth_duration_MTurk/v2_DepthDuration_HTML.html#184,184,1366,625,1366,768,8-30-2022,10-54-5,52,depth_duration_stimuli/002788_2014-06-22_19-36-03_094959634447_rgbf000088-resize_2/002788_2014-06-22_19-36-03_094959634447_rgbf000088-resize_2-target.png,125,1.6465,0,2085,124,meters,jsons/VE125_randls_45.json,601521,731432,26,Man
52,478315,DepthScenes,duration_manipulation_targetAtFixation,jsons/VE125_randls_45.json,http://54.235.29.9/FacialAge/BNav_EC2/DepthDuration/v2_depth_duration_MTurk/v2_DepthDuration_HTML.html#184,184,1366,625,1366,768,8-30-2022,10-54-5,53,depth_duration_stimuli/000749_2014-06-08_21-55-06_260595134347_rgbf000070-resize_2/000749_2014-06-08_21-55-06_260595134347_rgbf000070-resize_2-target.png,125,2.331,0,2345,125,meters,jsons/VE125_randls_45.json,601521,731432,26,Man
53,478315,DepthScenes,duration_manipulation_targetAtFixation,jsons/VE125_randls_45.json,http://54.235.29.9/FacialAge/BNav_EC2/DepthDuration/v2_depth_duration_MTurk/v2_DepthDuration_HTML.html#184,184,1366,625,1366,768,8-30-2022,10-54-5,54,depth_duration_stimuli/002763_2014-06-22_19-13-10_094959634447_rgbf000075-resize_4/002763_2014-06-22_19-13-10_094959634447_rgbf000075-resize_4-target.png,125,1.68375,0,2172,122,meters,jsons/VE125_randls_45.json,601521,731432,26,Man
54,478315,DepthScenes,duration_manipulation_targetAtFixation,jsons/VE125_randls_45.json,http://54.235.29.9/FacialAge/BNav_EC2/DepthDuration/v2_depth_duration_MTurk/v2_DepthDuration_HTML.html#184,184,1366,625,1366,768,8-30-2022,10-54-5,55,depth_duration_stimuli/002209_2014-06-28_18-36-10_260595134347_rgbf000051-resize_1/002209_2014-06-28_18-36-10_260595134347_rgbf000051-resize_1-target.png,125,2.057,0,2108,129,meters,jsons/VE125_randls_45.json,601521,731432,26,Man
55,478315,DepthScenes,duration_manipulation_targetAtFixation,jsons/VE125_randls_45.json,http://54.235.29.9/FacialAge/BNav_EC2/DepthDuration/v2_depth_duration_MTurk/v2_DepthDuration_HTML.html#184,184,1366,625,1366,768,8-30-2022,10-54-5,56,depth_duration_stimuli/000436_2014-06-09_22-25-11_260595134347_rgbf000137-resize_1/000436_2014-06-09_22-25-11_260595134347_rgbf000137-resize_1-target.png,125,4.0705,0,11696,126,meters,jsons/VE125_randls_45.json,601521,731432,26,Man
56,478315,DepthScenes,duration_manipulation_targetAtFixation,jsons/VE125_randls_45.json,http://54.235.29.9/FacialAge/BNav_EC2/DepthDuration/v2_depth_duration_MTurk/v2_DepthDuration_HTML.html#184,184,1366,625,1366,768,8-30-2022,10-54-5,57,depth_duration_stimuli/002444_2014-06-28_20-32-08_260595134347_rgbf000027-resize_0/002444_2014-06-28_20-32-08_260595134347_rgbf000027-resize_0-target.png,125,4.388999999999999,0,4222,126,meters,jsons/VE125_randls_45.json,601521,731432,26,Man
57,478315,DepthScenes,duration_manipulation_targetAtFixation,jsons/VE125_randls_45.json,http://54.235.29.9/FacialAge/BNav_EC2/DepthDuration/v2_depth_duration_MTurk/v2_DepthDuration_HTML.html#184,184,1366,625,1366,768,8-30-2022,10-54-5,58,depth_duration_stimuli/000810_2014-06-08_17-20-01_260595134347_rgbf000105-resize_0/000810_2014-06-08_17-20-01_260595134347_rgbf000105-resize_0-target.png,125,1.4865,0,2011,125,meters,jsons/VE125_randls_45.json,601521,731432,26,Man
58,478315,DepthScenes,duration_manipulation_targetAtFixation,jsons/VE125_randls_45.json,http://54.235.29.9/FacialAge/BNav_EC2/DepthDuration/v2_depth_duration_MTurk/v2_DepthDuration_HTML.html#184,184,1366,625,1366,768,8-30-2022,10-54-5,59,depth_duration_stimuli/001214_2014-06-17_16-13-55_260595134347_rgbf000111-resize_0/001214_2014-06-17_16-13-55_260595134347_rgbf000111-resize_0-target.png,125,2.6505,0,2464,126,meters,jsons/VE125_randls_45.json,601521,731432,26,Man
59,478315,DepthScenes,duration_manipulation_targetAtFixation,jsons/VE125_randls_45.json,http://54.235.29.9/FacialAge/BNav_EC2/DepthDuration/v2_depth_duration_MTurk/v2_DepthDuration_HTML.html#184,184,1366,625,1366,768,8-30-2022,10-54-5,60,depth_duration_stimuli/000682_2014-06-08_23-14-58_260595134347_rgbf000041-resize_5/000682_2014-06-08_23-14-58_260595134347_rgbf000041-resize_5-target.png,125,2.7239999999999998,0,2845,126,meters,jsons/VE125_randls_45.json,601521,731432,26,Man
60,478315,DepthScenes,duration_manipulation_targetAtFixation,jsons/VE125_randls_45.json,http://54.235.29.9/FacialAge/BNav_EC2/DepthDuration/v2_depth_duration_MTurk/v2_DepthDuration_HTML.html#184,184,1366,625,1366,768,8-30-2022,10-54-5,61,depth_duration_stimuli/001650_2014-06-20_12-09-00_260595134347_rgbf000087-resize_3/001650_2014-06-20_12-09-00_260595134347_rgbf000087-resize_3-target.png,125,1.9505,0,3098,125,meters,jsons/VE125_randls_45.json,601521,731432,26,Man
61,478315,DepthScenes,duration_manipulation_targetAtFixation,jsons/VE125_randls_45.json,http://54.235.29.9/FacialAge/BNav_EC2/DepthDuration/v2_depth_duration_MTurk/v2_DepthDuration_HTML.html#184,184,1366,625,1366,768,8-30-2022,10-54-5,62,depth_duration_stimuli/001133_2014-06-17_14-49-16_260595134347_rgbf000100-resize_0/001133_2014-06-17_14-49-16_260595134347_rgbf000100-resize_0-target.png,125,4.2115,0,2678,125,meters,jsons/VE125_randls_45.json,601521,731432,26,Man
62,478315,DepthScenes,duration_manipulation_targetAtFixation,jsons/VE125_randls_45.json,http://54.235.29.9/FacialAge/BNav_EC2/DepthDuration/v2_depth_duration_MTurk/v2_DepthDuration_HTML.html#184,184,1366,625,1366,768,8-30-2022,10-54-5,63,depth_duration_stimuli/001132_2014-06-17_14-48-54_260595134347_rgbf000100-resize_2/001132_2014-06-17_14-48-54_260595134347_rgbf000100-resize_2-target.png,125,3.753,0,2138,124,meters,jsons/VE125_randls_45.json,601521,731432,26,Man
63,478315,DepthScenes,duration_manipulation_targetAtFixation,jsons/VE125_randls_45.json,http://54.235.29.9/FacialAge/BNav_EC2/DepthDuration/v2_depth_duration_MTurk/v2_DepthDuration_HTML.html#184,184,1366,625,1366,768,8-30-2022,10-54-5,64,depth_duration_stimuli/002043_2014-06-24_20-29-38_260595134347_rgbf000039-resize_4/002043_2014-06-24_20-29-38_260595134347_rgbf000039-resize_4-target.png,125,2.8435,0,6463,125,meters,jsons/VE125_randls_45.json,601521,731432,26,Man
64,478315,DepthScenes,duration_manipulation_targetAtFixation,jsons/VE125_randls_45.json,http://54.235.29.9/FacialAge/BNav_EC2/DepthDuration/v2_depth_duration_MTurk/v2_DepthDuration_HTML.html#184,184,1366,625,1366,768,8-30-2022,10-54-5,65,depth_duration_stimuli/003048_2014-06-15_13-49-43_094959634447_rgbf000150-resize_1/003048_2014-06-15_13-49-43_094959634447_rgbf000150-resize_1-target.png,125,4.0035,0,2417,125,meters,jsons/VE125_randls_45.json,601521,731432,26,Man
65,478315,DepthScenes,duration_manipulation_targetAtFixation,jsons/VE125_randls_45.json,http://54.235.29.9/FacialAge/BNav_EC2/DepthDuration/v2_depth_duration_MTurk/v2_DepthDuration_HTML.html#184,184,1366,625,1366,768,8-30-2022,10-54-5,66,depth_duration_stimuli/001222_2014-06-17_16-24-06_260595134347_rgbf000073-resize_0/001222_2014-06-17_16-24-06_260595134347_rgbf000073-resize-original.jpg,125,1.4385,0,2299,125,meters,jsons/VE125_randls_45.json,601521,731432,26,Man
66,478315,DepthScenes,duration_manipulation_targetAtFixation,jsons/VE125_randls_45.json,http://54.235.29.9/FacialAge/BNav_EC2/DepthDuration/v2_depth_duration_MTurk/v2_DepthDuration_HTML.html#184,184,1366,625,1366,768,8-30-2022,10-54-5,67,depth_duration_stimuli/002213_2014-06-28_18-37-58_260595134347_rgbf000055-resize_1/002213_2014-06-28_18-37-58_260595134347_rgbf000055-resize_1-target.png,125,3.62,0,2449,123,meters,jsons/VE125_randls_45.json,601521,731432,26,Man
67,478315,DepthScenes,duration_manipulation_targetAtFixation,jsons/VE125_randls_45.json,http://54.235.29.9/FacialAge/BNav_EC2/DepthDuration/v2_depth_duration_MTurk/v2_DepthDuration_HTML.html#184,184,1366,625,1366,768,8-30-2022,10-54-5,68,depth_duration_stimuli/000691_2014-06-08_13-08-50_260595134347_rgbf000132-resize_3/000691_2014-06-08_13-08-50_260595134347_rgbf000132-resize_3-target.png,125,4.1530000000000005,0,2099,125,meters,jsons/VE125_randls_45.json,601521,731432,26,Man
68,478315,DepthScenes,duration_manipulation_targetAtFixation,jsons/VE125_randls_45.json,http://54.235.29.9/FacialAge/BNav_EC2/DepthDuration/v2_depth_duration_MTurk/v2_DepthDuration_HTML.html#184,184,1366,625,1366,768,8-30-2022,10-54-5,69,depth_duration_stimuli/000929_2014-06-09_16-33-19_260595134347_rgbf000139-resize_0/000929_2014-06-09_16-33-19_260595134347_rgbf000139-resize_0-target.png,125,2.8680000000000003,0,2378,125,meters,jsons/VE125_randls_45.json,601521,731432,26,Man
69,478315,DepthScenes,duration_manipulation_targetAtFixation,jsons/VE125_randls_45.json,http://54.235.29.9/FacialAge/BNav_EC2/DepthDuration/v2_depth_duration_MTurk/v2_DepthDuration_HTML.html#184,184,1366,625,1366,768,8-30-2022,10-54-5,70,depth_duration_stimuli/000457_2014-06-08_16-52-43_260595134347_rgbf000199-resize_1/000457_2014-06-08_16-52-43_260595134347_rgbf000199-resize_1-target.png,125,3.6489999999999996,0,2822,131,meters,jsons/VE125_randls_45.json,601521,731432,26,Man
70,478315,DepthScenes,duration_manipulation_targetAtFixation,jsons/VE125_randls_45.json,http://54.235.29.9/FacialAge/BNav_EC2/DepthDuration/v2_depth_duration_MTurk/v2_DepthDuration_HTML.html#184,184,1366,625,1366,768,8-30-2022,10-54-5,71,depth_duration_stimuli/000788_2014-06-08_22-34-36_260595134347_rgbf000131-resize_1/000788_2014-06-08_22-34-36_260595134347_rgbf000131-resize_1-target.png,125,3.359,0,2299,127,meters,jsons/VE125_randls_45.json,601521,731432,26,Man
71,478315,DepthScenes,duration_manipulation_targetAtFixation,jsons/VE125_randls_45.json,http://54.235.29.9/FacialAge/BNav_EC2/DepthDuration/v2_depth_duration_MTurk/v2_DepthDuration_HTML.html#184,184,1366,625,1366,768,8-30-2022,10-54-5,72,depth_duration_stimuli/001235_2014-06-17_16-37-36_260595134347_rgbf000084-resize_4/001235_2014-06-17_16-37-36_260595134347_rgbf000084-resize_4-target.png,125,3.6605,0,2928,108,meters,jsons/VE125_randls_45.json,601521,731432,26,Man
72,478315,DepthScenes,duration_manipulation_targetAtFixation,jsons/VE125_randls_45.json,http://54.235.29.9/FacialAge/BNav_EC2/DepthDuration/v2_depth_duration_MTurk/v2_DepthDuration_HTML.html#184,184,1366,625,1366,768,8-30-2022,10-54-5,73,depth_duration_stimuli/001011_2014-06-08_23-18-54_260595134347_rgbf000044-resize_4/001011_2014-06-08_23-18-54_260595134347_rgbf000044-resize_4-target.png,125,2.4730000000000003,0,7424,124,meters,jsons/VE125_randls_45.json,601521,731432,26,Man
73,478315,DepthScenes,duration_manipulation_targetAtFixation,jsons/VE125_randls_45.json,http://54.235.29.9/FacialAge/BNav_EC2/DepthDuration/v2_depth_duration_MTurk/v2_DepthDuration_HTML.html#184,184,1366,625,1366,768,8-30-2022,10-54-5,74,depth_duration_stimuli/002875_2014-06-01_15-19-00_094959634447_rgbf000151-resize_1/002875_2014-06-01_15-19-00_094959634447_rgbf000151-resize_1-target.png,125,1.9675,0,5739,136,meters,jsons/VE125_randls_45.json,601521,731432,26,Man
74,478315,DepthScenes,duration_manipulation_targetAtFixation,jsons/VE125_randls_45.json,http://54.235.29.9/FacialAge/BNav_EC2/DepthDuration/v2_depth_duration_MTurk/v2_DepthDuration_HTML.html#184,184,1366,625,1366,768,8-30-2022,10-54-5,75,depth_duration_stimuli/002039_2014-06-24_20-22-38_260595134347_rgbf000084-resize_1/002039_2014-06-24_20-22-38_260595134347_rgbf000084-resize_1-target.png,125,4.408,0,3370,124,meters,jsons/VE125_randls_45.json,601521,731432,26,Man
75,478315,DepthScenes,duration_manipulation_targetAtFixation,jsons/VE125_randls_45.json,http://54.235.29.9/FacialAge/BNav_EC2/DepthDuration/v2_depth_duration_MTurk/v2_DepthDuration_HTML.html#184,184,1366,625,1366,768,8-30-2022,10-54-5,76,depth_duration_stimuli/002103_2014-06-25_20-00-40_260595134347_rgbf000049-resize_0/002103_2014-06-25_20-00-40_260595134347_rgbf000049-resize_0-target.png,125,4.105,0,3022,125,meters,jsons/VE125_randls_45.json,601521,731432,26,Man
76,478315,DepthScenes,duration_manipulation_targetAtFixation,jsons/VE125_randls_45.json,http://54.235.29.9/FacialAge/BNav_EC2/DepthDuration/v2_depth_duration_MTurk/v2_DepthDuration_HTML.html#184,184,1366,625,1366,768,8-30-2022,10-54-5,77,depth_duration_stimuli/002549_2014-06-24_13-41-39_094959634447_rgbf000022-resize_3/002549_2014-06-24_13-41-39_094959634447_rgbf000022-resize_3-target.png,125,1.476,0,2979,124,meters,jsons/VE125_randls_45.json,601521,731432,26,Man
77,478315,DepthScenes,duration_manipulation_targetAtFixation,jsons/VE125_randls_45.json,http://54.235.29.9/FacialAge/BNav_EC2/DepthDuration/v2_depth_duration_MTurk/v2_DepthDuration_HTML.html#184,184,1366,625,1366,768,8-30-2022,10-54-5,78,depth_duration_stimuli/002750_2014-06-22_19-08-03_094959634447_rgbf000094-resize_4/002750_2014-06-22_19-08-03_094959634447_rgbf000094-resize_4-target.png,125,2.354,0,2295,125,meters,jsons/VE125_randls_45.json,601521,731432,26,Man
78,478315,DepthScenes,duration_manipulation_targetAtFixation,jsons/VE125_randls_45.json,http://54.235.29.9/FacialAge/BNav_EC2/DepthDuration/v2_depth_duration_MTurk/v2_DepthDuration_HTML.html#184,184,1366,625,1366,768,8-30-2022,10-54-5,79,depth_duration_stimuli/000758_2014-06-08_22-05-08_260595134347_rgbf000085-resize_0/000758_2014-06-08_22-05-08_260595134347_rgbf000085-resize_0-target.png,125,3.3810000000000002,0,4981,125,meters,jsons/VE125_randls_45.json,601521,731432,26,Man
79,478315,DepthScenes,duration_manipulation_targetAtFixation,jsons/VE125_randls_45.json,http://54.235.29.9/FacialAge/BNav_EC2/DepthDuration/v2_depth_duration_MTurk/v2_DepthDuration_HTML.html#184,184,1366,625,1366,768,8-30-2022,10-54-5,80,depth_duration_stimuli/000854_2014-06-09_19-43-13_260595134347_rgbf000066-resize_0/000854_2014-06-09_19-43-13_260595134347_rgbf000066-resize_0-target.png,125,3.068,0,25614,120,meters,jsons/VE125_randls_45.json,601521,731432,26,Man
80,478315,DepthScenes,duration_manipulation_targetAtFixation,jsons/VE125_randls_45.json,http://54.235.29.9/FacialAge/BNav_EC2/DepthDuration/v2_depth_duration_MTurk/v2_DepthDuration_HTML.html#184,184,1366,625,1366,768,8-30-2022,10-54-5,81,depth_duration_stimuli/000470_2014-06-09_19-42-40_260595134347_rgbf000094-resize_1/000470_2014-06-09_19-42-40_260595134347_rgbf000094-resize_1-target.png,125,1.831,0,2690,125,meters,jsons/VE125_randls_45.json,601521,731432,26,Man
81,478315,DepthScenes,duration_manipulation_targetAtFixation,jsons/VE125_randls_45.json,http://54.235.29.9/FacialAge/BNav_EC2/DepthDuration/v2_depth_duration_MTurk/v2_DepthDuration_HTML.html#184,184,1366,625,1366,768,8-30-2022,10-54-5,82,depth_duration_stimuli/000109_2014-05-14_23-41-52_260595134347_rgbf000035-resize_9/000109_2014-05-14_23-41-52_260595134347_rgbf000035-resize_9-target.png,125,1.3545,0,3343,126,meters,jsons/VE125_randls_45.json,601521,731432,26,Man
82,478315,DepthScenes,duration_manipulation_targetAtFixation,jsons/VE125_randls_45.json,http://54.235.29.9/FacialAge/BNav_EC2/DepthDuration/v2_depth_duration_MTurk/v2_DepthDuration_HTML.html#184,184,1366,625,1366,768,8-30-2022,10-54-5,83,depth_duration_stimuli/002663_2014-06-13_15-50-26_094959634447_rgbf000075-resize_1/002663_2014-06-13_15-50-26_094959634447_rgbf000075-resize_1-target.png,125,4.7495,0,2425,125,meters,jsons/VE125_randls_45.json,601521,731432,26,Man
83,478315,DepthScenes,duration_manipulation_targetAtFixation,jsons/VE125_randls_45.json,http://54.235.29.9/FacialAge/BNav_EC2/DepthDuration/v2_depth_duration_MTurk/v2_DepthDuration_HTML.html#184,184,1366,625,1366,768,8-30-2022,10-54-5,84,depth_duration_stimuli/000409_2014-06-04_19-23-33_260595134347_rgbf000067-resize_0/000409_2014-06-04_19-23-33_260595134347_rgbf000067-resize_0-target.png,125,3.7335,0,2136,125,meters,jsons/VE125_randls_45.json,601521,731432,26,Man
84,478315,DepthScenes,duration_manipulation_targetAtFixation,jsons/VE125_randls_45.json,http://54.235.29.9/FacialAge/BNav_EC2/DepthDuration/v2_depth_duration_MTurk/v2_DepthDuration_HTML.html#184,184,1366,625,1366,768,8-30-2022,10-54-5,85,depth_duration_stimuli/001417_2014-06-19_16-25-36_260595134347_rgbf000115-resize_5/001417_2014-06-19_16-25-36_260595134347_rgbf000115-resize_5-target.png,125,4.6255,0,3135,124,meters,jsons/VE125_randls_45.json,601521,731432,26,Man
85,478315,DepthScenes,duration_manipulation_targetAtFixation,jsons/VE125_randls_45.json,http://54.235.29.9/FacialAge/BNav_EC2/DepthDuration/v2_depth_duration_MTurk/v2_DepthDuration_HTML.html#184,184,1366,625,1366,768,8-30-2022,10-54-5,86,depth_duration_stimuli/003081_2014-06-15_15-19-16_094959634447_rgbf000150-resize_1/003081_2014-06-15_15-19-16_094959634447_rgbf000150-resize_1-target.png,125,3.9125,0,2220,134,meters,jsons/VE125_randls_45.json,601521,731432,26,Man
86,478315,DepthScenes,duration_manipulation_targetAtFixation,jsons/VE125_randls_45.json,http://54.235.29.9/FacialAge/BNav_EC2/DepthDuration/v2_depth_duration_MTurk/v2_DepthDuration_HTML.html#184,184,1366,625,1366,768,8-30-2022,10-54-5,87,depth_duration_stimuli/002375_2014-06-28_20-13-44_260595134347_rgbf000032-resize_1/002375_2014-06-28_20-13-44_260595134347_rgbf000032-resize_1-target.png,125,4.0175,0,2885,120,meters,jsons/VE125_randls_45.json,601521,731432,26,Man
87,478315,DepthScenes,duration_manipulation_targetAtFixation,jsons/VE125_randls_45.json,http://54.235.29.9/FacialAge/BNav_EC2/DepthDuration/v2_depth_duration_MTurk/v2_DepthDuration_HTML.html#184,184,1366,625,1366,768,8-30-2022,10-54-5,88,depth_duration_stimuli/002657_2014-06-13_15-29-54_094959634447_rgbf000150-resize_1/002657_2014-06-13_15-29-54_094959634447_rgbf000150-resize_1-target.png,125,4.919,0,2296,110,meters,jsons/VE125_randls_45.json,601521,731432,26,Man
88,478315,DepthScenes,duration_manipulation_targetAtFixation,jsons/VE125_randls_45.json,http://54.235.29.9/FacialAge/BNav_EC2/DepthDuration/v2_depth_duration_MTurk/v2_DepthDuration_HTML.html#184,184,1366,625,1366,768,8-30-2022,10-54-5,89,depth_duration_stimuli/001810_2014-06-26_20-51-35_260595134347_rgbf000040-resize_3/001810_2014-06-26_20-51-35_260595134347_rgbf000040-resize_3-target.png,125,2.2525,0,2315,125,meters,jsons/VE125_randls_45.json,601521,731432,26,Man
89,478315,DepthScenes,duration_manipulation_targetAtFixation,jsons/VE125_randls_45.json,http://54.235.29.9/FacialAge/BNav_EC2/DepthDuration/v2_depth_duration_MTurk/v2_DepthDuration_HTML.html#184,184,1366,625,1366,768,8-30-2022,10-54-5,90,depth_duration_stimuli/003010_2014-06-15_12-54-35_094959634447_rgbf000112-resize_0/003010_2014-06-15_12-54-35_094959634447_rgbf000112-resize_0-target.png,125,3.1185,0,2329,127,meters,jsons/VE125_randls_45.json,601521,731432,26,Man
90,478315,DepthScenes,duration_manipulation_targetAtFixation,jsons/VE125_randls_45.json,http://54.235.29.9/FacialAge/BNav_EC2/DepthDuration/v2_depth_duration_MTurk/v2_DepthDuration_HTML.html#184,184,1366,625,1366,768,8-30-2022,10-54-5,91,depth_duration_stimuli/002784_2014-06-22_19-26-30_094959634447_rgbf000083-resize_3/002784_2014-06-22_19-26-30_094959634447_rgbf000083-resize_3-target.png,125,1.8046666666667,0,2415,125,meters,jsons/VE125_randls_45.json,601521,731432,26,Man
91,478315,DepthScenes,duration_manipulation_targetAtFixation,jsons/VE125_randls_45.json,http://54.235.29.9/FacialAge/BNav_EC2/DepthDuration/v2_depth_duration_MTurk/v2_DepthDuration_HTML.html#184,184,1366,625,1366,768,8-30-2022,10-54-5,92,depth_duration_stimuli/001100_2014-06-15_17-46-26_260595134347_rgbf000225-resize_2/001100_2014-06-15_17-46-26_260595134347_rgbf000225-resize_2-target.png,125,2.24,0,5735,125,meters,jsons/VE125_randls_45.json,601521,731432,26,Man
92,478315,DepthScenes,duration_manipulation_targetAtFixation,jsons/VE125_randls_45.json,http://54.235.29.9/FacialAge/BNav_EC2/DepthDuration/v2_depth_duration_MTurk/v2_DepthDuration_HTML.html#184,184,1366,625,1366,768,8-30-2022,10-54-5,93,depth_duration_stimuli/002509_2014-06-24_13-19-22_094959634447_rgbf000077-resize_0/002509_2014-06-24_13-19-22_094959634447_rgbf000077-resize_0-target.png,125,1.3065,0,2536,126,meters,jsons/VE125_randls_45.json,601521,731432,26,Man
93,478315,DepthScenes,duration_manipulation_targetAtFixation,jsons/VE125_randls_45.json,http://54.235.29.9/FacialAge/BNav_EC2/DepthDuration/v2_depth_duration_MTurk/v2_DepthDuration_HTML.html#184,184,1366,625,1366,768,8-30-2022,10-54-5,94,depth_duration_stimuli/003338_2014-05-20_11-01-23_094959634447_rgbf000051-resize_6/003338_2014-05-20_11-01-23_094959634447_rgbf000051-resize_6-target.png,125,1.693,0,2429,133,meters,jsons/VE125_randls_45.json,601521,731432,26,Man
94,478315,DepthScenes,duration_manipulation_targetAtFixation,jsons/VE125_randls_45.json,http://54.235.29.9/FacialAge/BNav_EC2/DepthDuration/v2_depth_duration_MTurk/v2_DepthDuration_HTML.html#184,184,1366,625,1366,768,8-30-2022,10-54-5,95,depth_duration_stimuli/000739_2014-06-08_18-45-58_260595134347_rgbf000068-resize_1/000739_2014-06-08_18-45-58_260595134347_rgbf000068-resize_1-target.png,125,3.534,0,2338,139,meters,jsons/VE125_randls_45.json,601521,731432,26,Man
95,478315,DepthScenes,duration_manipulation_targetAtFixation,jsons/VE125_randls_45.json,http://54.235.29.9/FacialAge/BNav_EC2/DepthDuration/v2_depth_duration_MTurk/v2_DepthDuration_HTML.html#184,184,1366,625,1366,768,8-30-2022,10-54-5,96,depth_duration_stimuli/000734_2014-06-08_17-39-11_260595134347_rgbf000128-resize_2/000734_2014-06-08_17-39-11_260595134347_rgbf000128-resize_2-target.png,125,4.098,0,2800,116,meters,jsons/VE125_randls_45.json,601521,731432,26,Man
96,478315,DepthScenes,duration_manipulation_targetAtFixation,jsons/VE125_randls_45.json,http://54.235.29.9/FacialAge/BNav_EC2/DepthDuration/v2_depth_duration_MTurk/v2_DepthDuration_HTML.html#184,184,1366,625,1366,768,8-30-2022,10-54-5,97,depth_duration_stimuli/001570_2014-06-20_17-21-09_260595134347_rgbf000135-resize_4/001570_2014-06-20_17-21-09_260595134347_rgbf000135-resize_4-target.png,125,4.467,0,2454,127,meters,jsons/VE125_randls_45.json,601521,731432,26,Man
97,478315,DepthScenes,duration_manipulation_targetAtFixation,jsons/VE125_randls_45.json,http://54.235.29.9/FacialAge/BNav_EC2/DepthDuration/v2_depth_duration_MTurk/v2_DepthDuration_HTML.html#184,184,1366,625,1366,768,8-30-2022,10-54-5,98,depth_duration_stimuli/001392_2014-06-19_16-07-59_260595134347_rgbf000046-resize_1/001392_2014-06-19_16-07-59_260595134347_rgbf000046-resize_1-target.png,125,4.135,0,2465,125,meters,jsons/VE125_randls_45.json,601521,731432,26,Man
98,478315,DepthScenes,duration_manipulation_targetAtFixation,jsons/VE125_randls_45.json,http://54.235.29.9/FacialAge/BNav_EC2/DepthDuration/v2_depth_duration_MTurk/v2_DepthDuration_HTML.html#184,184,1366,625,1366,768,8-30-2022,10-54-5,99,depth_duration_stimuli/001540_2014-06-20_17-01-05_260595134347_rgbf000086-resize_2/001540_2014-06-20_17-01-05_260595134347_rgbf000086-resize-original.jpg,125,1.459,0,2339,129,meters,jsons/VE125_randls_45.json,601521,731432,26,Man
99,478315,DepthScenes,duration_manipulation_targetAtFixation,jsons/VE125_randls_45.json,http://54.235.29.9/FacialAge/BNav_EC2/DepthDuration/v2_depth_duration_MTurk/v2_DepthDuration_HTML.html#184,184,1366,625,1366,768,8-30-2022,10-54-5,100,depth_duration_stimuli/000493_2014-06-09_21-01-18_260595134347_rgbf000196-resize_3/000493_2014-06-09_21-01-18_260595134347_rgbf000196-resize_3-target.png,125,3.44,0,2499,146,meters,jsons/VE125_randls_45.json,601521,731432,26,Man
100,478315,DepthScenes,duration_manipulation_targetAtFixation,jsons/VE125_randls_45.json,http://54.235.29.9/FacialAge/BNav_EC2/DepthDuration/v2_depth_duration_MTurk/v2_DepthDuration_HTML.html#184,184,1366,625,1366,768,8-30-2022,10-54-5,101,depth_duration_stimuli/000191_2014-05-12_17-07-38_260595134347_rgbf000199-resize_0/000191_2014-05-12_17-07-38_260595134347_rgbf000199-resize_0-target.png,125,3.7995,0,2338,123,meters,jsons/VE125_randls_45.json,601521,731432,26,Man
101,478315,DepthScenes,duration_manipulation_targetAtFixation,jsons/VE125_randls_45.json,http://54.235.29.9/FacialAge/BNav_EC2/DepthDuration/v2_depth_duration_MTurk/v2_DepthDuration_HTML.html#184,184,1366,625,1366,768,8-30-2022,10-54-5,102,depth_duration_stimuli/001175_2014-06-17_15-45-55_260595134347_rgbf000129-resize_4/001175_2014-06-17_15-45-55_260595134347_rgbf000129-resize_4-target.png,125,4.255,0,2018,125,meters,jsons/VE125_randls_45.json,601521,731432,26,Man
102,478315,DepthScenes,duration_manipulation_targetAtFixation,jsons/VE125_randls_45.json,http://54.235.29.9/FacialAge/BNav_EC2/DepthDuration/v2_depth_duration_MTurk/v2_DepthDuration_HTML.html#184,184,1366,625,1366,768,8-30-2022,10-54-5,103,depth_duration_stimuli/003490_2014-05-21_15-50-11_094959634447_rgbf000101-resize_3/003490_2014-05-21_15-50-11_094959634447_rgbf000101-resize_3-target.png,125,3.6445,0,2430,126,meters,jsons/VE125_randls_45.json,601521,731432,26,Man
103,478315,DepthScenes,duration_manipulation_targetAtFixation,jsons/VE125_randls_45.json,http://54.235.29.9/FacialAge/BNav_EC2/DepthDuration/v2_depth_duration_MTurk/v2_DepthDuration_HTML.html#184,184,1366,625,1366,768,8-30-2022,10-54-5,104,depth_duration_stimuli/001199_2014-06-17_16-03-48_260595134347_rgbf000077-resize_0/001199_2014-06-17_16-03-48_260595134347_rgbf000077-resize_0-target.png,125,3.4375,0,4744,125,meters,jsons/VE125_randls_45.json,601521,731432,26,Man
104,478315,DepthScenes,duration_manipulation_targetAtFixation,jsons/VE125_randls_45.json,http://54.235.29.9/FacialAge/BNav_EC2/DepthDuration/v2_depth_duration_MTurk/v2_DepthDuration_HTML.html#184,184,1366,625,1366,768,8-30-2022,10-54-5,105,depth_duration_stimuli/000502_2014-06-08_23-02-32_260595134347_rgbf000063-resize_4/000502_2014-06-08_23-02-32_260595134347_rgbf000063-resize_4-target.png,125,2.431,0,2770,121,meters,jsons/VE125_randls_45.json,601521,731432,26,Man
105,478315,DepthScenes,duration_manipulation_targetAtFixation,jsons/VE125_randls_45.json,http://54.235.29.9/FacialAge/BNav_EC2/DepthDuration/v2_depth_duration_MTurk/v2_DepthDuration_HTML.html#184,184,1366,625,1366,768,8-30-2022,10-54-5,106,depth_duration_stimuli/001016_2014-06-09_16-16-10_260595134347_rgbf000112-resize_5/001016_2014-06-09_16-16-10_260595134347_rgbf000112-resize_5-target.png,125,1.6565,0,2449,124,meters,jsons/VE125_randls_45.json,601521,731432,26,Man
106,478315,DepthScenes,duration_manipulation_targetAtFixation,jsons/VE125_randls_45.json,http://54.235.29.9/FacialAge/BNav_EC2/DepthDuration/v2_depth_duration_MTurk/v2_DepthDuration_HTML.html#184,184,1366,625,1366,768,8-30-2022,10-54-5,107,depth_duration_stimuli/002340_2014-06-28_20-05-46_260595134347_rgbf000113-resize_0/002340_2014-06-28_20-05-46_260595134347_rgbf000113-resize_0-target.png,125,2.4735,0,2059,125,meters,jsons/VE125_randls_45.json,601521,731432,26,Man
107,478315,DepthScenes,duration_manipulation_targetAtFixation,jsons/VE125_randls_45.json,http://54.235.29.9/FacialAge/BNav_EC2/DepthDuration/v2_depth_duration_MTurk/v2_DepthDuration_HTML.html#184,184,1366,625,1366,768,8-30-2022,10-54-5,108,depth_duration_stimuli/002630_2014-06-24_14-47-50_094959634447_rgbf000055-resize_1/002630_2014-06-24_14-47-50_094959634447_rgbf000055-resize_1-target.png,125,3.0095,0,2575,125,meters,jsons/VE125_randls_45.json,601521,731432,26,Man
108,478315,DepthScenes,duration_manipulation_targetAtFixation,jsons/VE125_randls_45.json,http://54.235.29.9/FacialAge/BNav_EC2/DepthDuration/v2_depth_duration_MTurk/v2_DepthDuration_HTML.html#184,184,1366,625,1366,768,8-30-2022,10-54-5,109,depth_duration_stimuli/002758_2014-06-22_19-11-20_094959634447_rgbf000128-resize_1/002758_2014-06-22_19-11-20_094959634447_rgbf000128-resize_1-target.png,125,2.555,0,2228,123,meters,jsons/VE125_randls_45.json,601521,731432,26,Man
109,478315,DepthScenes,duration_manipulation_targetAtFixation,jsons/VE125_randls_45.json,http://54.235.29.9/FacialAge/BNav_EC2/DepthDuration/v2_depth_duration_MTurk/v2_DepthDuration_HTML.html#184,184,1366,625,1366,768,8-30-2022,10-54-5,110,depth_duration_stimuli/000917_2014-06-09_22-45-29_260595134347_rgbf000149-resize_3/000917_2014-06-09_22-45-29_260595134347_rgbf000149-resize_3-target.png,125,4.1865,0,2253,132,meters,jsons/VE125_randls_45.json,601521,731432,26,Man
110,478315,DepthScenes,duration_manipulation_targetAtFixation,jsons/VE125_randls_45.json,http://54.235.29.9/FacialAge/BNav_EC2/DepthDuration/v2_depth_duration_MTurk/v2_DepthDuration_HTML.html#184,184,1366,625,1366,768,8-30-2022,10-54-5,111,depth_duration_stimuli/002323_2014-06-28_20-01-54_260595134347_rgbf000051-resize_4/002323_2014-06-28_20-01-54_260595134347_rgbf000051-resize_4-target.png,125,3.7310000000000003,0,1945,126,meters,jsons/VE125_randls_45.json,601521,731432,26,Man
111,478315,DepthScenes,duration_manipulation_targetAtFixation,jsons/VE125_randls_45.json,http://54.235.29.9/FacialAge/BNav_EC2/DepthDuration/v2_depth_duration_MTurk/v2_DepthDuration_HTML.html#184,184,1366,625,1366,768,8-30-2022,10-54-5,112,depth_duration_stimuli/001055_2014-06-08_18-45-35_260595134347_rgbf000111-resize_4/001055_2014-06-08_18-45-35_260595134347_rgbf000111-resize_4-target.png,125,2.4290000000000003,0,2048,124,meters,jsons/VE125_randls_45.json,601521,731432,26,Man
112,478315,DepthScenes,duration_manipulation_targetAtFixation,jsons/VE125_randls_45.json,http://54.235.29.9/FacialAge/BNav_EC2/DepthDuration/v2_depth_duration_MTurk/v2_DepthDuration_HTML.html#184,184,1366,625,1366,768,8-30-2022,10-54-5,113,depth_duration_stimuli/000549_2014-06-08_22-10-24_260595134347_rgbf000247-resize_3/000549_2014-06-08_22-10-24_260595134347_rgbf000247-resize_3-target.png,125,1.841,0,2065,125,meters,jsons/VE125_randls_45.json,601521,731432,26,Man
113,478315,DepthScenes,duration_manipulation_targetAtFixation,jsons/VE125_randls_45.json,http://54.235.29.9/FacialAge/BNav_EC2/DepthDuration/v2_depth_duration_MTurk/v2_DepthDuration_HTML.html#184,184,1366,625,1366,768,8-30-2022,10-54-5,114,depth_duration_stimuli/000469_2014-06-09_19-42-10_260595134347_rgbf000081-resize_1/000469_2014-06-09_19-42-10_260595134347_rgbf000081-resize_1-target.png,125,1.652,0,2143,125,meters,jsons/VE125_randls_45.json,601521,731432,26,Man
114,478315,DepthScenes,duration_manipulation_targetAtFixation,jsons/VE125_randls_45.json,http://54.235.29.9/FacialAge/BNav_EC2/DepthDuration/v2_depth_duration_MTurk/v2_DepthDuration_HTML.html#184,184,1366,625,1366,768,8-30-2022,10-54-5,115,depth_duration_stimuli/000483_2014-06-09_20-41-45_260595134347_rgbf000116-resize_4/000483_2014-06-09_20-41-45_260595134347_rgbf000116-resize_4-target.png,125,1.337,0,1776,124,meters,jsons/VE125_randls_45.json,601521,731432,26,Man
115,478315,DepthScenes,duration_manipulation_targetAtFixation,jsons/VE125_randls_45.json,http://54.235.29.9/FacialAge/BNav_EC2/DepthDuration/v2_depth_duration_MTurk/v2_DepthDuration_HTML.html#184,184,1366,625,1366,768,8-30-2022,10-54-5,116,depth_duration_stimuli/001170_2014-06-17_15-43-44_260595134347_rgbf000096-resize_6/001170_2014-06-17_15-43-44_260595134347_rgbf000096-resize-original.jpg,125,1.1909999999999998,0,1939,125,meters,jsons/VE125_randls_45.json,601521,731432,26,Man
116,478315,DepthScenes,duration_manipulation_targetAtFixation,jsons/VE125_randls_45.json,http://54.235.29.9/FacialAge/BNav_EC2/DepthDuration/v2_depth_duration_MTurk/v2_DepthDuration_HTML.html#184,184,1366,625,1366,768,8-30-2022,10-54-5,117,depth_duration_stimuli/002964_2014-06-08_17-46-11_094959634447_rgbf000091-resize_4/002964_2014-06-08_17-46-11_094959634447_rgbf000091-resize_4-target.png,125,1.6909999999999998,0,2299,123,meters,jsons/VE125_randls_45.json,601521,731432,26,Man
117,478315,DepthScenes,duration_manipulation_targetAtFixation,jsons/VE125_randls_45.json,http://54.235.29.9/FacialAge/BNav_EC2/DepthDuration/v2_depth_duration_MTurk/v2_DepthDuration_HTML.html#184,184,1366,625,1366,768,8-30-2022,10-54-5,118,depth_duration_stimuli/002136_2014-06-25_21-18-03_260595134347_rgbf000109-resize_3/002136_2014-06-25_21-18-03_260595134347_rgbf000109-resize_3-target.png,125,1.9569999999999999,0,2942,125,meters,jsons/VE125_randls_45.json,601521,731432,26,Man
118,478315,DepthScenes,duration_manipulation_targetAtFixation,jsons/VE125_randls_45.json,http://54.235.29.9/FacialAge/BNav_EC2/DepthDuration/v2_depth_duration_MTurk/v2_DepthDuration_HTML.html#184,184,1366,625,1366,768,8-30-2022,10-54-5,119,depth_duration_stimuli/001056_2014-06-08_18-46-44_260595134347_rgbf000068-resize_0/001056_2014-06-08_18-46-44_260595134347_rgbf000068-resize_0-target.png,125,2.6625,0,2369,124,meters,jsons/VE125_randls_45.json,601521,731432,26,Man
119,478315,DepthScenes,duration_manipulation_targetAtFixation,jsons/VE125_randls_45.json,http://54.235.29.9/FacialAge/BNav_EC2/DepthDuration/v2_depth_duration_MTurk/v2_DepthDuration_HTML.html#184,184,1366,625,1366,768,8-30-2022,10-54-5,120,depth_duration_stimuli/002199_2014-06-28_18-33-56_260595134347_rgbf000074-resize_0/002199_2014-06-28_18-33-56_260595134347_rgbf000074-resize_0-target.png,125,1.996,0,2284,125,meters,jsons/VE125_randls_45.json,601521,731432,26,Man
120,478315,DepthScenes,duration_manipulation_targetAtFixation,jsons/VE125_randls_45.json,http://54.235.29.9/FacialAge/BNav_EC2/DepthDuration/v2_depth_duration_MTurk/v2_DepthDuration_HTML.html#184,184,1366,625,1366,768,8-30-2022,10-54-5,121,depth_duration_stimuli/001167_2014-06-17_15-38-07_260595134347_rgbf000108-resize_0/001167_2014-06-17_15-38-07_260595134347_rgbf000108-resize_0-target.png,125,1.8505,0,2335,125,meters,jsons/VE125_randls_45.json,601521,731432,26,Man
121,478315,DepthScenes,duration_manipulation_targetAtFixation,jsons/VE125_randls_45.json,http://54.235.29.9/FacialAge/BNav_EC2/DepthDuration/v2_depth_duration_MTurk/v2_DepthDuration_HTML.html#184,184,1366,625,1366,768,8-30-2022,10-54-5,122,depth_duration_stimuli/003587_2014-05-23_16-48-02_094959634447_rgbf002384-resize_2/003587_2014-05-23_16-48-02_094959634447_rgbf002384-resize_2-target.png,125,1.357,0,7075,113,meters,jsons/VE125_randls_45.json,601521,731432,26,Man
122,478315,DepthScenes,duration_manipulation_targetAtFixation,jsons/VE125_randls_45.json,http://54.235.29.9/FacialAge/BNav_EC2/DepthDuration/v2_depth_duration_MTurk/v2_DepthDuration_HTML.html#184,184,1366,625,1366,768,8-30-2022,10-54-5,123,depth_duration_stimuli/002279_2014-06-28_18-55-32_260595134347_rgbf000040-resize_5/002279_2014-06-28_18-55-32_260595134347_rgbf000040-resize_5-target.png,125,1.5043333333333,0,2820,125,meters,jsons/VE125_randls_45.json,601521,731432,26,Man
123,478315,DepthScenes,duration_manipulation_targetAtFixation,jsons/VE125_randls_45.json,http://54.235.29.9/FacialAge/BNav_EC2/DepthDuration/v2_depth_duration_MTurk/v2_DepthDuration_HTML.html#184,184,1366,625,1366,768,8-30-2022,10-54-5,124,depth_duration_stimuli/000635_2014-06-08_16-38-42_260595134347_rgbf000106-resize_1/000635_2014-06-08_16-38-42_260595134347_rgbf000106-resize_1-target.png,125,2.074,0,2708,126,meters,jsons/VE125_randls_45.json,601521,731432,26,Man
124,478315,DepthScenes,duration_manipulation_targetAtFixation,jsons/VE125_randls_45.json,http://54.235.29.9/FacialAge/BNav_EC2/DepthDuration/v2_depth_duration_MTurk/v2_DepthDuration_HTML.html#184,184,1366,625,1366,768,8-30-2022,10-54-5,125,depth_duration_stimuli/002153_2014-06-25_21-27-18_260595134347_rgbf000038-resize_5/002153_2014-06-25_21-27-18_260595134347_rgbf000038-resize_5-target.png,125,2.505,0,2132,124,meters,jsons/VE125_randls_45.json,601521,731432,26,Man
125,478315,DepthScenes,duration_manipulation_targetAtFixation,jsons/VE125_randls_45.json,http://54.235.29.9/FacialAge/BNav_EC2/DepthDuration/v2_depth_duration_MTurk/v2_DepthDuration_HTML.html#184,184,1366,625,1366,768,8-30-2022,10-54-5,126,depth_duration_stimuli/002660_2014-06-13_15-44-18_094959634447_rgbf001878-resize_2/002660_2014-06-13_15-44-18_094959634447_rgbf001878-resize_2-target.png,125,3.576,0,2055,123,meters,jsons/VE125_randls_45.json,601521,731432,26,Man
126,478315,DepthScenes,duration_manipulation_targetAtFixation,jsons/VE125_randls_45.json,http://54.235.29.9/FacialAge/BNav_EC2/DepthDuration/v2_depth_duration_MTurk/v2_DepthDuration_HTML.html#184,184,1366,625,1366,768,8-30-2022,10-54-5,127,depth_duration_stimuli/000447_2014-06-08_16-15-46_260595134347_rgbf000130-resize_1/000447_2014-06-08_16-15-46_260595134347_rgbf000130-resize_1-target.png,125,4.479,0,2222,124,meters,jsons/VE125_randls_45.json,601521,731432,26,Man
127,478315,DepthScenes,duration_manipulation_targetAtFixation,jsons/VE125_randls_45.json,http://54.235.29.9/FacialAge/BNav_EC2/DepthDuration/v2_depth_duration_MTurk/v2_DepthDuration_HTML.html#184,184,1366,625,1366,768,8-30-2022,10-54-5,128,depth_duration_stimuli/001447_2014-06-19_17-00-32_260595134347_rgbf000082-resize_5/001447_2014-06-19_17-00-32_260595134347_rgbf000082-resize_5-target.png,125,4.13775,0,1934,123,meters,jsons/VE125_randls_45.json,601521,731432,26,Man
128,478315,DepthScenes,duration_manipulation_targetAtFixation,jsons/VE125_randls_45.json,http://54.235.29.9/FacialAge/BNav_EC2/DepthDuration/v2_depth_duration_MTurk/v2_DepthDuration_HTML.html#184,184,1366,625,1366,768,8-30-2022,10-54-5,129,depth_duration_stimuli/001092_2014-06-15_17-34-58_260595134347_rgbf000171-resize_3/001092_2014-06-15_17-34-58_260595134347_rgbf000171-resize_3-target.png,125,2.6935,0,1979,129,meters,jsons/VE125_randls_45.json,601521,731432,26,Man
129,478315,DepthScenes,duration_manipulation_targetAtFixation,jsons/VE125_randls_45.json,http://54.235.29.9/FacialAge/BNav_EC2/DepthDuration/v2_depth_duration_MTurk/v2_DepthDuration_HTML.html#184,184,1366,625,1366,768,8-30-2022,10-54-5,130,depth_duration_stimuli/002545_2014-06-24_13-38-53_094959634447_rgbf000080-resize_4/002545_2014-06-24_13-38-53_094959634447_rgbf000080-resize_4-target.png,125,1.9205,0,2335,116,meters,jsons/VE125_randls_45.json,601521,731432,26,Man
130,478315,DepthScenes,duration_manipulation_targetAtFixation,jsons/VE125_randls_45.json,http://54.235.29.9/FacialAge/BNav_EC2/DepthDuration/v2_depth_duration_MTurk/v2_DepthDuration_HTML.html#184,184,1366,625,1366,768,8-30-2022,10-54-5,131,depth_duration_stimuli/000692_2014-06-08_13-09-42_260595134347_rgbf000199-resize_2/000692_2014-06-08_13-09-42_260595134347_rgbf000199-resize_2-target.png,125,3.661,0,2342,125,meters,jsons/VE125_randls_45.json,601521,731432,26,Man
131,478315,DepthScenes,duration_manipulation_targetAtFixation,jsons/VE125_randls_45.json,http://54.235.29.9/FacialAge/BNav_EC2/DepthDuration/v2_depth_duration_MTurk/v2_DepthDuration_HTML.html#184,184,1366,625,1366,768,8-30-2022,10-54-5,132,depth_duration_stimuli/001094_2014-06-15_17-36-00_260595134347_rgbf000205-resize_0/001094_2014-06-15_17-36-00_260595134347_rgbf000205-resize_0-target.png,125,4.2175,0,2249,124,meters,jsons/VE125_randls_45.json,601521,731432,26,Man
132,478315,DepthScenes,duration_manipulation_targetAtFixation,jsons/VE125_randls_45.json,http://54.235.29.9/FacialAge/BNav_EC2/DepthDuration/v2_depth_duration_MTurk/v2_DepthDuration_HTML.html#184,184,1366,625,1366,768,8-30-2022,10-54-5,133,depth_duration_stimuli/000878_2014-06-08_22-52-45_260595134347_rgbf000045-resize_2/000878_2014-06-08_22-52-45_260595134347_rgbf000045-resize_2-target.png,125,2.092,0,2387,129,meters,jsons/VE125_randls_45.json,601521,731432,26,Man
133,478315,DepthScenes,duration_manipulation_targetAtFixation,jsons/VE125_randls_45.json,http://54.235.29.9/FacialAge/BNav_EC2/DepthDuration/v2_depth_duration_MTurk/v2_DepthDuration_HTML.html#184,184,1366,625,1366,768,8-30-2022,10-54-5,134,depth_duration_stimuli/002953_2014-06-08_17-32-18_094959634447_rgbf000059-resize_5/002953_2014-06-08_17-32-18_094959634447_rgbf000059-resize_5-target.png,125,1.551,0,2251,138,meters,jsons/VE125_randls_45.json,601521,731432,26,Man
134,478315,DepthScenes,duration_manipulation_targetAtFixation,jsons/VE125_randls_45.json,http://54.235.29.9/FacialAge/BNav_EC2/DepthDuration/v2_depth_duration_MTurk/v2_DepthDuration_HTML.html#184,184,1366,625,1366,768,8-30-2022,10-54-5,135,depth_duration_stimuli/002072_2014-06-24_21-48-06_260595134347_rgbf000115-resize_0/002072_2014-06-24_21-48-06_260595134347_rgbf000115-resize-original.jpg,125,4.702,0,2026,125,meters,jsons/VE125_randls_45.json,601521,731432,26,Man
135,478315,DepthScenes,duration_manipulation_targetAtFixation,jsons/VE125_randls_45.json,http://54.235.29.9/FacialAge/BNav_EC2/DepthDuration/v2_depth_duration_MTurk/v2_DepthDuration_HTML.html#184,184,1366,625,1366,768,8-30-2022,10-54-5,136,depth_duration_stimuli/002905_2014-06-03_18-04-43_094959634447_rgbf000151-resize_2/002905_2014-06-03_18-04-43_094959634447_rgbf000151-resize_2-target.png,125,2.0295,0,1901,124,meters,jsons/VE125_randls_45.json,601521,731432,26,Man
136,478315,DepthScenes,duration_manipulation_targetAtFixation,jsons/VE125_randls_45.json,http://54.235.29.9/FacialAge/BNav_EC2/DepthDuration/v2_depth_duration_MTurk/v2_DepthDuration_HTML.html#184,184,1366,625,1366,768,8-30-2022,10-54-5,137,depth_duration_stimuli/003423_2014-05-21_10-23-26_094959634447_rgbf002665-resize_2/003423_2014-05-21_10-23-26_094959634447_rgbf002665-resize_2-target.png,125,3.2575,0,2300,141,meters,jsons/VE125_randls_45.json,601521,731432,26,Man
137,478315,DepthScenes,duration_manipulation_targetAtFixation,jsons/VE125_randls_45.json,http://54.235.29.9/FacialAge/BNav_EC2/DepthDuration/v2_depth_duration_MTurk/v2_DepthDuration_HTML.html#184,184,1366,625,1366,768,8-30-2022,10-54-5,138,depth_duration_stimuli/001029_2014-06-08_13-17-57_260595134347_rgbf000065-resize_1/001029_2014-06-08_13-17-57_260595134347_rgbf000065-resize_1-target.png,125,3.0835,0,2334,126,meters,jsons/VE125_randls_45.json,601521,731432,26,Man
138,478315,DepthScenes,duration_manipulation_targetAtFixation,jsons/VE125_randls_45.json,http://54.235.29.9/FacialAge/BNav_EC2/DepthDuration/v2_depth_duration_MTurk/v2_DepthDuration_HTML.html#184,184,1366,625,1366,768,8-30-2022,10-54-5,139,depth_duration_stimuli/000677_2014-06-08_23-10-32_260595134347_rgbf000158-resize_6/000677_2014-06-08_23-10-32_260595134347_rgbf000158-resize_6-target.png,125,3.556,0,2216,126,meters,jsons/VE125_randls_45.json,601521,731432,26,Man
139,478315,DepthScenes,duration_manipulation_targetAtFixation,jsons/VE125_randls_45.json,http://54.235.29.9/FacialAge/BNav_EC2/DepthDuration/v2_depth_duration_MTurk/v2_DepthDuration_HTML.html#184,184,1366,625,1366,768,8-30-2022,10-54-5,140,depth_duration_stimuli/002989_2014-06-15_12-25-03_094959634447_rgbf000150-resize_3/002989_2014-06-15_12-25-03_094959634447_rgbf000150-resize_3-target.png,125,4.1975,0,1982,126,meters,jsons/VE125_randls_45.json,601521,731432,26,Man
140,478315,DepthScenes,duration_manipulation_targetAtFixation,jsons/VE125_randls_45.json,http://54.235.29.9/FacialAge/BNav_EC2/DepthDuration/v2_depth_duration_MTurk/v2_DepthDuration_HTML.html#184,184,1366,625,1366,768,8-30-2022,10-54-5,141,depth_duration_stimuli/000866_2014-06-09_20-45-42_260595134347_rgbf000139-resize_1/000866_2014-06-09_20-45-42_260595134347_rgbf000139-resize_1-target.png,125,3.2155,0,2090,124,meters,jsons/VE125_randls_45.json,601521,731432,26,Man
141,478315,DepthScenes,duration_manipulation_targetAtFixation,jsons/VE125_randls_45.json,http://54.235.29.9/FacialAge/BNav_EC2/DepthDuration/v2_depth_duration_MTurk/v2_DepthDuration_HTML.html#184,184,1366,625,1366,768,8-30-2022,10-54-5,142,depth_duration_stimuli/001150_2014-06-17_15-27-34_260595134347_rgbf000108-resize_2/001150_2014-06-17_15-27-34_260595134347_rgbf000108-resize_2-target.png,125,4.0325,0,2851,115,meters,jsons/VE125_randls_45.json,601521,731432,26,Man
142,478315,DepthScenes,duration_manipulation_targetAtFixation,jsons/VE125_randls_45.json,http://54.235.29.9/FacialAge/BNav_EC2/DepthDuration/v2_depth_duration_MTurk/v2_DepthDuration_HTML.html#184,184,1366,625,1366,768,8-30-2022,10-54-5,143,depth_duration_stimuli/000665_2014-06-09_20-42-35_260595134347_rgbf000110-resize_1/000665_2014-06-09_20-42-35_260595134347_rgbf000110-resize_1-target.png,125,3.057,0,2142,126,meters,jsons/VE125_randls_45.json,601521,731432,26,Man
143,478315,DepthScenes,duration_manipulation_targetAtFixation,jsons/VE125_randls_45.json,http://54.235.29.9/FacialAge/BNav_EC2/DepthDuration/v2_depth_duration_MTurk/v2_DepthDuration_HTML.html#184,184,1366,625,1366,768,8-30-2022,10-54-5,144,depth_duration_stimuli/001066_2014-06-08_22-03-20_260595134347_rgbf000066-resize_4/001066_2014-06-08_22-03-20_260595134347_rgbf000066-resize_4-target.png,125,4.2330000000000005,0,4910,133,meters,jsons/VE125_randls_45.json,601521,731432,26,Man
144,478315,DepthScenes,duration_manipulation_targetAtFixation,jsons/VE125_randls_45.json,http://54.235.29.9/FacialAge/BNav_EC2/DepthDuration/v2_depth_duration_MTurk/v2_DepthDuration_HTML.html#184,184,1366,625,1366,768,8-30-2022,10-54-5,145,depth_duration_stimuli/000742_2014-06-08_18-48-09_260595134347_rgbf000164-resize_4/000742_2014-06-08_18-48-09_260595134347_rgbf000164-resize_4-target.png,125,4.632,0,2883,126,meters,jsons/VE125_randls_45.json,601521,731432,26,Man
145,478315,DepthScenes,duration_manipulation_targetAtFixation,jsons/VE125_randls_45.json,http://54.235.29.9/FacialAge/BNav_EC2/DepthDuration/v2_depth_duration_MTurk/v2_DepthDuration_HTML.html#184,184,1366,625,1366,768,8-30-2022,10-54-5,146,depth_duration_stimuli/001498_2014-06-19_17-45-14_260595134347_rgbf000129-resize_4/001498_2014-06-19_17-45-14_260595134347_rgbf000129-resize-original.jpg,125,1.4075,0,4074,124,meters,jsons/VE125_randls_45.json,601521,731432,26,Man
146,478315,DepthScenes,duration_manipulation_targetAtFixation,jsons/VE125_randls_45.json,http://54.235.29.9/FacialAge/BNav_EC2/DepthDuration/v2_depth_duration_MTurk/v2_DepthDuration_HTML.html#184,184,1366,625,1366,768,8-30-2022,10-54-5,147,depth_duration_stimuli/000506_2014-06-08_23-21-00_260595134347_rgbf000070-resize_7/000506_2014-06-08_23-21-00_260595134347_rgbf000070-resize_7-target.png,125,4.0585,0,2521,117,meters,jsons/VE125_randls_45.json,601521,731432,26,Man
147,478315,DepthScenes,duration_manipulation_targetAtFixation,jsons/VE125_randls_45.json,http://54.235.29.9/FacialAge/BNav_EC2/DepthDuration/v2_depth_duration_MTurk/v2_DepthDuration_HTML.html#184,184,1366,625,1366,768,8-30-2022,10-54-5,148,depth_duration_stimuli/003079_2014-06-15_15-18-20_094959634447_rgbf000152-resize_8/003079_2014-06-15_15-18-20_094959634447_rgbf000152-resize_8-target.png,125,2.8775,0,3856,127,meters,jsons/VE125_randls_45.json,601521,731432,26,Man
148,478315,DepthScenes,duration_manipulation_targetAtFixation,jsons/VE125_randls_45.json,http://54.235.29.9/FacialAge/BNav_EC2/DepthDuration/v2_depth_duration_MTurk/v2_DepthDuration_HTML.html#184,184,1366,625,1366,768,8-30-2022,10-54-5,149,depth_duration_stimuli/001164_2014-06-17_15-35-46_260595134347_rgbf000085-resize_3/001164_2014-06-17_15-35-46_260595134347_rgbf000085-resize_3-target.png,125,2.354,0,2389,125,meters,jsons/VE125_randls_45.json,601521,731432,26,Man
149,478315,DepthScenes,duration_manipulation_targetAtFixation,jsons/VE125_randls_45.json,http://54.235.29.9/FacialAge/BNav_EC2/DepthDuration/v2_depth_duration_MTurk/v2_DepthDuration_HTML.html#184,184,1366,625,1366,768,8-30-2022,10-54-5,150,depth_duration_stimuli/001136_2014-06-17_15-19-41_260595134347_rgbf000076-resize_3/001136_2014-06-17_15-19-41_260595134347_rgbf000076-resize_3-target.png,125,1.8655,0,3091,124,meters,jsons/VE125_randls_45.json,601521,731432,26,Man
150,478315,DepthScenes,duration_manipulation_targetAtFixation,jsons/VE125_randls_45.json,http://54.235.29.9/FacialAge/BNav_EC2/DepthDuration/v2_depth_duration_MTurk/v2_DepthDuration_HTML.html#184,184,1366,625,1366,768,8-30-2022,10-54-5,151,depth_duration_stimuli/000368_2014-06-09_15-53-01_260595134347_rgbf000155-resize_2/000368_2014-06-09_15-53-01_260595134347_rgbf000155-resize_2-target.png,125,2.4859999999999998,0,2297,124,meters,jsons/VE125_randls_45.json,601521,731432,26,Man
151,478315,DepthScenes,duration_manipulation_targetAtFixation,jsons/VE125_randls_45.json,http://54.235.29.9/FacialAge/BNav_EC2/DepthDuration/v2_depth_duration_MTurk/v2_DepthDuration_HTML.html#184,184,1366,625,1366,768,8-30-2022,10-54-5,152,depth_duration_stimuli/002678_2014-06-13_16-15-32_094959634447_rgbf000151-resize_6/002678_2014-06-13_16-15-32_094959634447_rgbf000151-resize_6-target.png,125,2.1830000000000003,0,2259,124,meters,jsons/VE125_randls_45.json,601521,731432,26,Man
152,478315,DepthScenes,duration_manipulation_targetAtFixation,jsons/VE125_randls_45.json,http://54.235.29.9/FacialAge/BNav_EC2/DepthDuration/v2_depth_duration_MTurk/v2_DepthDuration_HTML.html#184,184,1366,625,1366,768,8-30-2022,10-54-5,153,depth_duration_stimuli/003621_2014-05-23_18-06-08_094959634447_rgbf000101-resize_1/003621_2014-05-23_18-06-08_094959634447_rgbf000101-resize_1-target.png,125,3.9835,0,2346,122,meters,jsons/VE125_randls_45.json,601521,731432,26,Man
153,478315,DepthScenes,duration_manipulation_targetAtFixation,jsons/VE125_randls_45.json,http://54.235.29.9/FacialAge/BNav_EC2/DepthDuration/v2_depth_duration_MTurk/v2_DepthDuration_HTML.html#184,184,1366,625,1366,768,8-30-2022,10-54-5,154,depth_duration_stimuli/001584_2014-06-20_11-07-43_260595134347_rgbf000002-resize_1/001584_2014-06-20_11-07-43_260595134347_rgbf000002-resize_1-target.png,125,3.53,0,4654,124,meters,jsons/VE125_randls_45.json,601521,731432,26,Man
154,478315,DepthScenes,duration_manipulation_targetAtFixation,jsons/VE125_randls_45.json,http://54.235.29.9/FacialAge/BNav_EC2/DepthDuration/v2_depth_duration_MTurk/v2_DepthDuration_HTML.html#184,184,1366,625,1366,768,8-30-2022,10-54-5,155,depth_duration_stimuli/000009_2014-05-26_14-32-05_260595134347_rgbf000034-resize_3/000009_2014-05-26_14-32-05_260595134347_rgbf000034-resize_3-target.png,125,3.8715,0,2335,125,meters,jsons/VE125_randls_45.json,601521,731432,26,Man
155,478315,DepthScenes,duration_manipulation_targetAtFixation,jsons/VE125_randls_45.json,http://54.235.29.9/FacialAge/BNav_EC2/DepthDuration/v2_depth_duration_MTurk/v2_DepthDuration_HTML.html#184,184,1366,625,1366,768,8-30-2022,10-54-5,156,depth_duration_stimuli/001828_2014-06-26_21-40-03_260595134347_rgbf000024-resize_0/001828_2014-06-26_21-40-03_260595134347_rgbf000024-resize_0-target.png,125,4.8260000000000005,0,2659,124,meters,jsons/VE125_randls_45.json,601521,731432,26,Man
156,478315,DepthScenes,duration_manipulation_targetAtFixation,jsons/VE125_randls_45.json,http://54.235.29.9/FacialAge/BNav_EC2/DepthDuration/v2_depth_duration_MTurk/v2_DepthDuration_HTML.html#184,184,1366,625,1366,768,8-30-2022,10-54-5,157,depth_duration_stimuli/002445_2014-06-28_20-32-16_260595134347_rgbf000029-resize_4/002445_2014-06-28_20-32-16_260595134347_rgbf000029-resize_4-target.png,125,2.5315,0,3537,124,meters,jsons/VE125_randls_45.json,601521,731432,26,Man
157,478315,DepthScenes,duration_manipulation_targetAtFixation,jsons/VE125_randls_45.json,http://54.235.29.9/FacialAge/BNav_EC2/DepthDuration/v2_depth_duration_MTurk/v2_DepthDuration_HTML.html#184,184,1366,625,1366,768,8-30-2022,10-54-5,158,depth_duration_stimuli/000780_2014-06-08_22-28-29_260595134347_rgbf000126-resize_1/000780_2014-06-08_22-28-29_260595134347_rgbf000126-resize_1-target.png,125,3.3825,0,2456,125,meters,jsons/VE125_randls_45.json,601521,731432,26,Man
158,478315,DepthScenes,duration_manipulation_targetAtFixation,jsons/VE125_randls_45.json,http://54.235.29.9/FacialAge/BNav_EC2/DepthDuration/v2_depth_duration_MTurk/v2_DepthDuration_HTML.html#184,184,1366,625,1366,768,8-30-2022,10-54-5,159,depth_duration_stimuli/002748_2014-06-22_19-07-22_094959634447_rgbf000078-resize_1/002748_2014-06-22_19-07-22_094959634447_rgbf000078-resize_1-target.png,125,4.6705,0,2309,124,meters,jsons/VE125_randls_45.json,601521,731432,26,Man
159,478315,DepthScenes,duration_manipulation_targetAtFixation,jsons/VE125_randls_45.json,http://54.235.29.9/FacialAge/BNav_EC2/DepthDuration/v2_depth_duration_MTurk/v2_DepthDuration_HTML.html#184,184,1366,625,1366,768,8-30-2022,10-54-5,160,depth_duration_stimuli/002995_2014-06-15_12-31-26_094959634447_rgbf000150-resize_1/002995_2014-06-15_12-31-26_094959634447_rgbf000150-resize_1-target.png,125,3.8360000000000003,0,2049,125,meters,jsons/VE125_randls_45.json,601521,731432,26,Man
160,478315,DepthScenes,duration_manipulation_targetAtFixation,jsons/VE125_randls_45.json,http://54.235.29.9/FacialAge/BNav_EC2/DepthDuration/v2_depth_duration_MTurk/v2_DepthDuration_HTML.html#184,184,1366,625,1366,768,8-30-2022,10-54-5,161,depth_duration_stimuli/002272_2014-06-28_18-53-56_260595134347_rgbf000067-resize_2/002272_2014-06-28_18-53-56_260595134347_rgbf000067-resize_2-target.png,125,1.138,0,2385,125,meters,jsons/VE125_randls_45.json,601521,731432,26,Man
161,478315,DepthScenes,duration_manipulation_targetAtFixation,jsons/VE125_randls_45.json,http://54.235.29.9/FacialAge/BNav_EC2/DepthDuration/v2_depth_duration_MTurk/v2_DepthDuration_HTML.html#184,184,1366,625,1366,768,8-30-2022,10-54-5,162,depth_duration_stimuli/001571_2014-06-20_17-21-32_260595134347_rgbf000089-resize_1/001571_2014-06-20_17-21-32_260595134347_rgbf000089-resize_1-target.png,125,1.86,0,2703,125,meters,jsons/VE125_randls_45.json,601521,731432,26,Man
162,478315,DepthScenes,duration_manipulation_targetAtFixation,jsons/VE125_randls_45.json,http://54.235.29.9/FacialAge/BNav_EC2/DepthDuration/v2_depth_duration_MTurk/v2_DepthDuration_HTML.html#184,184,1366,625,1366,768,8-30-2022,10-54-5,163,depth_duration_stimuli/003070_2014-06-15_14-58-27_094959634447_rgbf000150-resize_3/003070_2014-06-15_14-58-27_094959634447_rgbf000150-resize_3-target.png,125,2.9415,0,5776,126,meters,jsons/VE125_randls_45.json,601521,731432,26,Man
163,478315,DepthScenes,duration_manipulation_targetAtFixation,jsons/VE125_randls_45.json,http://54.235.29.9/FacialAge/BNav_EC2/DepthDuration/v2_depth_duration_MTurk/v2_DepthDuration_HTML.html#184,184,1366,625,1366,768,8-30-2022,10-54-5,164,depth_duration_stimuli/000943_2014-06-09_19-31-07_260595134347_rgbf000128-resize_1/000943_2014-06-09_19-31-07_260595134347_rgbf000128-resize_1-target.png,125,1.9765,0,3177,142,meters,jsons/VE125_randls_45.json,601521,731432,26,Man
