,subjID,experimentName,versionName,sequenceName,url,selected_row,windowWidth,windowHeight,screenWidth,screenHeight,startDate,startTime,trial,stimulus,duration,actual_depth,depth_estimate,trial_RT,log_sceneDuration,unitSelection,seq_filepath,experimentTime,totalTime,age,gender
0,478870,DepthScenes,duration_manipulation_targetAtFixation,jsons/v1_VE1000_randls_65_rotated.json,http://54.235.29.9/FacialAge/BNav_EC2/DepthDuration/v2_depth_duration_MTurk/v2_DepthDuration_HTML.html#151,151,1366,768,1366,768,8-30-2022,11-0-26,1,depth_duration_stimuli/002568_2014-06-24_13-59-21_094959634447_rgbf000062-resize_4/002568_2014-06-24_13-59-21_094959634447_rgbf000062-resize_4-target.png,1000,3.015,1,3347,1000,meters,jsons/v1_VE1000_randls_65_rotated.json,1903063,2874605,25,Man
1,478870,DepthScenes,duration_manipulation_targetAtFixation,jsons/v1_VE1000_randls_65_rotated.json,http://54.235.29.9/FacialAge/BNav_EC2/DepthDuration/v2_depth_duration_MTurk/v2_DepthDuration_HTML.html#151,151,1366,768,1366,768,8-30-2022,11-0-26,2,depth_duration_stimuli/003492_2014-05-21_15-50-55_094959634447_rgbf000828-resize_1/003492_2014-05-21_15-50-55_094959634447_rgbf000828-resize_1-target.png,1000,4.06875,1,3139,1001,meters,jsons/v1_VE1000_randls_65_rotated.json,1903063,2874605,25,Man
2,478870,DepthScenes,duration_manipulation_targetAtFixation,jsons/v1_VE1000_randls_65_rotated.json,http://54.235.29.9/FacialAge/BNav_EC2/DepthDuration/v2_depth_duration_MTurk/v2_DepthDuration_HTML.html#151,151,1366,768,1366,768,8-30-2022,11-0-26,3,depth_duration_stimuli/002657_2014-06-13_15-29-54_094959634447_rgbf000150-resize_1/002657_2014-06-13_15-29-54_094959634447_rgbf000150-resize_1-target.png,1000,4.919,1,48028,1001,meters,jsons/v1_VE1000_randls_65_rotated.json,1903063,2874605,25,Man
3,478870,DepthScenes,duration_manipulation_targetAtFixation,jsons/v1_VE1000_randls_65_rotated.json,http://54.235.29.9/FacialAge/BNav_EC2/DepthDuration/v2_depth_duration_MTurk/v2_DepthDuration_HTML.html#151,151,1366,625,1366,768,8-30-2022,11-0-26,4,depth_duration_stimuli/002375_2014-06-28_20-13-44_260595134347_rgbf000032-resize_1/002375_2014-06-28_20-13-44_260595134347_rgbf000032-resize_1-target.png,1000,4.0175,1,453576,1000,meters,jsons/v1_VE1000_randls_65_rotated.json,1903063,2874605,25,Man
4,478870,DepthScenes,duration_manipulation_targetAtFixation,jsons/v1_VE1000_randls_65_rotated.json,http://54.235.29.9/FacialAge/BNav_EC2/DepthDuration/v2_depth_duration_MTurk/v2_DepthDuration_HTML.html#151,151,1366,625,1366,768,8-30-2022,11-0-26,5,depth_duration_stimuli/002949_2014-06-26_15-57-42_094959634447_rgbf000079-resize_1/002949_2014-06-26_15-57-42_094959634447_rgbf000079-resize_1-target.png,1000,1.8915,1,4234,999,meters,jsons/v1_VE1000_randls_65_rotated.json,1903063,2874605,25,Man
5,478870,DepthScenes,duration_manipulation_targetAtFixation,jsons/v1_VE1000_randls_65_rotated.json,http://54.235.29.9/FacialAge/BNav_EC2/DepthDuration/v2_depth_duration_MTurk/v2_DepthDuration_HTML.html#151,151,1366,625,1366,768,8-30-2022,11-0-26,6,depth_duration_stimuli/000522_2014-06-08_13-35-06_260595134347_rgbf000244-resize_1/000522_2014-06-08_13-35-06_260595134347_rgbf000244-resize_1-target.png,1000,2.3715,1,3898,1000,meters,jsons/v1_VE1000_randls_65_rotated.json,1903063,2874605,25,Man
6,478870,DepthScenes,duration_manipulation_targetAtFixation,jsons/v1_VE1000_randls_65_rotated.json,http://54.235.29.9/FacialAge/BNav_EC2/DepthDuration/v2_depth_duration_MTurk/v2_DepthDuration_HTML.html#151,151,1366,625,1366,768,8-30-2022,11-0-26,7,depth_duration_stimuli/001650_2014-06-20_12-09-00_260595134347_rgbf000087-resize_3/001650_2014-06-20_12-09-00_260595134347_rgbf000087-resize_3-target.png,1000,1.9505,1,3409,998,meters,jsons/v1_VE1000_randls_65_rotated.json,1903063,2874605,25,Man
7,478870,DepthScenes,duration_manipulation_targetAtFixation,jsons/v1_VE1000_randls_65_rotated.json,http://54.235.29.9/FacialAge/BNav_EC2/DepthDuration/v2_depth_duration_MTurk/v2_DepthDuration_HTML.html#151,151,1366,625,1366,768,8-30-2022,11-0-26,8,depth_duration_stimuli/000682_2014-06-08_23-14-58_260595134347_rgbf000041-resize_5/000682_2014-06-08_23-14-58_260595134347_rgbf000041-resize_5-target.png,1000,2.7239999999999998,1,2898,999,meters,jsons/v1_VE1000_randls_65_rotated.json,1903063,2874605,25,Man
8,478870,DepthScenes,duration_manipulation_targetAtFixation,jsons/v1_VE1000_randls_65_rotated.json,http://54.235.29.9/FacialAge/BNav_EC2/DepthDuration/v2_depth_duration_MTurk/v2_DepthDuration_HTML.html#151,151,1366,625,1366,768,8-30-2022,11-0-26,9,depth_duration_stimuli/002344_2014-06-28_20-06-29_260595134347_rgbf000030-resize_1/002344_2014-06-28_20-06-29_260595134347_rgbf000030-resize_1-target.png,1000,1.5795,1,3066,999,meters,jsons/v1_VE1000_randls_65_rotated.json,1903063,2874605,25,Man
9,478870,DepthScenes,duration_manipulation_targetAtFixation,jsons/v1_VE1000_randls_65_rotated.json,http://54.235.29.9/FacialAge/BNav_EC2/DepthDuration/v2_depth_duration_MTurk/v2_DepthDuration_HTML.html#151,151,1366,625,1366,768,8-30-2022,11-0-26,10,depth_duration_stimuli/002725_2014-06-22_11-47-51_094959634447_rgbf000070-resize_1/002725_2014-06-22_11-47-51_094959634447_rgbf000070-resize_1-target.png,1000,2.195,1,3235,1000,meters,jsons/v1_VE1000_randls_65_rotated.json,1903063,2874605,25,Man
10,478870,DepthScenes,duration_manipulation_targetAtFixation,jsons/v1_VE1000_randls_65_rotated.json,http://54.235.29.9/FacialAge/BNav_EC2/DepthDuration/v2_depth_duration_MTurk/v2_DepthDuration_HTML.html#151,151,1366,625,1366,768,8-30-2022,11-0-26,11,depth_duration_stimuli/002209_2014-06-28_18-36-10_260595134347_rgbf000051-resize_1/002209_2014-06-28_18-36-10_260595134347_rgbf000051-resize_1-target.png,1000,2.057,1,4218,1000,meters,jsons/v1_VE1000_randls_65_rotated.json,1903063,2874605,25,Man
11,478870,DepthScenes,duration_manipulation_targetAtFixation,jsons/v1_VE1000_randls_65_rotated.json,http://54.235.29.9/FacialAge/BNav_EC2/DepthDuration/v2_depth_duration_MTurk/v2_DepthDuration_HTML.html#151,151,1366,625,1366,768,8-30-2022,11-0-26,12,depth_duration_stimuli/002763_2014-06-22_19-13-10_094959634447_rgbf000075-resize_4/002763_2014-06-22_19-13-10_094959634447_rgbf000075-resize_4-target.png,1000,1.68375,1,3066,999,meters,jsons/v1_VE1000_randls_65_rotated.json,1903063,2874605,25,Man
12,478870,DepthScenes,duration_manipulation_targetAtFixation,jsons/v1_VE1000_randls_65_rotated.json,http://54.235.29.9/FacialAge/BNav_EC2/DepthDuration/v2_depth_duration_MTurk/v2_DepthDuration_HTML.html#151,151,1366,625,1366,768,8-30-2022,11-0-26,13,depth_duration_stimuli/001815_2014-06-26_20-52-55_260595134347_rgbf000020-resize_0/001815_2014-06-26_20-52-55_260595134347_rgbf000020-resize_0-target.png,1000,3.3865,2,4115,1001,meters,jsons/v1_VE1000_randls_65_rotated.json,1903063,2874605,25,Man
13,478870,DepthScenes,duration_manipulation_targetAtFixation,jsons/v1_VE1000_randls_65_rotated.json,http://54.235.29.9/FacialAge/BNav_EC2/DepthDuration/v2_depth_duration_MTurk/v2_DepthDuration_HTML.html#151,151,1366,625,1366,768,8-30-2022,11-0-26,14,depth_duration_stimuli/001808_2014-06-26_20-50-58_260595134347_rgbf000029-resize_1/001808_2014-06-26_20-50-58_260595134347_rgbf000029-resize_1-target.png,1000,4.249,2,3123,1000,meters,jsons/v1_VE1000_randls_65_rotated.json,1903063,2874605,25,Man
14,478870,DepthScenes,duration_manipulation_targetAtFixation,jsons/v1_VE1000_randls_65_rotated.json,http://54.235.29.9/FacialAge/BNav_EC2/DepthDuration/v2_depth_duration_MTurk/v2_DepthDuration_HTML.html#151,151,1366,625,1366,768,8-30-2022,11-0-26,15,depth_duration_stimuli/000109_2014-05-14_23-41-52_260595134347_rgbf000035-resize_9/000109_2014-05-14_23-41-52_260595134347_rgbf000035-resize_9-target.png,1000,1.3545,2,3006,1000,meters,jsons/v1_VE1000_randls_65_rotated.json,1903063,2874605,25,Man
15,478870,DepthScenes,duration_manipulation_targetAtFixation,jsons/v1_VE1000_randls_65_rotated.json,http://54.235.29.9/FacialAge/BNav_EC2/DepthDuration/v2_depth_duration_MTurk/v2_DepthDuration_HTML.html#151,151,1366,625,1366,768,8-30-2022,11-0-26,16,depth_duration_stimuli/000470_2014-06-09_19-42-40_260595134347_rgbf000094-resize_1/000470_2014-06-09_19-42-40_260595134347_rgbf000094-resize_1-target.png,1000,1.831,1,2952,1001,meters,jsons/v1_VE1000_randls_65_rotated.json,1903063,2874605,25,Man
16,478870,DepthScenes,duration_manipulation_targetAtFixation,jsons/v1_VE1000_randls_65_rotated.json,http://54.235.29.9/FacialAge/BNav_EC2/DepthDuration/v2_depth_duration_MTurk/v2_DepthDuration_HTML.html#151,151,1366,625,1366,768,8-30-2022,11-0-26,17,depth_duration_stimuli/000927_2014-06-09_16-32-30_260595134347_rgbf000123-resize_3/000927_2014-06-09_16-32-30_260595134347_rgbf000123-resize_3-target.png,1000,2.6785,1,3059,1001,meters,jsons/v1_VE1000_randls_65_rotated.json,1903063,2874605,25,Man
17,478870,DepthScenes,duration_manipulation_targetAtFixation,jsons/v1_VE1000_randls_65_rotated.json,http://54.235.29.9/FacialAge/BNav_EC2/DepthDuration/v2_depth_duration_MTurk/v2_DepthDuration_HTML.html#151,151,1366,625,1366,768,8-30-2022,11-0-26,18,depth_duration_stimuli/001110_2014-06-15_17-25-28_260595134347_rgbf000150-resize_1/001110_2014-06-15_17-25-28_260595134347_rgbf000150-resize_1-target.png,1000,1.7115,1,3099,1002,meters,jsons/v1_VE1000_randls_65_rotated.json,1903063,2874605,25,Man
18,478870,DepthScenes,duration_manipulation_targetAtFixation,jsons/v1_VE1000_randls_65_rotated.json,http://54.235.29.9/FacialAge/BNav_EC2/DepthDuration/v2_depth_duration_MTurk/v2_DepthDuration_HTML.html#151,151,1366,625,1366,768,8-30-2022,11-0-26,19,depth_duration_stimuli/001498_2014-06-19_17-45-14_260595134347_rgbf000129-resize_4/001498_2014-06-19_17-45-14_260595134347_rgbf000129-resize-original.jpg,1000,1.4075,0,3323,999,meters,jsons/v1_VE1000_randls_65_rotated.json,1903063,2874605,25,Man
19,478870,DepthScenes,duration_manipulation_targetAtFixation,jsons/v1_VE1000_randls_65_rotated.json,http://54.235.29.9/FacialAge/BNav_EC2/DepthDuration/v2_depth_duration_MTurk/v2_DepthDuration_HTML.html#151,151,1366,625,1366,768,8-30-2022,11-0-26,20,depth_duration_stimuli/000483_2014-06-09_20-41-45_260595134347_rgbf000116-resize_4/000483_2014-06-09_20-41-45_260595134347_rgbf000116-resize_4-target.png,1000,1.337,1,3235,1001,meters,jsons/v1_VE1000_randls_65_rotated.json,1903063,2874605,25,Man
20,478870,DepthScenes,duration_manipulation_targetAtFixation,jsons/v1_VE1000_randls_65_rotated.json,http://54.235.29.9/FacialAge/BNav_EC2/DepthDuration/v2_depth_duration_MTurk/v2_DepthDuration_HTML.html#151,151,1366,625,1366,768,8-30-2022,11-0-26,21,depth_duration_stimuli/000469_2014-06-09_19-42-10_260595134347_rgbf000081-resize_1/000469_2014-06-09_19-42-10_260595134347_rgbf000081-resize_1-target.png,1000,1.652,1,2795,1000,meters,jsons/v1_VE1000_randls_65_rotated.json,1903063,2874605,25,Man
21,478870,DepthScenes,duration_manipulation_targetAtFixation,jsons/v1_VE1000_randls_65_rotated.json,http://54.235.29.9/FacialAge/BNav_EC2/DepthDuration/v2_depth_duration_MTurk/v2_DepthDuration_HTML.html#151,151,1366,625,1366,768,8-30-2022,11-0-26,22,depth_duration_stimuli/003423_2014-05-21_10-23-26_094959634447_rgbf002665-resize_2/003423_2014-05-21_10-23-26_094959634447_rgbf002665-resize_2-target.png,1000,3.2575,1,2849,999,meters,jsons/v1_VE1000_randls_65_rotated.json,1903063,2874605,25,Man
22,478870,DepthScenes,duration_manipulation_targetAtFixation,jsons/v1_VE1000_randls_65_rotated.json,http://54.235.29.9/FacialAge/BNav_EC2/DepthDuration/v2_depth_duration_MTurk/v2_DepthDuration_HTML.html#151,151,1366,625,1366,768,8-30-2022,11-0-26,23,depth_duration_stimuli/002905_2014-06-03_18-04-43_094959634447_rgbf000151-resize_2/002905_2014-06-03_18-04-43_094959634447_rgbf000151-resize_2-target.png,1000,2.0295,1,3019,1000,meters,jsons/v1_VE1000_randls_65_rotated.json,1903063,2874605,25,Man
23,478870,DepthScenes,duration_manipulation_targetAtFixation,jsons/v1_VE1000_randls_65_rotated.json,http://54.235.29.9/FacialAge/BNav_EC2/DepthDuration/v2_depth_duration_MTurk/v2_DepthDuration_HTML.html#151,151,1366,625,1366,768,8-30-2022,11-0-26,24,depth_duration_stimuli/000780_2014-06-08_22-28-29_260595134347_rgbf000126-resize_1/000780_2014-06-08_22-28-29_260595134347_rgbf000126-resize_1-target.png,1000,3.3825,2,64244,1000,meters,jsons/v1_VE1000_randls_65_rotated.json,1903063,2874605,25,Man
24,478870,DepthScenes,duration_manipulation_targetAtFixation,jsons/v1_VE1000_randls_65_rotated.json,http://54.235.29.9/FacialAge/BNav_EC2/DepthDuration/v2_depth_duration_MTurk/v2_DepthDuration_HTML.html#151,151,1366,625,1366,768,8-30-2022,11-0-26,25,depth_duration_stimuli/002445_2014-06-28_20-32-16_260595134347_rgbf000029-resize_4/002445_2014-06-28_20-32-16_260595134347_rgbf000029-resize_4-target.png,1000,2.5315,2,3089,1000,meters,jsons/v1_VE1000_randls_65_rotated.json,1903063,2874605,25,Man
25,478870,DepthScenes,duration_manipulation_targetAtFixation,jsons/v1_VE1000_randls_65_rotated.json,http://54.235.29.9/FacialAge/BNav_EC2/DepthDuration/v2_depth_duration_MTurk/v2_DepthDuration_HTML.html#151,151,1366,625,1366,768,8-30-2022,11-0-26,26,depth_duration_stimuli/001235_2014-06-17_16-37-36_260595134347_rgbf000084-resize_4/001235_2014-06-17_16-37-36_260595134347_rgbf000084-resize_4-target.png,1000,3.6605,2,2725,999,meters,jsons/v1_VE1000_randls_65_rotated.json,1903063,2874605,25,Man
26,478870,DepthScenes,duration_manipulation_targetAtFixation,jsons/v1_VE1000_randls_65_rotated.json,http://54.235.29.9/FacialAge/BNav_EC2/DepthDuration/v2_depth_duration_MTurk/v2_DepthDuration_HTML.html#151,151,1366,625,1366,768,8-30-2022,11-0-26,27,depth_duration_stimuli/000788_2014-06-08_22-34-36_260595134347_rgbf000131-resize_1/000788_2014-06-08_22-34-36_260595134347_rgbf000131-resize_1-target.png,1000,3.359,2,2935,999,meters,jsons/v1_VE1000_randls_65_rotated.json,1903063,2874605,25,Man
27,478870,DepthScenes,duration_manipulation_targetAtFixation,jsons/v1_VE1000_randls_65_rotated.json,http://54.235.29.9/FacialAge/BNav_EC2/DepthDuration/v2_depth_duration_MTurk/v2_DepthDuration_HTML.html#151,151,1366,625,1366,768,8-30-2022,11-0-26,28,depth_duration_stimuli/000866_2014-06-09_20-45-42_260595134347_rgbf000139-resize_1/000866_2014-06-09_20-45-42_260595134347_rgbf000139-resize_1-target.png,1000,3.2155,1,2987,999,meters,jsons/v1_VE1000_randls_65_rotated.json,1903063,2874605,25,Man
28,478870,DepthScenes,duration_manipulation_targetAtFixation,jsons/v1_VE1000_randls_65_rotated.json,http://54.235.29.9/FacialAge/BNav_EC2/DepthDuration/v2_depth_duration_MTurk/v2_DepthDuration_HTML.html#151,151,1366,625,1366,768,8-30-2022,11-0-26,29,depth_duration_stimuli/002989_2014-06-15_12-25-03_094959634447_rgbf000150-resize_3/002989_2014-06-15_12-25-03_094959634447_rgbf000150-resize_3-target.png,1000,4.1975,2,3401,1000,meters,jsons/v1_VE1000_randls_65_rotated.json,1903063,2874605,25,Man
29,478870,DepthScenes,duration_manipulation_targetAtFixation,jsons/v1_VE1000_randls_65_rotated.json,http://54.235.29.9/FacialAge/BNav_EC2/DepthDuration/v2_depth_duration_MTurk/v2_DepthDuration_HTML.html#151,151,1366,625,1366,768,8-30-2022,11-0-26,30,depth_duration_stimuli/002072_2014-06-24_21-48-06_260595134347_rgbf000115-resize_0/002072_2014-06-24_21-48-06_260595134347_rgbf000115-resize-original.jpg,1000,4.702,0,3875,1001,meters,jsons/v1_VE1000_randls_65_rotated.json,1903063,2874605,25,Man
30,478870,DepthScenes,duration_manipulation_targetAtFixation,jsons/v1_VE1000_randls_65_rotated.json,http://54.235.29.9/FacialAge/BNav_EC2/DepthDuration/v2_depth_duration_MTurk/v2_DepthDuration_HTML.html#151,151,1366,625,1366,768,8-30-2022,11-0-26,31,depth_duration_stimuli/002750_2014-06-22_19-08-03_094959634447_rgbf000094-resize_4/002750_2014-06-22_19-08-03_094959634447_rgbf000094-resize_4-target.png,1000,2.354,1,3796,1000,meters,jsons/v1_VE1000_randls_65_rotated.json,1903063,2874605,25,Man
31,478870,DepthScenes,duration_manipulation_targetAtFixation,jsons/v1_VE1000_randls_65_rotated.json,http://54.235.29.9/FacialAge/BNav_EC2/DepthDuration/v2_depth_duration_MTurk/v2_DepthDuration_HTML.html#151,151,1366,625,1366,768,8-30-2022,11-0-26,32,depth_duration_stimuli/002549_2014-06-24_13-41-39_094959634447_rgbf000022-resize_3/002549_2014-06-24_13-41-39_094959634447_rgbf000022-resize_3-target.png,1000,1.476,1,3106,999,meters,jsons/v1_VE1000_randls_65_rotated.json,1903063,2874605,25,Man
32,478870,DepthScenes,duration_manipulation_targetAtFixation,jsons/v1_VE1000_randls_65_rotated.json,http://54.235.29.9/FacialAge/BNav_EC2/DepthDuration/v2_depth_duration_MTurk/v2_DepthDuration_HTML.html#151,151,1366,625,1366,768,8-30-2022,11-0-26,33,depth_duration_stimuli/003083_2014-06-15_15-21-03_094959634447_rgbf000063-resize_1/003083_2014-06-15_15-21-03_094959634447_rgbf000063-resize_1-target.png,1000,4.1405,2,3274,1000,meters,jsons/v1_VE1000_randls_65_rotated.json,1903063,2874605,25,Man
33,478870,DepthScenes,duration_manipulation_targetAtFixation,jsons/v1_VE1000_randls_65_rotated.json,http://54.235.29.9/FacialAge/BNav_EC2/DepthDuration/v2_depth_duration_MTurk/v2_DepthDuration_HTML.html#151,151,1366,625,1366,768,8-30-2022,11-0-26,34,depth_duration_stimuli/000486_2014-06-09_20-47-20_260595134347_rgbf000143-resize_2/000486_2014-06-09_20-47-20_260595134347_rgbf000143-resize_2-target.png,1000,4.8325,2,3035,999,meters,jsons/v1_VE1000_randls_65_rotated.json,1903063,2874605,25,Man
34,478870,DepthScenes,duration_manipulation_targetAtFixation,jsons/v1_VE1000_randls_65_rotated.json,http://54.235.29.9/FacialAge/BNav_EC2/DepthDuration/v2_depth_duration_MTurk/v2_DepthDuration_HTML.html#151,151,1366,625,1366,768,8-30-2022,11-0-26,35,depth_duration_stimuli/002444_2014-06-28_20-32-08_260595134347_rgbf000027-resize_0/002444_2014-06-28_20-32-08_260595134347_rgbf000027-resize_0-target.png,1000,4.388999999999999,2,3034,999,meters,jsons/v1_VE1000_randls_65_rotated.json,1903063,2874605,25,Man
35,478870,DepthScenes,duration_manipulation_targetAtFixation,jsons/v1_VE1000_randls_65_rotated.json,http://54.235.29.9/FacialAge/BNav_EC2/DepthDuration/v2_depth_duration_MTurk/v2_DepthDuration_HTML.html#151,151,1366,625,1366,768,8-30-2022,11-0-26,36,depth_duration_stimuli/000436_2014-06-09_22-25-11_260595134347_rgbf000137-resize_1/000436_2014-06-09_22-25-11_260595134347_rgbf000137-resize_1-target.png,1000,4.0705,1,3130,1000,meters,jsons/v1_VE1000_randls_65_rotated.json,1903063,2874605,25,Man
36,478870,DepthScenes,duration_manipulation_targetAtFixation,jsons/v1_VE1000_randls_65_rotated.json,http://54.235.29.9/FacialAge/BNav_EC2/DepthDuration/v2_depth_duration_MTurk/v2_DepthDuration_HTML.html#151,151,1366,625,1366,768,8-30-2022,11-0-26,37,depth_duration_stimuli/001094_2014-06-15_17-36-00_260595134347_rgbf000205-resize_0/001094_2014-06-15_17-36-00_260595134347_rgbf000205-resize_0-target.png,1000,4.2175,2,2842,1000,meters,jsons/v1_VE1000_randls_65_rotated.json,1903063,2874605,25,Man
37,478870,DepthScenes,duration_manipulation_targetAtFixation,jsons/v1_VE1000_randls_65_rotated.json,http://54.235.29.9/FacialAge/BNav_EC2/DepthDuration/v2_depth_duration_MTurk/v2_DepthDuration_HTML.html#151,151,1366,625,1366,768,8-30-2022,11-0-26,38,depth_duration_stimuli/000692_2014-06-08_13-09-42_260595134347_rgbf000199-resize_2/000692_2014-06-08_13-09-42_260595134347_rgbf000199-resize_2-target.png,1000,3.661,2,2778,1000,meters,jsons/v1_VE1000_randls_65_rotated.json,1903063,2874605,25,Man
38,478870,DepthScenes,duration_manipulation_targetAtFixation,jsons/v1_VE1000_randls_65_rotated.json,http://54.235.29.9/FacialAge/BNav_EC2/DepthDuration/v2_depth_duration_MTurk/v2_DepthDuration_HTML.html#151,151,1366,625,1366,768,8-30-2022,11-0-26,39,depth_duration_stimuli/000734_2014-06-08_17-39-11_260595134347_rgbf000128-resize_2/000734_2014-06-08_17-39-11_260595134347_rgbf000128-resize_2-target.png,1000,4.098,2,2820,1000,meters,jsons/v1_VE1000_randls_65_rotated.json,1903063,2874605,25,Man
39,478870,DepthScenes,duration_manipulation_targetAtFixation,jsons/v1_VE1000_randls_65_rotated.json,http://54.235.29.9/FacialAge/BNav_EC2/DepthDuration/v2_depth_duration_MTurk/v2_DepthDuration_HTML.html#151,151,1366,625,1366,768,8-30-2022,11-0-26,40,depth_duration_stimuli/000739_2014-06-08_18-45-58_260595134347_rgbf000068-resize_1/000739_2014-06-08_18-45-58_260595134347_rgbf000068-resize_1-target.png,1000,3.534,1,3124,1001,meters,jsons/v1_VE1000_randls_65_rotated.json,1903063,2874605,25,Man
40,478870,DepthScenes,duration_manipulation_targetAtFixation,jsons/v1_VE1000_randls_65_rotated.json,http://54.235.29.9/FacialAge/BNav_EC2/DepthDuration/v2_depth_duration_MTurk/v2_DepthDuration_HTML.html#151,151,1366,625,1366,768,8-30-2022,11-0-26,41,depth_duration_stimuli/001516_2014-06-20_16-25-09_260595134347_rgbf000076-resize_2/001516_2014-06-20_16-25-09_260595134347_rgbf000076-resize_2-target.png,1000,1.7445,1,2851,1001,meters,jsons/v1_VE1000_randls_65_rotated.json,1903063,2874605,25,Man
41,478870,DepthScenes,duration_manipulation_targetAtFixation,jsons/v1_VE1000_randls_65_rotated.json,http://54.235.29.9/FacialAge/BNav_EC2/DepthDuration/v2_depth_duration_MTurk/v2_DepthDuration_HTML.html#151,151,1366,625,1366,768,8-30-2022,11-0-26,42,depth_duration_stimuli/002118_2014-06-25_20-32-08_260595134347_rgbf000078-resize_1/002118_2014-06-25_20-32-08_260595134347_rgbf000078-resize_1-target.png,1000,2.6460000000000004,1,2939,1000,meters,jsons/v1_VE1000_randls_65_rotated.json,1903063,2874605,25,Man
42,478870,DepthScenes,duration_manipulation_targetAtFixation,jsons/v1_VE1000_randls_65_rotated.json,http://54.235.29.9/FacialAge/BNav_EC2/DepthDuration/v2_depth_duration_MTurk/v2_DepthDuration_HTML.html#151,151,1366,625,1366,768,8-30-2022,11-0-26,43,depth_duration_stimuli/002758_2014-06-22_19-11-20_094959634447_rgbf000128-resize_1/002758_2014-06-22_19-11-20_094959634447_rgbf000128-resize_1-target.png,1000,2.555,1,3210,1000,meters,jsons/v1_VE1000_randls_65_rotated.json,1903063,2874605,25,Man
43,478870,DepthScenes,duration_manipulation_targetAtFixation,jsons/v1_VE1000_randls_65_rotated.json,http://54.235.29.9/FacialAge/BNav_EC2/DepthDuration/v2_depth_duration_MTurk/v2_DepthDuration_HTML.html#151,151,1366,625,1366,768,8-30-2022,11-0-26,44,depth_duration_stimuli/002630_2014-06-24_14-47-50_094959634447_rgbf000055-resize_1/002630_2014-06-24_14-47-50_094959634447_rgbf000055-resize_1-target.png,1000,3.0095,2,3203,1001,meters,jsons/v1_VE1000_randls_65_rotated.json,1903063,2874605,25,Man
44,478870,DepthScenes,duration_manipulation_targetAtFixation,jsons/v1_VE1000_randls_65_rotated.json,http://54.235.29.9/FacialAge/BNav_EC2/DepthDuration/v2_depth_duration_MTurk/v2_DepthDuration_HTML.html#151,151,1366,625,1366,768,8-30-2022,11-0-26,45,depth_duration_stimuli/002637_2014-06-24_14-51-13_094959634447_rgbf000066-resize_4/002637_2014-06-24_14-51-13_094959634447_rgbf000066-resize_4-target.png,1000,1.9955,1,3163,1000,meters,jsons/v1_VE1000_randls_65_rotated.json,1903063,2874605,25,Man
45,478870,DepthScenes,duration_manipulation_targetAtFixation,jsons/v1_VE1000_randls_65_rotated.json,http://54.235.29.9/FacialAge/BNav_EC2/DepthDuration/v2_depth_duration_MTurk/v2_DepthDuration_HTML.html#151,151,1366,625,1366,768,8-30-2022,11-0-26,46,depth_duration_stimuli/003534_2014-05-22_15-06-10_094959634447_rgbf000102-resize_4/003534_2014-05-22_15-06-10_094959634447_rgbf000102-resize_4-target.png,1000,1.426,1,3274,1001,meters,jsons/v1_VE1000_randls_65_rotated.json,1903063,2874605,25,Man
46,478870,DepthScenes,duration_manipulation_targetAtFixation,jsons/v1_VE1000_randls_65_rotated.json,http://54.235.29.9/FacialAge/BNav_EC2/DepthDuration/v2_depth_duration_MTurk/v2_DepthDuration_HTML.html#151,151,1366,625,1366,768,8-30-2022,11-0-26,47,depth_duration_stimuli/002414_2014-06-28_20-24-58_260595134347_rgbf000067-resize_4/002414_2014-06-28_20-24-58_260595134347_rgbf000067-resize_4-target.png,1000,4.363,1,3396,999,meters,jsons/v1_VE1000_randls_65_rotated.json,1903063,2874605,25,Man
47,478870,DepthScenes,duration_manipulation_targetAtFixation,jsons/v1_VE1000_randls_65_rotated.json,http://54.235.29.9/FacialAge/BNav_EC2/DepthDuration/v2_depth_duration_MTurk/v2_DepthDuration_HTML.html#151,151,1366,625,1366,768,8-30-2022,11-0-26,48,depth_duration_stimuli/000773_2014-06-08_22-24-54_260595134347_rgbf000093-resize_1/000773_2014-06-08_22-24-54_260595134347_rgbf000093-resize_1-target.png,1000,4.973,1,3299,1000,meters,jsons/v1_VE1000_randls_65_rotated.json,1903063,2874605,25,Man
48,478870,DepthScenes,duration_manipulation_targetAtFixation,jsons/v1_VE1000_randls_65_rotated.json,http://54.235.29.9/FacialAge/BNav_EC2/DepthDuration/v2_depth_duration_MTurk/v2_DepthDuration_HTML.html#151,151,1366,625,1366,768,8-30-2022,11-0-26,49,depth_duration_stimuli/001170_2014-06-17_15-43-44_260595134347_rgbf000096-resize_6/001170_2014-06-17_15-43-44_260595134347_rgbf000096-resize-original.jpg,1000,1.1909999999999998,0,3472,999,meters,jsons/v1_VE1000_randls_65_rotated.json,1903063,2874605,25,Man
49,478870,DepthScenes,duration_manipulation_targetAtFixation,jsons/v1_VE1000_randls_65_rotated.json,http://54.235.29.9/FacialAge/BNav_EC2/DepthDuration/v2_depth_duration_MTurk/v2_DepthDuration_HTML.html#151,151,1366,625,1366,768,8-30-2022,11-0-26,50,depth_duration_stimuli/000556_2014-06-09_22-42-56_260595134347_rgbf000214-resize_1/000556_2014-06-09_22-42-56_260595134347_rgbf000214-resize_1-target.png,1000,4.8415,1,3468,999,meters,jsons/v1_VE1000_randls_65_rotated.json,1903063,2874605,25,Man
50,478870,DepthScenes,duration_manipulation_targetAtFixation,jsons/v1_VE1000_randls_65_rotated.json,http://54.235.29.9/FacialAge/BNav_EC2/DepthDuration/v2_depth_duration_MTurk/v2_DepthDuration_HTML.html#151,151,1366,625,1366,768,8-30-2022,11-0-26,51,depth_duration_stimuli/001158_2014-06-17_15-32-16_260595134347_rgbf000138-resize_2/001158_2014-06-17_15-32-16_260595134347_rgbf000138-resize_2-target.png,1000,4.5315,1,2978,1000,meters,jsons/v1_VE1000_randls_65_rotated.json,1903063,2874605,25,Man
51,478870,DepthScenes,duration_manipulation_targetAtFixation,jsons/v1_VE1000_randls_65_rotated.json,http://54.235.29.9/FacialAge/BNav_EC2/DepthDuration/v2_depth_duration_MTurk/v2_DepthDuration_HTML.html#151,151,1366,625,1366,768,8-30-2022,11-0-26,52,depth_duration_stimuli/001052_2014-06-08_18-24-54_260595134347_rgbf000130-resize_1/001052_2014-06-08_18-24-54_260595134347_rgbf000130-resize_1-target.png,1000,4.1045,2,3042,1000,meters,jsons/v1_VE1000_randls_65_rotated.json,1903063,2874605,25,Man
52,478870,DepthScenes,duration_manipulation_targetAtFixation,jsons/v1_VE1000_randls_65_rotated.json,http://54.235.29.9/FacialAge/BNav_EC2/DepthDuration/v2_depth_duration_MTurk/v2_DepthDuration_HTML.html#151,151,1366,625,1366,768,8-30-2022,11-0-26,53,depth_duration_stimuli/002988_2014-06-15_12-24-20_094959634447_rgbf000150-resize_1/002988_2014-06-15_12-24-20_094959634447_rgbf000150-resize_1-target.png,1000,4.7669999999999995,2,2803,1001,meters,jsons/v1_VE1000_randls_65_rotated.json,1903063,2874605,25,Man
53,478870,DepthScenes,duration_manipulation_targetAtFixation,jsons/v1_VE1000_randls_65_rotated.json,http://54.235.29.9/FacialAge/BNav_EC2/DepthDuration/v2_depth_duration_MTurk/v2_DepthDuration_HTML.html#151,151,1366,625,1366,768,8-30-2022,11-0-26,54,depth_duration_stimuli/001447_2014-06-19_17-00-32_260595134347_rgbf000082-resize_5/001447_2014-06-19_17-00-32_260595134347_rgbf000082-resize_5-target.png,1000,4.13775,1,3134,1001,meters,jsons/v1_VE1000_randls_65_rotated.json,1903063,2874605,25,Man
54,478870,DepthScenes,duration_manipulation_targetAtFixation,jsons/v1_VE1000_randls_65_rotated.json,http://54.235.29.9/FacialAge/BNav_EC2/DepthDuration/v2_depth_duration_MTurk/v2_DepthDuration_HTML.html#151,151,1366,625,1366,768,8-30-2022,11-0-26,55,depth_duration_stimuli/000447_2014-06-08_16-15-46_260595134347_rgbf000130-resize_1/000447_2014-06-08_16-15-46_260595134347_rgbf000130-resize_1-target.png,1000,4.479,2,2809,999,meters,jsons/v1_VE1000_randls_65_rotated.json,1903063,2874605,25,Man
55,478870,DepthScenes,duration_manipulation_targetAtFixation,jsons/v1_VE1000_randls_65_rotated.json,http://54.235.29.9/FacialAge/BNav_EC2/DepthDuration/v2_depth_duration_MTurk/v2_DepthDuration_HTML.html#151,151,1366,625,1366,768,8-30-2022,11-0-26,56,depth_duration_stimuli/001584_2014-06-20_11-07-43_260595134347_rgbf000002-resize_1/001584_2014-06-20_11-07-43_260595134347_rgbf000002-resize_1-target.png,1000,3.53,2,2796,1001,meters,jsons/v1_VE1000_randls_65_rotated.json,1903063,2874605,25,Man
56,478870,DepthScenes,duration_manipulation_targetAtFixation,jsons/v1_VE1000_randls_65_rotated.json,http://54.235.29.9/FacialAge/BNav_EC2/DepthDuration/v2_depth_duration_MTurk/v2_DepthDuration_HTML.html#151,151,1366,625,1366,768,8-30-2022,11-0-26,57,depth_duration_stimuli/003621_2014-05-23_18-06-08_094959634447_rgbf000101-resize_1/003621_2014-05-23_18-06-08_094959634447_rgbf000101-resize_1-target.png,1000,3.9835,2,2819,999,meters,jsons/v1_VE1000_randls_65_rotated.json,1903063,2874605,25,Man
57,478870,DepthScenes,duration_manipulation_targetAtFixation,jsons/v1_VE1000_randls_65_rotated.json,http://54.235.29.9/FacialAge/BNav_EC2/DepthDuration/v2_depth_duration_MTurk/v2_DepthDuration_HTML.html#151,151,1366,625,1366,768,8-30-2022,11-0-26,58,depth_duration_stimuli/001617_2014-06-20_11-35-32_260595134347_rgbf000066-resize_1/001617_2014-06-20_11-35-32_260595134347_rgbf000066-resize_1-target.png,1000,3.7910000000000004,1,3588,1000,meters,jsons/v1_VE1000_randls_65_rotated.json,1903063,2874605,25,Man
58,478870,DepthScenes,duration_manipulation_targetAtFixation,jsons/v1_VE1000_randls_65_rotated.json,http://54.235.29.9/FacialAge/BNav_EC2/DepthDuration/v2_depth_duration_MTurk/v2_DepthDuration_HTML.html#151,151,1366,625,1366,768,8-30-2022,11-0-26,59,depth_duration_stimuli/001806_2014-06-26_20-50-20_260595134347_rgbf000091-resize_1/001806_2014-06-26_20-50-20_260595134347_rgbf000091-resize_1-target.png,1000,2.7305,1,3027,999,meters,jsons/v1_VE1000_randls_65_rotated.json,1903063,2874605,25,Man
59,478870,DepthScenes,duration_manipulation_targetAtFixation,jsons/v1_VE1000_randls_65_rotated.json,http://54.235.29.9/FacialAge/BNav_EC2/DepthDuration/v2_depth_duration_MTurk/v2_DepthDuration_HTML.html#151,151,1366,625,1366,768,8-30-2022,11-0-26,60,depth_duration_stimuli/002805_2014-06-22_19-54-03_094959634447_rgbf000079-resize_1/002805_2014-06-22_19-54-03_094959634447_rgbf000079-resize_1-target.png,1000,3.1439999999999997,1,2780,1000,meters,jsons/v1_VE1000_randls_65_rotated.json,1903063,2874605,25,Man
60,478870,DepthScenes,duration_manipulation_targetAtFixation,jsons/v1_VE1000_randls_65_rotated.json,http://54.235.29.9/FacialAge/BNav_EC2/DepthDuration/v2_depth_duration_MTurk/v2_DepthDuration_HTML.html#151,151,1366,625,1366,768,8-30-2022,11-0-26,61,depth_duration_stimuli/000906_2014-06-08_13-35-43_260595134347_rgbf000155-resize_1/000906_2014-06-08_13-35-43_260595134347_rgbf000155-resize_1-target.png,1000,2.8489999999999998,2,3401,1000,meters,jsons/v1_VE1000_randls_65_rotated.json,1903063,2874605,25,Man
61,478870,DepthScenes,duration_manipulation_targetAtFixation,jsons/v1_VE1000_randls_65_rotated.json,http://54.235.29.9/FacialAge/BNav_EC2/DepthDuration/v2_depth_duration_MTurk/v2_DepthDuration_HTML.html#151,151,1366,625,1366,768,8-30-2022,11-0-26,62,depth_duration_stimuli/001032_2014-06-08_13-23-17_260595134347_rgbf000021-resize_3/001032_2014-06-08_13-23-17_260595134347_rgbf000021-resize_3-target.png,1000,3.2725,1,2953,1000,meters,jsons/v1_VE1000_randls_65_rotated.json,1903063,2874605,25,Man
62,478870,DepthScenes,duration_manipulation_targetAtFixation,jsons/v1_VE1000_randls_65_rotated.json,http://54.235.29.9/FacialAge/BNav_EC2/DepthDuration/v2_depth_duration_MTurk/v2_DepthDuration_HTML.html#151,151,1366,625,1366,768,8-30-2022,11-0-26,63,depth_duration_stimuli/001059_2014-06-08_21-53-27_260595134347_rgbf000061-resize_4/001059_2014-06-08_21-53-27_260595134347_rgbf000061-resize_4-target.png,1000,2.4185,1,3329,1001,meters,jsons/v1_VE1000_randls_65_rotated.json,1903063,2874605,25,Man
63,478870,DepthScenes,duration_manipulation_targetAtFixation,jsons/v1_VE1000_randls_65_rotated.json,http://54.235.29.9/FacialAge/BNav_EC2/DepthDuration/v2_depth_duration_MTurk/v2_DepthDuration_HTML.html#151,151,1366,625,1366,768,8-30-2022,11-0-26,64,depth_duration_stimuli/001214_2014-06-17_16-13-55_260595134347_rgbf000111-resize_0/001214_2014-06-17_16-13-55_260595134347_rgbf000111-resize_0-target.png,1000,2.6505,1,2743,1001,meters,jsons/v1_VE1000_randls_65_rotated.json,1903063,2874605,25,Man
64,478870,DepthScenes,duration_manipulation_targetAtFixation,jsons/v1_VE1000_randls_65_rotated.json,http://54.235.29.9/FacialAge/BNav_EC2/DepthDuration/v2_depth_duration_MTurk/v2_DepthDuration_HTML.html#151,151,1366,625,1366,768,8-30-2022,11-0-26,65,depth_duration_stimuli/000810_2014-06-08_17-20-01_260595134347_rgbf000105-resize_0/000810_2014-06-08_17-20-01_260595134347_rgbf000105-resize_0-target.png,1000,1.4865,1,2913,1000,meters,jsons/v1_VE1000_randls_65_rotated.json,1903063,2874605,25,Man
65,478870,DepthScenes,duration_manipulation_targetAtFixation,jsons/v1_VE1000_randls_65_rotated.json,http://54.235.29.9/FacialAge/BNav_EC2/DepthDuration/v2_depth_duration_MTurk/v2_DepthDuration_HTML.html#151,151,1366,625,1366,768,8-30-2022,11-0-26,66,depth_duration_stimuli/001540_2014-06-20_17-01-05_260595134347_rgbf000086-resize_2/001540_2014-06-20_17-01-05_260595134347_rgbf000086-resize-original.jpg,1000,1.459,0,3082,1000,meters,jsons/v1_VE1000_randls_65_rotated.json,1903063,2874605,25,Man
66,478870,DepthScenes,duration_manipulation_targetAtFixation,jsons/v1_VE1000_randls_65_rotated.json,http://54.235.29.9/FacialAge/BNav_EC2/DepthDuration/v2_depth_duration_MTurk/v2_DepthDuration_HTML.html#151,151,1366,625,1366,768,8-30-2022,11-0-26,67,depth_duration_stimuli/002953_2014-06-08_17-32-18_094959634447_rgbf000059-resize_5/002953_2014-06-08_17-32-18_094959634447_rgbf000059-resize_5-target.png,1000,1.551,1,2884,1000,meters,jsons/v1_VE1000_randls_65_rotated.json,1903063,2874605,25,Man
67,478870,DepthScenes,duration_manipulation_targetAtFixation,jsons/v1_VE1000_randls_65_rotated.json,http://54.235.29.9/FacialAge/BNav_EC2/DepthDuration/v2_depth_duration_MTurk/v2_DepthDuration_HTML.html#151,151,1366,625,1366,768,8-30-2022,11-0-26,68,depth_duration_stimuli/000878_2014-06-08_22-52-45_260595134347_rgbf000045-resize_2/000878_2014-06-08_22-52-45_260595134347_rgbf000045-resize_2-target.png,1000,2.092,2,5912,999,meters,jsons/v1_VE1000_randls_65_rotated.json,1903063,2874605,25,Man
68,478870,DepthScenes,duration_manipulation_targetAtFixation,jsons/v1_VE1000_randls_65_rotated.json,http://54.235.29.9/FacialAge/BNav_EC2/DepthDuration/v2_depth_duration_MTurk/v2_DepthDuration_HTML.html#151,151,1366,625,1366,768,8-30-2022,11-0-26,69,depth_duration_stimuli/001132_2014-06-17_14-48-54_260595134347_rgbf000100-resize_2/001132_2014-06-17_14-48-54_260595134347_rgbf000100-resize_2-target.png,1000,3.753,1,2924,1000,meters,jsons/v1_VE1000_randls_65_rotated.json,1903063,2874605,25,Man
69,478870,DepthScenes,duration_manipulation_targetAtFixation,jsons/v1_VE1000_randls_65_rotated.json,http://54.235.29.9/FacialAge/BNav_EC2/DepthDuration/v2_depth_duration_MTurk/v2_DepthDuration_HTML.html#151,151,1366,625,1366,768,8-30-2022,11-0-26,70,depth_duration_stimuli/001133_2014-06-17_14-49-16_260595134347_rgbf000100-resize_0/001133_2014-06-17_14-49-16_260595134347_rgbf000100-resize_0-target.png,1000,4.2115,2,5202,1000,meters,jsons/v1_VE1000_randls_65_rotated.json,1903063,2874605,25,Man
70,478870,DepthScenes,duration_manipulation_targetAtFixation,jsons/v1_VE1000_randls_65_rotated.json,http://54.235.29.9/FacialAge/BNav_EC2/DepthDuration/v2_depth_duration_MTurk/v2_DepthDuration_HTML.html#151,151,1366,625,1366,768,8-30-2022,11-0-26,71,depth_duration_stimuli/000854_2014-06-09_19-43-13_260595134347_rgbf000066-resize_0/000854_2014-06-09_19-43-13_260595134347_rgbf000066-resize_0-target.png,1000,3.068,1,2801,999,meters,jsons/v1_VE1000_randls_65_rotated.json,1903063,2874605,25,Man
71,478870,DepthScenes,duration_manipulation_targetAtFixation,jsons/v1_VE1000_randls_65_rotated.json,http://54.235.29.9/FacialAge/BNav_EC2/DepthDuration/v2_depth_duration_MTurk/v2_DepthDuration_HTML.html#151,151,1366,625,1366,768,8-30-2022,11-0-26,72,depth_duration_stimuli/000758_2014-06-08_22-05-08_260595134347_rgbf000085-resize_0/000758_2014-06-08_22-05-08_260595134347_rgbf000085-resize_0-target.png,1000,3.3810000000000002,2,4788,1002,meters,jsons/v1_VE1000_randls_65_rotated.json,1903063,2874605,25,Man
72,478870,DepthScenes,duration_manipulation_targetAtFixation,jsons/v1_VE1000_randls_65_rotated.json,http://54.235.29.9/FacialAge/BNav_EC2/DepthDuration/v2_depth_duration_MTurk/v2_DepthDuration_HTML.html#151,151,1366,625,1366,768,8-30-2022,11-0-26,73,depth_duration_stimuli/000665_2014-06-09_20-42-35_260595134347_rgbf000110-resize_1/000665_2014-06-09_20-42-35_260595134347_rgbf000110-resize_1-target.png,1000,3.057,1,3035,1001,meters,jsons/v1_VE1000_randls_65_rotated.json,1903063,2874605,25,Man
73,478870,DepthScenes,duration_manipulation_targetAtFixation,jsons/v1_VE1000_randls_65_rotated.json,http://54.235.29.9/FacialAge/BNav_EC2/DepthDuration/v2_depth_duration_MTurk/v2_DepthDuration_HTML.html#151,151,1366,625,1366,768,8-30-2022,11-0-26,74,depth_duration_stimuli/001150_2014-06-17_15-27-34_260595134347_rgbf000108-resize_2/001150_2014-06-17_15-27-34_260595134347_rgbf000108-resize_2-target.png,1000,4.0325,2,3099,999,meters,jsons/v1_VE1000_randls_65_rotated.json,1903063,2874605,25,Man
74,478870,DepthScenes,duration_manipulation_targetAtFixation,jsons/v1_VE1000_randls_65_rotated.json,http://54.235.29.9/FacialAge/BNav_EC2/DepthDuration/v2_depth_duration_MTurk/v2_DepthDuration_HTML.html#151,151,1366,625,1366,768,8-30-2022,11-0-26,75,depth_duration_stimuli/000677_2014-06-08_23-10-32_260595134347_rgbf000158-resize_6/000677_2014-06-08_23-10-32_260595134347_rgbf000158-resize_6-target.png,1000,3.556,1,3031,999,meters,jsons/v1_VE1000_randls_65_rotated.json,1903063,2874605,25,Man
75,478870,DepthScenes,duration_manipulation_targetAtFixation,jsons/v1_VE1000_randls_65_rotated.json,http://54.235.29.9/FacialAge/BNav_EC2/DepthDuration/v2_depth_duration_MTurk/v2_DepthDuration_HTML.html#151,151,1366,625,1366,768,8-30-2022,11-0-26,76,depth_duration_stimuli/001029_2014-06-08_13-17-57_260595134347_rgbf000065-resize_1/001029_2014-06-08_13-17-57_260595134347_rgbf000065-resize_1-target.png,1000,3.0835,2,3709,1001,meters,jsons/v1_VE1000_randls_65_rotated.json,1903063,2874605,25,Man
76,478870,DepthScenes,duration_manipulation_targetAtFixation,jsons/v1_VE1000_randls_65_rotated.json,http://54.235.29.9/FacialAge/BNav_EC2/DepthDuration/v2_depth_duration_MTurk/v2_DepthDuration_HTML.html#151,151,1366,625,1366,768,8-30-2022,11-0-26,77,depth_duration_stimuli/000749_2014-06-08_21-55-06_260595134347_rgbf000070-resize_2/000749_2014-06-08_21-55-06_260595134347_rgbf000070-resize_2-target.png,1000,2.331,1,2955,1000,meters,jsons/v1_VE1000_randls_65_rotated.json,1903063,2874605,25,Man
77,478870,DepthScenes,duration_manipulation_targetAtFixation,jsons/v1_VE1000_randls_65_rotated.json,http://54.235.29.9/FacialAge/BNav_EC2/DepthDuration/v2_depth_duration_MTurk/v2_DepthDuration_HTML.html#151,151,1366,625,1366,768,8-30-2022,11-0-26,78,depth_duration_stimuli/002788_2014-06-22_19-36-03_094959634447_rgbf000088-resize_2/002788_2014-06-22_19-36-03_094959634447_rgbf000088-resize_2-target.png,1000,1.6465,2,3074,1000,meters,jsons/v1_VE1000_randls_65_rotated.json,1903063,2874605,25,Man
78,478870,DepthScenes,duration_manipulation_targetAtFixation,jsons/v1_VE1000_randls_65_rotated.json,http://54.235.29.9/FacialAge/BNav_EC2/DepthDuration/v2_depth_duration_MTurk/v2_DepthDuration_HTML.html#151,151,1366,625,1366,768,8-30-2022,11-0-26,79,depth_duration_stimuli/000103_2014-05-14_22-01-17_260595134347_rgbf000152-resize_5/000103_2014-05-14_22-01-17_260595134347_rgbf000152-resize_5-target.png,1000,1.993,1,2938,1000,meters,jsons/v1_VE1000_randls_65_rotated.json,1903063,2874605,25,Man
79,478870,DepthScenes,duration_manipulation_targetAtFixation,jsons/v1_VE1000_randls_65_rotated.json,http://54.235.29.9/FacialAge/BNav_EC2/DepthDuration/v2_depth_duration_MTurk/v2_DepthDuration_HTML.html#151,151,1366,625,1366,768,8-30-2022,11-0-26,80,depth_duration_stimuli/001555_2014-06-20_17-12-10_260595134347_rgbf000065-resize_4/001555_2014-06-20_17-12-10_260595134347_rgbf000065-resize_4-target.png,1000,1.633,1,2972,1000,meters,jsons/v1_VE1000_randls_65_rotated.json,1903063,2874605,25,Man
80,478870,DepthScenes,duration_manipulation_targetAtFixation,jsons/v1_VE1000_randls_65_rotated.json,http://54.235.29.9/FacialAge/BNav_EC2/DepthDuration/v2_depth_duration_MTurk/v2_DepthDuration_HTML.html#151,151,1366,625,1366,768,8-30-2022,11-0-26,81,depth_duration_stimuli/000742_2014-06-08_18-48-09_260595134347_rgbf000164-resize_4/000742_2014-06-08_18-48-09_260595134347_rgbf000164-resize_4-target.png,1000,4.632,1,3105,999,meters,jsons/v1_VE1000_randls_65_rotated.json,1903063,2874605,25,Man
81,478870,DepthScenes,duration_manipulation_targetAtFixation,jsons/v1_VE1000_randls_65_rotated.json,http://54.235.29.9/FacialAge/BNav_EC2/DepthDuration/v2_depth_duration_MTurk/v2_DepthDuration_HTML.html#151,151,1366,625,1366,768,8-30-2022,11-0-26,82,depth_duration_stimuli/001066_2014-06-08_22-03-20_260595134347_rgbf000066-resize_4/001066_2014-06-08_22-03-20_260595134347_rgbf000066-resize_4-target.png,1000,4.2330000000000005,2,3093,1000,meters,jsons/v1_VE1000_randls_65_rotated.json,1903063,2874605,25,Man
82,478870,DepthScenes,duration_manipulation_targetAtFixation,jsons/v1_VE1000_randls_65_rotated.json,http://54.235.29.9/FacialAge/BNav_EC2/DepthDuration/v2_depth_duration_MTurk/v2_DepthDuration_HTML.html#151,151,1366,625,1366,768,8-30-2022,11-0-26,83,depth_duration_stimuli/000457_2014-06-08_16-52-43_260595134347_rgbf000199-resize_1/000457_2014-06-08_16-52-43_260595134347_rgbf000199-resize_1-target.png,1000,3.6489999999999996,2,3209,1001,meters,jsons/v1_VE1000_randls_65_rotated.json,1903063,2874605,25,Man
83,478870,DepthScenes,duration_manipulation_targetAtFixation,jsons/v1_VE1000_randls_65_rotated.json,http://54.235.29.9/FacialAge/BNav_EC2/DepthDuration/v2_depth_duration_MTurk/v2_DepthDuration_HTML.html#151,151,1366,625,1366,768,8-30-2022,11-0-26,84,depth_duration_stimuli/000929_2014-06-09_16-33-19_260595134347_rgbf000139-resize_0/000929_2014-06-09_16-33-19_260595134347_rgbf000139-resize_0-target.png,1000,2.8680000000000003,1,3444,1002,meters,jsons/v1_VE1000_randls_65_rotated.json,1903063,2874605,25,Man
84,478870,DepthScenes,duration_manipulation_targetAtFixation,jsons/v1_VE1000_randls_65_rotated.json,http://54.235.29.9/FacialAge/BNav_EC2/DepthDuration/v2_depth_duration_MTurk/v2_DepthDuration_HTML.html#151,151,1366,625,1366,768,8-30-2022,11-0-26,85,depth_duration_stimuli/002340_2014-06-28_20-05-46_260595134347_rgbf000113-resize_0/002340_2014-06-28_20-05-46_260595134347_rgbf000113-resize_0-target.png,1000,2.4735,2,3089,999,meters,jsons/v1_VE1000_randls_65_rotated.json,1903063,2874605,25,Man
85,478870,DepthScenes,duration_manipulation_targetAtFixation,jsons/v1_VE1000_randls_65_rotated.json,http://54.235.29.9/FacialAge/BNav_EC2/DepthDuration/v2_depth_duration_MTurk/v2_DepthDuration_HTML.html#151,151,1366,625,1366,768,8-30-2022,11-0-26,86,depth_duration_stimuli/001016_2014-06-09_16-16-10_260595134347_rgbf000112-resize_5/001016_2014-06-09_16-16-10_260595134347_rgbf000112-resize_5-target.png,1000,1.6565,1,2899,999,meters,jsons/v1_VE1000_randls_65_rotated.json,1903063,2874605,25,Man
86,478870,DepthScenes,duration_manipulation_targetAtFixation,jsons/v1_VE1000_randls_65_rotated.json,http://54.235.29.9/FacialAge/BNav_EC2/DepthDuration/v2_depth_duration_MTurk/v2_DepthDuration_HTML.html#151,151,1366,625,1366,768,8-30-2022,11-0-26,87,depth_duration_stimuli/002323_2014-06-28_20-01-54_260595134347_rgbf000051-resize_4/002323_2014-06-28_20-01-54_260595134347_rgbf000051-resize_4-target.png,1000,3.7310000000000003,1,3258,999,meters,jsons/v1_VE1000_randls_65_rotated.json,1903063,2874605,25,Man
87,478870,DepthScenes,duration_manipulation_targetAtFixation,jsons/v1_VE1000_randls_65_rotated.json,http://54.235.29.9/FacialAge/BNav_EC2/DepthDuration/v2_depth_duration_MTurk/v2_DepthDuration_HTML.html#151,151,1366,625,1366,768,8-30-2022,11-0-26,88,depth_duration_stimuli/000917_2014-06-09_22-45-29_260595134347_rgbf000149-resize_3/000917_2014-06-09_22-45-29_260595134347_rgbf000149-resize_3-target.png,1000,4.1865,1,3108,1000,meters,jsons/v1_VE1000_randls_65_rotated.json,1903063,2874605,25,Man
88,478870,DepthScenes,duration_manipulation_targetAtFixation,jsons/v1_VE1000_randls_65_rotated.json,http://54.235.29.9/FacialAge/BNav_EC2/DepthDuration/v2_depth_duration_MTurk/v2_DepthDuration_HTML.html#151,151,1366,625,1366,768,8-30-2022,11-0-26,89,depth_duration_stimuli/002875_2014-06-01_15-19-00_094959634447_rgbf000151-resize_1/002875_2014-06-01_15-19-00_094959634447_rgbf000151-resize_1-target.png,1000,1.9675,2,3083,1000,meters,jsons/v1_VE1000_randls_65_rotated.json,1903063,2874605,25,Man
89,478870,DepthScenes,duration_manipulation_targetAtFixation,jsons/v1_VE1000_randls_65_rotated.json,http://54.235.29.9/FacialAge/BNav_EC2/DepthDuration/v2_depth_duration_MTurk/v2_DepthDuration_HTML.html#151,151,1366,625,1366,768,8-30-2022,11-0-26,90,depth_duration_stimuli/001011_2014-06-08_23-18-54_260595134347_rgbf000044-resize_4/001011_2014-06-08_23-18-54_260595134347_rgbf000044-resize_4-target.png,1000,2.4730000000000003,1,2898,1000,meters,jsons/v1_VE1000_randls_65_rotated.json,1903063,2874605,25,Man
90,478870,DepthScenes,duration_manipulation_targetAtFixation,jsons/v1_VE1000_randls_65_rotated.json,http://54.235.29.9/FacialAge/BNav_EC2/DepthDuration/v2_depth_duration_MTurk/v2_DepthDuration_HTML.html#151,151,1366,625,1366,768,8-30-2022,11-0-26,91,depth_duration_stimuli/003228_2014-05-14_13-42-35_094959634447_rgbf000101-resize_1/003228_2014-05-14_13-42-35_094959634447_rgbf000101-resize_1-target.png,1000,1.9680000000000002,2,3332,1000,meters,jsons/v1_VE1000_randls_65_rotated.json,1903063,2874605,25,Man
91,478870,DepthScenes,duration_manipulation_targetAtFixation,jsons/v1_VE1000_randls_65_rotated.json,http://54.235.29.9/FacialAge/BNav_EC2/DepthDuration/v2_depth_duration_MTurk/v2_DepthDuration_HTML.html#151,151,1366,625,1366,768,8-30-2022,11-0-26,92,depth_duration_stimuli/002600_2014-06-24_14-27-04_094959634447_rgbf000074-resize_2/002600_2014-06-24_14-27-04_094959634447_rgbf000074-resize_2-target.png,1000,2.7575,1,2709,1000,meters,jsons/v1_VE1000_randls_65_rotated.json,1903063,2874605,25,Man
92,478870,DepthScenes,duration_manipulation_targetAtFixation,jsons/v1_VE1000_randls_65_rotated.json,http://54.235.29.9/FacialAge/BNav_EC2/DepthDuration/v2_depth_duration_MTurk/v2_DepthDuration_HTML.html#151,151,1366,625,1366,768,8-30-2022,11-0-26,93,depth_duration_stimuli/003010_2014-06-15_12-54-35_094959634447_rgbf000112-resize_0/003010_2014-06-15_12-54-35_094959634447_rgbf000112-resize_0-target.png,1000,3.1185,1,2865,1001,meters,jsons/v1_VE1000_randls_65_rotated.json,1903063,2874605,25,Man
93,478870,DepthScenes,duration_manipulation_targetAtFixation,jsons/v1_VE1000_randls_65_rotated.json,http://54.235.29.9/FacialAge/BNav_EC2/DepthDuration/v2_depth_duration_MTurk/v2_DepthDuration_HTML.html#151,151,1366,625,1366,768,8-30-2022,11-0-26,94,depth_duration_stimuli/001810_2014-06-26_20-51-35_260595134347_rgbf000040-resize_3/001810_2014-06-26_20-51-35_260595134347_rgbf000040-resize_3-target.png,1000,2.2525,2,3139,999,meters,jsons/v1_VE1000_randls_65_rotated.json,1903063,2874605,25,Man
94,478870,DepthScenes,duration_manipulation_targetAtFixation,jsons/v1_VE1000_randls_65_rotated.json,http://54.235.29.9/FacialAge/BNav_EC2/DepthDuration/v2_depth_duration_MTurk/v2_DepthDuration_HTML.html#151,151,1366,625,1366,768,8-30-2022,11-0-26,95,depth_duration_stimuli/002995_2014-06-15_12-31-26_094959634447_rgbf000150-resize_1/002995_2014-06-15_12-31-26_094959634447_rgbf000150-resize_1-target.png,1000,3.8360000000000003,1,3859,1000,meters,jsons/v1_VE1000_randls_65_rotated.json,1903063,2874605,25,Man
95,478870,DepthScenes,duration_manipulation_targetAtFixation,jsons/v1_VE1000_randls_65_rotated.json,http://54.235.29.9/FacialAge/BNav_EC2/DepthDuration/v2_depth_duration_MTurk/v2_DepthDuration_HTML.html#151,151,1366,625,1366,768,8-30-2022,11-0-26,96,depth_duration_stimuli/002748_2014-06-22_19-07-22_094959634447_rgbf000078-resize_1/002748_2014-06-22_19-07-22_094959634447_rgbf000078-resize_1-target.png,1000,4.6705,1,3523,1000,meters,jsons/v1_VE1000_randls_65_rotated.json,1903063,2874605,25,Man
96,478870,DepthScenes,duration_manipulation_targetAtFixation,jsons/v1_VE1000_randls_65_rotated.json,http://54.235.29.9/FacialAge/BNav_EC2/DepthDuration/v2_depth_duration_MTurk/v2_DepthDuration_HTML.html#151,151,1366,625,1366,768,8-30-2022,11-0-26,97,depth_duration_stimuli/002467_2014-06-28_20-38-07_260595134347_rgbf000026-resize_2/002467_2014-06-28_20-38-07_260595134347_rgbf000026-resize_2-target.png,1000,4.742,2,3282,1000,meters,jsons/v1_VE1000_randls_65_rotated.json,1903063,2874605,25,Man
97,478870,DepthScenes,duration_manipulation_targetAtFixation,jsons/v1_VE1000_randls_65_rotated.json,http://54.235.29.9/FacialAge/BNav_EC2/DepthDuration/v2_depth_duration_MTurk/v2_DepthDuration_HTML.html#151,151,1366,625,1366,768,8-30-2022,11-0-26,98,depth_duration_stimuli/002570_2014-06-24_13-59-54_094959634447_rgbf000059-resize_0/002570_2014-06-24_13-59-54_094959634447_rgbf000059-resize_0-target.png,1000,4.037,1,6155,1001,meters,jsons/v1_VE1000_randls_65_rotated.json,1903063,2874605,25,Man
98,478870,DepthScenes,duration_manipulation_targetAtFixation,jsons/v1_VE1000_randls_65_rotated.json,http://54.235.29.9/FacialAge/BNav_EC2/DepthDuration/v2_depth_duration_MTurk/v2_DepthDuration_HTML.html#151,151,1366,625,1366,768,8-30-2022,11-0-26,99,depth_duration_stimuli/001222_2014-06-17_16-24-06_260595134347_rgbf000073-resize_0/001222_2014-06-17_16-24-06_260595134347_rgbf000073-resize-original.jpg,1000,1.4385,1,5142,1002,meters,jsons/v1_VE1000_randls_65_rotated.json,1903063,2874605,25,Man
99,478870,DepthScenes,duration_manipulation_targetAtFixation,jsons/v1_VE1000_randls_65_rotated.json,http://54.235.29.9/FacialAge/BNav_EC2/DepthDuration/v2_depth_duration_MTurk/v2_DepthDuration_HTML.html#151,151,1366,625,1366,768,8-30-2022,11-0-26,100,depth_duration_stimuli/003495_2014-05-21_16-01-51_094959634447_rgbf000100-resize_3/003495_2014-05-21_16-01-51_094959634447_rgbf000100-resize_3-target.png,1000,1.6255,1,3816,1000,meters,jsons/v1_VE1000_randls_65_rotated.json,1903063,2874605,25,Man
100,478870,DepthScenes,duration_manipulation_targetAtFixation,jsons/v1_VE1000_randls_65_rotated.json,http://54.235.29.9/FacialAge/BNav_EC2/DepthDuration/v2_depth_duration_MTurk/v2_DepthDuration_HTML.html#151,151,1366,625,1366,768,8-30-2022,11-0-26,101,depth_duration_stimuli/001244_2014-06-17_16-47-45_260595134347_rgbf000030-resize_4/001244_2014-06-17_16-47-45_260595134347_rgbf000030-resize_4-target.png,1000,2.0425,1,731666,999,meters,jsons/v1_VE1000_randls_65_rotated.json,1903063,2874605,25,Man
101,478870,DepthScenes,duration_manipulation_targetAtFixation,jsons/v1_VE1000_randls_65_rotated.json,http://54.235.29.9/FacialAge/BNav_EC2/DepthDuration/v2_depth_duration_MTurk/v2_DepthDuration_HTML.html#151,151,1366,625,1366,768,8-30-2022,11-0-26,102,depth_duration_stimuli/000137_2014-05-20_17-04-49_260595134347_rgbf000120-resize_1/000137_2014-05-20_17-04-49_260595134347_rgbf000120-resize_1-target.png,1000,3.786,1,4146,1001,meters,jsons/v1_VE1000_randls_65_rotated.json,1903063,2874605,25,Man
102,478870,DepthScenes,duration_manipulation_targetAtFixation,jsons/v1_VE1000_randls_65_rotated.json,http://54.235.29.9/FacialAge/BNav_EC2/DepthDuration/v2_depth_duration_MTurk/v2_DepthDuration_HTML.html#151,151,1366,768,1366,768,8-30-2022,11-0-26,103,depth_duration_stimuli/000736_2014-06-08_18-24-15_260595134347_rgbf000206-resize_3/000736_2014-06-08_18-24-15_260595134347_rgbf000206-resize_3-target.png,1000,3.515,1,3867,1000,meters,jsons/v1_VE1000_randls_65_rotated.json,1903063,2874605,25,Man
103,478870,DepthScenes,duration_manipulation_targetAtFixation,jsons/v1_VE1000_randls_65_rotated.json,http://54.235.29.9/FacialAge/BNav_EC2/DepthDuration/v2_depth_duration_MTurk/v2_DepthDuration_HTML.html#151,151,1366,768,1366,768,8-30-2022,11-0-26,104,depth_duration_stimuli/001828_2014-06-26_21-40-03_260595134347_rgbf000024-resize_0/001828_2014-06-26_21-40-03_260595134347_rgbf000024-resize_0-target.png,1000,4.8260000000000005,2,3003,1000,meters,jsons/v1_VE1000_randls_65_rotated.json,1903063,2874605,25,Man
104,478870,DepthScenes,duration_manipulation_targetAtFixation,jsons/v1_VE1000_randls_65_rotated.json,http://54.235.29.9/FacialAge/BNav_EC2/DepthDuration/v2_depth_duration_MTurk/v2_DepthDuration_HTML.html#151,151,1366,768,1366,768,8-30-2022,11-0-26,105,depth_duration_stimuli/000009_2014-05-26_14-32-05_260595134347_rgbf000034-resize_3/000009_2014-05-26_14-32-05_260595134347_rgbf000034-resize_3-target.png,1000,3.8715,2,2897,999,meters,jsons/v1_VE1000_randls_65_rotated.json,1903063,2874605,25,Man
105,478870,DepthScenes,duration_manipulation_targetAtFixation,jsons/v1_VE1000_randls_65_rotated.json,http://54.235.29.9/FacialAge/BNav_EC2/DepthDuration/v2_depth_duration_MTurk/v2_DepthDuration_HTML.html#151,151,1366,768,1366,768,8-30-2022,11-0-26,106,depth_duration_stimuli/002136_2014-06-25_21-18-03_260595134347_rgbf000109-resize_3/002136_2014-06-25_21-18-03_260595134347_rgbf000109-resize_3-target.png,1000,1.9569999999999999,2,2850,1000,meters,jsons/v1_VE1000_randls_65_rotated.json,1903063,2874605,25,Man
106,478870,DepthScenes,duration_manipulation_targetAtFixation,jsons/v1_VE1000_randls_65_rotated.json,http://54.235.29.9/FacialAge/BNav_EC2/DepthDuration/v2_depth_duration_MTurk/v2_DepthDuration_HTML.html#151,151,1366,768,1366,768,8-30-2022,11-0-26,107,depth_duration_stimuli/002964_2014-06-08_17-46-11_094959634447_rgbf000091-resize_4/002964_2014-06-08_17-46-11_094959634447_rgbf000091-resize_4-target.png,1000,1.6909999999999998,2,2764,1000,meters,jsons/v1_VE1000_randls_65_rotated.json,1903063,2874605,25,Man
107,478870,DepthScenes,duration_manipulation_targetAtFixation,jsons/v1_VE1000_randls_65_rotated.json,http://54.235.29.9/FacialAge/BNav_EC2/DepthDuration/v2_depth_duration_MTurk/v2_DepthDuration_HTML.html#151,151,1366,768,1366,768,8-30-2022,11-0-26,108,depth_duration_stimuli/000191_2014-05-12_17-07-38_260595134347_rgbf000199-resize_0/000191_2014-05-12_17-07-38_260595134347_rgbf000199-resize_0-target.png,1000,3.7995,2,3044,1001,meters,jsons/v1_VE1000_randls_65_rotated.json,1903063,2874605,25,Man
108,478870,DepthScenes,duration_manipulation_targetAtFixation,jsons/v1_VE1000_randls_65_rotated.json,http://54.235.29.9/FacialAge/BNav_EC2/DepthDuration/v2_depth_duration_MTurk/v2_DepthDuration_HTML.html#151,151,1366,768,1366,768,8-30-2022,11-0-26,109,depth_duration_stimuli/000493_2014-06-09_21-01-18_260595134347_rgbf000196-resize_3/000493_2014-06-09_21-01-18_260595134347_rgbf000196-resize_3-target.png,1000,3.44,2,3060,1000,meters,jsons/v1_VE1000_randls_65_rotated.json,1903063,2874605,25,Man
109,478870,DepthScenes,duration_manipulation_targetAtFixation,jsons/v1_VE1000_randls_65_rotated.json,http://54.235.29.9/FacialAge/BNav_EC2/DepthDuration/v2_depth_duration_MTurk/v2_DepthDuration_HTML.html#151,151,1366,768,1366,768,8-30-2022,11-0-26,110,depth_duration_stimuli/001100_2014-06-15_17-46-26_260595134347_rgbf000225-resize_2/001100_2014-06-15_17-46-26_260595134347_rgbf000225-resize_2-target.png,1000,2.24,2,3107,1001,meters,jsons/v1_VE1000_randls_65_rotated.json,1903063,2874605,25,Man
110,478870,DepthScenes,duration_manipulation_targetAtFixation,jsons/v1_VE1000_randls_65_rotated.json,http://54.235.29.9/FacialAge/BNav_EC2/DepthDuration/v2_depth_duration_MTurk/v2_DepthDuration_HTML.html#151,151,1366,768,1366,768,8-30-2022,11-0-26,111,depth_duration_stimuli/002784_2014-06-22_19-26-30_094959634447_rgbf000083-resize_3/002784_2014-06-22_19-26-30_094959634447_rgbf000083-resize_3-target.png,1000,1.8046666666667,1,3291,1000,meters,jsons/v1_VE1000_randls_65_rotated.json,1903063,2874605,25,Man
111,478870,DepthScenes,duration_manipulation_targetAtFixation,jsons/v1_VE1000_randls_65_rotated.json,http://54.235.29.9/FacialAge/BNav_EC2/DepthDuration/v2_depth_duration_MTurk/v2_DepthDuration_HTML.html#151,151,1366,768,1366,768,8-30-2022,11-0-26,112,depth_duration_stimuli/002545_2014-06-24_13-38-53_094959634447_rgbf000080-resize_4/002545_2014-06-24_13-38-53_094959634447_rgbf000080-resize_4-target.png,1000,1.9205,1,3338,999,meters,jsons/v1_VE1000_randls_65_rotated.json,1903063,2874605,25,Man
112,478870,DepthScenes,duration_manipulation_targetAtFixation,jsons/v1_VE1000_randls_65_rotated.json,http://54.235.29.9/FacialAge/BNav_EC2/DepthDuration/v2_depth_duration_MTurk/v2_DepthDuration_HTML.html#151,151,1366,768,1366,768,8-30-2022,11-0-26,113,depth_duration_stimuli/001092_2014-06-15_17-34-58_260595134347_rgbf000171-resize_3/001092_2014-06-15_17-34-58_260595134347_rgbf000171-resize_3-target.png,1000,2.6935,1,3275,998,meters,jsons/v1_VE1000_randls_65_rotated.json,1903063,2874605,25,Man
113,478870,DepthScenes,duration_manipulation_targetAtFixation,jsons/v1_VE1000_randls_65_rotated.json,http://54.235.29.9/FacialAge/BNav_EC2/DepthDuration/v2_depth_duration_MTurk/v2_DepthDuration_HTML.html#151,151,1366,768,1366,768,8-30-2022,11-0-26,114,depth_duration_stimuli/003048_2014-06-15_13-49-43_094959634447_rgbf000150-resize_1/003048_2014-06-15_13-49-43_094959634447_rgbf000150-resize_1-target.png,1000,4.0035,2,3841,999,meters,jsons/v1_VE1000_randls_65_rotated.json,1903063,2874605,25,Man
114,478870,DepthScenes,duration_manipulation_targetAtFixation,jsons/v1_VE1000_randls_65_rotated.json,http://54.235.29.9/FacialAge/BNav_EC2/DepthDuration/v2_depth_duration_MTurk/v2_DepthDuration_HTML.html#151,151,1366,768,1366,768,8-30-2022,11-0-26,115,depth_duration_stimuli/002043_2014-06-24_20-29-38_260595134347_rgbf000039-resize_4/002043_2014-06-24_20-29-38_260595134347_rgbf000039-resize_4-target.png,1000,2.8435,1,3203,1002,meters,jsons/v1_VE1000_randls_65_rotated.json,1903063,2874605,25,Man
115,478870,DepthScenes,duration_manipulation_targetAtFixation,jsons/v1_VE1000_randls_65_rotated.json,http://54.235.29.9/FacialAge/BNav_EC2/DepthDuration/v2_depth_duration_MTurk/v2_DepthDuration_HTML.html#151,151,1366,768,1366,768,8-30-2022,11-0-26,116,depth_duration_stimuli/000691_2014-06-08_13-08-50_260595134347_rgbf000132-resize_3/000691_2014-06-08_13-08-50_260595134347_rgbf000132-resize_3-target.png,1000,4.1530000000000005,1,3930,1000,meters,jsons/v1_VE1000_randls_65_rotated.json,1903063,2874605,25,Man
116,478870,DepthScenes,duration_manipulation_targetAtFixation,jsons/v1_VE1000_randls_65_rotated.json,http://54.235.29.9/FacialAge/BNav_EC2/DepthDuration/v2_depth_duration_MTurk/v2_DepthDuration_HTML.html#151,151,1366,768,1366,768,8-30-2022,11-0-26,117,depth_duration_stimuli/002213_2014-06-28_18-37-58_260595134347_rgbf000055-resize_1/002213_2014-06-28_18-37-58_260595134347_rgbf000055-resize_1-target.png,1000,3.62,2,3323,1000,meters,jsons/v1_VE1000_randls_65_rotated.json,1903063,2874605,25,Man
117,478870,DepthScenes,duration_manipulation_targetAtFixation,jsons/v1_VE1000_randls_65_rotated.json,http://54.235.29.9/FacialAge/BNav_EC2/DepthDuration/v2_depth_duration_MTurk/v2_DepthDuration_HTML.html#151,151,1366,768,1366,768,8-30-2022,11-0-26,118,depth_duration_stimuli/002678_2014-06-13_16-15-32_094959634447_rgbf000151-resize_6/002678_2014-06-13_16-15-32_094959634447_rgbf000151-resize_6-target.png,1000,2.1830000000000003,1,2803,1001,meters,jsons/v1_VE1000_randls_65_rotated.json,1903063,2874605,25,Man
118,478870,DepthScenes,duration_manipulation_targetAtFixation,jsons/v1_VE1000_randls_65_rotated.json,http://54.235.29.9/FacialAge/BNav_EC2/DepthDuration/v2_depth_duration_MTurk/v2_DepthDuration_HTML.html#151,151,1366,768,1366,768,8-30-2022,11-0-26,119,depth_duration_stimuli/000368_2014-06-09_15-53-01_260595134347_rgbf000155-resize_2/000368_2014-06-09_15-53-01_260595134347_rgbf000155-resize_2-target.png,1000,2.4859999999999998,2,2988,1000,meters,jsons/v1_VE1000_randls_65_rotated.json,1903063,2874605,25,Man
119,478870,DepthScenes,duration_manipulation_targetAtFixation,jsons/v1_VE1000_randls_65_rotated.json,http://54.235.29.9/FacialAge/BNav_EC2/DepthDuration/v2_depth_duration_MTurk/v2_DepthDuration_HTML.html#151,151,1366,768,1366,768,8-30-2022,11-0-26,120,depth_duration_stimuli/000787_2014-06-08_22-33-53_260595134347_rgbf000175-resize_1/000787_2014-06-08_22-33-53_260595134347_rgbf000175-resize-original.jpg,1000,4.784,0,3603,1000,meters,jsons/v1_VE1000_randls_65_rotated.json,1903063,2874605,25,Man
120,478870,DepthScenes,duration_manipulation_targetAtFixation,jsons/v1_VE1000_randls_65_rotated.json,http://54.235.29.9/FacialAge/BNav_EC2/DepthDuration/v2_depth_duration_MTurk/v2_DepthDuration_HTML.html#151,151,1366,768,1366,768,8-30-2022,11-0-26,121,depth_duration_stimuli/001450_2014-06-19_17-02-03_260595134347_rgbf000203-resize_4/001450_2014-06-19_17-02-03_260595134347_rgbf000203-resize_4-target.png,1000,4.0106666666667,2,3452,1000,meters,jsons/v1_VE1000_randls_65_rotated.json,1903063,2874605,25,Man
121,478870,DepthScenes,duration_manipulation_targetAtFixation,jsons/v1_VE1000_randls_65_rotated.json,http://54.235.29.9/FacialAge/BNav_EC2/DepthDuration/v2_depth_duration_MTurk/v2_DepthDuration_HTML.html#151,151,1366,768,1366,768,8-30-2022,11-0-26,122,depth_duration_stimuli/001449_2014-06-19_17-01-27_260595134347_rgbf000116-resize_2/001449_2014-06-19_17-01-27_260595134347_rgbf000116-resize_2-target.png,1000,3.452,1,5758,1001,meters,jsons/v1_VE1000_randls_65_rotated.json,1903063,2874605,25,Man
122,478870,DepthScenes,duration_manipulation_targetAtFixation,jsons/v1_VE1000_randls_65_rotated.json,http://54.235.29.9/FacialAge/BNav_EC2/DepthDuration/v2_depth_duration_MTurk/v2_DepthDuration_HTML.html#151,151,1366,768,1366,768,8-30-2022,11-0-26,123,depth_duration_stimuli/002639_2014-06-24_14-51-37_094959634447_rgbf000074-resize_4/002639_2014-06-24_14-51-37_094959634447_rgbf000074-resize_4-target.png,1000,4.0375,2,3247,1001,meters,jsons/v1_VE1000_randls_65_rotated.json,1903063,2874605,25,Man
123,478870,DepthScenes,duration_manipulation_targetAtFixation,jsons/v1_VE1000_randls_65_rotated.json,http://54.235.29.9/FacialAge/BNav_EC2/DepthDuration/v2_depth_duration_MTurk/v2_DepthDuration_HTML.html#151,151,1366,768,1366,768,8-30-2022,11-0-26,124,depth_duration_stimuli/003292_2014-05-14_21-53-49_094959634447_rgbf000100-resize_2/003292_2014-05-14_21-53-49_094959634447_rgbf000100-resize_2-target.png,1000,3.4815,1,3563,1000,meters,jsons/v1_VE1000_randls_65_rotated.json,1903063,2874605,25,Man
124,478870,DepthScenes,duration_manipulation_targetAtFixation,jsons/v1_VE1000_randls_65_rotated.json,http://54.235.29.9/FacialAge/BNav_EC2/DepthDuration/v2_depth_duration_MTurk/v2_DepthDuration_HTML.html#151,151,1366,768,1366,768,8-30-2022,11-0-26,125,depth_duration_stimuli/000943_2014-06-09_19-31-07_260595134347_rgbf000128-resize_1/000943_2014-06-09_19-31-07_260595134347_rgbf000128-resize_1-target.png,1000,1.9765,1,8355,1000,meters,jsons/v1_VE1000_randls_65_rotated.json,1903063,2874605,25,Man
125,478870,DepthScenes,duration_manipulation_targetAtFixation,jsons/v1_VE1000_randls_65_rotated.json,http://54.235.29.9/FacialAge/BNav_EC2/DepthDuration/v2_depth_duration_MTurk/v2_DepthDuration_HTML.html#151,151,1366,768,1366,768,8-30-2022,11-0-26,126,depth_duration_stimuli/003070_2014-06-15_14-58-27_094959634447_rgbf000150-resize_3/003070_2014-06-15_14-58-27_094959634447_rgbf000150-resize_3-target.png,1000,2.9415,1,3941,1001,meters,jsons/v1_VE1000_randls_65_rotated.json,1903063,2874605,25,Man
126,478870,DepthScenes,duration_manipulation_targetAtFixation,jsons/v1_VE1000_randls_65_rotated.json,http://54.235.29.9/FacialAge/BNav_EC2/DepthDuration/v2_depth_duration_MTurk/v2_DepthDuration_HTML.html#151,151,1366,768,1366,768,8-30-2022,11-0-26,127,depth_duration_stimuli/003338_2014-05-20_11-01-23_094959634447_rgbf000051-resize_6/003338_2014-05-20_11-01-23_094959634447_rgbf000051-resize_6-target.png,1000,1.693,1,5011,1000,meters,jsons/v1_VE1000_randls_65_rotated.json,1903063,2874605,25,Man
127,478870,DepthScenes,duration_manipulation_targetAtFixation,jsons/v1_VE1000_randls_65_rotated.json,http://54.235.29.9/FacialAge/BNav_EC2/DepthDuration/v2_depth_duration_MTurk/v2_DepthDuration_HTML.html#151,151,1366,768,1366,768,8-30-2022,11-0-26,128,depth_duration_stimuli/002509_2014-06-24_13-19-22_094959634447_rgbf000077-resize_0/002509_2014-06-24_13-19-22_094959634447_rgbf000077-resize_0-target.png,1000,1.3065,1,3450,1000,meters,jsons/v1_VE1000_randls_65_rotated.json,1903063,2874605,25,Man
128,478870,DepthScenes,duration_manipulation_targetAtFixation,jsons/v1_VE1000_randls_65_rotated.json,http://54.235.29.9/FacialAge/BNav_EC2/DepthDuration/v2_depth_duration_MTurk/v2_DepthDuration_HTML.html#151,151,1366,768,1366,768,8-30-2022,11-0-26,129,depth_duration_stimuli/001136_2014-06-17_15-19-41_260595134347_rgbf000076-resize_3/001136_2014-06-17_15-19-41_260595134347_rgbf000076-resize_3-target.png,1000,1.8655,1,3195,999,meters,jsons/v1_VE1000_randls_65_rotated.json,1903063,2874605,25,Man
129,478870,DepthScenes,duration_manipulation_targetAtFixation,jsons/v1_VE1000_randls_65_rotated.json,http://54.235.29.9/FacialAge/BNav_EC2/DepthDuration/v2_depth_duration_MTurk/v2_DepthDuration_HTML.html#151,151,1366,768,1366,768,8-30-2022,11-0-26,130,depth_duration_stimuli/001164_2014-06-17_15-35-46_260595134347_rgbf000085-resize_3/001164_2014-06-17_15-35-46_260595134347_rgbf000085-resize_3-target.png,1000,2.354,1,3113,1000,meters,jsons/v1_VE1000_randls_65_rotated.json,1903063,2874605,25,Man
130,478870,DepthScenes,duration_manipulation_targetAtFixation,jsons/v1_VE1000_randls_65_rotated.json,http://54.235.29.9/FacialAge/BNav_EC2/DepthDuration/v2_depth_duration_MTurk/v2_DepthDuration_HTML.html#151,151,1366,768,1366,768,8-30-2022,11-0-26,131,depth_duration_stimuli/000635_2014-06-08_16-38-42_260595134347_rgbf000106-resize_1/000635_2014-06-08_16-38-42_260595134347_rgbf000106-resize_1-target.png,1000,2.074,1,3307,1001,meters,jsons/v1_VE1000_randls_65_rotated.json,1903063,2874605,25,Man
131,478870,DepthScenes,duration_manipulation_targetAtFixation,jsons/v1_VE1000_randls_65_rotated.json,http://54.235.29.9/FacialAge/BNav_EC2/DepthDuration/v2_depth_duration_MTurk/v2_DepthDuration_HTML.html#151,151,1366,768,1366,768,8-30-2022,11-0-26,132,depth_duration_stimuli/002279_2014-06-28_18-55-32_260595134347_rgbf000040-resize_5/002279_2014-06-28_18-55-32_260595134347_rgbf000040-resize_5-target.png,1000,1.5043333333333,1,2947,1000,meters,jsons/v1_VE1000_randls_65_rotated.json,1903063,2874605,25,Man
132,478870,DepthScenes,duration_manipulation_targetAtFixation,jsons/v1_VE1000_randls_65_rotated.json,http://54.235.29.9/FacialAge/BNav_EC2/DepthDuration/v2_depth_duration_MTurk/v2_DepthDuration_HTML.html#151,151,1366,768,1366,768,8-30-2022,11-0-26,133,depth_duration_stimuli/003587_2014-05-23_16-48-02_094959634447_rgbf002384-resize_2/003587_2014-05-23_16-48-02_094959634447_rgbf002384-resize_2-target.png,1000,1.357,1,3009,999,meters,jsons/v1_VE1000_randls_65_rotated.json,1903063,2874605,25,Man
133,478870,DepthScenes,duration_manipulation_targetAtFixation,jsons/v1_VE1000_randls_65_rotated.json,http://54.235.29.9/FacialAge/BNav_EC2/DepthDuration/v2_depth_duration_MTurk/v2_DepthDuration_HTML.html#151,151,1366,768,1366,768,8-30-2022,11-0-26,134,depth_duration_stimuli/001167_2014-06-17_15-38-07_260595134347_rgbf000108-resize_0/001167_2014-06-17_15-38-07_260595134347_rgbf000108-resize_0-target.png,1000,1.8505,1,3290,1000,meters,jsons/v1_VE1000_randls_65_rotated.json,1903063,2874605,25,Man
134,478870,DepthScenes,duration_manipulation_targetAtFixation,jsons/v1_VE1000_randls_65_rotated.json,http://54.235.29.9/FacialAge/BNav_EC2/DepthDuration/v2_depth_duration_MTurk/v2_DepthDuration_HTML.html#151,151,1366,768,1366,768,8-30-2022,11-0-26,135,depth_duration_stimuli/000375_2014-06-08_11-17-29_260595134347_rgbf000133-resize_2/000375_2014-06-08_11-17-29_260595134347_rgbf000133-resize-original.jpg,1000,4.718,0,2882,999,meters,jsons/v1_VE1000_randls_65_rotated.json,1903063,2874605,25,Man
135,478870,DepthScenes,duration_manipulation_targetAtFixation,jsons/v1_VE1000_randls_65_rotated.json,http://54.235.29.9/FacialAge/BNav_EC2/DepthDuration/v2_depth_duration_MTurk/v2_DepthDuration_HTML.html#151,151,1366,768,1366,768,8-30-2022,11-0-26,136,depth_duration_stimuli/002425_2014-06-28_20-27-29_260595134347_rgbf000031-resize_8/002425_2014-06-28_20-27-29_260595134347_rgbf000031-resize_8-target.png,1000,3.8960000000000004,1,3164,1000,meters,jsons/v1_VE1000_randls_65_rotated.json,1903063,2874605,25,Man
136,478870,DepthScenes,duration_manipulation_targetAtFixation,jsons/v1_VE1000_randls_65_rotated.json,http://54.235.29.9/FacialAge/BNav_EC2/DepthDuration/v2_depth_duration_MTurk/v2_DepthDuration_HTML.html#151,151,1366,768,1366,768,8-30-2022,11-0-26,137,depth_duration_stimuli/000642_2014-06-08_16-59-25_260595134347_rgbf000098-resize_2/000642_2014-06-08_16-59-25_260595134347_rgbf000098-resize_2-target.png,1000,2.8815,2,2897,1000,meters,jsons/v1_VE1000_randls_65_rotated.json,1903063,2874605,25,Man
137,478870,DepthScenes,duration_manipulation_targetAtFixation,jsons/v1_VE1000_randls_65_rotated.json,http://54.235.29.9/FacialAge/BNav_EC2/DepthDuration/v2_depth_duration_MTurk/v2_DepthDuration_HTML.html#151,151,1366,768,1366,768,8-30-2022,11-0-26,138,depth_duration_stimuli/000409_2014-06-04_19-23-33_260595134347_rgbf000067-resize_0/000409_2014-06-04_19-23-33_260595134347_rgbf000067-resize_0-target.png,1000,3.7335,1,4668,999,meters,jsons/v1_VE1000_randls_65_rotated.json,1903063,2874605,25,Man
138,478870,DepthScenes,duration_manipulation_targetAtFixation,jsons/v1_VE1000_randls_65_rotated.json,http://54.235.29.9/FacialAge/BNav_EC2/DepthDuration/v2_depth_duration_MTurk/v2_DepthDuration_HTML.html#151,151,1366,768,1366,768,8-30-2022,11-0-26,139,depth_duration_stimuli/002663_2014-06-13_15-50-26_094959634447_rgbf000075-resize_1/002663_2014-06-13_15-50-26_094959634447_rgbf000075-resize_1-target.png,1000,4.7495,2,3563,1001,meters,jsons/v1_VE1000_randls_65_rotated.json,1903063,2874605,25,Man
139,478870,DepthScenes,duration_manipulation_targetAtFixation,jsons/v1_VE1000_randls_65_rotated.json,http://54.235.29.9/FacialAge/BNav_EC2/DepthDuration/v2_depth_duration_MTurk/v2_DepthDuration_HTML.html#151,151,1366,768,1366,768,8-30-2022,11-0-26,140,depth_duration_stimuli/003490_2014-05-21_15-50-11_094959634447_rgbf000101-resize_3/003490_2014-05-21_15-50-11_094959634447_rgbf000101-resize_3-target.png,1000,3.6445,1,2729,998,meters,jsons/v1_VE1000_randls_65_rotated.json,1903063,2874605,25,Man
140,478870,DepthScenes,duration_manipulation_targetAtFixation,jsons/v1_VE1000_randls_65_rotated.json,http://54.235.29.9/FacialAge/BNav_EC2/DepthDuration/v2_depth_duration_MTurk/v2_DepthDuration_HTML.html#151,151,1366,768,1366,768,8-30-2022,11-0-26,141,depth_duration_stimuli/001175_2014-06-17_15-45-55_260595134347_rgbf000129-resize_4/001175_2014-06-17_15-45-55_260595134347_rgbf000129-resize_4-target.png,1000,4.255,2,3034,999,meters,jsons/v1_VE1000_randls_65_rotated.json,1903063,2874605,25,Man
141,478870,DepthScenes,duration_manipulation_targetAtFixation,jsons/v1_VE1000_randls_65_rotated.json,http://54.235.29.9/FacialAge/BNav_EC2/DepthDuration/v2_depth_duration_MTurk/v2_DepthDuration_HTML.html#151,151,1366,768,1366,768,8-30-2022,11-0-26,142,depth_duration_stimuli/000502_2014-06-08_23-02-32_260595134347_rgbf000063-resize_4/000502_2014-06-08_23-02-32_260595134347_rgbf000063-resize_4-target.png,1000,2.431,1,2611,999,meters,jsons/v1_VE1000_randls_65_rotated.json,1903063,2874605,25,Man
142,478870,DepthScenes,duration_manipulation_targetAtFixation,jsons/v1_VE1000_randls_65_rotated.json,http://54.235.29.9/FacialAge/BNav_EC2/DepthDuration/v2_depth_duration_MTurk/v2_DepthDuration_HTML.html#151,151,1366,768,1366,768,8-30-2022,11-0-26,143,depth_duration_stimuli/001199_2014-06-17_16-03-48_260595134347_rgbf000077-resize_0/001199_2014-06-17_16-03-48_260595134347_rgbf000077-resize_0-target.png,1000,3.4375,2,2739,1000,meters,jsons/v1_VE1000_randls_65_rotated.json,1903063,2874605,25,Man
143,478870,DepthScenes,duration_manipulation_targetAtFixation,jsons/v1_VE1000_randls_65_rotated.json,http://54.235.29.9/FacialAge/BNav_EC2/DepthDuration/v2_depth_duration_MTurk/v2_DepthDuration_HTML.html#151,151,1366,768,1366,768,8-30-2022,11-0-26,144,depth_duration_stimuli/003081_2014-06-15_15-19-16_094959634447_rgbf000150-resize_1/003081_2014-06-15_15-19-16_094959634447_rgbf000150-resize_1-target.png,1000,3.9125,2,2725,999,meters,jsons/v1_VE1000_randls_65_rotated.json,1903063,2874605,25,Man
144,478870,DepthScenes,duration_manipulation_targetAtFixation,jsons/v1_VE1000_randls_65_rotated.json,http://54.235.29.9/FacialAge/BNav_EC2/DepthDuration/v2_depth_duration_MTurk/v2_DepthDuration_HTML.html#151,151,1366,768,1366,768,8-30-2022,11-0-26,145,depth_duration_stimuli/001417_2014-06-19_16-25-36_260595134347_rgbf000115-resize_5/001417_2014-06-19_16-25-36_260595134347_rgbf000115-resize_5-target.png,1000,4.6255,2,2999,1000,meters,jsons/v1_VE1000_randls_65_rotated.json,1903063,2874605,25,Man
145,478870,DepthScenes,duration_manipulation_targetAtFixation,jsons/v1_VE1000_randls_65_rotated.json,http://54.235.29.9/FacialAge/BNav_EC2/DepthDuration/v2_depth_duration_MTurk/v2_DepthDuration_HTML.html#151,151,1366,768,1366,768,8-30-2022,11-0-26,146,depth_duration_stimuli/003079_2014-06-15_15-18-20_094959634447_rgbf000152-resize_8/003079_2014-06-15_15-18-20_094959634447_rgbf000152-resize_8-target.png,1000,2.8775,2,2643,1000,meters,jsons/v1_VE1000_randls_65_rotated.json,1903063,2874605,25,Man
146,478870,DepthScenes,duration_manipulation_targetAtFixation,jsons/v1_VE1000_randls_65_rotated.json,http://54.235.29.9/FacialAge/BNav_EC2/DepthDuration/v2_depth_duration_MTurk/v2_DepthDuration_HTML.html#151,151,1366,768,1366,768,8-30-2022,11-0-26,147,depth_duration_stimuli/000506_2014-06-08_23-21-00_260595134347_rgbf000070-resize_7/000506_2014-06-08_23-21-00_260595134347_rgbf000070-resize_7-target.png,1000,4.0585,2,3127,1000,meters,jsons/v1_VE1000_randls_65_rotated.json,1903063,2874605,25,Man
147,478870,DepthScenes,duration_manipulation_targetAtFixation,jsons/v1_VE1000_randls_65_rotated.json,http://54.235.29.9/FacialAge/BNav_EC2/DepthDuration/v2_depth_duration_MTurk/v2_DepthDuration_HTML.html#151,151,1366,768,1366,768,8-30-2022,11-0-26,148,depth_duration_stimuli/002199_2014-06-28_18-33-56_260595134347_rgbf000074-resize_0/002199_2014-06-28_18-33-56_260595134347_rgbf000074-resize_0-target.png,1000,1.996,1,2997,999,meters,jsons/v1_VE1000_randls_65_rotated.json,1903063,2874605,25,Man
148,478870,DepthScenes,duration_manipulation_targetAtFixation,jsons/v1_VE1000_randls_65_rotated.json,http://54.235.29.9/FacialAge/BNav_EC2/DepthDuration/v2_depth_duration_MTurk/v2_DepthDuration_HTML.html#151,151,1366,768,1366,768,8-30-2022,11-0-26,149,depth_duration_stimuli/001056_2014-06-08_18-46-44_260595134347_rgbf000068-resize_0/001056_2014-06-08_18-46-44_260595134347_rgbf000068-resize_0-target.png,1000,2.6625,1,2850,1001,meters,jsons/v1_VE1000_randls_65_rotated.json,1903063,2874605,25,Man
149,478870,DepthScenes,duration_manipulation_targetAtFixation,jsons/v1_VE1000_randls_65_rotated.json,http://54.235.29.9/FacialAge/BNav_EC2/DepthDuration/v2_depth_duration_MTurk/v2_DepthDuration_HTML.html#151,151,1366,768,1366,768,8-30-2022,11-0-26,150,depth_duration_stimuli/002660_2014-06-13_15-44-18_094959634447_rgbf001878-resize_2/002660_2014-06-13_15-44-18_094959634447_rgbf001878-resize_2-target.png,1000,3.576,1,3044,1001,meters,jsons/v1_VE1000_randls_65_rotated.json,1903063,2874605,25,Man
150,478870,DepthScenes,duration_manipulation_targetAtFixation,jsons/v1_VE1000_randls_65_rotated.json,http://54.235.29.9/FacialAge/BNav_EC2/DepthDuration/v2_depth_duration_MTurk/v2_DepthDuration_HTML.html#151,151,1366,768,1366,768,8-30-2022,11-0-26,151,depth_duration_stimuli/002153_2014-06-25_21-27-18_260595134347_rgbf000038-resize_5/002153_2014-06-25_21-27-18_260595134347_rgbf000038-resize_5-target.png,1000,2.505,1,2948,1000,meters,jsons/v1_VE1000_randls_65_rotated.json,1903063,2874605,25,Man
151,478870,DepthScenes,duration_manipulation_targetAtFixation,jsons/v1_VE1000_randls_65_rotated.json,http://54.235.29.9/FacialAge/BNav_EC2/DepthDuration/v2_depth_duration_MTurk/v2_DepthDuration_HTML.html#151,151,1366,768,1366,768,8-30-2022,11-0-26,152,depth_duration_stimuli/000569_2014-06-09_22-51-47_260595134347_rgbf000141-resize_3/000569_2014-06-09_22-51-47_260595134347_rgbf000141-resize-original.jpg,1000,4.512,0,2943,999,meters,jsons/v1_VE1000_randls_65_rotated.json,1903063,2874605,25,Man
152,478870,DepthScenes,duration_manipulation_targetAtFixation,jsons/v1_VE1000_randls_65_rotated.json,http://54.235.29.9/FacialAge/BNav_EC2/DepthDuration/v2_depth_duration_MTurk/v2_DepthDuration_HTML.html#151,151,1366,768,1366,768,8-30-2022,11-0-26,153,depth_duration_stimuli/001571_2014-06-20_17-21-32_260595134347_rgbf000089-resize_1/001571_2014-06-20_17-21-32_260595134347_rgbf000089-resize_1-target.png,1000,1.86,2,2980,999,meters,jsons/v1_VE1000_randls_65_rotated.json,1903063,2874605,25,Man
153,478870,DepthScenes,duration_manipulation_targetAtFixation,jsons/v1_VE1000_randls_65_rotated.json,http://54.235.29.9/FacialAge/BNav_EC2/DepthDuration/v2_depth_duration_MTurk/v2_DepthDuration_HTML.html#151,151,1366,768,1366,768,8-30-2022,11-0-26,154,depth_duration_stimuli/002272_2014-06-28_18-53-56_260595134347_rgbf000067-resize_2/002272_2014-06-28_18-53-56_260595134347_rgbf000067-resize_2-target.png,1000,1.138,1,2867,999,meters,jsons/v1_VE1000_randls_65_rotated.json,1903063,2874605,25,Man
154,478870,DepthScenes,duration_manipulation_targetAtFixation,jsons/v1_VE1000_randls_65_rotated.json,http://54.235.29.9/FacialAge/BNav_EC2/DepthDuration/v2_depth_duration_MTurk/v2_DepthDuration_HTML.html#151,151,1366,768,1366,768,8-30-2022,11-0-26,155,depth_duration_stimuli/003129_2014-05-12_10-48-10_094959634447_rgbf000100-resize_0/003129_2014-05-12_10-48-10_094959634447_rgbf000100-resize_0-target.png,1000,4.9305,2,2765,1001,meters,jsons/v1_VE1000_randls_65_rotated.json,1903063,2874605,25,Man
155,478870,DepthScenes,duration_manipulation_targetAtFixation,jsons/v1_VE1000_randls_65_rotated.json,http://54.235.29.9/FacialAge/BNav_EC2/DepthDuration/v2_depth_duration_MTurk/v2_DepthDuration_HTML.html#151,151,1366,768,1366,768,8-30-2022,11-0-26,156,depth_duration_stimuli/000414_2014-06-04_19-49-13_260595134347_rgbf000044-resize_0/000414_2014-06-04_19-49-13_260595134347_rgbf000044-resize_0-target.png,1000,4.329,2,2610,1000,meters,jsons/v1_VE1000_randls_65_rotated.json,1903063,2874605,25,Man
156,478870,DepthScenes,duration_manipulation_targetAtFixation,jsons/v1_VE1000_randls_65_rotated.json,http://54.235.29.9/FacialAge/BNav_EC2/DepthDuration/v2_depth_duration_MTurk/v2_DepthDuration_HTML.html#151,151,1366,768,1366,768,8-30-2022,11-0-26,157,depth_duration_stimuli/001392_2014-06-19_16-07-59_260595134347_rgbf000046-resize_1/001392_2014-06-19_16-07-59_260595134347_rgbf000046-resize_1-target.png,1000,4.135,2,2492,1000,meters,jsons/v1_VE1000_randls_65_rotated.json,1903063,2874605,25,Man
157,478870,DepthScenes,duration_manipulation_targetAtFixation,jsons/v1_VE1000_randls_65_rotated.json,http://54.235.29.9/FacialAge/BNav_EC2/DepthDuration/v2_depth_duration_MTurk/v2_DepthDuration_HTML.html#151,151,1366,768,1366,768,8-30-2022,11-0-26,158,depth_duration_stimuli/001570_2014-06-20_17-21-09_260595134347_rgbf000135-resize_4/001570_2014-06-20_17-21-09_260595134347_rgbf000135-resize_4-target.png,1000,4.467,2,2666,1001,meters,jsons/v1_VE1000_randls_65_rotated.json,1903063,2874605,25,Man
158,478870,DepthScenes,duration_manipulation_targetAtFixation,jsons/v1_VE1000_randls_65_rotated.json,http://54.235.29.9/FacialAge/BNav_EC2/DepthDuration/v2_depth_duration_MTurk/v2_DepthDuration_HTML.html#151,151,1366,768,1366,768,8-30-2022,11-0-26,159,depth_duration_stimuli/002103_2014-06-25_20-00-40_260595134347_rgbf000049-resize_0/002103_2014-06-25_20-00-40_260595134347_rgbf000049-resize_0-target.png,1000,4.105,2,2802,999,meters,jsons/v1_VE1000_randls_65_rotated.json,1903063,2874605,25,Man
159,478870,DepthScenes,duration_manipulation_targetAtFixation,jsons/v1_VE1000_randls_65_rotated.json,http://54.235.29.9/FacialAge/BNav_EC2/DepthDuration/v2_depth_duration_MTurk/v2_DepthDuration_HTML.html#151,151,1366,768,1366,768,8-30-2022,11-0-26,160,depth_duration_stimuli/002039_2014-06-24_20-22-38_260595134347_rgbf000084-resize_1/002039_2014-06-24_20-22-38_260595134347_rgbf000084-resize_1-target.png,1000,4.408,2,3203,1000,meters,jsons/v1_VE1000_randls_65_rotated.json,1903063,2874605,25,Man
160,478870,DepthScenes,duration_manipulation_targetAtFixation,jsons/v1_VE1000_randls_65_rotated.json,http://54.235.29.9/FacialAge/BNav_EC2/DepthDuration/v2_depth_duration_MTurk/v2_DepthDuration_HTML.html#151,151,1366,768,1366,768,8-30-2022,11-0-26,161,depth_duration_stimuli/000709_2014-06-08_13-51-55_260595134347_rgbf000068-resize_3/000709_2014-06-08_13-51-55_260595134347_rgbf000068-resize_3-target.png,1000,1.8030000000000002,1,2651,1001,meters,jsons/v1_VE1000_randls_65_rotated.json,1903063,2874605,25,Man
161,478870,DepthScenes,duration_manipulation_targetAtFixation,jsons/v1_VE1000_randls_65_rotated.json,http://54.235.29.9/FacialAge/BNav_EC2/DepthDuration/v2_depth_duration_MTurk/v2_DepthDuration_HTML.html#151,151,1366,768,1366,768,8-30-2022,11-0-26,162,depth_duration_stimuli/002057_2014-06-24_21-00-13_260595134347_rgbf000120-resize_1/002057_2014-06-24_21-00-13_260595134347_rgbf000120-resize_1-target.png,1000,2.967,2,2579,1000,meters,jsons/v1_VE1000_randls_65_rotated.json,1903063,2874605,25,Man
162,478870,DepthScenes,duration_manipulation_targetAtFixation,jsons/v1_VE1000_randls_65_rotated.json,http://54.235.29.9/FacialAge/BNav_EC2/DepthDuration/v2_depth_duration_MTurk/v2_DepthDuration_HTML.html#151,151,1366,768,1366,768,8-30-2022,11-0-26,163,depth_duration_stimuli/000549_2014-06-08_22-10-24_260595134347_rgbf000247-resize_3/000549_2014-06-08_22-10-24_260595134347_rgbf000247-resize_3-target.png,1000,1.841,1,2778,1000,meters,jsons/v1_VE1000_randls_65_rotated.json,1903063,2874605,25,Man
163,478870,DepthScenes,duration_manipulation_targetAtFixation,jsons/v1_VE1000_randls_65_rotated.json,http://54.235.29.9/FacialAge/BNav_EC2/DepthDuration/v2_depth_duration_MTurk/v2_DepthDuration_HTML.html#151,151,1366,768,1366,768,8-30-2022,11-0-26,164,depth_duration_stimuli/001055_2014-06-08_18-45-35_260595134347_rgbf000111-resize_4/001055_2014-06-08_18-45-35_260595134347_rgbf000111-resize_4-target.png,1000,2.4290000000000003,1,2556,999,meters,jsons/v1_VE1000_randls_65_rotated.json,1903063,2874605,25,Man
