,subjID,experimentName,versionName,sequenceName,url,selected_row,windowWidth,windowHeight,screenWidth,screenHeight,startDate,startTime,trial,stimulus,duration,actual_depth,depth_estimate,trial_RT,log_sceneDuration,unitSelection,seq_filepath,experimentTime,totalTime,age,gender
0,480362,DepthScenes,duration_manipulation_targetAtFixation,jsons/VE125_randls_28_rotated.json,http://54.235.29.9/FacialAge/BNav_EC2/DepthDuration/v2_depth_duration_MTurk/v2_DepthDuration_HTML.html#106,106,1600,1200,1600,1200,8-30-2022,9-28-17,1,depth_duration_stimuli/002136_2014-06-25_21-18-03_260595134347_rgbf000109-resize_3/002136_2014-06-25_21-18-03_260595134347_rgbf000109-resize_3-target.png,125,1.9569999999999999,2,15186,100,feet,jsons/VE125_randls_28_rotated.json,1950979,3282868,45,Man
1,480362,DepthScenes,duration_manipulation_targetAtFixation,jsons/VE125_randls_28_rotated.json,http://54.235.29.9/FacialAge/BNav_EC2/DepthDuration/v2_depth_duration_MTurk/v2_DepthDuration_HTML.html#106,106,1600,1200,1600,1200,8-30-2022,9-28-17,2,depth_duration_stimuli/002964_2014-06-08_17-46-11_094959634447_rgbf000091-resize_4/002964_2014-06-08_17-46-11_094959634447_rgbf000091-resize_4-target.png,125,1.6909999999999998,3,15446,124,feet,jsons/VE125_randls_28_rotated.json,1950979,3282868,45,Man
2,480362,DepthScenes,duration_manipulation_targetAtFixation,jsons/VE125_randls_28_rotated.json,http://54.235.29.9/FacialAge/BNav_EC2/DepthDuration/v2_depth_duration_MTurk/v2_DepthDuration_HTML.html#106,106,1600,1200,1600,1200,8-30-2022,9-28-17,3,depth_duration_stimuli/000866_2014-06-09_20-45-42_260595134347_rgbf000139-resize_1/000866_2014-06-09_20-45-42_260595134347_rgbf000139-resize_1-target.png,125,3.2155,5,10781,126,feet,jsons/VE125_randls_28_rotated.json,1950979,3282868,45,Man
3,480362,DepthScenes,duration_manipulation_targetAtFixation,jsons/VE125_randls_28_rotated.json,http://54.235.29.9/FacialAge/BNav_EC2/DepthDuration/v2_depth_duration_MTurk/v2_DepthDuration_HTML.html#106,106,1600,1200,1600,1200,8-30-2022,9-28-17,4,depth_duration_stimuli/002989_2014-06-15_12-25-03_094959634447_rgbf000150-resize_3/002989_2014-06-15_12-25-03_094959634447_rgbf000150-resize_3-target.png,125,4.1975,6,12313,127,feet,jsons/VE125_randls_28_rotated.json,1950979,3282868,45,Man
4,480362,DepthScenes,duration_manipulation_targetAtFixation,jsons/VE125_randls_28_rotated.json,http://54.235.29.9/FacialAge/BNav_EC2/DepthDuration/v2_depth_duration_MTurk/v2_DepthDuration_HTML.html#106,106,1600,1200,1600,1200,8-30-2022,9-28-17,5,depth_duration_stimuli/000409_2014-06-04_19-23-33_260595134347_rgbf000067-resize_0/000409_2014-06-04_19-23-33_260595134347_rgbf000067-resize_0-target.png,125,3.7335,5,10181,124,feet,jsons/VE125_randls_28_rotated.json,1950979,3282868,45,Man
5,480362,DepthScenes,duration_manipulation_targetAtFixation,jsons/VE125_randls_28_rotated.json,http://54.235.29.9/FacialAge/BNav_EC2/DepthDuration/v2_depth_duration_MTurk/v2_DepthDuration_HTML.html#106,106,1600,1200,1600,1200,8-30-2022,9-28-17,6,depth_duration_stimuli/002663_2014-06-13_15-50-26_094959634447_rgbf000075-resize_1/002663_2014-06-13_15-50-26_094959634447_rgbf000075-resize_1-target.png,125,4.7495,6,7682,126,feet,jsons/VE125_randls_28_rotated.json,1950979,3282868,45,Man
6,480362,DepthScenes,duration_manipulation_targetAtFixation,jsons/VE125_randls_28_rotated.json,http://54.235.29.9/FacialAge/BNav_EC2/DepthDuration/v2_depth_duration_MTurk/v2_DepthDuration_HTML.html#106,106,1600,1200,1600,1200,8-30-2022,9-28-17,7,depth_duration_stimuli/003495_2014-05-21_16-01-51_094959634447_rgbf000100-resize_3/003495_2014-05-21_16-01-51_094959634447_rgbf000100-resize_3-target.png,125,1.6255,2,8641,119,feet,jsons/VE125_randls_28_rotated.json,1950979,3282868,45,Man
7,480362,DepthScenes,duration_manipulation_targetAtFixation,jsons/VE125_randls_28_rotated.json,http://54.235.29.9/FacialAge/BNav_EC2/DepthDuration/v2_depth_duration_MTurk/v2_DepthDuration_HTML.html#106,106,1600,1200,1600,1200,8-30-2022,9-28-17,8,depth_duration_stimuli/001244_2014-06-17_16-47-45_260595134347_rgbf000030-resize_4/001244_2014-06-17_16-47-45_260595134347_rgbf000030-resize_4-target.png,125,2.0425,3,10037,120,feet,jsons/VE125_randls_28_rotated.json,1950979,3282868,45,Man
8,480362,DepthScenes,duration_manipulation_targetAtFixation,jsons/VE125_randls_28_rotated.json,http://54.235.29.9/FacialAge/BNav_EC2/DepthDuration/v2_depth_duration_MTurk/v2_DepthDuration_HTML.html#106,106,1600,1200,1600,1200,8-30-2022,9-28-17,9,depth_duration_stimuli/000854_2014-06-09_19-43-13_260595134347_rgbf000066-resize_0/000854_2014-06-09_19-43-13_260595134347_rgbf000066-resize_0-target.png,125,3.068,3,13047,125,feet,jsons/VE125_randls_28_rotated.json,1950979,3282868,45,Man
9,480362,DepthScenes,duration_manipulation_targetAtFixation,jsons/VE125_randls_28_rotated.json,http://54.235.29.9/FacialAge/BNav_EC2/DepthDuration/v2_depth_duration_MTurk/v2_DepthDuration_HTML.html#106,106,1600,1200,1600,1200,8-30-2022,9-28-17,10,depth_duration_stimuli/000758_2014-06-08_22-05-08_260595134347_rgbf000085-resize_0/000758_2014-06-08_22-05-08_260595134347_rgbf000085-resize_0-target.png,125,3.3810000000000002,5,8497,124,feet,jsons/VE125_randls_28_rotated.json,1950979,3282868,45,Man
10,480362,DepthScenes,duration_manipulation_targetAtFixation,jsons/VE125_randls_28_rotated.json,http://54.235.29.9/FacialAge/BNav_EC2/DepthDuration/v2_depth_duration_MTurk/v2_DepthDuration_HTML.html#106,106,1600,1200,1600,1200,8-30-2022,9-28-17,11,depth_duration_stimuli/001450_2014-06-19_17-02-03_260595134347_rgbf000203-resize_4/001450_2014-06-19_17-02-03_260595134347_rgbf000203-resize_4-target.png,125,4.0106666666667,6,12619,127,feet,jsons/VE125_randls_28_rotated.json,1950979,3282868,45,Man
11,480362,DepthScenes,duration_manipulation_targetAtFixation,jsons/VE125_randls_28_rotated.json,http://54.235.29.9/FacialAge/BNav_EC2/DepthDuration/v2_depth_duration_MTurk/v2_DepthDuration_HTML.html#106,106,1600,1200,1600,1200,8-30-2022,9-28-17,12,depth_duration_stimuli/001449_2014-06-19_17-01-27_260595134347_rgbf000116-resize_2/001449_2014-06-19_17-01-27_260595134347_rgbf000116-resize_2-target.png,125,3.452,4,8926,124,feet,jsons/VE125_randls_28_rotated.json,1950979,3282868,45,Man
12,480362,DepthScenes,duration_manipulation_targetAtFixation,jsons/VE125_randls_28_rotated.json,http://54.235.29.9/FacialAge/BNav_EC2/DepthDuration/v2_depth_duration_MTurk/v2_DepthDuration_HTML.html#106,106,1600,1200,1600,1200,8-30-2022,9-28-17,13,depth_duration_stimuli/001617_2014-06-20_11-35-32_260595134347_rgbf000066-resize_1/001617_2014-06-20_11-35-32_260595134347_rgbf000066-resize_1-target.png,125,3.7910000000000004,5,9990,143,feet,jsons/VE125_randls_28_rotated.json,1950979,3282868,45,Man
13,480362,DepthScenes,duration_manipulation_targetAtFixation,jsons/VE125_randls_28_rotated.json,http://54.235.29.9/FacialAge/BNav_EC2/DepthDuration/v2_depth_duration_MTurk/v2_DepthDuration_HTML.html#106,106,1600,1200,1600,1200,8-30-2022,9-28-17,14,depth_duration_stimuli/001806_2014-06-26_20-50-20_260595134347_rgbf000091-resize_1/001806_2014-06-26_20-50-20_260595134347_rgbf000091-resize_1-target.png,125,2.7305,2,9106,133,feet,jsons/VE125_randls_28_rotated.json,1950979,3282868,45,Man
14,480362,DepthScenes,duration_manipulation_targetAtFixation,jsons/VE125_randls_28_rotated.json,http://54.235.29.9/FacialAge/BNav_EC2/DepthDuration/v2_depth_duration_MTurk/v2_DepthDuration_HTML.html#106,106,1600,1200,1600,1200,8-30-2022,9-28-17,15,depth_duration_stimuli/002750_2014-06-22_19-08-03_094959634447_rgbf000094-resize_4/002750_2014-06-22_19-08-03_094959634447_rgbf000094-resize_4-target.png,125,2.354,3,3956,140,feet,jsons/VE125_randls_28_rotated.json,1950979,3282868,45,Man
15,480362,DepthScenes,duration_manipulation_targetAtFixation,jsons/VE125_randls_28_rotated.json,http://54.235.29.9/FacialAge/BNav_EC2/DepthDuration/v2_depth_duration_MTurk/v2_DepthDuration_HTML.html#106,106,1600,1200,1600,1200,8-30-2022,9-28-17,16,depth_duration_stimuli/002549_2014-06-24_13-41-39_094959634447_rgbf000022-resize_3/002549_2014-06-24_13-41-39_094959634447_rgbf000022-resize_3-target.png,125,1.476,2,3623,135,feet,jsons/VE125_randls_28_rotated.json,1950979,3282868,45,Man
16,480362,DepthScenes,duration_manipulation_targetAtFixation,jsons/VE125_randls_28_rotated.json,http://54.235.29.9/FacialAge/BNav_EC2/DepthDuration/v2_depth_duration_MTurk/v2_DepthDuration_HTML.html#106,106,1600,1200,1600,1200,8-30-2022,9-28-17,17,depth_duration_stimuli/003423_2014-05-21_10-23-26_094959634447_rgbf002665-resize_2/003423_2014-05-21_10-23-26_094959634447_rgbf002665-resize_2-target.png,125,3.2575,5,8663,121,feet,jsons/VE125_randls_28_rotated.json,1950979,3282868,45,Man
17,480362,DepthScenes,duration_manipulation_targetAtFixation,jsons/VE125_randls_28_rotated.json,http://54.235.29.9/FacialAge/BNav_EC2/DepthDuration/v2_depth_duration_MTurk/v2_DepthDuration_HTML.html#106,106,1600,1200,1600,1200,8-30-2022,9-28-17,18,depth_duration_stimuli/002905_2014-06-03_18-04-43_094959634447_rgbf000151-resize_2/002905_2014-06-03_18-04-43_094959634447_rgbf000151-resize_2-target.png,125,2.0295,2,7963,125,feet,jsons/VE125_randls_28_rotated.json,1950979,3282868,45,Man
18,480362,DepthScenes,duration_manipulation_targetAtFixation,jsons/VE125_randls_28_rotated.json,http://54.235.29.9/FacialAge/BNav_EC2/DepthDuration/v2_depth_duration_MTurk/v2_DepthDuration_HTML.html#106,106,1600,1200,1600,1200,8-30-2022,9-28-17,19,depth_duration_stimuli/001498_2014-06-19_17-45-14_260595134347_rgbf000129-resize_4/001498_2014-06-19_17-45-14_260595134347_rgbf000129-resize-original.jpg,125,1.4075,0,15315,125,feet,jsons/VE125_randls_28_rotated.json,1950979,3282868,45,Man
19,480362,DepthScenes,duration_manipulation_targetAtFixation,jsons/VE125_randls_28_rotated.json,http://54.235.29.9/FacialAge/BNav_EC2/DepthDuration/v2_depth_duration_MTurk/v2_DepthDuration_HTML.html#106,106,1600,1200,1600,1200,8-30-2022,9-28-17,20,depth_duration_stimuli/000137_2014-05-20_17-04-49_260595134347_rgbf000120-resize_1/000137_2014-05-20_17-04-49_260595134347_rgbf000120-resize_1-target.png,125,3.786,6,11848,119,feet,jsons/VE125_randls_28_rotated.json,1950979,3282868,45,Man
20,480362,DepthScenes,duration_manipulation_targetAtFixation,jsons/VE125_randls_28_rotated.json,http://54.235.29.9/FacialAge/BNav_EC2/DepthDuration/v2_depth_duration_MTurk/v2_DepthDuration_HTML.html#106,106,1600,1200,1600,1200,8-30-2022,9-28-17,21,depth_duration_stimuli/000736_2014-06-08_18-24-15_260595134347_rgbf000206-resize_3/000736_2014-06-08_18-24-15_260595134347_rgbf000206-resize_3-target.png,125,3.515,3,12780,136,feet,jsons/VE125_randls_28_rotated.json,1950979,3282868,45,Man
21,480362,DepthScenes,duration_manipulation_targetAtFixation,jsons/VE125_randls_28_rotated.json,http://54.235.29.9/FacialAge/BNav_EC2/DepthDuration/v2_depth_duration_MTurk/v2_DepthDuration_HTML.html#106,106,1600,1200,1600,1200,8-30-2022,9-28-17,22,depth_duration_stimuli/000709_2014-06-08_13-51-55_260595134347_rgbf000068-resize_3/000709_2014-06-08_13-51-55_260595134347_rgbf000068-resize_3-target.png,125,1.8030000000000002,2,15460,126,feet,jsons/VE125_randls_28_rotated.json,1950979,3282868,45,Man
22,480362,DepthScenes,duration_manipulation_targetAtFixation,jsons/VE125_randls_28_rotated.json,http://54.235.29.9/FacialAge/BNav_EC2/DepthDuration/v2_depth_duration_MTurk/v2_DepthDuration_HTML.html#106,106,1600,1200,1600,1200,8-30-2022,9-28-17,23,depth_duration_stimuli/002057_2014-06-24_21-00-13_260595134347_rgbf000120-resize_1/002057_2014-06-24_21-00-13_260595134347_rgbf000120-resize_1-target.png,125,2.967,5,8846,125,feet,jsons/VE125_randls_28_rotated.json,1950979,3282868,45,Man
23,480362,DepthScenes,duration_manipulation_targetAtFixation,jsons/VE125_randls_28_rotated.json,http://54.235.29.9/FacialAge/BNav_EC2/DepthDuration/v2_depth_duration_MTurk/v2_DepthDuration_HTML.html#106,106,1600,1200,1600,1200,8-30-2022,9-28-17,24,depth_duration_stimuli/002209_2014-06-28_18-36-10_260595134347_rgbf000051-resize_1/002209_2014-06-28_18-36-10_260595134347_rgbf000051-resize_1-target.png,125,2.057,2,7942,127,feet,jsons/VE125_randls_28_rotated.json,1950979,3282868,45,Man
24,480362,DepthScenes,duration_manipulation_targetAtFixation,jsons/VE125_randls_28_rotated.json,http://54.235.29.9/FacialAge/BNav_EC2/DepthDuration/v2_depth_duration_MTurk/v2_DepthDuration_HTML.html#106,106,1600,1200,1600,1200,8-30-2022,9-28-17,25,depth_duration_stimuli/002763_2014-06-22_19-13-10_094959634447_rgbf000075-resize_4/002763_2014-06-22_19-13-10_094959634447_rgbf000075-resize_4-target.png,125,1.68375,2,9296,114,feet,jsons/VE125_randls_28_rotated.json,1950979,3282868,45,Man
25,480362,DepthScenes,duration_manipulation_targetAtFixation,jsons/VE125_randls_28_rotated.json,http://54.235.29.9/FacialAge/BNav_EC2/DepthDuration/v2_depth_duration_MTurk/v2_DepthDuration_HTML.html#106,106,1600,1200,1600,1200,8-30-2022,9-28-17,26,depth_duration_stimuli/000191_2014-05-12_17-07-38_260595134347_rgbf000199-resize_0/000191_2014-05-12_17-07-38_260595134347_rgbf000199-resize_0-target.png,125,3.7995,6,11191,127,feet,jsons/VE125_randls_28_rotated.json,1950979,3282868,45,Man
26,480362,DepthScenes,duration_manipulation_targetAtFixation,jsons/VE125_randls_28_rotated.json,http://54.235.29.9/FacialAge/BNav_EC2/DepthDuration/v2_depth_duration_MTurk/v2_DepthDuration_HTML.html#106,106,1600,1200,1600,1200,8-30-2022,9-28-17,27,depth_duration_stimuli/000493_2014-06-09_21-01-18_260595134347_rgbf000196-resize_3/000493_2014-06-09_21-01-18_260595134347_rgbf000196-resize_3-target.png,125,3.44,4,11692,126,feet,jsons/VE125_randls_28_rotated.json,1950979,3282868,45,Man
27,480362,DepthScenes,duration_manipulation_targetAtFixation,jsons/VE125_randls_28_rotated.json,http://54.235.29.9/FacialAge/BNav_EC2/DepthDuration/v2_depth_duration_MTurk/v2_DepthDuration_HTML.html#106,106,1600,1200,1600,1200,8-30-2022,9-28-17,28,depth_duration_stimuli/001650_2014-06-20_12-09-00_260595134347_rgbf000087-resize_3/001650_2014-06-20_12-09-00_260595134347_rgbf000087-resize_3-target.png,125,1.9505,1,15546,132,feet,jsons/VE125_randls_28_rotated.json,1950979,3282868,45,Man
28,480362,DepthScenes,duration_manipulation_targetAtFixation,jsons/VE125_randls_28_rotated.json,http://54.235.29.9/FacialAge/BNav_EC2/DepthDuration/v2_depth_duration_MTurk/v2_DepthDuration_HTML.html#106,106,1600,1200,1600,1200,8-30-2022,9-28-17,29,depth_duration_stimuli/000682_2014-06-08_23-14-58_260595134347_rgbf000041-resize_5/000682_2014-06-08_23-14-58_260595134347_rgbf000041-resize_5-target.png,125,2.7239999999999998,3,13112,123,feet,jsons/VE125_randls_28_rotated.json,1950979,3282868,45,Man
29,480362,DepthScenes,duration_manipulation_targetAtFixation,jsons/VE125_randls_28_rotated.json,http://54.235.29.9/FacialAge/BNav_EC2/DepthDuration/v2_depth_duration_MTurk/v2_DepthDuration_HTML.html#106,106,1600,1200,1600,1200,8-30-2022,9-28-17,30,depth_duration_stimuli/002072_2014-06-24_21-48-06_260595134347_rgbf000115-resize_0/002072_2014-06-24_21-48-06_260595134347_rgbf000115-resize-original.jpg,125,4.702,0,12573,128,feet,jsons/VE125_randls_28_rotated.json,1950979,3282868,45,Man
30,480362,DepthScenes,duration_manipulation_targetAtFixation,jsons/VE125_randls_28_rotated.json,http://54.235.29.9/FacialAge/BNav_EC2/DepthDuration/v2_depth_duration_MTurk/v2_DepthDuration_HTML.html#106,106,1600,1200,1600,1200,8-30-2022,9-28-17,31,depth_duration_stimuli/000943_2014-06-09_19-31-07_260595134347_rgbf000128-resize_1/000943_2014-06-09_19-31-07_260595134347_rgbf000128-resize_1-target.png,125,1.9765,5,10509,120,feet,jsons/VE125_randls_28_rotated.json,1950979,3282868,45,Man
31,480362,DepthScenes,duration_manipulation_targetAtFixation,jsons/VE125_randls_28_rotated.json,http://54.235.29.9/FacialAge/BNav_EC2/DepthDuration/v2_depth_duration_MTurk/v2_DepthDuration_HTML.html#106,106,1600,1200,1600,1200,8-30-2022,9-28-17,32,depth_duration_stimuli/003070_2014-06-15_14-58-27_094959634447_rgbf000150-resize_3/003070_2014-06-15_14-58-27_094959634447_rgbf000150-resize_3-target.png,125,2.9415,4,6935,128,feet,jsons/VE125_randls_28_rotated.json,1950979,3282868,45,Man
32,480362,DepthScenes,duration_manipulation_targetAtFixation,jsons/VE125_randls_28_rotated.json,http://54.235.29.9/FacialAge/BNav_EC2/DepthDuration/v2_depth_duration_MTurk/v2_DepthDuration_HTML.html#106,106,1600,1200,1600,1200,8-30-2022,9-28-17,33,depth_duration_stimuli/000635_2014-06-08_16-38-42_260595134347_rgbf000106-resize_1/000635_2014-06-08_16-38-42_260595134347_rgbf000106-resize_1-target.png,125,2.074,3,20821,128,feet,jsons/VE125_randls_28_rotated.json,1950979,3282868,45,Man
33,480362,DepthScenes,duration_manipulation_targetAtFixation,jsons/VE125_randls_28_rotated.json,http://54.235.29.9/FacialAge/BNav_EC2/DepthDuration/v2_depth_duration_MTurk/v2_DepthDuration_HTML.html#106,106,1600,1200,1600,1200,8-30-2022,9-28-17,34,depth_duration_stimuli/002279_2014-06-28_18-55-32_260595134347_rgbf000040-resize_5/002279_2014-06-28_18-55-32_260595134347_rgbf000040-resize_5-target.png,125,1.5043333333333,1,13239,125,feet,jsons/VE125_randls_28_rotated.json,1950979,3282868,45,Man
34,480362,DepthScenes,duration_manipulation_targetAtFixation,jsons/VE125_randls_28_rotated.json,http://54.235.29.9/FacialAge/BNav_EC2/DepthDuration/v2_depth_duration_MTurk/v2_DepthDuration_HTML.html#106,106,1600,1200,1600,1200,8-30-2022,9-28-17,35,depth_duration_stimuli/002340_2014-06-28_20-05-46_260595134347_rgbf000113-resize_0/002340_2014-06-28_20-05-46_260595134347_rgbf000113-resize_0-target.png,125,2.4735,3,9325,173,feet,jsons/VE125_randls_28_rotated.json,1950979,3282868,45,Man
35,480362,DepthScenes,duration_manipulation_targetAtFixation,jsons/VE125_randls_28_rotated.json,http://54.235.29.9/FacialAge/BNav_EC2/DepthDuration/v2_depth_duration_MTurk/v2_DepthDuration_HTML.html#106,106,1600,1200,1600,1200,8-30-2022,9-28-17,36,depth_duration_stimuli/001016_2014-06-09_16-16-10_260595134347_rgbf000112-resize_5/001016_2014-06-09_16-16-10_260595134347_rgbf000112-resize_5-target.png,125,1.6565,2,8191,128,feet,jsons/VE125_randls_28_rotated.json,1950979,3282868,45,Man
36,480362,DepthScenes,duration_manipulation_targetAtFixation,jsons/VE125_randls_28_rotated.json,http://54.235.29.9/FacialAge/BNav_EC2/DepthDuration/v2_depth_duration_MTurk/v2_DepthDuration_HTML.html#106,106,1600,1200,1600,1200,8-30-2022,9-28-17,37,depth_duration_stimuli/003587_2014-05-23_16-48-02_094959634447_rgbf002384-resize_2/003587_2014-05-23_16-48-02_094959634447_rgbf002384-resize_2-target.png,125,1.357,1,17694,123,feet,jsons/VE125_randls_28_rotated.json,1950979,3282868,45,Man
37,480362,DepthScenes,duration_manipulation_targetAtFixation,jsons/VE125_randls_28_rotated.json,http://54.235.29.9/FacialAge/BNav_EC2/DepthDuration/v2_depth_duration_MTurk/v2_DepthDuration_HTML.html#106,106,1600,1200,1600,1200,8-30-2022,9-28-17,38,depth_duration_stimuli/001167_2014-06-17_15-38-07_260595134347_rgbf000108-resize_0/001167_2014-06-17_15-38-07_260595134347_rgbf000108-resize_0-target.png,125,1.8505,2,12514,124,feet,jsons/VE125_randls_28_rotated.json,1950979,3282868,45,Man
38,480362,DepthScenes,duration_manipulation_targetAtFixation,jsons/VE125_randls_28_rotated.json,http://54.235.29.9/FacialAge/BNav_EC2/DepthDuration/v2_depth_duration_MTurk/v2_DepthDuration_HTML.html#106,106,1600,1200,1600,1200,8-30-2022,9-28-17,39,depth_duration_stimuli/002657_2014-06-13_15-29-54_094959634447_rgbf000150-resize_1/002657_2014-06-13_15-29-54_094959634447_rgbf000150-resize_1-target.png,125,4.919,5,18736,133,feet,jsons/VE125_randls_28_rotated.json,1950979,3282868,45,Man
39,480362,DepthScenes,duration_manipulation_targetAtFixation,jsons/VE125_randls_28_rotated.json,http://54.235.29.9/FacialAge/BNav_EC2/DepthDuration/v2_depth_duration_MTurk/v2_DepthDuration_HTML.html#106,106,1600,1200,1600,1200,8-30-2022,9-28-17,40,depth_duration_stimuli/002375_2014-06-28_20-13-44_260595134347_rgbf000032-resize_1/002375_2014-06-28_20-13-44_260595134347_rgbf000032-resize_1-target.png,125,4.0175,3,17124,125,feet,jsons/VE125_randls_28_rotated.json,1950979,3282868,45,Man
40,480362,DepthScenes,duration_manipulation_targetAtFixation,jsons/VE125_randls_28_rotated.json,http://54.235.29.9/FacialAge/BNav_EC2/DepthDuration/v2_depth_duration_MTurk/v2_DepthDuration_HTML.html#106,106,1600,1200,1600,1200,8-30-2022,9-28-17,41,depth_duration_stimuli/000665_2014-06-09_20-42-35_260595134347_rgbf000110-resize_1/000665_2014-06-09_20-42-35_260595134347_rgbf000110-resize_1-target.png,125,3.057,4,18447,126,feet,jsons/VE125_randls_28_rotated.json,1950979,3282868,45,Man
41,480362,DepthScenes,duration_manipulation_targetAtFixation,jsons/VE125_randls_28_rotated.json,http://54.235.29.9/FacialAge/BNav_EC2/DepthDuration/v2_depth_duration_MTurk/v2_DepthDuration_HTML.html#106,106,1600,1200,1600,1200,8-30-2022,9-28-17,42,depth_duration_stimuli/001150_2014-06-17_15-27-34_260595134347_rgbf000108-resize_2/001150_2014-06-17_15-27-34_260595134347_rgbf000108-resize_2-target.png,125,4.0325,6,10039,123,feet,jsons/VE125_randls_28_rotated.json,1950979,3282868,45,Man
42,480362,DepthScenes,duration_manipulation_targetAtFixation,jsons/VE125_randls_28_rotated.json,http://54.235.29.9/FacialAge/BNav_EC2/DepthDuration/v2_depth_duration_MTurk/v2_DepthDuration_HTML.html#106,106,1600,1200,1600,1200,8-30-2022,9-28-17,43,depth_duration_stimuli/002199_2014-06-28_18-33-56_260595134347_rgbf000074-resize_0/002199_2014-06-28_18-33-56_260595134347_rgbf000074-resize_0-target.png,125,1.996,2,17394,124,feet,jsons/VE125_randls_28_rotated.json,1950979,3282868,45,Man
43,480362,DepthScenes,duration_manipulation_targetAtFixation,jsons/VE125_randls_28_rotated.json,http://54.235.29.9/FacialAge/BNav_EC2/DepthDuration/v2_depth_duration_MTurk/v2_DepthDuration_HTML.html#106,106,1600,1200,1600,1200,8-30-2022,9-28-17,44,depth_duration_stimuli/001056_2014-06-08_18-46-44_260595134347_rgbf000068-resize_0/001056_2014-06-08_18-46-44_260595134347_rgbf000068-resize_0-target.png,125,2.6625,3,18372,124,feet,jsons/VE125_randls_28_rotated.json,1950979,3282868,45,Man
44,480362,DepthScenes,duration_manipulation_targetAtFixation,jsons/VE125_randls_28_rotated.json,http://54.235.29.9/FacialAge/BNav_EC2/DepthDuration/v2_depth_duration_MTurk/v2_DepthDuration_HTML.html#106,106,1600,1200,1600,1200,8-30-2022,9-28-17,45,depth_duration_stimuli/002660_2014-06-13_15-44-18_094959634447_rgbf001878-resize_2/002660_2014-06-13_15-44-18_094959634447_rgbf001878-resize_2-target.png,125,3.576,3,16987,124,feet,jsons/VE125_randls_28_rotated.json,1950979,3282868,45,Man
45,480362,DepthScenes,duration_manipulation_targetAtFixation,jsons/VE125_randls_28_rotated.json,http://54.235.29.9/FacialAge/BNav_EC2/DepthDuration/v2_depth_duration_MTurk/v2_DepthDuration_HTML.html#106,106,1600,1200,1600,1200,8-30-2022,9-28-17,46,depth_duration_stimuli/002153_2014-06-25_21-27-18_260595134347_rgbf000038-resize_5/002153_2014-06-25_21-27-18_260595134347_rgbf000038-resize_5-target.png,125,2.505,3,9498,114,feet,jsons/VE125_randls_28_rotated.json,1950979,3282868,45,Man
46,480362,DepthScenes,duration_manipulation_targetAtFixation,jsons/VE125_randls_28_rotated.json,http://54.235.29.9/FacialAge/BNav_EC2/DepthDuration/v2_depth_duration_MTurk/v2_DepthDuration_HTML.html#106,106,1600,1200,1600,1200,8-30-2022,9-28-17,47,depth_duration_stimuli/002323_2014-06-28_20-01-54_260595134347_rgbf000051-resize_4/002323_2014-06-28_20-01-54_260595134347_rgbf000051-resize_4-target.png,125,3.7310000000000003,5,5587,125,feet,jsons/VE125_randls_28_rotated.json,1950979,3282868,45,Man
47,480362,DepthScenes,duration_manipulation_targetAtFixation,jsons/VE125_randls_28_rotated.json,http://54.235.29.9/FacialAge/BNav_EC2/DepthDuration/v2_depth_duration_MTurk/v2_DepthDuration_HTML.html#106,106,1600,1200,1600,1200,8-30-2022,9-28-17,48,depth_duration_stimuli/000917_2014-06-09_22-45-29_260595134347_rgbf000149-resize_3/000917_2014-06-09_22-45-29_260595134347_rgbf000149-resize_3-target.png,125,4.1865,6,4948,127,feet,jsons/VE125_randls_28_rotated.json,1950979,3282868,45,Man
48,480362,DepthScenes,duration_manipulation_targetAtFixation,jsons/VE125_randls_28_rotated.json,http://54.235.29.9/FacialAge/BNav_EC2/DepthDuration/v2_depth_duration_MTurk/v2_DepthDuration_HTML.html#106,106,1600,1200,1600,1200,8-30-2022,9-28-17,49,depth_duration_stimuli/001170_2014-06-17_15-43-44_260595134347_rgbf000096-resize_6/001170_2014-06-17_15-43-44_260595134347_rgbf000096-resize-original.jpg,125,1.1909999999999998,0,11874,121,feet,jsons/VE125_randls_28_rotated.json,1950979,3282868,45,Man
49,480362,DepthScenes,duration_manipulation_targetAtFixation,jsons/VE125_randls_28_rotated.json,http://54.235.29.9/FacialAge/BNav_EC2/DepthDuration/v2_depth_duration_MTurk/v2_DepthDuration_HTML.html#106,106,1600,1200,1600,1200,8-30-2022,9-28-17,50,depth_duration_stimuli/003081_2014-06-15_15-19-16_094959634447_rgbf000150-resize_1/003081_2014-06-15_15-19-16_094959634447_rgbf000150-resize_1-target.png,125,3.9125,5,8699,125,feet,jsons/VE125_randls_28_rotated.json,1950979,3282868,45,Man
50,480362,DepthScenes,duration_manipulation_targetAtFixation,jsons/VE125_randls_28_rotated.json,http://54.235.29.9/FacialAge/BNav_EC2/DepthDuration/v2_depth_duration_MTurk/v2_DepthDuration_HTML.html#106,106,1600,1200,1600,1200,8-30-2022,9-28-17,51,depth_duration_stimuli/001417_2014-06-19_16-25-36_260595134347_rgbf000115-resize_5/001417_2014-06-19_16-25-36_260595134347_rgbf000115-resize_5-target.png,125,4.6255,5,6407,167,feet,jsons/VE125_randls_28_rotated.json,1950979,3282868,45,Man
51,480362,DepthScenes,duration_manipulation_targetAtFixation,jsons/VE125_randls_28_rotated.json,http://54.235.29.9/FacialAge/BNav_EC2/DepthDuration/v2_depth_duration_MTurk/v2_DepthDuration_HTML.html#106,106,1600,1200,1600,1200,8-30-2022,9-28-17,52,depth_duration_stimuli/000927_2014-06-09_16-32-30_260595134347_rgbf000123-resize_3/000927_2014-06-09_16-32-30_260595134347_rgbf000123-resize_3-target.png,125,2.6785,4,9112,124,feet,jsons/VE125_randls_28_rotated.json,1950979,3282868,45,Man
52,480362,DepthScenes,duration_manipulation_targetAtFixation,jsons/VE125_randls_28_rotated.json,http://54.235.29.9/FacialAge/BNav_EC2/DepthDuration/v2_depth_duration_MTurk/v2_DepthDuration_HTML.html#106,106,1600,1200,1600,1200,8-30-2022,9-28-17,53,depth_duration_stimuli/001110_2014-06-15_17-25-28_260595134347_rgbf000150-resize_1/001110_2014-06-15_17-25-28_260595134347_rgbf000150-resize_1-target.png,125,1.7115,2,10754,128,feet,jsons/VE125_randls_28_rotated.json,1950979,3282868,45,Man
53,480362,DepthScenes,duration_manipulation_targetAtFixation,jsons/VE125_randls_28_rotated.json,http://54.235.29.9/FacialAge/BNav_EC2/DepthDuration/v2_depth_duration_MTurk/v2_DepthDuration_HTML.html#106,106,1600,1200,1600,1200,8-30-2022,9-28-17,54,depth_duration_stimuli/001136_2014-06-17_15-19-41_260595134347_rgbf000076-resize_3/001136_2014-06-17_15-19-41_260595134347_rgbf000076-resize_3-target.png,125,1.8655,2,11813,126,feet,jsons/VE125_randls_28_rotated.json,1950979,3282868,45,Man
54,480362,DepthScenes,duration_manipulation_targetAtFixation,jsons/VE125_randls_28_rotated.json,http://54.235.29.9/FacialAge/BNav_EC2/DepthDuration/v2_depth_duration_MTurk/v2_DepthDuration_HTML.html#106,106,1600,1200,1600,1200,8-30-2022,9-28-17,55,depth_duration_stimuli/001164_2014-06-17_15-35-46_260595134347_rgbf000085-resize_3/001164_2014-06-17_15-35-46_260595134347_rgbf000085-resize_3-target.png,125,2.354,2,11155,126,feet,jsons/VE125_randls_28_rotated.json,1950979,3282868,45,Man
55,480362,DepthScenes,duration_manipulation_targetAtFixation,jsons/VE125_randls_28_rotated.json,http://54.235.29.9/FacialAge/BNav_EC2/DepthDuration/v2_depth_duration_MTurk/v2_DepthDuration_HTML.html#106,106,1600,1200,1600,1200,8-30-2022,9-28-17,56,depth_duration_stimuli/001132_2014-06-17_14-48-54_260595134347_rgbf000100-resize_2/001132_2014-06-17_14-48-54_260595134347_rgbf000100-resize_2-target.png,125,3.753,4,12201,117,feet,jsons/VE125_randls_28_rotated.json,1950979,3282868,45,Man
56,480362,DepthScenes,duration_manipulation_targetAtFixation,jsons/VE125_randls_28_rotated.json,http://54.235.29.9/FacialAge/BNav_EC2/DepthDuration/v2_depth_duration_MTurk/v2_DepthDuration_HTML.html#106,106,1600,1200,1600,1200,8-30-2022,9-28-17,57,depth_duration_stimuli/001133_2014-06-17_14-49-16_260595134347_rgbf000100-resize_0/001133_2014-06-17_14-49-16_260595134347_rgbf000100-resize_0-target.png,125,4.2115,3,14312,125,feet,jsons/VE125_randls_28_rotated.json,1950979,3282868,45,Man
57,480362,DepthScenes,duration_manipulation_targetAtFixation,jsons/VE125_randls_28_rotated.json,http://54.235.29.9/FacialAge/BNav_EC2/DepthDuration/v2_depth_duration_MTurk/v2_DepthDuration_HTML.html#106,106,1600,1200,1600,1200,8-30-2022,9-28-17,58,depth_duration_stimuli/002425_2014-06-28_20-27-29_260595134347_rgbf000031-resize_8/002425_2014-06-28_20-27-29_260595134347_rgbf000031-resize_8-target.png,125,3.8960000000000004,6,11984,127,feet,jsons/VE125_randls_28_rotated.json,1950979,3282868,45,Man
58,480362,DepthScenes,duration_manipulation_targetAtFixation,jsons/VE125_randls_28_rotated.json,http://54.235.29.9/FacialAge/BNav_EC2/DepthDuration/v2_depth_duration_MTurk/v2_DepthDuration_HTML.html#106,106,1600,1200,1600,1200,8-30-2022,9-28-17,59,depth_duration_stimuli/000642_2014-06-08_16-59-25_260595134347_rgbf000098-resize_2/000642_2014-06-08_16-59-25_260595134347_rgbf000098-resize_2-target.png,125,2.8815,3,5976,125,feet,jsons/VE125_randls_28_rotated.json,1950979,3282868,45,Man
59,480362,DepthScenes,duration_manipulation_targetAtFixation,jsons/VE125_randls_28_rotated.json,http://54.235.29.9/FacialAge/BNav_EC2/DepthDuration/v2_depth_duration_MTurk/v2_DepthDuration_HTML.html#106,106,1600,1200,1600,1200,8-30-2022,9-28-17,60,depth_duration_stimuli/000780_2014-06-08_22-28-29_260595134347_rgbf000126-resize_1/000780_2014-06-08_22-28-29_260595134347_rgbf000126-resize_1-target.png,125,3.3825,5,7056,130,feet,jsons/VE125_randls_28_rotated.json,1950979,3282868,45,Man
60,480362,DepthScenes,duration_manipulation_targetAtFixation,jsons/VE125_randls_28_rotated.json,http://54.235.29.9/FacialAge/BNav_EC2/DepthDuration/v2_depth_duration_MTurk/v2_DepthDuration_HTML.html#106,106,1600,1200,1600,1200,8-30-2022,9-28-17,61,depth_duration_stimuli/002445_2014-06-28_20-32-16_260595134347_rgbf000029-resize_4/002445_2014-06-28_20-32-16_260595134347_rgbf000029-resize_4-target.png,125,2.5315,2,13864,124,feet,jsons/VE125_randls_28_rotated.json,1950979,3282868,45,Man
61,480362,DepthScenes,duration_manipulation_targetAtFixation,jsons/VE125_randls_28_rotated.json,http://54.235.29.9/FacialAge/BNav_EC2/DepthDuration/v2_depth_duration_MTurk/v2_DepthDuration_HTML.html#106,106,1600,1200,1600,1200,8-30-2022,9-28-17,62,depth_duration_stimuli/002758_2014-06-22_19-11-20_094959634447_rgbf000128-resize_1/002758_2014-06-22_19-11-20_094959634447_rgbf000128-resize_1-target.png,125,2.555,3,16653,158,feet,jsons/VE125_randls_28_rotated.json,1950979,3282868,45,Man
62,480362,DepthScenes,duration_manipulation_targetAtFixation,jsons/VE125_randls_28_rotated.json,http://54.235.29.9/FacialAge/BNav_EC2/DepthDuration/v2_depth_duration_MTurk/v2_DepthDuration_HTML.html#106,106,1600,1200,1600,1200,8-30-2022,9-28-17,63,depth_duration_stimuli/002630_2014-06-24_14-47-50_094959634447_rgbf000055-resize_1/002630_2014-06-24_14-47-50_094959634447_rgbf000055-resize_1-target.png,125,3.0095,6,10631,125,feet,jsons/VE125_randls_28_rotated.json,1950979,3282868,45,Man
63,480362,DepthScenes,duration_manipulation_targetAtFixation,jsons/VE125_randls_28_rotated.json,http://54.235.29.9/FacialAge/BNav_EC2/DepthDuration/v2_depth_duration_MTurk/v2_DepthDuration_HTML.html#106,106,1600,1200,1600,1200,8-30-2022,9-28-17,64,depth_duration_stimuli/002953_2014-06-08_17-32-18_094959634447_rgbf000059-resize_5/002953_2014-06-08_17-32-18_094959634447_rgbf000059-resize_5-target.png,125,1.551,1,9044,122,feet,jsons/VE125_randls_28_rotated.json,1950979,3282868,45,Man
64,480362,DepthScenes,duration_manipulation_targetAtFixation,jsons/VE125_randls_28_rotated.json,http://54.235.29.9/FacialAge/BNav_EC2/DepthDuration/v2_depth_duration_MTurk/v2_DepthDuration_HTML.html#106,106,1600,1200,1600,1200,8-30-2022,9-28-17,65,depth_duration_stimuli/000878_2014-06-08_22-52-45_260595134347_rgbf000045-resize_2/000878_2014-06-08_22-52-45_260595134347_rgbf000045-resize_2-target.png,125,2.092,3,9855,123,feet,jsons/VE125_randls_28_rotated.json,1950979,3282868,45,Man
65,480362,DepthScenes,duration_manipulation_targetAtFixation,jsons/VE125_randls_28_rotated.json,http://54.235.29.9/FacialAge/BNav_EC2/DepthDuration/v2_depth_duration_MTurk/v2_DepthDuration_HTML.html#106,106,1600,1200,1600,1200,8-30-2022,9-28-17,66,depth_duration_stimuli/001540_2014-06-20_17-01-05_260595134347_rgbf000086-resize_2/001540_2014-06-20_17-01-05_260595134347_rgbf000086-resize-original.jpg,125,1.459,0,13077,125,feet,jsons/VE125_randls_28_rotated.json,1950979,3282868,45,Man
66,480362,DepthScenes,duration_manipulation_targetAtFixation,jsons/VE125_randls_28_rotated.json,http://54.235.29.9/FacialAge/BNav_EC2/DepthDuration/v2_depth_duration_MTurk/v2_DepthDuration_HTML.html#106,106,1600,1200,1600,1200,8-30-2022,9-28-17,67,depth_duration_stimuli/002344_2014-06-28_20-06-29_260595134347_rgbf000030-resize_1/002344_2014-06-28_20-06-29_260595134347_rgbf000030-resize_1-target.png,125,1.5795,1,13367,64,feet,jsons/VE125_randls_28_rotated.json,1950979,3282868,45,Man
67,480362,DepthScenes,duration_manipulation_targetAtFixation,jsons/VE125_randls_28_rotated.json,http://54.235.29.9/FacialAge/BNav_EC2/DepthDuration/v2_depth_duration_MTurk/v2_DepthDuration_HTML.html#106,106,1600,1200,1600,1200,8-30-2022,9-28-17,68,depth_duration_stimuli/002725_2014-06-22_11-47-51_094959634447_rgbf000070-resize_1/002725_2014-06-22_11-47-51_094959634447_rgbf000070-resize_1-target.png,125,2.195,3,11333,125,feet,jsons/VE125_randls_28_rotated.json,1950979,3282868,45,Man
68,480362,DepthScenes,duration_manipulation_targetAtFixation,jsons/VE125_randls_28_rotated.json,http://54.235.29.9/FacialAge/BNav_EC2/DepthDuration/v2_depth_duration_MTurk/v2_DepthDuration_HTML.html#106,106,1600,1200,1600,1200,8-30-2022,9-28-17,69,depth_duration_stimuli/000549_2014-06-08_22-10-24_260595134347_rgbf000247-resize_3/000549_2014-06-08_22-10-24_260595134347_rgbf000247-resize_3-target.png,125,1.841,1,11384,125,feet,jsons/VE125_randls_28_rotated.json,1950979,3282868,45,Man
69,480362,DepthScenes,duration_manipulation_targetAtFixation,jsons/VE125_randls_28_rotated.json,http://54.235.29.9/FacialAge/BNav_EC2/DepthDuration/v2_depth_duration_MTurk/v2_DepthDuration_HTML.html#106,106,1600,1200,1600,1200,8-30-2022,9-28-17,70,depth_duration_stimuli/001055_2014-06-08_18-45-35_260595134347_rgbf000111-resize_4/001055_2014-06-08_18-45-35_260595134347_rgbf000111-resize_4-target.png,125,2.4290000000000003,4,8891,122,feet,jsons/VE125_randls_28_rotated.json,1950979,3282868,45,Man
70,480362,DepthScenes,duration_manipulation_targetAtFixation,jsons/VE125_randls_28_rotated.json,http://54.235.29.9/FacialAge/BNav_EC2/DepthDuration/v2_depth_duration_MTurk/v2_DepthDuration_HTML.html#106,106,1600,1200,1600,1200,8-30-2022,9-28-17,71,depth_duration_stimuli/001516_2014-06-20_16-25-09_260595134347_rgbf000076-resize_2/001516_2014-06-20_16-25-09_260595134347_rgbf000076-resize_2-target.png,125,1.7445,3,8869,126,feet,jsons/VE125_randls_28_rotated.json,1950979,3282868,45,Man
71,480362,DepthScenes,duration_manipulation_targetAtFixation,jsons/VE125_randls_28_rotated.json,http://54.235.29.9/FacialAge/BNav_EC2/DepthDuration/v2_depth_duration_MTurk/v2_DepthDuration_HTML.html#106,106,1600,1200,1600,1200,8-30-2022,9-28-17,72,depth_duration_stimuli/002118_2014-06-25_20-32-08_260595134347_rgbf000078-resize_1/002118_2014-06-25_20-32-08_260595134347_rgbf000078-resize_1-target.png,125,2.6460000000000004,4,13456,150,feet,jsons/VE125_randls_28_rotated.json,1950979,3282868,45,Man
72,480362,DepthScenes,duration_manipulation_targetAtFixation,jsons/VE125_randls_28_rotated.json,http://54.235.29.9/FacialAge/BNav_EC2/DepthDuration/v2_depth_duration_MTurk/v2_DepthDuration_HTML.html#106,106,1600,1200,1600,1200,8-30-2022,9-28-17,73,depth_duration_stimuli/001828_2014-06-26_21-40-03_260595134347_rgbf000024-resize_0/001828_2014-06-26_21-40-03_260595134347_rgbf000024-resize_0-target.png,125,4.8260000000000005,6,11701,126,feet,jsons/VE125_randls_28_rotated.json,1950979,3282868,45,Man
73,480362,DepthScenes,duration_manipulation_targetAtFixation,jsons/VE125_randls_28_rotated.json,http://54.235.29.9/FacialAge/BNav_EC2/DepthDuration/v2_depth_duration_MTurk/v2_DepthDuration_HTML.html#106,106,1600,1200,1600,1200,8-30-2022,9-28-17,74,depth_duration_stimuli/000009_2014-05-26_14-32-05_260595134347_rgbf000034-resize_3/000009_2014-05-26_14-32-05_260595134347_rgbf000034-resize_3-target.png,125,3.8715,6,8754,98,feet,jsons/VE125_randls_28_rotated.json,1950979,3282868,45,Man
74,480362,DepthScenes,duration_manipulation_targetAtFixation,jsons/VE125_randls_28_rotated.json,http://54.235.29.9/FacialAge/BNav_EC2/DepthDuration/v2_depth_duration_MTurk/v2_DepthDuration_HTML.html#106,106,1600,1200,1600,1200,8-30-2022,9-28-17,75,depth_duration_stimuli/000109_2014-05-14_23-41-52_260595134347_rgbf000035-resize_9/000109_2014-05-14_23-41-52_260595134347_rgbf000035-resize_9-target.png,125,1.3545,2,7920,144,feet,jsons/VE125_randls_28_rotated.json,1950979,3282868,45,Man
75,480362,DepthScenes,duration_manipulation_targetAtFixation,jsons/VE125_randls_28_rotated.json,http://54.235.29.9/FacialAge/BNav_EC2/DepthDuration/v2_depth_duration_MTurk/v2_DepthDuration_HTML.html#106,106,1600,1200,1600,1200,8-30-2022,9-28-17,76,depth_duration_stimuli/000470_2014-06-09_19-42-40_260595134347_rgbf000094-resize_1/000470_2014-06-09_19-42-40_260595134347_rgbf000094-resize_1-target.png,125,1.831,2,8391,127,feet,jsons/VE125_randls_28_rotated.json,1950979,3282868,45,Man
76,480362,DepthScenes,duration_manipulation_targetAtFixation,jsons/VE125_randls_28_rotated.json,http://54.235.29.9/FacialAge/BNav_EC2/DepthDuration/v2_depth_duration_MTurk/v2_DepthDuration_HTML.html#106,106,1600,1200,1600,1200,8-30-2022,9-28-17,77,depth_duration_stimuli/001815_2014-06-26_20-52-55_260595134347_rgbf000020-resize_0/001815_2014-06-26_20-52-55_260595134347_rgbf000020-resize_0-target.png,125,3.3865,6,11363,125,feet,jsons/VE125_randls_28_rotated.json,1950979,3282868,45,Man
77,480362,DepthScenes,duration_manipulation_targetAtFixation,jsons/VE125_randls_28_rotated.json,http://54.235.29.9/FacialAge/BNav_EC2/DepthDuration/v2_depth_duration_MTurk/v2_DepthDuration_HTML.html#106,106,1600,1200,1600,1200,8-30-2022,9-28-17,78,depth_duration_stimuli/001808_2014-06-26_20-50-58_260595134347_rgbf000029-resize_1/001808_2014-06-26_20-50-58_260595134347_rgbf000029-resize_1-target.png,125,4.249,6,7565,128,feet,jsons/VE125_randls_28_rotated.json,1950979,3282868,45,Man
78,480362,DepthScenes,duration_manipulation_targetAtFixation,jsons/VE125_randls_28_rotated.json,http://54.235.29.9/FacialAge/BNav_EC2/DepthDuration/v2_depth_duration_MTurk/v2_DepthDuration_HTML.html#106,106,1600,1200,1600,1200,8-30-2022,9-28-17,79,depth_duration_stimuli/000502_2014-06-08_23-02-32_260595134347_rgbf000063-resize_4/000502_2014-06-08_23-02-32_260595134347_rgbf000063-resize_4-target.png,125,2.431,3,10393,122,feet,jsons/VE125_randls_28_rotated.json,1950979,3282868,45,Man
79,480362,DepthScenes,duration_manipulation_targetAtFixation,jsons/VE125_randls_28_rotated.json,http://54.235.29.9/FacialAge/BNav_EC2/DepthDuration/v2_depth_duration_MTurk/v2_DepthDuration_HTML.html#106,106,1600,1200,1600,1200,8-30-2022,9-28-17,80,depth_duration_stimuli/001199_2014-06-17_16-03-48_260595134347_rgbf000077-resize_0/001199_2014-06-17_16-03-48_260595134347_rgbf000077-resize_0-target.png,125,3.4375,5,11183,124,feet,jsons/VE125_randls_28_rotated.json,1950979,3282868,45,Man
80,480362,DepthScenes,duration_manipulation_targetAtFixation,jsons/VE125_randls_28_rotated.json,http://54.235.29.9/FacialAge/BNav_EC2/DepthDuration/v2_depth_duration_MTurk/v2_DepthDuration_HTML.html#106,106,1600,1200,1600,1200,8-30-2022,9-28-17,81,depth_duration_stimuli/003048_2014-06-15_13-49-43_094959634447_rgbf000150-resize_1/003048_2014-06-15_13-49-43_094959634447_rgbf000150-resize_1-target.png,125,4.0035,5,5495,134,feet,jsons/VE125_randls_28_rotated.json,1950979,3282868,45,Man
81,480362,DepthScenes,duration_manipulation_targetAtFixation,jsons/VE125_randls_28_rotated.json,http://54.235.29.9/FacialAge/BNav_EC2/DepthDuration/v2_depth_duration_MTurk/v2_DepthDuration_HTML.html#106,106,1600,1200,1600,1200,8-30-2022,9-28-17,82,depth_duration_stimuli/002043_2014-06-24_20-29-38_260595134347_rgbf000039-resize_4/002043_2014-06-24_20-29-38_260595134347_rgbf000039-resize_4-target.png,125,2.8435,4,7105,124,feet,jsons/VE125_randls_28_rotated.json,1950979,3282868,45,Man
82,480362,DepthScenes,duration_manipulation_targetAtFixation,jsons/VE125_randls_28_rotated.json,http://54.235.29.9/FacialAge/BNav_EC2/DepthDuration/v2_depth_duration_MTurk/v2_DepthDuration_HTML.html#106,106,1600,1200,1600,1200,8-30-2022,9-28-17,83,depth_duration_stimuli/000691_2014-06-08_13-08-50_260595134347_rgbf000132-resize_3/000691_2014-06-08_13-08-50_260595134347_rgbf000132-resize_3-target.png,125,4.1530000000000005,5,12613,117,feet,jsons/VE125_randls_28_rotated.json,1950979,3282868,45,Man
83,480362,DepthScenes,duration_manipulation_targetAtFixation,jsons/VE125_randls_28_rotated.json,http://54.235.29.9/FacialAge/BNav_EC2/DepthDuration/v2_depth_duration_MTurk/v2_DepthDuration_HTML.html#106,106,1600,1200,1600,1200,8-30-2022,9-28-17,84,depth_duration_stimuli/002213_2014-06-28_18-37-58_260595134347_rgbf000055-resize_1/002213_2014-06-28_18-37-58_260595134347_rgbf000055-resize_1-target.png,125,3.62,6,14905,128,feet,jsons/VE125_randls_28_rotated.json,1950979,3282868,45,Man
84,480362,DepthScenes,duration_manipulation_targetAtFixation,jsons/VE125_randls_28_rotated.json,http://54.235.29.9/FacialAge/BNav_EC2/DepthDuration/v2_depth_duration_MTurk/v2_DepthDuration_HTML.html#106,106,1600,1200,1600,1200,8-30-2022,9-28-17,85,depth_duration_stimuli/001235_2014-06-17_16-37-36_260595134347_rgbf000084-resize_4/001235_2014-06-17_16-37-36_260595134347_rgbf000084-resize_4-target.png,125,3.6605,5,17083,126,feet,jsons/VE125_randls_28_rotated.json,1950979,3282868,45,Man
85,480362,DepthScenes,duration_manipulation_targetAtFixation,jsons/VE125_randls_28_rotated.json,http://54.235.29.9/FacialAge/BNav_EC2/DepthDuration/v2_depth_duration_MTurk/v2_DepthDuration_HTML.html#106,106,1600,1200,1600,1200,8-30-2022,9-28-17,86,depth_duration_stimuli/000788_2014-06-08_22-34-36_260595134347_rgbf000131-resize_1/000788_2014-06-08_22-34-36_260595134347_rgbf000131-resize_1-target.png,125,3.359,4,18652,127,feet,jsons/VE125_randls_28_rotated.json,1950979,3282868,45,Man
86,480362,DepthScenes,duration_manipulation_targetAtFixation,jsons/VE125_randls_28_rotated.json,http://54.235.29.9/FacialAge/BNav_EC2/DepthDuration/v2_depth_duration_MTurk/v2_DepthDuration_HTML.html#106,106,1600,1200,1600,1200,8-30-2022,9-28-17,87,depth_duration_stimuli/002875_2014-06-01_15-19-00_094959634447_rgbf000151-resize_1/002875_2014-06-01_15-19-00_094959634447_rgbf000151-resize_1-target.png,125,1.9675,3,12114,124,feet,jsons/VE125_randls_28_rotated.json,1950979,3282868,45,Man
87,480362,DepthScenes,duration_manipulation_targetAtFixation,jsons/VE125_randls_28_rotated.json,http://54.235.29.9/FacialAge/BNav_EC2/DepthDuration/v2_depth_duration_MTurk/v2_DepthDuration_HTML.html#106,106,1600,1200,1600,1200,8-30-2022,9-28-17,88,depth_duration_stimuli/001011_2014-06-08_23-18-54_260595134347_rgbf000044-resize_4/001011_2014-06-08_23-18-54_260595134347_rgbf000044-resize_4-target.png,125,2.4730000000000003,3,8803,125,feet,jsons/VE125_randls_28_rotated.json,1950979,3282868,45,Man
88,480362,DepthScenes,duration_manipulation_targetAtFixation,jsons/VE125_randls_28_rotated.json,http://54.235.29.9/FacialAge/BNav_EC2/DepthDuration/v2_depth_duration_MTurk/v2_DepthDuration_HTML.html#106,106,1600,1200,1600,1200,8-30-2022,9-28-17,89,depth_duration_stimuli/002637_2014-06-24_14-51-13_094959634447_rgbf000066-resize_4/002637_2014-06-24_14-51-13_094959634447_rgbf000066-resize_4-target.png,125,1.9955,4,19492,130,feet,jsons/VE125_randls_28_rotated.json,1950979,3282868,45,Man
89,480362,DepthScenes,duration_manipulation_targetAtFixation,jsons/VE125_randls_28_rotated.json,http://54.235.29.9/FacialAge/BNav_EC2/DepthDuration/v2_depth_duration_MTurk/v2_DepthDuration_HTML.html#106,106,1600,1200,1600,1200,8-30-2022,9-28-17,90,depth_duration_stimuli/003534_2014-05-22_15-06-10_094959634447_rgbf000102-resize_4/003534_2014-05-22_15-06-10_094959634447_rgbf000102-resize_4-target.png,125,1.426,1,7119,125,feet,jsons/VE125_randls_28_rotated.json,1950979,3282868,45,Man
90,480362,DepthScenes,duration_manipulation_targetAtFixation,jsons/VE125_randls_28_rotated.json,http://54.235.29.9/FacialAge/BNav_EC2/DepthDuration/v2_depth_duration_MTurk/v2_DepthDuration_HTML.html#106,106,1600,1200,1600,1200,8-30-2022,9-28-17,91,depth_duration_stimuli/002805_2014-06-22_19-54-03_094959634447_rgbf000079-resize_1/002805_2014-06-22_19-54-03_094959634447_rgbf000079-resize_1-target.png,125,3.1439999999999997,6,8471,126,feet,jsons/VE125_randls_28_rotated.json,1950979,3282868,45,Man
91,480362,DepthScenes,duration_manipulation_targetAtFixation,jsons/VE125_randls_28_rotated.json,http://54.235.29.9/FacialAge/BNav_EC2/DepthDuration/v2_depth_duration_MTurk/v2_DepthDuration_HTML.html#106,106,1600,1200,1600,1200,8-30-2022,9-28-17,92,depth_duration_stimuli/000906_2014-06-08_13-35-43_260595134347_rgbf000155-resize_1/000906_2014-06-08_13-35-43_260595134347_rgbf000155-resize_1-target.png,125,2.8489999999999998,5,9661,153,feet,jsons/VE125_randls_28_rotated.json,1950979,3282868,45,Man
92,480362,DepthScenes,duration_manipulation_targetAtFixation,jsons/VE125_randls_28_rotated.json,http://54.235.29.9/FacialAge/BNav_EC2/DepthDuration/v2_depth_duration_MTurk/v2_DepthDuration_HTML.html#106,106,1600,1200,1600,1200,8-30-2022,9-28-17,93,depth_duration_stimuli/000103_2014-05-14_22-01-17_260595134347_rgbf000152-resize_5/000103_2014-05-14_22-01-17_260595134347_rgbf000152-resize_5-target.png,125,1.993,3,11774,125,feet,jsons/VE125_randls_28_rotated.json,1950979,3282868,45,Man
93,480362,DepthScenes,duration_manipulation_targetAtFixation,jsons/VE125_randls_28_rotated.json,http://54.235.29.9/FacialAge/BNav_EC2/DepthDuration/v2_depth_duration_MTurk/v2_DepthDuration_HTML.html#106,106,1600,1200,1600,1200,8-30-2022,9-28-17,94,depth_duration_stimuli/001555_2014-06-20_17-12-10_260595134347_rgbf000065-resize_4/001555_2014-06-20_17-12-10_260595134347_rgbf000065-resize_4-target.png,125,1.633,2,8210,127,feet,jsons/VE125_randls_28_rotated.json,1950979,3282868,45,Man
94,480362,DepthScenes,duration_manipulation_targetAtFixation,jsons/VE125_randls_28_rotated.json,http://54.235.29.9/FacialAge/BNav_EC2/DepthDuration/v2_depth_duration_MTurk/v2_DepthDuration_HTML.html#106,106,1600,1200,1600,1200,8-30-2022,9-28-17,95,depth_duration_stimuli/002678_2014-06-13_16-15-32_094959634447_rgbf000151-resize_6/002678_2014-06-13_16-15-32_094959634447_rgbf000151-resize_6-target.png,125,2.1830000000000003,3,10035,145,feet,jsons/VE125_randls_28_rotated.json,1950979,3282868,45,Man
95,480362,DepthScenes,duration_manipulation_targetAtFixation,jsons/VE125_randls_28_rotated.json,http://54.235.29.9/FacialAge/BNav_EC2/DepthDuration/v2_depth_duration_MTurk/v2_DepthDuration_HTML.html#106,106,1600,1200,1600,1200,8-30-2022,9-28-17,96,depth_duration_stimuli/000368_2014-06-09_15-53-01_260595134347_rgbf000155-resize_2/000368_2014-06-09_15-53-01_260595134347_rgbf000155-resize_2-target.png,125,2.4859999999999998,2,10525,111,feet,jsons/VE125_randls_28_rotated.json,1950979,3282868,45,Man
96,480362,DepthScenes,duration_manipulation_targetAtFixation,jsons/VE125_randls_28_rotated.json,http://54.235.29.9/FacialAge/BNav_EC2/DepthDuration/v2_depth_duration_MTurk/v2_DepthDuration_HTML.html#106,106,1600,1200,1600,1200,8-30-2022,9-28-17,97,depth_duration_stimuli/002568_2014-06-24_13-59-21_094959634447_rgbf000062-resize_4/002568_2014-06-24_13-59-21_094959634447_rgbf000062-resize_4-target.png,125,3.015,3,9167,124,feet,jsons/VE125_randls_28_rotated.json,1950979,3282868,45,Man
97,480362,DepthScenes,duration_manipulation_targetAtFixation,jsons/VE125_randls_28_rotated.json,http://54.235.29.9/FacialAge/BNav_EC2/DepthDuration/v2_depth_duration_MTurk/v2_DepthDuration_HTML.html#106,106,1600,1200,1600,1200,8-30-2022,9-28-17,98,depth_duration_stimuli/003492_2014-05-21_15-50-55_094959634447_rgbf000828-resize_1/003492_2014-05-21_15-50-55_094959634447_rgbf000828-resize_1-target.png,125,4.06875,6,9184,121,feet,jsons/VE125_randls_28_rotated.json,1950979,3282868,45,Man
98,480362,DepthScenes,duration_manipulation_targetAtFixation,jsons/VE125_randls_28_rotated.json,http://54.235.29.9/FacialAge/BNav_EC2/DepthDuration/v2_depth_duration_MTurk/v2_DepthDuration_HTML.html#106,106,1600,1200,1600,1200,8-30-2022,9-28-17,99,depth_duration_stimuli/001222_2014-06-17_16-24-06_260595134347_rgbf000073-resize_0/001222_2014-06-17_16-24-06_260595134347_rgbf000073-resize-original.jpg,125,1.4385,0,12443,125,feet,jsons/VE125_randls_28_rotated.json,1950979,3282868,45,Man
99,480362,DepthScenes,duration_manipulation_targetAtFixation,jsons/VE125_randls_28_rotated.json,http://54.235.29.9/FacialAge/BNav_EC2/DepthDuration/v2_depth_duration_MTurk/v2_DepthDuration_HTML.html#106,106,1600,1200,1600,1200,8-30-2022,9-28-17,100,depth_duration_stimuli/000457_2014-06-08_16-52-43_260595134347_rgbf000199-resize_1/000457_2014-06-08_16-52-43_260595134347_rgbf000199-resize_1-target.png,125,3.6489999999999996,3,11995,204,feet,jsons/VE125_randls_28_rotated.json,1950979,3282868,45,Man
100,480362,DepthScenes,duration_manipulation_targetAtFixation,jsons/VE125_randls_28_rotated.json,http://54.235.29.9/FacialAge/BNav_EC2/DepthDuration/v2_depth_duration_MTurk/v2_DepthDuration_HTML.html#106,106,1600,1200,1600,1200,8-30-2022,9-28-17,101,depth_duration_stimuli/000929_2014-06-09_16-33-19_260595134347_rgbf000139-resize_0/000929_2014-06-09_16-33-19_260595134347_rgbf000139-resize_0-target.png,125,2.8680000000000003,2,6328,129,feet,jsons/VE125_randls_28_rotated.json,1950979,3282868,45,Man
101,480362,DepthScenes,duration_manipulation_targetAtFixation,jsons/VE125_randls_28_rotated.json,http://54.235.29.9/FacialAge/BNav_EC2/DepthDuration/v2_depth_duration_MTurk/v2_DepthDuration_HTML.html#106,106,1600,1200,1600,1200,8-30-2022,9-28-17,102,depth_duration_stimuli/001100_2014-06-15_17-46-26_260595134347_rgbf000225-resize_2/001100_2014-06-15_17-46-26_260595134347_rgbf000225-resize_2-target.png,125,2.24,2,10457,125,feet,jsons/VE125_randls_28_rotated.json,1950979,3282868,45,Man
102,480362,DepthScenes,duration_manipulation_targetAtFixation,jsons/VE125_randls_28_rotated.json,http://54.235.29.9/FacialAge/BNav_EC2/DepthDuration/v2_depth_duration_MTurk/v2_DepthDuration_HTML.html#106,106,1600,1200,1600,1200,8-30-2022,9-28-17,103,depth_duration_stimuli/002784_2014-06-22_19-26-30_094959634447_rgbf000083-resize_3/002784_2014-06-22_19-26-30_094959634447_rgbf000083-resize_3-target.png,125,1.8046666666667,3,9421,128,feet,jsons/VE125_randls_28_rotated.json,1950979,3282868,45,Man
103,480362,DepthScenes,duration_manipulation_targetAtFixation,jsons/VE125_randls_28_rotated.json,http://54.235.29.9/FacialAge/BNav_EC2/DepthDuration/v2_depth_duration_MTurk/v2_DepthDuration_HTML.html#106,106,1600,1200,1600,1200,8-30-2022,9-28-17,104,depth_duration_stimuli/000677_2014-06-08_23-10-32_260595134347_rgbf000158-resize_6/000677_2014-06-08_23-10-32_260595134347_rgbf000158-resize_6-target.png,125,3.556,3,18697,110,feet,jsons/VE125_randls_28_rotated.json,1950979,3282868,45,Man
104,480362,DepthScenes,duration_manipulation_targetAtFixation,jsons/VE125_randls_28_rotated.json,http://54.235.29.9/FacialAge/BNav_EC2/DepthDuration/v2_depth_duration_MTurk/v2_DepthDuration_HTML.html#106,106,1600,1200,1600,1200,8-30-2022,9-28-17,105,depth_duration_stimuli/001029_2014-06-08_13-17-57_260595134347_rgbf000065-resize_1/001029_2014-06-08_13-17-57_260595134347_rgbf000065-resize_1-target.png,125,3.0835,4,12613,326,feet,jsons/VE125_randls_28_rotated.json,1950979,3282868,45,Man
105,480362,DepthScenes,duration_manipulation_targetAtFixation,jsons/VE125_randls_28_rotated.json,http://54.235.29.9/FacialAge/BNav_EC2/DepthDuration/v2_depth_duration_MTurk/v2_DepthDuration_HTML.html#106,106,1600,1200,1600,1200,8-30-2022,9-28-17,106,depth_duration_stimuli/003129_2014-05-12_10-48-10_094959634447_rgbf000100-resize_0/003129_2014-05-12_10-48-10_094959634447_rgbf000100-resize_0-target.png,125,4.9305,5,8874,155,feet,jsons/VE125_randls_28_rotated.json,1950979,3282868,45,Man
106,480362,DepthScenes,duration_manipulation_targetAtFixation,jsons/VE125_randls_28_rotated.json,http://54.235.29.9/FacialAge/BNav_EC2/DepthDuration/v2_depth_duration_MTurk/v2_DepthDuration_HTML.html#106,106,1600,1200,1600,1200,8-30-2022,9-28-17,107,depth_duration_stimuli/000414_2014-06-04_19-49-13_260595134347_rgbf000044-resize_0/000414_2014-06-04_19-49-13_260595134347_rgbf000044-resize_0-target.png,125,4.329,6,7553,147,feet,jsons/VE125_randls_28_rotated.json,1950979,3282868,45,Man
107,480362,DepthScenes,duration_manipulation_targetAtFixation,jsons/VE125_randls_28_rotated.json,http://54.235.29.9/FacialAge/BNav_EC2/DepthDuration/v2_depth_duration_MTurk/v2_DepthDuration_HTML.html#106,106,1600,1200,1600,1200,8-30-2022,9-28-17,108,depth_duration_stimuli/003083_2014-06-15_15-21-03_094959634447_rgbf000063-resize_1/003083_2014-06-15_15-21-03_094959634447_rgbf000063-resize_1-target.png,125,4.1405,6,7506,125,feet,jsons/VE125_randls_28_rotated.json,1950979,3282868,45,Man
108,480362,DepthScenes,duration_manipulation_targetAtFixation,jsons/VE125_randls_28_rotated.json,http://54.235.29.9/FacialAge/BNav_EC2/DepthDuration/v2_depth_duration_MTurk/v2_DepthDuration_HTML.html#106,106,1600,1200,1600,1200,8-30-2022,9-28-17,109,depth_duration_stimuli/000486_2014-06-09_20-47-20_260595134347_rgbf000143-resize_2/000486_2014-06-09_20-47-20_260595134347_rgbf000143-resize_2-target.png,125,4.8325,3,9271,136,feet,jsons/VE125_randls_28_rotated.json,1950979,3282868,45,Man
109,480362,DepthScenes,duration_manipulation_targetAtFixation,jsons/VE125_randls_28_rotated.json,http://54.235.29.9/FacialAge/BNav_EC2/DepthDuration/v2_depth_duration_MTurk/v2_DepthDuration_HTML.html#106,106,1600,1200,1600,1200,8-30-2022,9-28-17,110,depth_duration_stimuli/002639_2014-06-24_14-51-37_094959634447_rgbf000074-resize_4/002639_2014-06-24_14-51-37_094959634447_rgbf000074-resize_4-target.png,125,4.0375,5,7827,130,feet,jsons/VE125_randls_28_rotated.json,1950979,3282868,45,Man
110,480362,DepthScenes,duration_manipulation_targetAtFixation,jsons/VE125_randls_28_rotated.json,http://54.235.29.9/FacialAge/BNav_EC2/DepthDuration/v2_depth_duration_MTurk/v2_DepthDuration_HTML.html#106,106,1600,1200,1600,1200,8-30-2022,9-28-17,111,depth_duration_stimuli/003292_2014-05-14_21-53-49_094959634447_rgbf000100-resize_2/003292_2014-05-14_21-53-49_094959634447_rgbf000100-resize_2-target.png,125,3.4815,3,12635,123,feet,jsons/VE125_randls_28_rotated.json,1950979,3282868,45,Man
111,480362,DepthScenes,duration_manipulation_targetAtFixation,jsons/VE125_randls_28_rotated.json,http://54.235.29.9/FacialAge/BNav_EC2/DepthDuration/v2_depth_duration_MTurk/v2_DepthDuration_HTML.html#106,106,1600,1200,1600,1200,8-30-2022,9-28-17,112,depth_duration_stimuli/003228_2014-05-14_13-42-35_094959634447_rgbf000101-resize_1/003228_2014-05-14_13-42-35_094959634447_rgbf000101-resize_1-target.png,125,1.9680000000000002,2,10872,127,feet,jsons/VE125_randls_28_rotated.json,1950979,3282868,45,Man
112,480362,DepthScenes,duration_manipulation_targetAtFixation,jsons/VE125_randls_28_rotated.json,http://54.235.29.9/FacialAge/BNav_EC2/DepthDuration/v2_depth_duration_MTurk/v2_DepthDuration_HTML.html#106,106,1600,1200,1600,1200,8-30-2022,9-28-17,113,depth_duration_stimuli/002600_2014-06-24_14-27-04_094959634447_rgbf000074-resize_2/002600_2014-06-24_14-27-04_094959634447_rgbf000074-resize_2-target.png,125,2.7575,3,9880,127,feet,jsons/VE125_randls_28_rotated.json,1950979,3282868,45,Man
113,480362,DepthScenes,duration_manipulation_targetAtFixation,jsons/VE125_randls_28_rotated.json,http://54.235.29.9/FacialAge/BNav_EC2/DepthDuration/v2_depth_duration_MTurk/v2_DepthDuration_HTML.html#106,106,1600,1200,1600,1200,8-30-2022,9-28-17,114,depth_duration_stimuli/002103_2014-06-25_20-00-40_260595134347_rgbf000049-resize_0/002103_2014-06-25_20-00-40_260595134347_rgbf000049-resize_0-target.png,125,4.105,6,11950,129,feet,jsons/VE125_randls_28_rotated.json,1950979,3282868,45,Man
114,480362,DepthScenes,duration_manipulation_targetAtFixation,jsons/VE125_randls_28_rotated.json,http://54.235.29.9/FacialAge/BNav_EC2/DepthDuration/v2_depth_duration_MTurk/v2_DepthDuration_HTML.html#106,106,1600,1200,1600,1200,8-30-2022,9-28-17,115,depth_duration_stimuli/002039_2014-06-24_20-22-38_260595134347_rgbf000084-resize_1/002039_2014-06-24_20-22-38_260595134347_rgbf000084-resize_1-target.png,125,4.408,6,10471,123,feet,jsons/VE125_randls_28_rotated.json,1950979,3282868,45,Man
115,480362,DepthScenes,duration_manipulation_targetAtFixation,jsons/VE125_randls_28_rotated.json,http://54.235.29.9/FacialAge/BNav_EC2/DepthDuration/v2_depth_duration_MTurk/v2_DepthDuration_HTML.html#106,106,1600,1200,1600,1200,8-30-2022,9-28-17,116,depth_duration_stimuli/002995_2014-06-15_12-31-26_094959634447_rgbf000150-resize_1/002995_2014-06-15_12-31-26_094959634447_rgbf000150-resize_1-target.png,125,3.8360000000000003,6,8626,138,feet,jsons/VE125_randls_28_rotated.json,1950979,3282868,45,Man
116,480362,DepthScenes,duration_manipulation_targetAtFixation,jsons/VE125_randls_28_rotated.json,http://54.235.29.9/FacialAge/BNav_EC2/DepthDuration/v2_depth_duration_MTurk/v2_DepthDuration_HTML.html#106,106,1600,1200,1600,1200,8-30-2022,9-28-17,117,depth_duration_stimuli/002748_2014-06-22_19-07-22_094959634447_rgbf000078-resize_1/002748_2014-06-22_19-07-22_094959634447_rgbf000078-resize_1-target.png,125,4.6705,6,9383,123,feet,jsons/VE125_randls_28_rotated.json,1950979,3282868,45,Man
117,480362,DepthScenes,duration_manipulation_targetAtFixation,jsons/VE125_randls_28_rotated.json,http://54.235.29.9/FacialAge/BNav_EC2/DepthDuration/v2_depth_duration_MTurk/v2_DepthDuration_HTML.html#106,106,1600,1200,1600,1200,8-30-2022,9-28-17,118,depth_duration_stimuli/001052_2014-06-08_18-24-54_260595134347_rgbf000130-resize_1/001052_2014-06-08_18-24-54_260595134347_rgbf000130-resize_1-target.png,125,4.1045,5,10323,86,feet,jsons/VE125_randls_28_rotated.json,1950979,3282868,45,Man
118,480362,DepthScenes,duration_manipulation_targetAtFixation,jsons/VE125_randls_28_rotated.json,http://54.235.29.9/FacialAge/BNav_EC2/DepthDuration/v2_depth_duration_MTurk/v2_DepthDuration_HTML.html#106,106,1600,1200,1600,1200,8-30-2022,9-28-17,119,depth_duration_stimuli/002988_2014-06-15_12-24-20_094959634447_rgbf000150-resize_1/002988_2014-06-15_12-24-20_094959634447_rgbf000150-resize_1-target.png,125,4.7669999999999995,6,11375,137,feet,jsons/VE125_randls_28_rotated.json,1950979,3282868,45,Man
119,480362,DepthScenes,duration_manipulation_targetAtFixation,jsons/VE125_randls_28_rotated.json,http://54.235.29.9/FacialAge/BNav_EC2/DepthDuration/v2_depth_duration_MTurk/v2_DepthDuration_HTML.html#106,106,1600,1200,1600,1200,8-30-2022,9-28-17,120,depth_duration_stimuli/000787_2014-06-08_22-33-53_260595134347_rgbf000175-resize_1/000787_2014-06-08_22-33-53_260595134347_rgbf000175-resize-original.jpg,125,4.784,0,7705,130,feet,jsons/VE125_randls_28_rotated.json,1950979,3282868,45,Man
120,480362,DepthScenes,duration_manipulation_targetAtFixation,jsons/VE125_randls_28_rotated.json,http://54.235.29.9/FacialAge/BNav_EC2/DepthDuration/v2_depth_duration_MTurk/v2_DepthDuration_HTML.html#106,106,1600,1200,1600,1200,8-30-2022,9-28-17,121,depth_duration_stimuli/001571_2014-06-20_17-21-32_260595134347_rgbf000089-resize_1/001571_2014-06-20_17-21-32_260595134347_rgbf000089-resize_1-target.png,125,1.86,2,14182,125,feet,jsons/VE125_randls_28_rotated.json,1950979,3282868,45,Man
121,480362,DepthScenes,duration_manipulation_targetAtFixation,jsons/VE125_randls_28_rotated.json,http://54.235.29.9/FacialAge/BNav_EC2/DepthDuration/v2_depth_duration_MTurk/v2_DepthDuration_HTML.html#106,106,1600,1200,1600,1200,8-30-2022,9-28-17,122,depth_duration_stimuli/002272_2014-06-28_18-53-56_260595134347_rgbf000067-resize_2/002272_2014-06-28_18-53-56_260595134347_rgbf000067-resize_2-target.png,125,1.138,1,17609,124,feet,jsons/VE125_randls_28_rotated.json,1950979,3282868,45,Man
122,480362,DepthScenes,duration_manipulation_targetAtFixation,jsons/VE125_randls_28_rotated.json,http://54.235.29.9/FacialAge/BNav_EC2/DepthDuration/v2_depth_duration_MTurk/v2_DepthDuration_HTML.html#106,106,1600,1200,1600,1200,8-30-2022,9-28-17,123,depth_duration_stimuli/002545_2014-06-24_13-38-53_094959634447_rgbf000080-resize_4/002545_2014-06-24_13-38-53_094959634447_rgbf000080-resize_4-target.png,125,1.9205,3,17702,155,feet,jsons/VE125_randls_28_rotated.json,1950979,3282868,45,Man
123,480362,DepthScenes,duration_manipulation_targetAtFixation,jsons/VE125_randls_28_rotated.json,http://54.235.29.9/FacialAge/BNav_EC2/DepthDuration/v2_depth_duration_MTurk/v2_DepthDuration_HTML.html#106,106,1600,1200,1600,1200,8-30-2022,9-28-17,124,depth_duration_stimuli/001092_2014-06-15_17-34-58_260595134347_rgbf000171-resize_3/001092_2014-06-15_17-34-58_260595134347_rgbf000171-resize_3-target.png,125,2.6935,3,10045,124,feet,jsons/VE125_randls_28_rotated.json,1950979,3282868,45,Man
124,480362,DepthScenes,duration_manipulation_targetAtFixation,jsons/VE125_randls_28_rotated.json,http://54.235.29.9/FacialAge/BNav_EC2/DepthDuration/v2_depth_duration_MTurk/v2_DepthDuration_HTML.html#106,106,1600,1200,1600,1200,8-30-2022,9-28-17,125,depth_duration_stimuli/003079_2014-06-15_15-18-20_094959634447_rgbf000152-resize_8/003079_2014-06-15_15-18-20_094959634447_rgbf000152-resize_8-target.png,125,2.8775,6,10402,125,feet,jsons/VE125_randls_28_rotated.json,1950979,3282868,45,Man
125,480362,DepthScenes,duration_manipulation_targetAtFixation,jsons/VE125_randls_28_rotated.json,http://54.235.29.9/FacialAge/BNav_EC2/DepthDuration/v2_depth_duration_MTurk/v2_DepthDuration_HTML.html#106,106,1600,1200,1600,1200,8-30-2022,9-28-17,126,depth_duration_stimuli/000506_2014-06-08_23-21-00_260595134347_rgbf000070-resize_7/000506_2014-06-08_23-21-00_260595134347_rgbf000070-resize_7-target.png,125,4.0585,6,9299,124,feet,jsons/VE125_randls_28_rotated.json,1950979,3282868,45,Man
126,480362,DepthScenes,duration_manipulation_targetAtFixation,jsons/VE125_randls_28_rotated.json,http://54.235.29.9/FacialAge/BNav_EC2/DepthDuration/v2_depth_duration_MTurk/v2_DepthDuration_HTML.html#106,106,1600,1200,1600,1200,8-30-2022,9-28-17,127,depth_duration_stimuli/000556_2014-06-09_22-42-56_260595134347_rgbf000214-resize_1/000556_2014-06-09_22-42-56_260595134347_rgbf000214-resize_1-target.png,125,4.8415,5,8786,123,feet,jsons/VE125_randls_28_rotated.json,1950979,3282868,45,Man
127,480362,DepthScenes,duration_manipulation_targetAtFixation,jsons/VE125_randls_28_rotated.json,http://54.235.29.9/FacialAge/BNav_EC2/DepthDuration/v2_depth_duration_MTurk/v2_DepthDuration_HTML.html#106,106,1600,1200,1600,1200,8-30-2022,9-28-17,128,depth_duration_stimuli/001158_2014-06-17_15-32-16_260595134347_rgbf000138-resize_2/001158_2014-06-17_15-32-16_260595134347_rgbf000138-resize_2-target.png,125,4.5315,6,13727,126,feet,jsons/VE125_randls_28_rotated.json,1950979,3282868,45,Man
128,480362,DepthScenes,duration_manipulation_targetAtFixation,jsons/VE125_randls_28_rotated.json,http://54.235.29.9/FacialAge/BNav_EC2/DepthDuration/v2_depth_duration_MTurk/v2_DepthDuration_HTML.html#106,106,1600,1200,1600,1200,8-30-2022,9-28-17,129,depth_duration_stimuli/001214_2014-06-17_16-13-55_260595134347_rgbf000111-resize_0/001214_2014-06-17_16-13-55_260595134347_rgbf000111-resize_0-target.png,125,2.6505,3,18187,124,feet,jsons/VE125_randls_28_rotated.json,1950979,3282868,45,Man
129,480362,DepthScenes,duration_manipulation_targetAtFixation,jsons/VE125_randls_28_rotated.json,http://54.235.29.9/FacialAge/BNav_EC2/DepthDuration/v2_depth_duration_MTurk/v2_DepthDuration_HTML.html#106,106,1600,1200,1600,1200,8-30-2022,9-28-17,130,depth_duration_stimuli/000810_2014-06-08_17-20-01_260595134347_rgbf000105-resize_0/000810_2014-06-08_17-20-01_260595134347_rgbf000105-resize_0-target.png,125,1.4865,3,12696,125,feet,jsons/VE125_randls_28_rotated.json,1950979,3282868,45,Man
130,480362,DepthScenes,duration_manipulation_targetAtFixation,jsons/VE125_randls_28_rotated.json,http://54.235.29.9/FacialAge/BNav_EC2/DepthDuration/v2_depth_duration_MTurk/v2_DepthDuration_HTML.html#106,106,1600,1200,1600,1200,8-30-2022,9-28-17,131,depth_duration_stimuli/003490_2014-05-21_15-50-11_094959634447_rgbf000101-resize_3/003490_2014-05-21_15-50-11_094959634447_rgbf000101-resize_3-target.png,125,3.6445,5,22578,129,feet,jsons/VE125_randls_28_rotated.json,1950979,3282868,45,Man
131,480362,DepthScenes,duration_manipulation_targetAtFixation,jsons/VE125_randls_28_rotated.json,http://54.235.29.9/FacialAge/BNav_EC2/DepthDuration/v2_depth_duration_MTurk/v2_DepthDuration_HTML.html#106,106,1600,1200,1600,1200,8-30-2022,9-28-17,132,depth_duration_stimuli/001175_2014-06-17_15-45-55_260595134347_rgbf000129-resize_4/001175_2014-06-17_15-45-55_260595134347_rgbf000129-resize_4-target.png,125,4.255,6,11596,122,feet,jsons/VE125_randls_28_rotated.json,1950979,3282868,45,Man
132,480362,DepthScenes,duration_manipulation_targetAtFixation,jsons/VE125_randls_28_rotated.json,http://54.235.29.9/FacialAge/BNav_EC2/DepthDuration/v2_depth_duration_MTurk/v2_DepthDuration_HTML.html#106,106,1600,1200,1600,1200,8-30-2022,9-28-17,133,depth_duration_stimuli/002444_2014-06-28_20-32-08_260595134347_rgbf000027-resize_0/002444_2014-06-28_20-32-08_260595134347_rgbf000027-resize_0-target.png,125,4.388999999999999,5,17413,129,feet,jsons/VE125_randls_28_rotated.json,1950979,3282868,45,Man
133,480362,DepthScenes,duration_manipulation_targetAtFixation,jsons/VE125_randls_28_rotated.json,http://54.235.29.9/FacialAge/BNav_EC2/DepthDuration/v2_depth_duration_MTurk/v2_DepthDuration_HTML.html#106,106,1600,1200,1600,1200,8-30-2022,9-28-17,134,depth_duration_stimuli/000436_2014-06-09_22-25-11_260595134347_rgbf000137-resize_1/000436_2014-06-09_22-25-11_260595134347_rgbf000137-resize_1-target.png,125,4.0705,6,7510,152,feet,jsons/VE125_randls_28_rotated.json,1950979,3282868,45,Man
134,480362,DepthScenes,duration_manipulation_targetAtFixation,jsons/VE125_randls_28_rotated.json,http://54.235.29.9/FacialAge/BNav_EC2/DepthDuration/v2_depth_duration_MTurk/v2_DepthDuration_HTML.html#106,106,1600,1200,1600,1200,8-30-2022,9-28-17,135,depth_duration_stimuli/000375_2014-06-08_11-17-29_260595134347_rgbf000133-resize_2/000375_2014-06-08_11-17-29_260595134347_rgbf000133-resize-original.jpg,125,4.718,0,8336,125,feet,jsons/VE125_randls_28_rotated.json,1950979,3282868,45,Man
135,480362,DepthScenes,duration_manipulation_targetAtFixation,jsons/VE125_randls_28_rotated.json,http://54.235.29.9/FacialAge/BNav_EC2/DepthDuration/v2_depth_duration_MTurk/v2_DepthDuration_HTML.html#106,106,1600,1200,1600,1200,8-30-2022,9-28-17,136,depth_duration_stimuli/001032_2014-06-08_13-23-17_260595134347_rgbf000021-resize_3/001032_2014-06-08_13-23-17_260595134347_rgbf000021-resize_3-target.png,125,3.2725,3,9400,135,feet,jsons/VE125_randls_28_rotated.json,1950979,3282868,45,Man
136,480362,DepthScenes,duration_manipulation_targetAtFixation,jsons/VE125_randls_28_rotated.json,http://54.235.29.9/FacialAge/BNav_EC2/DepthDuration/v2_depth_duration_MTurk/v2_DepthDuration_HTML.html#106,106,1600,1200,1600,1200,8-30-2022,9-28-17,137,depth_duration_stimuli/001059_2014-06-08_21-53-27_260595134347_rgbf000061-resize_4/001059_2014-06-08_21-53-27_260595134347_rgbf000061-resize_4-target.png,125,2.4185,3,7863,122,feet,jsons/VE125_randls_28_rotated.json,1950979,3282868,45,Man
137,480362,DepthScenes,duration_manipulation_targetAtFixation,jsons/VE125_randls_28_rotated.json,http://54.235.29.9/FacialAge/BNav_EC2/DepthDuration/v2_depth_duration_MTurk/v2_DepthDuration_HTML.html#106,106,1600,1200,1600,1200,8-30-2022,9-28-17,138,depth_duration_stimuli/003010_2014-06-15_12-54-35_094959634447_rgbf000112-resize_0/003010_2014-06-15_12-54-35_094959634447_rgbf000112-resize_0-target.png,125,3.1185,6,9852,113,feet,jsons/VE125_randls_28_rotated.json,1950979,3282868,45,Man
138,480362,DepthScenes,duration_manipulation_targetAtFixation,jsons/VE125_randls_28_rotated.json,http://54.235.29.9/FacialAge/BNav_EC2/DepthDuration/v2_depth_duration_MTurk/v2_DepthDuration_HTML.html#106,106,1600,1200,1600,1200,8-30-2022,9-28-17,139,depth_duration_stimuli/001810_2014-06-26_20-51-35_260595134347_rgbf000040-resize_3/001810_2014-06-26_20-51-35_260595134347_rgbf000040-resize_3-target.png,125,2.2525,2,11340,138,feet,jsons/VE125_randls_28_rotated.json,1950979,3282868,45,Man
139,480362,DepthScenes,duration_manipulation_targetAtFixation,jsons/VE125_randls_28_rotated.json,http://54.235.29.9/FacialAge/BNav_EC2/DepthDuration/v2_depth_duration_MTurk/v2_DepthDuration_HTML.html#106,106,1600,1200,1600,1200,8-30-2022,9-28-17,140,depth_duration_stimuli/000483_2014-06-09_20-41-45_260595134347_rgbf000116-resize_4/000483_2014-06-09_20-41-45_260595134347_rgbf000116-resize_4-target.png,125,1.337,2,10370,186,feet,jsons/VE125_randls_28_rotated.json,1950979,3282868,45,Man
140,480362,DepthScenes,duration_manipulation_targetAtFixation,jsons/VE125_randls_28_rotated.json,http://54.235.29.9/FacialAge/BNav_EC2/DepthDuration/v2_depth_duration_MTurk/v2_DepthDuration_HTML.html#106,106,1600,1200,1600,1200,8-30-2022,9-28-17,141,depth_duration_stimuli/000469_2014-06-09_19-42-10_260595134347_rgbf000081-resize_1/000469_2014-06-09_19-42-10_260595134347_rgbf000081-resize_1-target.png,125,1.652,2,14640,132,feet,jsons/VE125_randls_28_rotated.json,1950979,3282868,45,Man
141,480362,DepthScenes,duration_manipulation_targetAtFixation,jsons/VE125_randls_28_rotated.json,http://54.235.29.9/FacialAge/BNav_EC2/DepthDuration/v2_depth_duration_MTurk/v2_DepthDuration_HTML.html#106,106,1600,1200,1600,1200,8-30-2022,9-28-17,142,depth_duration_stimuli/000742_2014-06-08_18-48-09_260595134347_rgbf000164-resize_4/000742_2014-06-08_18-48-09_260595134347_rgbf000164-resize_4-target.png,125,4.632,6,25139,173,feet,jsons/VE125_randls_28_rotated.json,1950979,3282868,45,Man
142,480362,DepthScenes,duration_manipulation_targetAtFixation,jsons/VE125_randls_28_rotated.json,http://54.235.29.9/FacialAge/BNav_EC2/DepthDuration/v2_depth_duration_MTurk/v2_DepthDuration_HTML.html#106,106,1600,1200,1600,1200,8-30-2022,9-28-17,143,depth_duration_stimuli/001066_2014-06-08_22-03-20_260595134347_rgbf000066-resize_4/001066_2014-06-08_22-03-20_260595134347_rgbf000066-resize_4-target.png,125,4.2330000000000005,6,14663,147,feet,jsons/VE125_randls_28_rotated.json,1950979,3282868,45,Man
143,480362,DepthScenes,duration_manipulation_targetAtFixation,jsons/VE125_randls_28_rotated.json,http://54.235.29.9/FacialAge/BNav_EC2/DepthDuration/v2_depth_duration_MTurk/v2_DepthDuration_HTML.html#106,106,1600,1200,1600,1200,8-30-2022,9-28-17,144,depth_duration_stimuli/001447_2014-06-19_17-00-32_260595134347_rgbf000082-resize_5/001447_2014-06-19_17-00-32_260595134347_rgbf000082-resize_5-target.png,125,4.13775,3,17346,122,feet,jsons/VE125_randls_28_rotated.json,1950979,3282868,45,Man
144,480362,DepthScenes,duration_manipulation_targetAtFixation,jsons/VE125_randls_28_rotated.json,http://54.235.29.9/FacialAge/BNav_EC2/DepthDuration/v2_depth_duration_MTurk/v2_DepthDuration_HTML.html#106,106,1600,1200,1600,1200,8-30-2022,9-28-17,145,depth_duration_stimuli/000447_2014-06-08_16-15-46_260595134347_rgbf000130-resize_1/000447_2014-06-08_16-15-46_260595134347_rgbf000130-resize_1-target.png,125,4.479,6,9663,111,feet,jsons/VE125_randls_28_rotated.json,1950979,3282868,45,Man
145,480362,DepthScenes,duration_manipulation_targetAtFixation,jsons/VE125_randls_28_rotated.json,http://54.235.29.9/FacialAge/BNav_EC2/DepthDuration/v2_depth_duration_MTurk/v2_DepthDuration_HTML.html#106,106,1600,1200,1600,1200,8-30-2022,9-28-17,146,depth_duration_stimuli/000734_2014-06-08_17-39-11_260595134347_rgbf000128-resize_2/000734_2014-06-08_17-39-11_260595134347_rgbf000128-resize_2-target.png,125,4.098,3,14825,73,feet,jsons/VE125_randls_28_rotated.json,1950979,3282868,45,Man
146,480362,DepthScenes,duration_manipulation_targetAtFixation,jsons/VE125_randls_28_rotated.json,http://54.235.29.9/FacialAge/BNav_EC2/DepthDuration/v2_depth_duration_MTurk/v2_DepthDuration_HTML.html#106,106,1600,1200,1600,1200,8-30-2022,9-28-17,147,depth_duration_stimuli/000739_2014-06-08_18-45-58_260595134347_rgbf000068-resize_1/000739_2014-06-08_18-45-58_260595134347_rgbf000068-resize_1-target.png,125,3.534,4,11507,123,feet,jsons/VE125_randls_28_rotated.json,1950979,3282868,45,Man
147,480362,DepthScenes,duration_manipulation_targetAtFixation,jsons/VE125_randls_28_rotated.json,http://54.235.29.9/FacialAge/BNav_EC2/DepthDuration/v2_depth_duration_MTurk/v2_DepthDuration_HTML.html#106,106,1600,1200,1600,1200,8-30-2022,9-28-17,148,depth_duration_stimuli/000749_2014-06-08_21-55-06_260595134347_rgbf000070-resize_2/000749_2014-06-08_21-55-06_260595134347_rgbf000070-resize_2-target.png,125,2.331,3,10197,121,feet,jsons/VE125_randls_28_rotated.json,1950979,3282868,45,Man
148,480362,DepthScenes,duration_manipulation_targetAtFixation,jsons/VE125_randls_28_rotated.json,http://54.235.29.9/FacialAge/BNav_EC2/DepthDuration/v2_depth_duration_MTurk/v2_DepthDuration_HTML.html#106,106,1600,1200,1600,1200,8-30-2022,9-28-17,149,depth_duration_stimuli/002788_2014-06-22_19-36-03_094959634447_rgbf000088-resize_2/002788_2014-06-22_19-36-03_094959634447_rgbf000088-resize_2-target.png,125,1.6465,3,11013,112,feet,jsons/VE125_randls_28_rotated.json,1950979,3282868,45,Man
149,480362,DepthScenes,duration_manipulation_targetAtFixation,jsons/VE125_randls_28_rotated.json,http://54.235.29.9/FacialAge/BNav_EC2/DepthDuration/v2_depth_duration_MTurk/v2_DepthDuration_HTML.html#106,106,1600,1200,1600,1200,8-30-2022,9-28-17,150,depth_duration_stimuli/001584_2014-06-20_11-07-43_260595134347_rgbf000002-resize_1/001584_2014-06-20_11-07-43_260595134347_rgbf000002-resize_1-target.png,125,3.53,3,23186,129,feet,jsons/VE125_randls_28_rotated.json,1950979,3282868,45,Man
150,480362,DepthScenes,duration_manipulation_targetAtFixation,jsons/VE125_randls_28_rotated.json,http://54.235.29.9/FacialAge/BNav_EC2/DepthDuration/v2_depth_duration_MTurk/v2_DepthDuration_HTML.html#106,106,1600,1200,1600,1200,8-30-2022,9-28-17,151,depth_duration_stimuli/003621_2014-05-23_18-06-08_094959634447_rgbf000101-resize_1/003621_2014-05-23_18-06-08_094959634447_rgbf000101-resize_1-target.png,125,3.9835,6,9741,125,feet,jsons/VE125_randls_28_rotated.json,1950979,3282868,45,Man
151,480362,DepthScenes,duration_manipulation_targetAtFixation,jsons/VE125_randls_28_rotated.json,http://54.235.29.9/FacialAge/BNav_EC2/DepthDuration/v2_depth_duration_MTurk/v2_DepthDuration_HTML.html#106,106,1600,1200,1600,1200,8-30-2022,9-28-17,152,depth_duration_stimuli/000569_2014-06-09_22-51-47_260595134347_rgbf000141-resize_3/000569_2014-06-09_22-51-47_260595134347_rgbf000141-resize-original.jpg,125,4.512,0,16753,146,feet,jsons/VE125_randls_28_rotated.json,1950979,3282868,45,Man
152,480362,DepthScenes,duration_manipulation_targetAtFixation,jsons/VE125_randls_28_rotated.json,http://54.235.29.9/FacialAge/BNav_EC2/DepthDuration/v2_depth_duration_MTurk/v2_DepthDuration_HTML.html#106,106,1600,1200,1600,1200,8-30-2022,9-28-17,153,depth_duration_stimuli/001094_2014-06-15_17-36-00_260595134347_rgbf000205-resize_0/001094_2014-06-15_17-36-00_260595134347_rgbf000205-resize_0-target.png,125,4.2175,6,12440,133,feet,jsons/VE125_randls_28_rotated.json,1950979,3282868,45,Man
153,480362,DepthScenes,duration_manipulation_targetAtFixation,jsons/VE125_randls_28_rotated.json,http://54.235.29.9/FacialAge/BNav_EC2/DepthDuration/v2_depth_duration_MTurk/v2_DepthDuration_HTML.html#106,106,1600,1200,1600,1200,8-30-2022,9-28-17,154,depth_duration_stimuli/000692_2014-06-08_13-09-42_260595134347_rgbf000199-resize_2/000692_2014-06-08_13-09-42_260595134347_rgbf000199-resize_2-target.png,125,3.661,4,9398,122,feet,jsons/VE125_randls_28_rotated.json,1950979,3282868,45,Man
154,480362,DepthScenes,duration_manipulation_targetAtFixation,jsons/VE125_randls_28_rotated.json,http://54.235.29.9/FacialAge/BNav_EC2/DepthDuration/v2_depth_duration_MTurk/v2_DepthDuration_HTML.html#106,106,1600,1200,1600,1200,8-30-2022,9-28-17,155,depth_duration_stimuli/002949_2014-06-26_15-57-42_094959634447_rgbf000079-resize_1/002949_2014-06-26_15-57-42_094959634447_rgbf000079-resize_1-target.png,125,1.8915,2,13800,128,feet,jsons/VE125_randls_28_rotated.json,1950979,3282868,45,Man
155,480362,DepthScenes,duration_manipulation_targetAtFixation,jsons/VE125_randls_28_rotated.json,http://54.235.29.9/FacialAge/BNav_EC2/DepthDuration/v2_depth_duration_MTurk/v2_DepthDuration_HTML.html#106,106,1600,1200,1600,1200,8-30-2022,9-28-17,156,depth_duration_stimuli/000522_2014-06-08_13-35-06_260595134347_rgbf000244-resize_1/000522_2014-06-08_13-35-06_260595134347_rgbf000244-resize_1-target.png,125,2.3715,2,12401,237,feet,jsons/VE125_randls_28_rotated.json,1950979,3282868,45,Man
156,480362,DepthScenes,duration_manipulation_targetAtFixation,jsons/VE125_randls_28_rotated.json,http://54.235.29.9/FacialAge/BNav_EC2/DepthDuration/v2_depth_duration_MTurk/v2_DepthDuration_HTML.html#106,106,1600,1200,1600,1200,8-30-2022,9-28-17,157,depth_duration_stimuli/003338_2014-05-20_11-01-23_094959634447_rgbf000051-resize_6/003338_2014-05-20_11-01-23_094959634447_rgbf000051-resize_6-target.png,125,1.693,2,10823,126,feet,jsons/VE125_randls_28_rotated.json,1950979,3282868,45,Man
157,480362,DepthScenes,duration_manipulation_targetAtFixation,jsons/VE125_randls_28_rotated.json,http://54.235.29.9/FacialAge/BNav_EC2/DepthDuration/v2_depth_duration_MTurk/v2_DepthDuration_HTML.html#106,106,1600,1200,1600,1200,8-30-2022,9-28-17,158,depth_duration_stimuli/002509_2014-06-24_13-19-22_094959634447_rgbf000077-resize_0/002509_2014-06-24_13-19-22_094959634447_rgbf000077-resize_0-target.png,125,1.3065,2,9881,129,feet,jsons/VE125_randls_28_rotated.json,1950979,3282868,45,Man
158,480362,DepthScenes,duration_manipulation_targetAtFixation,jsons/VE125_randls_28_rotated.json,http://54.235.29.9/FacialAge/BNav_EC2/DepthDuration/v2_depth_duration_MTurk/v2_DepthDuration_HTML.html#106,106,1600,1200,1600,1200,8-30-2022,9-28-17,159,depth_duration_stimuli/002414_2014-06-28_20-24-58_260595134347_rgbf000067-resize_4/002414_2014-06-28_20-24-58_260595134347_rgbf000067-resize_4-target.png,125,4.363,6,7464,274,feet,jsons/VE125_randls_28_rotated.json,1950979,3282868,45,Man
159,480362,DepthScenes,duration_manipulation_targetAtFixation,jsons/VE125_randls_28_rotated.json,http://54.235.29.9/FacialAge/BNav_EC2/DepthDuration/v2_depth_duration_MTurk/v2_DepthDuration_HTML.html#106,106,1600,1200,1600,1200,8-30-2022,9-28-17,160,depth_duration_stimuli/000773_2014-06-08_22-24-54_260595134347_rgbf000093-resize_1/000773_2014-06-08_22-24-54_260595134347_rgbf000093-resize_1-target.png,125,4.973,6,8469,129,feet,jsons/VE125_randls_28_rotated.json,1950979,3282868,45,Man
160,480362,DepthScenes,duration_manipulation_targetAtFixation,jsons/VE125_randls_28_rotated.json,http://54.235.29.9/FacialAge/BNav_EC2/DepthDuration/v2_depth_duration_MTurk/v2_DepthDuration_HTML.html#106,106,1600,1200,1600,1200,8-30-2022,9-28-17,161,depth_duration_stimuli/002467_2014-06-28_20-38-07_260595134347_rgbf000026-resize_2/002467_2014-06-28_20-38-07_260595134347_rgbf000026-resize_2-target.png,125,4.742,6,7814,141,feet,jsons/VE125_randls_28_rotated.json,1950979,3282868,45,Man
161,480362,DepthScenes,duration_manipulation_targetAtFixation,jsons/VE125_randls_28_rotated.json,http://54.235.29.9/FacialAge/BNav_EC2/DepthDuration/v2_depth_duration_MTurk/v2_DepthDuration_HTML.html#106,106,1600,1200,1600,1200,8-30-2022,9-28-17,162,depth_duration_stimuli/002570_2014-06-24_13-59-54_094959634447_rgbf000059-resize_0/002570_2014-06-24_13-59-54_094959634447_rgbf000059-resize_0-target.png,125,4.037,4,6067,125,feet,jsons/VE125_randls_28_rotated.json,1950979,3282868,45,Man
162,480362,DepthScenes,duration_manipulation_targetAtFixation,jsons/VE125_randls_28_rotated.json,http://54.235.29.9/FacialAge/BNav_EC2/DepthDuration/v2_depth_duration_MTurk/v2_DepthDuration_HTML.html#106,106,1600,1200,1600,1200,8-30-2022,9-28-17,163,depth_duration_stimuli/001392_2014-06-19_16-07-59_260595134347_rgbf000046-resize_1/001392_2014-06-19_16-07-59_260595134347_rgbf000046-resize_1-target.png,125,4.135,5,9094,124,feet,jsons/VE125_randls_28_rotated.json,1950979,3282868,45,Man
163,480362,DepthScenes,duration_manipulation_targetAtFixation,jsons/VE125_randls_28_rotated.json,http://54.235.29.9/FacialAge/BNav_EC2/DepthDuration/v2_depth_duration_MTurk/v2_DepthDuration_HTML.html#106,106,1600,1200,1600,1200,8-30-2022,9-28-17,164,depth_duration_stimuli/001570_2014-06-20_17-21-09_260595134347_rgbf000135-resize_4/001570_2014-06-20_17-21-09_260595134347_rgbf000135-resize_4-target.png,125,4.467,6,8720,87,feet,jsons/VE125_randls_28_rotated.json,1950979,3282868,45,Man
