,subjID,experimentName,versionName,sequenceName,url,selected_row,windowWidth,windowHeight,screenWidth,screenHeight,startDate,startTime,trial,stimulus,duration,actual_depth,depth_estimate,trial_RT,log_sceneDuration,unitSelection,seq_filepath,experimentTime,totalTime,age,gender
0,480789,DepthScenes,duration_manipulation_targetAtFixation,jsons/v1_VE1000_randls_66_rotated.json,http://54.235.29.9/FacialAge/BNav_EC2/DepthDuration/v2_depth_duration_MTurk/v2_DepthDuration_HTML.html#251,251,1280,720,1280,720,8-30-2022,9-53-22,1,depth_duration_stimuli/003083_2014-06-15_15-21-03_094959634447_rgbf000063-resize_1/003083_2014-06-15_15-21-03_094959634447_rgbf000063-resize_1-target.png,1000,4.1405,0.3,4527,1010,meters,jsons/v1_VE1000_randls_66_rotated.json,914325,1130850,26,Woman
1,480789,DepthScenes,duration_manipulation_targetAtFixation,jsons/v1_VE1000_randls_66_rotated.json,http://54.235.29.9/FacialAge/BNav_EC2/DepthDuration/v2_depth_duration_MTurk/v2_DepthDuration_HTML.html#251,251,1280,720,1280,720,8-30-2022,9-53-22,2,depth_duration_stimuli/000486_2014-06-09_20-47-20_260595134347_rgbf000143-resize_2/000486_2014-06-09_20-47-20_260595134347_rgbf000143-resize_2-target.png,1000,4.8325,0.4,4027,1016,meters,jsons/v1_VE1000_randls_66_rotated.json,914325,1130850,26,Woman
2,480789,DepthScenes,duration_manipulation_targetAtFixation,jsons/v1_VE1000_randls_66_rotated.json,http://54.235.29.9/FacialAge/BNav_EC2/DepthDuration/v2_depth_duration_MTurk/v2_DepthDuration_HTML.html#251,251,1280,720,1280,720,8-30-2022,9-53-22,3,depth_duration_stimuli/003228_2014-05-14_13-42-35_094959634447_rgbf000101-resize_1/003228_2014-05-14_13-42-35_094959634447_rgbf000101-resize_1-target.png,1000,1.9680000000000002,0.35,3946,1091,meters,jsons/v1_VE1000_randls_66_rotated.json,914325,1130850,26,Woman
3,480789,DepthScenes,duration_manipulation_targetAtFixation,jsons/v1_VE1000_randls_66_rotated.json,http://54.235.29.9/FacialAge/BNav_EC2/DepthDuration/v2_depth_duration_MTurk/v2_DepthDuration_HTML.html#251,251,1280,720,1280,720,8-30-2022,9-53-22,4,depth_duration_stimuli/002600_2014-06-24_14-27-04_094959634447_rgbf000074-resize_2/002600_2014-06-24_14-27-04_094959634447_rgbf000074-resize_2-target.png,1000,2.7575,0.25,3883,1039,meters,jsons/v1_VE1000_randls_66_rotated.json,914325,1130850,26,Woman
4,480789,DepthScenes,duration_manipulation_targetAtFixation,jsons/v1_VE1000_randls_66_rotated.json,http://54.235.29.9/FacialAge/BNav_EC2/DepthDuration/v2_depth_duration_MTurk/v2_DepthDuration_HTML.html#251,251,1280,720,1280,720,8-30-2022,9-53-22,5,depth_duration_stimuli/000556_2014-06-09_22-42-56_260595134347_rgbf000214-resize_1/000556_2014-06-09_22-42-56_260595134347_rgbf000214-resize_1-target.png,1000,4.8415,0.35,4418,905,meters,jsons/v1_VE1000_randls_66_rotated.json,914325,1130850,26,Woman
5,480789,DepthScenes,duration_manipulation_targetAtFixation,jsons/v1_VE1000_randls_66_rotated.json,http://54.235.29.9/FacialAge/BNav_EC2/DepthDuration/v2_depth_duration_MTurk/v2_DepthDuration_HTML.html#251,251,1280,720,1280,720,8-30-2022,9-53-22,6,depth_duration_stimuli/001158_2014-06-17_15-32-16_260595134347_rgbf000138-resize_2/001158_2014-06-17_15-32-16_260595134347_rgbf000138-resize_2-target.png,1000,4.5315,0.5,4325,1005,meters,jsons/v1_VE1000_randls_66_rotated.json,914325,1130850,26,Woman
6,480789,DepthScenes,duration_manipulation_targetAtFixation,jsons/v1_VE1000_randls_66_rotated.json,http://54.235.29.9/FacialAge/BNav_EC2/DepthDuration/v2_depth_duration_MTurk/v2_DepthDuration_HTML.html#251,251,1280,720,1280,720,8-30-2022,9-53-22,7,depth_duration_stimuli/001450_2014-06-19_17-02-03_260595134347_rgbf000203-resize_4/001450_2014-06-19_17-02-03_260595134347_rgbf000203-resize_4-target.png,1000,4.0106666666667,0.5,3419,833,meters,jsons/v1_VE1000_randls_66_rotated.json,914325,1130850,26,Woman
7,480789,DepthScenes,duration_manipulation_targetAtFixation,jsons/v1_VE1000_randls_66_rotated.json,http://54.235.29.9/FacialAge/BNav_EC2/DepthDuration/v2_depth_duration_MTurk/v2_DepthDuration_HTML.html#251,251,1280,720,1280,720,8-30-2022,9-53-22,8,depth_duration_stimuli/001449_2014-06-19_17-01-27_260595134347_rgbf000116-resize_2/001449_2014-06-19_17-01-27_260595134347_rgbf000116-resize_2-target.png,1000,3.452,0.45,5614,1000,meters,jsons/v1_VE1000_randls_66_rotated.json,914325,1130850,26,Woman
8,480789,DepthScenes,duration_manipulation_targetAtFixation,jsons/v1_VE1000_randls_66_rotated.json,http://54.235.29.9/FacialAge/BNav_EC2/DepthDuration/v2_depth_duration_MTurk/v2_DepthDuration_HTML.html#251,251,1280,720,1280,720,8-30-2022,9-53-22,9,depth_duration_stimuli/000943_2014-06-09_19-31-07_260595134347_rgbf000128-resize_1/000943_2014-06-09_19-31-07_260595134347_rgbf000128-resize_1-target.png,1000,1.9765,0.15,3955,764,meters,jsons/v1_VE1000_randls_66_rotated.json,914325,1130850,26,Woman
9,480789,DepthScenes,duration_manipulation_targetAtFixation,jsons/v1_VE1000_randls_66_rotated.json,http://54.235.29.9/FacialAge/BNav_EC2/DepthDuration/v2_depth_duration_MTurk/v2_DepthDuration_HTML.html#251,251,1280,720,1280,720,8-30-2022,9-53-22,10,depth_duration_stimuli/003070_2014-06-15_14-58-27_094959634447_rgbf000150-resize_3/003070_2014-06-15_14-58-27_094959634447_rgbf000150-resize_3-target.png,1000,2.9415,0.25,3376,999,meters,jsons/v1_VE1000_randls_66_rotated.json,914325,1130850,26,Woman
10,480789,DepthScenes,duration_manipulation_targetAtFixation,jsons/v1_VE1000_randls_66_rotated.json,http://54.235.29.9/FacialAge/BNav_EC2/DepthDuration/v2_depth_duration_MTurk/v2_DepthDuration_HTML.html#251,251,1280,720,1280,720,8-30-2022,9-53-22,11,depth_duration_stimuli/002637_2014-06-24_14-51-13_094959634447_rgbf000066-resize_4/002637_2014-06-24_14-51-13_094959634447_rgbf000066-resize_4-target.png,1000,1.9955,0.1,3783,945,meters,jsons/v1_VE1000_randls_66_rotated.json,914325,1130850,26,Woman
11,480789,DepthScenes,duration_manipulation_targetAtFixation,jsons/v1_VE1000_randls_66_rotated.json,http://54.235.29.9/FacialAge/BNav_EC2/DepthDuration/v2_depth_duration_MTurk/v2_DepthDuration_HTML.html#251,251,1280,720,1280,720,8-30-2022,9-53-22,12,depth_duration_stimuli/003534_2014-05-22_15-06-10_094959634447_rgbf000102-resize_4/003534_2014-05-22_15-06-10_094959634447_rgbf000102-resize_4-target.png,1000,1.426,0.25,3645,951,meters,jsons/v1_VE1000_randls_66_rotated.json,914325,1130850,26,Woman
12,480789,DepthScenes,duration_manipulation_targetAtFixation,jsons/v1_VE1000_randls_66_rotated.json,http://54.235.29.9/FacialAge/BNav_EC2/DepthDuration/v2_depth_duration_MTurk/v2_DepthDuration_HTML.html#251,251,1280,720,1280,720,8-30-2022,9-53-22,13,depth_duration_stimuli/002750_2014-06-22_19-08-03_094959634447_rgbf000094-resize_4/002750_2014-06-22_19-08-03_094959634447_rgbf000094-resize_4-target.png,1000,2.354,0.35,3720,999,meters,jsons/v1_VE1000_randls_66_rotated.json,914325,1130850,26,Woman
13,480789,DepthScenes,duration_manipulation_targetAtFixation,jsons/v1_VE1000_randls_66_rotated.json,http://54.235.29.9/FacialAge/BNav_EC2/DepthDuration/v2_depth_duration_MTurk/v2_DepthDuration_HTML.html#251,251,1280,720,1280,720,8-30-2022,9-53-22,14,depth_duration_stimuli/002549_2014-06-24_13-41-39_094959634447_rgbf000022-resize_3/002549_2014-06-24_13-41-39_094959634447_rgbf000022-resize_3-target.png,1000,1.476,0.5,3959,1000,meters,jsons/v1_VE1000_randls_66_rotated.json,914325,1130850,26,Woman
14,480789,DepthScenes,duration_manipulation_targetAtFixation,jsons/v1_VE1000_randls_66_rotated.json,http://54.235.29.9/FacialAge/BNav_EC2/DepthDuration/v2_depth_duration_MTurk/v2_DepthDuration_HTML.html#251,251,1280,720,1280,720,8-30-2022,9-53-22,15,depth_duration_stimuli/001032_2014-06-08_13-23-17_260595134347_rgbf000021-resize_3/001032_2014-06-08_13-23-17_260595134347_rgbf000021-resize_3-target.png,1000,3.2725,0.0,3408,1042,meters,jsons/v1_VE1000_randls_66_rotated.json,914325,1130850,26,Woman
15,480789,DepthScenes,duration_manipulation_targetAtFixation,jsons/v1_VE1000_randls_66_rotated.json,http://54.235.29.9/FacialAge/BNav_EC2/DepthDuration/v2_depth_duration_MTurk/v2_DepthDuration_HTML.html#251,251,1280,720,1280,720,8-30-2022,9-53-22,16,depth_duration_stimuli/001059_2014-06-08_21-53-27_260595134347_rgbf000061-resize_4/001059_2014-06-08_21-53-27_260595134347_rgbf000061-resize_4-target.png,1000,2.4185,0.35,3389,999,meters,jsons/v1_VE1000_randls_66_rotated.json,914325,1130850,26,Woman
16,480789,DepthScenes,duration_manipulation_targetAtFixation,jsons/v1_VE1000_randls_66_rotated.json,http://54.235.29.9/FacialAge/BNav_EC2/DepthDuration/v2_depth_duration_MTurk/v2_DepthDuration_HTML.html#251,251,1280,720,1280,720,8-30-2022,9-53-22,17,depth_duration_stimuli/003048_2014-06-15_13-49-43_094959634447_rgbf000150-resize_1/003048_2014-06-15_13-49-43_094959634447_rgbf000150-resize_1-target.png,1000,4.0035,0.45,3439,1000,meters,jsons/v1_VE1000_randls_66_rotated.json,914325,1130850,26,Woman
17,480789,DepthScenes,duration_manipulation_targetAtFixation,jsons/v1_VE1000_randls_66_rotated.json,http://54.235.29.9/FacialAge/BNav_EC2/DepthDuration/v2_depth_duration_MTurk/v2_DepthDuration_HTML.html#251,251,1280,720,1280,720,8-30-2022,9-53-22,18,depth_duration_stimuli/002043_2014-06-24_20-29-38_260595134347_rgbf000039-resize_4/002043_2014-06-24_20-29-38_260595134347_rgbf000039-resize_4-target.png,1000,2.8435,0.25,3654,1011,meters,jsons/v1_VE1000_randls_66_rotated.json,914325,1130850,26,Woman
18,480789,DepthScenes,duration_manipulation_targetAtFixation,jsons/v1_VE1000_randls_66_rotated.json,http://54.235.29.9/FacialAge/BNav_EC2/DepthDuration/v2_depth_duration_MTurk/v2_DepthDuration_HTML.html#251,251,1280,720,1280,720,8-30-2022,9-53-22,19,depth_duration_stimuli/001498_2014-06-19_17-45-14_260595134347_rgbf000129-resize_4/001498_2014-06-19_17-45-14_260595134347_rgbf000129-resize-original.jpg,1000,1.4075,0.0,3146,999,meters,jsons/v1_VE1000_randls_66_rotated.json,914325,1130850,26,Woman
19,480789,DepthScenes,duration_manipulation_targetAtFixation,jsons/v1_VE1000_randls_66_rotated.json,http://54.235.29.9/FacialAge/BNav_EC2/DepthDuration/v2_depth_duration_MTurk/v2_DepthDuration_HTML.html#251,251,1280,720,1280,720,8-30-2022,9-53-22,20,depth_duration_stimuli/000549_2014-06-08_22-10-24_260595134347_rgbf000247-resize_3/000549_2014-06-08_22-10-24_260595134347_rgbf000247-resize_3-target.png,1000,1.841,0.15,3826,983,meters,jsons/v1_VE1000_randls_66_rotated.json,914325,1130850,26,Woman
20,480789,DepthScenes,duration_manipulation_targetAtFixation,jsons/v1_VE1000_randls_66_rotated.json,http://54.235.29.9/FacialAge/BNav_EC2/DepthDuration/v2_depth_duration_MTurk/v2_DepthDuration_HTML.html#251,251,1280,720,1280,720,8-30-2022,9-53-22,21,depth_duration_stimuli/001055_2014-06-08_18-45-35_260595134347_rgbf000111-resize_4/001055_2014-06-08_18-45-35_260595134347_rgbf000111-resize_4-target.png,1000,2.4290000000000003,0.2,3706,1000,meters,jsons/v1_VE1000_randls_66_rotated.json,914325,1130850,26,Woman
21,480789,DepthScenes,duration_manipulation_targetAtFixation,jsons/v1_VE1000_randls_66_rotated.json,http://54.235.29.9/FacialAge/BNav_EC2/DepthDuration/v2_depth_duration_MTurk/v2_DepthDuration_HTML.html#251,251,1280,720,1280,720,8-30-2022,9-53-22,22,depth_duration_stimuli/002344_2014-06-28_20-06-29_260595134347_rgbf000030-resize_1/002344_2014-06-28_20-06-29_260595134347_rgbf000030-resize_1-target.png,1000,1.5795,0.25,3633,1000,meters,jsons/v1_VE1000_randls_66_rotated.json,914325,1130850,26,Woman
22,480789,DepthScenes,duration_manipulation_targetAtFixation,jsons/v1_VE1000_randls_66_rotated.json,http://54.235.29.9/FacialAge/BNav_EC2/DepthDuration/v2_depth_duration_MTurk/v2_DepthDuration_HTML.html#251,251,1280,720,1280,720,8-30-2022,9-53-22,23,depth_duration_stimuli/002725_2014-06-22_11-47-51_094959634447_rgbf000070-resize_1/002725_2014-06-22_11-47-51_094959634447_rgbf000070-resize_1-target.png,1000,2.195,0.3,3772,998,meters,jsons/v1_VE1000_randls_66_rotated.json,914325,1130850,26,Woman
23,480789,DepthScenes,duration_manipulation_targetAtFixation,jsons/v1_VE1000_randls_66_rotated.json,http://54.235.29.9/FacialAge/BNav_EC2/DepthDuration/v2_depth_duration_MTurk/v2_DepthDuration_HTML.html#251,251,1280,720,1280,720,8-30-2022,9-53-22,24,depth_duration_stimuli/002953_2014-06-08_17-32-18_094959634447_rgbf000059-resize_5/002953_2014-06-08_17-32-18_094959634447_rgbf000059-resize_5-target.png,1000,1.551,0.35,3797,999,meters,jsons/v1_VE1000_randls_66_rotated.json,914325,1130850,26,Woman
24,480789,DepthScenes,duration_manipulation_targetAtFixation,jsons/v1_VE1000_randls_66_rotated.json,http://54.235.29.9/FacialAge/BNav_EC2/DepthDuration/v2_depth_duration_MTurk/v2_DepthDuration_HTML.html#251,251,1280,720,1280,720,8-30-2022,9-53-22,25,depth_duration_stimuli/000878_2014-06-08_22-52-45_260595134347_rgbf000045-resize_2/000878_2014-06-08_22-52-45_260595134347_rgbf000045-resize_2-target.png,1000,2.092,0.45,3346,808,meters,jsons/v1_VE1000_randls_66_rotated.json,914325,1130850,26,Woman
25,480789,DepthScenes,duration_manipulation_targetAtFixation,jsons/v1_VE1000_randls_66_rotated.json,http://54.235.29.9/FacialAge/BNav_EC2/DepthDuration/v2_depth_duration_MTurk/v2_DepthDuration_HTML.html#251,251,1280,720,1280,720,8-30-2022,9-53-22,26,depth_duration_stimuli/001392_2014-06-19_16-07-59_260595134347_rgbf000046-resize_1/001392_2014-06-19_16-07-59_260595134347_rgbf000046-resize_1-target.png,1000,4.135,0.5,3554,999,meters,jsons/v1_VE1000_randls_66_rotated.json,914325,1130850,26,Woman
26,480789,DepthScenes,duration_manipulation_targetAtFixation,jsons/v1_VE1000_randls_66_rotated.json,http://54.235.29.9/FacialAge/BNav_EC2/DepthDuration/v2_depth_duration_MTurk/v2_DepthDuration_HTML.html#251,251,1280,720,1280,720,8-30-2022,9-53-22,27,depth_duration_stimuli/001570_2014-06-20_17-21-09_260595134347_rgbf000135-resize_4/001570_2014-06-20_17-21-09_260595134347_rgbf000135-resize_4-target.png,1000,4.467,0.6,3291,984,meters,jsons/v1_VE1000_randls_66_rotated.json,914325,1130850,26,Woman
27,480789,DepthScenes,duration_manipulation_targetAtFixation,jsons/v1_VE1000_randls_66_rotated.json,http://54.235.29.9/FacialAge/BNav_EC2/DepthDuration/v2_depth_duration_MTurk/v2_DepthDuration_HTML.html#251,251,1280,720,1280,720,8-30-2022,9-53-22,28,depth_duration_stimuli/000927_2014-06-09_16-32-30_260595134347_rgbf000123-resize_3/000927_2014-06-09_16-32-30_260595134347_rgbf000123-resize_3-target.png,1000,2.6785,0.25,3354,1000,meters,jsons/v1_VE1000_randls_66_rotated.json,914325,1130850,26,Woman
28,480789,DepthScenes,duration_manipulation_targetAtFixation,jsons/v1_VE1000_randls_66_rotated.json,http://54.235.29.9/FacialAge/BNav_EC2/DepthDuration/v2_depth_duration_MTurk/v2_DepthDuration_HTML.html#251,251,1280,720,1280,720,8-30-2022,9-53-22,29,depth_duration_stimuli/001110_2014-06-15_17-25-28_260595134347_rgbf000150-resize_1/001110_2014-06-15_17-25-28_260595134347_rgbf000150-resize_1-target.png,1000,1.7115,0.25,3771,1000,meters,jsons/v1_VE1000_randls_66_rotated.json,914325,1130850,26,Woman
29,480789,DepthScenes,duration_manipulation_targetAtFixation,jsons/v1_VE1000_randls_66_rotated.json,http://54.235.29.9/FacialAge/BNav_EC2/DepthDuration/v2_depth_duration_MTurk/v2_DepthDuration_HTML.html#251,251,1280,720,1280,720,8-30-2022,9-53-22,30,depth_duration_stimuli/002072_2014-06-24_21-48-06_260595134347_rgbf000115-resize_0/002072_2014-06-24_21-48-06_260595134347_rgbf000115-resize-original.jpg,1000,4.702,0.0,2823,999,meters,jsons/v1_VE1000_randls_66_rotated.json,914325,1130850,26,Woman
30,480789,DepthScenes,duration_manipulation_targetAtFixation,jsons/v1_VE1000_randls_66_rotated.json,http://54.235.29.9/FacialAge/BNav_EC2/DepthDuration/v2_depth_duration_MTurk/v2_DepthDuration_HTML.html#251,251,1280,720,1280,720,8-30-2022,9-53-22,31,depth_duration_stimuli/003495_2014-05-21_16-01-51_094959634447_rgbf000100-resize_3/003495_2014-05-21_16-01-51_094959634447_rgbf000100-resize_3-target.png,1000,1.6255,0.15,3310,822,meters,jsons/v1_VE1000_randls_66_rotated.json,914325,1130850,26,Woman
31,480789,DepthScenes,duration_manipulation_targetAtFixation,jsons/v1_VE1000_randls_66_rotated.json,http://54.235.29.9/FacialAge/BNav_EC2/DepthDuration/v2_depth_duration_MTurk/v2_DepthDuration_HTML.html#251,251,1280,720,1280,720,8-30-2022,9-53-22,32,depth_duration_stimuli/001244_2014-06-17_16-47-45_260595134347_rgbf000030-resize_4/001244_2014-06-17_16-47-45_260595134347_rgbf000030-resize_4-target.png,1000,2.0425,0.25,3525,977,meters,jsons/v1_VE1000_randls_66_rotated.json,914325,1130850,26,Woman
32,480789,DepthScenes,duration_manipulation_targetAtFixation,jsons/v1_VE1000_randls_66_rotated.json,http://54.235.29.9/FacialAge/BNav_EC2/DepthDuration/v2_depth_duration_MTurk/v2_DepthDuration_HTML.html#251,251,1280,720,1280,720,8-30-2022,9-53-22,33,depth_duration_stimuli/002660_2014-06-13_15-44-18_094959634447_rgbf001878-resize_2/002660_2014-06-13_15-44-18_094959634447_rgbf001878-resize_2-target.png,1000,3.576,0.35,3510,998,meters,jsons/v1_VE1000_randls_66_rotated.json,914325,1130850,26,Woman
33,480789,DepthScenes,duration_manipulation_targetAtFixation,jsons/v1_VE1000_randls_66_rotated.json,http://54.235.29.9/FacialAge/BNav_EC2/DepthDuration/v2_depth_duration_MTurk/v2_DepthDuration_HTML.html#251,251,1280,720,1280,720,8-30-2022,9-53-22,34,depth_duration_stimuli/002153_2014-06-25_21-27-18_260595134347_rgbf000038-resize_5/002153_2014-06-25_21-27-18_260595134347_rgbf000038-resize_5-target.png,1000,2.505,0.5,3831,995,meters,jsons/v1_VE1000_randls_66_rotated.json,914325,1130850,26,Woman
34,480789,DepthScenes,duration_manipulation_targetAtFixation,jsons/v1_VE1000_randls_66_rotated.json,http://54.235.29.9/FacialAge/BNav_EC2/DepthDuration/v2_depth_duration_MTurk/v2_DepthDuration_HTML.html#251,251,1280,720,1280,720,8-30-2022,9-53-22,35,depth_duration_stimuli/000866_2014-06-09_20-45-42_260595134347_rgbf000139-resize_1/000866_2014-06-09_20-45-42_260595134347_rgbf000139-resize_1-target.png,1000,3.2155,0.25,3547,1000,meters,jsons/v1_VE1000_randls_66_rotated.json,914325,1130850,26,Woman
35,480789,DepthScenes,duration_manipulation_targetAtFixation,jsons/v1_VE1000_randls_66_rotated.json,http://54.235.29.9/FacialAge/BNav_EC2/DepthDuration/v2_depth_duration_MTurk/v2_DepthDuration_HTML.html#251,251,1280,720,1280,720,8-30-2022,9-53-22,36,depth_duration_stimuli/002989_2014-06-15_12-25-03_094959634447_rgbf000150-resize_3/002989_2014-06-15_12-25-03_094959634447_rgbf000150-resize_3-target.png,1000,4.1975,0.5,3640,999,meters,jsons/v1_VE1000_randls_66_rotated.json,914325,1130850,26,Woman
36,480789,DepthScenes,duration_manipulation_targetAtFixation,jsons/v1_VE1000_randls_66_rotated.json,http://54.235.29.9/FacialAge/BNav_EC2/DepthDuration/v2_depth_duration_MTurk/v2_DepthDuration_HTML.html#251,251,1280,720,1280,720,8-30-2022,9-53-22,37,depth_duration_stimuli/002639_2014-06-24_14-51-37_094959634447_rgbf000074-resize_4/002639_2014-06-24_14-51-37_094959634447_rgbf000074-resize_4-target.png,1000,4.0375,0.653,3941,1000,meters,jsons/v1_VE1000_randls_66_rotated.json,914325,1130850,26,Woman
37,480789,DepthScenes,duration_manipulation_targetAtFixation,jsons/v1_VE1000_randls_66_rotated.json,http://54.235.29.9/FacialAge/BNav_EC2/DepthDuration/v2_depth_duration_MTurk/v2_DepthDuration_HTML.html#251,251,1280,720,1280,720,8-30-2022,9-53-22,38,depth_duration_stimuli/003292_2014-05-14_21-53-49_094959634447_rgbf000100-resize_2/003292_2014-05-14_21-53-49_094959634447_rgbf000100-resize_2-target.png,1000,3.4815,0.25,3349,1004,meters,jsons/v1_VE1000_randls_66_rotated.json,914325,1130850,26,Woman
38,480789,DepthScenes,duration_manipulation_targetAtFixation,jsons/v1_VE1000_randls_66_rotated.json,http://54.235.29.9/FacialAge/BNav_EC2/DepthDuration/v2_depth_duration_MTurk/v2_DepthDuration_HTML.html#251,251,1280,720,1280,720,8-30-2022,9-53-22,39,depth_duration_stimuli/001650_2014-06-20_12-09-00_260595134347_rgbf000087-resize_3/001650_2014-06-20_12-09-00_260595134347_rgbf000087-resize_3-target.png,1000,1.9505,0.25,3972,1168,meters,jsons/v1_VE1000_randls_66_rotated.json,914325,1130850,26,Woman
39,480789,DepthScenes,duration_manipulation_targetAtFixation,jsons/v1_VE1000_randls_66_rotated.json,http://54.235.29.9/FacialAge/BNav_EC2/DepthDuration/v2_depth_duration_MTurk/v2_DepthDuration_HTML.html#251,251,1280,720,1280,720,8-30-2022,9-53-22,40,depth_duration_stimuli/000682_2014-06-08_23-14-58_260595134347_rgbf000041-resize_5/000682_2014-06-08_23-14-58_260595134347_rgbf000041-resize_5-target.png,1000,2.7239999999999998,0.3,3653,1060,meters,jsons/v1_VE1000_randls_66_rotated.json,914325,1130850,26,Woman
40,480789,DepthScenes,duration_manipulation_targetAtFixation,jsons/v1_VE1000_randls_66_rotated.json,http://54.235.29.9/FacialAge/BNav_EC2/DepthDuration/v2_depth_duration_MTurk/v2_DepthDuration_HTML.html#251,251,1280,720,1280,720,8-30-2022,9-53-22,41,depth_duration_stimuli/000409_2014-06-04_19-23-33_260595134347_rgbf000067-resize_0/000409_2014-06-04_19-23-33_260595134347_rgbf000067-resize_0-target.png,1000,3.7335,0.25,4671,998,meters,jsons/v1_VE1000_randls_66_rotated.json,914325,1130850,26,Woman
41,480789,DepthScenes,duration_manipulation_targetAtFixation,jsons/v1_VE1000_randls_66_rotated.json,http://54.235.29.9/FacialAge/BNav_EC2/DepthDuration/v2_depth_duration_MTurk/v2_DepthDuration_HTML.html#251,251,1280,720,1280,720,8-30-2022,9-53-22,42,depth_duration_stimuli/002663_2014-06-13_15-50-26_094959634447_rgbf000075-resize_1/002663_2014-06-13_15-50-26_094959634447_rgbf000075-resize_1-target.png,1000,4.7495,0.5,3665,999,meters,jsons/v1_VE1000_randls_66_rotated.json,914325,1130850,26,Woman
42,480789,DepthScenes,duration_manipulation_targetAtFixation,jsons/v1_VE1000_randls_66_rotated.json,http://54.235.29.9/FacialAge/BNav_EC2/DepthDuration/v2_depth_duration_MTurk/v2_DepthDuration_HTML.html#251,251,1280,720,1280,720,8-30-2022,9-53-22,43,depth_duration_stimuli/003129_2014-05-12_10-48-10_094959634447_rgbf000100-resize_0/003129_2014-05-12_10-48-10_094959634447_rgbf000100-resize_0-target.png,1000,4.9305,0.35,4225,999,meters,jsons/v1_VE1000_randls_66_rotated.json,914325,1130850,26,Woman
43,480789,DepthScenes,duration_manipulation_targetAtFixation,jsons/v1_VE1000_randls_66_rotated.json,http://54.235.29.9/FacialAge/BNav_EC2/DepthDuration/v2_depth_duration_MTurk/v2_DepthDuration_HTML.html#251,251,1280,720,1280,720,8-30-2022,9-53-22,44,depth_duration_stimuli/000414_2014-06-04_19-49-13_260595134347_rgbf000044-resize_0/000414_2014-06-04_19-49-13_260595134347_rgbf000044-resize_0-target.png,1000,4.329,0.25,4487,992,meters,jsons/v1_VE1000_randls_66_rotated.json,914325,1130850,26,Woman
44,480789,DepthScenes,duration_manipulation_targetAtFixation,jsons/v1_VE1000_randls_66_rotated.json,http://54.235.29.9/FacialAge/BNav_EC2/DepthDuration/v2_depth_duration_MTurk/v2_DepthDuration_HTML.html#251,251,1280,720,1280,720,8-30-2022,9-53-22,45,depth_duration_stimuli/001617_2014-06-20_11-35-32_260595134347_rgbf000066-resize_1/001617_2014-06-20_11-35-32_260595134347_rgbf000066-resize_1-target.png,1000,3.7910000000000004,0.35,3771,999,meters,jsons/v1_VE1000_randls_66_rotated.json,914325,1130850,26,Woman
45,480789,DepthScenes,duration_manipulation_targetAtFixation,jsons/v1_VE1000_randls_66_rotated.json,http://54.235.29.9/FacialAge/BNav_EC2/DepthDuration/v2_depth_duration_MTurk/v2_DepthDuration_HTML.html#251,251,1280,720,1280,720,8-30-2022,9-53-22,46,depth_duration_stimuli/001806_2014-06-26_20-50-20_260595134347_rgbf000091-resize_1/001806_2014-06-26_20-50-20_260595134347_rgbf000091-resize_1-target.png,1000,2.7305,0.25,3307,945,meters,jsons/v1_VE1000_randls_66_rotated.json,914325,1130850,26,Woman
46,480789,DepthScenes,duration_manipulation_targetAtFixation,jsons/v1_VE1000_randls_66_rotated.json,http://54.235.29.9/FacialAge/BNav_EC2/DepthDuration/v2_depth_duration_MTurk/v2_DepthDuration_HTML.html#251,251,1280,720,1280,720,8-30-2022,9-53-22,47,depth_duration_stimuli/000677_2014-06-08_23-10-32_260595134347_rgbf000158-resize_6/000677_2014-06-08_23-10-32_260595134347_rgbf000158-resize_6-target.png,1000,3.556,0.35,3578,999,meters,jsons/v1_VE1000_randls_66_rotated.json,914325,1130850,26,Woman
47,480789,DepthScenes,duration_manipulation_targetAtFixation,jsons/v1_VE1000_randls_66_rotated.json,http://54.235.29.9/FacialAge/BNav_EC2/DepthDuration/v2_depth_duration_MTurk/v2_DepthDuration_HTML.html#251,251,1280,720,1280,720,8-30-2022,9-53-22,48,depth_duration_stimuli/001029_2014-06-08_13-17-57_260595134347_rgbf000065-resize_1/001029_2014-06-08_13-17-57_260595134347_rgbf000065-resize_1-target.png,1000,3.0835,0.25,3245,1005,meters,jsons/v1_VE1000_randls_66_rotated.json,914325,1130850,26,Woman
48,480789,DepthScenes,duration_manipulation_targetAtFixation,jsons/v1_VE1000_randls_66_rotated.json,http://54.235.29.9/FacialAge/BNav_EC2/DepthDuration/v2_depth_duration_MTurk/v2_DepthDuration_HTML.html#251,251,1280,720,1280,720,8-30-2022,9-53-22,49,depth_duration_stimuli/001170_2014-06-17_15-43-44_260595134347_rgbf000096-resize_6/001170_2014-06-17_15-43-44_260595134347_rgbf000096-resize-original.jpg,1000,1.1909999999999998,0.0,2978,759,meters,jsons/v1_VE1000_randls_66_rotated.json,914325,1130850,26,Woman
49,480789,DepthScenes,duration_manipulation_targetAtFixation,jsons/v1_VE1000_randls_66_rotated.json,http://54.235.29.9/FacialAge/BNav_EC2/DepthDuration/v2_depth_duration_MTurk/v2_DepthDuration_HTML.html#251,251,1280,720,1280,720,8-30-2022,9-53-22,50,depth_duration_stimuli/002657_2014-06-13_15-29-54_094959634447_rgbf000150-resize_1/002657_2014-06-13_15-29-54_094959634447_rgbf000150-resize_1-target.png,1000,4.919,0.35,3543,998,meters,jsons/v1_VE1000_randls_66_rotated.json,914325,1130850,26,Woman
50,480789,DepthScenes,duration_manipulation_targetAtFixation,jsons/v1_VE1000_randls_66_rotated.json,http://54.235.29.9/FacialAge/BNav_EC2/DepthDuration/v2_depth_duration_MTurk/v2_DepthDuration_HTML.html#251,251,1280,720,1280,720,8-30-2022,9-53-22,51,depth_duration_stimuli/002375_2014-06-28_20-13-44_260595134347_rgbf000032-resize_1/002375_2014-06-28_20-13-44_260595134347_rgbf000032-resize_1-target.png,1000,4.0175,0.25,3383,998,meters,jsons/v1_VE1000_randls_66_rotated.json,914325,1130850,26,Woman
51,480789,DepthScenes,duration_manipulation_targetAtFixation,jsons/v1_VE1000_randls_66_rotated.json,http://54.235.29.9/FacialAge/BNav_EC2/DepthDuration/v2_depth_duration_MTurk/v2_DepthDuration_HTML.html#251,251,1280,720,1280,720,8-30-2022,9-53-22,52,depth_duration_stimuli/000709_2014-06-08_13-51-55_260595134347_rgbf000068-resize_3/000709_2014-06-08_13-51-55_260595134347_rgbf000068-resize_3-target.png,1000,1.8030000000000002,0.5,4735,999,meters,jsons/v1_VE1000_randls_66_rotated.json,914325,1130850,26,Woman
52,480789,DepthScenes,duration_manipulation_targetAtFixation,jsons/v1_VE1000_randls_66_rotated.json,http://54.235.29.9/FacialAge/BNav_EC2/DepthDuration/v2_depth_duration_MTurk/v2_DepthDuration_HTML.html#251,251,1280,720,1280,720,8-30-2022,9-53-22,53,depth_duration_stimuli/002057_2014-06-24_21-00-13_260595134347_rgbf000120-resize_1/002057_2014-06-24_21-00-13_260595134347_rgbf000120-resize_1-target.png,1000,2.967,0.25,3080,780,meters,jsons/v1_VE1000_randls_66_rotated.json,914325,1130850,26,Woman
53,480789,DepthScenes,duration_manipulation_targetAtFixation,jsons/v1_VE1000_randls_66_rotated.json,http://54.235.29.9/FacialAge/BNav_EC2/DepthDuration/v2_depth_duration_MTurk/v2_DepthDuration_HTML.html#251,251,1280,720,1280,720,8-30-2022,9-53-22,54,depth_duration_stimuli/001235_2014-06-17_16-37-36_260595134347_rgbf000084-resize_4/001235_2014-06-17_16-37-36_260595134347_rgbf000084-resize_4-target.png,1000,3.6605,0.35,3181,796,meters,jsons/v1_VE1000_randls_66_rotated.json,914325,1130850,26,Woman
54,480789,DepthScenes,duration_manipulation_targetAtFixation,jsons/v1_VE1000_randls_66_rotated.json,http://54.235.29.9/FacialAge/BNav_EC2/DepthDuration/v2_depth_duration_MTurk/v2_DepthDuration_HTML.html#251,251,1280,720,1280,720,8-30-2022,9-53-22,55,depth_duration_stimuli/000788_2014-06-08_22-34-36_260595134347_rgbf000131-resize_1/000788_2014-06-08_22-34-36_260595134347_rgbf000131-resize_1-target.png,1000,3.359,0.35,4974,999,meters,jsons/v1_VE1000_randls_66_rotated.json,914325,1130850,26,Woman
55,480789,DepthScenes,duration_manipulation_targetAtFixation,jsons/v1_VE1000_randls_66_rotated.json,http://54.235.29.9/FacialAge/BNav_EC2/DepthDuration/v2_depth_duration_MTurk/v2_DepthDuration_HTML.html#251,251,1280,720,1280,720,8-30-2022,9-53-22,56,depth_duration_stimuli/001516_2014-06-20_16-25-09_260595134347_rgbf000076-resize_2/001516_2014-06-20_16-25-09_260595134347_rgbf000076-resize_2-target.png,1000,1.7445,0.25,3459,1148,meters,jsons/v1_VE1000_randls_66_rotated.json,914325,1130850,26,Woman
56,480789,DepthScenes,duration_manipulation_targetAtFixation,jsons/v1_VE1000_randls_66_rotated.json,http://54.235.29.9/FacialAge/BNav_EC2/DepthDuration/v2_depth_duration_MTurk/v2_DepthDuration_HTML.html#251,251,1280,720,1280,720,8-30-2022,9-53-22,57,depth_duration_stimuli/002118_2014-06-25_20-32-08_260595134347_rgbf000078-resize_1/002118_2014-06-25_20-32-08_260595134347_rgbf000078-resize_1-target.png,1000,2.6460000000000004,0.25,3589,1035,meters,jsons/v1_VE1000_randls_66_rotated.json,914325,1130850,26,Woman
57,480789,DepthScenes,duration_manipulation_targetAtFixation,jsons/v1_VE1000_randls_66_rotated.json,http://54.235.29.9/FacialAge/BNav_EC2/DepthDuration/v2_depth_duration_MTurk/v2_DepthDuration_HTML.html#251,251,1280,720,1280,720,8-30-2022,9-53-22,58,depth_duration_stimuli/000109_2014-05-14_23-41-52_260595134347_rgbf000035-resize_9/000109_2014-05-14_23-41-52_260595134347_rgbf000035-resize_9-target.png,1000,1.3545,0.65,3187,737,meters,jsons/v1_VE1000_randls_66_rotated.json,914325,1130850,26,Woman
58,480789,DepthScenes,duration_manipulation_targetAtFixation,jsons/v1_VE1000_randls_66_rotated.json,http://54.235.29.9/FacialAge/BNav_EC2/DepthDuration/v2_depth_duration_MTurk/v2_DepthDuration_HTML.html#251,251,1280,720,1280,720,8-30-2022,9-53-22,59,depth_duration_stimuli/000470_2014-06-09_19-42-40_260595134347_rgbf000094-resize_1/000470_2014-06-09_19-42-40_260595134347_rgbf000094-resize_1-target.png,1000,1.831,0.65,4416,966,meters,jsons/v1_VE1000_randls_66_rotated.json,914325,1130850,26,Woman
59,480789,DepthScenes,duration_manipulation_targetAtFixation,jsons/v1_VE1000_randls_66_rotated.json,http://54.235.29.9/FacialAge/BNav_EC2/DepthDuration/v2_depth_duration_MTurk/v2_DepthDuration_HTML.html#251,251,1280,720,1280,720,8-30-2022,9-53-22,60,depth_duration_stimuli/003081_2014-06-15_15-19-16_094959634447_rgbf000150-resize_1/003081_2014-06-15_15-19-16_094959634447_rgbf000150-resize_1-target.png,1000,3.9125,0.25,3483,999,meters,jsons/v1_VE1000_randls_66_rotated.json,914325,1130850,26,Woman
60,480789,DepthScenes,duration_manipulation_targetAtFixation,jsons/v1_VE1000_randls_66_rotated.json,http://54.235.29.9/FacialAge/BNav_EC2/DepthDuration/v2_depth_duration_MTurk/v2_DepthDuration_HTML.html#251,251,1280,577,1280,720,8-30-2022,9-53-22,61,depth_duration_stimuli/001417_2014-06-19_16-25-36_260595134347_rgbf000115-resize_5/001417_2014-06-19_16-25-36_260595134347_rgbf000115-resize_5-target.png,1000,4.6255,0.35,130728,1033,meters,jsons/v1_VE1000_randls_66_rotated.json,914325,1130850,26,Woman
61,480789,DepthScenes,duration_manipulation_targetAtFixation,jsons/v1_VE1000_randls_66_rotated.json,http://54.235.29.9/FacialAge/BNav_EC2/DepthDuration/v2_depth_duration_MTurk/v2_DepthDuration_HTML.html#251,251,1280,577,1280,720,8-30-2022,9-53-22,62,depth_duration_stimuli/003079_2014-06-15_15-18-20_094959634447_rgbf000152-resize_8/003079_2014-06-15_15-18-20_094959634447_rgbf000152-resize_8-target.png,1000,2.8775,0.45,4312,989,meters,jsons/v1_VE1000_randls_66_rotated.json,914325,1130850,26,Woman
62,480789,DepthScenes,duration_manipulation_targetAtFixation,jsons/v1_VE1000_randls_66_rotated.json,http://54.235.29.9/FacialAge/BNav_EC2/DepthDuration/v2_depth_duration_MTurk/v2_DepthDuration_HTML.html#251,251,1280,577,1280,720,8-30-2022,9-53-22,63,depth_duration_stimuli/000506_2014-06-08_23-21-00_260595134347_rgbf000070-resize_7/000506_2014-06-08_23-21-00_260595134347_rgbf000070-resize_7-target.png,1000,4.0585,0.25,3409,997,meters,jsons/v1_VE1000_randls_66_rotated.json,914325,1130850,26,Woman
63,480789,DepthScenes,duration_manipulation_targetAtFixation,jsons/v1_VE1000_randls_66_rotated.json,http://54.235.29.9/FacialAge/BNav_EC2/DepthDuration/v2_depth_duration_MTurk/v2_DepthDuration_HTML.html#251,251,1280,577,1280,720,8-30-2022,9-53-22,64,depth_duration_stimuli/000854_2014-06-09_19-43-13_260595134347_rgbf000066-resize_0/000854_2014-06-09_19-43-13_260595134347_rgbf000066-resize_0-target.png,1000,3.068,0.25,3947,1000,meters,jsons/v1_VE1000_randls_66_rotated.json,914325,1130850,26,Woman
64,480789,DepthScenes,duration_manipulation_targetAtFixation,jsons/v1_VE1000_randls_66_rotated.json,http://54.235.29.9/FacialAge/BNav_EC2/DepthDuration/v2_depth_duration_MTurk/v2_DepthDuration_HTML.html#251,251,1280,577,1280,720,8-30-2022,9-53-22,65,depth_duration_stimuli/000758_2014-06-08_22-05-08_260595134347_rgbf000085-resize_0/000758_2014-06-08_22-05-08_260595134347_rgbf000085-resize_0-target.png,1000,3.3810000000000002,0.25,3908,999,meters,jsons/v1_VE1000_randls_66_rotated.json,914325,1130850,26,Woman
65,480789,DepthScenes,duration_manipulation_targetAtFixation,jsons/v1_VE1000_randls_66_rotated.json,http://54.235.29.9/FacialAge/BNav_EC2/DepthDuration/v2_depth_duration_MTurk/v2_DepthDuration_HTML.html#251,251,1280,577,1280,720,8-30-2022,9-53-22,66,depth_duration_stimuli/001540_2014-06-20_17-01-05_260595134347_rgbf000086-resize_2/001540_2014-06-20_17-01-05_260595134347_rgbf000086-resize-original.jpg,1000,1.459,0.0,3197,908,meters,jsons/v1_VE1000_randls_66_rotated.json,914325,1130850,26,Woman
66,480789,DepthScenes,duration_manipulation_targetAtFixation,jsons/v1_VE1000_randls_66_rotated.json,http://54.235.29.9/FacialAge/BNav_EC2/DepthDuration/v2_depth_duration_MTurk/v2_DepthDuration_HTML.html#251,251,1280,577,1280,720,8-30-2022,9-53-22,67,depth_duration_stimuli/003338_2014-05-20_11-01-23_094959634447_rgbf000051-resize_6/003338_2014-05-20_11-01-23_094959634447_rgbf000051-resize_6-target.png,1000,1.693,0.25,4419,1009,meters,jsons/v1_VE1000_randls_66_rotated.json,914325,1130850,26,Woman
67,480789,DepthScenes,duration_manipulation_targetAtFixation,jsons/v1_VE1000_randls_66_rotated.json,http://54.235.29.9/FacialAge/BNav_EC2/DepthDuration/v2_depth_duration_MTurk/v2_DepthDuration_HTML.html#251,251,1280,577,1280,720,8-30-2022,9-53-22,68,depth_duration_stimuli/002509_2014-06-24_13-19-22_094959634447_rgbf000077-resize_0/002509_2014-06-24_13-19-22_094959634447_rgbf000077-resize_0-target.png,1000,1.3065,0.15,3307,1002,meters,jsons/v1_VE1000_randls_66_rotated.json,914325,1130850,26,Woman
68,480789,DepthScenes,duration_manipulation_targetAtFixation,jsons/v1_VE1000_randls_66_rotated.json,http://54.235.29.9/FacialAge/BNav_EC2/DepthDuration/v2_depth_duration_MTurk/v2_DepthDuration_HTML.html#251,251,1280,577,1280,720,8-30-2022,9-53-22,69,depth_duration_stimuli/001815_2014-06-26_20-52-55_260595134347_rgbf000020-resize_0/001815_2014-06-26_20-52-55_260595134347_rgbf000020-resize_0-target.png,1000,3.3865,0.5,4842,999,meters,jsons/v1_VE1000_randls_66_rotated.json,914325,1130850,26,Woman
69,480789,DepthScenes,duration_manipulation_targetAtFixation,jsons/v1_VE1000_randls_66_rotated.json,http://54.235.29.9/FacialAge/BNav_EC2/DepthDuration/v2_depth_duration_MTurk/v2_DepthDuration_HTML.html#251,251,1280,577,1280,720,8-30-2022,9-53-22,70,depth_duration_stimuli/001808_2014-06-26_20-50-58_260595134347_rgbf000029-resize_1/001808_2014-06-26_20-50-58_260595134347_rgbf000029-resize_1-target.png,1000,4.249,0.5,3308,999,meters,jsons/v1_VE1000_randls_66_rotated.json,914325,1130850,26,Woman
70,480789,DepthScenes,duration_manipulation_targetAtFixation,jsons/v1_VE1000_randls_66_rotated.json,http://54.235.29.9/FacialAge/BNav_EC2/DepthDuration/v2_depth_duration_MTurk/v2_DepthDuration_HTML.html#251,251,1280,577,1280,720,8-30-2022,9-53-22,71,depth_duration_stimuli/000665_2014-06-09_20-42-35_260595134347_rgbf000110-resize_1/000665_2014-06-09_20-42-35_260595134347_rgbf000110-resize_1-target.png,1000,3.057,0.45,3733,1123,meters,jsons/v1_VE1000_randls_66_rotated.json,914325,1130850,26,Woman
71,480789,DepthScenes,duration_manipulation_targetAtFixation,jsons/v1_VE1000_randls_66_rotated.json,http://54.235.29.9/FacialAge/BNav_EC2/DepthDuration/v2_depth_duration_MTurk/v2_DepthDuration_HTML.html#251,251,1280,577,1280,720,8-30-2022,9-53-22,72,depth_duration_stimuli/001150_2014-06-17_15-27-34_260595134347_rgbf000108-resize_2/001150_2014-06-17_15-27-34_260595134347_rgbf000108-resize_2-target.png,1000,4.0325,0.45,3289,994,meters,jsons/v1_VE1000_randls_66_rotated.json,914325,1130850,26,Woman
72,480789,DepthScenes,duration_manipulation_targetAtFixation,jsons/v1_VE1000_randls_66_rotated.json,http://54.235.29.9/FacialAge/BNav_EC2/DepthDuration/v2_depth_duration_MTurk/v2_DepthDuration_HTML.html#251,251,1280,577,1280,720,8-30-2022,9-53-22,73,depth_duration_stimuli/002323_2014-06-28_20-01-54_260595134347_rgbf000051-resize_4/002323_2014-06-28_20-01-54_260595134347_rgbf000051-resize_4-target.png,1000,3.7310000000000003,0.5,3398,871,meters,jsons/v1_VE1000_randls_66_rotated.json,914325,1130850,26,Woman
73,480789,DepthScenes,duration_manipulation_targetAtFixation,jsons/v1_VE1000_randls_66_rotated.json,http://54.235.29.9/FacialAge/BNav_EC2/DepthDuration/v2_depth_duration_MTurk/v2_DepthDuration_HTML.html#251,251,1280,577,1280,720,8-30-2022,9-53-22,74,depth_duration_stimuli/000917_2014-06-09_22-45-29_260595134347_rgbf000149-resize_3/000917_2014-06-09_22-45-29_260595134347_rgbf000149-resize_3-target.png,1000,4.1865,0.25,3855,999,meters,jsons/v1_VE1000_randls_66_rotated.json,914325,1130850,26,Woman
74,480789,DepthScenes,duration_manipulation_targetAtFixation,jsons/v1_VE1000_randls_66_rotated.json,http://54.235.29.9/FacialAge/BNav_EC2/DepthDuration/v2_depth_duration_MTurk/v2_DepthDuration_HTML.html#251,251,1280,577,1280,720,8-30-2022,9-53-22,75,depth_duration_stimuli/003423_2014-05-21_10-23-26_094959634447_rgbf002665-resize_2/003423_2014-05-21_10-23-26_094959634447_rgbf002665-resize_2-target.png,1000,3.2575,0.35,3533,999,meters,jsons/v1_VE1000_randls_66_rotated.json,914325,1130850,26,Woman
75,480789,DepthScenes,duration_manipulation_targetAtFixation,jsons/v1_VE1000_randls_66_rotated.json,http://54.235.29.9/FacialAge/BNav_EC2/DepthDuration/v2_depth_duration_MTurk/v2_DepthDuration_HTML.html#251,251,1280,577,1280,720,8-30-2022,9-53-22,76,depth_duration_stimuli/002905_2014-06-03_18-04-43_094959634447_rgbf000151-resize_2/002905_2014-06-03_18-04-43_094959634447_rgbf000151-resize_2-target.png,1000,2.0295,0.25,3794,1101,meters,jsons/v1_VE1000_randls_66_rotated.json,914325,1130850,26,Woman
76,480789,DepthScenes,duration_manipulation_targetAtFixation,jsons/v1_VE1000_randls_66_rotated.json,http://54.235.29.9/FacialAge/BNav_EC2/DepthDuration/v2_depth_duration_MTurk/v2_DepthDuration_HTML.html#251,251,1280,577,1280,720,8-30-2022,9-53-22,77,depth_duration_stimuli/002949_2014-06-26_15-57-42_094959634447_rgbf000079-resize_1/002949_2014-06-26_15-57-42_094959634447_rgbf000079-resize_1-target.png,1000,1.8915,0.65,4077,999,meters,jsons/v1_VE1000_randls_66_rotated.json,914325,1130850,26,Woman
77,480789,DepthScenes,duration_manipulation_targetAtFixation,jsons/v1_VE1000_randls_66_rotated.json,http://54.235.29.9/FacialAge/BNav_EC2/DepthDuration/v2_depth_duration_MTurk/v2_DepthDuration_HTML.html#251,251,1280,577,1280,720,8-30-2022,9-53-22,78,depth_duration_stimuli/000522_2014-06-08_13-35-06_260595134347_rgbf000244-resize_1/000522_2014-06-08_13-35-06_260595134347_rgbf000244-resize_1-target.png,1000,2.3715,0.25,3431,969,meters,jsons/v1_VE1000_randls_66_rotated.json,914325,1130850,26,Woman
78,480789,DepthScenes,duration_manipulation_targetAtFixation,jsons/v1_VE1000_randls_66_rotated.json,http://54.235.29.9/FacialAge/BNav_EC2/DepthDuration/v2_depth_duration_MTurk/v2_DepthDuration_HTML.html#251,251,1280,577,1280,720,8-30-2022,9-53-22,79,depth_duration_stimuli/001052_2014-06-08_18-24-54_260595134347_rgbf000130-resize_1/001052_2014-06-08_18-24-54_260595134347_rgbf000130-resize_1-target.png,1000,4.1045,0.25,4501,985,meters,jsons/v1_VE1000_randls_66_rotated.json,914325,1130850,26,Woman
79,480789,DepthScenes,duration_manipulation_targetAtFixation,jsons/v1_VE1000_randls_66_rotated.json,http://54.235.29.9/FacialAge/BNav_EC2/DepthDuration/v2_depth_duration_MTurk/v2_DepthDuration_HTML.html#251,251,1280,577,1280,720,8-30-2022,9-53-22,80,depth_duration_stimuli/002988_2014-06-15_12-24-20_094959634447_rgbf000150-resize_1/002988_2014-06-15_12-24-20_094959634447_rgbf000150-resize_1-target.png,1000,4.7669999999999995,0.5,4434,1024,meters,jsons/v1_VE1000_randls_66_rotated.json,914325,1130850,26,Woman
80,480789,DepthScenes,duration_manipulation_targetAtFixation,jsons/v1_VE1000_randls_66_rotated.json,http://54.235.29.9/FacialAge/BNav_EC2/DepthDuration/v2_depth_duration_MTurk/v2_DepthDuration_HTML.html#251,251,1280,577,1280,720,8-30-2022,9-53-22,81,depth_duration_stimuli/000191_2014-05-12_17-07-38_260595134347_rgbf000199-resize_0/000191_2014-05-12_17-07-38_260595134347_rgbf000199-resize_0-target.png,1000,3.7995,0.45,3681,998,meters,jsons/v1_VE1000_randls_66_rotated.json,914325,1130850,26,Woman
81,480789,DepthScenes,duration_manipulation_targetAtFixation,jsons/v1_VE1000_randls_66_rotated.json,http://54.235.29.9/FacialAge/BNav_EC2/DepthDuration/v2_depth_duration_MTurk/v2_DepthDuration_HTML.html#251,251,1280,577,1280,720,8-30-2022,9-53-22,82,depth_duration_stimuli/000493_2014-06-09_21-01-18_260595134347_rgbf000196-resize_3/000493_2014-06-09_21-01-18_260595134347_rgbf000196-resize_3-target.png,1000,3.44,0.5,4008,1000,meters,jsons/v1_VE1000_randls_66_rotated.json,914325,1130850,26,Woman
82,480789,DepthScenes,duration_manipulation_targetAtFixation,jsons/v1_VE1000_randls_66_rotated.json,http://54.235.29.9/FacialAge/BNav_EC2/DepthDuration/v2_depth_duration_MTurk/v2_DepthDuration_HTML.html#251,251,1280,577,1280,720,8-30-2022,9-53-22,83,depth_duration_stimuli/003587_2014-05-23_16-48-02_094959634447_rgbf002384-resize_2/003587_2014-05-23_16-48-02_094959634447_rgbf002384-resize_2-target.png,1000,1.357,0.25,8282,1896,meters,jsons/v1_VE1000_randls_66_rotated.json,914325,1130850,26,Woman
83,480789,DepthScenes,duration_manipulation_targetAtFixation,jsons/v1_VE1000_randls_66_rotated.json,http://54.235.29.9/FacialAge/BNav_EC2/DepthDuration/v2_depth_duration_MTurk/v2_DepthDuration_HTML.html#251,251,1280,577,1280,720,8-30-2022,9-53-22,84,depth_duration_stimuli/001167_2014-06-17_15-38-07_260595134347_rgbf000108-resize_0/001167_2014-06-17_15-38-07_260595134347_rgbf000108-resize_0-target.png,1000,1.8505,0.25,3756,1044,meters,jsons/v1_VE1000_randls_66_rotated.json,914325,1130850,26,Woman
84,480789,DepthScenes,duration_manipulation_targetAtFixation,jsons/v1_VE1000_randls_66_rotated.json,http://54.235.29.9/FacialAge/BNav_EC2/DepthDuration/v2_depth_duration_MTurk/v2_DepthDuration_HTML.html#251,251,1280,577,1280,720,8-30-2022,9-53-22,85,depth_duration_stimuli/000103_2014-05-14_22-01-17_260595134347_rgbf000152-resize_5/000103_2014-05-14_22-01-17_260595134347_rgbf000152-resize_5-target.png,1000,1.993,0.35,3650,1129,meters,jsons/v1_VE1000_randls_66_rotated.json,914325,1130850,26,Woman
85,480789,DepthScenes,duration_manipulation_targetAtFixation,jsons/v1_VE1000_randls_66_rotated.json,http://54.235.29.9/FacialAge/BNav_EC2/DepthDuration/v2_depth_duration_MTurk/v2_DepthDuration_HTML.html#251,251,1280,577,1280,720,8-30-2022,9-53-22,86,depth_duration_stimuli/001555_2014-06-20_17-12-10_260595134347_rgbf000065-resize_4/001555_2014-06-20_17-12-10_260595134347_rgbf000065-resize_4-target.png,1000,1.633,0.45,12203,943,meters,jsons/v1_VE1000_randls_66_rotated.json,914325,1130850,26,Woman
86,480789,DepthScenes,duration_manipulation_targetAtFixation,jsons/v1_VE1000_randls_66_rotated.json,http://54.235.29.9/FacialAge/BNav_EC2/DepthDuration/v2_depth_duration_MTurk/v2_DepthDuration_HTML.html#251,251,1280,577,1280,720,8-30-2022,9-53-22,87,depth_duration_stimuli/002414_2014-06-28_20-24-58_260595134347_rgbf000067-resize_4/002414_2014-06-28_20-24-58_260595134347_rgbf000067-resize_4-target.png,1000,4.363,0.45,4006,1002,meters,jsons/v1_VE1000_randls_66_rotated.json,914325,1130850,26,Woman
87,480789,DepthScenes,duration_manipulation_targetAtFixation,jsons/v1_VE1000_randls_66_rotated.json,http://54.235.29.9/FacialAge/BNav_EC2/DepthDuration/v2_depth_duration_MTurk/v2_DepthDuration_HTML.html#251,251,1280,577,1280,720,8-30-2022,9-53-22,88,depth_duration_stimuli/000773_2014-06-08_22-24-54_260595134347_rgbf000093-resize_1/000773_2014-06-08_22-24-54_260595134347_rgbf000093-resize_1-target.png,1000,4.973,0.25,9403,1645,meters,jsons/v1_VE1000_randls_66_rotated.json,914325,1130850,26,Woman
88,480789,DepthScenes,duration_manipulation_targetAtFixation,jsons/v1_VE1000_randls_66_rotated.json,http://54.235.29.9/FacialAge/BNav_EC2/DepthDuration/v2_depth_duration_MTurk/v2_DepthDuration_HTML.html#251,251,1280,577,1280,720,8-30-2022,9-53-22,89,depth_duration_stimuli/001132_2014-06-17_14-48-54_260595134347_rgbf000100-resize_2/001132_2014-06-17_14-48-54_260595134347_rgbf000100-resize_2-target.png,1000,3.753,0.5,4003,998,meters,jsons/v1_VE1000_randls_66_rotated.json,914325,1130850,26,Woman
89,480789,DepthScenes,duration_manipulation_targetAtFixation,jsons/v1_VE1000_randls_66_rotated.json,http://54.235.29.9/FacialAge/BNav_EC2/DepthDuration/v2_depth_duration_MTurk/v2_DepthDuration_HTML.html#251,251,1280,577,1280,720,8-30-2022,9-53-22,90,depth_duration_stimuli/001133_2014-06-17_14-49-16_260595134347_rgbf000100-resize_0/001133_2014-06-17_14-49-16_260595134347_rgbf000100-resize_0-target.png,1000,4.2115,0.35,3842,1000,meters,jsons/v1_VE1000_randls_66_rotated.json,914325,1130850,26,Woman
90,480789,DepthScenes,duration_manipulation_targetAtFixation,jsons/v1_VE1000_randls_66_rotated.json,http://54.235.29.9/FacialAge/BNav_EC2/DepthDuration/v2_depth_duration_MTurk/v2_DepthDuration_HTML.html#251,251,1280,577,1280,720,8-30-2022,9-53-22,91,depth_duration_stimuli/002103_2014-06-25_20-00-40_260595134347_rgbf000049-resize_0/002103_2014-06-25_20-00-40_260595134347_rgbf000049-resize_0-target.png,1000,4.105,0.25,3645,1000,meters,jsons/v1_VE1000_randls_66_rotated.json,914325,1130850,26,Woman
91,480789,DepthScenes,duration_manipulation_targetAtFixation,jsons/v1_VE1000_randls_66_rotated.json,http://54.235.29.9/FacialAge/BNav_EC2/DepthDuration/v2_depth_duration_MTurk/v2_DepthDuration_HTML.html#251,251,1280,577,1280,720,8-30-2022,9-53-22,92,depth_duration_stimuli/002039_2014-06-24_20-22-38_260595134347_rgbf000084-resize_1/002039_2014-06-24_20-22-38_260595134347_rgbf000084-resize_1-target.png,1000,4.408,0.65,3466,1010,meters,jsons/v1_VE1000_randls_66_rotated.json,914325,1130850,26,Woman
92,480789,DepthScenes,duration_manipulation_targetAtFixation,jsons/v1_VE1000_randls_66_rotated.json,http://54.235.29.9/FacialAge/BNav_EC2/DepthDuration/v2_depth_duration_MTurk/v2_DepthDuration_HTML.html#251,251,1280,577,1280,720,8-30-2022,9-53-22,93,depth_duration_stimuli/000780_2014-06-08_22-28-29_260595134347_rgbf000126-resize_1/000780_2014-06-08_22-28-29_260595134347_rgbf000126-resize_1-target.png,1000,3.3825,0.7,3951,910,meters,jsons/v1_VE1000_randls_66_rotated.json,914325,1130850,26,Woman
93,480789,DepthScenes,duration_manipulation_targetAtFixation,jsons/v1_VE1000_randls_66_rotated.json,http://54.235.29.9/FacialAge/BNav_EC2/DepthDuration/v2_depth_duration_MTurk/v2_DepthDuration_HTML.html#251,251,1280,577,1280,720,8-30-2022,9-53-22,94,depth_duration_stimuli/002445_2014-06-28_20-32-16_260595134347_rgbf000029-resize_4/002445_2014-06-28_20-32-16_260595134347_rgbf000029-resize_4-target.png,1000,2.5315,0.25,3543,999,meters,jsons/v1_VE1000_randls_66_rotated.json,914325,1130850,26,Woman
94,480789,DepthScenes,duration_manipulation_targetAtFixation,jsons/v1_VE1000_randls_66_rotated.json,http://54.235.29.9/FacialAge/BNav_EC2/DepthDuration/v2_depth_duration_MTurk/v2_DepthDuration_HTML.html#251,251,1280,577,1280,720,8-30-2022,9-53-22,95,depth_duration_stimuli/000742_2014-06-08_18-48-09_260595134347_rgbf000164-resize_4/000742_2014-06-08_18-48-09_260595134347_rgbf000164-resize_4-target.png,1000,4.632,0.35,4726,1002,meters,jsons/v1_VE1000_randls_66_rotated.json,914325,1130850,26,Woman
95,480789,DepthScenes,duration_manipulation_targetAtFixation,jsons/v1_VE1000_randls_66_rotated.json,http://54.235.29.9/FacialAge/BNav_EC2/DepthDuration/v2_depth_duration_MTurk/v2_DepthDuration_HTML.html#251,251,1280,577,1280,720,8-30-2022,9-53-22,96,depth_duration_stimuli/001066_2014-06-08_22-03-20_260595134347_rgbf000066-resize_4/001066_2014-06-08_22-03-20_260595134347_rgbf000066-resize_4-target.png,1000,4.2330000000000005,0.65,3365,1065,meters,jsons/v1_VE1000_randls_66_rotated.json,914325,1130850,26,Woman
96,480789,DepthScenes,duration_manipulation_targetAtFixation,jsons/v1_VE1000_randls_66_rotated.json,http://54.235.29.9/FacialAge/BNav_EC2/DepthDuration/v2_depth_duration_MTurk/v2_DepthDuration_HTML.html#251,251,1280,577,1280,720,8-30-2022,9-53-22,97,depth_duration_stimuli/002875_2014-06-01_15-19-00_094959634447_rgbf000151-resize_1/002875_2014-06-01_15-19-00_094959634447_rgbf000151-resize_1-target.png,1000,1.9675,0.7,3619,867,meters,jsons/v1_VE1000_randls_66_rotated.json,914325,1130850,26,Woman
97,480789,DepthScenes,duration_manipulation_targetAtFixation,jsons/v1_VE1000_randls_66_rotated.json,http://54.235.29.9/FacialAge/BNav_EC2/DepthDuration/v2_depth_duration_MTurk/v2_DepthDuration_HTML.html#251,251,1280,577,1280,720,8-30-2022,9-53-22,98,depth_duration_stimuli/001011_2014-06-08_23-18-54_260595134347_rgbf000044-resize_4/001011_2014-06-08_23-18-54_260595134347_rgbf000044-resize_4-target.png,1000,2.4730000000000003,0.25,3423,1000,meters,jsons/v1_VE1000_randls_66_rotated.json,914325,1130850,26,Woman
98,480789,DepthScenes,duration_manipulation_targetAtFixation,jsons/v1_VE1000_randls_66_rotated.json,http://54.235.29.9/FacialAge/BNav_EC2/DepthDuration/v2_depth_duration_MTurk/v2_DepthDuration_HTML.html#251,251,1280,577,1280,720,8-30-2022,9-53-22,99,depth_duration_stimuli/001222_2014-06-17_16-24-06_260595134347_rgbf000073-resize_0/001222_2014-06-17_16-24-06_260595134347_rgbf000073-resize-original.jpg,1000,1.4385,0.0,3607,897,meters,jsons/v1_VE1000_randls_66_rotated.json,914325,1130850,26,Woman
99,480789,DepthScenes,duration_manipulation_targetAtFixation,jsons/v1_VE1000_randls_66_rotated.json,http://54.235.29.9/FacialAge/BNav_EC2/DepthDuration/v2_depth_duration_MTurk/v2_DepthDuration_HTML.html#251,251,1280,577,1280,720,8-30-2022,9-53-22,100,depth_duration_stimuli/002136_2014-06-25_21-18-03_260595134347_rgbf000109-resize_3/002136_2014-06-25_21-18-03_260595134347_rgbf000109-resize_3-target.png,1000,1.9569999999999999,0.25,4014,1060,meters,jsons/v1_VE1000_randls_66_rotated.json,914325,1130850,26,Woman
100,480789,DepthScenes,duration_manipulation_targetAtFixation,jsons/v1_VE1000_randls_66_rotated.json,http://54.235.29.9/FacialAge/BNav_EC2/DepthDuration/v2_depth_duration_MTurk/v2_DepthDuration_HTML.html#251,251,1280,577,1280,720,8-30-2022,9-53-22,101,depth_duration_stimuli/002964_2014-06-08_17-46-11_094959634447_rgbf000091-resize_4/002964_2014-06-08_17-46-11_094959634447_rgbf000091-resize_4-target.png,1000,1.6909999999999998,0.35,4276,984,meters,jsons/v1_VE1000_randls_66_rotated.json,914325,1130850,26,Woman
101,480789,DepthScenes,duration_manipulation_targetAtFixation,jsons/v1_VE1000_randls_66_rotated.json,http://54.235.29.9/FacialAge/BNav_EC2/DepthDuration/v2_depth_duration_MTurk/v2_DepthDuration_HTML.html#251,251,1280,577,1280,720,8-30-2022,9-53-22,102,depth_duration_stimuli/000457_2014-06-08_16-52-43_260595134347_rgbf000199-resize_1/000457_2014-06-08_16-52-43_260595134347_rgbf000199-resize_1-target.png,1000,3.6489999999999996,0.45,3756,999,meters,jsons/v1_VE1000_randls_66_rotated.json,914325,1130850,26,Woman
102,480789,DepthScenes,duration_manipulation_targetAtFixation,jsons/v1_VE1000_randls_66_rotated.json,http://54.235.29.9/FacialAge/BNav_EC2/DepthDuration/v2_depth_duration_MTurk/v2_DepthDuration_HTML.html#251,251,1280,577,1280,720,8-30-2022,9-53-22,103,depth_duration_stimuli/000929_2014-06-09_16-33-19_260595134347_rgbf000139-resize_0/000929_2014-06-09_16-33-19_260595134347_rgbf000139-resize_0-target.png,1000,2.8680000000000003,0.15,3094,840,meters,jsons/v1_VE1000_randls_66_rotated.json,914325,1130850,26,Woman
103,480789,DepthScenes,duration_manipulation_targetAtFixation,jsons/v1_VE1000_randls_66_rotated.json,http://54.235.29.9/FacialAge/BNav_EC2/DepthDuration/v2_depth_duration_MTurk/v2_DepthDuration_HTML.html#251,251,1280,577,1280,720,8-30-2022,9-53-22,104,depth_duration_stimuli/000734_2014-06-08_17-39-11_260595134347_rgbf000128-resize_2/000734_2014-06-08_17-39-11_260595134347_rgbf000128-resize_2-target.png,1000,4.098,0.65,3234,947,meters,jsons/v1_VE1000_randls_66_rotated.json,914325,1130850,26,Woman
104,480789,DepthScenes,duration_manipulation_targetAtFixation,jsons/v1_VE1000_randls_66_rotated.json,http://54.235.29.9/FacialAge/BNav_EC2/DepthDuration/v2_depth_duration_MTurk/v2_DepthDuration_HTML.html#251,251,1280,577,1280,720,8-30-2022,9-53-22,105,depth_duration_stimuli/000739_2014-06-08_18-45-58_260595134347_rgbf000068-resize_1/000739_2014-06-08_18-45-58_260595134347_rgbf000068-resize_1-target.png,1000,3.534,0.45,3014,812,meters,jsons/v1_VE1000_randls_66_rotated.json,914325,1130850,26,Woman
105,480789,DepthScenes,duration_manipulation_targetAtFixation,jsons/v1_VE1000_randls_66_rotated.json,http://54.235.29.9/FacialAge/BNav_EC2/DepthDuration/v2_depth_duration_MTurk/v2_DepthDuration_HTML.html#251,251,1280,577,1280,720,8-30-2022,9-53-22,106,depth_duration_stimuli/003490_2014-05-21_15-50-11_094959634447_rgbf000101-resize_3/003490_2014-05-21_15-50-11_094959634447_rgbf000101-resize_3-target.png,1000,3.6445,0.4,6764,999,meters,jsons/v1_VE1000_randls_66_rotated.json,914325,1130850,26,Woman
106,480789,DepthScenes,duration_manipulation_targetAtFixation,jsons/v1_VE1000_randls_66_rotated.json,http://54.235.29.9/FacialAge/BNav_EC2/DepthDuration/v2_depth_duration_MTurk/v2_DepthDuration_HTML.html#251,251,1280,577,1280,720,8-30-2022,9-53-22,107,depth_duration_stimuli/001175_2014-06-17_15-45-55_260595134347_rgbf000129-resize_4/001175_2014-06-17_15-45-55_260595134347_rgbf000129-resize_4-target.png,1000,4.255,0.7,3936,1000,meters,jsons/v1_VE1000_randls_66_rotated.json,914325,1130850,26,Woman
107,480789,DepthScenes,duration_manipulation_targetAtFixation,jsons/v1_VE1000_randls_66_rotated.json,http://54.235.29.9/FacialAge/BNav_EC2/DepthDuration/v2_depth_duration_MTurk/v2_DepthDuration_HTML.html#251,251,1280,577,1280,720,8-30-2022,9-53-22,108,depth_duration_stimuli/001214_2014-06-17_16-13-55_260595134347_rgbf000111-resize_0/001214_2014-06-17_16-13-55_260595134347_rgbf000111-resize_0-target.png,1000,2.6505,0.35,4149,1000,meters,jsons/v1_VE1000_randls_66_rotated.json,914325,1130850,26,Woman
108,480789,DepthScenes,duration_manipulation_targetAtFixation,jsons/v1_VE1000_randls_66_rotated.json,http://54.235.29.9/FacialAge/BNav_EC2/DepthDuration/v2_depth_duration_MTurk/v2_DepthDuration_HTML.html#251,251,1280,577,1280,720,8-30-2022,9-53-22,109,depth_duration_stimuli/000810_2014-06-08_17-20-01_260595134347_rgbf000105-resize_0/000810_2014-06-08_17-20-01_260595134347_rgbf000105-resize_0-target.png,1000,1.4865,0.25,8233,1340,meters,jsons/v1_VE1000_randls_66_rotated.json,914325,1130850,26,Woman
109,480789,DepthScenes,duration_manipulation_targetAtFixation,jsons/v1_VE1000_randls_66_rotated.json,http://54.235.29.9/FacialAge/BNav_EC2/DepthDuration/v2_depth_duration_MTurk/v2_DepthDuration_HTML.html#251,251,1280,577,1280,720,8-30-2022,9-53-22,110,depth_duration_stimuli/000691_2014-06-08_13-08-50_260595134347_rgbf000132-resize_3/000691_2014-06-08_13-08-50_260595134347_rgbf000132-resize_3-target.png,1000,4.1530000000000005,0.5,3962,1000,meters,jsons/v1_VE1000_randls_66_rotated.json,914325,1130850,26,Woman
110,480789,DepthScenes,duration_manipulation_targetAtFixation,jsons/v1_VE1000_randls_66_rotated.json,http://54.235.29.9/FacialAge/BNav_EC2/DepthDuration/v2_depth_duration_MTurk/v2_DepthDuration_HTML.html#251,251,1280,577,1280,720,8-30-2022,9-53-22,111,depth_duration_stimuli/002213_2014-06-28_18-37-58_260595134347_rgbf000055-resize_1/002213_2014-06-28_18-37-58_260595134347_rgbf000055-resize_1-target.png,1000,3.62,0.35,4061,1000,meters,jsons/v1_VE1000_randls_66_rotated.json,914325,1130850,26,Woman
111,480789,DepthScenes,duration_manipulation_targetAtFixation,jsons/v1_VE1000_randls_66_rotated.json,http://54.235.29.9/FacialAge/BNav_EC2/DepthDuration/v2_depth_duration_MTurk/v2_DepthDuration_HTML.html#251,251,1280,577,1280,720,8-30-2022,9-53-22,112,depth_duration_stimuli/001447_2014-06-19_17-00-32_260595134347_rgbf000082-resize_5/001447_2014-06-19_17-00-32_260595134347_rgbf000082-resize_5-target.png,1000,4.13775,0.25,3604,1060,meters,jsons/v1_VE1000_randls_66_rotated.json,914325,1130850,26,Woman
112,480789,DepthScenes,duration_manipulation_targetAtFixation,jsons/v1_VE1000_randls_66_rotated.json,http://54.235.29.9/FacialAge/BNav_EC2/DepthDuration/v2_depth_duration_MTurk/v2_DepthDuration_HTML.html#251,251,1280,577,1280,720,8-30-2022,9-53-22,113,depth_duration_stimuli/000447_2014-06-08_16-15-46_260595134347_rgbf000130-resize_1/000447_2014-06-08_16-15-46_260595134347_rgbf000130-resize_1-target.png,1000,4.479,0.65,3658,1001,meters,jsons/v1_VE1000_randls_66_rotated.json,914325,1130850,26,Woman
113,480789,DepthScenes,duration_manipulation_targetAtFixation,jsons/v1_VE1000_randls_66_rotated.json,http://54.235.29.9/FacialAge/BNav_EC2/DepthDuration/v2_depth_duration_MTurk/v2_DepthDuration_HTML.html#251,251,1280,577,1280,720,8-30-2022,9-53-22,114,depth_duration_stimuli/003010_2014-06-15_12-54-35_094959634447_rgbf000112-resize_0/003010_2014-06-15_12-54-35_094959634447_rgbf000112-resize_0-target.png,1000,3.1185,0.7,3839,999,meters,jsons/v1_VE1000_randls_66_rotated.json,914325,1130850,26,Woman
114,480789,DepthScenes,duration_manipulation_targetAtFixation,jsons/v1_VE1000_randls_66_rotated.json,http://54.235.29.9/FacialAge/BNav_EC2/DepthDuration/v2_depth_duration_MTurk/v2_DepthDuration_HTML.html#251,251,1280,577,1280,720,8-30-2022,9-53-22,115,depth_duration_stimuli/001810_2014-06-26_20-51-35_260595134347_rgbf000040-resize_3/001810_2014-06-26_20-51-35_260595134347_rgbf000040-resize_3-target.png,1000,2.2525,0.25,3583,1013,meters,jsons/v1_VE1000_randls_66_rotated.json,914325,1130850,26,Woman
115,480789,DepthScenes,duration_manipulation_targetAtFixation,jsons/v1_VE1000_randls_66_rotated.json,http://54.235.29.9/FacialAge/BNav_EC2/DepthDuration/v2_depth_duration_MTurk/v2_DepthDuration_HTML.html#251,251,1280,577,1280,720,8-30-2022,9-53-22,116,depth_duration_stimuli/002425_2014-06-28_20-27-29_260595134347_rgbf000031-resize_8/002425_2014-06-28_20-27-29_260595134347_rgbf000031-resize_8-target.png,1000,3.8960000000000004,0.5,3967,1031,meters,jsons/v1_VE1000_randls_66_rotated.json,914325,1130850,26,Woman
116,480789,DepthScenes,duration_manipulation_targetAtFixation,jsons/v1_VE1000_randls_66_rotated.json,http://54.235.29.9/FacialAge/BNav_EC2/DepthDuration/v2_depth_duration_MTurk/v2_DepthDuration_HTML.html#251,251,1280,577,1280,720,8-30-2022,9-53-22,117,depth_duration_stimuli/000642_2014-06-08_16-59-25_260595134347_rgbf000098-resize_2/000642_2014-06-08_16-59-25_260595134347_rgbf000098-resize_2-target.png,1000,2.8815,0.35,3283,885,meters,jsons/v1_VE1000_randls_66_rotated.json,914325,1130850,26,Woman
117,480789,DepthScenes,duration_manipulation_targetAtFixation,jsons/v1_VE1000_randls_66_rotated.json,http://54.235.29.9/FacialAge/BNav_EC2/DepthDuration/v2_depth_duration_MTurk/v2_DepthDuration_HTML.html#251,251,1280,577,1280,720,8-30-2022,9-53-22,118,depth_duration_stimuli/002209_2014-06-28_18-36-10_260595134347_rgbf000051-resize_1/002209_2014-06-28_18-36-10_260595134347_rgbf000051-resize_1-target.png,1000,2.057,0.25,3929,1206,meters,jsons/v1_VE1000_randls_66_rotated.json,914325,1130850,26,Woman
118,480789,DepthScenes,duration_manipulation_targetAtFixation,jsons/v1_VE1000_randls_66_rotated.json,http://54.235.29.9/FacialAge/BNav_EC2/DepthDuration/v2_depth_duration_MTurk/v2_DepthDuration_HTML.html#251,251,1280,577,1280,720,8-30-2022,9-53-22,119,depth_duration_stimuli/002763_2014-06-22_19-13-10_094959634447_rgbf000075-resize_4/002763_2014-06-22_19-13-10_094959634447_rgbf000075-resize_4-target.png,1000,1.68375,0.35,3950,999,meters,jsons/v1_VE1000_randls_66_rotated.json,914325,1130850,26,Woman
119,480789,DepthScenes,duration_manipulation_targetAtFixation,jsons/v1_VE1000_randls_66_rotated.json,http://54.235.29.9/FacialAge/BNav_EC2/DepthDuration/v2_depth_duration_MTurk/v2_DepthDuration_HTML.html#251,251,1280,577,1280,720,8-30-2022,9-53-22,120,depth_duration_stimuli/000787_2014-06-08_22-33-53_260595134347_rgbf000175-resize_1/000787_2014-06-08_22-33-53_260595134347_rgbf000175-resize-original.jpg,1000,4.784,0.0,3171,1087,meters,jsons/v1_VE1000_randls_66_rotated.json,914325,1130850,26,Woman
120,480789,DepthScenes,duration_manipulation_targetAtFixation,jsons/v1_VE1000_randls_66_rotated.json,http://54.235.29.9/FacialAge/BNav_EC2/DepthDuration/v2_depth_duration_MTurk/v2_DepthDuration_HTML.html#251,251,1280,577,1280,720,8-30-2022,9-53-22,121,depth_duration_stimuli/002678_2014-06-13_16-15-32_094959634447_rgbf000151-resize_6/002678_2014-06-13_16-15-32_094959634447_rgbf000151-resize_6-target.png,1000,2.1830000000000003,0.35,3749,995,meters,jsons/v1_VE1000_randls_66_rotated.json,914325,1130850,26,Woman
121,480789,DepthScenes,duration_manipulation_targetAtFixation,jsons/v1_VE1000_randls_66_rotated.json,http://54.235.29.9/FacialAge/BNav_EC2/DepthDuration/v2_depth_duration_MTurk/v2_DepthDuration_HTML.html#251,251,1280,577,1280,720,8-30-2022,9-53-22,122,depth_duration_stimuli/000368_2014-06-09_15-53-01_260595134347_rgbf000155-resize_2/000368_2014-06-09_15-53-01_260595134347_rgbf000155-resize_2-target.png,1000,2.4859999999999998,0.25,4334,1000,meters,jsons/v1_VE1000_randls_66_rotated.json,914325,1130850,26,Woman
122,480789,DepthScenes,duration_manipulation_targetAtFixation,jsons/v1_VE1000_randls_66_rotated.json,http://54.235.29.9/FacialAge/BNav_EC2/DepthDuration/v2_depth_duration_MTurk/v2_DepthDuration_HTML.html#251,251,1280,577,1280,720,8-30-2022,9-53-22,123,depth_duration_stimuli/002758_2014-06-22_19-11-20_094959634447_rgbf000128-resize_1/002758_2014-06-22_19-11-20_094959634447_rgbf000128-resize_1-target.png,1000,2.555,0.35,4186,998,meters,jsons/v1_VE1000_randls_66_rotated.json,914325,1130850,26,Woman
123,480789,DepthScenes,duration_manipulation_targetAtFixation,jsons/v1_VE1000_randls_66_rotated.json,http://54.235.29.9/FacialAge/BNav_EC2/DepthDuration/v2_depth_duration_MTurk/v2_DepthDuration_HTML.html#251,251,1280,577,1280,720,8-30-2022,9-53-22,124,depth_duration_stimuli/002630_2014-06-24_14-47-50_094959634447_rgbf000055-resize_1/002630_2014-06-24_14-47-50_094959634447_rgbf000055-resize_1-target.png,1000,3.0095,0.35,3707,999,meters,jsons/v1_VE1000_randls_66_rotated.json,914325,1130850,26,Woman
124,480789,DepthScenes,duration_manipulation_targetAtFixation,jsons/v1_VE1000_randls_66_rotated.json,http://54.235.29.9/FacialAge/BNav_EC2/DepthDuration/v2_depth_duration_MTurk/v2_DepthDuration_HTML.html#251,251,1280,577,1280,720,8-30-2022,9-53-22,125,depth_duration_stimuli/002444_2014-06-28_20-32-08_260595134347_rgbf000027-resize_0/002444_2014-06-28_20-32-08_260595134347_rgbf000027-resize_0-target.png,1000,4.388999999999999,0.65,4000,1000,meters,jsons/v1_VE1000_randls_66_rotated.json,914325,1130850,26,Woman
125,480789,DepthScenes,duration_manipulation_targetAtFixation,jsons/v1_VE1000_randls_66_rotated.json,http://54.235.29.9/FacialAge/BNav_EC2/DepthDuration/v2_depth_duration_MTurk/v2_DepthDuration_HTML.html#251,251,1280,577,1280,720,8-30-2022,9-53-22,126,depth_duration_stimuli/000436_2014-06-09_22-25-11_260595134347_rgbf000137-resize_1/000436_2014-06-09_22-25-11_260595134347_rgbf000137-resize_1-target.png,1000,4.0705,0.45,3275,999,meters,jsons/v1_VE1000_randls_66_rotated.json,914325,1130850,26,Woman
126,480789,DepthScenes,duration_manipulation_targetAtFixation,jsons/v1_VE1000_randls_66_rotated.json,http://54.235.29.9/FacialAge/BNav_EC2/DepthDuration/v2_depth_duration_MTurk/v2_DepthDuration_HTML.html#251,251,1280,577,1280,720,8-30-2022,9-53-22,127,depth_duration_stimuli/001100_2014-06-15_17-46-26_260595134347_rgbf000225-resize_2/001100_2014-06-15_17-46-26_260595134347_rgbf000225-resize_2-target.png,1000,2.24,0.25,4175,999,meters,jsons/v1_VE1000_randls_66_rotated.json,914325,1130850,26,Woman
127,480789,DepthScenes,duration_manipulation_targetAtFixation,jsons/v1_VE1000_randls_66_rotated.json,http://54.235.29.9/FacialAge/BNav_EC2/DepthDuration/v2_depth_duration_MTurk/v2_DepthDuration_HTML.html#251,251,1280,577,1280,720,8-30-2022,9-53-22,128,depth_duration_stimuli/002784_2014-06-22_19-26-30_094959634447_rgbf000083-resize_3/002784_2014-06-22_19-26-30_094959634447_rgbf000083-resize_3-target.png,1000,1.8046666666667,0.35,3564,981,meters,jsons/v1_VE1000_randls_66_rotated.json,914325,1130850,26,Woman
128,480789,DepthScenes,duration_manipulation_targetAtFixation,jsons/v1_VE1000_randls_66_rotated.json,http://54.235.29.9/FacialAge/BNav_EC2/DepthDuration/v2_depth_duration_MTurk/v2_DepthDuration_HTML.html#251,251,1280,577,1280,720,8-30-2022,9-53-22,129,depth_duration_stimuli/001828_2014-06-26_21-40-03_260595134347_rgbf000024-resize_0/001828_2014-06-26_21-40-03_260595134347_rgbf000024-resize_0-target.png,1000,4.8260000000000005,0.4,5901,1015,meters,jsons/v1_VE1000_randls_66_rotated.json,914325,1130850,26,Woman
129,480789,DepthScenes,duration_manipulation_targetAtFixation,jsons/v1_VE1000_randls_66_rotated.json,http://54.235.29.9/FacialAge/BNav_EC2/DepthDuration/v2_depth_duration_MTurk/v2_DepthDuration_HTML.html#251,251,1280,577,1280,720,8-30-2022,9-53-22,130,depth_duration_stimuli/000009_2014-05-26_14-32-05_260595134347_rgbf000034-resize_3/000009_2014-05-26_14-32-05_260595134347_rgbf000034-resize_3-target.png,1000,3.8715,0.35,3894,981,meters,jsons/v1_VE1000_randls_66_rotated.json,914325,1130850,26,Woman
130,480789,DepthScenes,duration_manipulation_targetAtFixation,jsons/v1_VE1000_randls_66_rotated.json,http://54.235.29.9/FacialAge/BNav_EC2/DepthDuration/v2_depth_duration_MTurk/v2_DepthDuration_HTML.html#251,251,1280,577,1280,720,8-30-2022,9-53-22,131,depth_duration_stimuli/002545_2014-06-24_13-38-53_094959634447_rgbf000080-resize_4/002545_2014-06-24_13-38-53_094959634447_rgbf000080-resize_4-target.png,1000,1.9205,0.15,4261,943,meters,jsons/v1_VE1000_randls_66_rotated.json,914325,1130850,26,Woman
131,480789,DepthScenes,duration_manipulation_targetAtFixation,jsons/v1_VE1000_randls_66_rotated.json,http://54.235.29.9/FacialAge/BNav_EC2/DepthDuration/v2_depth_duration_MTurk/v2_DepthDuration_HTML.html#251,251,1280,577,1280,720,8-30-2022,9-53-22,132,depth_duration_stimuli/001092_2014-06-15_17-34-58_260595134347_rgbf000171-resize_3/001092_2014-06-15_17-34-58_260595134347_rgbf000171-resize_3-target.png,1000,2.6935,0.25,3537,994,meters,jsons/v1_VE1000_randls_66_rotated.json,914325,1130850,26,Woman
132,480789,DepthScenes,duration_manipulation_targetAtFixation,jsons/v1_VE1000_randls_66_rotated.json,http://54.235.29.9/FacialAge/BNav_EC2/DepthDuration/v2_depth_duration_MTurk/v2_DepthDuration_HTML.html#251,251,1280,577,1280,720,8-30-2022,9-53-22,133,depth_duration_stimuli/000137_2014-05-20_17-04-49_260595134347_rgbf000120-resize_1/000137_2014-05-20_17-04-49_260595134347_rgbf000120-resize_1-target.png,1000,3.786,0.3,3494,1046,meters,jsons/v1_VE1000_randls_66_rotated.json,914325,1130850,26,Woman
133,480789,DepthScenes,duration_manipulation_targetAtFixation,jsons/v1_VE1000_randls_66_rotated.json,http://54.235.29.9/FacialAge/BNav_EC2/DepthDuration/v2_depth_duration_MTurk/v2_DepthDuration_HTML.html#251,251,1280,577,1280,720,8-30-2022,9-53-22,134,depth_duration_stimuli/000736_2014-06-08_18-24-15_260595134347_rgbf000206-resize_3/000736_2014-06-08_18-24-15_260595134347_rgbf000206-resize_3-target.png,1000,3.515,0.25,35183,1148,meters,jsons/v1_VE1000_randls_66_rotated.json,914325,1130850,26,Woman
134,480789,DepthScenes,duration_manipulation_targetAtFixation,jsons/v1_VE1000_randls_66_rotated.json,http://54.235.29.9/FacialAge/BNav_EC2/DepthDuration/v2_depth_duration_MTurk/v2_DepthDuration_HTML.html#251,251,1280,577,1280,720,8-30-2022,9-53-22,135,depth_duration_stimuli/000375_2014-06-08_11-17-29_260595134347_rgbf000133-resize_2/000375_2014-06-08_11-17-29_260595134347_rgbf000133-resize-original.jpg,1000,4.718,0.0,3058,1094,meters,jsons/v1_VE1000_randls_66_rotated.json,914325,1130850,26,Woman
135,480789,DepthScenes,duration_manipulation_targetAtFixation,jsons/v1_VE1000_randls_66_rotated.json,http://54.235.29.9/FacialAge/BNav_EC2/DepthDuration/v2_depth_duration_MTurk/v2_DepthDuration_HTML.html#251,251,1280,577,1280,720,8-30-2022,9-53-22,136,depth_duration_stimuli/000749_2014-06-08_21-55-06_260595134347_rgbf000070-resize_2/000749_2014-06-08_21-55-06_260595134347_rgbf000070-resize_2-target.png,1000,2.331,0.25,4145,999,meters,jsons/v1_VE1000_randls_66_rotated.json,914325,1130850,26,Woman
136,480789,DepthScenes,duration_manipulation_targetAtFixation,jsons/v1_VE1000_randls_66_rotated.json,http://54.235.29.9/FacialAge/BNav_EC2/DepthDuration/v2_depth_duration_MTurk/v2_DepthDuration_HTML.html#251,251,1280,577,1280,720,8-30-2022,9-53-22,137,depth_duration_stimuli/002788_2014-06-22_19-36-03_094959634447_rgbf000088-resize_2/002788_2014-06-22_19-36-03_094959634447_rgbf000088-resize_2-target.png,1000,1.6465,0.35,3830,1003,meters,jsons/v1_VE1000_randls_66_rotated.json,914325,1130850,26,Woman
137,480789,DepthScenes,duration_manipulation_targetAtFixation,jsons/v1_VE1000_randls_66_rotated.json,http://54.235.29.9/FacialAge/BNav_EC2/DepthDuration/v2_depth_duration_MTurk/v2_DepthDuration_HTML.html#251,251,1280,577,1280,720,8-30-2022,9-53-22,138,depth_duration_stimuli/000483_2014-06-09_20-41-45_260595134347_rgbf000116-resize_4/000483_2014-06-09_20-41-45_260595134347_rgbf000116-resize_4-target.png,1000,1.337,0.25,4063,987,meters,jsons/v1_VE1000_randls_66_rotated.json,914325,1130850,26,Woman
138,480789,DepthScenes,duration_manipulation_targetAtFixation,jsons/v1_VE1000_randls_66_rotated.json,http://54.235.29.9/FacialAge/BNav_EC2/DepthDuration/v2_depth_duration_MTurk/v2_DepthDuration_HTML.html#251,251,1280,577,1280,720,8-30-2022,9-53-22,139,depth_duration_stimuli/000469_2014-06-09_19-42-10_260595134347_rgbf000081-resize_1/000469_2014-06-09_19-42-10_260595134347_rgbf000081-resize_1-target.png,1000,1.652,0.35,4170,999,meters,jsons/v1_VE1000_randls_66_rotated.json,914325,1130850,26,Woman
139,480789,DepthScenes,duration_manipulation_targetAtFixation,jsons/v1_VE1000_randls_66_rotated.json,http://54.235.29.9/FacialAge/BNav_EC2/DepthDuration/v2_depth_duration_MTurk/v2_DepthDuration_HTML.html#251,251,1280,577,1280,720,8-30-2022,9-53-22,140,depth_duration_stimuli/002568_2014-06-24_13-59-21_094959634447_rgbf000062-resize_4/002568_2014-06-24_13-59-21_094959634447_rgbf000062-resize_4-target.png,1000,3.015,0.25,3805,1167,meters,jsons/v1_VE1000_randls_66_rotated.json,914325,1130850,26,Woman
140,480789,DepthScenes,duration_manipulation_targetAtFixation,jsons/v1_VE1000_randls_66_rotated.json,http://54.235.29.9/FacialAge/BNav_EC2/DepthDuration/v2_depth_duration_MTurk/v2_DepthDuration_HTML.html#251,251,1280,577,1280,720,8-30-2022,9-53-22,141,depth_duration_stimuli/003492_2014-05-21_15-50-55_094959634447_rgbf000828-resize_1/003492_2014-05-21_15-50-55_094959634447_rgbf000828-resize_1-target.png,1000,4.06875,0.35,3536,998,meters,jsons/v1_VE1000_randls_66_rotated.json,914325,1130850,26,Woman
141,480789,DepthScenes,duration_manipulation_targetAtFixation,jsons/v1_VE1000_randls_66_rotated.json,http://54.235.29.9/FacialAge/BNav_EC2/DepthDuration/v2_depth_duration_MTurk/v2_DepthDuration_HTML.html#251,251,1280,577,1280,720,8-30-2022,9-53-22,142,depth_duration_stimuli/001584_2014-06-20_11-07-43_260595134347_rgbf000002-resize_1/001584_2014-06-20_11-07-43_260595134347_rgbf000002-resize_1-target.png,1000,3.53,0.25,3964,1006,meters,jsons/v1_VE1000_randls_66_rotated.json,914325,1130850,26,Woman
142,480789,DepthScenes,duration_manipulation_targetAtFixation,jsons/v1_VE1000_randls_66_rotated.json,http://54.235.29.9/FacialAge/BNav_EC2/DepthDuration/v2_depth_duration_MTurk/v2_DepthDuration_HTML.html#251,251,1280,577,1280,720,8-30-2022,9-53-22,143,depth_duration_stimuli/003621_2014-05-23_18-06-08_094959634447_rgbf000101-resize_1/003621_2014-05-23_18-06-08_094959634447_rgbf000101-resize_1-target.png,1000,3.9835,0.35,3447,1027,meters,jsons/v1_VE1000_randls_66_rotated.json,914325,1130850,26,Woman
143,480789,DepthScenes,duration_manipulation_targetAtFixation,jsons/v1_VE1000_randls_66_rotated.json,http://54.235.29.9/FacialAge/BNav_EC2/DepthDuration/v2_depth_duration_MTurk/v2_DepthDuration_HTML.html#251,251,1280,577,1280,720,8-30-2022,9-53-22,144,depth_duration_stimuli/000635_2014-06-08_16-38-42_260595134347_rgbf000106-resize_1/000635_2014-06-08_16-38-42_260595134347_rgbf000106-resize_1-target.png,1000,2.074,0.25,3591,995,meters,jsons/v1_VE1000_randls_66_rotated.json,914325,1130850,26,Woman
144,480789,DepthScenes,duration_manipulation_targetAtFixation,jsons/v1_VE1000_randls_66_rotated.json,http://54.235.29.9/FacialAge/BNav_EC2/DepthDuration/v2_depth_duration_MTurk/v2_DepthDuration_HTML.html#251,251,1280,577,1280,720,8-30-2022,9-53-22,145,depth_duration_stimuli/002279_2014-06-28_18-55-32_260595134347_rgbf000040-resize_5/002279_2014-06-28_18-55-32_260595134347_rgbf000040-resize_5-target.png,1000,1.5043333333333,0.35,3776,1000,meters,jsons/v1_VE1000_randls_66_rotated.json,914325,1130850,26,Woman
145,480789,DepthScenes,duration_manipulation_targetAtFixation,jsons/v1_VE1000_randls_66_rotated.json,http://54.235.29.9/FacialAge/BNav_EC2/DepthDuration/v2_depth_duration_MTurk/v2_DepthDuration_HTML.html#251,251,1280,577,1280,720,8-30-2022,9-53-22,146,depth_duration_stimuli/002467_2014-06-28_20-38-07_260595134347_rgbf000026-resize_2/002467_2014-06-28_20-38-07_260595134347_rgbf000026-resize_2-target.png,1000,4.742,0.25,3887,999,meters,jsons/v1_VE1000_randls_66_rotated.json,914325,1130850,26,Woman
146,480789,DepthScenes,duration_manipulation_targetAtFixation,jsons/v1_VE1000_randls_66_rotated.json,http://54.235.29.9/FacialAge/BNav_EC2/DepthDuration/v2_depth_duration_MTurk/v2_DepthDuration_HTML.html#251,251,1280,577,1280,720,8-30-2022,9-53-22,147,depth_duration_stimuli/002570_2014-06-24_13-59-54_094959634447_rgbf000059-resize_0/002570_2014-06-24_13-59-54_094959634447_rgbf000059-resize_0-target.png,1000,4.037,0.25,3891,999,meters,jsons/v1_VE1000_randls_66_rotated.json,914325,1130850,26,Woman
147,480789,DepthScenes,duration_manipulation_targetAtFixation,jsons/v1_VE1000_randls_66_rotated.json,http://54.235.29.9/FacialAge/BNav_EC2/DepthDuration/v2_depth_duration_MTurk/v2_DepthDuration_HTML.html#251,251,1280,577,1280,720,8-30-2022,9-53-22,148,depth_duration_stimuli/001571_2014-06-20_17-21-32_260595134347_rgbf000089-resize_1/001571_2014-06-20_17-21-32_260595134347_rgbf000089-resize_1-target.png,1000,1.86,0.4,4907,823,meters,jsons/v1_VE1000_randls_66_rotated.json,914325,1130850,26,Woman
148,480789,DepthScenes,duration_manipulation_targetAtFixation,jsons/v1_VE1000_randls_66_rotated.json,http://54.235.29.9/FacialAge/BNav_EC2/DepthDuration/v2_depth_duration_MTurk/v2_DepthDuration_HTML.html#251,251,1280,577,1280,720,8-30-2022,9-53-22,149,depth_duration_stimuli/002272_2014-06-28_18-53-56_260595134347_rgbf000067-resize_2/002272_2014-06-28_18-53-56_260595134347_rgbf000067-resize_2-target.png,1000,1.138,0.25,3769,1054,meters,jsons/v1_VE1000_randls_66_rotated.json,914325,1130850,26,Woman
149,480789,DepthScenes,duration_manipulation_targetAtFixation,jsons/v1_VE1000_randls_66_rotated.json,http://54.235.29.9/FacialAge/BNav_EC2/DepthDuration/v2_depth_duration_MTurk/v2_DepthDuration_HTML.html#251,251,1280,577,1280,720,8-30-2022,9-53-22,150,depth_duration_stimuli/002805_2014-06-22_19-54-03_094959634447_rgbf000079-resize_1/002805_2014-06-22_19-54-03_094959634447_rgbf000079-resize_1-target.png,1000,3.1439999999999997,0.35,4515,1009,meters,jsons/v1_VE1000_randls_66_rotated.json,914325,1130850,26,Woman
150,480789,DepthScenes,duration_manipulation_targetAtFixation,jsons/v1_VE1000_randls_66_rotated.json,http://54.235.29.9/FacialAge/BNav_EC2/DepthDuration/v2_depth_duration_MTurk/v2_DepthDuration_HTML.html#251,251,1280,577,1280,720,8-30-2022,9-53-22,151,depth_duration_stimuli/000906_2014-06-08_13-35-43_260595134347_rgbf000155-resize_1/000906_2014-06-08_13-35-43_260595134347_rgbf000155-resize_1-target.png,1000,2.8489999999999998,0.5,3833,990,meters,jsons/v1_VE1000_randls_66_rotated.json,914325,1130850,26,Woman
151,480789,DepthScenes,duration_manipulation_targetAtFixation,jsons/v1_VE1000_randls_66_rotated.json,http://54.235.29.9/FacialAge/BNav_EC2/DepthDuration/v2_depth_duration_MTurk/v2_DepthDuration_HTML.html#251,251,1280,577,1280,720,8-30-2022,9-53-22,152,depth_duration_stimuli/000569_2014-06-09_22-51-47_260595134347_rgbf000141-resize_3/000569_2014-06-09_22-51-47_260595134347_rgbf000141-resize-original.jpg,1000,4.512,0.0,5257,990,meters,jsons/v1_VE1000_randls_66_rotated.json,914325,1130850,26,Woman
152,480789,DepthScenes,duration_manipulation_targetAtFixation,jsons/v1_VE1000_randls_66_rotated.json,http://54.235.29.9/FacialAge/BNav_EC2/DepthDuration/v2_depth_duration_MTurk/v2_DepthDuration_HTML.html#251,251,1280,577,1280,720,8-30-2022,9-53-22,153,depth_duration_stimuli/000502_2014-06-08_23-02-32_260595134347_rgbf000063-resize_4/000502_2014-06-08_23-02-32_260595134347_rgbf000063-resize_4-target.png,1000,2.431,0.15,4131,999,meters,jsons/v1_VE1000_randls_66_rotated.json,914325,1130850,26,Woman
153,480789,DepthScenes,duration_manipulation_targetAtFixation,jsons/v1_VE1000_randls_66_rotated.json,http://54.235.29.9/FacialAge/BNav_EC2/DepthDuration/v2_depth_duration_MTurk/v2_DepthDuration_HTML.html#251,251,1280,577,1280,720,8-30-2022,9-53-22,154,depth_duration_stimuli/001199_2014-06-17_16-03-48_260595134347_rgbf000077-resize_0/001199_2014-06-17_16-03-48_260595134347_rgbf000077-resize_0-target.png,1000,3.4375,0.5,5034,1070,meters,jsons/v1_VE1000_randls_66_rotated.json,914325,1130850,26,Woman
154,480789,DepthScenes,duration_manipulation_targetAtFixation,jsons/v1_VE1000_randls_66_rotated.json,http://54.235.29.9/FacialAge/BNav_EC2/DepthDuration/v2_depth_duration_MTurk/v2_DepthDuration_HTML.html#251,251,1280,577,1280,720,8-30-2022,9-53-22,155,depth_duration_stimuli/002340_2014-06-28_20-05-46_260595134347_rgbf000113-resize_0/002340_2014-06-28_20-05-46_260595134347_rgbf000113-resize_0-target.png,1000,2.4735,0.0,3779,998,meters,jsons/v1_VE1000_randls_66_rotated.json,914325,1130850,26,Woman
155,480789,DepthScenes,duration_manipulation_targetAtFixation,jsons/v1_VE1000_randls_66_rotated.json,http://54.235.29.9/FacialAge/BNav_EC2/DepthDuration/v2_depth_duration_MTurk/v2_DepthDuration_HTML.html#251,251,1280,577,1280,720,8-30-2022,9-53-22,156,depth_duration_stimuli/001016_2014-06-09_16-16-10_260595134347_rgbf000112-resize_5/001016_2014-06-09_16-16-10_260595134347_rgbf000112-resize_5-target.png,1000,1.6565,0.5,4187,1172,meters,jsons/v1_VE1000_randls_66_rotated.json,914325,1130850,26,Woman
156,480789,DepthScenes,duration_manipulation_targetAtFixation,jsons/v1_VE1000_randls_66_rotated.json,http://54.235.29.9/FacialAge/BNav_EC2/DepthDuration/v2_depth_duration_MTurk/v2_DepthDuration_HTML.html#251,251,1280,577,1280,720,8-30-2022,9-53-22,157,depth_duration_stimuli/002995_2014-06-15_12-31-26_094959634447_rgbf000150-resize_1/002995_2014-06-15_12-31-26_094959634447_rgbf000150-resize_1-target.png,1000,3.8360000000000003,0.25,3852,962,meters,jsons/v1_VE1000_randls_66_rotated.json,914325,1130850,26,Woman
157,480789,DepthScenes,duration_manipulation_targetAtFixation,jsons/v1_VE1000_randls_66_rotated.json,http://54.235.29.9/FacialAge/BNav_EC2/DepthDuration/v2_depth_duration_MTurk/v2_DepthDuration_HTML.html#251,251,1280,720,1280,720,8-30-2022,9-53-22,158,depth_duration_stimuli/002748_2014-06-22_19-07-22_094959634447_rgbf000078-resize_1/002748_2014-06-22_19-07-22_094959634447_rgbf000078-resize_1-target.png,1000,4.6705,0.25,6478,743,meters,jsons/v1_VE1000_randls_66_rotated.json,914325,1130850,26,Woman
158,480789,DepthScenes,duration_manipulation_targetAtFixation,jsons/v1_VE1000_randls_66_rotated.json,http://54.235.29.9/FacialAge/BNav_EC2/DepthDuration/v2_depth_duration_MTurk/v2_DepthDuration_HTML.html#251,251,1280,720,1280,720,8-30-2022,9-53-22,159,depth_duration_stimuli/002199_2014-06-28_18-33-56_260595134347_rgbf000074-resize_0/002199_2014-06-28_18-33-56_260595134347_rgbf000074-resize_0-target.png,1000,1.996,0.25,16868,998,meters,jsons/v1_VE1000_randls_66_rotated.json,914325,1130850,26,Woman
159,480789,DepthScenes,duration_manipulation_targetAtFixation,jsons/v1_VE1000_randls_66_rotated.json,http://54.235.29.9/FacialAge/BNav_EC2/DepthDuration/v2_depth_duration_MTurk/v2_DepthDuration_HTML.html#251,251,1280,720,1280,720,8-30-2022,9-53-22,160,depth_duration_stimuli/001056_2014-06-08_18-46-44_260595134347_rgbf000068-resize_0/001056_2014-06-08_18-46-44_260595134347_rgbf000068-resize_0-target.png,1000,2.6625,0.25,5676,999,meters,jsons/v1_VE1000_randls_66_rotated.json,914325,1130850,26,Woman
160,480789,DepthScenes,duration_manipulation_targetAtFixation,jsons/v1_VE1000_randls_66_rotated.json,http://54.235.29.9/FacialAge/BNav_EC2/DepthDuration/v2_depth_duration_MTurk/v2_DepthDuration_HTML.html#251,251,1280,720,1280,720,8-30-2022,9-53-22,161,depth_duration_stimuli/001136_2014-06-17_15-19-41_260595134347_rgbf000076-resize_3/001136_2014-06-17_15-19-41_260595134347_rgbf000076-resize_3-target.png,1000,1.8655,0.35,4238,1000,meters,jsons/v1_VE1000_randls_66_rotated.json,914325,1130850,26,Woman
161,480789,DepthScenes,duration_manipulation_targetAtFixation,jsons/v1_VE1000_randls_66_rotated.json,http://54.235.29.9/FacialAge/BNav_EC2/DepthDuration/v2_depth_duration_MTurk/v2_DepthDuration_HTML.html#251,251,1280,720,1280,720,8-30-2022,9-53-22,162,depth_duration_stimuli/001164_2014-06-17_15-35-46_260595134347_rgbf000085-resize_3/001164_2014-06-17_15-35-46_260595134347_rgbf000085-resize_3-target.png,1000,2.354,0.4,3890,996,meters,jsons/v1_VE1000_randls_66_rotated.json,914325,1130850,26,Woman
162,480789,DepthScenes,duration_manipulation_targetAtFixation,jsons/v1_VE1000_randls_66_rotated.json,http://54.235.29.9/FacialAge/BNav_EC2/DepthDuration/v2_depth_duration_MTurk/v2_DepthDuration_HTML.html#251,251,1280,720,1280,720,8-30-2022,9-53-22,163,depth_duration_stimuli/001094_2014-06-15_17-36-00_260595134347_rgbf000205-resize_0/001094_2014-06-15_17-36-00_260595134347_rgbf000205-resize_0-target.png,1000,4.2175,0.25,3770,863,meters,jsons/v1_VE1000_randls_66_rotated.json,914325,1130850,26,Woman
163,480789,DepthScenes,duration_manipulation_targetAtFixation,jsons/v1_VE1000_randls_66_rotated.json,http://54.235.29.9/FacialAge/BNav_EC2/DepthDuration/v2_depth_duration_MTurk/v2_DepthDuration_HTML.html#251,251,1280,720,1280,720,8-30-2022,9-53-22,164,depth_duration_stimuli/000692_2014-06-08_13-09-42_260595134347_rgbf000199-resize_2/000692_2014-06-08_13-09-42_260595134347_rgbf000199-resize_2-target.png,1000,3.661,0.35,3660,998,meters,jsons/v1_VE1000_randls_66_rotated.json,914325,1130850,26,Woman
