,subjID,experimentName,versionName,sequenceName,url,selected_row,windowWidth,windowHeight,screenWidth,screenHeight,startDate,startTime,trial,stimulus,duration,actual_depth,depth_estimate,trial_RT,log_sceneDuration,unitSelection,seq_filepath,experimentTime,totalTime,age,gender
0,481307,DepthScenes,duration_manipulation_targetAtFixation,jsons/v1_VE250_randls_56.json,http://54.235.29.9/FacialAge/BNav_EC2/DepthDuration/v2_depth_duration_MTurk/v2_DepthDuration_HTML.html#423,423,1920,1080,1920,1080,9-4-2022,8-20-57,1,depth_duration_stimuli/001016_2014-06-09_16-16-10_260595134347_rgbf000112-resize_5/001016_2014-06-09_16-16-10_260595134347_rgbf000112-resize_5-target.png,250,1.6565,9,3922,247,feet,jsons/v1_VE250_randls_56.json,505807,881599,57,Man
1,481307,DepthScenes,duration_manipulation_targetAtFixation,jsons/v1_VE250_randls_56.json,http://54.235.29.9/FacialAge/BNav_EC2/DepthDuration/v2_depth_duration_MTurk/v2_DepthDuration_HTML.html#423,423,1920,1080,1920,1080,9-4-2022,8-20-57,2,depth_duration_stimuli/002340_2014-06-28_20-05-46_260595134347_rgbf000113-resize_0/002340_2014-06-28_20-05-46_260595134347_rgbf000113-resize_0-target.png,250,2.4735,15,4625,248,feet,jsons/v1_VE250_randls_56.json,505807,881599,57,Man
2,481307,DepthScenes,duration_manipulation_targetAtFixation,jsons/v1_VE250_randls_56.json,http://54.235.29.9/FacialAge/BNav_EC2/DepthDuration/v2_depth_duration_MTurk/v2_DepthDuration_HTML.html#423,423,1920,1080,1920,1080,9-4-2022,8-20-57,3,depth_duration_stimuli/000414_2014-06-04_19-49-13_260595134347_rgbf000044-resize_0/000414_2014-06-04_19-49-13_260595134347_rgbf000044-resize_0-target.png,250,4.329,12,4971,252,feet,jsons/v1_VE250_randls_56.json,505807,881599,57,Man
3,481307,DepthScenes,duration_manipulation_targetAtFixation,jsons/v1_VE250_randls_56.json,http://54.235.29.9/FacialAge/BNav_EC2/DepthDuration/v2_depth_duration_MTurk/v2_DepthDuration_HTML.html#423,423,1920,1080,1920,1080,9-4-2022,8-20-57,4,depth_duration_stimuli/003129_2014-05-12_10-48-10_094959634447_rgbf000100-resize_0/003129_2014-05-12_10-48-10_094959634447_rgbf000100-resize_0-target.png,250,4.9305,20,2958,252,feet,jsons/v1_VE250_randls_56.json,505807,881599,57,Man
4,481307,DepthScenes,duration_manipulation_targetAtFixation,jsons/v1_VE250_randls_56.json,http://54.235.29.9/FacialAge/BNav_EC2/DepthDuration/v2_depth_duration_MTurk/v2_DepthDuration_HTML.html#423,423,1920,1080,1920,1080,9-4-2022,8-20-57,5,depth_duration_stimuli/001029_2014-06-08_13-17-57_260595134347_rgbf000065-resize_1/001029_2014-06-08_13-17-57_260595134347_rgbf000065-resize_1-target.png,250,3.0835,16,3186,250,feet,jsons/v1_VE250_randls_56.json,505807,881599,57,Man
5,481307,DepthScenes,duration_manipulation_targetAtFixation,jsons/v1_VE250_randls_56.json,http://54.235.29.9/FacialAge/BNav_EC2/DepthDuration/v2_depth_duration_MTurk/v2_DepthDuration_HTML.html#423,423,1920,1080,1920,1080,9-4-2022,8-20-57,6,depth_duration_stimuli/000677_2014-06-08_23-10-32_260595134347_rgbf000158-resize_6/000677_2014-06-08_23-10-32_260595134347_rgbf000158-resize_6-target.png,250,3.556,9,2656,253,feet,jsons/v1_VE250_randls_56.json,505807,881599,57,Man
6,481307,DepthScenes,duration_manipulation_targetAtFixation,jsons/v1_VE250_randls_56.json,http://54.235.29.9/FacialAge/BNav_EC2/DepthDuration/v2_depth_duration_MTurk/v2_DepthDuration_HTML.html#423,423,1920,1080,1920,1080,9-4-2022,8-20-57,7,depth_duration_stimuli/001555_2014-06-20_17-12-10_260595134347_rgbf000065-resize_4/001555_2014-06-20_17-12-10_260595134347_rgbf000065-resize_4-target.png,250,1.633,7,3352,257,feet,jsons/v1_VE250_randls_56.json,505807,881599,57,Man
7,481307,DepthScenes,duration_manipulation_targetAtFixation,jsons/v1_VE250_randls_56.json,http://54.235.29.9/FacialAge/BNav_EC2/DepthDuration/v2_depth_duration_MTurk/v2_DepthDuration_HTML.html#423,423,1920,1080,1920,1080,9-4-2022,8-20-57,8,depth_duration_stimuli/000103_2014-05-14_22-01-17_260595134347_rgbf000152-resize_5/000103_2014-05-14_22-01-17_260595134347_rgbf000152-resize_5-target.png,250,1.993,15,2894,244,feet,jsons/v1_VE250_randls_56.json,505807,881599,57,Man
8,481307,DepthScenes,duration_manipulation_targetAtFixation,jsons/v1_VE250_randls_56.json,http://54.235.29.9/FacialAge/BNav_EC2/DepthDuration/v2_depth_duration_MTurk/v2_DepthDuration_HTML.html#423,423,1920,1080,1920,1080,9-4-2022,8-20-57,9,depth_duration_stimuli/002763_2014-06-22_19-13-10_094959634447_rgbf000075-resize_4/002763_2014-06-22_19-13-10_094959634447_rgbf000075-resize_4-target.png,250,1.68375,9,2726,260,feet,jsons/v1_VE250_randls_56.json,505807,881599,57,Man
9,481307,DepthScenes,duration_manipulation_targetAtFixation,jsons/v1_VE250_randls_56.json,http://54.235.29.9/FacialAge/BNav_EC2/DepthDuration/v2_depth_duration_MTurk/v2_DepthDuration_HTML.html#423,423,1920,1080,1920,1080,9-4-2022,8-20-57,10,depth_duration_stimuli/002209_2014-06-28_18-36-10_260595134347_rgbf000051-resize_1/002209_2014-06-28_18-36-10_260595134347_rgbf000051-resize_1-target.png,250,2.057,7,2862,251,feet,jsons/v1_VE250_randls_56.json,505807,881599,57,Man
10,481307,DepthScenes,duration_manipulation_targetAtFixation,jsons/v1_VE250_randls_56.json,http://54.235.29.9/FacialAge/BNav_EC2/DepthDuration/v2_depth_duration_MTurk/v2_DepthDuration_HTML.html#423,423,1920,1080,1920,1080,9-4-2022,8-20-57,11,depth_duration_stimuli/002964_2014-06-08_17-46-11_094959634447_rgbf000091-resize_4/002964_2014-06-08_17-46-11_094959634447_rgbf000091-resize_4-target.png,250,1.6909999999999998,6,2206,241,feet,jsons/v1_VE250_randls_56.json,505807,881599,57,Man
11,481307,DepthScenes,duration_manipulation_targetAtFixation,jsons/v1_VE250_randls_56.json,http://54.235.29.9/FacialAge/BNav_EC2/DepthDuration/v2_depth_duration_MTurk/v2_DepthDuration_HTML.html#423,423,1920,1080,1920,1080,9-4-2022,8-20-57,12,depth_duration_stimuli/002136_2014-06-25_21-18-03_260595134347_rgbf000109-resize_3/002136_2014-06-25_21-18-03_260595134347_rgbf000109-resize_3-target.png,250,1.9569999999999999,8,2387,243,feet,jsons/v1_VE250_randls_56.json,505807,881599,57,Man
12,481307,DepthScenes,duration_manipulation_targetAtFixation,jsons/v1_VE250_randls_56.json,http://54.235.29.9/FacialAge/BNav_EC2/DepthDuration/v2_depth_duration_MTurk/v2_DepthDuration_HTML.html#423,423,1920,1080,1920,1080,9-4-2022,8-20-57,13,depth_duration_stimuli/000569_2014-06-09_22-51-47_260595134347_rgbf000141-resize_3/000569_2014-06-09_22-51-47_260595134347_rgbf000141-resize-original.jpg,250,4.512,0,2505,250,feet,jsons/v1_VE250_randls_56.json,505807,881599,57,Man
13,481307,DepthScenes,duration_manipulation_targetAtFixation,jsons/v1_VE250_randls_56.json,http://54.235.29.9/FacialAge/BNav_EC2/DepthDuration/v2_depth_duration_MTurk/v2_DepthDuration_HTML.html#423,423,1920,1080,1920,1080,9-4-2022,8-20-57,14,depth_duration_stimuli/001810_2014-06-26_20-51-35_260595134347_rgbf000040-resize_3/001810_2014-06-26_20-51-35_260595134347_rgbf000040-resize_3-target.png,250,2.2525,9,2638,253,feet,jsons/v1_VE250_randls_56.json,505807,881599,57,Man
14,481307,DepthScenes,duration_manipulation_targetAtFixation,jsons/v1_VE250_randls_56.json,http://54.235.29.9/FacialAge/BNav_EC2/DepthDuration/v2_depth_duration_MTurk/v2_DepthDuration_HTML.html#423,423,1920,1080,1920,1080,9-4-2022,8-20-57,15,depth_duration_stimuli/003010_2014-06-15_12-54-35_094959634447_rgbf000112-resize_0/003010_2014-06-15_12-54-35_094959634447_rgbf000112-resize_0-target.png,250,3.1185,20,5415,257,feet,jsons/v1_VE250_randls_56.json,505807,881599,57,Man
15,481307,DepthScenes,duration_manipulation_targetAtFixation,jsons/v1_VE250_randls_56.json,http://54.235.29.9/FacialAge/BNav_EC2/DepthDuration/v2_depth_duration_MTurk/v2_DepthDuration_HTML.html#423,423,1920,1080,1920,1080,9-4-2022,8-20-57,16,depth_duration_stimuli/001158_2014-06-17_15-32-16_260595134347_rgbf000138-resize_2/001158_2014-06-17_15-32-16_260595134347_rgbf000138-resize_2-target.png,250,4.5315,15,4100,254,feet,jsons/v1_VE250_randls_56.json,505807,881599,57,Man
16,481307,DepthScenes,duration_manipulation_targetAtFixation,jsons/v1_VE250_randls_56.json,http://54.235.29.9/FacialAge/BNav_EC2/DepthDuration/v2_depth_duration_MTurk/v2_DepthDuration_HTML.html#423,423,1920,1080,1920,1080,9-4-2022,8-20-57,17,depth_duration_stimuli/000556_2014-06-09_22-42-56_260595134347_rgbf000214-resize_1/000556_2014-06-09_22-42-56_260595134347_rgbf000214-resize_1-target.png,250,4.8415,20,2799,238,feet,jsons/v1_VE250_randls_56.json,505807,881599,57,Man
17,481307,DepthScenes,duration_manipulation_targetAtFixation,jsons/v1_VE250_randls_56.json,http://54.235.29.9/FacialAge/BNav_EC2/DepthDuration/v2_depth_duration_MTurk/v2_DepthDuration_HTML.html#423,423,1920,1080,1920,1080,9-4-2022,8-20-57,18,depth_duration_stimuli/000692_2014-06-08_13-09-42_260595134347_rgbf000199-resize_2/000692_2014-06-08_13-09-42_260595134347_rgbf000199-resize_2-target.png,250,3.661,22,2375,250,feet,jsons/v1_VE250_randls_56.json,505807,881599,57,Man
18,481307,DepthScenes,duration_manipulation_targetAtFixation,jsons/v1_VE250_randls_56.json,http://54.235.29.9/FacialAge/BNav_EC2/DepthDuration/v2_depth_duration_MTurk/v2_DepthDuration_HTML.html#423,423,1920,1080,1920,1080,9-4-2022,8-20-57,19,depth_duration_stimuli/001094_2014-06-15_17-36-00_260595134347_rgbf000205-resize_0/001094_2014-06-15_17-36-00_260595134347_rgbf000205-resize_0-target.png,250,4.2175,12,2739,257,feet,jsons/v1_VE250_randls_56.json,505807,881599,57,Man
19,481307,DepthScenes,duration_manipulation_targetAtFixation,jsons/v1_VE250_randls_56.json,http://54.235.29.9/FacialAge/BNav_EC2/DepthDuration/v2_depth_duration_MTurk/v2_DepthDuration_HTML.html#423,423,1920,1080,1920,1080,9-4-2022,8-20-57,20,depth_duration_stimuli/000470_2014-06-09_19-42-40_260595134347_rgbf000094-resize_1/000470_2014-06-09_19-42-40_260595134347_rgbf000094-resize_1-target.png,250,1.831,6,2266,256,feet,jsons/v1_VE250_randls_56.json,505807,881599,57,Man
20,481307,DepthScenes,duration_manipulation_targetAtFixation,jsons/v1_VE250_randls_56.json,http://54.235.29.9/FacialAge/BNav_EC2/DepthDuration/v2_depth_duration_MTurk/v2_DepthDuration_HTML.html#423,423,1920,1080,1920,1080,9-4-2022,8-20-57,21,depth_duration_stimuli/000109_2014-05-14_23-41-52_260595134347_rgbf000035-resize_9/000109_2014-05-14_23-41-52_260595134347_rgbf000035-resize_9-target.png,250,1.3545,6,2386,246,feet,jsons/v1_VE250_randls_56.json,505807,881599,57,Man
21,481307,DepthScenes,duration_manipulation_targetAtFixation,jsons/v1_VE250_randls_56.json,http://54.235.29.9/FacialAge/BNav_EC2/DepthDuration/v2_depth_duration_MTurk/v2_DepthDuration_HTML.html#423,423,1920,1080,1920,1080,9-4-2022,8-20-57,22,depth_duration_stimuli/003292_2014-05-14_21-53-49_094959634447_rgbf000100-resize_2/003292_2014-05-14_21-53-49_094959634447_rgbf000100-resize_2-target.png,250,3.4815,15,2232,257,feet,jsons/v1_VE250_randls_56.json,505807,881599,57,Man
22,481307,DepthScenes,duration_manipulation_targetAtFixation,jsons/v1_VE250_randls_56.json,http://54.235.29.9/FacialAge/BNav_EC2/DepthDuration/v2_depth_duration_MTurk/v2_DepthDuration_HTML.html#423,423,1920,1080,1920,1080,9-4-2022,8-20-57,23,depth_duration_stimuli/002639_2014-06-24_14-51-37_094959634447_rgbf000074-resize_4/002639_2014-06-24_14-51-37_094959634447_rgbf000074-resize_4-target.png,250,4.0375,22,2172,257,feet,jsons/v1_VE250_randls_56.json,505807,881599,57,Man
23,481307,DepthScenes,duration_manipulation_targetAtFixation,jsons/v1_VE250_randls_56.json,http://54.235.29.9/FacialAge/BNav_EC2/DepthDuration/v2_depth_duration_MTurk/v2_DepthDuration_HTML.html#423,423,1920,1080,1920,1080,9-4-2022,8-20-57,24,depth_duration_stimuli/002039_2014-06-24_20-22-38_260595134347_rgbf000084-resize_1/002039_2014-06-24_20-22-38_260595134347_rgbf000084-resize_1-target.png,250,4.408,22,2342,247,feet,jsons/v1_VE250_randls_56.json,505807,881599,57,Man
24,481307,DepthScenes,duration_manipulation_targetAtFixation,jsons/v1_VE250_randls_56.json,http://54.235.29.9/FacialAge/BNav_EC2/DepthDuration/v2_depth_duration_MTurk/v2_DepthDuration_HTML.html#423,423,1920,1080,1920,1080,9-4-2022,8-20-57,25,depth_duration_stimuli/002103_2014-06-25_20-00-40_260595134347_rgbf000049-resize_0/002103_2014-06-25_20-00-40_260595134347_rgbf000049-resize_0-target.png,250,4.105,16,3544,261,feet,jsons/v1_VE250_randls_56.json,505807,881599,57,Man
25,481307,DepthScenes,duration_manipulation_targetAtFixation,jsons/v1_VE250_randls_56.json,http://54.235.29.9/FacialAge/BNav_EC2/DepthDuration/v2_depth_duration_MTurk/v2_DepthDuration_HTML.html#423,423,1920,1080,1920,1080,9-4-2022,8-20-57,26,depth_duration_stimuli/002784_2014-06-22_19-26-30_094959634447_rgbf000083-resize_3/002784_2014-06-22_19-26-30_094959634447_rgbf000083-resize_3-target.png,250,1.8046666666667,6,2098,247,feet,jsons/v1_VE250_randls_56.json,505807,881599,57,Man
26,481307,DepthScenes,duration_manipulation_targetAtFixation,jsons/v1_VE250_randls_56.json,http://54.235.29.9/FacialAge/BNav_EC2/DepthDuration/v2_depth_duration_MTurk/v2_DepthDuration_HTML.html#423,423,1920,1080,1920,1080,9-4-2022,8-20-57,27,depth_duration_stimuli/001100_2014-06-15_17-46-26_260595134347_rgbf000225-resize_2/001100_2014-06-15_17-46-26_260595134347_rgbf000225-resize_2-target.png,250,2.24,7,3025,253,feet,jsons/v1_VE250_randls_56.json,505807,881599,57,Man
27,481307,DepthScenes,duration_manipulation_targetAtFixation,jsons/v1_VE250_randls_56.json,http://54.235.29.9/FacialAge/BNav_EC2/DepthDuration/v2_depth_duration_MTurk/v2_DepthDuration_HTML.html#423,423,1920,1080,1920,1080,9-4-2022,8-20-57,28,depth_duration_stimuli/000009_2014-05-26_14-32-05_260595134347_rgbf000034-resize_3/000009_2014-05-26_14-32-05_260595134347_rgbf000034-resize_3-target.png,250,3.8715,20,2929,246,feet,jsons/v1_VE250_randls_56.json,505807,881599,57,Man
28,481307,DepthScenes,duration_manipulation_targetAtFixation,jsons/v1_VE250_randls_56.json,http://54.235.29.9/FacialAge/BNav_EC2/DepthDuration/v2_depth_duration_MTurk/v2_DepthDuration_HTML.html#423,423,1920,1080,1920,1080,9-4-2022,8-20-57,29,depth_duration_stimuli/001828_2014-06-26_21-40-03_260595134347_rgbf000024-resize_0/001828_2014-06-26_21-40-03_260595134347_rgbf000024-resize_0-target.png,250,4.8260000000000005,12,4297,252,feet,jsons/v1_VE250_randls_56.json,505807,881599,57,Man
29,481307,DepthScenes,duration_manipulation_targetAtFixation,jsons/v1_VE250_randls_56.json,http://54.235.29.9/FacialAge/BNav_EC2/DepthDuration/v2_depth_duration_MTurk/v2_DepthDuration_HTML.html#423,423,1920,1080,1920,1080,9-4-2022,8-20-57,30,depth_duration_stimuli/000375_2014-06-08_11-17-29_260595134347_rgbf000133-resize_2/000375_2014-06-08_11-17-29_260595134347_rgbf000133-resize-original.jpg,250,4.718,0,2198,247,feet,jsons/v1_VE250_randls_56.json,505807,881599,57,Man
30,481307,DepthScenes,duration_manipulation_targetAtFixation,jsons/v1_VE250_randls_56.json,http://54.235.29.9/FacialAge/BNav_EC2/DepthDuration/v2_depth_duration_MTurk/v2_DepthDuration_HTML.html#423,423,1920,1080,1920,1080,9-4-2022,8-20-57,31,depth_duration_stimuli/000917_2014-06-09_22-45-29_260595134347_rgbf000149-resize_3/000917_2014-06-09_22-45-29_260595134347_rgbf000149-resize_3-target.png,250,4.1865,12,3387,249,feet,jsons/v1_VE250_randls_56.json,505807,881599,57,Man
31,481307,DepthScenes,duration_manipulation_targetAtFixation,jsons/v1_VE250_randls_56.json,http://54.235.29.9/FacialAge/BNav_EC2/DepthDuration/v2_depth_duration_MTurk/v2_DepthDuration_HTML.html#423,423,1920,1080,1920,1080,9-4-2022,8-20-57,32,depth_duration_stimuli/002323_2014-06-28_20-01-54_260595134347_rgbf000051-resize_4/002323_2014-06-28_20-01-54_260595134347_rgbf000051-resize_4-target.png,250,3.7310000000000003,11,2945,249,feet,jsons/v1_VE250_randls_56.json,505807,881599,57,Man
32,481307,DepthScenes,duration_manipulation_targetAtFixation,jsons/v1_VE250_randls_56.json,http://54.235.29.9/FacialAge/BNav_EC2/DepthDuration/v2_depth_duration_MTurk/v2_DepthDuration_HTML.html#423,423,1920,1080,1920,1080,9-4-2022,8-20-57,33,depth_duration_stimuli/001055_2014-06-08_18-45-35_260595134347_rgbf000111-resize_4/001055_2014-06-08_18-45-35_260595134347_rgbf000111-resize_4-target.png,250,2.4290000000000003,16,2684,240,feet,jsons/v1_VE250_randls_56.json,505807,881599,57,Man
33,481307,DepthScenes,duration_manipulation_targetAtFixation,jsons/v1_VE250_randls_56.json,http://54.235.29.9/FacialAge/BNav_EC2/DepthDuration/v2_depth_duration_MTurk/v2_DepthDuration_HTML.html#423,423,1920,1080,1920,1080,9-4-2022,8-20-57,34,depth_duration_stimuli/000549_2014-06-08_22-10-24_260595134347_rgbf000247-resize_3/000549_2014-06-08_22-10-24_260595134347_rgbf000247-resize_3-target.png,250,1.841,8,2474,252,feet,jsons/v1_VE250_randls_56.json,505807,881599,57,Man
34,481307,DepthScenes,duration_manipulation_targetAtFixation,jsons/v1_VE250_randls_56.json,http://54.235.29.9/FacialAge/BNav_EC2/DepthDuration/v2_depth_duration_MTurk/v2_DepthDuration_HTML.html#423,423,1920,1080,1920,1080,9-4-2022,8-20-57,35,depth_duration_stimuli/003492_2014-05-21_15-50-55_094959634447_rgbf000828-resize_1/003492_2014-05-21_15-50-55_094959634447_rgbf000828-resize_1-target.png,250,4.06875,15,2211,255,feet,jsons/v1_VE250_randls_56.json,505807,881599,57,Man
35,481307,DepthScenes,duration_manipulation_targetAtFixation,jsons/v1_VE250_randls_56.json,http://54.235.29.9/FacialAge/BNav_EC2/DepthDuration/v2_depth_duration_MTurk/v2_DepthDuration_HTML.html#423,423,1920,1080,1920,1080,9-4-2022,8-20-57,36,depth_duration_stimuli/002568_2014-06-24_13-59-21_094959634447_rgbf000062-resize_4/002568_2014-06-24_13-59-21_094959634447_rgbf000062-resize_4-target.png,250,3.015,20,2452,254,feet,jsons/v1_VE250_randls_56.json,505807,881599,57,Man
36,481307,DepthScenes,duration_manipulation_targetAtFixation,jsons/v1_VE250_randls_56.json,http://54.235.29.9/FacialAge/BNav_EC2/DepthDuration/v2_depth_duration_MTurk/v2_DepthDuration_HTML.html#423,423,1920,1080,1920,1080,9-4-2022,8-20-57,37,depth_duration_stimuli/002272_2014-06-28_18-53-56_260595134347_rgbf000067-resize_2/002272_2014-06-28_18-53-56_260595134347_rgbf000067-resize_2-target.png,250,1.138,5,2407,260,feet,jsons/v1_VE250_randls_56.json,505807,881599,57,Man
37,481307,DepthScenes,duration_manipulation_targetAtFixation,jsons/v1_VE250_randls_56.json,http://54.235.29.9/FacialAge/BNav_EC2/DepthDuration/v2_depth_duration_MTurk/v2_DepthDuration_HTML.html#423,423,1920,1080,1920,1080,9-4-2022,8-20-57,38,depth_duration_stimuli/001571_2014-06-20_17-21-32_260595134347_rgbf000089-resize_1/001571_2014-06-20_17-21-32_260595134347_rgbf000089-resize_1-target.png,250,1.86,6,2559,248,feet,jsons/v1_VE250_randls_56.json,505807,881599,57,Man
38,481307,DepthScenes,duration_manipulation_targetAtFixation,jsons/v1_VE250_randls_56.json,http://54.235.29.9/FacialAge/BNav_EC2/DepthDuration/v2_depth_duration_MTurk/v2_DepthDuration_HTML.html#423,423,1920,1080,1920,1080,9-4-2022,8-20-57,39,depth_duration_stimuli/000493_2014-06-09_21-01-18_260595134347_rgbf000196-resize_3/000493_2014-06-09_21-01-18_260595134347_rgbf000196-resize_3-target.png,250,3.44,15,3454,261,feet,jsons/v1_VE250_randls_56.json,505807,881599,57,Man
39,481307,DepthScenes,duration_manipulation_targetAtFixation,jsons/v1_VE250_randls_56.json,http://54.235.29.9/FacialAge/BNav_EC2/DepthDuration/v2_depth_duration_MTurk/v2_DepthDuration_HTML.html#423,423,1920,1080,1920,1080,9-4-2022,8-20-57,40,depth_duration_stimuli/000191_2014-05-12_17-07-38_260595134347_rgbf000199-resize_0/000191_2014-05-12_17-07-38_260595134347_rgbf000199-resize_0-target.png,250,3.7995,15,2231,247,feet,jsons/v1_VE250_randls_56.json,505807,881599,57,Man
40,481307,DepthScenes,duration_manipulation_targetAtFixation,jsons/v1_VE250_randls_56.json,http://54.235.29.9/FacialAge/BNav_EC2/DepthDuration/v2_depth_duration_MTurk/v2_DepthDuration_HTML.html#423,423,1920,1080,1920,1080,9-4-2022,8-20-57,41,depth_duration_stimuli/002905_2014-06-03_18-04-43_094959634447_rgbf000151-resize_2/002905_2014-06-03_18-04-43_094959634447_rgbf000151-resize_2-target.png,250,2.0295,9,3499,259,feet,jsons/v1_VE250_randls_56.json,505807,881599,57,Man
41,481307,DepthScenes,duration_manipulation_targetAtFixation,jsons/v1_VE250_randls_56.json,http://54.235.29.9/FacialAge/BNav_EC2/DepthDuration/v2_depth_duration_MTurk/v2_DepthDuration_HTML.html#423,423,1920,1080,1920,1080,9-4-2022,8-20-57,42,depth_duration_stimuli/003423_2014-05-21_10-23-26_094959634447_rgbf002665-resize_2/003423_2014-05-21_10-23-26_094959634447_rgbf002665-resize_2-target.png,250,3.2575,20,2434,250,feet,jsons/v1_VE250_randls_56.json,505807,881599,57,Man
42,481307,DepthScenes,duration_manipulation_targetAtFixation,jsons/v1_VE250_randls_56.json,http://54.235.29.9/FacialAge/BNav_EC2/DepthDuration/v2_depth_duration_MTurk/v2_DepthDuration_HTML.html#423,423,1920,1080,1920,1080,9-4-2022,8-20-57,43,depth_duration_stimuli/000878_2014-06-08_22-52-45_260595134347_rgbf000045-resize_2/000878_2014-06-08_22-52-45_260595134347_rgbf000045-resize_2-target.png,250,2.092,12,2158,244,feet,jsons/v1_VE250_randls_56.json,505807,881599,57,Man
43,481307,DepthScenes,duration_manipulation_targetAtFixation,jsons/v1_VE250_randls_56.json,http://54.235.29.9/FacialAge/BNav_EC2/DepthDuration/v2_depth_duration_MTurk/v2_DepthDuration_HTML.html#423,423,1920,1080,1920,1080,9-4-2022,8-20-57,44,depth_duration_stimuli/002953_2014-06-08_17-32-18_094959634447_rgbf000059-resize_5/002953_2014-06-08_17-32-18_094959634447_rgbf000059-resize_5-target.png,250,1.551,6,2275,253,feet,jsons/v1_VE250_randls_56.json,505807,881599,57,Man
44,481307,DepthScenes,duration_manipulation_targetAtFixation,jsons/v1_VE250_randls_56.json,http://54.235.29.9/FacialAge/BNav_EC2/DepthDuration/v2_depth_duration_MTurk/v2_DepthDuration_HTML.html#423,423,1920,1080,1920,1080,9-4-2022,8-20-57,45,depth_duration_stimuli/000787_2014-06-08_22-33-53_260595134347_rgbf000175-resize_1/000787_2014-06-08_22-33-53_260595134347_rgbf000175-resize-original.jpg,250,4.784,0,2439,253,feet,jsons/v1_VE250_randls_56.json,505807,881599,57,Man
45,481307,DepthScenes,duration_manipulation_targetAtFixation,jsons/v1_VE250_randls_56.json,http://54.235.29.9/FacialAge/BNav_EC2/DepthDuration/v2_depth_duration_MTurk/v2_DepthDuration_HTML.html#423,423,1920,1080,1920,1080,9-4-2022,8-20-57,46,depth_duration_stimuli/002153_2014-06-25_21-27-18_260595134347_rgbf000038-resize_5/002153_2014-06-25_21-27-18_260595134347_rgbf000038-resize_5-target.png,250,2.505,8,2243,238,feet,jsons/v1_VE250_randls_56.json,505807,881599,57,Man
46,481307,DepthScenes,duration_manipulation_targetAtFixation,jsons/v1_VE250_randls_56.json,http://54.235.29.9/FacialAge/BNav_EC2/DepthDuration/v2_depth_duration_MTurk/v2_DepthDuration_HTML.html#423,423,1920,1080,1920,1080,9-4-2022,8-20-57,47,depth_duration_stimuli/002660_2014-06-13_15-44-18_094959634447_rgbf001878-resize_2/002660_2014-06-13_15-44-18_094959634447_rgbf001878-resize_2-target.png,250,3.576,15,2294,256,feet,jsons/v1_VE250_randls_56.json,505807,881599,57,Man
47,481307,DepthScenes,duration_manipulation_targetAtFixation,jsons/v1_VE250_randls_56.json,http://54.235.29.9/FacialAge/BNav_EC2/DepthDuration/v2_depth_duration_MTurk/v2_DepthDuration_HTML.html#423,423,1920,1080,1920,1080,9-4-2022,8-20-57,48,depth_duration_stimuli/000929_2014-06-09_16-33-19_260595134347_rgbf000139-resize_0/000929_2014-06-09_16-33-19_260595134347_rgbf000139-resize_0-target.png,250,2.8680000000000003,12,2618,260,feet,jsons/v1_VE250_randls_56.json,505807,881599,57,Man
48,481307,DepthScenes,duration_manipulation_targetAtFixation,jsons/v1_VE250_randls_56.json,http://54.235.29.9/FacialAge/BNav_EC2/DepthDuration/v2_depth_duration_MTurk/v2_DepthDuration_HTML.html#423,423,1920,1080,1920,1080,9-4-2022,8-20-57,49,depth_duration_stimuli/000457_2014-06-08_16-52-43_260595134347_rgbf000199-resize_1/000457_2014-06-08_16-52-43_260595134347_rgbf000199-resize_1-target.png,250,3.6489999999999996,20,2403,250,feet,jsons/v1_VE250_randls_56.json,505807,881599,57,Man
49,481307,DepthScenes,duration_manipulation_targetAtFixation,jsons/v1_VE250_randls_56.json,http://54.235.29.9/FacialAge/BNav_EC2/DepthDuration/v2_depth_duration_MTurk/v2_DepthDuration_HTML.html#423,423,1920,1080,1920,1080,9-4-2022,8-20-57,50,depth_duration_stimuli/001167_2014-06-17_15-38-07_260595134347_rgbf000108-resize_0/001167_2014-06-17_15-38-07_260595134347_rgbf000108-resize_0-target.png,250,1.8505,8,2160,244,feet,jsons/v1_VE250_randls_56.json,505807,881599,57,Man
50,481307,DepthScenes,duration_manipulation_targetAtFixation,jsons/v1_VE250_randls_56.json,http://54.235.29.9/FacialAge/BNav_EC2/DepthDuration/v2_depth_duration_MTurk/v2_DepthDuration_HTML.html#423,423,1920,1080,1920,1080,9-4-2022,8-20-57,51,depth_duration_stimuli/003587_2014-05-23_16-48-02_094959634447_rgbf002384-resize_2/003587_2014-05-23_16-48-02_094959634447_rgbf002384-resize_2-target.png,250,1.357,6,2149,262,feet,jsons/v1_VE250_randls_56.json,505807,881599,57,Man
51,481307,DepthScenes,duration_manipulation_targetAtFixation,jsons/v1_VE250_randls_56.json,http://54.235.29.9/FacialAge/BNav_EC2/DepthDuration/v2_depth_duration_MTurk/v2_DepthDuration_HTML.html#423,423,1920,1080,1920,1080,9-4-2022,8-20-57,52,depth_duration_stimuli/001059_2014-06-08_21-53-27_260595134347_rgbf000061-resize_4/001059_2014-06-08_21-53-27_260595134347_rgbf000061-resize_4-target.png,250,2.4185,9,2394,240,feet,jsons/v1_VE250_randls_56.json,505807,881599,57,Man
52,481307,DepthScenes,duration_manipulation_targetAtFixation,jsons/v1_VE250_randls_56.json,http://54.235.29.9/FacialAge/BNav_EC2/DepthDuration/v2_depth_duration_MTurk/v2_DepthDuration_HTML.html#423,423,1920,1080,1920,1080,9-4-2022,8-20-57,53,depth_duration_stimuli/001032_2014-06-08_13-23-17_260595134347_rgbf000021-resize_3/001032_2014-06-08_13-23-17_260595134347_rgbf000021-resize_3-target.png,250,3.2725,12,2150,245,feet,jsons/v1_VE250_randls_56.json,505807,881599,57,Man
53,481307,DepthScenes,duration_manipulation_targetAtFixation,jsons/v1_VE250_randls_56.json,http://54.235.29.9/FacialAge/BNav_EC2/DepthDuration/v2_depth_duration_MTurk/v2_DepthDuration_HTML.html#423,423,1920,1080,1920,1080,9-4-2022,8-20-57,54,depth_duration_stimuli/002445_2014-06-28_20-32-16_260595134347_rgbf000029-resize_4/002445_2014-06-28_20-32-16_260595134347_rgbf000029-resize_4-target.png,250,2.5315,11,2827,258,feet,jsons/v1_VE250_randls_56.json,505807,881599,57,Man
54,481307,DepthScenes,duration_manipulation_targetAtFixation,jsons/v1_VE250_randls_56.json,http://54.235.29.9/FacialAge/BNav_EC2/DepthDuration/v2_depth_duration_MTurk/v2_DepthDuration_HTML.html#423,423,1920,1080,1920,1080,9-4-2022,8-20-57,55,depth_duration_stimuli/000780_2014-06-08_22-28-29_260595134347_rgbf000126-resize_1/000780_2014-06-08_22-28-29_260595134347_rgbf000126-resize_1-target.png,250,3.3825,16,3592,247,feet,jsons/v1_VE250_randls_56.json,505807,881599,57,Man
55,481307,DepthScenes,duration_manipulation_targetAtFixation,jsons/v1_VE250_randls_56.json,http://54.235.29.9/FacialAge/BNav_EC2/DepthDuration/v2_depth_duration_MTurk/v2_DepthDuration_HTML.html#423,423,1920,1080,1920,1080,9-4-2022,8-20-57,56,depth_duration_stimuli/000758_2014-06-08_22-05-08_260595134347_rgbf000085-resize_0/000758_2014-06-08_22-05-08_260595134347_rgbf000085-resize_0-target.png,250,3.3810000000000002,20,2403,253,feet,jsons/v1_VE250_randls_56.json,505807,881599,57,Man
56,481307,DepthScenes,duration_manipulation_targetAtFixation,jsons/v1_VE250_randls_56.json,http://54.235.29.9/FacialAge/BNav_EC2/DepthDuration/v2_depth_duration_MTurk/v2_DepthDuration_HTML.html#423,423,1920,1080,1920,1080,9-4-2022,8-20-57,57,depth_duration_stimuli/000854_2014-06-09_19-43-13_260595134347_rgbf000066-resize_0/000854_2014-06-09_19-43-13_260595134347_rgbf000066-resize_0-target.png,250,3.068,8,2335,262,feet,jsons/v1_VE250_randls_56.json,505807,881599,57,Man
57,481307,DepthScenes,duration_manipulation_targetAtFixation,jsons/v1_VE250_randls_56.json,http://54.235.29.9/FacialAge/BNav_EC2/DepthDuration/v2_depth_duration_MTurk/v2_DepthDuration_HTML.html#423,423,1920,1080,1920,1080,9-4-2022,8-20-57,58,depth_duration_stimuli/000447_2014-06-08_16-15-46_260595134347_rgbf000130-resize_1/000447_2014-06-08_16-15-46_260595134347_rgbf000130-resize_1-target.png,250,4.479,20,2350,240,feet,jsons/v1_VE250_randls_56.json,505807,881599,57,Man
58,481307,DepthScenes,duration_manipulation_targetAtFixation,jsons/v1_VE250_randls_56.json,http://54.235.29.9/FacialAge/BNav_EC2/DepthDuration/v2_depth_duration_MTurk/v2_DepthDuration_HTML.html#423,423,1920,1080,1920,1080,9-4-2022,8-20-57,59,depth_duration_stimuli/001447_2014-06-19_17-00-32_260595134347_rgbf000082-resize_5/001447_2014-06-19_17-00-32_260595134347_rgbf000082-resize_5-target.png,250,4.13775,15,2571,245,feet,jsons/v1_VE250_randls_56.json,505807,881599,57,Man
59,481307,DepthScenes,duration_manipulation_targetAtFixation,jsons/v1_VE250_randls_56.json,http://54.235.29.9/FacialAge/BNav_EC2/DepthDuration/v2_depth_duration_MTurk/v2_DepthDuration_HTML.html#423,423,1920,1080,1920,1080,9-4-2022,8-20-57,60,depth_duration_stimuli/001110_2014-06-15_17-25-28_260595134347_rgbf000150-resize_1/001110_2014-06-15_17-25-28_260595134347_rgbf000150-resize_1-target.png,250,1.7115,12,2448,252,feet,jsons/v1_VE250_randls_56.json,505807,881599,57,Man
60,481307,DepthScenes,duration_manipulation_targetAtFixation,jsons/v1_VE250_randls_56.json,http://54.235.29.9/FacialAge/BNav_EC2/DepthDuration/v2_depth_duration_MTurk/v2_DepthDuration_HTML.html#423,423,1920,1080,1920,1080,9-4-2022,8-20-57,61,depth_duration_stimuli/000927_2014-06-09_16-32-30_260595134347_rgbf000123-resize_3/000927_2014-06-09_16-32-30_260595134347_rgbf000123-resize_3-target.png,250,2.6785,12,2403,246,feet,jsons/v1_VE250_randls_56.json,505807,881599,57,Man
61,481307,DepthScenes,duration_manipulation_targetAtFixation,jsons/v1_VE250_randls_56.json,http://54.235.29.9/FacialAge/BNav_EC2/DepthDuration/v2_depth_duration_MTurk/v2_DepthDuration_HTML.html#423,423,1920,1080,1920,1080,9-4-2022,8-20-57,62,depth_duration_stimuli/002375_2014-06-28_20-13-44_260595134347_rgbf000032-resize_1/002375_2014-06-28_20-13-44_260595134347_rgbf000032-resize_1-target.png,250,4.0175,12,2204,242,feet,jsons/v1_VE250_randls_56.json,505807,881599,57,Man
62,481307,DepthScenes,duration_manipulation_targetAtFixation,jsons/v1_VE250_randls_56.json,http://54.235.29.9/FacialAge/BNav_EC2/DepthDuration/v2_depth_duration_MTurk/v2_DepthDuration_HTML.html#423,423,1920,1080,1920,1080,9-4-2022,8-20-57,63,depth_duration_stimuli/002657_2014-06-13_15-29-54_094959634447_rgbf000150-resize_1/002657_2014-06-13_15-29-54_094959634447_rgbf000150-resize_1-target.png,250,4.919,20,2887,250,feet,jsons/v1_VE250_randls_56.json,505807,881599,57,Man
63,481307,DepthScenes,duration_manipulation_targetAtFixation,jsons/v1_VE250_randls_56.json,http://54.235.29.9/FacialAge/BNav_EC2/DepthDuration/v2_depth_duration_MTurk/v2_DepthDuration_HTML.html#423,423,1920,1080,1920,1080,9-4-2022,8-20-57,64,depth_duration_stimuli/002213_2014-06-28_18-37-58_260595134347_rgbf000055-resize_1/002213_2014-06-28_18-37-58_260595134347_rgbf000055-resize_1-target.png,250,3.62,0,2312,256,feet,jsons/v1_VE250_randls_56.json,505807,881599,57,Man
64,481307,DepthScenes,duration_manipulation_targetAtFixation,jsons/v1_VE250_randls_56.json,http://54.235.29.9/FacialAge/BNav_EC2/DepthDuration/v2_depth_duration_MTurk/v2_DepthDuration_HTML.html#423,423,1920,1080,1920,1080,9-4-2022,8-20-57,65,depth_duration_stimuli/000691_2014-06-08_13-08-50_260595134347_rgbf000132-resize_3/000691_2014-06-08_13-08-50_260595134347_rgbf000132-resize_3-target.png,250,4.1530000000000005,20,4015,247,feet,jsons/v1_VE250_randls_56.json,505807,881599,57,Man
65,481307,DepthScenes,duration_manipulation_targetAtFixation,jsons/v1_VE250_randls_56.json,http://54.235.29.9/FacialAge/BNav_EC2/DepthDuration/v2_depth_duration_MTurk/v2_DepthDuration_HTML.html#423,423,1920,1080,1920,1080,9-4-2022,8-20-57,66,depth_duration_stimuli/001222_2014-06-17_16-24-06_260595134347_rgbf000073-resize_0/001222_2014-06-17_16-24-06_260595134347_rgbf000073-resize-original.jpg,250,1.4385,0,1993,251,feet,jsons/v1_VE250_randls_56.json,505807,881599,57,Man
66,481307,DepthScenes,duration_manipulation_targetAtFixation,jsons/v1_VE250_randls_56.json,http://54.235.29.9/FacialAge/BNav_EC2/DepthDuration/v2_depth_duration_MTurk/v2_DepthDuration_HTML.html#423,423,1920,1080,1920,1080,9-4-2022,8-20-57,67,depth_duration_stimuli/000469_2014-06-09_19-42-10_260595134347_rgbf000081-resize_1/000469_2014-06-09_19-42-10_260595134347_rgbf000081-resize_1-target.png,250,1.652,6,1972,248,feet,jsons/v1_VE250_randls_56.json,505807,881599,57,Man
67,481307,DepthScenes,duration_manipulation_targetAtFixation,jsons/v1_VE250_randls_56.json,http://54.235.29.9/FacialAge/BNav_EC2/DepthDuration/v2_depth_duration_MTurk/v2_DepthDuration_HTML.html#423,423,1920,1080,1920,1080,9-4-2022,8-20-57,68,depth_duration_stimuli/000483_2014-06-09_20-41-45_260595134347_rgbf000116-resize_4/000483_2014-06-09_20-41-45_260595134347_rgbf000116-resize_4-target.png,250,1.337,8,2244,253,feet,jsons/v1_VE250_randls_56.json,505807,881599,57,Man
68,481307,DepthScenes,duration_manipulation_targetAtFixation,jsons/v1_VE250_randls_56.json,http://54.235.29.9/FacialAge/BNav_EC2/DepthDuration/v2_depth_duration_MTurk/v2_DepthDuration_HTML.html#423,423,1920,1080,1920,1080,9-4-2022,8-20-57,69,depth_duration_stimuli/000642_2014-06-08_16-59-25_260595134347_rgbf000098-resize_2/000642_2014-06-08_16-59-25_260595134347_rgbf000098-resize_2-target.png,250,2.8815,10,2981,259,feet,jsons/v1_VE250_randls_56.json,505807,881599,57,Man
69,481307,DepthScenes,duration_manipulation_targetAtFixation,jsons/v1_VE250_randls_56.json,http://54.235.29.9/FacialAge/BNav_EC2/DepthDuration/v2_depth_duration_MTurk/v2_DepthDuration_HTML.html#423,423,1920,1080,1920,1080,9-4-2022,8-20-57,70,depth_duration_stimuli/002425_2014-06-28_20-27-29_260595134347_rgbf000031-resize_8/002425_2014-06-28_20-27-29_260595134347_rgbf000031-resize_8-target.png,250,3.8960000000000004,15,2423,245,feet,jsons/v1_VE250_randls_56.json,505807,881599,57,Man
70,481307,DepthScenes,duration_manipulation_targetAtFixation,jsons/v1_VE250_randls_56.json,http://54.235.29.9/FacialAge/BNav_EC2/DepthDuration/v2_depth_duration_MTurk/v2_DepthDuration_HTML.html#423,423,1920,1080,1920,1080,9-4-2022,8-20-57,71,depth_duration_stimuli/002118_2014-06-25_20-32-08_260595134347_rgbf000078-resize_1/002118_2014-06-25_20-32-08_260595134347_rgbf000078-resize_1-target.png,250,2.6460000000000004,9,2348,238,feet,jsons/v1_VE250_randls_56.json,505807,881599,57,Man
71,481307,DepthScenes,duration_manipulation_targetAtFixation,jsons/v1_VE250_randls_56.json,http://54.235.29.9/FacialAge/BNav_EC2/DepthDuration/v2_depth_duration_MTurk/v2_DepthDuration_HTML.html#423,423,1920,1080,1920,1080,9-4-2022,8-20-57,72,depth_duration_stimuli/001516_2014-06-20_16-25-09_260595134347_rgbf000076-resize_2/001516_2014-06-20_16-25-09_260595134347_rgbf000076-resize_2-target.png,250,1.7445,8,3558,254,feet,jsons/v1_VE250_randls_56.json,505807,881599,57,Man
72,481307,DepthScenes,duration_manipulation_targetAtFixation,jsons/v1_VE250_randls_56.json,http://54.235.29.9/FacialAge/BNav_EC2/DepthDuration/v2_depth_duration_MTurk/v2_DepthDuration_HTML.html#423,423,1920,1080,1920,1080,9-4-2022,8-20-57,73,depth_duration_stimuli/000486_2014-06-09_20-47-20_260595134347_rgbf000143-resize_2/000486_2014-06-09_20-47-20_260595134347_rgbf000143-resize_2-target.png,250,4.8325,15,2472,257,feet,jsons/v1_VE250_randls_56.json,505807,881599,57,Man
73,481307,DepthScenes,duration_manipulation_targetAtFixation,jsons/v1_VE250_randls_56.json,http://54.235.29.9/FacialAge/BNav_EC2/DepthDuration/v2_depth_duration_MTurk/v2_DepthDuration_HTML.html#423,423,1920,1080,1920,1080,9-4-2022,8-20-57,74,depth_duration_stimuli/003083_2014-06-15_15-21-03_094959634447_rgbf000063-resize_1/003083_2014-06-15_15-21-03_094959634447_rgbf000063-resize_1-target.png,250,4.1405,18,2665,249,feet,jsons/v1_VE250_randls_56.json,505807,881599,57,Man
74,481307,DepthScenes,duration_manipulation_targetAtFixation,jsons/v1_VE250_randls_56.json,http://54.235.29.9/FacialAge/BNav_EC2/DepthDuration/v2_depth_duration_MTurk/v2_DepthDuration_HTML.html#423,423,1920,1080,1920,1080,9-4-2022,8-20-57,75,depth_duration_stimuli/000788_2014-06-08_22-34-36_260595134347_rgbf000131-resize_1/000788_2014-06-08_22-34-36_260595134347_rgbf000131-resize_1-target.png,250,3.359,12,1940,244,feet,jsons/v1_VE250_randls_56.json,505807,881599,57,Man
75,481307,DepthScenes,duration_manipulation_targetAtFixation,jsons/v1_VE250_randls_56.json,http://54.235.29.9/FacialAge/BNav_EC2/DepthDuration/v2_depth_duration_MTurk/v2_DepthDuration_HTML.html#423,423,1920,1080,1920,1080,9-4-2022,8-20-57,76,depth_duration_stimuli/001235_2014-06-17_16-37-36_260595134347_rgbf000084-resize_4/001235_2014-06-17_16-37-36_260595134347_rgbf000084-resize_4-target.png,250,3.6605,15,2106,256,feet,jsons/v1_VE250_randls_56.json,505807,881599,57,Man
76,481307,DepthScenes,duration_manipulation_targetAtFixation,jsons/v1_VE250_randls_56.json,http://54.235.29.9/FacialAge/BNav_EC2/DepthDuration/v2_depth_duration_MTurk/v2_DepthDuration_HTML.html#423,423,1920,1080,1920,1080,9-4-2022,8-20-57,77,depth_duration_stimuli/001133_2014-06-17_14-49-16_260595134347_rgbf000100-resize_0/001133_2014-06-17_14-49-16_260595134347_rgbf000100-resize_0-target.png,250,4.2115,20,2498,251,feet,jsons/v1_VE250_randls_56.json,505807,881599,57,Man
77,481307,DepthScenes,duration_manipulation_targetAtFixation,jsons/v1_VE250_randls_56.json,http://54.235.29.9/FacialAge/BNav_EC2/DepthDuration/v2_depth_duration_MTurk/v2_DepthDuration_HTML.html#423,423,1920,1080,1920,1080,9-4-2022,8-20-57,78,depth_duration_stimuli/001132_2014-06-17_14-48-54_260595134347_rgbf000100-resize_2/001132_2014-06-17_14-48-54_260595134347_rgbf000100-resize_2-target.png,250,3.753,18,4458,249,feet,jsons/v1_VE250_randls_56.json,505807,881599,57,Man
78,481307,DepthScenes,duration_manipulation_targetAtFixation,jsons/v1_VE250_randls_56.json,http://54.235.29.9/FacialAge/BNav_EC2/DepthDuration/v2_depth_duration_MTurk/v2_DepthDuration_HTML.html#423,423,1920,1080,1920,1080,9-4-2022,8-20-57,79,depth_duration_stimuli/002057_2014-06-24_21-00-13_260595134347_rgbf000120-resize_1/002057_2014-06-24_21-00-13_260595134347_rgbf000120-resize_1-target.png,250,2.967,15,2385,247,feet,jsons/v1_VE250_randls_56.json,505807,881599,57,Man
79,481307,DepthScenes,duration_manipulation_targetAtFixation,jsons/v1_VE250_randls_56.json,http://54.235.29.9/FacialAge/BNav_EC2/DepthDuration/v2_depth_duration_MTurk/v2_DepthDuration_HTML.html#423,423,1920,1080,1920,1080,9-4-2022,8-20-57,80,depth_duration_stimuli/000709_2014-06-08_13-51-55_260595134347_rgbf000068-resize_3/000709_2014-06-08_13-51-55_260595134347_rgbf000068-resize_3-target.png,250,1.8030000000000002,8,2198,254,feet,jsons/v1_VE250_randls_56.json,505807,881599,57,Man
80,481307,DepthScenes,duration_manipulation_targetAtFixation,jsons/v1_VE250_randls_56.json,http://54.235.29.9/FacialAge/BNav_EC2/DepthDuration/v2_depth_duration_MTurk/v2_DepthDuration_HTML.html#423,423,1920,1080,1920,1080,9-4-2022,8-20-57,81,depth_duration_stimuli/001199_2014-06-17_16-03-48_260595134347_rgbf000077-resize_0/001199_2014-06-17_16-03-48_260595134347_rgbf000077-resize_0-target.png,250,3.4375,16,3267,249,feet,jsons/v1_VE250_randls_56.json,505807,881599,57,Man
81,481307,DepthScenes,duration_manipulation_targetAtFixation,jsons/v1_VE250_randls_56.json,http://54.235.29.9/FacialAge/BNav_EC2/DepthDuration/v2_depth_duration_MTurk/v2_DepthDuration_HTML.html#423,423,1920,1080,1920,1080,9-4-2022,8-20-57,82,depth_duration_stimuli/000502_2014-06-08_23-02-32_260595134347_rgbf000063-resize_4/000502_2014-06-08_23-02-32_260595134347_rgbf000063-resize_4-target.png,250,2.431,8,2078,245,feet,jsons/v1_VE250_randls_56.json,505807,881599,57,Man
82,481307,DepthScenes,duration_manipulation_targetAtFixation,jsons/v1_VE250_randls_56.json,http://54.235.29.9/FacialAge/BNav_EC2/DepthDuration/v2_depth_duration_MTurk/v2_DepthDuration_HTML.html#423,423,1920,1080,1920,1080,9-4-2022,8-20-57,83,depth_duration_stimuli/002630_2014-06-24_14-47-50_094959634447_rgbf000055-resize_1/002630_2014-06-24_14-47-50_094959634447_rgbf000055-resize_1-target.png,250,3.0095,15,2433,244,feet,jsons/v1_VE250_randls_56.json,505807,881599,57,Man
83,481307,DepthScenes,duration_manipulation_targetAtFixation,jsons/v1_VE250_randls_56.json,http://54.235.29.9/FacialAge/BNav_EC2/DepthDuration/v2_depth_duration_MTurk/v2_DepthDuration_HTML.html#423,423,1920,1080,1920,1080,9-4-2022,8-20-57,84,depth_duration_stimuli/002758_2014-06-22_19-11-20_094959634447_rgbf000128-resize_1/002758_2014-06-22_19-11-20_094959634447_rgbf000128-resize_1-target.png,250,2.555,8,2007,260,feet,jsons/v1_VE250_randls_56.json,505807,881599,57,Man
84,481307,DepthScenes,duration_manipulation_targetAtFixation,jsons/v1_VE250_randls_56.json,http://54.235.29.9/FacialAge/BNav_EC2/DepthDuration/v2_depth_duration_MTurk/v2_DepthDuration_HTML.html#423,423,1920,1080,1920,1080,9-4-2022,8-20-57,85,depth_duration_stimuli/001806_2014-06-26_20-50-20_260595134347_rgbf000091-resize_1/001806_2014-06-26_20-50-20_260595134347_rgbf000091-resize_1-target.png,250,2.7305,8,1805,236,feet,jsons/v1_VE250_randls_56.json,505807,881599,57,Man
85,481307,DepthScenes,duration_manipulation_targetAtFixation,jsons/v1_VE250_randls_56.json,http://54.235.29.9/FacialAge/BNav_EC2/DepthDuration/v2_depth_duration_MTurk/v2_DepthDuration_HTML.html#423,423,1920,1080,1920,1080,9-4-2022,8-20-57,86,depth_duration_stimuli/001617_2014-06-20_11-35-32_260595134347_rgbf000066-resize_1/001617_2014-06-20_11-35-32_260595134347_rgbf000066-resize_1-target.png,250,3.7910000000000004,16,2464,253,feet,jsons/v1_VE250_randls_56.json,505807,881599,57,Man
86,481307,DepthScenes,duration_manipulation_targetAtFixation,jsons/v1_VE250_randls_56.json,http://54.235.29.9/FacialAge/BNav_EC2/DepthDuration/v2_depth_duration_MTurk/v2_DepthDuration_HTML.html#423,423,1920,1080,1920,1080,9-4-2022,8-20-57,87,depth_duration_stimuli/001056_2014-06-08_18-46-44_260595134347_rgbf000068-resize_0/001056_2014-06-08_18-46-44_260595134347_rgbf000068-resize_0-target.png,250,2.6625,12,2169,255,feet,jsons/v1_VE250_randls_56.json,505807,881599,57,Man
87,481307,DepthScenes,duration_manipulation_targetAtFixation,jsons/v1_VE250_randls_56.json,http://54.235.29.9/FacialAge/BNav_EC2/DepthDuration/v2_depth_duration_MTurk/v2_DepthDuration_HTML.html#423,423,1920,1080,1920,1080,9-4-2022,8-20-57,88,depth_duration_stimuli/002199_2014-06-28_18-33-56_260595134347_rgbf000074-resize_0/002199_2014-06-28_18-33-56_260595134347_rgbf000074-resize_0-target.png,250,1.996,6,2057,262,feet,jsons/v1_VE250_randls_56.json,505807,881599,57,Man
88,481307,DepthScenes,duration_manipulation_targetAtFixation,jsons/v1_VE250_randls_56.json,http://54.235.29.9/FacialAge/BNav_EC2/DepthDuration/v2_depth_duration_MTurk/v2_DepthDuration_HTML.html#423,423,1920,1080,1920,1080,9-4-2022,8-20-57,89,depth_duration_stimuli/002549_2014-06-24_13-41-39_094959634447_rgbf000022-resize_3/002549_2014-06-24_13-41-39_094959634447_rgbf000022-resize_3-target.png,250,1.476,5,2049,244,feet,jsons/v1_VE250_randls_56.json,505807,881599,57,Man
89,481307,DepthScenes,duration_manipulation_targetAtFixation,jsons/v1_VE250_randls_56.json,http://54.235.29.9/FacialAge/BNav_EC2/DepthDuration/v2_depth_duration_MTurk/v2_DepthDuration_HTML.html#423,423,1920,1080,1920,1080,9-4-2022,8-20-57,90,depth_duration_stimuli/002750_2014-06-22_19-08-03_094959634447_rgbf000094-resize_4/002750_2014-06-22_19-08-03_094959634447_rgbf000094-resize_4-target.png,250,2.354,12,2310,254,feet,jsons/v1_VE250_randls_56.json,505807,881599,57,Man
90,481307,DepthScenes,duration_manipulation_targetAtFixation,jsons/v1_VE250_randls_56.json,http://54.235.29.9/FacialAge/BNav_EC2/DepthDuration/v2_depth_duration_MTurk/v2_DepthDuration_HTML.html#423,423,1920,1080,1920,1080,9-4-2022,8-20-57,91,depth_duration_stimuli/002748_2014-06-22_19-07-22_094959634447_rgbf000078-resize_1/002748_2014-06-22_19-07-22_094959634447_rgbf000078-resize_1-target.png,250,4.6705,20,2541,245,feet,jsons/v1_VE250_randls_56.json,505807,881599,57,Man
91,481307,DepthScenes,duration_manipulation_targetAtFixation,jsons/v1_VE250_randls_56.json,http://54.235.29.9/FacialAge/BNav_EC2/DepthDuration/v2_depth_duration_MTurk/v2_DepthDuration_HTML.html#423,423,1920,1080,1920,1080,9-4-2022,8-20-57,92,depth_duration_stimuli/002995_2014-06-15_12-31-26_094959634447_rgbf000150-resize_1/002995_2014-06-15_12-31-26_094959634447_rgbf000150-resize_1-target.png,250,3.8360000000000003,22,2455,250,feet,jsons/v1_VE250_randls_56.json,505807,881599,57,Man
92,481307,DepthScenes,duration_manipulation_targetAtFixation,jsons/v1_VE250_randls_56.json,http://54.235.29.9/FacialAge/BNav_EC2/DepthDuration/v2_depth_duration_MTurk/v2_DepthDuration_HTML.html#423,423,1920,1080,1920,1080,9-4-2022,8-20-57,93,depth_duration_stimuli/001011_2014-06-08_23-18-54_260595134347_rgbf000044-resize_4/001011_2014-06-08_23-18-54_260595134347_rgbf000044-resize_4-target.png,250,2.4730000000000003,15,2337,241,feet,jsons/v1_VE250_randls_56.json,505807,881599,57,Man
93,481307,DepthScenes,duration_manipulation_targetAtFixation,jsons/v1_VE250_randls_56.json,http://54.235.29.9/FacialAge/BNav_EC2/DepthDuration/v2_depth_duration_MTurk/v2_DepthDuration_HTML.html#423,423,1920,1080,1920,1080,9-4-2022,8-20-57,94,depth_duration_stimuli/002875_2014-06-01_15-19-00_094959634447_rgbf000151-resize_1/002875_2014-06-01_15-19-00_094959634447_rgbf000151-resize_1-target.png,250,1.9675,9,2615,262,feet,jsons/v1_VE250_randls_56.json,505807,881599,57,Man
94,481307,DepthScenes,duration_manipulation_targetAtFixation,jsons/v1_VE250_randls_56.json,http://54.235.29.9/FacialAge/BNav_EC2/DepthDuration/v2_depth_duration_MTurk/v2_DepthDuration_HTML.html#423,423,1920,1080,1920,1080,9-4-2022,8-20-57,95,depth_duration_stimuli/003070_2014-06-15_14-58-27_094959634447_rgbf000150-resize_3/003070_2014-06-15_14-58-27_094959634447_rgbf000150-resize_3-target.png,250,2.9415,12,2058,258,feet,jsons/v1_VE250_randls_56.json,505807,881599,57,Man
95,481307,DepthScenes,duration_manipulation_targetAtFixation,jsons/v1_VE250_randls_56.json,http://54.235.29.9/FacialAge/BNav_EC2/DepthDuration/v2_depth_duration_MTurk/v2_DepthDuration_HTML.html#423,423,1920,1080,1920,1080,9-4-2022,8-20-57,96,depth_duration_stimuli/000943_2014-06-09_19-31-07_260595134347_rgbf000128-resize_1/000943_2014-06-09_19-31-07_260595134347_rgbf000128-resize_1-target.png,250,1.9765,5,1953,240,feet,jsons/v1_VE250_randls_56.json,505807,881599,57,Man
96,481307,DepthScenes,duration_manipulation_targetAtFixation,jsons/v1_VE250_randls_56.json,http://54.235.29.9/FacialAge/BNav_EC2/DepthDuration/v2_depth_duration_MTurk/v2_DepthDuration_HTML.html#423,423,1920,1080,1920,1080,9-4-2022,8-20-57,97,depth_duration_stimuli/002989_2014-06-15_12-25-03_094959634447_rgbf000150-resize_3/002989_2014-06-15_12-25-03_094959634447_rgbf000150-resize_3-target.png,250,4.1975,20,2186,255,feet,jsons/v1_VE250_randls_56.json,505807,881599,57,Man
97,481307,DepthScenes,duration_manipulation_targetAtFixation,jsons/v1_VE250_randls_56.json,http://54.235.29.9/FacialAge/BNav_EC2/DepthDuration/v2_depth_duration_MTurk/v2_DepthDuration_HTML.html#423,423,1920,1080,1920,1080,9-4-2022,8-20-57,98,depth_duration_stimuli/000866_2014-06-09_20-45-42_260595134347_rgbf000139-resize_1/000866_2014-06-09_20-45-42_260595134347_rgbf000139-resize_1-target.png,250,3.2155,8,2444,238,feet,jsons/v1_VE250_randls_56.json,505807,881599,57,Man
98,481307,DepthScenes,duration_manipulation_targetAtFixation,jsons/v1_VE250_randls_56.json,http://54.235.29.9/FacialAge/BNav_EC2/DepthDuration/v2_depth_duration_MTurk/v2_DepthDuration_HTML.html#423,423,1920,1080,1920,1080,9-4-2022,8-20-57,99,depth_duration_stimuli/001540_2014-06-20_17-01-05_260595134347_rgbf000086-resize_2/001540_2014-06-20_17-01-05_260595134347_rgbf000086-resize-original.jpg,250,1.459,0,2017,243,feet,jsons/v1_VE250_randls_56.json,505807,881599,57,Man
99,481307,DepthScenes,duration_manipulation_targetAtFixation,jsons/v1_VE250_randls_56.json,http://54.235.29.9/FacialAge/BNav_EC2/DepthDuration/v2_depth_duration_MTurk/v2_DepthDuration_HTML.html#423,423,1920,1080,1920,1080,9-4-2022,8-20-57,100,depth_duration_stimuli/002279_2014-06-28_18-55-32_260595134347_rgbf000040-resize_5/002279_2014-06-28_18-55-32_260595134347_rgbf000040-resize_5-target.png,250,1.5043333333333,6,2067,253,feet,jsons/v1_VE250_randls_56.json,505807,881599,57,Man
100,481307,DepthScenes,duration_manipulation_targetAtFixation,jsons/v1_VE250_randls_56.json,http://54.235.29.9/FacialAge/BNav_EC2/DepthDuration/v2_depth_duration_MTurk/v2_DepthDuration_HTML.html#423,423,1920,1080,1920,1080,9-4-2022,8-20-57,101,depth_duration_stimuli/000635_2014-06-08_16-38-42_260595134347_rgbf000106-resize_1/000635_2014-06-08_16-38-42_260595134347_rgbf000106-resize_1-target.png,250,2.074,9,2047,253,feet,jsons/v1_VE250_randls_56.json,505807,881599,57,Man
101,481307,DepthScenes,duration_manipulation_targetAtFixation,jsons/v1_VE250_randls_56.json,http://54.235.29.9/FacialAge/BNav_EC2/DepthDuration/v2_depth_duration_MTurk/v2_DepthDuration_HTML.html#423,423,1920,1080,1920,1080,9-4-2022,8-20-57,102,depth_duration_stimuli/001164_2014-06-17_15-35-46_260595134347_rgbf000085-resize_3/001164_2014-06-17_15-35-46_260595134347_rgbf000085-resize_3-target.png,250,2.354,6,2261,258,feet,jsons/v1_VE250_randls_56.json,505807,881599,57,Man
102,481307,DepthScenes,duration_manipulation_targetAtFixation,jsons/v1_VE250_randls_56.json,http://54.235.29.9/FacialAge/BNav_EC2/DepthDuration/v2_depth_duration_MTurk/v2_DepthDuration_HTML.html#423,423,1920,1080,1920,1080,9-4-2022,8-20-57,103,depth_duration_stimuli/001136_2014-06-17_15-19-41_260595134347_rgbf000076-resize_3/001136_2014-06-17_15-19-41_260595134347_rgbf000076-resize_3-target.png,250,1.8655,8,2119,251,feet,jsons/v1_VE250_randls_56.json,505807,881599,57,Man
103,481307,DepthScenes,duration_manipulation_targetAtFixation,jsons/v1_VE250_randls_56.json,http://54.235.29.9/FacialAge/BNav_EC2/DepthDuration/v2_depth_duration_MTurk/v2_DepthDuration_HTML.html#423,423,1920,1080,1920,1080,9-4-2022,8-20-57,104,depth_duration_stimuli/000682_2014-06-08_23-14-58_260595134347_rgbf000041-resize_5/000682_2014-06-08_23-14-58_260595134347_rgbf000041-resize_5-target.png,250,2.7239999999999998,8,2375,249,feet,jsons/v1_VE250_randls_56.json,505807,881599,57,Man
104,481307,DepthScenes,duration_manipulation_targetAtFixation,jsons/v1_VE250_randls_56.json,http://54.235.29.9/FacialAge/BNav_EC2/DepthDuration/v2_depth_duration_MTurk/v2_DepthDuration_HTML.html#423,423,1920,1080,1920,1080,9-4-2022,8-20-57,105,depth_duration_stimuli/001650_2014-06-20_12-09-00_260595134347_rgbf000087-resize_3/001650_2014-06-20_12-09-00_260595134347_rgbf000087-resize_3-target.png,250,1.9505,5,1906,242,feet,jsons/v1_VE250_randls_56.json,505807,881599,57,Man
105,481307,DepthScenes,duration_manipulation_targetAtFixation,jsons/v1_VE250_randls_56.json,http://54.235.29.9/FacialAge/BNav_EC2/DepthDuration/v2_depth_duration_MTurk/v2_DepthDuration_HTML.html#423,423,1920,1080,1920,1080,9-4-2022,8-20-57,106,depth_duration_stimuli/001150_2014-06-17_15-27-34_260595134347_rgbf000108-resize_2/001150_2014-06-17_15-27-34_260595134347_rgbf000108-resize_2-target.png,250,4.0325,16,2370,241,feet,jsons/v1_VE250_randls_56.json,505807,881599,57,Man
106,481307,DepthScenes,duration_manipulation_targetAtFixation,jsons/v1_VE250_randls_56.json,http://54.235.29.9/FacialAge/BNav_EC2/DepthDuration/v2_depth_duration_MTurk/v2_DepthDuration_HTML.html#423,423,1920,1080,1920,1080,9-4-2022,8-20-57,107,depth_duration_stimuli/000665_2014-06-09_20-42-35_260595134347_rgbf000110-resize_1/000665_2014-06-09_20-42-35_260595134347_rgbf000110-resize_1-target.png,250,3.057,18,2804,246,feet,jsons/v1_VE250_randls_56.json,505807,881599,57,Man
107,481307,DepthScenes,duration_manipulation_targetAtFixation,jsons/v1_VE250_randls_56.json,http://54.235.29.9/FacialAge/BNav_EC2/DepthDuration/v2_depth_duration_MTurk/v2_DepthDuration_HTML.html#423,423,1920,1080,1920,1080,9-4-2022,8-20-57,108,depth_duration_stimuli/001175_2014-06-17_15-45-55_260595134347_rgbf000129-resize_4/001175_2014-06-17_15-45-55_260595134347_rgbf000129-resize_4-target.png,250,4.255,25,2527,246,feet,jsons/v1_VE250_randls_56.json,505807,881599,57,Man
108,481307,DepthScenes,duration_manipulation_targetAtFixation,jsons/v1_VE250_randls_56.json,http://54.235.29.9/FacialAge/BNav_EC2/DepthDuration/v2_depth_duration_MTurk/v2_DepthDuration_HTML.html#423,423,1920,1080,1920,1080,9-4-2022,8-20-57,109,depth_duration_stimuli/003490_2014-05-21_15-50-11_094959634447_rgbf000101-resize_3/003490_2014-05-21_15-50-11_094959634447_rgbf000101-resize_3-target.png,250,3.6445,15,2090,248,feet,jsons/v1_VE250_randls_56.json,505807,881599,57,Man
109,481307,DepthScenes,duration_manipulation_targetAtFixation,jsons/v1_VE250_randls_56.json,http://54.235.29.9/FacialAge/BNav_EC2/DepthDuration/v2_depth_duration_MTurk/v2_DepthDuration_HTML.html#423,423,1920,1080,1920,1080,9-4-2022,8-20-57,110,depth_duration_stimuli/001244_2014-06-17_16-47-45_260595134347_rgbf000030-resize_4/001244_2014-06-17_16-47-45_260595134347_rgbf000030-resize_4-target.png,250,2.0425,8,3095,256,feet,jsons/v1_VE250_randls_56.json,505807,881599,57,Man
110,481307,DepthScenes,duration_manipulation_targetAtFixation,jsons/v1_VE250_randls_56.json,http://54.235.29.9/FacialAge/BNav_EC2/DepthDuration/v2_depth_duration_MTurk/v2_DepthDuration_HTML.html#423,423,1920,1080,1920,1080,9-4-2022,8-20-57,111,depth_duration_stimuli/003495_2014-05-21_16-01-51_094959634447_rgbf000100-resize_3/003495_2014-05-21_16-01-51_094959634447_rgbf000100-resize_3-target.png,250,1.6255,6,2213,258,feet,jsons/v1_VE250_randls_56.json,505807,881599,57,Man
111,481307,DepthScenes,duration_manipulation_targetAtFixation,jsons/v1_VE250_randls_56.json,http://54.235.29.9/FacialAge/BNav_EC2/DepthDuration/v2_depth_duration_MTurk/v2_DepthDuration_HTML.html#423,423,1920,1080,1920,1080,9-4-2022,8-20-57,112,depth_duration_stimuli/000773_2014-06-08_22-24-54_260595134347_rgbf000093-resize_1/000773_2014-06-08_22-24-54_260595134347_rgbf000093-resize_1-target.png,250,4.973,22,2121,253,feet,jsons/v1_VE250_randls_56.json,505807,881599,57,Man
112,481307,DepthScenes,duration_manipulation_targetAtFixation,jsons/v1_VE250_randls_56.json,http://54.235.29.9/FacialAge/BNav_EC2/DepthDuration/v2_depth_duration_MTurk/v2_DepthDuration_HTML.html#423,423,1920,1080,1920,1080,9-4-2022,8-20-57,113,depth_duration_stimuli/002414_2014-06-28_20-24-58_260595134347_rgbf000067-resize_4/002414_2014-06-28_20-24-58_260595134347_rgbf000067-resize_4-target.png,250,4.363,15,2120,262,feet,jsons/v1_VE250_randls_56.json,505807,881599,57,Man
113,481307,DepthScenes,duration_manipulation_targetAtFixation,jsons/v1_VE250_randls_56.json,http://54.235.29.9/FacialAge/BNav_EC2/DepthDuration/v2_depth_duration_MTurk/v2_DepthDuration_HTML.html#423,423,1920,1080,1920,1080,9-4-2022,8-20-57,114,depth_duration_stimuli/000736_2014-06-08_18-24-15_260595134347_rgbf000206-resize_3/000736_2014-06-08_18-24-15_260595134347_rgbf000206-resize_3-target.png,250,3.515,15,2553,260,feet,jsons/v1_VE250_randls_56.json,505807,881599,57,Man
114,481307,DepthScenes,duration_manipulation_targetAtFixation,jsons/v1_VE250_randls_56.json,http://54.235.29.9/FacialAge/BNav_EC2/DepthDuration/v2_depth_duration_MTurk/v2_DepthDuration_HTML.html#423,423,1920,1080,1920,1080,9-4-2022,8-20-57,115,depth_duration_stimuli/000137_2014-05-20_17-04-49_260595134347_rgbf000120-resize_1/000137_2014-05-20_17-04-49_260595134347_rgbf000120-resize_1-target.png,250,3.786,15,2084,244,feet,jsons/v1_VE250_randls_56.json,505807,881599,57,Man
115,481307,DepthScenes,duration_manipulation_targetAtFixation,jsons/v1_VE250_randls_56.json,http://54.235.29.9/FacialAge/BNav_EC2/DepthDuration/v2_depth_duration_MTurk/v2_DepthDuration_HTML.html#423,423,1920,1080,1920,1080,9-4-2022,8-20-57,116,depth_duration_stimuli/001170_2014-06-17_15-43-44_260595134347_rgbf000096-resize_6/001170_2014-06-17_15-43-44_260595134347_rgbf000096-resize-original.jpg,250,1.1909999999999998,0,2067,251,feet,jsons/v1_VE250_randls_56.json,505807,881599,57,Man
116,481307,DepthScenes,duration_manipulation_targetAtFixation,jsons/v1_VE250_randls_56.json,http://54.235.29.9/FacialAge/BNav_EC2/DepthDuration/v2_depth_duration_MTurk/v2_DepthDuration_HTML.html#423,423,1920,1080,1920,1080,9-4-2022,8-20-57,117,depth_duration_stimuli/001092_2014-06-15_17-34-58_260595134347_rgbf000171-resize_3/001092_2014-06-15_17-34-58_260595134347_rgbf000171-resize_3-target.png,250,2.6935,9,2822,248,feet,jsons/v1_VE250_randls_56.json,505807,881599,57,Man
117,481307,DepthScenes,duration_manipulation_targetAtFixation,jsons/v1_VE250_randls_56.json,http://54.235.29.9/FacialAge/BNav_EC2/DepthDuration/v2_depth_duration_MTurk/v2_DepthDuration_HTML.html#423,423,1920,1080,1920,1080,9-4-2022,8-20-57,118,depth_duration_stimuli/002545_2014-06-24_13-38-53_094959634447_rgbf000080-resize_4/002545_2014-06-24_13-38-53_094959634447_rgbf000080-resize_4-target.png,250,1.9205,12,3638,249,feet,jsons/v1_VE250_randls_56.json,505807,881599,57,Man
118,481307,DepthScenes,duration_manipulation_targetAtFixation,jsons/v1_VE250_randls_56.json,http://54.235.29.9/FacialAge/BNav_EC2/DepthDuration/v2_depth_duration_MTurk/v2_DepthDuration_HTML.html#423,423,1920,1080,1920,1080,9-4-2022,8-20-57,119,depth_duration_stimuli/002788_2014-06-22_19-36-03_094959634447_rgbf000088-resize_2/002788_2014-06-22_19-36-03_094959634447_rgbf000088-resize_2-target.png,250,1.6465,12,1972,252,feet,jsons/v1_VE250_randls_56.json,505807,881599,57,Man
119,481307,DepthScenes,duration_manipulation_targetAtFixation,jsons/v1_VE250_randls_56.json,http://54.235.29.9/FacialAge/BNav_EC2/DepthDuration/v2_depth_duration_MTurk/v2_DepthDuration_HTML.html#423,423,1920,1080,1920,1080,9-4-2022,8-20-57,120,depth_duration_stimuli/000749_2014-06-08_21-55-06_260595134347_rgbf000070-resize_2/000749_2014-06-08_21-55-06_260595134347_rgbf000070-resize_2-target.png,250,2.331,16,4102,256,feet,jsons/v1_VE250_randls_56.json,505807,881599,57,Man
120,481307,DepthScenes,duration_manipulation_targetAtFixation,jsons/v1_VE250_randls_56.json,http://54.235.29.9/FacialAge/BNav_EC2/DepthDuration/v2_depth_duration_MTurk/v2_DepthDuration_HTML.html#423,423,1920,1080,1920,1080,9-4-2022,8-20-57,121,depth_duration_stimuli/002988_2014-06-15_12-24-20_094959634447_rgbf000150-resize_1/002988_2014-06-15_12-24-20_094959634447_rgbf000150-resize_1-target.png,250,4.7669999999999995,22,1978,237,feet,jsons/v1_VE250_randls_56.json,505807,881599,57,Man
121,481307,DepthScenes,duration_manipulation_targetAtFixation,jsons/v1_VE250_randls_56.json,http://54.235.29.9/FacialAge/BNav_EC2/DepthDuration/v2_depth_duration_MTurk/v2_DepthDuration_HTML.html#423,423,1920,1080,1920,1080,9-4-2022,8-20-57,122,depth_duration_stimuli/001052_2014-06-08_18-24-54_260595134347_rgbf000130-resize_1/001052_2014-06-08_18-24-54_260595134347_rgbf000130-resize_1-target.png,250,4.1045,20,2256,236,feet,jsons/v1_VE250_randls_56.json,505807,881599,57,Man
122,481307,DepthScenes,duration_manipulation_targetAtFixation,jsons/v1_VE250_randls_56.json,http://54.235.29.9/FacialAge/BNav_EC2/DepthDuration/v2_depth_duration_MTurk/v2_DepthDuration_HTML.html#423,423,1920,1080,1920,1080,9-4-2022,8-20-57,123,depth_duration_stimuli/000739_2014-06-08_18-45-58_260595134347_rgbf000068-resize_1/000739_2014-06-08_18-45-58_260595134347_rgbf000068-resize_1-target.png,250,3.534,22,1924,255,feet,jsons/v1_VE250_randls_56.json,505807,881599,57,Man
123,481307,DepthScenes,duration_manipulation_targetAtFixation,jsons/v1_VE250_randls_56.json,http://54.235.29.9/FacialAge/BNav_EC2/DepthDuration/v2_depth_duration_MTurk/v2_DepthDuration_HTML.html#423,423,1920,1080,1920,1080,9-4-2022,8-20-57,124,depth_duration_stimuli/000734_2014-06-08_17-39-11_260595134347_rgbf000128-resize_2/000734_2014-06-08_17-39-11_260595134347_rgbf000128-resize_2-target.png,250,4.098,22,1919,245,feet,jsons/v1_VE250_randls_56.json,505807,881599,57,Man
124,481307,DepthScenes,duration_manipulation_targetAtFixation,jsons/v1_VE250_randls_56.json,http://54.235.29.9/FacialAge/BNav_EC2/DepthDuration/v2_depth_duration_MTurk/v2_DepthDuration_HTML.html#423,423,1920,1080,1920,1080,9-4-2022,8-20-57,125,depth_duration_stimuli/002600_2014-06-24_14-27-04_094959634447_rgbf000074-resize_2/002600_2014-06-24_14-27-04_094959634447_rgbf000074-resize_2-target.png,250,2.7575,15,2209,241,feet,jsons/v1_VE250_randls_56.json,505807,881599,57,Man
125,481307,DepthScenes,duration_manipulation_targetAtFixation,jsons/v1_VE250_randls_56.json,http://54.235.29.9/FacialAge/BNav_EC2/DepthDuration/v2_depth_duration_MTurk/v2_DepthDuration_HTML.html#423,423,1920,1080,1920,1080,9-4-2022,8-20-57,126,depth_duration_stimuli/003228_2014-05-14_13-42-35_094959634447_rgbf000101-resize_1/003228_2014-05-14_13-42-35_094959634447_rgbf000101-resize_1-target.png,250,1.9680000000000002,8,2164,251,feet,jsons/v1_VE250_randls_56.json,505807,881599,57,Man
126,481307,DepthScenes,duration_manipulation_targetAtFixation,jsons/v1_VE250_randls_56.json,http://54.235.29.9/FacialAge/BNav_EC2/DepthDuration/v2_depth_duration_MTurk/v2_DepthDuration_HTML.html#423,423,1920,1080,1920,1080,9-4-2022,8-20-57,127,depth_duration_stimuli/002663_2014-06-13_15-50-26_094959634447_rgbf000075-resize_1/002663_2014-06-13_15-50-26_094959634447_rgbf000075-resize_1-target.png,250,4.7495,25,3382,248,feet,jsons/v1_VE250_randls_56.json,505807,881599,57,Man
127,481307,DepthScenes,duration_manipulation_targetAtFixation,jsons/v1_VE250_randls_56.json,http://54.235.29.9/FacialAge/BNav_EC2/DepthDuration/v2_depth_duration_MTurk/v2_DepthDuration_HTML.html#423,423,1920,1080,1920,1080,9-4-2022,8-20-57,128,depth_duration_stimuli/000409_2014-06-04_19-23-33_260595134347_rgbf000067-resize_0/000409_2014-06-04_19-23-33_260595134347_rgbf000067-resize_0-target.png,250,3.7335,20,3223,258,feet,jsons/v1_VE250_randls_56.json,505807,881599,57,Man
128,481307,DepthScenes,duration_manipulation_targetAtFixation,jsons/v1_VE250_randls_56.json,http://54.235.29.9/FacialAge/BNav_EC2/DepthDuration/v2_depth_duration_MTurk/v2_DepthDuration_HTML.html#423,423,1920,1080,1920,1080,9-4-2022,8-20-57,129,depth_duration_stimuli/001449_2014-06-19_17-01-27_260595134347_rgbf000116-resize_2/001449_2014-06-19_17-01-27_260595134347_rgbf000116-resize_2-target.png,250,3.452,15,2091,257,feet,jsons/v1_VE250_randls_56.json,505807,881599,57,Man
129,481307,DepthScenes,duration_manipulation_targetAtFixation,jsons/v1_VE250_randls_56.json,http://54.235.29.9/FacialAge/BNav_EC2/DepthDuration/v2_depth_duration_MTurk/v2_DepthDuration_HTML.html#423,423,1920,1080,1920,1080,9-4-2022,8-20-57,130,depth_duration_stimuli/001450_2014-06-19_17-02-03_260595134347_rgbf000203-resize_4/001450_2014-06-19_17-02-03_260595134347_rgbf000203-resize_4-target.png,250,4.0106666666667,22,1866,242,feet,jsons/v1_VE250_randls_56.json,505807,881599,57,Man
130,481307,DepthScenes,duration_manipulation_targetAtFixation,jsons/v1_VE250_randls_56.json,http://54.235.29.9/FacialAge/BNav_EC2/DepthDuration/v2_depth_duration_MTurk/v2_DepthDuration_HTML.html#423,423,1920,1080,1920,1080,9-4-2022,8-20-57,131,depth_duration_stimuli/002570_2014-06-24_13-59-54_094959634447_rgbf000059-resize_0/002570_2014-06-24_13-59-54_094959634447_rgbf000059-resize_0-target.png,250,4.037,14,2806,229,feet,jsons/v1_VE250_randls_56.json,505807,881599,57,Man
131,481307,DepthScenes,duration_manipulation_targetAtFixation,jsons/v1_VE250_randls_56.json,http://54.235.29.9/FacialAge/BNav_EC2/DepthDuration/v2_depth_duration_MTurk/v2_DepthDuration_HTML.html#423,423,1920,1080,1920,1080,9-4-2022,8-20-57,132,depth_duration_stimuli/002467_2014-06-28_20-38-07_260595134347_rgbf000026-resize_2/002467_2014-06-28_20-38-07_260595134347_rgbf000026-resize_2-target.png,250,4.742,22,2219,261,feet,jsons/v1_VE250_randls_56.json,505807,881599,57,Man
132,481307,DepthScenes,duration_manipulation_targetAtFixation,jsons/v1_VE250_randls_56.json,http://54.235.29.9/FacialAge/BNav_EC2/DepthDuration/v2_depth_duration_MTurk/v2_DepthDuration_HTML.html#423,423,1920,1080,1920,1080,9-4-2022,8-20-57,133,depth_duration_stimuli/000506_2014-06-08_23-21-00_260595134347_rgbf000070-resize_7/000506_2014-06-08_23-21-00_260595134347_rgbf000070-resize_7-target.png,250,4.0585,23,2435,255,feet,jsons/v1_VE250_randls_56.json,505807,881599,57,Man
133,481307,DepthScenes,duration_manipulation_targetAtFixation,jsons/v1_VE250_randls_56.json,http://54.235.29.9/FacialAge/BNav_EC2/DepthDuration/v2_depth_duration_MTurk/v2_DepthDuration_HTML.html#423,423,1920,1080,1920,1080,9-4-2022,8-20-57,134,depth_duration_stimuli/003079_2014-06-15_15-18-20_094959634447_rgbf000152-resize_8/003079_2014-06-15_15-18-20_094959634447_rgbf000152-resize_8-target.png,250,2.8775,22,1950,246,feet,jsons/v1_VE250_randls_56.json,505807,881599,57,Man
134,481307,DepthScenes,duration_manipulation_targetAtFixation,jsons/v1_VE250_randls_56.json,http://54.235.29.9/FacialAge/BNav_EC2/DepthDuration/v2_depth_duration_MTurk/v2_DepthDuration_HTML.html#423,423,1920,1080,1920,1080,9-4-2022,8-20-57,135,depth_duration_stimuli/002072_2014-06-24_21-48-06_260595134347_rgbf000115-resize_0/002072_2014-06-24_21-48-06_260595134347_rgbf000115-resize-original.jpg,250,4.702,0,2141,251,feet,jsons/v1_VE250_randls_56.json,505807,881599,57,Man
135,481307,DepthScenes,duration_manipulation_targetAtFixation,jsons/v1_VE250_randls_56.json,http://54.235.29.9/FacialAge/BNav_EC2/DepthDuration/v2_depth_duration_MTurk/v2_DepthDuration_HTML.html#423,423,1920,1080,1920,1080,9-4-2022,8-20-57,136,depth_duration_stimuli/000522_2014-06-08_13-35-06_260595134347_rgbf000244-resize_1/000522_2014-06-08_13-35-06_260595134347_rgbf000244-resize_1-target.png,250,2.3715,8,2673,254,feet,jsons/v1_VE250_randls_56.json,505807,881599,57,Man
136,481307,DepthScenes,duration_manipulation_targetAtFixation,jsons/v1_VE250_randls_56.json,http://54.235.29.9/FacialAge/BNav_EC2/DepthDuration/v2_depth_duration_MTurk/v2_DepthDuration_HTML.html#423,423,1920,1080,1920,1080,9-4-2022,8-20-57,137,depth_duration_stimuli/002949_2014-06-26_15-57-42_094959634447_rgbf000079-resize_1/002949_2014-06-26_15-57-42_094959634447_rgbf000079-resize_1-target.png,250,1.8915,8,4106,258,feet,jsons/v1_VE250_randls_56.json,505807,881599,57,Man
137,481307,DepthScenes,duration_manipulation_targetAtFixation,jsons/v1_VE250_randls_56.json,http://54.235.29.9/FacialAge/BNav_EC2/DepthDuration/v2_depth_duration_MTurk/v2_DepthDuration_HTML.html#423,423,1920,1080,1920,1080,9-4-2022,8-20-57,138,depth_duration_stimuli/000436_2014-06-09_22-25-11_260595134347_rgbf000137-resize_1/000436_2014-06-09_22-25-11_260595134347_rgbf000137-resize_1-target.png,250,4.0705,25,2273,247,feet,jsons/v1_VE250_randls_56.json,505807,881599,57,Man
138,481307,DepthScenes,duration_manipulation_targetAtFixation,jsons/v1_VE250_randls_56.json,http://54.235.29.9/FacialAge/BNav_EC2/DepthDuration/v2_depth_duration_MTurk/v2_DepthDuration_HTML.html#423,423,1920,1080,1920,1080,9-4-2022,8-20-57,139,depth_duration_stimuli/002444_2014-06-28_20-32-08_260595134347_rgbf000027-resize_0/002444_2014-06-28_20-32-08_260595134347_rgbf000027-resize_0-target.png,250,4.388999999999999,22,1894,246,feet,jsons/v1_VE250_randls_56.json,505807,881599,57,Man
139,481307,DepthScenes,duration_manipulation_targetAtFixation,jsons/v1_VE250_randls_56.json,http://54.235.29.9/FacialAge/BNav_EC2/DepthDuration/v2_depth_duration_MTurk/v2_DepthDuration_HTML.html#423,423,1920,1080,1920,1080,9-4-2022,8-20-57,140,depth_duration_stimuli/001570_2014-06-20_17-21-09_260595134347_rgbf000135-resize_4/001570_2014-06-20_17-21-09_260595134347_rgbf000135-resize_4-target.png,250,4.467,20,2283,248,feet,jsons/v1_VE250_randls_56.json,505807,881599,57,Man
140,481307,DepthScenes,duration_manipulation_targetAtFixation,jsons/v1_VE250_randls_56.json,http://54.235.29.9/FacialAge/BNav_EC2/DepthDuration/v2_depth_duration_MTurk/v2_DepthDuration_HTML.html#423,423,1920,1080,1920,1080,9-4-2022,8-20-57,141,depth_duration_stimuli/001392_2014-06-19_16-07-59_260595134347_rgbf000046-resize_1/001392_2014-06-19_16-07-59_260595134347_rgbf000046-resize_1-target.png,250,4.135,28,3996,237,feet,jsons/v1_VE250_randls_56.json,505807,881599,57,Man
141,481307,DepthScenes,duration_manipulation_targetAtFixation,jsons/v1_VE250_randls_56.json,http://54.235.29.9/FacialAge/BNav_EC2/DepthDuration/v2_depth_duration_MTurk/v2_DepthDuration_HTML.html#423,423,1920,1080,1920,1080,9-4-2022,8-20-57,142,depth_duration_stimuli/002043_2014-06-24_20-29-38_260595134347_rgbf000039-resize_4/002043_2014-06-24_20-29-38_260595134347_rgbf000039-resize_4-target.png,250,2.8435,15,2321,252,feet,jsons/v1_VE250_randls_56.json,505807,881599,57,Man
142,481307,DepthScenes,duration_manipulation_targetAtFixation,jsons/v1_VE250_randls_56.json,http://54.235.29.9/FacialAge/BNav_EC2/DepthDuration/v2_depth_duration_MTurk/v2_DepthDuration_HTML.html#423,423,1920,1080,1920,1080,9-4-2022,8-20-57,143,depth_duration_stimuli/003048_2014-06-15_13-49-43_094959634447_rgbf000150-resize_1/003048_2014-06-15_13-49-43_094959634447_rgbf000150-resize_1-target.png,250,4.0035,16,2503,252,feet,jsons/v1_VE250_randls_56.json,505807,881599,57,Man
143,481307,DepthScenes,duration_manipulation_targetAtFixation,jsons/v1_VE250_randls_56.json,http://54.235.29.9/FacialAge/BNav_EC2/DepthDuration/v2_depth_duration_MTurk/v2_DepthDuration_HTML.html#423,423,1920,1080,1920,1080,9-4-2022,8-20-57,144,depth_duration_stimuli/003621_2014-05-23_18-06-08_094959634447_rgbf000101-resize_1/003621_2014-05-23_18-06-08_094959634447_rgbf000101-resize_1-target.png,250,3.9835,20,2208,253,feet,jsons/v1_VE250_randls_56.json,505807,881599,57,Man
144,481307,DepthScenes,duration_manipulation_targetAtFixation,jsons/v1_VE250_randls_56.json,http://54.235.29.9/FacialAge/BNav_EC2/DepthDuration/v2_depth_duration_MTurk/v2_DepthDuration_HTML.html#423,423,1920,1080,1920,1080,9-4-2022,8-20-57,145,depth_duration_stimuli/001584_2014-06-20_11-07-43_260595134347_rgbf000002-resize_1/001584_2014-06-20_11-07-43_260595134347_rgbf000002-resize_1-target.png,250,3.53,16,2437,255,feet,jsons/v1_VE250_randls_56.json,505807,881599,57,Man
145,481307,DepthScenes,duration_manipulation_targetAtFixation,jsons/v1_VE250_randls_56.json,http://54.235.29.9/FacialAge/BNav_EC2/DepthDuration/v2_depth_duration_MTurk/v2_DepthDuration_HTML.html#423,423,1920,1080,1920,1080,9-4-2022,8-20-57,146,depth_duration_stimuli/001498_2014-06-19_17-45-14_260595134347_rgbf000129-resize_4/001498_2014-06-19_17-45-14_260595134347_rgbf000129-resize-original.jpg,250,1.4075,0,1835,250,feet,jsons/v1_VE250_randls_56.json,505807,881599,57,Man
146,481307,DepthScenes,duration_manipulation_targetAtFixation,jsons/v1_VE250_randls_56.json,http://54.235.29.9/FacialAge/BNav_EC2/DepthDuration/v2_depth_duration_MTurk/v2_DepthDuration_HTML.html#423,423,1920,1080,1920,1080,9-4-2022,8-20-57,147,depth_duration_stimuli/001066_2014-06-08_22-03-20_260595134347_rgbf000066-resize_4/001066_2014-06-08_22-03-20_260595134347_rgbf000066-resize_4-target.png,250,4.2330000000000005,20,2802,256,feet,jsons/v1_VE250_randls_56.json,505807,881599,57,Man
147,481307,DepthScenes,duration_manipulation_targetAtFixation,jsons/v1_VE250_randls_56.json,http://54.235.29.9/FacialAge/BNav_EC2/DepthDuration/v2_depth_duration_MTurk/v2_DepthDuration_HTML.html#423,423,1920,1080,1920,1080,9-4-2022,8-20-57,148,depth_duration_stimuli/000742_2014-06-08_18-48-09_260595134347_rgbf000164-resize_4/000742_2014-06-08_18-48-09_260595134347_rgbf000164-resize_4-target.png,250,4.632,22,2145,253,feet,jsons/v1_VE250_randls_56.json,505807,881599,57,Man
148,481307,DepthScenes,duration_manipulation_targetAtFixation,jsons/v1_VE250_randls_56.json,http://54.235.29.9/FacialAge/BNav_EC2/DepthDuration/v2_depth_duration_MTurk/v2_DepthDuration_HTML.html#423,423,1920,1080,1920,1080,9-4-2022,8-20-57,149,depth_duration_stimuli/002725_2014-06-22_11-47-51_094959634447_rgbf000070-resize_1/002725_2014-06-22_11-47-51_094959634447_rgbf000070-resize_1-target.png,250,2.195,15,2337,251,feet,jsons/v1_VE250_randls_56.json,505807,881599,57,Man
149,481307,DepthScenes,duration_manipulation_targetAtFixation,jsons/v1_VE250_randls_56.json,http://54.235.29.9/FacialAge/BNav_EC2/DepthDuration/v2_depth_duration_MTurk/v2_DepthDuration_HTML.html#423,423,1920,1080,1920,1080,9-4-2022,8-20-57,150,depth_duration_stimuli/002344_2014-06-28_20-06-29_260595134347_rgbf000030-resize_1/002344_2014-06-28_20-06-29_260595134347_rgbf000030-resize_1-target.png,250,1.5795,6,2078,242,feet,jsons/v1_VE250_randls_56.json,505807,881599,57,Man
150,481307,DepthScenes,duration_manipulation_targetAtFixation,jsons/v1_VE250_randls_56.json,http://54.235.29.9/FacialAge/BNav_EC2/DepthDuration/v2_depth_duration_MTurk/v2_DepthDuration_HTML.html#423,423,1920,1080,1920,1080,9-4-2022,8-20-57,151,depth_duration_stimuli/002509_2014-06-24_13-19-22_094959634447_rgbf000077-resize_0/002509_2014-06-24_13-19-22_094959634447_rgbf000077-resize_0-target.png,250,1.3065,5,2133,250,feet,jsons/v1_VE250_randls_56.json,505807,881599,57,Man
151,481307,DepthScenes,duration_manipulation_targetAtFixation,jsons/v1_VE250_randls_56.json,http://54.235.29.9/FacialAge/BNav_EC2/DepthDuration/v2_depth_duration_MTurk/v2_DepthDuration_HTML.html#423,423,1920,1080,1920,1080,9-4-2022,8-20-57,152,depth_duration_stimuli/003338_2014-05-20_11-01-23_094959634447_rgbf000051-resize_6/003338_2014-05-20_11-01-23_094959634447_rgbf000051-resize_6-target.png,250,1.693,8,2658,248,feet,jsons/v1_VE250_randls_56.json,505807,881599,57,Man
152,481307,DepthScenes,duration_manipulation_targetAtFixation,jsons/v1_VE250_randls_56.json,http://54.235.29.9/FacialAge/BNav_EC2/DepthDuration/v2_depth_duration_MTurk/v2_DepthDuration_HTML.html#423,423,1920,1080,1920,1080,9-4-2022,8-20-57,153,depth_duration_stimuli/001808_2014-06-26_20-50-58_260595134347_rgbf000029-resize_1/001808_2014-06-26_20-50-58_260595134347_rgbf000029-resize_1-target.png,250,4.249,16,2309,257,feet,jsons/v1_VE250_randls_56.json,505807,881599,57,Man
153,481307,DepthScenes,duration_manipulation_targetAtFixation,jsons/v1_VE250_randls_56.json,http://54.235.29.9/FacialAge/BNav_EC2/DepthDuration/v2_depth_duration_MTurk/v2_DepthDuration_HTML.html#423,423,1920,1080,1920,1080,9-4-2022,8-20-57,154,depth_duration_stimuli/001815_2014-06-26_20-52-55_260595134347_rgbf000020-resize_0/001815_2014-06-26_20-52-55_260595134347_rgbf000020-resize_0-target.png,250,3.3865,22,2003,261,feet,jsons/v1_VE250_randls_56.json,505807,881599,57,Man
154,481307,DepthScenes,duration_manipulation_targetAtFixation,jsons/v1_VE250_randls_56.json,http://54.235.29.9/FacialAge/BNav_EC2/DepthDuration/v2_depth_duration_MTurk/v2_DepthDuration_HTML.html#423,423,1920,1080,1920,1080,9-4-2022,8-20-57,155,depth_duration_stimuli/000368_2014-06-09_15-53-01_260595134347_rgbf000155-resize_2/000368_2014-06-09_15-53-01_260595134347_rgbf000155-resize_2-target.png,250,2.4859999999999998,10,2923,251,feet,jsons/v1_VE250_randls_56.json,505807,881599,57,Man
155,481307,DepthScenes,duration_manipulation_targetAtFixation,jsons/v1_VE250_randls_56.json,http://54.235.29.9/FacialAge/BNav_EC2/DepthDuration/v2_depth_duration_MTurk/v2_DepthDuration_HTML.html#423,423,1920,1080,1920,1080,9-4-2022,8-20-57,156,depth_duration_stimuli/002678_2014-06-13_16-15-32_094959634447_rgbf000151-resize_6/002678_2014-06-13_16-15-32_094959634447_rgbf000151-resize_6-target.png,250,2.1830000000000003,20,2657,252,feet,jsons/v1_VE250_randls_56.json,505807,881599,57,Man
156,481307,DepthScenes,duration_manipulation_targetAtFixation,jsons/v1_VE250_randls_56.json,http://54.235.29.9/FacialAge/BNav_EC2/DepthDuration/v2_depth_duration_MTurk/v2_DepthDuration_HTML.html#423,423,1920,1080,1920,1080,9-4-2022,8-20-57,157,depth_duration_stimuli/001417_2014-06-19_16-25-36_260595134347_rgbf000115-resize_5/001417_2014-06-19_16-25-36_260595134347_rgbf000115-resize_5-target.png,250,4.6255,22,1822,247,feet,jsons/v1_VE250_randls_56.json,505807,881599,57,Man
157,481307,DepthScenes,duration_manipulation_targetAtFixation,jsons/v1_VE250_randls_56.json,http://54.235.29.9/FacialAge/BNav_EC2/DepthDuration/v2_depth_duration_MTurk/v2_DepthDuration_HTML.html#423,423,1920,1080,1920,1080,9-4-2022,8-20-57,158,depth_duration_stimuli/003081_2014-06-15_15-19-16_094959634447_rgbf000150-resize_1/003081_2014-06-15_15-19-16_094959634447_rgbf000150-resize_1-target.png,250,3.9125,20,2890,250,feet,jsons/v1_VE250_randls_56.json,505807,881599,57,Man
158,481307,DepthScenes,duration_manipulation_targetAtFixation,jsons/v1_VE250_randls_56.json,http://54.235.29.9/FacialAge/BNav_EC2/DepthDuration/v2_depth_duration_MTurk/v2_DepthDuration_HTML.html#423,423,1920,1080,1920,1080,9-4-2022,8-20-57,159,depth_duration_stimuli/000810_2014-06-08_17-20-01_260595134347_rgbf000105-resize_0/000810_2014-06-08_17-20-01_260595134347_rgbf000105-resize_0-target.png,250,1.4865,9,3837,238,feet,jsons/v1_VE250_randls_56.json,505807,881599,57,Man
159,481307,DepthScenes,duration_manipulation_targetAtFixation,jsons/v1_VE250_randls_56.json,http://54.235.29.9/FacialAge/BNav_EC2/DepthDuration/v2_depth_duration_MTurk/v2_DepthDuration_HTML.html#423,423,1920,1080,1920,1080,9-4-2022,8-20-57,160,depth_duration_stimuli/001214_2014-06-17_16-13-55_260595134347_rgbf000111-resize_0/001214_2014-06-17_16-13-55_260595134347_rgbf000111-resize_0-target.png,250,2.6505,8,2178,253,feet,jsons/v1_VE250_randls_56.json,505807,881599,57,Man
160,481307,DepthScenes,duration_manipulation_targetAtFixation,jsons/v1_VE250_randls_56.json,http://54.235.29.9/FacialAge/BNav_EC2/DepthDuration/v2_depth_duration_MTurk/v2_DepthDuration_HTML.html#423,423,1920,1080,1920,1080,9-4-2022,8-20-57,161,depth_duration_stimuli/003534_2014-05-22_15-06-10_094959634447_rgbf000102-resize_4/003534_2014-05-22_15-06-10_094959634447_rgbf000102-resize_4-target.png,250,1.426,6,2079,246,feet,jsons/v1_VE250_randls_56.json,505807,881599,57,Man
161,481307,DepthScenes,duration_manipulation_targetAtFixation,jsons/v1_VE250_randls_56.json,http://54.235.29.9/FacialAge/BNav_EC2/DepthDuration/v2_depth_duration_MTurk/v2_DepthDuration_HTML.html#423,423,1920,1080,1920,1080,9-4-2022,8-20-57,162,depth_duration_stimuli/002637_2014-06-24_14-51-13_094959634447_rgbf000066-resize_4/002637_2014-06-24_14-51-13_094959634447_rgbf000066-resize_4-target.png,250,1.9955,9,2454,245,feet,jsons/v1_VE250_randls_56.json,505807,881599,57,Man
162,481307,DepthScenes,duration_manipulation_targetAtFixation,jsons/v1_VE250_randls_56.json,http://54.235.29.9/FacialAge/BNav_EC2/DepthDuration/v2_depth_duration_MTurk/v2_DepthDuration_HTML.html#423,423,1920,1080,1920,1080,9-4-2022,8-20-57,163,depth_duration_stimuli/000906_2014-06-08_13-35-43_260595134347_rgbf000155-resize_1/000906_2014-06-08_13-35-43_260595134347_rgbf000155-resize_1-target.png,250,2.8489999999999998,15,3312,245,feet,jsons/v1_VE250_randls_56.json,505807,881599,57,Man
163,481307,DepthScenes,duration_manipulation_targetAtFixation,jsons/v1_VE250_randls_56.json,http://54.235.29.9/FacialAge/BNav_EC2/DepthDuration/v2_depth_duration_MTurk/v2_DepthDuration_HTML.html#423,423,1920,1080,1920,1080,9-4-2022,8-20-57,164,depth_duration_stimuli/002805_2014-06-22_19-54-03_094959634447_rgbf000079-resize_1/002805_2014-06-22_19-54-03_094959634447_rgbf000079-resize_1-target.png,250,3.1439999999999997,16,2676,256,feet,jsons/v1_VE250_randls_56.json,505807,881599,57,Man
