,subjID,experimentName,versionName,sequenceName,url,selected_row,windowWidth,windowHeight,screenWidth,screenHeight,startDate,startTime,trial,stimulus,duration,actual_depth,depth_estimate,trial_RT,log_sceneDuration,unitSelection,seq_filepath,experimentTime,totalTime,age,gender
0,481434,DepthScenes,duration_manipulation_targetAtFixation,jsons/v1_VE1000_randls_39.json,http://54.235.29.9/FacialAge/BNav_EC2/DepthDuration/v2_depth_duration_MTurk/v2_DepthDuration_HTML.html#135,135,1280,657,1280,800,8-22-2022,5-3-1,1,depth_duration_stimuli/002763_2014-06-22_19-13-10_094959634447_rgbf000075-resize_4/002763_2014-06-22_19-13-10_094959634447_rgbf000075-resize_4-target.png,1000,1.68375,1,9327,1102,meters,jsons/v1_VE1000_randls_39.json,1027758,1461758,25,Man
1,481434,DepthScenes,duration_manipulation_targetAtFixation,jsons/v1_VE1000_randls_39.json,http://54.235.29.9/FacialAge/BNav_EC2/DepthDuration/v2_depth_duration_MTurk/v2_DepthDuration_HTML.html#135,135,1280,657,1280,800,8-22-2022,5-3-1,2,depth_duration_stimuli/002209_2014-06-28_18-36-10_260595134347_rgbf000051-resize_1/002209_2014-06-28_18-36-10_260595134347_rgbf000051-resize_1-target.png,1000,2.057,1,4075,1169,meters,jsons/v1_VE1000_randls_39.json,1027758,1461758,25,Man
2,481434,DepthScenes,duration_manipulation_targetAtFixation,jsons/v1_VE1000_randls_39.json,http://54.235.29.9/FacialAge/BNav_EC2/DepthDuration/v2_depth_duration_MTurk/v2_DepthDuration_HTML.html#135,135,1280,657,1280,800,8-22-2022,5-3-1,3,depth_duration_stimuli/001806_2014-06-26_20-50-20_260595134347_rgbf000091-resize_1/001806_2014-06-26_20-50-20_260595134347_rgbf000091-resize_1-target.png,1000,2.7305,0,10654,1739,meters,jsons/v1_VE1000_randls_39.json,1027758,1461758,25,Man
3,481434,DepthScenes,duration_manipulation_targetAtFixation,jsons/v1_VE1000_randls_39.json,http://54.235.29.9/FacialAge/BNav_EC2/DepthDuration/v2_depth_duration_MTurk/v2_DepthDuration_HTML.html#135,135,1280,657,1280,800,8-22-2022,5-3-1,4,depth_duration_stimuli/001617_2014-06-20_11-35-32_260595134347_rgbf000066-resize_1/001617_2014-06-20_11-35-32_260595134347_rgbf000066-resize_1-target.png,1000,3.7910000000000004,0,4746,1001,meters,jsons/v1_VE1000_randls_39.json,1027758,1461758,25,Man
4,481434,DepthScenes,duration_manipulation_targetAtFixation,jsons/v1_VE1000_randls_39.json,http://54.235.29.9/FacialAge/BNav_EC2/DepthDuration/v2_depth_duration_MTurk/v2_DepthDuration_HTML.html#135,135,1280,657,1280,800,8-22-2022,5-3-1,5,depth_duration_stimuli/001158_2014-06-17_15-32-16_260595134347_rgbf000138-resize_2/001158_2014-06-17_15-32-16_260595134347_rgbf000138-resize_2-target.png,1000,4.5315,1,5287,998,meters,jsons/v1_VE1000_randls_39.json,1027758,1461758,25,Man
5,481434,DepthScenes,duration_manipulation_targetAtFixation,jsons/v1_VE1000_randls_39.json,http://54.235.29.9/FacialAge/BNav_EC2/DepthDuration/v2_depth_duration_MTurk/v2_DepthDuration_HTML.html#135,135,1280,657,1280,800,8-22-2022,5-3-1,6,depth_duration_stimuli/000556_2014-06-09_22-42-56_260595134347_rgbf000214-resize_1/000556_2014-06-09_22-42-56_260595134347_rgbf000214-resize_1-target.png,1000,4.8415,1,4634,1000,meters,jsons/v1_VE1000_randls_39.json,1027758,1461758,25,Man
6,481434,DepthScenes,duration_manipulation_targetAtFixation,jsons/v1_VE1000_randls_39.json,http://54.235.29.9/FacialAge/BNav_EC2/DepthDuration/v2_depth_duration_MTurk/v2_DepthDuration_HTML.html#135,135,1280,657,1280,800,8-22-2022,5-3-1,7,depth_duration_stimuli/002725_2014-06-22_11-47-51_094959634447_rgbf000070-resize_1/002725_2014-06-22_11-47-51_094959634447_rgbf000070-resize_1-target.png,1000,2.195,0,4704,800,meters,jsons/v1_VE1000_randls_39.json,1027758,1461758,25,Man
7,481434,DepthScenes,duration_manipulation_targetAtFixation,jsons/v1_VE1000_randls_39.json,http://54.235.29.9/FacialAge/BNav_EC2/DepthDuration/v2_depth_duration_MTurk/v2_DepthDuration_HTML.html#135,135,1280,657,1280,800,8-22-2022,5-3-1,8,depth_duration_stimuli/002344_2014-06-28_20-06-29_260595134347_rgbf000030-resize_1/002344_2014-06-28_20-06-29_260595134347_rgbf000030-resize_1-target.png,1000,1.5795,0,4731,993,meters,jsons/v1_VE1000_randls_39.json,1027758,1461758,25,Man
8,481434,DepthScenes,duration_manipulation_targetAtFixation,jsons/v1_VE1000_randls_39.json,http://54.235.29.9/FacialAge/BNav_EC2/DepthDuration/v2_depth_duration_MTurk/v2_DepthDuration_HTML.html#135,135,1280,657,1280,800,8-22-2022,5-3-1,9,depth_duration_stimuli/000436_2014-06-09_22-25-11_260595134347_rgbf000137-resize_1/000436_2014-06-09_22-25-11_260595134347_rgbf000137-resize_1-target.png,1000,4.0705,0,4890,999,meters,jsons/v1_VE1000_randls_39.json,1027758,1461758,25,Man
9,481434,DepthScenes,duration_manipulation_targetAtFixation,jsons/v1_VE1000_randls_39.json,http://54.235.29.9/FacialAge/BNav_EC2/DepthDuration/v2_depth_duration_MTurk/v2_DepthDuration_HTML.html#135,135,1280,657,1280,800,8-22-2022,5-3-1,10,depth_duration_stimuli/002444_2014-06-28_20-32-08_260595134347_rgbf000027-resize_0/002444_2014-06-28_20-32-08_260595134347_rgbf000027-resize_0-target.png,1000,4.388999999999999,0,7085,997,meters,jsons/v1_VE1000_randls_39.json,1027758,1461758,25,Man
10,481434,DepthScenes,duration_manipulation_targetAtFixation,jsons/v1_VE1000_randls_39.json,http://54.235.29.9/FacialAge/BNav_EC2/DepthDuration/v2_depth_duration_MTurk/v2_DepthDuration_HTML.html#135,135,1280,657,1280,800,8-22-2022,5-3-1,11,depth_duration_stimuli/001059_2014-06-08_21-53-27_260595134347_rgbf000061-resize_4/001059_2014-06-08_21-53-27_260595134347_rgbf000061-resize_4-target.png,1000,2.4185,1,4718,998,meters,jsons/v1_VE1000_randls_39.json,1027758,1461758,25,Man
11,481434,DepthScenes,duration_manipulation_targetAtFixation,jsons/v1_VE1000_randls_39.json,http://54.235.29.9/FacialAge/BNav_EC2/DepthDuration/v2_depth_duration_MTurk/v2_DepthDuration_HTML.html#135,135,1280,657,1280,800,8-22-2022,5-3-1,12,depth_duration_stimuli/001032_2014-06-08_13-23-17_260595134347_rgbf000021-resize_3/001032_2014-06-08_13-23-17_260595134347_rgbf000021-resize_3-target.png,1000,3.2725,0,4540,999,meters,jsons/v1_VE1000_randls_39.json,1027758,1461758,25,Man
12,481434,DepthScenes,duration_manipulation_targetAtFixation,jsons/v1_VE1000_randls_39.json,http://54.235.29.9/FacialAge/BNav_EC2/DepthDuration/v2_depth_duration_MTurk/v2_DepthDuration_HTML.html#135,135,1280,657,1280,800,8-22-2022,5-3-1,13,depth_duration_stimuli/000569_2014-06-09_22-51-47_260595134347_rgbf000141-resize_3/000569_2014-06-09_22-51-47_260595134347_rgbf000141-resize-original.jpg,1000,4.512,0,4413,1005,meters,jsons/v1_VE1000_randls_39.json,1027758,1461758,25,Man
13,481434,DepthScenes,duration_manipulation_targetAtFixation,jsons/v1_VE1000_randls_39.json,http://54.235.29.9/FacialAge/BNav_EC2/DepthDuration/v2_depth_duration_MTurk/v2_DepthDuration_HTML.html#135,135,1280,657,1280,800,8-22-2022,5-3-1,14,depth_duration_stimuli/003070_2014-06-15_14-58-27_094959634447_rgbf000150-resize_3/003070_2014-06-15_14-58-27_094959634447_rgbf000150-resize_3-target.png,1000,2.9415,1,5627,1001,meters,jsons/v1_VE1000_randls_39.json,1027758,1461758,25,Man
14,481434,DepthScenes,duration_manipulation_targetAtFixation,jsons/v1_VE1000_randls_39.json,http://54.235.29.9/FacialAge/BNav_EC2/DepthDuration/v2_depth_duration_MTurk/v2_DepthDuration_HTML.html#135,135,1280,657,1280,800,8-22-2022,5-3-1,15,depth_duration_stimuli/000943_2014-06-09_19-31-07_260595134347_rgbf000128-resize_1/000943_2014-06-09_19-31-07_260595134347_rgbf000128-resize_1-target.png,1000,1.9765,1,4323,996,meters,jsons/v1_VE1000_randls_39.json,1027758,1461758,25,Man
15,481434,DepthScenes,duration_manipulation_targetAtFixation,jsons/v1_VE1000_randls_39.json,http://54.235.29.9/FacialAge/BNav_EC2/DepthDuration/v2_depth_duration_MTurk/v2_DepthDuration_HTML.html#135,135,1280,657,1280,800,8-22-2022,5-3-1,16,depth_duration_stimuli/001175_2014-06-17_15-45-55_260595134347_rgbf000129-resize_4/001175_2014-06-17_15-45-55_260595134347_rgbf000129-resize_4-target.png,1000,4.255,0,4647,1000,meters,jsons/v1_VE1000_randls_39.json,1027758,1461758,25,Man
16,481434,DepthScenes,duration_manipulation_targetAtFixation,jsons/v1_VE1000_randls_39.json,http://54.235.29.9/FacialAge/BNav_EC2/DepthDuration/v2_depth_duration_MTurk/v2_DepthDuration_HTML.html#135,135,1280,657,1280,800,8-22-2022,5-3-1,17,depth_duration_stimuli/003490_2014-05-21_15-50-11_094959634447_rgbf000101-resize_3/003490_2014-05-21_15-50-11_094959634447_rgbf000101-resize_3-target.png,1000,3.6445,0,4129,999,meters,jsons/v1_VE1000_randls_39.json,1027758,1461758,25,Man
17,481434,DepthScenes,duration_manipulation_targetAtFixation,jsons/v1_VE1000_randls_39.json,http://54.235.29.9/FacialAge/BNav_EC2/DepthDuration/v2_depth_duration_MTurk/v2_DepthDuration_HTML.html#135,135,1280,657,1280,800,8-22-2022,5-3-1,18,depth_duration_stimuli/000447_2014-06-08_16-15-46_260595134347_rgbf000130-resize_1/000447_2014-06-08_16-15-46_260595134347_rgbf000130-resize_1-target.png,1000,4.479,0,4322,999,meters,jsons/v1_VE1000_randls_39.json,1027758,1461758,25,Man
18,481434,DepthScenes,duration_manipulation_targetAtFixation,jsons/v1_VE1000_randls_39.json,http://54.235.29.9/FacialAge/BNav_EC2/DepthDuration/v2_depth_duration_MTurk/v2_DepthDuration_HTML.html#135,135,1280,657,1280,800,8-22-2022,5-3-1,19,depth_duration_stimuli/001447_2014-06-19_17-00-32_260595134347_rgbf000082-resize_5/001447_2014-06-19_17-00-32_260595134347_rgbf000082-resize_5-target.png,1000,4.13775,1,4387,1466,meters,jsons/v1_VE1000_randls_39.json,1027758,1461758,25,Man
19,481434,DepthScenes,duration_manipulation_targetAtFixation,jsons/v1_VE1000_randls_39.json,http://54.235.29.9/FacialAge/BNav_EC2/DepthDuration/v2_depth_duration_MTurk/v2_DepthDuration_HTML.html#135,135,1280,657,1280,800,8-22-2022,5-3-1,20,depth_duration_stimuli/001011_2014-06-08_23-18-54_260595134347_rgbf000044-resize_4/001011_2014-06-08_23-18-54_260595134347_rgbf000044-resize_4-target.png,1000,2.4730000000000003,1,4056,999,meters,jsons/v1_VE1000_randls_39.json,1027758,1461758,25,Man
20,481434,DepthScenes,duration_manipulation_targetAtFixation,jsons/v1_VE1000_randls_39.json,http://54.235.29.9/FacialAge/BNav_EC2/DepthDuration/v2_depth_duration_MTurk/v2_DepthDuration_HTML.html#135,135,1280,657,1280,800,8-22-2022,5-3-1,21,depth_duration_stimuli/002875_2014-06-01_15-19-00_094959634447_rgbf000151-resize_1/002875_2014-06-01_15-19-00_094959634447_rgbf000151-resize_1-target.png,1000,1.9675,1,4667,1001,meters,jsons/v1_VE1000_randls_39.json,1027758,1461758,25,Man
21,481434,DepthScenes,duration_manipulation_targetAtFixation,jsons/v1_VE1000_randls_39.json,http://54.235.29.9/FacialAge/BNav_EC2/DepthDuration/v2_depth_duration_MTurk/v2_DepthDuration_HTML.html#135,135,1280,657,1280,800,8-22-2022,5-3-1,22,depth_duration_stimuli/000009_2014-05-26_14-32-05_260595134347_rgbf000034-resize_3/000009_2014-05-26_14-32-05_260595134347_rgbf000034-resize_3-target.png,1000,3.8715,0,4286,995,meters,jsons/v1_VE1000_randls_39.json,1027758,1461758,25,Man
22,481434,DepthScenes,duration_manipulation_targetAtFixation,jsons/v1_VE1000_randls_39.json,http://54.235.29.9/FacialAge/BNav_EC2/DepthDuration/v2_depth_duration_MTurk/v2_DepthDuration_HTML.html#135,135,1280,657,1280,800,8-22-2022,5-3-1,23,depth_duration_stimuli/001828_2014-06-26_21-40-03_260595134347_rgbf000024-resize_0/001828_2014-06-26_21-40-03_260595134347_rgbf000024-resize_0-target.png,1000,4.8260000000000005,0,4335,999,meters,jsons/v1_VE1000_randls_39.json,1027758,1461758,25,Man
23,481434,DepthScenes,duration_manipulation_targetAtFixation,jsons/v1_VE1000_randls_39.json,http://54.235.29.9/FacialAge/BNav_EC2/DepthDuration/v2_depth_duration_MTurk/v2_DepthDuration_HTML.html#135,135,1280,657,1280,800,8-22-2022,5-3-1,24,depth_duration_stimuli/001092_2014-06-15_17-34-58_260595134347_rgbf000171-resize_3/001092_2014-06-15_17-34-58_260595134347_rgbf000171-resize_3-target.png,1000,2.6935,1,4731,992,meters,jsons/v1_VE1000_randls_39.json,1027758,1461758,25,Man
24,481434,DepthScenes,duration_manipulation_targetAtFixation,jsons/v1_VE1000_randls_39.json,http://54.235.29.9/FacialAge/BNav_EC2/DepthDuration/v2_depth_duration_MTurk/v2_DepthDuration_HTML.html#135,135,1280,657,1280,800,8-22-2022,5-3-1,25,depth_duration_stimuli/002545_2014-06-24_13-38-53_094959634447_rgbf000080-resize_4/002545_2014-06-24_13-38-53_094959634447_rgbf000080-resize_4-target.png,1000,1.9205,1,4579,1000,meters,jsons/v1_VE1000_randls_39.json,1027758,1461758,25,Man
25,481434,DepthScenes,duration_manipulation_targetAtFixation,jsons/v1_VE1000_randls_39.json,http://54.235.29.9/FacialAge/BNav_EC2/DepthDuration/v2_depth_duration_MTurk/v2_DepthDuration_HTML.html#135,135,1280,657,1280,800,8-22-2022,5-3-1,26,depth_duration_stimuli/000810_2014-06-08_17-20-01_260595134347_rgbf000105-resize_0/000810_2014-06-08_17-20-01_260595134347_rgbf000105-resize_0-target.png,1000,1.4865,1,4249,1014,meters,jsons/v1_VE1000_randls_39.json,1027758,1461758,25,Man
26,481434,DepthScenes,duration_manipulation_targetAtFixation,jsons/v1_VE1000_randls_39.json,http://54.235.29.9/FacialAge/BNav_EC2/DepthDuration/v2_depth_duration_MTurk/v2_DepthDuration_HTML.html#135,135,1280,657,1280,800,8-22-2022,5-3-1,27,depth_duration_stimuli/001214_2014-06-17_16-13-55_260595134347_rgbf000111-resize_0/001214_2014-06-17_16-13-55_260595134347_rgbf000111-resize_0-target.png,1000,2.6505,0,3990,1000,meters,jsons/v1_VE1000_randls_39.json,1027758,1461758,25,Man
27,481434,DepthScenes,duration_manipulation_targetAtFixation,jsons/v1_VE1000_randls_39.json,http://54.235.29.9/FacialAge/BNav_EC2/DepthDuration/v2_depth_duration_MTurk/v2_DepthDuration_HTML.html#135,135,1280,657,1280,800,8-22-2022,5-3-1,28,depth_duration_stimuli/000917_2014-06-09_22-45-29_260595134347_rgbf000149-resize_3/000917_2014-06-09_22-45-29_260595134347_rgbf000149-resize_3-target.png,1000,4.1865,0,4760,999,meters,jsons/v1_VE1000_randls_39.json,1027758,1461758,25,Man
28,481434,DepthScenes,duration_manipulation_targetAtFixation,jsons/v1_VE1000_randls_39.json,http://54.235.29.9/FacialAge/BNav_EC2/DepthDuration/v2_depth_duration_MTurk/v2_DepthDuration_HTML.html#135,135,1280,657,1280,800,8-22-2022,5-3-1,29,depth_duration_stimuli/002323_2014-06-28_20-01-54_260595134347_rgbf000051-resize_4/002323_2014-06-28_20-01-54_260595134347_rgbf000051-resize_4-target.png,1000,3.7310000000000003,0,4866,999,meters,jsons/v1_VE1000_randls_39.json,1027758,1461758,25,Man
29,481434,DepthScenes,duration_manipulation_targetAtFixation,jsons/v1_VE1000_randls_39.json,http://54.235.29.9/FacialAge/BNav_EC2/DepthDuration/v2_depth_duration_MTurk/v2_DepthDuration_HTML.html#135,135,1280,657,1280,800,8-22-2022,5-3-1,30,depth_duration_stimuli/000375_2014-06-08_11-17-29_260595134347_rgbf000133-resize_2/000375_2014-06-08_11-17-29_260595134347_rgbf000133-resize-original.jpg,1000,4.718,0,3610,1000,meters,jsons/v1_VE1000_randls_39.json,1027758,1461758,25,Man
30,481434,DepthScenes,duration_manipulation_targetAtFixation,jsons/v1_VE1000_randls_39.json,http://54.235.29.9/FacialAge/BNav_EC2/DepthDuration/v2_depth_duration_MTurk/v2_DepthDuration_HTML.html#135,135,1280,657,1280,800,8-22-2022,5-3-1,31,depth_duration_stimuli/000368_2014-06-09_15-53-01_260595134347_rgbf000155-resize_2/000368_2014-06-09_15-53-01_260595134347_rgbf000155-resize_2-target.png,1000,2.4859999999999998,0,4499,996,meters,jsons/v1_VE1000_randls_39.json,1027758,1461758,25,Man
31,481434,DepthScenes,duration_manipulation_targetAtFixation,jsons/v1_VE1000_randls_39.json,http://54.235.29.9/FacialAge/BNav_EC2/DepthDuration/v2_depth_duration_MTurk/v2_DepthDuration_HTML.html#135,135,1280,657,1280,800,8-22-2022,5-3-1,32,depth_duration_stimuli/002678_2014-06-13_16-15-32_094959634447_rgbf000151-resize_6/002678_2014-06-13_16-15-32_094959634447_rgbf000151-resize_6-target.png,1000,2.1830000000000003,1,4706,994,meters,jsons/v1_VE1000_randls_39.json,1027758,1461758,25,Man
32,481434,DepthScenes,duration_manipulation_targetAtFixation,jsons/v1_VE1000_randls_39.json,http://54.235.29.9/FacialAge/BNav_EC2/DepthDuration/v2_depth_duration_MTurk/v2_DepthDuration_HTML.html#135,135,1280,657,1280,800,8-22-2022,5-3-1,33,depth_duration_stimuli/001570_2014-06-20_17-21-09_260595134347_rgbf000135-resize_4/001570_2014-06-20_17-21-09_260595134347_rgbf000135-resize_4-target.png,1000,4.467,0,4438,999,meters,jsons/v1_VE1000_randls_39.json,1027758,1461758,25,Man
33,481434,DepthScenes,duration_manipulation_targetAtFixation,jsons/v1_VE1000_randls_39.json,http://54.235.29.9/FacialAge/BNav_EC2/DepthDuration/v2_depth_duration_MTurk/v2_DepthDuration_HTML.html#135,135,1280,657,1280,800,8-22-2022,5-3-1,34,depth_duration_stimuli/001392_2014-06-19_16-07-59_260595134347_rgbf000046-resize_1/001392_2014-06-19_16-07-59_260595134347_rgbf000046-resize_1-target.png,1000,4.135,0,4871,1000,meters,jsons/v1_VE1000_randls_39.json,1027758,1461758,25,Man
34,481434,DepthScenes,duration_manipulation_targetAtFixation,jsons/v1_VE1000_randls_39.json,http://54.235.29.9/FacialAge/BNav_EC2/DepthDuration/v2_depth_duration_MTurk/v2_DepthDuration_HTML.html#135,135,1280,657,1280,800,8-22-2022,5-3-1,35,depth_duration_stimuli/001055_2014-06-08_18-45-35_260595134347_rgbf000111-resize_4/001055_2014-06-08_18-45-35_260595134347_rgbf000111-resize_4-target.png,1000,2.4290000000000003,0,4590,999,meters,jsons/v1_VE1000_randls_39.json,1027758,1461758,25,Man
35,481434,DepthScenes,duration_manipulation_targetAtFixation,jsons/v1_VE1000_randls_39.json,http://54.235.29.9/FacialAge/BNav_EC2/DepthDuration/v2_depth_duration_MTurk/v2_DepthDuration_HTML.html#135,135,1280,657,1280,800,8-22-2022,5-3-1,36,depth_duration_stimuli/000549_2014-06-08_22-10-24_260595134347_rgbf000247-resize_3/000549_2014-06-08_22-10-24_260595134347_rgbf000247-resize_3-target.png,1000,1.841,0,3596,999,meters,jsons/v1_VE1000_randls_39.json,1027758,1461758,25,Man
36,481434,DepthScenes,duration_manipulation_targetAtFixation,jsons/v1_VE1000_randls_39.json,http://54.235.29.9/FacialAge/BNav_EC2/DepthDuration/v2_depth_duration_MTurk/v2_DepthDuration_HTML.html#135,135,1280,657,1280,800,8-22-2022,5-3-1,37,depth_duration_stimuli/000414_2014-06-04_19-49-13_260595134347_rgbf000044-resize_0/000414_2014-06-04_19-49-13_260595134347_rgbf000044-resize_0-target.png,1000,4.329,0,4242,1005,meters,jsons/v1_VE1000_randls_39.json,1027758,1461758,25,Man
37,481434,DepthScenes,duration_manipulation_targetAtFixation,jsons/v1_VE1000_randls_39.json,http://54.235.29.9/FacialAge/BNav_EC2/DepthDuration/v2_depth_duration_MTurk/v2_DepthDuration_HTML.html#135,135,1280,657,1280,800,8-22-2022,5-3-1,38,depth_duration_stimuli/003129_2014-05-12_10-48-10_094959634447_rgbf000100-resize_0/003129_2014-05-12_10-48-10_094959634447_rgbf000100-resize_0-target.png,1000,4.9305,1,4304,980,meters,jsons/v1_VE1000_randls_39.json,1027758,1461758,25,Man
38,481434,DepthScenes,duration_manipulation_targetAtFixation,jsons/v1_VE1000_randls_39.json,http://54.235.29.9/FacialAge/BNav_EC2/DepthDuration/v2_depth_duration_MTurk/v2_DepthDuration_HTML.html#135,135,1280,657,1280,800,8-22-2022,5-3-1,39,depth_duration_stimuli/002784_2014-06-22_19-26-30_094959634447_rgbf000083-resize_3/002784_2014-06-22_19-26-30_094959634447_rgbf000083-resize_3-target.png,1000,1.8046666666667,0,5113,999,meters,jsons/v1_VE1000_randls_39.json,1027758,1461758,25,Man
39,481434,DepthScenes,duration_manipulation_targetAtFixation,jsons/v1_VE1000_randls_39.json,http://54.235.29.9/FacialAge/BNav_EC2/DepthDuration/v2_depth_duration_MTurk/v2_DepthDuration_HTML.html#135,135,1280,657,1280,800,8-22-2022,5-3-1,40,depth_duration_stimuli/001100_2014-06-15_17-46-26_260595134347_rgbf000225-resize_2/001100_2014-06-15_17-46-26_260595134347_rgbf000225-resize_2-target.png,1000,2.24,1,4234,999,meters,jsons/v1_VE1000_randls_39.json,1027758,1461758,25,Man
40,481434,DepthScenes,duration_manipulation_targetAtFixation,jsons/v1_VE1000_randls_39.json,http://54.235.29.9/FacialAge/BNav_EC2/DepthDuration/v2_depth_duration_MTurk/v2_DepthDuration_HTML.html#135,135,1280,657,1280,800,8-22-2022,5-3-1,41,depth_duration_stimuli/001555_2014-06-20_17-12-10_260595134347_rgbf000065-resize_4/001555_2014-06-20_17-12-10_260595134347_rgbf000065-resize_4-target.png,1000,1.633,0,6811,1001,meters,jsons/v1_VE1000_randls_39.json,1027758,1461758,25,Man
41,481434,DepthScenes,duration_manipulation_targetAtFixation,jsons/v1_VE1000_randls_39.json,http://54.235.29.9/FacialAge/BNav_EC2/DepthDuration/v2_depth_duration_MTurk/v2_DepthDuration_HTML.html#135,135,1280,657,1280,800,8-22-2022,5-3-1,42,depth_duration_stimuli/000103_2014-05-14_22-01-17_260595134347_rgbf000152-resize_5/000103_2014-05-14_22-01-17_260595134347_rgbf000152-resize_5-target.png,1000,1.993,1,4088,998,meters,jsons/v1_VE1000_randls_39.json,1027758,1461758,25,Man
42,481434,DepthScenes,duration_manipulation_targetAtFixation,jsons/v1_VE1000_randls_39.json,http://54.235.29.9/FacialAge/BNav_EC2/DepthDuration/v2_depth_duration_MTurk/v2_DepthDuration_HTML.html#135,135,1280,657,1280,800,8-22-2022,5-3-1,43,depth_duration_stimuli/001110_2014-06-15_17-25-28_260595134347_rgbf000150-resize_1/001110_2014-06-15_17-25-28_260595134347_rgbf000150-resize_1-target.png,1000,1.7115,1,5296,999,meters,jsons/v1_VE1000_randls_39.json,1027758,1461758,25,Man
43,481434,DepthScenes,duration_manipulation_targetAtFixation,jsons/v1_VE1000_randls_39.json,http://54.235.29.9/FacialAge/BNav_EC2/DepthDuration/v2_depth_duration_MTurk/v2_DepthDuration_HTML.html#135,135,1280,657,1280,800,8-22-2022,5-3-1,44,depth_duration_stimuli/000927_2014-06-09_16-32-30_260595134347_rgbf000123-resize_3/000927_2014-06-09_16-32-30_260595134347_rgbf000123-resize_3-target.png,1000,2.6785,1,3958,1091,meters,jsons/v1_VE1000_randls_39.json,1027758,1461758,25,Man
44,481434,DepthScenes,duration_manipulation_targetAtFixation,jsons/v1_VE1000_randls_39.json,http://54.235.29.9/FacialAge/BNav_EC2/DepthDuration/v2_depth_duration_MTurk/v2_DepthDuration_HTML.html#135,135,1280,657,1280,800,8-22-2022,5-3-1,45,depth_duration_stimuli/000787_2014-06-08_22-33-53_260595134347_rgbf000175-resize_1/000787_2014-06-08_22-33-53_260595134347_rgbf000175-resize-original.jpg,1000,4.784,0,4201,998,meters,jsons/v1_VE1000_randls_39.json,1027758,1461758,25,Man
45,481434,DepthScenes,duration_manipulation_targetAtFixation,jsons/v1_VE1000_randls_39.json,http://54.235.29.9/FacialAge/BNav_EC2/DepthDuration/v2_depth_duration_MTurk/v2_DepthDuration_HTML.html#135,135,1280,657,1280,800,8-22-2022,5-3-1,46,depth_duration_stimuli/000493_2014-06-09_21-01-18_260595134347_rgbf000196-resize_3/000493_2014-06-09_21-01-18_260595134347_rgbf000196-resize_3-target.png,1000,3.44,1,4106,992,meters,jsons/v1_VE1000_randls_39.json,1027758,1461758,25,Man
46,481434,DepthScenes,duration_manipulation_targetAtFixation,jsons/v1_VE1000_randls_39.json,http://54.235.29.9/FacialAge/BNav_EC2/DepthDuration/v2_depth_duration_MTurk/v2_DepthDuration_HTML.html#135,135,1280,657,1280,800,8-22-2022,5-3-1,47,depth_duration_stimuli/000191_2014-05-12_17-07-38_260595134347_rgbf000199-resize_0/000191_2014-05-12_17-07-38_260595134347_rgbf000199-resize_0-target.png,1000,3.7995,0,4163,995,meters,jsons/v1_VE1000_randls_39.json,1027758,1461758,25,Man
47,481434,DepthScenes,duration_manipulation_targetAtFixation,jsons/v1_VE1000_randls_39.json,http://54.235.29.9/FacialAge/BNav_EC2/DepthDuration/v2_depth_duration_MTurk/v2_DepthDuration_HTML.html#135,135,1280,657,1280,800,8-22-2022,5-3-1,48,depth_duration_stimuli/000773_2014-06-08_22-24-54_260595134347_rgbf000093-resize_1/000773_2014-06-08_22-24-54_260595134347_rgbf000093-resize_1-target.png,1000,4.973,0,4402,1000,meters,jsons/v1_VE1000_randls_39.json,1027758,1461758,25,Man
48,481434,DepthScenes,duration_manipulation_targetAtFixation,jsons/v1_VE1000_randls_39.json,http://54.235.29.9/FacialAge/BNav_EC2/DepthDuration/v2_depth_duration_MTurk/v2_DepthDuration_HTML.html#135,135,1280,657,1280,800,8-22-2022,5-3-1,49,depth_duration_stimuli/002414_2014-06-28_20-24-58_260595134347_rgbf000067-resize_4/002414_2014-06-28_20-24-58_260595134347_rgbf000067-resize_4-target.png,1000,4.363,1,4091,1000,meters,jsons/v1_VE1000_randls_39.json,1027758,1461758,25,Man
49,481434,DepthScenes,duration_manipulation_targetAtFixation,jsons/v1_VE1000_randls_39.json,http://54.235.29.9/FacialAge/BNav_EC2/DepthDuration/v2_depth_duration_MTurk/v2_DepthDuration_HTML.html#135,135,1280,657,1280,800,8-22-2022,5-3-1,50,depth_duration_stimuli/002057_2014-06-24_21-00-13_260595134347_rgbf000120-resize_1/002057_2014-06-24_21-00-13_260595134347_rgbf000120-resize_1-target.png,1000,2.967,0,4628,998,meters,jsons/v1_VE1000_randls_39.json,1027758,1461758,25,Man
50,481434,DepthScenes,duration_manipulation_targetAtFixation,jsons/v1_VE1000_randls_39.json,http://54.235.29.9/FacialAge/BNav_EC2/DepthDuration/v2_depth_duration_MTurk/v2_DepthDuration_HTML.html#135,135,1280,657,1280,800,8-22-2022,5-3-1,51,depth_duration_stimuli/000709_2014-06-08_13-51-55_260595134347_rgbf000068-resize_3/000709_2014-06-08_13-51-55_260595134347_rgbf000068-resize_3-target.png,1000,1.8030000000000002,1,4467,1001,meters,jsons/v1_VE1000_randls_39.json,1027758,1461758,25,Man
51,481434,DepthScenes,duration_manipulation_targetAtFixation,jsons/v1_VE1000_randls_39.json,http://54.235.29.9/FacialAge/BNav_EC2/DepthDuration/v2_depth_duration_MTurk/v2_DepthDuration_HTML.html#135,135,1280,657,1280,800,8-22-2022,5-3-1,52,depth_duration_stimuli/000682_2014-06-08_23-14-58_260595134347_rgbf000041-resize_5/000682_2014-06-08_23-14-58_260595134347_rgbf000041-resize_5-target.png,1000,2.7239999999999998,1,4264,826,meters,jsons/v1_VE1000_randls_39.json,1027758,1461758,25,Man
52,481434,DepthScenes,duration_manipulation_targetAtFixation,jsons/v1_VE1000_randls_39.json,http://54.235.29.9/FacialAge/BNav_EC2/DepthDuration/v2_depth_duration_MTurk/v2_DepthDuration_HTML.html#135,135,1280,657,1280,800,8-22-2022,5-3-1,53,depth_duration_stimuli/001650_2014-06-20_12-09-00_260595134347_rgbf000087-resize_3/001650_2014-06-20_12-09-00_260595134347_rgbf000087-resize_3-target.png,1000,1.9505,0,4502,994,meters,jsons/v1_VE1000_randls_39.json,1027758,1461758,25,Man
53,481434,DepthScenes,duration_manipulation_targetAtFixation,jsons/v1_VE1000_randls_39.json,http://54.235.29.9/FacialAge/BNav_EC2/DepthDuration/v2_depth_duration_MTurk/v2_DepthDuration_HTML.html#135,135,1280,657,1280,800,8-22-2022,5-3-1,54,depth_duration_stimuli/001167_2014-06-17_15-38-07_260595134347_rgbf000108-resize_0/001167_2014-06-17_15-38-07_260595134347_rgbf000108-resize_0-target.png,1000,1.8505,0,4723,985,meters,jsons/v1_VE1000_randls_39.json,1027758,1461758,25,Man
54,481434,DepthScenes,duration_manipulation_targetAtFixation,jsons/v1_VE1000_randls_39.json,http://54.235.29.9/FacialAge/BNav_EC2/DepthDuration/v2_depth_duration_MTurk/v2_DepthDuration_HTML.html#135,135,1280,657,1280,800,8-22-2022,5-3-1,55,depth_duration_stimuli/003587_2014-05-23_16-48-02_094959634447_rgbf002384-resize_2/003587_2014-05-23_16-48-02_094959634447_rgbf002384-resize_2-target.png,1000,1.357,1,8077,1015,meters,jsons/v1_VE1000_randls_39.json,1027758,1461758,25,Man
55,481434,DepthScenes,duration_manipulation_targetAtFixation,jsons/v1_VE1000_randls_39.json,http://54.235.29.9/FacialAge/BNav_EC2/DepthDuration/v2_depth_duration_MTurk/v2_DepthDuration_HTML.html#135,135,1280,657,1280,800,8-22-2022,5-3-1,56,depth_duration_stimuli/002272_2014-06-28_18-53-56_260595134347_rgbf000067-resize_2/002272_2014-06-28_18-53-56_260595134347_rgbf000067-resize_2-target.png,1000,1.138,1,5858,1000,meters,jsons/v1_VE1000_randls_39.json,1027758,1461758,25,Man
56,481434,DepthScenes,duration_manipulation_targetAtFixation,jsons/v1_VE1000_randls_39.json,http://54.235.29.9/FacialAge/BNav_EC2/DepthDuration/v2_depth_duration_MTurk/v2_DepthDuration_HTML.html#135,135,1280,657,1280,800,8-22-2022,5-3-1,57,depth_duration_stimuli/001571_2014-06-20_17-21-32_260595134347_rgbf000089-resize_1/001571_2014-06-20_17-21-32_260595134347_rgbf000089-resize_1-target.png,1000,1.86,0,4334,998,meters,jsons/v1_VE1000_randls_39.json,1027758,1461758,25,Man
57,481434,DepthScenes,duration_manipulation_targetAtFixation,jsons/v1_VE1000_randls_39.json,http://54.235.29.9/FacialAge/BNav_EC2/DepthDuration/v2_depth_duration_MTurk/v2_DepthDuration_HTML.html#135,135,1280,657,1280,800,8-22-2022,5-3-1,58,depth_duration_stimuli/001417_2014-06-19_16-25-36_260595134347_rgbf000115-resize_5/001417_2014-06-19_16-25-36_260595134347_rgbf000115-resize_5-target.png,1000,4.6255,1,4148,1030,meters,jsons/v1_VE1000_randls_39.json,1027758,1461758,25,Man
58,481434,DepthScenes,duration_manipulation_targetAtFixation,jsons/v1_VE1000_randls_39.json,http://54.235.29.9/FacialAge/BNav_EC2/DepthDuration/v2_depth_duration_MTurk/v2_DepthDuration_HTML.html#135,135,1280,657,1280,800,8-22-2022,5-3-1,59,depth_duration_stimuli/003081_2014-06-15_15-19-16_094959634447_rgbf000150-resize_1/003081_2014-06-15_15-19-16_094959634447_rgbf000150-resize_1-target.png,1000,3.9125,1,3727,990,meters,jsons/v1_VE1000_randls_39.json,1027758,1461758,25,Man
59,481434,DepthScenes,duration_manipulation_targetAtFixation,jsons/v1_VE1000_randls_39.json,http://54.235.29.9/FacialAge/BNav_EC2/DepthDuration/v2_depth_duration_MTurk/v2_DepthDuration_HTML.html#135,135,1280,657,1280,800,8-22-2022,5-3-1,60,depth_duration_stimuli/000906_2014-06-08_13-35-43_260595134347_rgbf000155-resize_1/000906_2014-06-08_13-35-43_260595134347_rgbf000155-resize_1-target.png,1000,2.8489999999999998,0,4499,999,meters,jsons/v1_VE1000_randls_39.json,1027758,1461758,25,Man
60,481434,DepthScenes,duration_manipulation_targetAtFixation,jsons/v1_VE1000_randls_39.json,http://54.235.29.9/FacialAge/BNav_EC2/DepthDuration/v2_depth_duration_MTurk/v2_DepthDuration_HTML.html#135,135,1280,657,1280,800,8-22-2022,5-3-1,61,depth_duration_stimuli/002805_2014-06-22_19-54-03_094959634447_rgbf000079-resize_1/002805_2014-06-22_19-54-03_094959634447_rgbf000079-resize_1-target.png,1000,3.1439999999999997,1,4640,995,meters,jsons/v1_VE1000_randls_39.json,1027758,1461758,25,Man
61,481434,DepthScenes,duration_manipulation_targetAtFixation,jsons/v1_VE1000_randls_39.json,http://54.235.29.9/FacialAge/BNav_EC2/DepthDuration/v2_depth_duration_MTurk/v2_DepthDuration_HTML.html#135,135,1280,657,1280,800,8-22-2022,5-3-1,62,depth_duration_stimuli/002570_2014-06-24_13-59-54_094959634447_rgbf000059-resize_0/002570_2014-06-24_13-59-54_094959634447_rgbf000059-resize_0-target.png,1000,4.037,2,3750,999,meters,jsons/v1_VE1000_randls_39.json,1027758,1461758,25,Man
62,481434,DepthScenes,duration_manipulation_targetAtFixation,jsons/v1_VE1000_randls_39.json,http://54.235.29.9/FacialAge/BNav_EC2/DepthDuration/v2_depth_duration_MTurk/v2_DepthDuration_HTML.html#135,135,1280,657,1280,800,8-22-2022,5-3-1,63,depth_duration_stimuli/002467_2014-06-28_20-38-07_260595134347_rgbf000026-resize_2/002467_2014-06-28_20-38-07_260595134347_rgbf000026-resize_2-target.png,1000,4.742,1,4346,960,meters,jsons/v1_VE1000_randls_39.json,1027758,1461758,25,Man
63,481434,DepthScenes,duration_manipulation_targetAtFixation,jsons/v1_VE1000_randls_39.json,http://54.235.29.9/FacialAge/BNav_EC2/DepthDuration/v2_depth_duration_MTurk/v2_DepthDuration_HTML.html#135,135,1280,657,1280,800,8-22-2022,5-3-1,64,depth_duration_stimuli/000692_2014-06-08_13-09-42_260595134347_rgbf000199-resize_2/000692_2014-06-08_13-09-42_260595134347_rgbf000199-resize_2-target.png,1000,3.661,1,4251,1002,meters,jsons/v1_VE1000_randls_39.json,1027758,1461758,25,Man
64,481434,DepthScenes,duration_manipulation_targetAtFixation,jsons/v1_VE1000_randls_39.json,http://54.235.29.9/FacialAge/BNav_EC2/DepthDuration/v2_depth_duration_MTurk/v2_DepthDuration_HTML.html#135,135,1280,657,1280,800,8-22-2022,5-3-1,65,depth_duration_stimuli/001094_2014-06-15_17-36-00_260595134347_rgbf000205-resize_0/001094_2014-06-15_17-36-00_260595134347_rgbf000205-resize_0-target.png,1000,4.2175,1,3526,1000,meters,jsons/v1_VE1000_randls_39.json,1027758,1461758,25,Man
65,481434,DepthScenes,duration_manipulation_targetAtFixation,jsons/v1_VE1000_randls_39.json,http://54.235.29.9/FacialAge/BNav_EC2/DepthDuration/v2_depth_duration_MTurk/v2_DepthDuration_HTML.html#135,135,1280,657,1280,800,8-22-2022,5-3-1,66,depth_duration_stimuli/001222_2014-06-17_16-24-06_260595134347_rgbf000073-resize_0/001222_2014-06-17_16-24-06_260595134347_rgbf000073-resize-original.jpg,1000,1.4385,0,4083,999,meters,jsons/v1_VE1000_randls_39.json,1027758,1461758,25,Man
66,481434,DepthScenes,duration_manipulation_targetAtFixation,jsons/v1_VE1000_randls_39.json,http://54.235.29.9/FacialAge/BNav_EC2/DepthDuration/v2_depth_duration_MTurk/v2_DepthDuration_HTML.html#135,135,1280,657,1280,800,8-22-2022,5-3-1,67,depth_duration_stimuli/001133_2014-06-17_14-49-16_260595134347_rgbf000100-resize_0/001133_2014-06-17_14-49-16_260595134347_rgbf000100-resize_0-target.png,1000,4.2115,1,4752,667,meters,jsons/v1_VE1000_randls_39.json,1027758,1461758,25,Man
67,481434,DepthScenes,duration_manipulation_targetAtFixation,jsons/v1_VE1000_randls_39.json,http://54.235.29.9/FacialAge/BNav_EC2/DepthDuration/v2_depth_duration_MTurk/v2_DepthDuration_HTML.html#135,135,1280,657,1280,800,8-22-2022,5-3-1,68,depth_duration_stimuli/001132_2014-06-17_14-48-54_260595134347_rgbf000100-resize_2/001132_2014-06-17_14-48-54_260595134347_rgbf000100-resize_2-target.png,1000,3.753,1,3503,1000,meters,jsons/v1_VE1000_randls_39.json,1027758,1461758,25,Man
68,481434,DepthScenes,duration_manipulation_targetAtFixation,jsons/v1_VE1000_randls_39.json,http://54.235.29.9/FacialAge/BNav_EC2/DepthDuration/v2_depth_duration_MTurk/v2_DepthDuration_HTML.html#135,135,1280,657,1280,800,8-22-2022,5-3-1,69,depth_duration_stimuli/000878_2014-06-08_22-52-45_260595134347_rgbf000045-resize_2/000878_2014-06-08_22-52-45_260595134347_rgbf000045-resize_2-target.png,1000,2.092,0,5504,998,meters,jsons/v1_VE1000_randls_39.json,1027758,1461758,25,Man
69,481434,DepthScenes,duration_manipulation_targetAtFixation,jsons/v1_VE1000_randls_39.json,http://54.235.29.9/FacialAge/BNav_EC2/DepthDuration/v2_depth_duration_MTurk/v2_DepthDuration_HTML.html#135,135,1280,657,1280,800,8-22-2022,5-3-1,70,depth_duration_stimuli/002953_2014-06-08_17-32-18_094959634447_rgbf000059-resize_5/002953_2014-06-08_17-32-18_094959634447_rgbf000059-resize_5-target.png,1000,1.551,1,3819,999,meters,jsons/v1_VE1000_randls_39.json,1027758,1461758,25,Man
70,481434,DepthScenes,duration_manipulation_targetAtFixation,jsons/v1_VE1000_randls_39.json,http://54.235.29.9/FacialAge/BNav_EC2/DepthDuration/v2_depth_duration_MTurk/v2_DepthDuration_HTML.html#135,135,1280,657,1280,800,8-22-2022,5-3-1,71,depth_duration_stimuli/001029_2014-06-08_13-17-57_260595134347_rgbf000065-resize_1/001029_2014-06-08_13-17-57_260595134347_rgbf000065-resize_1-target.png,1000,3.0835,0,4613,999,meters,jsons/v1_VE1000_randls_39.json,1027758,1461758,25,Man
71,481434,DepthScenes,duration_manipulation_targetAtFixation,jsons/v1_VE1000_randls_39.json,http://54.235.29.9/FacialAge/BNav_EC2/DepthDuration/v2_depth_duration_MTurk/v2_DepthDuration_HTML.html#135,135,1280,657,1280,800,8-22-2022,5-3-1,72,depth_duration_stimuli/000677_2014-06-08_23-10-32_260595134347_rgbf000158-resize_6/000677_2014-06-08_23-10-32_260595134347_rgbf000158-resize_6-target.png,1000,3.556,1,4265,1286,meters,jsons/v1_VE1000_randls_39.json,1027758,1461758,25,Man
72,481434,DepthScenes,duration_manipulation_targetAtFixation,jsons/v1_VE1000_randls_39.json,http://54.235.29.9/FacialAge/BNav_EC2/DepthDuration/v2_depth_duration_MTurk/v2_DepthDuration_HTML.html#135,135,1280,657,1280,800,8-22-2022,5-3-1,73,depth_duration_stimuli/000470_2014-06-09_19-42-40_260595134347_rgbf000094-resize_1/000470_2014-06-09_19-42-40_260595134347_rgbf000094-resize_1-target.png,1000,1.831,1,4231,997,meters,jsons/v1_VE1000_randls_39.json,1027758,1461758,25,Man
73,481434,DepthScenes,duration_manipulation_targetAtFixation,jsons/v1_VE1000_randls_39.json,http://54.235.29.9/FacialAge/BNav_EC2/DepthDuration/v2_depth_duration_MTurk/v2_DepthDuration_HTML.html#135,135,1280,657,1280,800,8-22-2022,5-3-1,74,depth_duration_stimuli/000109_2014-05-14_23-41-52_260595134347_rgbf000035-resize_9/000109_2014-05-14_23-41-52_260595134347_rgbf000035-resize_9-target.png,1000,1.3545,0,4054,998,meters,jsons/v1_VE1000_randls_39.json,1027758,1461758,25,Man
74,481434,DepthScenes,duration_manipulation_targetAtFixation,jsons/v1_VE1000_randls_39.json,http://54.235.29.9/FacialAge/BNav_EC2/DepthDuration/v2_depth_duration_MTurk/v2_DepthDuration_HTML.html#135,135,1280,657,1280,800,8-22-2022,5-3-1,75,depth_duration_stimuli/000469_2014-06-09_19-42-10_260595134347_rgbf000081-resize_1/000469_2014-06-09_19-42-10_260595134347_rgbf000081-resize_1-target.png,1000,1.652,1,5603,989,meters,jsons/v1_VE1000_randls_39.json,1027758,1461758,25,Man
75,481434,DepthScenes,duration_manipulation_targetAtFixation,jsons/v1_VE1000_randls_39.json,http://54.235.29.9/FacialAge/BNav_EC2/DepthDuration/v2_depth_duration_MTurk/v2_DepthDuration_HTML.html#135,135,1280,657,1280,800,8-22-2022,5-3-1,76,depth_duration_stimuli/000483_2014-06-09_20-41-45_260595134347_rgbf000116-resize_4/000483_2014-06-09_20-41-45_260595134347_rgbf000116-resize_4-target.png,1000,1.337,0,3855,1006,meters,jsons/v1_VE1000_randls_39.json,1027758,1461758,25,Man
76,481434,DepthScenes,duration_manipulation_targetAtFixation,jsons/v1_VE1000_randls_39.json,http://54.235.29.9/FacialAge/BNav_EC2/DepthDuration/v2_depth_duration_MTurk/v2_DepthDuration_HTML.html#135,135,1280,657,1280,800,8-22-2022,5-3-1,77,depth_duration_stimuli/001199_2014-06-17_16-03-48_260595134347_rgbf000077-resize_0/001199_2014-06-17_16-03-48_260595134347_rgbf000077-resize_0-target.png,1000,3.4375,0,6186,1015,meters,jsons/v1_VE1000_randls_39.json,1027758,1461758,25,Man
77,481434,DepthScenes,duration_manipulation_targetAtFixation,jsons/v1_VE1000_randls_39.json,http://54.235.29.9/FacialAge/BNav_EC2/DepthDuration/v2_depth_duration_MTurk/v2_DepthDuration_HTML.html#135,135,1280,657,1280,800,8-22-2022,5-3-1,78,depth_duration_stimuli/000502_2014-06-08_23-02-32_260595134347_rgbf000063-resize_4/000502_2014-06-08_23-02-32_260595134347_rgbf000063-resize_4-target.png,1000,2.431,0,3934,926,meters,jsons/v1_VE1000_randls_39.json,1027758,1461758,25,Man
78,481434,DepthScenes,duration_manipulation_targetAtFixation,jsons/v1_VE1000_randls_39.json,http://54.235.29.9/FacialAge/BNav_EC2/DepthDuration/v2_depth_duration_MTurk/v2_DepthDuration_HTML.html#135,135,1280,657,1280,800,8-22-2022,5-3-1,79,depth_duration_stimuli/002905_2014-06-03_18-04-43_094959634447_rgbf000151-resize_2/002905_2014-06-03_18-04-43_094959634447_rgbf000151-resize_2-target.png,1000,2.0295,1,4166,991,meters,jsons/v1_VE1000_randls_39.json,1027758,1461758,25,Man
79,481434,DepthScenes,duration_manipulation_targetAtFixation,jsons/v1_VE1000_randls_39.json,http://54.235.29.9/FacialAge/BNav_EC2/DepthDuration/v2_depth_duration_MTurk/v2_DepthDuration_HTML.html#135,135,1280,657,1280,800,8-22-2022,5-3-1,80,depth_duration_stimuli/003423_2014-05-21_10-23-26_094959634447_rgbf002665-resize_2/003423_2014-05-21_10-23-26_094959634447_rgbf002665-resize_2-target.png,1000,3.2575,0,4118,1016,meters,jsons/v1_VE1000_randls_39.json,1027758,1461758,25,Man
80,481434,DepthScenes,duration_manipulation_targetAtFixation,jsons/v1_VE1000_randls_39.json,http://54.235.29.9/FacialAge/BNav_EC2/DepthDuration/v2_depth_duration_MTurk/v2_DepthDuration_HTML.html#135,135,1280,657,1280,800,8-22-2022,5-3-1,81,depth_duration_stimuli/000758_2014-06-08_22-05-08_260595134347_rgbf000085-resize_0/000758_2014-06-08_22-05-08_260595134347_rgbf000085-resize_0-target.png,1000,3.3810000000000002,0,3913,992,meters,jsons/v1_VE1000_randls_39.json,1027758,1461758,25,Man
81,481434,DepthScenes,duration_manipulation_targetAtFixation,jsons/v1_VE1000_randls_39.json,http://54.235.29.9/FacialAge/BNav_EC2/DepthDuration/v2_depth_duration_MTurk/v2_DepthDuration_HTML.html#135,135,1280,657,1280,800,8-22-2022,5-3-1,82,depth_duration_stimuli/000854_2014-06-09_19-43-13_260595134347_rgbf000066-resize_0/000854_2014-06-09_19-43-13_260595134347_rgbf000066-resize_0-target.png,1000,3.068,0,4237,1002,meters,jsons/v1_VE1000_randls_39.json,1027758,1461758,25,Man
82,481434,DepthScenes,duration_manipulation_targetAtFixation,jsons/v1_VE1000_randls_39.json,http://54.235.29.9/FacialAge/BNav_EC2/DepthDuration/v2_depth_duration_MTurk/v2_DepthDuration_HTML.html#135,135,1280,657,1280,800,8-22-2022,5-3-1,83,depth_duration_stimuli/002279_2014-06-28_18-55-32_260595134347_rgbf000040-resize_5/002279_2014-06-28_18-55-32_260595134347_rgbf000040-resize_5-target.png,1000,1.5043333333333,0,4251,1002,meters,jsons/v1_VE1000_randls_39.json,1027758,1461758,25,Man
83,481434,DepthScenes,duration_manipulation_targetAtFixation,jsons/v1_VE1000_randls_39.json,http://54.235.29.9/FacialAge/BNav_EC2/DepthDuration/v2_depth_duration_MTurk/v2_DepthDuration_HTML.html#135,135,1280,657,1280,800,8-22-2022,5-3-1,84,depth_duration_stimuli/000635_2014-06-08_16-38-42_260595134347_rgbf000106-resize_1/000635_2014-06-08_16-38-42_260595134347_rgbf000106-resize_1-target.png,1000,2.074,1,3943,1003,meters,jsons/v1_VE1000_randls_39.json,1027758,1461758,25,Man
84,481434,DepthScenes,duration_manipulation_targetAtFixation,jsons/v1_VE1000_randls_39.json,http://54.235.29.9/FacialAge/BNav_EC2/DepthDuration/v2_depth_duration_MTurk/v2_DepthDuration_HTML.html#135,135,1280,657,1280,800,8-22-2022,5-3-1,85,depth_duration_stimuli/002445_2014-06-28_20-32-16_260595134347_rgbf000029-resize_4/002445_2014-06-28_20-32-16_260595134347_rgbf000029-resize_4-target.png,1000,2.5315,0,4147,1025,meters,jsons/v1_VE1000_randls_39.json,1027758,1461758,25,Man
85,481434,DepthScenes,duration_manipulation_targetAtFixation,jsons/v1_VE1000_randls_39.json,http://54.235.29.9/FacialAge/BNav_EC2/DepthDuration/v2_depth_duration_MTurk/v2_DepthDuration_HTML.html#135,135,1280,657,1280,800,8-22-2022,5-3-1,86,depth_duration_stimuli/000780_2014-06-08_22-28-29_260595134347_rgbf000126-resize_1/000780_2014-06-08_22-28-29_260595134347_rgbf000126-resize_1-target.png,1000,3.3825,0,5030,998,meters,jsons/v1_VE1000_randls_39.json,1027758,1461758,25,Man
86,481434,DepthScenes,duration_manipulation_targetAtFixation,jsons/v1_VE1000_randls_39.json,http://54.235.29.9/FacialAge/BNav_EC2/DepthDuration/v2_depth_duration_MTurk/v2_DepthDuration_HTML.html#135,135,1280,657,1280,800,8-22-2022,5-3-1,87,depth_duration_stimuli/001449_2014-06-19_17-01-27_260595134347_rgbf000116-resize_2/001449_2014-06-19_17-01-27_260595134347_rgbf000116-resize_2-target.png,1000,3.452,1,4411,999,meters,jsons/v1_VE1000_randls_39.json,1027758,1461758,25,Man
87,481434,DepthScenes,duration_manipulation_targetAtFixation,jsons/v1_VE1000_randls_39.json,http://54.235.29.9/FacialAge/BNav_EC2/DepthDuration/v2_depth_duration_MTurk/v2_DepthDuration_HTML.html#135,135,1280,657,1280,800,8-22-2022,5-3-1,88,depth_duration_stimuli/001450_2014-06-19_17-02-03_260595134347_rgbf000203-resize_4/001450_2014-06-19_17-02-03_260595134347_rgbf000203-resize_4-target.png,1000,4.0106666666667,0,4139,1001,meters,jsons/v1_VE1000_randls_39.json,1027758,1461758,25,Man
88,481434,DepthScenes,duration_manipulation_targetAtFixation,jsons/v1_VE1000_randls_39.json,http://54.235.29.9/FacialAge/BNav_EC2/DepthDuration/v2_depth_duration_MTurk/v2_DepthDuration_HTML.html#135,135,1280,657,1280,800,8-22-2022,5-3-1,89,depth_duration_stimuli/000642_2014-06-08_16-59-25_260595134347_rgbf000098-resize_2/000642_2014-06-08_16-59-25_260595134347_rgbf000098-resize_2-target.png,1000,2.8815,1,5653,993,meters,jsons/v1_VE1000_randls_39.json,1027758,1461758,25,Man
89,481434,DepthScenes,duration_manipulation_targetAtFixation,jsons/v1_VE1000_randls_39.json,http://54.235.29.9/FacialAge/BNav_EC2/DepthDuration/v2_depth_duration_MTurk/v2_DepthDuration_HTML.html#135,135,1280,657,1280,800,8-22-2022,5-3-1,90,depth_duration_stimuli/002425_2014-06-28_20-27-29_260595134347_rgbf000031-resize_8/002425_2014-06-28_20-27-29_260595134347_rgbf000031-resize_8-target.png,1000,3.8960000000000004,0,4004,1001,meters,jsons/v1_VE1000_randls_39.json,1027758,1461758,25,Man
90,481434,DepthScenes,duration_manipulation_targetAtFixation,jsons/v1_VE1000_randls_39.json,http://54.235.29.9/FacialAge/BNav_EC2/DepthDuration/v2_depth_duration_MTurk/v2_DepthDuration_HTML.html#135,135,1280,657,1280,800,8-22-2022,5-3-1,91,depth_duration_stimuli/001808_2014-06-26_20-50-58_260595134347_rgbf000029-resize_1/001808_2014-06-26_20-50-58_260595134347_rgbf000029-resize_1-target.png,1000,4.249,0,4015,1001,meters,jsons/v1_VE1000_randls_39.json,1027758,1461758,25,Man
91,481434,DepthScenes,duration_manipulation_targetAtFixation,jsons/v1_VE1000_randls_39.json,http://54.235.29.9/FacialAge/BNav_EC2/DepthDuration/v2_depth_duration_MTurk/v2_DepthDuration_HTML.html#135,135,1280,657,1280,800,8-22-2022,5-3-1,92,depth_duration_stimuli/001815_2014-06-26_20-52-55_260595134347_rgbf000020-resize_0/001815_2014-06-26_20-52-55_260595134347_rgbf000020-resize_0-target.png,1000,3.3865,0,4342,999,meters,jsons/v1_VE1000_randls_39.json,1027758,1461758,25,Man
92,481434,DepthScenes,duration_manipulation_targetAtFixation,jsons/v1_VE1000_randls_39.json,http://54.235.29.9/FacialAge/BNav_EC2/DepthDuration/v2_depth_duration_MTurk/v2_DepthDuration_HTML.html#135,135,1280,657,1280,800,8-22-2022,5-3-1,93,depth_duration_stimuli/001056_2014-06-08_18-46-44_260595134347_rgbf000068-resize_0/001056_2014-06-08_18-46-44_260595134347_rgbf000068-resize_0-target.png,1000,2.6625,1,4617,999,meters,jsons/v1_VE1000_randls_39.json,1027758,1461758,25,Man
93,481434,DepthScenes,duration_manipulation_targetAtFixation,jsons/v1_VE1000_randls_39.json,http://54.235.29.9/FacialAge/BNav_EC2/DepthDuration/v2_depth_duration_MTurk/v2_DepthDuration_HTML.html#135,135,1280,657,1280,800,8-22-2022,5-3-1,94,depth_duration_stimuli/002199_2014-06-28_18-33-56_260595134347_rgbf000074-resize_0/002199_2014-06-28_18-33-56_260595134347_rgbf000074-resize_0-target.png,1000,1.996,0,3870,1001,meters,jsons/v1_VE1000_randls_39.json,1027758,1461758,25,Man
94,481434,DepthScenes,duration_manipulation_targetAtFixation,jsons/v1_VE1000_randls_39.json,http://54.235.29.9/FacialAge/BNav_EC2/DepthDuration/v2_depth_duration_MTurk/v2_DepthDuration_HTML.html#135,135,1280,657,1280,800,8-22-2022,5-3-1,95,depth_duration_stimuli/003292_2014-05-14_21-53-49_094959634447_rgbf000100-resize_2/003292_2014-05-14_21-53-49_094959634447_rgbf000100-resize_2-target.png,1000,3.4815,1,4411,999,meters,jsons/v1_VE1000_randls_39.json,1027758,1461758,25,Man
95,481434,DepthScenes,duration_manipulation_targetAtFixation,jsons/v1_VE1000_randls_39.json,http://54.235.29.9/FacialAge/BNav_EC2/DepthDuration/v2_depth_duration_MTurk/v2_DepthDuration_HTML.html#135,135,1280,657,1280,800,8-22-2022,5-3-1,96,depth_duration_stimuli/002639_2014-06-24_14-51-37_094959634447_rgbf000074-resize_4/002639_2014-06-24_14-51-37_094959634447_rgbf000074-resize_4-target.png,1000,4.0375,1,5352,995,meters,jsons/v1_VE1000_randls_39.json,1027758,1461758,25,Man
96,481434,DepthScenes,duration_manipulation_targetAtFixation,jsons/v1_VE1000_randls_39.json,http://54.235.29.9/FacialAge/BNav_EC2/DepthDuration/v2_depth_duration_MTurk/v2_DepthDuration_HTML.html#135,135,1280,657,1280,800,8-22-2022,5-3-1,97,depth_duration_stimuli/001244_2014-06-17_16-47-45_260595134347_rgbf000030-resize_4/001244_2014-06-17_16-47-45_260595134347_rgbf000030-resize_4-target.png,1000,2.0425,1,3911,994,meters,jsons/v1_VE1000_randls_39.json,1027758,1461758,25,Man
97,481434,DepthScenes,duration_manipulation_targetAtFixation,jsons/v1_VE1000_randls_39.json,http://54.235.29.9/FacialAge/BNav_EC2/DepthDuration/v2_depth_duration_MTurk/v2_DepthDuration_HTML.html#135,135,1280,657,1280,800,8-22-2022,5-3-1,98,depth_duration_stimuli/003495_2014-05-21_16-01-51_094959634447_rgbf000100-resize_3/003495_2014-05-21_16-01-51_094959634447_rgbf000100-resize_3-target.png,1000,1.6255,1,3828,996,meters,jsons/v1_VE1000_randls_39.json,1027758,1461758,25,Man
98,481434,DepthScenes,duration_manipulation_targetAtFixation,jsons/v1_VE1000_randls_39.json,http://54.235.29.9/FacialAge/BNav_EC2/DepthDuration/v2_depth_duration_MTurk/v2_DepthDuration_HTML.html#135,135,1280,657,1280,800,8-22-2022,5-3-1,99,depth_duration_stimuli/001540_2014-06-20_17-01-05_260595134347_rgbf000086-resize_2/001540_2014-06-20_17-01-05_260595134347_rgbf000086-resize-original.jpg,1000,1.459,0,4106,997,meters,jsons/v1_VE1000_randls_39.json,1027758,1461758,25,Man
99,481434,DepthScenes,duration_manipulation_targetAtFixation,jsons/v1_VE1000_randls_39.json,http://54.235.29.9/FacialAge/BNav_EC2/DepthDuration/v2_depth_duration_MTurk/v2_DepthDuration_HTML.html#135,135,1280,657,1280,800,8-22-2022,5-3-1,100,depth_duration_stimuli/001150_2014-06-17_15-27-34_260595134347_rgbf000108-resize_2/001150_2014-06-17_15-27-34_260595134347_rgbf000108-resize_2-target.png,1000,4.0325,0,4898,999,meters,jsons/v1_VE1000_randls_39.json,1027758,1461758,25,Man
100,481434,DepthScenes,duration_manipulation_targetAtFixation,jsons/v1_VE1000_randls_39.json,http://54.235.29.9/FacialAge/BNav_EC2/DepthDuration/v2_depth_duration_MTurk/v2_DepthDuration_HTML.html#135,135,1280,657,1280,800,8-22-2022,5-3-1,101,depth_duration_stimuli/000665_2014-06-09_20-42-35_260595134347_rgbf000110-resize_1/000665_2014-06-09_20-42-35_260595134347_rgbf000110-resize_1-target.png,1000,3.057,0,3597,1000,meters,jsons/v1_VE1000_randls_39.json,1027758,1461758,25,Man
101,481434,DepthScenes,duration_manipulation_targetAtFixation,jsons/v1_VE1000_randls_39.json,http://54.235.29.9/FacialAge/BNav_EC2/DepthDuration/v2_depth_duration_MTurk/v2_DepthDuration_HTML.html#135,135,1280,657,1280,800,8-22-2022,5-3-1,102,depth_duration_stimuli/002600_2014-06-24_14-27-04_094959634447_rgbf000074-resize_2/002600_2014-06-24_14-27-04_094959634447_rgbf000074-resize_2-target.png,1000,2.7575,0,3739,1001,meters,jsons/v1_VE1000_randls_39.json,1027758,1461758,25,Man
102,481434,DepthScenes,duration_manipulation_targetAtFixation,jsons/v1_VE1000_randls_39.json,http://54.235.29.9/FacialAge/BNav_EC2/DepthDuration/v2_depth_duration_MTurk/v2_DepthDuration_HTML.html#135,135,1280,657,1280,800,8-22-2022,5-3-1,103,depth_duration_stimuli/003228_2014-05-14_13-42-35_094959634447_rgbf000101-resize_1/003228_2014-05-14_13-42-35_094959634447_rgbf000101-resize_1-target.png,1000,1.9680000000000002,0,3957,1005,meters,jsons/v1_VE1000_randls_39.json,1027758,1461758,25,Man
103,481434,DepthScenes,duration_manipulation_targetAtFixation,jsons/v1_VE1000_randls_39.json,http://54.235.29.9/FacialAge/BNav_EC2/DepthDuration/v2_depth_duration_MTurk/v2_DepthDuration_HTML.html#135,135,1280,657,1280,800,8-22-2022,5-3-1,104,depth_duration_stimuli/002549_2014-06-24_13-41-39_094959634447_rgbf000022-resize_3/002549_2014-06-24_13-41-39_094959634447_rgbf000022-resize_3-target.png,1000,1.476,1,4361,998,meters,jsons/v1_VE1000_randls_39.json,1027758,1461758,25,Man
104,481434,DepthScenes,duration_manipulation_targetAtFixation,jsons/v1_VE1000_randls_39.json,http://54.235.29.9/FacialAge/BNav_EC2/DepthDuration/v2_depth_duration_MTurk/v2_DepthDuration_HTML.html#135,135,1280,657,1280,800,8-22-2022,5-3-1,105,depth_duration_stimuli/002750_2014-06-22_19-08-03_094959634447_rgbf000094-resize_4/002750_2014-06-22_19-08-03_094959634447_rgbf000094-resize_4-target.png,1000,2.354,1,4929,1000,meters,jsons/v1_VE1000_randls_39.json,1027758,1461758,25,Man
105,481434,DepthScenes,duration_manipulation_targetAtFixation,jsons/v1_VE1000_randls_39.json,http://54.235.29.9/FacialAge/BNav_EC2/DepthDuration/v2_depth_duration_MTurk/v2_DepthDuration_HTML.html#135,135,1280,657,1280,800,8-22-2022,5-3-1,106,depth_duration_stimuli/000739_2014-06-08_18-45-58_260595134347_rgbf000068-resize_1/000739_2014-06-08_18-45-58_260595134347_rgbf000068-resize_1-target.png,1000,3.534,0,4961,1046,meters,jsons/v1_VE1000_randls_39.json,1027758,1461758,25,Man
106,481434,DepthScenes,duration_manipulation_targetAtFixation,jsons/v1_VE1000_randls_39.json,http://54.235.29.9/FacialAge/BNav_EC2/DepthDuration/v2_depth_duration_MTurk/v2_DepthDuration_HTML.html#135,135,1280,657,1280,800,8-22-2022,5-3-1,107,depth_duration_stimuli/000734_2014-06-08_17-39-11_260595134347_rgbf000128-resize_2/000734_2014-06-08_17-39-11_260595134347_rgbf000128-resize_2-target.png,1000,4.098,1,3883,999,meters,jsons/v1_VE1000_randls_39.json,1027758,1461758,25,Man
107,481434,DepthScenes,duration_manipulation_targetAtFixation,jsons/v1_VE1000_randls_39.json,http://54.235.29.9/FacialAge/BNav_EC2/DepthDuration/v2_depth_duration_MTurk/v2_DepthDuration_HTML.html#135,135,1280,657,1280,800,8-22-2022,5-3-1,108,depth_duration_stimuli/002509_2014-06-24_13-19-22_094959634447_rgbf000077-resize_0/002509_2014-06-24_13-19-22_094959634447_rgbf000077-resize_0-target.png,1000,1.3065,0,4331,999,meters,jsons/v1_VE1000_randls_39.json,1027758,1461758,25,Man
108,481434,DepthScenes,duration_manipulation_targetAtFixation,jsons/v1_VE1000_randls_39.json,http://54.235.29.9/FacialAge/BNav_EC2/DepthDuration/v2_depth_duration_MTurk/v2_DepthDuration_HTML.html#135,135,1280,657,1280,800,8-22-2022,5-3-1,109,depth_duration_stimuli/003338_2014-05-20_11-01-23_094959634447_rgbf000051-resize_6/003338_2014-05-20_11-01-23_094959634447_rgbf000051-resize_6-target.png,1000,1.693,0,4105,998,meters,jsons/v1_VE1000_randls_39.json,1027758,1461758,25,Man
109,481434,DepthScenes,duration_manipulation_targetAtFixation,jsons/v1_VE1000_randls_39.json,http://54.235.29.9/FacialAge/BNav_EC2/DepthDuration/v2_depth_duration_MTurk/v2_DepthDuration_HTML.html#135,135,1280,657,1280,800,8-22-2022,5-3-1,110,depth_duration_stimuli/001016_2014-06-09_16-16-10_260595134347_rgbf000112-resize_5/001016_2014-06-09_16-16-10_260595134347_rgbf000112-resize_5-target.png,1000,1.6565,1,4742,999,meters,jsons/v1_VE1000_randls_39.json,1027758,1461758,25,Man
110,481434,DepthScenes,duration_manipulation_targetAtFixation,jsons/v1_VE1000_randls_39.json,http://54.235.29.9/FacialAge/BNav_EC2/DepthDuration/v2_depth_duration_MTurk/v2_DepthDuration_HTML.html#135,135,1280,657,1280,800,8-22-2022,5-3-1,111,depth_duration_stimuli/002340_2014-06-28_20-05-46_260595134347_rgbf000113-resize_0/002340_2014-06-28_20-05-46_260595134347_rgbf000113-resize_0-target.png,1000,2.4735,0,3529,1029,meters,jsons/v1_VE1000_randls_39.json,1027758,1461758,25,Man
111,481434,DepthScenes,duration_manipulation_targetAtFixation,jsons/v1_VE1000_randls_39.json,http://54.235.29.9/FacialAge/BNav_EC2/DepthDuration/v2_depth_duration_MTurk/v2_DepthDuration_HTML.html#135,135,1280,657,1280,800,8-22-2022,5-3-1,112,depth_duration_stimuli/002039_2014-06-24_20-22-38_260595134347_rgbf000084-resize_1/002039_2014-06-24_20-22-38_260595134347_rgbf000084-resize_1-target.png,1000,4.408,1,4293,1004,meters,jsons/v1_VE1000_randls_39.json,1027758,1461758,25,Man
112,481434,DepthScenes,duration_manipulation_targetAtFixation,jsons/v1_VE1000_randls_39.json,http://54.235.29.9/FacialAge/BNav_EC2/DepthDuration/v2_depth_duration_MTurk/v2_DepthDuration_HTML.html#135,135,1280,657,1280,800,8-22-2022,5-3-1,113,depth_duration_stimuli/002103_2014-06-25_20-00-40_260595134347_rgbf000049-resize_0/002103_2014-06-25_20-00-40_260595134347_rgbf000049-resize_0-target.png,1000,4.105,1,3958,1003,meters,jsons/v1_VE1000_randls_39.json,1027758,1461758,25,Man
113,481434,DepthScenes,duration_manipulation_targetAtFixation,jsons/v1_VE1000_randls_39.json,http://54.235.29.9/FacialAge/BNav_EC2/DepthDuration/v2_depth_duration_MTurk/v2_DepthDuration_HTML.html#135,135,1280,657,1280,800,8-22-2022,5-3-1,114,depth_duration_stimuli/002748_2014-06-22_19-07-22_094959634447_rgbf000078-resize_1/002748_2014-06-22_19-07-22_094959634447_rgbf000078-resize_1-target.png,1000,4.6705,1,3803,999,meters,jsons/v1_VE1000_randls_39.json,1027758,1461758,25,Man
114,481434,DepthScenes,duration_manipulation_targetAtFixation,jsons/v1_VE1000_randls_39.json,http://54.235.29.9/FacialAge/BNav_EC2/DepthDuration/v2_depth_duration_MTurk/v2_DepthDuration_HTML.html#135,135,1280,657,1280,800,8-22-2022,5-3-1,115,depth_duration_stimuli/002995_2014-06-15_12-31-26_094959634447_rgbf000150-resize_1/002995_2014-06-15_12-31-26_094959634447_rgbf000150-resize_1-target.png,1000,3.8360000000000003,1,4970,999,meters,jsons/v1_VE1000_randls_39.json,1027758,1461758,25,Man
115,481434,DepthScenes,duration_manipulation_targetAtFixation,jsons/v1_VE1000_randls_39.json,http://54.235.29.9/FacialAge/BNav_EC2/DepthDuration/v2_depth_duration_MTurk/v2_DepthDuration_HTML.html#135,135,1280,657,1280,800,8-22-2022,5-3-1,116,depth_duration_stimuli/001170_2014-06-17_15-43-44_260595134347_rgbf000096-resize_6/001170_2014-06-17_15-43-44_260595134347_rgbf000096-resize-original.jpg,1000,1.1909999999999998,0,4752,998,meters,jsons/v1_VE1000_randls_39.json,1027758,1461758,25,Man
116,481434,DepthScenes,duration_manipulation_targetAtFixation,jsons/v1_VE1000_randls_39.json,http://54.235.29.9/FacialAge/BNav_EC2/DepthDuration/v2_depth_duration_MTurk/v2_DepthDuration_HTML.html#135,135,1280,657,1280,800,8-22-2022,5-3-1,117,depth_duration_stimuli/001810_2014-06-26_20-51-35_260595134347_rgbf000040-resize_3/001810_2014-06-26_20-51-35_260595134347_rgbf000040-resize_3-target.png,1000,2.2525,1,6188,998,meters,jsons/v1_VE1000_randls_39.json,1027758,1461758,25,Man
117,481434,DepthScenes,duration_manipulation_targetAtFixation,jsons/v1_VE1000_randls_39.json,http://54.235.29.9/FacialAge/BNav_EC2/DepthDuration/v2_depth_duration_MTurk/v2_DepthDuration_HTML.html#135,135,1280,657,1280,800,8-22-2022,5-3-1,118,depth_duration_stimuli/003010_2014-06-15_12-54-35_094959634447_rgbf000112-resize_0/003010_2014-06-15_12-54-35_094959634447_rgbf000112-resize_0-target.png,1000,3.1185,1,27294,967,meters,jsons/v1_VE1000_randls_39.json,1027758,1461758,25,Man
118,481434,DepthScenes,duration_manipulation_targetAtFixation,jsons/v1_VE1000_randls_39.json,http://54.235.29.9/FacialAge/BNav_EC2/DepthDuration/v2_depth_duration_MTurk/v2_DepthDuration_HTML.html#135,135,1280,657,1280,800,8-22-2022,5-3-1,119,depth_duration_stimuli/000486_2014-06-09_20-47-20_260595134347_rgbf000143-resize_2/000486_2014-06-09_20-47-20_260595134347_rgbf000143-resize_2-target.png,1000,4.8325,0,12593,1000,meters,jsons/v1_VE1000_randls_39.json,1027758,1461758,25,Man
119,481434,DepthScenes,duration_manipulation_targetAtFixation,jsons/v1_VE1000_randls_39.json,http://54.235.29.9/FacialAge/BNav_EC2/DepthDuration/v2_depth_duration_MTurk/v2_DepthDuration_HTML.html#135,135,1280,657,1280,800,8-22-2022,5-3-1,120,depth_duration_stimuli/003083_2014-06-15_15-21-03_094959634447_rgbf000063-resize_1/003083_2014-06-15_15-21-03_094959634447_rgbf000063-resize_1-target.png,1000,4.1405,1,14591,955,meters,jsons/v1_VE1000_randls_39.json,1027758,1461758,25,Man
120,481434,DepthScenes,duration_manipulation_targetAtFixation,jsons/v1_VE1000_randls_39.json,http://54.235.29.9/FacialAge/BNav_EC2/DepthDuration/v2_depth_duration_MTurk/v2_DepthDuration_HTML.html#135,135,1280,657,1280,800,8-22-2022,5-3-1,121,depth_duration_stimuli/002153_2014-06-25_21-27-18_260595134347_rgbf000038-resize_5/002153_2014-06-25_21-27-18_260595134347_rgbf000038-resize_5-target.png,1000,2.505,0,11052,1000,meters,jsons/v1_VE1000_randls_39.json,1027758,1461758,25,Man
121,481434,DepthScenes,duration_manipulation_targetAtFixation,jsons/v1_VE1000_randls_39.json,http://54.235.29.9/FacialAge/BNav_EC2/DepthDuration/v2_depth_duration_MTurk/v2_DepthDuration_HTML.html#135,135,1280,657,1280,800,8-22-2022,5-3-1,122,depth_duration_stimuli/002660_2014-06-13_15-44-18_094959634447_rgbf001878-resize_2/002660_2014-06-13_15-44-18_094959634447_rgbf001878-resize_2-target.png,1000,3.576,0,10541,1001,meters,jsons/v1_VE1000_randls_39.json,1027758,1461758,25,Man
122,481434,DepthScenes,duration_manipulation_targetAtFixation,jsons/v1_VE1000_randls_39.json,http://54.235.29.9/FacialAge/BNav_EC2/DepthDuration/v2_depth_duration_MTurk/v2_DepthDuration_HTML.html#135,135,1280,657,1280,800,8-22-2022,5-3-1,123,depth_duration_stimuli/001066_2014-06-08_22-03-20_260595134347_rgbf000066-resize_4/001066_2014-06-08_22-03-20_260595134347_rgbf000066-resize_4-target.png,1000,4.2330000000000005,0,13657,951,meters,jsons/v1_VE1000_randls_39.json,1027758,1461758,25,Man
123,481434,DepthScenes,duration_manipulation_targetAtFixation,jsons/v1_VE1000_randls_39.json,http://54.235.29.9/FacialAge/BNav_EC2/DepthDuration/v2_depth_duration_MTurk/v2_DepthDuration_HTML.html#135,135,1280,657,1280,800,8-22-2022,5-3-1,124,depth_duration_stimuli/000742_2014-06-08_18-48-09_260595134347_rgbf000164-resize_4/000742_2014-06-08_18-48-09_260595134347_rgbf000164-resize_4-target.png,1000,4.632,0,16034,981,meters,jsons/v1_VE1000_randls_39.json,1027758,1461758,25,Man
124,481434,DepthScenes,duration_manipulation_targetAtFixation,jsons/v1_VE1000_randls_39.json,http://54.235.29.9/FacialAge/BNav_EC2/DepthDuration/v2_depth_duration_MTurk/v2_DepthDuration_HTML.html#135,135,1280,657,1280,800,8-22-2022,5-3-1,125,depth_duration_stimuli/003621_2014-05-23_18-06-08_094959634447_rgbf000101-resize_1/003621_2014-05-23_18-06-08_094959634447_rgbf000101-resize_1-target.png,1000,3.9835,1,7236,1000,meters,jsons/v1_VE1000_randls_39.json,1027758,1461758,25,Man
125,481434,DepthScenes,duration_manipulation_targetAtFixation,jsons/v1_VE1000_randls_39.json,http://54.235.29.9/FacialAge/BNav_EC2/DepthDuration/v2_depth_duration_MTurk/v2_DepthDuration_HTML.html#135,135,1280,657,1280,800,8-22-2022,5-3-1,126,depth_duration_stimuli/001584_2014-06-20_11-07-43_260595134347_rgbf000002-resize_1/001584_2014-06-20_11-07-43_260595134347_rgbf000002-resize_1-target.png,1000,3.53,0,34407,892,meters,jsons/v1_VE1000_randls_39.json,1027758,1461758,25,Man
126,481434,DepthScenes,duration_manipulation_targetAtFixation,jsons/v1_VE1000_randls_39.json,http://54.235.29.9/FacialAge/BNav_EC2/DepthDuration/v2_depth_duration_MTurk/v2_DepthDuration_HTML.html#135,135,1280,657,1280,800,8-22-2022,5-3-1,127,depth_duration_stimuli/002788_2014-06-22_19-36-03_094959634447_rgbf000088-resize_2/002788_2014-06-22_19-36-03_094959634447_rgbf000088-resize_2-target.png,1000,1.6465,0,18741,1097,meters,jsons/v1_VE1000_randls_39.json,1027758,1461758,25,Man
127,481434,DepthScenes,duration_manipulation_targetAtFixation,jsons/v1_VE1000_randls_39.json,http://54.235.29.9/FacialAge/BNav_EC2/DepthDuration/v2_depth_duration_MTurk/v2_DepthDuration_HTML.html#135,135,1280,657,1280,800,8-22-2022,5-3-1,128,depth_duration_stimuli/000749_2014-06-08_21-55-06_260595134347_rgbf000070-resize_2/000749_2014-06-08_21-55-06_260595134347_rgbf000070-resize_2-target.png,1000,2.331,0,8059,1001,meters,jsons/v1_VE1000_randls_39.json,1027758,1461758,25,Man
128,481434,DepthScenes,duration_manipulation_targetAtFixation,jsons/v1_VE1000_randls_39.json,http://54.235.29.9/FacialAge/BNav_EC2/DepthDuration/v2_depth_duration_MTurk/v2_DepthDuration_HTML.html#135,135,1280,657,1280,800,8-22-2022,5-3-1,129,depth_duration_stimuli/002043_2014-06-24_20-29-38_260595134347_rgbf000039-resize_4/002043_2014-06-24_20-29-38_260595134347_rgbf000039-resize_4-target.png,1000,2.8435,0,11073,999,meters,jsons/v1_VE1000_randls_39.json,1027758,1461758,25,Man
129,481434,DepthScenes,duration_manipulation_targetAtFixation,jsons/v1_VE1000_randls_39.json,http://54.235.29.9/FacialAge/BNav_EC2/DepthDuration/v2_depth_duration_MTurk/v2_DepthDuration_HTML.html#135,135,1280,657,1280,800,8-22-2022,5-3-1,130,depth_duration_stimuli/003048_2014-06-15_13-49-43_094959634447_rgbf000150-resize_1/003048_2014-06-15_13-49-43_094959634447_rgbf000150-resize_1-target.png,1000,4.0035,0,8919,998,meters,jsons/v1_VE1000_randls_39.json,1027758,1461758,25,Man
130,481434,DepthScenes,duration_manipulation_targetAtFixation,jsons/v1_VE1000_randls_39.json,http://54.235.29.9/FacialAge/BNav_EC2/DepthDuration/v2_depth_duration_MTurk/v2_DepthDuration_HTML.html#135,135,1280,657,1280,800,8-22-2022,5-3-1,131,depth_duration_stimuli/002375_2014-06-28_20-13-44_260595134347_rgbf000032-resize_1/002375_2014-06-28_20-13-44_260595134347_rgbf000032-resize_1-target.png,1000,4.0175,0,9060,999,meters,jsons/v1_VE1000_randls_39.json,1027758,1461758,25,Man
131,481434,DepthScenes,duration_manipulation_targetAtFixation,jsons/v1_VE1000_randls_39.json,http://54.235.29.9/FacialAge/BNav_EC2/DepthDuration/v2_depth_duration_MTurk/v2_DepthDuration_HTML.html#135,135,1280,657,1280,800,8-22-2022,5-3-1,132,depth_duration_stimuli/002657_2014-06-13_15-29-54_094959634447_rgbf000150-resize_1/002657_2014-06-13_15-29-54_094959634447_rgbf000150-resize_1-target.png,1000,4.919,0,4437,1180,meters,jsons/v1_VE1000_randls_39.json,1027758,1461758,25,Man
132,481434,DepthScenes,duration_manipulation_targetAtFixation,jsons/v1_VE1000_randls_39.json,http://54.235.29.9/FacialAge/BNav_EC2/DepthDuration/v2_depth_duration_MTurk/v2_DepthDuration_HTML.html#135,135,1280,657,1280,800,8-22-2022,5-3-1,133,depth_duration_stimuli/002213_2014-06-28_18-37-58_260595134347_rgbf000055-resize_1/002213_2014-06-28_18-37-58_260595134347_rgbf000055-resize_1-target.png,1000,3.62,0,62566,1004,meters,jsons/v1_VE1000_randls_39.json,1027758,1461758,25,Man
133,481434,DepthScenes,duration_manipulation_targetAtFixation,jsons/v1_VE1000_randls_39.json,http://54.235.29.9/FacialAge/BNav_EC2/DepthDuration/v2_depth_duration_MTurk/v2_DepthDuration_HTML.html#135,135,1280,657,1280,800,8-22-2022,5-3-1,134,depth_duration_stimuli/000691_2014-06-08_13-08-50_260595134347_rgbf000132-resize_3/000691_2014-06-08_13-08-50_260595134347_rgbf000132-resize_3-target.png,1000,4.1530000000000005,0,7072,999,meters,jsons/v1_VE1000_randls_39.json,1027758,1461758,25,Man
134,481434,DepthScenes,duration_manipulation_targetAtFixation,jsons/v1_VE1000_randls_39.json,http://54.235.29.9/FacialAge/BNav_EC2/DepthDuration/v2_depth_duration_MTurk/v2_DepthDuration_HTML.html#135,135,1280,657,1280,800,8-22-2022,5-3-1,135,depth_duration_stimuli/002072_2014-06-24_21-48-06_260595134347_rgbf000115-resize_0/002072_2014-06-24_21-48-06_260595134347_rgbf000115-resize-original.jpg,1000,4.702,0,3763,999,meters,jsons/v1_VE1000_randls_39.json,1027758,1461758,25,Man
135,481434,DepthScenes,duration_manipulation_targetAtFixation,jsons/v1_VE1000_randls_39.json,http://54.235.29.9/FacialAge/BNav_EC2/DepthDuration/v2_depth_duration_MTurk/v2_DepthDuration_HTML.html#135,135,1280,657,1280,800,8-22-2022,5-3-1,136,depth_duration_stimuli/002964_2014-06-08_17-46-11_094959634447_rgbf000091-resize_4/002964_2014-06-08_17-46-11_094959634447_rgbf000091-resize_4-target.png,1000,1.6909999999999998,1,7411,1000,meters,jsons/v1_VE1000_randls_39.json,1027758,1461758,25,Man
136,481434,DepthScenes,duration_manipulation_targetAtFixation,jsons/v1_VE1000_randls_39.json,http://54.235.29.9/FacialAge/BNav_EC2/DepthDuration/v2_depth_duration_MTurk/v2_DepthDuration_HTML.html#135,135,1280,657,1280,800,8-22-2022,5-3-1,137,depth_duration_stimuli/002136_2014-06-25_21-18-03_260595134347_rgbf000109-resize_3/002136_2014-06-25_21-18-03_260595134347_rgbf000109-resize_3-target.png,1000,1.9569999999999999,9,6840,998,meters,jsons/v1_VE1000_randls_39.json,1027758,1461758,25,Man
137,481434,DepthScenes,duration_manipulation_targetAtFixation,jsons/v1_VE1000_randls_39.json,http://54.235.29.9/FacialAge/BNav_EC2/DepthDuration/v2_depth_duration_MTurk/v2_DepthDuration_HTML.html#135,135,1280,657,1280,800,8-22-2022,5-3-1,138,depth_duration_stimuli/002118_2014-06-25_20-32-08_260595134347_rgbf000078-resize_1/002118_2014-06-25_20-32-08_260595134347_rgbf000078-resize_1-target.png,1000,2.6460000000000004,9,3603,1501,meters,jsons/v1_VE1000_randls_39.json,1027758,1461758,25,Man
138,481434,DepthScenes,duration_manipulation_targetAtFixation,jsons/v1_VE1000_randls_39.json,http://54.235.29.9/FacialAge/BNav_EC2/DepthDuration/v2_depth_duration_MTurk/v2_DepthDuration_HTML.html#135,135,1280,657,1280,800,8-22-2022,5-3-1,139,depth_duration_stimuli/001516_2014-06-20_16-25-09_260595134347_rgbf000076-resize_2/001516_2014-06-20_16-25-09_260595134347_rgbf000076-resize_2-target.png,1000,1.7445,0,4496,979,meters,jsons/v1_VE1000_randls_39.json,1027758,1461758,25,Man
139,481434,DepthScenes,duration_manipulation_targetAtFixation,jsons/v1_VE1000_randls_39.json,http://54.235.29.9/FacialAge/BNav_EC2/DepthDuration/v2_depth_duration_MTurk/v2_DepthDuration_HTML.html#135,135,1280,657,1280,800,8-22-2022,5-3-1,140,depth_duration_stimuli/003534_2014-05-22_15-06-10_094959634447_rgbf000102-resize_4/003534_2014-05-22_15-06-10_094959634447_rgbf000102-resize_4-target.png,1000,1.426,0,5037,1000,meters,jsons/v1_VE1000_randls_39.json,1027758,1461758,25,Man
140,481434,DepthScenes,duration_manipulation_targetAtFixation,jsons/v1_VE1000_randls_39.json,http://54.235.29.9/FacialAge/BNav_EC2/DepthDuration/v2_depth_duration_MTurk/v2_DepthDuration_HTML.html#135,135,1280,657,1280,800,8-22-2022,5-3-1,141,depth_duration_stimuli/002637_2014-06-24_14-51-13_094959634447_rgbf000066-resize_4/002637_2014-06-24_14-51-13_094959634447_rgbf000066-resize_4-target.png,1000,1.9955,1,3815,990,meters,jsons/v1_VE1000_randls_39.json,1027758,1461758,25,Man
141,481434,DepthScenes,duration_manipulation_targetAtFixation,jsons/v1_VE1000_randls_39.json,http://54.235.29.9/FacialAge/BNav_EC2/DepthDuration/v2_depth_duration_MTurk/v2_DepthDuration_HTML.html#135,135,1280,657,1280,800,8-22-2022,5-3-1,142,depth_duration_stimuli/000506_2014-06-08_23-21-00_260595134347_rgbf000070-resize_7/000506_2014-06-08_23-21-00_260595134347_rgbf000070-resize_7-target.png,1000,4.0585,0,5607,1000,meters,jsons/v1_VE1000_randls_39.json,1027758,1461758,25,Man
142,481434,DepthScenes,duration_manipulation_targetAtFixation,jsons/v1_VE1000_randls_39.json,http://54.235.29.9/FacialAge/BNav_EC2/DepthDuration/v2_depth_duration_MTurk/v2_DepthDuration_HTML.html#135,135,1280,657,1280,800,8-22-2022,5-3-1,143,depth_duration_stimuli/003079_2014-06-15_15-18-20_094959634447_rgbf000152-resize_8/003079_2014-06-15_15-18-20_094959634447_rgbf000152-resize_8-target.png,1000,2.8775,0,4098,806,meters,jsons/v1_VE1000_randls_39.json,1027758,1461758,25,Man
143,481434,DepthScenes,duration_manipulation_targetAtFixation,jsons/v1_VE1000_randls_39.json,http://54.235.29.9/FacialAge/BNav_EC2/DepthDuration/v2_depth_duration_MTurk/v2_DepthDuration_HTML.html#135,135,1280,657,1280,800,8-22-2022,5-3-1,144,depth_duration_stimuli/002630_2014-06-24_14-47-50_094959634447_rgbf000055-resize_1/002630_2014-06-24_14-47-50_094959634447_rgbf000055-resize_1-target.png,1000,3.0095,0,3705,996,meters,jsons/v1_VE1000_randls_39.json,1027758,1461758,25,Man
144,481434,DepthScenes,duration_manipulation_targetAtFixation,jsons/v1_VE1000_randls_39.json,http://54.235.29.9/FacialAge/BNav_EC2/DepthDuration/v2_depth_duration_MTurk/v2_DepthDuration_HTML.html#135,135,1280,657,1280,800,8-22-2022,5-3-1,145,depth_duration_stimuli/002758_2014-06-22_19-11-20_094959634447_rgbf000128-resize_1/002758_2014-06-22_19-11-20_094959634447_rgbf000128-resize_1-target.png,1000,2.555,0,3824,997,meters,jsons/v1_VE1000_randls_39.json,1027758,1461758,25,Man
145,481434,DepthScenes,duration_manipulation_targetAtFixation,jsons/v1_VE1000_randls_39.json,http://54.235.29.9/FacialAge/BNav_EC2/DepthDuration/v2_depth_duration_MTurk/v2_DepthDuration_HTML.html#135,135,1280,657,1280,800,8-22-2022,5-3-1,146,depth_duration_stimuli/001498_2014-06-19_17-45-14_260595134347_rgbf000129-resize_4/001498_2014-06-19_17-45-14_260595134347_rgbf000129-resize-original.jpg,1000,1.4075,0,3694,1005,meters,jsons/v1_VE1000_randls_39.json,1027758,1461758,25,Man
146,481434,DepthScenes,duration_manipulation_targetAtFixation,jsons/v1_VE1000_randls_39.json,http://54.235.29.9/FacialAge/BNav_EC2/DepthDuration/v2_depth_duration_MTurk/v2_DepthDuration_HTML.html#135,135,1280,657,1280,800,8-22-2022,5-3-1,147,depth_duration_stimuli/000736_2014-06-08_18-24-15_260595134347_rgbf000206-resize_3/000736_2014-06-08_18-24-15_260595134347_rgbf000206-resize_3-target.png,1000,3.515,0,3862,1002,meters,jsons/v1_VE1000_randls_39.json,1027758,1461758,25,Man
147,481434,DepthScenes,duration_manipulation_targetAtFixation,jsons/v1_VE1000_randls_39.json,http://54.235.29.9/FacialAge/BNav_EC2/DepthDuration/v2_depth_duration_MTurk/v2_DepthDuration_HTML.html#135,135,1280,657,1280,800,8-22-2022,5-3-1,148,depth_duration_stimuli/000137_2014-05-20_17-04-49_260595134347_rgbf000120-resize_1/000137_2014-05-20_17-04-49_260595134347_rgbf000120-resize_1-target.png,1000,3.786,0,3770,999,meters,jsons/v1_VE1000_randls_39.json,1027758,1461758,25,Man
148,481434,DepthScenes,duration_manipulation_targetAtFixation,jsons/v1_VE1000_randls_39.json,http://54.235.29.9/FacialAge/BNav_EC2/DepthDuration/v2_depth_duration_MTurk/v2_DepthDuration_HTML.html#135,135,1280,657,1280,800,8-22-2022,5-3-1,149,depth_duration_stimuli/000788_2014-06-08_22-34-36_260595134347_rgbf000131-resize_1/000788_2014-06-08_22-34-36_260595134347_rgbf000131-resize_1-target.png,1000,3.359,0,5103,1096,meters,jsons/v1_VE1000_randls_39.json,1027758,1461758,25,Man
149,481434,DepthScenes,duration_manipulation_targetAtFixation,jsons/v1_VE1000_randls_39.json,http://54.235.29.9/FacialAge/BNav_EC2/DepthDuration/v2_depth_duration_MTurk/v2_DepthDuration_HTML.html#135,135,1280,657,1280,800,8-22-2022,5-3-1,150,depth_duration_stimuli/001235_2014-06-17_16-37-36_260595134347_rgbf000084-resize_4/001235_2014-06-17_16-37-36_260595134347_rgbf000084-resize_4-target.png,1000,3.6605,0,4266,1000,meters,jsons/v1_VE1000_randls_39.json,1027758,1461758,25,Man
150,481434,DepthScenes,duration_manipulation_targetAtFixation,jsons/v1_VE1000_randls_39.json,http://54.235.29.9/FacialAge/BNav_EC2/DepthDuration/v2_depth_duration_MTurk/v2_DepthDuration_HTML.html#135,135,1280,657,1280,800,8-22-2022,5-3-1,151,depth_duration_stimuli/003492_2014-05-21_15-50-55_094959634447_rgbf000828-resize_1/003492_2014-05-21_15-50-55_094959634447_rgbf000828-resize_1-target.png,1000,4.06875,0,4050,999,meters,jsons/v1_VE1000_randls_39.json,1027758,1461758,25,Man
151,481434,DepthScenes,duration_manipulation_targetAtFixation,jsons/v1_VE1000_randls_39.json,http://54.235.29.9/FacialAge/BNav_EC2/DepthDuration/v2_depth_duration_MTurk/v2_DepthDuration_HTML.html#135,135,1280,657,1280,800,8-22-2022,5-3-1,152,depth_duration_stimuli/002568_2014-06-24_13-59-21_094959634447_rgbf000062-resize_4/002568_2014-06-24_13-59-21_094959634447_rgbf000062-resize_4-target.png,1000,3.015,0,4229,918,meters,jsons/v1_VE1000_randls_39.json,1027758,1461758,25,Man
152,481434,DepthScenes,duration_manipulation_targetAtFixation,jsons/v1_VE1000_randls_39.json,http://54.235.29.9/FacialAge/BNav_EC2/DepthDuration/v2_depth_duration_MTurk/v2_DepthDuration_HTML.html#135,135,1280,657,1280,800,8-22-2022,5-3-1,153,depth_duration_stimuli/002989_2014-06-15_12-25-03_094959634447_rgbf000150-resize_3/002989_2014-06-15_12-25-03_094959634447_rgbf000150-resize_3-target.png,1000,4.1975,0,4335,995,meters,jsons/v1_VE1000_randls_39.json,1027758,1461758,25,Man
153,481434,DepthScenes,duration_manipulation_targetAtFixation,jsons/v1_VE1000_randls_39.json,http://54.235.29.9/FacialAge/BNav_EC2/DepthDuration/v2_depth_duration_MTurk/v2_DepthDuration_HTML.html#135,135,1280,657,1280,800,8-22-2022,5-3-1,154,depth_duration_stimuli/000866_2014-06-09_20-45-42_260595134347_rgbf000139-resize_1/000866_2014-06-09_20-45-42_260595134347_rgbf000139-resize_1-target.png,1000,3.2155,0,3496,936,meters,jsons/v1_VE1000_randls_39.json,1027758,1461758,25,Man
154,481434,DepthScenes,duration_manipulation_targetAtFixation,jsons/v1_VE1000_randls_39.json,http://54.235.29.9/FacialAge/BNav_EC2/DepthDuration/v2_depth_duration_MTurk/v2_DepthDuration_HTML.html#135,135,1280,657,1280,800,8-22-2022,5-3-1,155,depth_duration_stimuli/001164_2014-06-17_15-35-46_260595134347_rgbf000085-resize_3/001164_2014-06-17_15-35-46_260595134347_rgbf000085-resize_3-target.png,1000,2.354,0,3723,1000,meters,jsons/v1_VE1000_randls_39.json,1027758,1461758,25,Man
155,481434,DepthScenes,duration_manipulation_targetAtFixation,jsons/v1_VE1000_randls_39.json,http://54.235.29.9/FacialAge/BNav_EC2/DepthDuration/v2_depth_duration_MTurk/v2_DepthDuration_HTML.html#135,135,1280,657,1280,800,8-22-2022,5-3-1,156,depth_duration_stimuli/001136_2014-06-17_15-19-41_260595134347_rgbf000076-resize_3/001136_2014-06-17_15-19-41_260595134347_rgbf000076-resize_3-target.png,1000,1.8655,0,3764,1067,meters,jsons/v1_VE1000_randls_39.json,1027758,1461758,25,Man
156,481434,DepthScenes,duration_manipulation_targetAtFixation,jsons/v1_VE1000_randls_39.json,http://54.235.29.9/FacialAge/BNav_EC2/DepthDuration/v2_depth_duration_MTurk/v2_DepthDuration_HTML.html#135,135,1280,657,1280,800,8-22-2022,5-3-1,157,depth_duration_stimuli/000522_2014-06-08_13-35-06_260595134347_rgbf000244-resize_1/000522_2014-06-08_13-35-06_260595134347_rgbf000244-resize_1-target.png,1000,2.3715,1,4358,1008,meters,jsons/v1_VE1000_randls_39.json,1027758,1461758,25,Man
157,481434,DepthScenes,duration_manipulation_targetAtFixation,jsons/v1_VE1000_randls_39.json,http://54.235.29.9/FacialAge/BNav_EC2/DepthDuration/v2_depth_duration_MTurk/v2_DepthDuration_HTML.html#135,135,1280,657,1280,800,8-22-2022,5-3-1,158,depth_duration_stimuli/002949_2014-06-26_15-57-42_094959634447_rgbf000079-resize_1/002949_2014-06-26_15-57-42_094959634447_rgbf000079-resize_1-target.png,1000,1.8915,0,3614,989,meters,jsons/v1_VE1000_randls_39.json,1027758,1461758,25,Man
158,481434,DepthScenes,duration_manipulation_targetAtFixation,jsons/v1_VE1000_randls_39.json,http://54.235.29.9/FacialAge/BNav_EC2/DepthDuration/v2_depth_duration_MTurk/v2_DepthDuration_HTML.html#135,135,1280,657,1280,800,8-22-2022,5-3-1,159,depth_duration_stimuli/000929_2014-06-09_16-33-19_260595134347_rgbf000139-resize_0/000929_2014-06-09_16-33-19_260595134347_rgbf000139-resize_0-target.png,1000,2.8680000000000003,0,4627,1000,meters,jsons/v1_VE1000_randls_39.json,1027758,1461758,25,Man
159,481434,DepthScenes,duration_manipulation_targetAtFixation,jsons/v1_VE1000_randls_39.json,http://54.235.29.9/FacialAge/BNav_EC2/DepthDuration/v2_depth_duration_MTurk/v2_DepthDuration_HTML.html#135,135,1280,657,1280,800,8-22-2022,5-3-1,160,depth_duration_stimuli/000457_2014-06-08_16-52-43_260595134347_rgbf000199-resize_1/000457_2014-06-08_16-52-43_260595134347_rgbf000199-resize_1-target.png,1000,3.6489999999999996,1,3384,673,meters,jsons/v1_VE1000_randls_39.json,1027758,1461758,25,Man
160,481434,DepthScenes,duration_manipulation_targetAtFixation,jsons/v1_VE1000_randls_39.json,http://54.235.29.9/FacialAge/BNav_EC2/DepthDuration/v2_depth_duration_MTurk/v2_DepthDuration_HTML.html#135,135,1280,657,1280,800,8-22-2022,5-3-1,161,depth_duration_stimuli/002663_2014-06-13_15-50-26_094959634447_rgbf000075-resize_1/002663_2014-06-13_15-50-26_094959634447_rgbf000075-resize_1-target.png,1000,4.7495,1,3883,1000,meters,jsons/v1_VE1000_randls_39.json,1027758,1461758,25,Man
161,481434,DepthScenes,duration_manipulation_targetAtFixation,jsons/v1_VE1000_randls_39.json,http://54.235.29.9/FacialAge/BNav_EC2/DepthDuration/v2_depth_duration_MTurk/v2_DepthDuration_HTML.html#135,135,1280,657,1280,800,8-22-2022,5-3-1,162,depth_duration_stimuli/000409_2014-06-04_19-23-33_260595134347_rgbf000067-resize_0/000409_2014-06-04_19-23-33_260595134347_rgbf000067-resize_0-target.png,1000,3.7335,0,4195,1000,meters,jsons/v1_VE1000_randls_39.json,1027758,1461758,25,Man
162,481434,DepthScenes,duration_manipulation_targetAtFixation,jsons/v1_VE1000_randls_39.json,http://54.235.29.9/FacialAge/BNav_EC2/DepthDuration/v2_depth_duration_MTurk/v2_DepthDuration_HTML.html#135,135,1280,657,1280,800,8-22-2022,5-3-1,163,depth_duration_stimuli/002988_2014-06-15_12-24-20_094959634447_rgbf000150-resize_1/002988_2014-06-15_12-24-20_094959634447_rgbf000150-resize_1-target.png,1000,4.7669999999999995,0,3770,999,meters,jsons/v1_VE1000_randls_39.json,1027758,1461758,25,Man
163,481434,DepthScenes,duration_manipulation_targetAtFixation,jsons/v1_VE1000_randls_39.json,http://54.235.29.9/FacialAge/BNav_EC2/DepthDuration/v2_depth_duration_MTurk/v2_DepthDuration_HTML.html#135,135,1280,657,1280,800,8-22-2022,5-3-1,164,depth_duration_stimuli/001052_2014-06-08_18-24-54_260595134347_rgbf000130-resize_1/001052_2014-06-08_18-24-54_260595134347_rgbf000130-resize_1-target.png,1000,4.1045,0,3699,1151,meters,jsons/v1_VE1000_randls_39.json,1027758,1461758,25,Man
