,subjID,experimentName,versionName,sequenceName,url,selected_row,windowWidth,windowHeight,screenWidth,screenHeight,startDate,startTime,trial,stimulus,duration,actual_depth,depth_estimate,trial_RT,log_sceneDuration,unitSelection,seq_filepath,experimentTime,totalTime,age,gender
0,481815,DepthScenes,duration_manipulation_targetAtFixation,jsons/v1_VE1000_randls_65_rotated.json,http://54.235.29.9/FacialAge/BNav_EC2/DepthDuration/v2_depth_duration_MTurk/v2_DepthDuration_HTML.html#151,151,1366,625,1366,768,8-29-2022,10-36-51,1,depth_duration_stimuli/002568_2014-06-24_13-59-21_094959634447_rgbf000062-resize_4/002568_2014-06-24_13-59-21_094959634447_rgbf000062-resize_4-target.png,1000,3.015,2,27393,993,feet,jsons/v1_VE1000_randls_65_rotated.json,1806539,2034306,50,Woman
1,481815,DepthScenes,duration_manipulation_targetAtFixation,jsons/v1_VE1000_randls_65_rotated.json,http://54.235.29.9/FacialAge/BNav_EC2/DepthDuration/v2_depth_duration_MTurk/v2_DepthDuration_HTML.html#151,151,1366,625,1366,768,8-29-2022,10-36-51,2,depth_duration_stimuli/003492_2014-05-21_15-50-55_094959634447_rgbf000828-resize_1/003492_2014-05-21_15-50-55_094959634447_rgbf000828-resize_1-target.png,1000,4.06875,3,4936,1002,feet,jsons/v1_VE1000_randls_65_rotated.json,1806539,2034306,50,Woman
2,481815,DepthScenes,duration_manipulation_targetAtFixation,jsons/v1_VE1000_randls_65_rotated.json,http://54.235.29.9/FacialAge/BNav_EC2/DepthDuration/v2_depth_duration_MTurk/v2_DepthDuration_HTML.html#151,151,1366,625,1366,768,8-29-2022,10-36-51,3,depth_duration_stimuli/002657_2014-06-13_15-29-54_094959634447_rgbf000150-resize_1/002657_2014-06-13_15-29-54_094959634447_rgbf000150-resize_1-target.png,1000,4.919,1,13771,1054,feet,jsons/v1_VE1000_randls_65_rotated.json,1806539,2034306,50,Woman
3,481815,DepthScenes,duration_manipulation_targetAtFixation,jsons/v1_VE1000_randls_65_rotated.json,http://54.235.29.9/FacialAge/BNav_EC2/DepthDuration/v2_depth_duration_MTurk/v2_DepthDuration_HTML.html#151,151,1366,625,1366,768,8-29-2022,10-36-51,4,depth_duration_stimuli/002375_2014-06-28_20-13-44_260595134347_rgbf000032-resize_1/002375_2014-06-28_20-13-44_260595134347_rgbf000032-resize_1-target.png,1000,4.0175,2,4500,1008,feet,jsons/v1_VE1000_randls_65_rotated.json,1806539,2034306,50,Woman
4,481815,DepthScenes,duration_manipulation_targetAtFixation,jsons/v1_VE1000_randls_65_rotated.json,http://54.235.29.9/FacialAge/BNav_EC2/DepthDuration/v2_depth_duration_MTurk/v2_DepthDuration_HTML.html#151,151,1366,625,1366,768,8-29-2022,10-36-51,5,depth_duration_stimuli/002949_2014-06-26_15-57-42_094959634447_rgbf000079-resize_1/002949_2014-06-26_15-57-42_094959634447_rgbf000079-resize_1-target.png,1000,1.8915,2,12276,1000,feet,jsons/v1_VE1000_randls_65_rotated.json,1806539,2034306,50,Woman
5,481815,DepthScenes,duration_manipulation_targetAtFixation,jsons/v1_VE1000_randls_65_rotated.json,http://54.235.29.9/FacialAge/BNav_EC2/DepthDuration/v2_depth_duration_MTurk/v2_DepthDuration_HTML.html#151,151,1366,625,1366,768,8-29-2022,10-36-51,6,depth_duration_stimuli/000522_2014-06-08_13-35-06_260595134347_rgbf000244-resize_1/000522_2014-06-08_13-35-06_260595134347_rgbf000244-resize_1-target.png,1000,2.3715,3,4371,1044,feet,jsons/v1_VE1000_randls_65_rotated.json,1806539,2034306,50,Woman
6,481815,DepthScenes,duration_manipulation_targetAtFixation,jsons/v1_VE1000_randls_65_rotated.json,http://54.235.29.9/FacialAge/BNav_EC2/DepthDuration/v2_depth_duration_MTurk/v2_DepthDuration_HTML.html#151,151,1366,625,1366,768,8-29-2022,10-36-51,7,depth_duration_stimuli/001650_2014-06-20_12-09-00_260595134347_rgbf000087-resize_3/001650_2014-06-20_12-09-00_260595134347_rgbf000087-resize_3-target.png,1000,1.9505,2,10683,996,feet,jsons/v1_VE1000_randls_65_rotated.json,1806539,2034306,50,Woman
7,481815,DepthScenes,duration_manipulation_targetAtFixation,jsons/v1_VE1000_randls_65_rotated.json,http://54.235.29.9/FacialAge/BNav_EC2/DepthDuration/v2_depth_duration_MTurk/v2_DepthDuration_HTML.html#151,151,1366,625,1366,768,8-29-2022,10-36-51,8,depth_duration_stimuli/000682_2014-06-08_23-14-58_260595134347_rgbf000041-resize_5/000682_2014-06-08_23-14-58_260595134347_rgbf000041-resize_5-target.png,1000,2.7239999999999998,3,4561,998,feet,jsons/v1_VE1000_randls_65_rotated.json,1806539,2034306,50,Woman
8,481815,DepthScenes,duration_manipulation_targetAtFixation,jsons/v1_VE1000_randls_65_rotated.json,http://54.235.29.9/FacialAge/BNav_EC2/DepthDuration/v2_depth_duration_MTurk/v2_DepthDuration_HTML.html#151,151,1366,625,1366,768,8-29-2022,10-36-51,9,depth_duration_stimuli/002344_2014-06-28_20-06-29_260595134347_rgbf000030-resize_1/002344_2014-06-28_20-06-29_260595134347_rgbf000030-resize_1-target.png,1000,1.5795,2,9347,1011,feet,jsons/v1_VE1000_randls_65_rotated.json,1806539,2034306,50,Woman
9,481815,DepthScenes,duration_manipulation_targetAtFixation,jsons/v1_VE1000_randls_65_rotated.json,http://54.235.29.9/FacialAge/BNav_EC2/DepthDuration/v2_depth_duration_MTurk/v2_DepthDuration_HTML.html#151,151,1366,625,1366,768,8-29-2022,10-36-51,10,depth_duration_stimuli/002725_2014-06-22_11-47-51_094959634447_rgbf000070-resize_1/002725_2014-06-22_11-47-51_094959634447_rgbf000070-resize_1-target.png,1000,2.195,2,5099,994,feet,jsons/v1_VE1000_randls_65_rotated.json,1806539,2034306,50,Woman
10,481815,DepthScenes,duration_manipulation_targetAtFixation,jsons/v1_VE1000_randls_65_rotated.json,http://54.235.29.9/FacialAge/BNav_EC2/DepthDuration/v2_depth_duration_MTurk/v2_DepthDuration_HTML.html#151,151,1366,625,1366,768,8-29-2022,10-36-51,11,depth_duration_stimuli/002209_2014-06-28_18-36-10_260595134347_rgbf000051-resize_1/002209_2014-06-28_18-36-10_260595134347_rgbf000051-resize_1-target.png,1000,2.057,2,11271,996,feet,jsons/v1_VE1000_randls_65_rotated.json,1806539,2034306,50,Woman
11,481815,DepthScenes,duration_manipulation_targetAtFixation,jsons/v1_VE1000_randls_65_rotated.json,http://54.235.29.9/FacialAge/BNav_EC2/DepthDuration/v2_depth_duration_MTurk/v2_DepthDuration_HTML.html#151,151,1366,625,1366,768,8-29-2022,10-36-51,12,depth_duration_stimuli/002763_2014-06-22_19-13-10_094959634447_rgbf000075-resize_4/002763_2014-06-22_19-13-10_094959634447_rgbf000075-resize_4-target.png,1000,1.68375,3,6621,1007,feet,jsons/v1_VE1000_randls_65_rotated.json,1806539,2034306,50,Woman
12,481815,DepthScenes,duration_manipulation_targetAtFixation,jsons/v1_VE1000_randls_65_rotated.json,http://54.235.29.9/FacialAge/BNav_EC2/DepthDuration/v2_depth_duration_MTurk/v2_DepthDuration_HTML.html#151,151,1366,625,1366,768,8-29-2022,10-36-51,13,depth_duration_stimuli/001815_2014-06-26_20-52-55_260595134347_rgbf000020-resize_0/001815_2014-06-26_20-52-55_260595134347_rgbf000020-resize_0-target.png,1000,3.3865,2,10936,1011,feet,jsons/v1_VE1000_randls_65_rotated.json,1806539,2034306,50,Woman
13,481815,DepthScenes,duration_manipulation_targetAtFixation,jsons/v1_VE1000_randls_65_rotated.json,http://54.235.29.9/FacialAge/BNav_EC2/DepthDuration/v2_depth_duration_MTurk/v2_DepthDuration_HTML.html#151,151,1366,625,1366,768,8-29-2022,10-36-51,14,depth_duration_stimuli/001808_2014-06-26_20-50-58_260595134347_rgbf000029-resize_1/001808_2014-06-26_20-50-58_260595134347_rgbf000029-resize_1-target.png,1000,4.249,2,4431,993,feet,jsons/v1_VE1000_randls_65_rotated.json,1806539,2034306,50,Woman
14,481815,DepthScenes,duration_manipulation_targetAtFixation,jsons/v1_VE1000_randls_65_rotated.json,http://54.235.29.9/FacialAge/BNav_EC2/DepthDuration/v2_depth_duration_MTurk/v2_DepthDuration_HTML.html#151,151,1366,625,1366,768,8-29-2022,10-36-51,15,depth_duration_stimuli/000109_2014-05-14_23-41-52_260595134347_rgbf000035-resize_9/000109_2014-05-14_23-41-52_260595134347_rgbf000035-resize_9-target.png,1000,1.3545,5,13793,995,feet,jsons/v1_VE1000_randls_65_rotated.json,1806539,2034306,50,Woman
15,481815,DepthScenes,duration_manipulation_targetAtFixation,jsons/v1_VE1000_randls_65_rotated.json,http://54.235.29.9/FacialAge/BNav_EC2/DepthDuration/v2_depth_duration_MTurk/v2_DepthDuration_HTML.html#151,151,1366,625,1366,768,8-29-2022,10-36-51,16,depth_duration_stimuli/000470_2014-06-09_19-42-40_260595134347_rgbf000094-resize_1/000470_2014-06-09_19-42-40_260595134347_rgbf000094-resize_1-target.png,1000,1.831,2,5402,999,feet,jsons/v1_VE1000_randls_65_rotated.json,1806539,2034306,50,Woman
16,481815,DepthScenes,duration_manipulation_targetAtFixation,jsons/v1_VE1000_randls_65_rotated.json,http://54.235.29.9/FacialAge/BNav_EC2/DepthDuration/v2_depth_duration_MTurk/v2_DepthDuration_HTML.html#151,151,1366,625,1366,768,8-29-2022,10-36-51,17,depth_duration_stimuli/000927_2014-06-09_16-32-30_260595134347_rgbf000123-resize_3/000927_2014-06-09_16-32-30_260595134347_rgbf000123-resize_3-target.png,1000,2.6785,2,8772,1002,feet,jsons/v1_VE1000_randls_65_rotated.json,1806539,2034306,50,Woman
17,481815,DepthScenes,duration_manipulation_targetAtFixation,jsons/v1_VE1000_randls_65_rotated.json,http://54.235.29.9/FacialAge/BNav_EC2/DepthDuration/v2_depth_duration_MTurk/v2_DepthDuration_HTML.html#151,151,1366,625,1366,768,8-29-2022,10-36-51,18,depth_duration_stimuli/001110_2014-06-15_17-25-28_260595134347_rgbf000150-resize_1/001110_2014-06-15_17-25-28_260595134347_rgbf000150-resize_1-target.png,1000,1.7115,3,4821,1003,feet,jsons/v1_VE1000_randls_65_rotated.json,1806539,2034306,50,Woman
18,481815,DepthScenes,duration_manipulation_targetAtFixation,jsons/v1_VE1000_randls_65_rotated.json,http://54.235.29.9/FacialAge/BNav_EC2/DepthDuration/v2_depth_duration_MTurk/v2_DepthDuration_HTML.html#151,151,1366,625,1366,768,8-29-2022,10-36-51,19,depth_duration_stimuli/001498_2014-06-19_17-45-14_260595134347_rgbf000129-resize_4/001498_2014-06-19_17-45-14_260595134347_rgbf000129-resize-original.jpg,1000,1.4075,2,9789,997,feet,jsons/v1_VE1000_randls_65_rotated.json,1806539,2034306,50,Woman
19,481815,DepthScenes,duration_manipulation_targetAtFixation,jsons/v1_VE1000_randls_65_rotated.json,http://54.235.29.9/FacialAge/BNav_EC2/DepthDuration/v2_depth_duration_MTurk/v2_DepthDuration_HTML.html#151,151,1366,625,1366,768,8-29-2022,10-36-51,20,depth_duration_stimuli/000483_2014-06-09_20-41-45_260595134347_rgbf000116-resize_4/000483_2014-06-09_20-41-45_260595134347_rgbf000116-resize_4-target.png,1000,1.337,2,10761,1000,feet,jsons/v1_VE1000_randls_65_rotated.json,1806539,2034306,50,Woman
20,481815,DepthScenes,duration_manipulation_targetAtFixation,jsons/v1_VE1000_randls_65_rotated.json,http://54.235.29.9/FacialAge/BNav_EC2/DepthDuration/v2_depth_duration_MTurk/v2_DepthDuration_HTML.html#151,151,1366,625,1366,768,8-29-2022,10-36-51,21,depth_duration_stimuli/000469_2014-06-09_19-42-10_260595134347_rgbf000081-resize_1/000469_2014-06-09_19-42-10_260595134347_rgbf000081-resize_1-target.png,1000,1.652,3,4816,1002,feet,jsons/v1_VE1000_randls_65_rotated.json,1806539,2034306,50,Woman
21,481815,DepthScenes,duration_manipulation_targetAtFixation,jsons/v1_VE1000_randls_65_rotated.json,http://54.235.29.9/FacialAge/BNav_EC2/DepthDuration/v2_depth_duration_MTurk/v2_DepthDuration_HTML.html#151,151,1366,625,1366,768,8-29-2022,10-36-51,22,depth_duration_stimuli/003423_2014-05-21_10-23-26_094959634447_rgbf002665-resize_2/003423_2014-05-21_10-23-26_094959634447_rgbf002665-resize_2-target.png,1000,3.2575,2,9744,1000,feet,jsons/v1_VE1000_randls_65_rotated.json,1806539,2034306,50,Woman
22,481815,DepthScenes,duration_manipulation_targetAtFixation,jsons/v1_VE1000_randls_65_rotated.json,http://54.235.29.9/FacialAge/BNav_EC2/DepthDuration/v2_depth_duration_MTurk/v2_DepthDuration_HTML.html#151,151,1366,625,1366,768,8-29-2022,10-36-51,23,depth_duration_stimuli/002905_2014-06-03_18-04-43_094959634447_rgbf000151-resize_2/002905_2014-06-03_18-04-43_094959634447_rgbf000151-resize_2-target.png,1000,2.0295,3,5636,997,feet,jsons/v1_VE1000_randls_65_rotated.json,1806539,2034306,50,Woman
23,481815,DepthScenes,duration_manipulation_targetAtFixation,jsons/v1_VE1000_randls_65_rotated.json,http://54.235.29.9/FacialAge/BNav_EC2/DepthDuration/v2_depth_duration_MTurk/v2_DepthDuration_HTML.html#151,151,1366,625,1366,768,8-29-2022,10-36-51,24,depth_duration_stimuli/000780_2014-06-08_22-28-29_260595134347_rgbf000126-resize_1/000780_2014-06-08_22-28-29_260595134347_rgbf000126-resize_1-target.png,1000,3.3825,2,14463,997,feet,jsons/v1_VE1000_randls_65_rotated.json,1806539,2034306,50,Woman
24,481815,DepthScenes,duration_manipulation_targetAtFixation,jsons/v1_VE1000_randls_65_rotated.json,http://54.235.29.9/FacialAge/BNav_EC2/DepthDuration/v2_depth_duration_MTurk/v2_DepthDuration_HTML.html#151,151,1366,625,1366,768,8-29-2022,10-36-51,25,depth_duration_stimuli/002445_2014-06-28_20-32-16_260595134347_rgbf000029-resize_4/002445_2014-06-28_20-32-16_260595134347_rgbf000029-resize_4-target.png,1000,2.5315,3,8891,962,feet,jsons/v1_VE1000_randls_65_rotated.json,1806539,2034306,50,Woman
25,481815,DepthScenes,duration_manipulation_targetAtFixation,jsons/v1_VE1000_randls_65_rotated.json,http://54.235.29.9/FacialAge/BNav_EC2/DepthDuration/v2_depth_duration_MTurk/v2_DepthDuration_HTML.html#151,151,1366,625,1366,768,8-29-2022,10-36-51,26,depth_duration_stimuli/001235_2014-06-17_16-37-36_260595134347_rgbf000084-resize_4/001235_2014-06-17_16-37-36_260595134347_rgbf000084-resize_4-target.png,1000,3.6605,3,25419,998,feet,jsons/v1_VE1000_randls_65_rotated.json,1806539,2034306,50,Woman
26,481815,DepthScenes,duration_manipulation_targetAtFixation,jsons/v1_VE1000_randls_65_rotated.json,http://54.235.29.9/FacialAge/BNav_EC2/DepthDuration/v2_depth_duration_MTurk/v2_DepthDuration_HTML.html#151,151,1366,625,1366,768,8-29-2022,10-36-51,27,depth_duration_stimuli/000788_2014-06-08_22-34-36_260595134347_rgbf000131-resize_1/000788_2014-06-08_22-34-36_260595134347_rgbf000131-resize_1-target.png,1000,3.359,2,6833,999,feet,jsons/v1_VE1000_randls_65_rotated.json,1806539,2034306,50,Woman
27,481815,DepthScenes,duration_manipulation_targetAtFixation,jsons/v1_VE1000_randls_65_rotated.json,http://54.235.29.9/FacialAge/BNav_EC2/DepthDuration/v2_depth_duration_MTurk/v2_DepthDuration_HTML.html#151,151,1366,625,1366,768,8-29-2022,10-36-51,28,depth_duration_stimuli/000866_2014-06-09_20-45-42_260595134347_rgbf000139-resize_1/000866_2014-06-09_20-45-42_260595134347_rgbf000139-resize_1-target.png,1000,3.2155,2,8974,1001,feet,jsons/v1_VE1000_randls_65_rotated.json,1806539,2034306,50,Woman
28,481815,DepthScenes,duration_manipulation_targetAtFixation,jsons/v1_VE1000_randls_65_rotated.json,http://54.235.29.9/FacialAge/BNav_EC2/DepthDuration/v2_depth_duration_MTurk/v2_DepthDuration_HTML.html#151,151,1366,625,1366,768,8-29-2022,10-36-51,29,depth_duration_stimuli/002989_2014-06-15_12-25-03_094959634447_rgbf000150-resize_3/002989_2014-06-15_12-25-03_094959634447_rgbf000150-resize_3-target.png,1000,4.1975,2,4538,999,feet,jsons/v1_VE1000_randls_65_rotated.json,1806539,2034306,50,Woman
29,481815,DepthScenes,duration_manipulation_targetAtFixation,jsons/v1_VE1000_randls_65_rotated.json,http://54.235.29.9/FacialAge/BNav_EC2/DepthDuration/v2_depth_duration_MTurk/v2_DepthDuration_HTML.html#151,151,1366,625,1366,768,8-29-2022,10-36-51,30,depth_duration_stimuli/002072_2014-06-24_21-48-06_260595134347_rgbf000115-resize_0/002072_2014-06-24_21-48-06_260595134347_rgbf000115-resize-original.jpg,1000,4.702,0,8553,997,feet,jsons/v1_VE1000_randls_65_rotated.json,1806539,2034306,50,Woman
30,481815,DepthScenes,duration_manipulation_targetAtFixation,jsons/v1_VE1000_randls_65_rotated.json,http://54.235.29.9/FacialAge/BNav_EC2/DepthDuration/v2_depth_duration_MTurk/v2_DepthDuration_HTML.html#151,151,1366,625,1366,768,8-29-2022,10-36-51,31,depth_duration_stimuli/002750_2014-06-22_19-08-03_094959634447_rgbf000094-resize_4/002750_2014-06-22_19-08-03_094959634447_rgbf000094-resize_4-target.png,1000,2.354,2,10155,1001,feet,jsons/v1_VE1000_randls_65_rotated.json,1806539,2034306,50,Woman
31,481815,DepthScenes,duration_manipulation_targetAtFixation,jsons/v1_VE1000_randls_65_rotated.json,http://54.235.29.9/FacialAge/BNav_EC2/DepthDuration/v2_depth_duration_MTurk/v2_DepthDuration_HTML.html#151,151,1366,625,1366,768,8-29-2022,10-36-51,32,depth_duration_stimuli/002549_2014-06-24_13-41-39_094959634447_rgbf000022-resize_3/002549_2014-06-24_13-41-39_094959634447_rgbf000022-resize_3-target.png,1000,1.476,3,4462,999,feet,jsons/v1_VE1000_randls_65_rotated.json,1806539,2034306,50,Woman
32,481815,DepthScenes,duration_manipulation_targetAtFixation,jsons/v1_VE1000_randls_65_rotated.json,http://54.235.29.9/FacialAge/BNav_EC2/DepthDuration/v2_depth_duration_MTurk/v2_DepthDuration_HTML.html#151,151,1366,625,1366,768,8-29-2022,10-36-51,33,depth_duration_stimuli/003083_2014-06-15_15-21-03_094959634447_rgbf000063-resize_1/003083_2014-06-15_15-21-03_094959634447_rgbf000063-resize_1-target.png,1000,4.1405,2,9716,1004,feet,jsons/v1_VE1000_randls_65_rotated.json,1806539,2034306,50,Woman
33,481815,DepthScenes,duration_manipulation_targetAtFixation,jsons/v1_VE1000_randls_65_rotated.json,http://54.235.29.9/FacialAge/BNav_EC2/DepthDuration/v2_depth_duration_MTurk/v2_DepthDuration_HTML.html#151,151,1366,625,1366,768,8-29-2022,10-36-51,34,depth_duration_stimuli/000486_2014-06-09_20-47-20_260595134347_rgbf000143-resize_2/000486_2014-06-09_20-47-20_260595134347_rgbf000143-resize_2-target.png,1000,4.8325,2,4331,990,feet,jsons/v1_VE1000_randls_65_rotated.json,1806539,2034306,50,Woman
34,481815,DepthScenes,duration_manipulation_targetAtFixation,jsons/v1_VE1000_randls_65_rotated.json,http://54.235.29.9/FacialAge/BNav_EC2/DepthDuration/v2_depth_duration_MTurk/v2_DepthDuration_HTML.html#151,151,1366,625,1366,768,8-29-2022,10-36-51,35,depth_duration_stimuli/002444_2014-06-28_20-32-08_260595134347_rgbf000027-resize_0/002444_2014-06-28_20-32-08_260595134347_rgbf000027-resize_0-target.png,1000,4.388999999999999,4,8558,997,feet,jsons/v1_VE1000_randls_65_rotated.json,1806539,2034306,50,Woman
35,481815,DepthScenes,duration_manipulation_targetAtFixation,jsons/v1_VE1000_randls_65_rotated.json,http://54.235.29.9/FacialAge/BNav_EC2/DepthDuration/v2_depth_duration_MTurk/v2_DepthDuration_HTML.html#151,151,1366,625,1366,768,8-29-2022,10-36-51,36,depth_duration_stimuli/000436_2014-06-09_22-25-11_260595134347_rgbf000137-resize_1/000436_2014-06-09_22-25-11_260595134347_rgbf000137-resize_1-target.png,1000,4.0705,3,6799,1000,feet,jsons/v1_VE1000_randls_65_rotated.json,1806539,2034306,50,Woman
36,481815,DepthScenes,duration_manipulation_targetAtFixation,jsons/v1_VE1000_randls_65_rotated.json,http://54.235.29.9/FacialAge/BNav_EC2/DepthDuration/v2_depth_duration_MTurk/v2_DepthDuration_HTML.html#151,151,1366,625,1366,768,8-29-2022,10-36-51,37,depth_duration_stimuli/001094_2014-06-15_17-36-00_260595134347_rgbf000205-resize_0/001094_2014-06-15_17-36-00_260595134347_rgbf000205-resize_0-target.png,1000,4.2175,5,9989,1001,feet,jsons/v1_VE1000_randls_65_rotated.json,1806539,2034306,50,Woman
37,481815,DepthScenes,duration_manipulation_targetAtFixation,jsons/v1_VE1000_randls_65_rotated.json,http://54.235.29.9/FacialAge/BNav_EC2/DepthDuration/v2_depth_duration_MTurk/v2_DepthDuration_HTML.html#151,151,1366,625,1366,768,8-29-2022,10-36-51,38,depth_duration_stimuli/000692_2014-06-08_13-09-42_260595134347_rgbf000199-resize_2/000692_2014-06-08_13-09-42_260595134347_rgbf000199-resize_2-target.png,1000,3.661,2,21909,1000,feet,jsons/v1_VE1000_randls_65_rotated.json,1806539,2034306,50,Woman
38,481815,DepthScenes,duration_manipulation_targetAtFixation,jsons/v1_VE1000_randls_65_rotated.json,http://54.235.29.9/FacialAge/BNav_EC2/DepthDuration/v2_depth_duration_MTurk/v2_DepthDuration_HTML.html#151,151,1366,625,1366,768,8-29-2022,10-36-51,39,depth_duration_stimuli/000734_2014-06-08_17-39-11_260595134347_rgbf000128-resize_2/000734_2014-06-08_17-39-11_260595134347_rgbf000128-resize_2-target.png,1000,4.098,4,15489,1003,feet,jsons/v1_VE1000_randls_65_rotated.json,1806539,2034306,50,Woman
39,481815,DepthScenes,duration_manipulation_targetAtFixation,jsons/v1_VE1000_randls_65_rotated.json,http://54.235.29.9/FacialAge/BNav_EC2/DepthDuration/v2_depth_duration_MTurk/v2_DepthDuration_HTML.html#151,151,1366,625,1366,768,8-29-2022,10-36-51,40,depth_duration_stimuli/000739_2014-06-08_18-45-58_260595134347_rgbf000068-resize_1/000739_2014-06-08_18-45-58_260595134347_rgbf000068-resize_1-target.png,1000,3.534,3,28300,999,feet,jsons/v1_VE1000_randls_65_rotated.json,1806539,2034306,50,Woman
40,481815,DepthScenes,duration_manipulation_targetAtFixation,jsons/v1_VE1000_randls_65_rotated.json,http://54.235.29.9/FacialAge/BNav_EC2/DepthDuration/v2_depth_duration_MTurk/v2_DepthDuration_HTML.html#151,151,1366,625,1366,768,8-29-2022,10-36-51,41,depth_duration_stimuli/001516_2014-06-20_16-25-09_260595134347_rgbf000076-resize_2/001516_2014-06-20_16-25-09_260595134347_rgbf000076-resize_2-target.png,1000,1.7445,2,6787,998,feet,jsons/v1_VE1000_randls_65_rotated.json,1806539,2034306,50,Woman
41,481815,DepthScenes,duration_manipulation_targetAtFixation,jsons/v1_VE1000_randls_65_rotated.json,http://54.235.29.9/FacialAge/BNav_EC2/DepthDuration/v2_depth_duration_MTurk/v2_DepthDuration_HTML.html#151,151,1366,625,1366,768,8-29-2022,10-36-51,42,depth_duration_stimuli/002118_2014-06-25_20-32-08_260595134347_rgbf000078-resize_1/002118_2014-06-25_20-32-08_260595134347_rgbf000078-resize_1-target.png,1000,2.6460000000000004,2,20239,901,feet,jsons/v1_VE1000_randls_65_rotated.json,1806539,2034306,50,Woman
42,481815,DepthScenes,duration_manipulation_targetAtFixation,jsons/v1_VE1000_randls_65_rotated.json,http://54.235.29.9/FacialAge/BNav_EC2/DepthDuration/v2_depth_duration_MTurk/v2_DepthDuration_HTML.html#151,151,1366,625,1366,768,8-29-2022,10-36-51,43,depth_duration_stimuli/002758_2014-06-22_19-11-20_094959634447_rgbf000128-resize_1/002758_2014-06-22_19-11-20_094959634447_rgbf000128-resize_1-target.png,1000,2.555,2,65797,1004,feet,jsons/v1_VE1000_randls_65_rotated.json,1806539,2034306,50,Woman
43,481815,DepthScenes,duration_manipulation_targetAtFixation,jsons/v1_VE1000_randls_65_rotated.json,http://54.235.29.9/FacialAge/BNav_EC2/DepthDuration/v2_depth_duration_MTurk/v2_DepthDuration_HTML.html#151,151,1366,625,1366,768,8-29-2022,10-36-51,44,depth_duration_stimuli/002630_2014-06-24_14-47-50_094959634447_rgbf000055-resize_1/002630_2014-06-24_14-47-50_094959634447_rgbf000055-resize_1-target.png,1000,3.0095,2,10911,999,feet,jsons/v1_VE1000_randls_65_rotated.json,1806539,2034306,50,Woman
44,481815,DepthScenes,duration_manipulation_targetAtFixation,jsons/v1_VE1000_randls_65_rotated.json,http://54.235.29.9/FacialAge/BNav_EC2/DepthDuration/v2_depth_duration_MTurk/v2_DepthDuration_HTML.html#151,151,1366,625,1366,768,8-29-2022,10-36-51,45,depth_duration_stimuli/002637_2014-06-24_14-51-13_094959634447_rgbf000066-resize_4/002637_2014-06-24_14-51-13_094959634447_rgbf000066-resize_4-target.png,1000,1.9955,2,144929,1002,feet,jsons/v1_VE1000_randls_65_rotated.json,1806539,2034306,50,Woman
45,481815,DepthScenes,duration_manipulation_targetAtFixation,jsons/v1_VE1000_randls_65_rotated.json,http://54.235.29.9/FacialAge/BNav_EC2/DepthDuration/v2_depth_duration_MTurk/v2_DepthDuration_HTML.html#151,151,1366,625,1366,768,8-29-2022,10-36-51,46,depth_duration_stimuli/003534_2014-05-22_15-06-10_094959634447_rgbf000102-resize_4/003534_2014-05-22_15-06-10_094959634447_rgbf000102-resize_4-target.png,1000,1.426,2,39149,998,feet,jsons/v1_VE1000_randls_65_rotated.json,1806539,2034306,50,Woman
46,481815,DepthScenes,duration_manipulation_targetAtFixation,jsons/v1_VE1000_randls_65_rotated.json,http://54.235.29.9/FacialAge/BNav_EC2/DepthDuration/v2_depth_duration_MTurk/v2_DepthDuration_HTML.html#151,151,1366,625,1366,768,8-29-2022,10-36-51,47,depth_duration_stimuli/002414_2014-06-28_20-24-58_260595134347_rgbf000067-resize_4/002414_2014-06-28_20-24-58_260595134347_rgbf000067-resize_4-target.png,1000,4.363,2,12052,994,feet,jsons/v1_VE1000_randls_65_rotated.json,1806539,2034306,50,Woman
47,481815,DepthScenes,duration_manipulation_targetAtFixation,jsons/v1_VE1000_randls_65_rotated.json,http://54.235.29.9/FacialAge/BNav_EC2/DepthDuration/v2_depth_duration_MTurk/v2_DepthDuration_HTML.html#151,151,1366,625,1366,768,8-29-2022,10-36-51,48,depth_duration_stimuli/000773_2014-06-08_22-24-54_260595134347_rgbf000093-resize_1/000773_2014-06-08_22-24-54_260595134347_rgbf000093-resize_1-target.png,1000,4.973,3,4671,992,feet,jsons/v1_VE1000_randls_65_rotated.json,1806539,2034306,50,Woman
48,481815,DepthScenes,duration_manipulation_targetAtFixation,jsons/v1_VE1000_randls_65_rotated.json,http://54.235.29.9/FacialAge/BNav_EC2/DepthDuration/v2_depth_duration_MTurk/v2_DepthDuration_HTML.html#151,151,1366,625,1366,768,8-29-2022,10-36-51,49,depth_duration_stimuli/001170_2014-06-17_15-43-44_260595134347_rgbf000096-resize_6/001170_2014-06-17_15-43-44_260595134347_rgbf000096-resize-original.jpg,1000,1.1909999999999998,3,9145,1118,feet,jsons/v1_VE1000_randls_65_rotated.json,1806539,2034306,50,Woman
49,481815,DepthScenes,duration_manipulation_targetAtFixation,jsons/v1_VE1000_randls_65_rotated.json,http://54.235.29.9/FacialAge/BNav_EC2/DepthDuration/v2_depth_duration_MTurk/v2_DepthDuration_HTML.html#151,151,1366,625,1366,768,8-29-2022,10-36-51,50,depth_duration_stimuli/000556_2014-06-09_22-42-56_260595134347_rgbf000214-resize_1/000556_2014-06-09_22-42-56_260595134347_rgbf000214-resize_1-target.png,1000,4.8415,2,8289,1003,feet,jsons/v1_VE1000_randls_65_rotated.json,1806539,2034306,50,Woman
50,481815,DepthScenes,duration_manipulation_targetAtFixation,jsons/v1_VE1000_randls_65_rotated.json,http://54.235.29.9/FacialAge/BNav_EC2/DepthDuration/v2_depth_duration_MTurk/v2_DepthDuration_HTML.html#151,151,1366,625,1366,768,8-29-2022,10-36-51,51,depth_duration_stimuli/001158_2014-06-17_15-32-16_260595134347_rgbf000138-resize_2/001158_2014-06-17_15-32-16_260595134347_rgbf000138-resize_2-target.png,1000,4.5315,3,5112,1561,feet,jsons/v1_VE1000_randls_65_rotated.json,1806539,2034306,50,Woman
51,481815,DepthScenes,duration_manipulation_targetAtFixation,jsons/v1_VE1000_randls_65_rotated.json,http://54.235.29.9/FacialAge/BNav_EC2/DepthDuration/v2_depth_duration_MTurk/v2_DepthDuration_HTML.html#151,151,1366,625,1366,768,8-29-2022,10-36-51,52,depth_duration_stimuli/001052_2014-06-08_18-24-54_260595134347_rgbf000130-resize_1/001052_2014-06-08_18-24-54_260595134347_rgbf000130-resize_1-target.png,1000,4.1045,2,13287,1128,feet,jsons/v1_VE1000_randls_65_rotated.json,1806539,2034306,50,Woman
52,481815,DepthScenes,duration_manipulation_targetAtFixation,jsons/v1_VE1000_randls_65_rotated.json,http://54.235.29.9/FacialAge/BNav_EC2/DepthDuration/v2_depth_duration_MTurk/v2_DepthDuration_HTML.html#151,151,1366,625,1366,768,8-29-2022,10-36-51,53,depth_duration_stimuli/002988_2014-06-15_12-24-20_094959634447_rgbf000150-resize_1/002988_2014-06-15_12-24-20_094959634447_rgbf000150-resize_1-target.png,1000,4.7669999999999995,3,19631,909,feet,jsons/v1_VE1000_randls_65_rotated.json,1806539,2034306,50,Woman
53,481815,DepthScenes,duration_manipulation_targetAtFixation,jsons/v1_VE1000_randls_65_rotated.json,http://54.235.29.9/FacialAge/BNav_EC2/DepthDuration/v2_depth_duration_MTurk/v2_DepthDuration_HTML.html#151,151,1366,625,1366,768,8-29-2022,10-36-51,54,depth_duration_stimuli/001447_2014-06-19_17-00-32_260595134347_rgbf000082-resize_5/001447_2014-06-19_17-00-32_260595134347_rgbf000082-resize_5-target.png,1000,4.13775,2,30099,996,feet,jsons/v1_VE1000_randls_65_rotated.json,1806539,2034306,50,Woman
54,481815,DepthScenes,duration_manipulation_targetAtFixation,jsons/v1_VE1000_randls_65_rotated.json,http://54.235.29.9/FacialAge/BNav_EC2/DepthDuration/v2_depth_duration_MTurk/v2_DepthDuration_HTML.html#151,151,1366,625,1366,768,8-29-2022,10-36-51,55,depth_duration_stimuli/000447_2014-06-08_16-15-46_260595134347_rgbf000130-resize_1/000447_2014-06-08_16-15-46_260595134347_rgbf000130-resize_1-target.png,1000,4.479,3,8743,999,feet,jsons/v1_VE1000_randls_65_rotated.json,1806539,2034306,50,Woman
55,481815,DepthScenes,duration_manipulation_targetAtFixation,jsons/v1_VE1000_randls_65_rotated.json,http://54.235.29.9/FacialAge/BNav_EC2/DepthDuration/v2_depth_duration_MTurk/v2_DepthDuration_HTML.html#151,151,1366,625,1366,768,8-29-2022,10-36-51,56,depth_duration_stimuli/001584_2014-06-20_11-07-43_260595134347_rgbf000002-resize_1/001584_2014-06-20_11-07-43_260595134347_rgbf000002-resize_1-target.png,1000,3.53,5,30449,999,feet,jsons/v1_VE1000_randls_65_rotated.json,1806539,2034306,50,Woman
56,481815,DepthScenes,duration_manipulation_targetAtFixation,jsons/v1_VE1000_randls_65_rotated.json,http://54.235.29.9/FacialAge/BNav_EC2/DepthDuration/v2_depth_duration_MTurk/v2_DepthDuration_HTML.html#151,151,1366,625,1366,768,8-29-2022,10-36-51,57,depth_duration_stimuli/003621_2014-05-23_18-06-08_094959634447_rgbf000101-resize_1/003621_2014-05-23_18-06-08_094959634447_rgbf000101-resize_1-target.png,1000,3.9835,2,14900,1554,feet,jsons/v1_VE1000_randls_65_rotated.json,1806539,2034306,50,Woman
57,481815,DepthScenes,duration_manipulation_targetAtFixation,jsons/v1_VE1000_randls_65_rotated.json,http://54.235.29.9/FacialAge/BNav_EC2/DepthDuration/v2_depth_duration_MTurk/v2_DepthDuration_HTML.html#151,151,1366,625,1366,768,8-29-2022,10-36-51,58,depth_duration_stimuli/001617_2014-06-20_11-35-32_260595134347_rgbf000066-resize_1/001617_2014-06-20_11-35-32_260595134347_rgbf000066-resize_1-target.png,1000,3.7910000000000004,6,17768,986,feet,jsons/v1_VE1000_randls_65_rotated.json,1806539,2034306,50,Woman
58,481815,DepthScenes,duration_manipulation_targetAtFixation,jsons/v1_VE1000_randls_65_rotated.json,http://54.235.29.9/FacialAge/BNav_EC2/DepthDuration/v2_depth_duration_MTurk/v2_DepthDuration_HTML.html#151,151,1366,625,1366,768,8-29-2022,10-36-51,59,depth_duration_stimuli/001806_2014-06-26_20-50-20_260595134347_rgbf000091-resize_1/001806_2014-06-26_20-50-20_260595134347_rgbf000091-resize_1-target.png,1000,2.7305,3,10050,999,feet,jsons/v1_VE1000_randls_65_rotated.json,1806539,2034306,50,Woman
59,481815,DepthScenes,duration_manipulation_targetAtFixation,jsons/v1_VE1000_randls_65_rotated.json,http://54.235.29.9/FacialAge/BNav_EC2/DepthDuration/v2_depth_duration_MTurk/v2_DepthDuration_HTML.html#151,151,1366,625,1366,768,8-29-2022,10-36-51,60,depth_duration_stimuli/002805_2014-06-22_19-54-03_094959634447_rgbf000079-resize_1/002805_2014-06-22_19-54-03_094959634447_rgbf000079-resize_1-target.png,1000,3.1439999999999997,6,9086,1305,feet,jsons/v1_VE1000_randls_65_rotated.json,1806539,2034306,50,Woman
60,481815,DepthScenes,duration_manipulation_targetAtFixation,jsons/v1_VE1000_randls_65_rotated.json,http://54.235.29.9/FacialAge/BNav_EC2/DepthDuration/v2_depth_duration_MTurk/v2_DepthDuration_HTML.html#151,151,1366,625,1366,768,8-29-2022,10-36-51,61,depth_duration_stimuli/000906_2014-06-08_13-35-43_260595134347_rgbf000155-resize_1/000906_2014-06-08_13-35-43_260595134347_rgbf000155-resize_1-target.png,1000,2.8489999999999998,8,8377,995,feet,jsons/v1_VE1000_randls_65_rotated.json,1806539,2034306,50,Woman
61,481815,DepthScenes,duration_manipulation_targetAtFixation,jsons/v1_VE1000_randls_65_rotated.json,http://54.235.29.9/FacialAge/BNav_EC2/DepthDuration/v2_depth_duration_MTurk/v2_DepthDuration_HTML.html#151,151,1366,625,1366,768,8-29-2022,10-36-51,62,depth_duration_stimuli/001032_2014-06-08_13-23-17_260595134347_rgbf000021-resize_3/001032_2014-06-08_13-23-17_260595134347_rgbf000021-resize_3-target.png,1000,3.2725,3,5981,999,feet,jsons/v1_VE1000_randls_65_rotated.json,1806539,2034306,50,Woman
62,481815,DepthScenes,duration_manipulation_targetAtFixation,jsons/v1_VE1000_randls_65_rotated.json,http://54.235.29.9/FacialAge/BNav_EC2/DepthDuration/v2_depth_duration_MTurk/v2_DepthDuration_HTML.html#151,151,1366,625,1366,768,8-29-2022,10-36-51,63,depth_duration_stimuli/001059_2014-06-08_21-53-27_260595134347_rgbf000061-resize_4/001059_2014-06-08_21-53-27_260595134347_rgbf000061-resize_4-target.png,1000,2.4185,3,4196,998,feet,jsons/v1_VE1000_randls_65_rotated.json,1806539,2034306,50,Woman
63,481815,DepthScenes,duration_manipulation_targetAtFixation,jsons/v1_VE1000_randls_65_rotated.json,http://54.235.29.9/FacialAge/BNav_EC2/DepthDuration/v2_depth_duration_MTurk/v2_DepthDuration_HTML.html#151,151,1366,625,1366,768,8-29-2022,10-36-51,64,depth_duration_stimuli/001214_2014-06-17_16-13-55_260595134347_rgbf000111-resize_0/001214_2014-06-17_16-13-55_260595134347_rgbf000111-resize_0-target.png,1000,2.6505,2,6772,1013,feet,jsons/v1_VE1000_randls_65_rotated.json,1806539,2034306,50,Woman
64,481815,DepthScenes,duration_manipulation_targetAtFixation,jsons/v1_VE1000_randls_65_rotated.json,http://54.235.29.9/FacialAge/BNav_EC2/DepthDuration/v2_depth_duration_MTurk/v2_DepthDuration_HTML.html#151,151,1366,625,1366,768,8-29-2022,10-36-51,65,depth_duration_stimuli/000810_2014-06-08_17-20-01_260595134347_rgbf000105-resize_0/000810_2014-06-08_17-20-01_260595134347_rgbf000105-resize_0-target.png,1000,1.4865,5,4601,1060,feet,jsons/v1_VE1000_randls_65_rotated.json,1806539,2034306,50,Woman
65,481815,DepthScenes,duration_manipulation_targetAtFixation,jsons/v1_VE1000_randls_65_rotated.json,http://54.235.29.9/FacialAge/BNav_EC2/DepthDuration/v2_depth_duration_MTurk/v2_DepthDuration_HTML.html#151,151,1366,625,1366,768,8-29-2022,10-36-51,66,depth_duration_stimuli/001540_2014-06-20_17-01-05_260595134347_rgbf000086-resize_2/001540_2014-06-20_17-01-05_260595134347_rgbf000086-resize-original.jpg,1000,1.459,5,7698,1003,feet,jsons/v1_VE1000_randls_65_rotated.json,1806539,2034306,50,Woman
66,481815,DepthScenes,duration_manipulation_targetAtFixation,jsons/v1_VE1000_randls_65_rotated.json,http://54.235.29.9/FacialAge/BNav_EC2/DepthDuration/v2_depth_duration_MTurk/v2_DepthDuration_HTML.html#151,151,1366,625,1366,768,8-29-2022,10-36-51,67,depth_duration_stimuli/002953_2014-06-08_17-32-18_094959634447_rgbf000059-resize_5/002953_2014-06-08_17-32-18_094959634447_rgbf000059-resize_5-target.png,1000,1.551,4,9882,1002,feet,jsons/v1_VE1000_randls_65_rotated.json,1806539,2034306,50,Woman
67,481815,DepthScenes,duration_manipulation_targetAtFixation,jsons/v1_VE1000_randls_65_rotated.json,http://54.235.29.9/FacialAge/BNav_EC2/DepthDuration/v2_depth_duration_MTurk/v2_DepthDuration_HTML.html#151,151,1366,625,1366,768,8-29-2022,10-36-51,68,depth_duration_stimuli/000878_2014-06-08_22-52-45_260595134347_rgbf000045-resize_2/000878_2014-06-08_22-52-45_260595134347_rgbf000045-resize_2-target.png,1000,2.092,6,6858,992,feet,jsons/v1_VE1000_randls_65_rotated.json,1806539,2034306,50,Woman
68,481815,DepthScenes,duration_manipulation_targetAtFixation,jsons/v1_VE1000_randls_65_rotated.json,http://54.235.29.9/FacialAge/BNav_EC2/DepthDuration/v2_depth_duration_MTurk/v2_DepthDuration_HTML.html#151,151,1366,625,1366,768,8-29-2022,10-36-51,69,depth_duration_stimuli/001132_2014-06-17_14-48-54_260595134347_rgbf000100-resize_2/001132_2014-06-17_14-48-54_260595134347_rgbf000100-resize_2-target.png,1000,3.753,6,7703,1000,feet,jsons/v1_VE1000_randls_65_rotated.json,1806539,2034306,50,Woman
69,481815,DepthScenes,duration_manipulation_targetAtFixation,jsons/v1_VE1000_randls_65_rotated.json,http://54.235.29.9/FacialAge/BNav_EC2/DepthDuration/v2_depth_duration_MTurk/v2_DepthDuration_HTML.html#151,151,1366,625,1366,768,8-29-2022,10-36-51,70,depth_duration_stimuli/001133_2014-06-17_14-49-16_260595134347_rgbf000100-resize_0/001133_2014-06-17_14-49-16_260595134347_rgbf000100-resize_0-target.png,1000,4.2115,2,6310,1000,feet,jsons/v1_VE1000_randls_65_rotated.json,1806539,2034306,50,Woman
70,481815,DepthScenes,duration_manipulation_targetAtFixation,jsons/v1_VE1000_randls_65_rotated.json,http://54.235.29.9/FacialAge/BNav_EC2/DepthDuration/v2_depth_duration_MTurk/v2_DepthDuration_HTML.html#151,151,1366,625,1366,768,8-29-2022,10-36-51,71,depth_duration_stimuli/000854_2014-06-09_19-43-13_260595134347_rgbf000066-resize_0/000854_2014-06-09_19-43-13_260595134347_rgbf000066-resize_0-target.png,1000,3.068,8,10561,1004,feet,jsons/v1_VE1000_randls_65_rotated.json,1806539,2034306,50,Woman
71,481815,DepthScenes,duration_manipulation_targetAtFixation,jsons/v1_VE1000_randls_65_rotated.json,http://54.235.29.9/FacialAge/BNav_EC2/DepthDuration/v2_depth_duration_MTurk/v2_DepthDuration_HTML.html#151,151,1366,625,1366,768,8-29-2022,10-36-51,72,depth_duration_stimuli/000758_2014-06-08_22-05-08_260595134347_rgbf000085-resize_0/000758_2014-06-08_22-05-08_260595134347_rgbf000085-resize_0-target.png,1000,3.3810000000000002,8,5518,1002,feet,jsons/v1_VE1000_randls_65_rotated.json,1806539,2034306,50,Woman
72,481815,DepthScenes,duration_manipulation_targetAtFixation,jsons/v1_VE1000_randls_65_rotated.json,http://54.235.29.9/FacialAge/BNav_EC2/DepthDuration/v2_depth_duration_MTurk/v2_DepthDuration_HTML.html#151,151,1366,625,1366,768,8-29-2022,10-36-51,73,depth_duration_stimuli/000665_2014-06-09_20-42-35_260595134347_rgbf000110-resize_1/000665_2014-06-09_20-42-35_260595134347_rgbf000110-resize_1-target.png,1000,3.057,2,15487,1000,feet,jsons/v1_VE1000_randls_65_rotated.json,1806539,2034306,50,Woman
73,481815,DepthScenes,duration_manipulation_targetAtFixation,jsons/v1_VE1000_randls_65_rotated.json,http://54.235.29.9/FacialAge/BNav_EC2/DepthDuration/v2_depth_duration_MTurk/v2_DepthDuration_HTML.html#151,151,1366,625,1366,768,8-29-2022,10-36-51,74,depth_duration_stimuli/001150_2014-06-17_15-27-34_260595134347_rgbf000108-resize_2/001150_2014-06-17_15-27-34_260595134347_rgbf000108-resize_2-target.png,1000,4.0325,4,5169,999,feet,jsons/v1_VE1000_randls_65_rotated.json,1806539,2034306,50,Woman
74,481815,DepthScenes,duration_manipulation_targetAtFixation,jsons/v1_VE1000_randls_65_rotated.json,http://54.235.29.9/FacialAge/BNav_EC2/DepthDuration/v2_depth_duration_MTurk/v2_DepthDuration_HTML.html#151,151,1366,625,1366,768,8-29-2022,10-36-51,75,depth_duration_stimuli/000677_2014-06-08_23-10-32_260595134347_rgbf000158-resize_6/000677_2014-06-08_23-10-32_260595134347_rgbf000158-resize_6-target.png,1000,3.556,8,11156,1001,feet,jsons/v1_VE1000_randls_65_rotated.json,1806539,2034306,50,Woman
75,481815,DepthScenes,duration_manipulation_targetAtFixation,jsons/v1_VE1000_randls_65_rotated.json,http://54.235.29.9/FacialAge/BNav_EC2/DepthDuration/v2_depth_duration_MTurk/v2_DepthDuration_HTML.html#151,151,1366,625,1366,768,8-29-2022,10-36-51,76,depth_duration_stimuli/001029_2014-06-08_13-17-57_260595134347_rgbf000065-resize_1/001029_2014-06-08_13-17-57_260595134347_rgbf000065-resize_1-target.png,1000,3.0835,6,5684,999,feet,jsons/v1_VE1000_randls_65_rotated.json,1806539,2034306,50,Woman
76,481815,DepthScenes,duration_manipulation_targetAtFixation,jsons/v1_VE1000_randls_65_rotated.json,http://54.235.29.9/FacialAge/BNav_EC2/DepthDuration/v2_depth_duration_MTurk/v2_DepthDuration_HTML.html#151,151,1366,625,1366,768,8-29-2022,10-36-51,77,depth_duration_stimuli/000749_2014-06-08_21-55-06_260595134347_rgbf000070-resize_2/000749_2014-06-08_21-55-06_260595134347_rgbf000070-resize_2-target.png,1000,2.331,8,9917,1000,feet,jsons/v1_VE1000_randls_65_rotated.json,1806539,2034306,50,Woman
77,481815,DepthScenes,duration_manipulation_targetAtFixation,jsons/v1_VE1000_randls_65_rotated.json,http://54.235.29.9/FacialAge/BNav_EC2/DepthDuration/v2_depth_duration_MTurk/v2_DepthDuration_HTML.html#151,151,1366,625,1366,768,8-29-2022,10-36-51,78,depth_duration_stimuli/002788_2014-06-22_19-36-03_094959634447_rgbf000088-resize_2/002788_2014-06-22_19-36-03_094959634447_rgbf000088-resize_2-target.png,1000,1.6465,7,5923,995,feet,jsons/v1_VE1000_randls_65_rotated.json,1806539,2034306,50,Woman
78,481815,DepthScenes,duration_manipulation_targetAtFixation,jsons/v1_VE1000_randls_65_rotated.json,http://54.235.29.9/FacialAge/BNav_EC2/DepthDuration/v2_depth_duration_MTurk/v2_DepthDuration_HTML.html#151,151,1366,625,1366,768,8-29-2022,10-36-51,79,depth_duration_stimuli/000103_2014-05-14_22-01-17_260595134347_rgbf000152-resize_5/000103_2014-05-14_22-01-17_260595134347_rgbf000152-resize_5-target.png,1000,1.993,6,9550,996,feet,jsons/v1_VE1000_randls_65_rotated.json,1806539,2034306,50,Woman
79,481815,DepthScenes,duration_manipulation_targetAtFixation,jsons/v1_VE1000_randls_65_rotated.json,http://54.235.29.9/FacialAge/BNav_EC2/DepthDuration/v2_depth_duration_MTurk/v2_DepthDuration_HTML.html#151,151,1366,625,1366,768,8-29-2022,10-36-51,80,depth_duration_stimuli/001555_2014-06-20_17-12-10_260595134347_rgbf000065-resize_4/001555_2014-06-20_17-12-10_260595134347_rgbf000065-resize_4-target.png,1000,1.633,5,5278,1000,feet,jsons/v1_VE1000_randls_65_rotated.json,1806539,2034306,50,Woman
80,481815,DepthScenes,duration_manipulation_targetAtFixation,jsons/v1_VE1000_randls_65_rotated.json,http://54.235.29.9/FacialAge/BNav_EC2/DepthDuration/v2_depth_duration_MTurk/v2_DepthDuration_HTML.html#151,151,1366,625,1366,768,8-29-2022,10-36-51,81,depth_duration_stimuli/000742_2014-06-08_18-48-09_260595134347_rgbf000164-resize_4/000742_2014-06-08_18-48-09_260595134347_rgbf000164-resize_4-target.png,1000,4.632,3,9400,999,feet,jsons/v1_VE1000_randls_65_rotated.json,1806539,2034306,50,Woman
81,481815,DepthScenes,duration_manipulation_targetAtFixation,jsons/v1_VE1000_randls_65_rotated.json,http://54.235.29.9/FacialAge/BNav_EC2/DepthDuration/v2_depth_duration_MTurk/v2_DepthDuration_HTML.html#151,151,1366,625,1366,768,8-29-2022,10-36-51,82,depth_duration_stimuli/001066_2014-06-08_22-03-20_260595134347_rgbf000066-resize_4/001066_2014-06-08_22-03-20_260595134347_rgbf000066-resize_4-target.png,1000,4.2330000000000005,5,4564,980,feet,jsons/v1_VE1000_randls_65_rotated.json,1806539,2034306,50,Woman
82,481815,DepthScenes,duration_manipulation_targetAtFixation,jsons/v1_VE1000_randls_65_rotated.json,http://54.235.29.9/FacialAge/BNav_EC2/DepthDuration/v2_depth_duration_MTurk/v2_DepthDuration_HTML.html#151,151,1366,625,1366,768,8-29-2022,10-36-51,83,depth_duration_stimuli/000457_2014-06-08_16-52-43_260595134347_rgbf000199-resize_1/000457_2014-06-08_16-52-43_260595134347_rgbf000199-resize_1-target.png,1000,3.6489999999999996,2,9236,997,feet,jsons/v1_VE1000_randls_65_rotated.json,1806539,2034306,50,Woman
83,481815,DepthScenes,duration_manipulation_targetAtFixation,jsons/v1_VE1000_randls_65_rotated.json,http://54.235.29.9/FacialAge/BNav_EC2/DepthDuration/v2_depth_duration_MTurk/v2_DepthDuration_HTML.html#151,151,1366,625,1366,768,8-29-2022,10-36-51,84,depth_duration_stimuli/000929_2014-06-09_16-33-19_260595134347_rgbf000139-resize_0/000929_2014-06-09_16-33-19_260595134347_rgbf000139-resize_0-target.png,1000,2.8680000000000003,2,4768,1002,feet,jsons/v1_VE1000_randls_65_rotated.json,1806539,2034306,50,Woman
84,481815,DepthScenes,duration_manipulation_targetAtFixation,jsons/v1_VE1000_randls_65_rotated.json,http://54.235.29.9/FacialAge/BNav_EC2/DepthDuration/v2_depth_duration_MTurk/v2_DepthDuration_HTML.html#151,151,1366,625,1366,768,8-29-2022,10-36-51,85,depth_duration_stimuli/002340_2014-06-28_20-05-46_260595134347_rgbf000113-resize_0/002340_2014-06-28_20-05-46_260595134347_rgbf000113-resize_0-target.png,1000,2.4735,4,9184,999,feet,jsons/v1_VE1000_randls_65_rotated.json,1806539,2034306,50,Woman
85,481815,DepthScenes,duration_manipulation_targetAtFixation,jsons/v1_VE1000_randls_65_rotated.json,http://54.235.29.9/FacialAge/BNav_EC2/DepthDuration/v2_depth_duration_MTurk/v2_DepthDuration_HTML.html#151,151,1366,625,1366,768,8-29-2022,10-36-51,86,depth_duration_stimuli/001016_2014-06-09_16-16-10_260595134347_rgbf000112-resize_5/001016_2014-06-09_16-16-10_260595134347_rgbf000112-resize_5-target.png,1000,1.6565,3,4424,1000,feet,jsons/v1_VE1000_randls_65_rotated.json,1806539,2034306,50,Woman
86,481815,DepthScenes,duration_manipulation_targetAtFixation,jsons/v1_VE1000_randls_65_rotated.json,http://54.235.29.9/FacialAge/BNav_EC2/DepthDuration/v2_depth_duration_MTurk/v2_DepthDuration_HTML.html#151,151,1366,625,1366,768,8-29-2022,10-36-51,87,depth_duration_stimuli/002323_2014-06-28_20-01-54_260595134347_rgbf000051-resize_4/002323_2014-06-28_20-01-54_260595134347_rgbf000051-resize_4-target.png,1000,3.7310000000000003,5,7116,995,feet,jsons/v1_VE1000_randls_65_rotated.json,1806539,2034306,50,Woman
87,481815,DepthScenes,duration_manipulation_targetAtFixation,jsons/v1_VE1000_randls_65_rotated.json,http://54.235.29.9/FacialAge/BNav_EC2/DepthDuration/v2_depth_duration_MTurk/v2_DepthDuration_HTML.html#151,151,1366,625,1366,768,8-29-2022,10-36-51,88,depth_duration_stimuli/000917_2014-06-09_22-45-29_260595134347_rgbf000149-resize_3/000917_2014-06-09_22-45-29_260595134347_rgbf000149-resize_3-target.png,1000,4.1865,4,4529,998,feet,jsons/v1_VE1000_randls_65_rotated.json,1806539,2034306,50,Woman
88,481815,DepthScenes,duration_manipulation_targetAtFixation,jsons/v1_VE1000_randls_65_rotated.json,http://54.235.29.9/FacialAge/BNav_EC2/DepthDuration/v2_depth_duration_MTurk/v2_DepthDuration_HTML.html#151,151,1366,625,1366,768,8-29-2022,10-36-51,89,depth_duration_stimuli/002875_2014-06-01_15-19-00_094959634447_rgbf000151-resize_1/002875_2014-06-01_15-19-00_094959634447_rgbf000151-resize_1-target.png,1000,1.9675,4,9150,1000,feet,jsons/v1_VE1000_randls_65_rotated.json,1806539,2034306,50,Woman
89,481815,DepthScenes,duration_manipulation_targetAtFixation,jsons/v1_VE1000_randls_65_rotated.json,http://54.235.29.9/FacialAge/BNav_EC2/DepthDuration/v2_depth_duration_MTurk/v2_DepthDuration_HTML.html#151,151,1366,625,1366,768,8-29-2022,10-36-51,90,depth_duration_stimuli/001011_2014-06-08_23-18-54_260595134347_rgbf000044-resize_4/001011_2014-06-08_23-18-54_260595134347_rgbf000044-resize_4-target.png,1000,2.4730000000000003,6,4077,999,feet,jsons/v1_VE1000_randls_65_rotated.json,1806539,2034306,50,Woman
90,481815,DepthScenes,duration_manipulation_targetAtFixation,jsons/v1_VE1000_randls_65_rotated.json,http://54.235.29.9/FacialAge/BNav_EC2/DepthDuration/v2_depth_duration_MTurk/v2_DepthDuration_HTML.html#151,151,1366,625,1366,768,8-29-2022,10-36-51,91,depth_duration_stimuli/003228_2014-05-14_13-42-35_094959634447_rgbf000101-resize_1/003228_2014-05-14_13-42-35_094959634447_rgbf000101-resize_1-target.png,1000,1.9680000000000002,4,9273,1003,feet,jsons/v1_VE1000_randls_65_rotated.json,1806539,2034306,50,Woman
91,481815,DepthScenes,duration_manipulation_targetAtFixation,jsons/v1_VE1000_randls_65_rotated.json,http://54.235.29.9/FacialAge/BNav_EC2/DepthDuration/v2_depth_duration_MTurk/v2_DepthDuration_HTML.html#151,151,1366,625,1366,768,8-29-2022,10-36-51,92,depth_duration_stimuli/002600_2014-06-24_14-27-04_094959634447_rgbf000074-resize_2/002600_2014-06-24_14-27-04_094959634447_rgbf000074-resize_2-target.png,1000,2.7575,3,6095,995,feet,jsons/v1_VE1000_randls_65_rotated.json,1806539,2034306,50,Woman
92,481815,DepthScenes,duration_manipulation_targetAtFixation,jsons/v1_VE1000_randls_65_rotated.json,http://54.235.29.9/FacialAge/BNav_EC2/DepthDuration/v2_depth_duration_MTurk/v2_DepthDuration_HTML.html#151,151,1366,625,1366,768,8-29-2022,10-36-51,93,depth_duration_stimuli/003010_2014-06-15_12-54-35_094959634447_rgbf000112-resize_0/003010_2014-06-15_12-54-35_094959634447_rgbf000112-resize_0-target.png,1000,3.1185,3,9129,994,feet,jsons/v1_VE1000_randls_65_rotated.json,1806539,2034306,50,Woman
93,481815,DepthScenes,duration_manipulation_targetAtFixation,jsons/v1_VE1000_randls_65_rotated.json,http://54.235.29.9/FacialAge/BNav_EC2/DepthDuration/v2_depth_duration_MTurk/v2_DepthDuration_HTML.html#151,151,1366,625,1366,768,8-29-2022,10-36-51,94,depth_duration_stimuli/001810_2014-06-26_20-51-35_260595134347_rgbf000040-resize_3/001810_2014-06-26_20-51-35_260595134347_rgbf000040-resize_3-target.png,1000,2.2525,2,4502,997,feet,jsons/v1_VE1000_randls_65_rotated.json,1806539,2034306,50,Woman
94,481815,DepthScenes,duration_manipulation_targetAtFixation,jsons/v1_VE1000_randls_65_rotated.json,http://54.235.29.9/FacialAge/BNav_EC2/DepthDuration/v2_depth_duration_MTurk/v2_DepthDuration_HTML.html#151,151,1366,625,1366,768,8-29-2022,10-36-51,95,depth_duration_stimuli/002995_2014-06-15_12-31-26_094959634447_rgbf000150-resize_1/002995_2014-06-15_12-31-26_094959634447_rgbf000150-resize_1-target.png,1000,3.8360000000000003,2,17841,1002,feet,jsons/v1_VE1000_randls_65_rotated.json,1806539,2034306,50,Woman
95,481815,DepthScenes,duration_manipulation_targetAtFixation,jsons/v1_VE1000_randls_65_rotated.json,http://54.235.29.9/FacialAge/BNav_EC2/DepthDuration/v2_depth_duration_MTurk/v2_DepthDuration_HTML.html#151,151,1366,625,1366,768,8-29-2022,10-36-51,96,depth_duration_stimuli/002748_2014-06-22_19-07-22_094959634447_rgbf000078-resize_1/002748_2014-06-22_19-07-22_094959634447_rgbf000078-resize_1-target.png,1000,4.6705,2,18540,1188,feet,jsons/v1_VE1000_randls_65_rotated.json,1806539,2034306,50,Woman
96,481815,DepthScenes,duration_manipulation_targetAtFixation,jsons/v1_VE1000_randls_65_rotated.json,http://54.235.29.9/FacialAge/BNav_EC2/DepthDuration/v2_depth_duration_MTurk/v2_DepthDuration_HTML.html#151,151,1366,625,1366,768,8-29-2022,10-36-51,97,depth_duration_stimuli/002467_2014-06-28_20-38-07_260595134347_rgbf000026-resize_2/002467_2014-06-28_20-38-07_260595134347_rgbf000026-resize_2-target.png,1000,4.742,3,10666,997,feet,jsons/v1_VE1000_randls_65_rotated.json,1806539,2034306,50,Woman
97,481815,DepthScenes,duration_manipulation_targetAtFixation,jsons/v1_VE1000_randls_65_rotated.json,http://54.235.29.9/FacialAge/BNav_EC2/DepthDuration/v2_depth_duration_MTurk/v2_DepthDuration_HTML.html#151,151,1366,625,1366,768,8-29-2022,10-36-51,98,depth_duration_stimuli/002570_2014-06-24_13-59-54_094959634447_rgbf000059-resize_0/002570_2014-06-24_13-59-54_094959634447_rgbf000059-resize_0-target.png,1000,4.037,5,5500,1000,feet,jsons/v1_VE1000_randls_65_rotated.json,1806539,2034306,50,Woman
98,481815,DepthScenes,duration_manipulation_targetAtFixation,jsons/v1_VE1000_randls_65_rotated.json,http://54.235.29.9/FacialAge/BNav_EC2/DepthDuration/v2_depth_duration_MTurk/v2_DepthDuration_HTML.html#151,151,1366,625,1366,768,8-29-2022,10-36-51,99,depth_duration_stimuli/001222_2014-06-17_16-24-06_260595134347_rgbf000073-resize_0/001222_2014-06-17_16-24-06_260595134347_rgbf000073-resize-original.jpg,1000,1.4385,6,13389,1000,feet,jsons/v1_VE1000_randls_65_rotated.json,1806539,2034306,50,Woman
99,481815,DepthScenes,duration_manipulation_targetAtFixation,jsons/v1_VE1000_randls_65_rotated.json,http://54.235.29.9/FacialAge/BNav_EC2/DepthDuration/v2_depth_duration_MTurk/v2_DepthDuration_HTML.html#151,151,1366,625,1366,768,8-29-2022,10-36-51,100,depth_duration_stimuli/003495_2014-05-21_16-01-51_094959634447_rgbf000100-resize_3/003495_2014-05-21_16-01-51_094959634447_rgbf000100-resize_3-target.png,1000,1.6255,3,8598,1000,feet,jsons/v1_VE1000_randls_65_rotated.json,1806539,2034306,50,Woman
100,481815,DepthScenes,duration_manipulation_targetAtFixation,jsons/v1_VE1000_randls_65_rotated.json,http://54.235.29.9/FacialAge/BNav_EC2/DepthDuration/v2_depth_duration_MTurk/v2_DepthDuration_HTML.html#151,151,1366,625,1366,768,8-29-2022,10-36-51,101,depth_duration_stimuli/001244_2014-06-17_16-47-45_260595134347_rgbf000030-resize_4/001244_2014-06-17_16-47-45_260595134347_rgbf000030-resize_4-target.png,1000,2.0425,5,5379,999,feet,jsons/v1_VE1000_randls_65_rotated.json,1806539,2034306,50,Woman
101,481815,DepthScenes,duration_manipulation_targetAtFixation,jsons/v1_VE1000_randls_65_rotated.json,http://54.235.29.9/FacialAge/BNav_EC2/DepthDuration/v2_depth_duration_MTurk/v2_DepthDuration_HTML.html#151,151,1366,625,1366,768,8-29-2022,10-36-51,102,depth_duration_stimuli/000137_2014-05-20_17-04-49_260595134347_rgbf000120-resize_1/000137_2014-05-20_17-04-49_260595134347_rgbf000120-resize_1-target.png,1000,3.786,2,22621,1000,feet,jsons/v1_VE1000_randls_65_rotated.json,1806539,2034306,50,Woman
102,481815,DepthScenes,duration_manipulation_targetAtFixation,jsons/v1_VE1000_randls_65_rotated.json,http://54.235.29.9/FacialAge/BNav_EC2/DepthDuration/v2_depth_duration_MTurk/v2_DepthDuration_HTML.html#151,151,1366,625,1366,768,8-29-2022,10-36-51,103,depth_duration_stimuli/000736_2014-06-08_18-24-15_260595134347_rgbf000206-resize_3/000736_2014-06-08_18-24-15_260595134347_rgbf000206-resize_3-target.png,1000,3.515,6,5940,1001,feet,jsons/v1_VE1000_randls_65_rotated.json,1806539,2034306,50,Woman
103,481815,DepthScenes,duration_manipulation_targetAtFixation,jsons/v1_VE1000_randls_65_rotated.json,http://54.235.29.9/FacialAge/BNav_EC2/DepthDuration/v2_depth_duration_MTurk/v2_DepthDuration_HTML.html#151,151,1366,625,1366,768,8-29-2022,10-36-51,104,depth_duration_stimuli/001828_2014-06-26_21-40-03_260595134347_rgbf000024-resize_0/001828_2014-06-26_21-40-03_260595134347_rgbf000024-resize_0-target.png,1000,4.8260000000000005,4,9289,1000,feet,jsons/v1_VE1000_randls_65_rotated.json,1806539,2034306,50,Woman
104,481815,DepthScenes,duration_manipulation_targetAtFixation,jsons/v1_VE1000_randls_65_rotated.json,http://54.235.29.9/FacialAge/BNav_EC2/DepthDuration/v2_depth_duration_MTurk/v2_DepthDuration_HTML.html#151,151,1366,625,1366,768,8-29-2022,10-36-51,105,depth_duration_stimuli/000009_2014-05-26_14-32-05_260595134347_rgbf000034-resize_3/000009_2014-05-26_14-32-05_260595134347_rgbf000034-resize_3-target.png,1000,3.8715,5,4466,999,feet,jsons/v1_VE1000_randls_65_rotated.json,1806539,2034306,50,Woman
105,481815,DepthScenes,duration_manipulation_targetAtFixation,jsons/v1_VE1000_randls_65_rotated.json,http://54.235.29.9/FacialAge/BNav_EC2/DepthDuration/v2_depth_duration_MTurk/v2_DepthDuration_HTML.html#151,151,1366,625,1366,768,8-29-2022,10-36-51,106,depth_duration_stimuli/002136_2014-06-25_21-18-03_260595134347_rgbf000109-resize_3/002136_2014-06-25_21-18-03_260595134347_rgbf000109-resize_3-target.png,1000,1.9569999999999999,7,9490,1000,feet,jsons/v1_VE1000_randls_65_rotated.json,1806539,2034306,50,Woman
106,481815,DepthScenes,duration_manipulation_targetAtFixation,jsons/v1_VE1000_randls_65_rotated.json,http://54.235.29.9/FacialAge/BNav_EC2/DepthDuration/v2_depth_duration_MTurk/v2_DepthDuration_HTML.html#151,151,1366,625,1366,768,8-29-2022,10-36-51,107,depth_duration_stimuli/002964_2014-06-08_17-46-11_094959634447_rgbf000091-resize_4/002964_2014-06-08_17-46-11_094959634447_rgbf000091-resize_4-target.png,1000,1.6909999999999998,5,25446,999,feet,jsons/v1_VE1000_randls_65_rotated.json,1806539,2034306,50,Woman
107,481815,DepthScenes,duration_manipulation_targetAtFixation,jsons/v1_VE1000_randls_65_rotated.json,http://54.235.29.9/FacialAge/BNav_EC2/DepthDuration/v2_depth_duration_MTurk/v2_DepthDuration_HTML.html#151,151,1366,625,1366,768,8-29-2022,10-36-51,108,depth_duration_stimuli/000191_2014-05-12_17-07-38_260595134347_rgbf000199-resize_0/000191_2014-05-12_17-07-38_260595134347_rgbf000199-resize_0-target.png,1000,3.7995,9,9743,1000,feet,jsons/v1_VE1000_randls_65_rotated.json,1806539,2034306,50,Woman
108,481815,DepthScenes,duration_manipulation_targetAtFixation,jsons/v1_VE1000_randls_65_rotated.json,http://54.235.29.9/FacialAge/BNav_EC2/DepthDuration/v2_depth_duration_MTurk/v2_DepthDuration_HTML.html#151,151,1366,625,1366,768,8-29-2022,10-36-51,109,depth_duration_stimuli/000493_2014-06-09_21-01-18_260595134347_rgbf000196-resize_3/000493_2014-06-09_21-01-18_260595134347_rgbf000196-resize_3-target.png,1000,3.44,4,4362,1000,feet,jsons/v1_VE1000_randls_65_rotated.json,1806539,2034306,50,Woman
109,481815,DepthScenes,duration_manipulation_targetAtFixation,jsons/v1_VE1000_randls_65_rotated.json,http://54.235.29.9/FacialAge/BNav_EC2/DepthDuration/v2_depth_duration_MTurk/v2_DepthDuration_HTML.html#151,151,1366,625,1366,768,8-29-2022,10-36-51,110,depth_duration_stimuli/001100_2014-06-15_17-46-26_260595134347_rgbf000225-resize_2/001100_2014-06-15_17-46-26_260595134347_rgbf000225-resize_2-target.png,1000,2.24,3,8010,1001,feet,jsons/v1_VE1000_randls_65_rotated.json,1806539,2034306,50,Woman
110,481815,DepthScenes,duration_manipulation_targetAtFixation,jsons/v1_VE1000_randls_65_rotated.json,http://54.235.29.9/FacialAge/BNav_EC2/DepthDuration/v2_depth_duration_MTurk/v2_DepthDuration_HTML.html#151,151,1366,625,1366,768,8-29-2022,10-36-51,111,depth_duration_stimuli/002784_2014-06-22_19-26-30_094959634447_rgbf000083-resize_3/002784_2014-06-22_19-26-30_094959634447_rgbf000083-resize_3-target.png,1000,1.8046666666667,6,3839,997,feet,jsons/v1_VE1000_randls_65_rotated.json,1806539,2034306,50,Woman
111,481815,DepthScenes,duration_manipulation_targetAtFixation,jsons/v1_VE1000_randls_65_rotated.json,http://54.235.29.9/FacialAge/BNav_EC2/DepthDuration/v2_depth_duration_MTurk/v2_DepthDuration_HTML.html#151,151,1366,625,1366,768,8-29-2022,10-36-51,112,depth_duration_stimuli/002545_2014-06-24_13-38-53_094959634447_rgbf000080-resize_4/002545_2014-06-24_13-38-53_094959634447_rgbf000080-resize_4-target.png,1000,1.9205,3,8409,1001,feet,jsons/v1_VE1000_randls_65_rotated.json,1806539,2034306,50,Woman
112,481815,DepthScenes,duration_manipulation_targetAtFixation,jsons/v1_VE1000_randls_65_rotated.json,http://54.235.29.9/FacialAge/BNav_EC2/DepthDuration/v2_depth_duration_MTurk/v2_DepthDuration_HTML.html#151,151,1366,625,1366,768,8-29-2022,10-36-51,113,depth_duration_stimuli/001092_2014-06-15_17-34-58_260595134347_rgbf000171-resize_3/001092_2014-06-15_17-34-58_260595134347_rgbf000171-resize_3-target.png,1000,2.6935,3,4619,1000,feet,jsons/v1_VE1000_randls_65_rotated.json,1806539,2034306,50,Woman
113,481815,DepthScenes,duration_manipulation_targetAtFixation,jsons/v1_VE1000_randls_65_rotated.json,http://54.235.29.9/FacialAge/BNav_EC2/DepthDuration/v2_depth_duration_MTurk/v2_DepthDuration_HTML.html#151,151,1366,625,1366,768,8-29-2022,10-36-51,114,depth_duration_stimuli/003048_2014-06-15_13-49-43_094959634447_rgbf000150-resize_1/003048_2014-06-15_13-49-43_094959634447_rgbf000150-resize_1-target.png,1000,4.0035,5,6705,998,feet,jsons/v1_VE1000_randls_65_rotated.json,1806539,2034306,50,Woman
114,481815,DepthScenes,duration_manipulation_targetAtFixation,jsons/v1_VE1000_randls_65_rotated.json,http://54.235.29.9/FacialAge/BNav_EC2/DepthDuration/v2_depth_duration_MTurk/v2_DepthDuration_HTML.html#151,151,1366,625,1366,768,8-29-2022,10-36-51,115,depth_duration_stimuli/002043_2014-06-24_20-29-38_260595134347_rgbf000039-resize_4/002043_2014-06-24_20-29-38_260595134347_rgbf000039-resize_4-target.png,1000,2.8435,3,7703,999,feet,jsons/v1_VE1000_randls_65_rotated.json,1806539,2034306,50,Woman
115,481815,DepthScenes,duration_manipulation_targetAtFixation,jsons/v1_VE1000_randls_65_rotated.json,http://54.235.29.9/FacialAge/BNav_EC2/DepthDuration/v2_depth_duration_MTurk/v2_DepthDuration_HTML.html#151,151,1366,625,1366,768,8-29-2022,10-36-51,116,depth_duration_stimuli/000691_2014-06-08_13-08-50_260595134347_rgbf000132-resize_3/000691_2014-06-08_13-08-50_260595134347_rgbf000132-resize_3-target.png,1000,4.1530000000000005,2,41188,1004,feet,jsons/v1_VE1000_randls_65_rotated.json,1806539,2034306,50,Woman
116,481815,DepthScenes,duration_manipulation_targetAtFixation,jsons/v1_VE1000_randls_65_rotated.json,http://54.235.29.9/FacialAge/BNav_EC2/DepthDuration/v2_depth_duration_MTurk/v2_DepthDuration_HTML.html#151,151,1366,625,1366,768,8-29-2022,10-36-51,117,depth_duration_stimuli/002213_2014-06-28_18-37-58_260595134347_rgbf000055-resize_1/002213_2014-06-28_18-37-58_260595134347_rgbf000055-resize_1-target.png,1000,3.62,3,4601,1000,feet,jsons/v1_VE1000_randls_65_rotated.json,1806539,2034306,50,Woman
117,481815,DepthScenes,duration_manipulation_targetAtFixation,jsons/v1_VE1000_randls_65_rotated.json,http://54.235.29.9/FacialAge/BNav_EC2/DepthDuration/v2_depth_duration_MTurk/v2_DepthDuration_HTML.html#151,151,1366,625,1366,768,8-29-2022,10-36-51,118,depth_duration_stimuli/002678_2014-06-13_16-15-32_094959634447_rgbf000151-resize_6/002678_2014-06-13_16-15-32_094959634447_rgbf000151-resize_6-target.png,1000,2.1830000000000003,3,17625,999,feet,jsons/v1_VE1000_randls_65_rotated.json,1806539,2034306,50,Woman
118,481815,DepthScenes,duration_manipulation_targetAtFixation,jsons/v1_VE1000_randls_65_rotated.json,http://54.235.29.9/FacialAge/BNav_EC2/DepthDuration/v2_depth_duration_MTurk/v2_DepthDuration_HTML.html#151,151,1366,625,1366,768,8-29-2022,10-36-51,119,depth_duration_stimuli/000368_2014-06-09_15-53-01_260595134347_rgbf000155-resize_2/000368_2014-06-09_15-53-01_260595134347_rgbf000155-resize_2-target.png,1000,2.4859999999999998,3,4507,1000,feet,jsons/v1_VE1000_randls_65_rotated.json,1806539,2034306,50,Woman
119,481815,DepthScenes,duration_manipulation_targetAtFixation,jsons/v1_VE1000_randls_65_rotated.json,http://54.235.29.9/FacialAge/BNav_EC2/DepthDuration/v2_depth_duration_MTurk/v2_DepthDuration_HTML.html#151,151,1366,625,1366,768,8-29-2022,10-36-51,120,depth_duration_stimuli/000787_2014-06-08_22-33-53_260595134347_rgbf000175-resize_1/000787_2014-06-08_22-33-53_260595134347_rgbf000175-resize-original.jpg,1000,4.784,6,7037,999,feet,jsons/v1_VE1000_randls_65_rotated.json,1806539,2034306,50,Woman
120,481815,DepthScenes,duration_manipulation_targetAtFixation,jsons/v1_VE1000_randls_65_rotated.json,http://54.235.29.9/FacialAge/BNav_EC2/DepthDuration/v2_depth_duration_MTurk/v2_DepthDuration_HTML.html#151,151,1366,625,1366,768,8-29-2022,10-36-51,121,depth_duration_stimuli/001450_2014-06-19_17-02-03_260595134347_rgbf000203-resize_4/001450_2014-06-19_17-02-03_260595134347_rgbf000203-resize_4-target.png,1000,4.0106666666667,6,6409,1000,feet,jsons/v1_VE1000_randls_65_rotated.json,1806539,2034306,50,Woman
121,481815,DepthScenes,duration_manipulation_targetAtFixation,jsons/v1_VE1000_randls_65_rotated.json,http://54.235.29.9/FacialAge/BNav_EC2/DepthDuration/v2_depth_duration_MTurk/v2_DepthDuration_HTML.html#151,151,1366,625,1366,768,8-29-2022,10-36-51,122,depth_duration_stimuli/001449_2014-06-19_17-01-27_260595134347_rgbf000116-resize_2/001449_2014-06-19_17-01-27_260595134347_rgbf000116-resize_2-target.png,1000,3.452,3,5029,1000,feet,jsons/v1_VE1000_randls_65_rotated.json,1806539,2034306,50,Woman
122,481815,DepthScenes,duration_manipulation_targetAtFixation,jsons/v1_VE1000_randls_65_rotated.json,http://54.235.29.9/FacialAge/BNav_EC2/DepthDuration/v2_depth_duration_MTurk/v2_DepthDuration_HTML.html#151,151,1366,625,1366,768,8-29-2022,10-36-51,123,depth_duration_stimuli/002639_2014-06-24_14-51-37_094959634447_rgbf000074-resize_4/002639_2014-06-24_14-51-37_094959634447_rgbf000074-resize_4-target.png,1000,4.0375,6,5717,999,feet,jsons/v1_VE1000_randls_65_rotated.json,1806539,2034306,50,Woman
123,481815,DepthScenes,duration_manipulation_targetAtFixation,jsons/v1_VE1000_randls_65_rotated.json,http://54.235.29.9/FacialAge/BNav_EC2/DepthDuration/v2_depth_duration_MTurk/v2_DepthDuration_HTML.html#151,151,1366,625,1366,768,8-29-2022,10-36-51,124,depth_duration_stimuli/003292_2014-05-14_21-53-49_094959634447_rgbf000100-resize_2/003292_2014-05-14_21-53-49_094959634447_rgbf000100-resize_2-target.png,1000,3.4815,7,4019,1000,feet,jsons/v1_VE1000_randls_65_rotated.json,1806539,2034306,50,Woman
124,481815,DepthScenes,duration_manipulation_targetAtFixation,jsons/v1_VE1000_randls_65_rotated.json,http://54.235.29.9/FacialAge/BNav_EC2/DepthDuration/v2_depth_duration_MTurk/v2_DepthDuration_HTML.html#151,151,1366,625,1366,768,8-29-2022,10-36-51,125,depth_duration_stimuli/000943_2014-06-09_19-31-07_260595134347_rgbf000128-resize_1/000943_2014-06-09_19-31-07_260595134347_rgbf000128-resize_1-target.png,1000,1.9765,2,6940,1000,feet,jsons/v1_VE1000_randls_65_rotated.json,1806539,2034306,50,Woman
125,481815,DepthScenes,duration_manipulation_targetAtFixation,jsons/v1_VE1000_randls_65_rotated.json,http://54.235.29.9/FacialAge/BNav_EC2/DepthDuration/v2_depth_duration_MTurk/v2_DepthDuration_HTML.html#151,151,1366,625,1366,768,8-29-2022,10-36-51,126,depth_duration_stimuli/003070_2014-06-15_14-58-27_094959634447_rgbf000150-resize_3/003070_2014-06-15_14-58-27_094959634447_rgbf000150-resize_3-target.png,1000,2.9415,3,5798,999,feet,jsons/v1_VE1000_randls_65_rotated.json,1806539,2034306,50,Woman
126,481815,DepthScenes,duration_manipulation_targetAtFixation,jsons/v1_VE1000_randls_65_rotated.json,http://54.235.29.9/FacialAge/BNav_EC2/DepthDuration/v2_depth_duration_MTurk/v2_DepthDuration_HTML.html#151,151,1366,625,1366,768,8-29-2022,10-36-51,127,depth_duration_stimuli/003338_2014-05-20_11-01-23_094959634447_rgbf000051-resize_6/003338_2014-05-20_11-01-23_094959634447_rgbf000051-resize_6-target.png,1000,1.693,3,6109,1000,feet,jsons/v1_VE1000_randls_65_rotated.json,1806539,2034306,50,Woman
127,481815,DepthScenes,duration_manipulation_targetAtFixation,jsons/v1_VE1000_randls_65_rotated.json,http://54.235.29.9/FacialAge/BNav_EC2/DepthDuration/v2_depth_duration_MTurk/v2_DepthDuration_HTML.html#151,151,1366,625,1366,768,8-29-2022,10-36-51,128,depth_duration_stimuli/002509_2014-06-24_13-19-22_094959634447_rgbf000077-resize_0/002509_2014-06-24_13-19-22_094959634447_rgbf000077-resize_0-target.png,1000,1.3065,3,4635,1000,feet,jsons/v1_VE1000_randls_65_rotated.json,1806539,2034306,50,Woman
128,481815,DepthScenes,duration_manipulation_targetAtFixation,jsons/v1_VE1000_randls_65_rotated.json,http://54.235.29.9/FacialAge/BNav_EC2/DepthDuration/v2_depth_duration_MTurk/v2_DepthDuration_HTML.html#151,151,1366,625,1366,768,8-29-2022,10-36-51,129,depth_duration_stimuli/001136_2014-06-17_15-19-41_260595134347_rgbf000076-resize_3/001136_2014-06-17_15-19-41_260595134347_rgbf000076-resize_3-target.png,1000,1.8655,3,7362,998,feet,jsons/v1_VE1000_randls_65_rotated.json,1806539,2034306,50,Woman
129,481815,DepthScenes,duration_manipulation_targetAtFixation,jsons/v1_VE1000_randls_65_rotated.json,http://54.235.29.9/FacialAge/BNav_EC2/DepthDuration/v2_depth_duration_MTurk/v2_DepthDuration_HTML.html#151,151,1366,625,1366,768,8-29-2022,10-36-51,130,depth_duration_stimuli/001164_2014-06-17_15-35-46_260595134347_rgbf000085-resize_3/001164_2014-06-17_15-35-46_260595134347_rgbf000085-resize_3-target.png,1000,2.354,4,6430,1000,feet,jsons/v1_VE1000_randls_65_rotated.json,1806539,2034306,50,Woman
130,481815,DepthScenes,duration_manipulation_targetAtFixation,jsons/v1_VE1000_randls_65_rotated.json,http://54.235.29.9/FacialAge/BNav_EC2/DepthDuration/v2_depth_duration_MTurk/v2_DepthDuration_HTML.html#151,151,1366,625,1366,768,8-29-2022,10-36-51,131,depth_duration_stimuli/000635_2014-06-08_16-38-42_260595134347_rgbf000106-resize_1/000635_2014-06-08_16-38-42_260595134347_rgbf000106-resize_1-target.png,1000,2.074,2,7249,999,feet,jsons/v1_VE1000_randls_65_rotated.json,1806539,2034306,50,Woman
131,481815,DepthScenes,duration_manipulation_targetAtFixation,jsons/v1_VE1000_randls_65_rotated.json,http://54.235.29.9/FacialAge/BNav_EC2/DepthDuration/v2_depth_duration_MTurk/v2_DepthDuration_HTML.html#151,151,1366,625,1366,768,8-29-2022,10-36-51,132,depth_duration_stimuli/002279_2014-06-28_18-55-32_260595134347_rgbf000040-resize_5/002279_2014-06-28_18-55-32_260595134347_rgbf000040-resize_5-target.png,1000,1.5043333333333,6,4716,998,feet,jsons/v1_VE1000_randls_65_rotated.json,1806539,2034306,50,Woman
132,481815,DepthScenes,duration_manipulation_targetAtFixation,jsons/v1_VE1000_randls_65_rotated.json,http://54.235.29.9/FacialAge/BNav_EC2/DepthDuration/v2_depth_duration_MTurk/v2_DepthDuration_HTML.html#151,151,1366,625,1366,768,8-29-2022,10-36-51,133,depth_duration_stimuli/003587_2014-05-23_16-48-02_094959634447_rgbf002384-resize_2/003587_2014-05-23_16-48-02_094959634447_rgbf002384-resize_2-target.png,1000,1.357,5,34380,1001,feet,jsons/v1_VE1000_randls_65_rotated.json,1806539,2034306,50,Woman
133,481815,DepthScenes,duration_manipulation_targetAtFixation,jsons/v1_VE1000_randls_65_rotated.json,http://54.235.29.9/FacialAge/BNav_EC2/DepthDuration/v2_depth_duration_MTurk/v2_DepthDuration_HTML.html#151,151,1366,625,1366,768,8-29-2022,10-36-51,134,depth_duration_stimuli/001167_2014-06-17_15-38-07_260595134347_rgbf000108-resize_0/001167_2014-06-17_15-38-07_260595134347_rgbf000108-resize_0-target.png,1000,1.8505,6,3772,1002,feet,jsons/v1_VE1000_randls_65_rotated.json,1806539,2034306,50,Woman
134,481815,DepthScenes,duration_manipulation_targetAtFixation,jsons/v1_VE1000_randls_65_rotated.json,http://54.235.29.9/FacialAge/BNav_EC2/DepthDuration/v2_depth_duration_MTurk/v2_DepthDuration_HTML.html#151,151,1366,625,1366,768,8-29-2022,10-36-51,135,depth_duration_stimuli/000375_2014-06-08_11-17-29_260595134347_rgbf000133-resize_2/000375_2014-06-08_11-17-29_260595134347_rgbf000133-resize-original.jpg,1000,4.718,4,11267,1000,feet,jsons/v1_VE1000_randls_65_rotated.json,1806539,2034306,50,Woman
135,481815,DepthScenes,duration_manipulation_targetAtFixation,jsons/v1_VE1000_randls_65_rotated.json,http://54.235.29.9/FacialAge/BNav_EC2/DepthDuration/v2_depth_duration_MTurk/v2_DepthDuration_HTML.html#151,151,1366,625,1366,768,8-29-2022,10-36-51,136,depth_duration_stimuli/002425_2014-06-28_20-27-29_260595134347_rgbf000031-resize_8/002425_2014-06-28_20-27-29_260595134347_rgbf000031-resize_8-target.png,1000,3.8960000000000004,4,7051,1000,feet,jsons/v1_VE1000_randls_65_rotated.json,1806539,2034306,50,Woman
136,481815,DepthScenes,duration_manipulation_targetAtFixation,jsons/v1_VE1000_randls_65_rotated.json,http://54.235.29.9/FacialAge/BNav_EC2/DepthDuration/v2_depth_duration_MTurk/v2_DepthDuration_HTML.html#151,151,1366,625,1366,768,8-29-2022,10-36-51,137,depth_duration_stimuli/000642_2014-06-08_16-59-25_260595134347_rgbf000098-resize_2/000642_2014-06-08_16-59-25_260595134347_rgbf000098-resize_2-target.png,1000,2.8815,5,3552,1000,feet,jsons/v1_VE1000_randls_65_rotated.json,1806539,2034306,50,Woman
137,481815,DepthScenes,duration_manipulation_targetAtFixation,jsons/v1_VE1000_randls_65_rotated.json,http://54.235.29.9/FacialAge/BNav_EC2/DepthDuration/v2_depth_duration_MTurk/v2_DepthDuration_HTML.html#151,151,1366,625,1366,768,8-29-2022,10-36-51,138,depth_duration_stimuli/000409_2014-06-04_19-23-33_260595134347_rgbf000067-resize_0/000409_2014-06-04_19-23-33_260595134347_rgbf000067-resize_0-target.png,1000,3.7335,6,8678,999,feet,jsons/v1_VE1000_randls_65_rotated.json,1806539,2034306,50,Woman
138,481815,DepthScenes,duration_manipulation_targetAtFixation,jsons/v1_VE1000_randls_65_rotated.json,http://54.235.29.9/FacialAge/BNav_EC2/DepthDuration/v2_depth_duration_MTurk/v2_DepthDuration_HTML.html#151,151,1366,625,1366,768,8-29-2022,10-36-51,139,depth_duration_stimuli/002663_2014-06-13_15-50-26_094959634447_rgbf000075-resize_1/002663_2014-06-13_15-50-26_094959634447_rgbf000075-resize_1-target.png,1000,4.7495,6,4066,1000,feet,jsons/v1_VE1000_randls_65_rotated.json,1806539,2034306,50,Woman
139,481815,DepthScenes,duration_manipulation_targetAtFixation,jsons/v1_VE1000_randls_65_rotated.json,http://54.235.29.9/FacialAge/BNav_EC2/DepthDuration/v2_depth_duration_MTurk/v2_DepthDuration_HTML.html#151,151,1366,625,1366,768,8-29-2022,10-36-51,140,depth_duration_stimuli/003490_2014-05-21_15-50-11_094959634447_rgbf000101-resize_3/003490_2014-05-21_15-50-11_094959634447_rgbf000101-resize_3-target.png,1000,3.6445,6,5618,999,feet,jsons/v1_VE1000_randls_65_rotated.json,1806539,2034306,50,Woman
140,481815,DepthScenes,duration_manipulation_targetAtFixation,jsons/v1_VE1000_randls_65_rotated.json,http://54.235.29.9/FacialAge/BNav_EC2/DepthDuration/v2_depth_duration_MTurk/v2_DepthDuration_HTML.html#151,151,1366,625,1366,768,8-29-2022,10-36-51,141,depth_duration_stimuli/001175_2014-06-17_15-45-55_260595134347_rgbf000129-resize_4/001175_2014-06-17_15-45-55_260595134347_rgbf000129-resize_4-target.png,1000,4.255,3,3330,1000,feet,jsons/v1_VE1000_randls_65_rotated.json,1806539,2034306,50,Woman
141,481815,DepthScenes,duration_manipulation_targetAtFixation,jsons/v1_VE1000_randls_65_rotated.json,http://54.235.29.9/FacialAge/BNav_EC2/DepthDuration/v2_depth_duration_MTurk/v2_DepthDuration_HTML.html#151,151,1366,625,1366,768,8-29-2022,10-36-51,142,depth_duration_stimuli/000502_2014-06-08_23-02-32_260595134347_rgbf000063-resize_4/000502_2014-06-08_23-02-32_260595134347_rgbf000063-resize_4-target.png,1000,2.431,2,4788,1004,feet,jsons/v1_VE1000_randls_65_rotated.json,1806539,2034306,50,Woman
142,481815,DepthScenes,duration_manipulation_targetAtFixation,jsons/v1_VE1000_randls_65_rotated.json,http://54.235.29.9/FacialAge/BNav_EC2/DepthDuration/v2_depth_duration_MTurk/v2_DepthDuration_HTML.html#151,151,1366,625,1366,768,8-29-2022,10-36-51,143,depth_duration_stimuli/001199_2014-06-17_16-03-48_260595134347_rgbf000077-resize_0/001199_2014-06-17_16-03-48_260595134347_rgbf000077-resize_0-target.png,1000,3.4375,7,4740,1016,feet,jsons/v1_VE1000_randls_65_rotated.json,1806539,2034306,50,Woman
143,481815,DepthScenes,duration_manipulation_targetAtFixation,jsons/v1_VE1000_randls_65_rotated.json,http://54.235.29.9/FacialAge/BNav_EC2/DepthDuration/v2_depth_duration_MTurk/v2_DepthDuration_HTML.html#151,151,1366,625,1366,768,8-29-2022,10-36-51,144,depth_duration_stimuli/003081_2014-06-15_15-19-16_094959634447_rgbf000150-resize_1/003081_2014-06-15_15-19-16_094959634447_rgbf000150-resize_1-target.png,1000,3.9125,8,5984,999,feet,jsons/v1_VE1000_randls_65_rotated.json,1806539,2034306,50,Woman
144,481815,DepthScenes,duration_manipulation_targetAtFixation,jsons/v1_VE1000_randls_65_rotated.json,http://54.235.29.9/FacialAge/BNav_EC2/DepthDuration/v2_depth_duration_MTurk/v2_DepthDuration_HTML.html#151,151,1366,625,1366,768,8-29-2022,10-36-51,145,depth_duration_stimuli/001417_2014-06-19_16-25-36_260595134347_rgbf000115-resize_5/001417_2014-06-19_16-25-36_260595134347_rgbf000115-resize_5-target.png,1000,4.6255,2,3828,1000,feet,jsons/v1_VE1000_randls_65_rotated.json,1806539,2034306,50,Woman
145,481815,DepthScenes,duration_manipulation_targetAtFixation,jsons/v1_VE1000_randls_65_rotated.json,http://54.235.29.9/FacialAge/BNav_EC2/DepthDuration/v2_depth_duration_MTurk/v2_DepthDuration_HTML.html#151,151,1366,625,1366,768,8-29-2022,10-36-51,146,depth_duration_stimuli/003079_2014-06-15_15-18-20_094959634447_rgbf000152-resize_8/003079_2014-06-15_15-18-20_094959634447_rgbf000152-resize_8-target.png,1000,2.8775,3,4247,1000,feet,jsons/v1_VE1000_randls_65_rotated.json,1806539,2034306,50,Woman
146,481815,DepthScenes,duration_manipulation_targetAtFixation,jsons/v1_VE1000_randls_65_rotated.json,http://54.235.29.9/FacialAge/BNav_EC2/DepthDuration/v2_depth_duration_MTurk/v2_DepthDuration_HTML.html#151,151,1366,625,1366,768,8-29-2022,10-36-51,147,depth_duration_stimuli/000506_2014-06-08_23-21-00_260595134347_rgbf000070-resize_7/000506_2014-06-08_23-21-00_260595134347_rgbf000070-resize_7-target.png,1000,4.0585,2,3047,993,feet,jsons/v1_VE1000_randls_65_rotated.json,1806539,2034306,50,Woman
147,481815,DepthScenes,duration_manipulation_targetAtFixation,jsons/v1_VE1000_randls_65_rotated.json,http://54.235.29.9/FacialAge/BNav_EC2/DepthDuration/v2_depth_duration_MTurk/v2_DepthDuration_HTML.html#151,151,1366,625,1366,768,8-29-2022,10-36-51,148,depth_duration_stimuli/002199_2014-06-28_18-33-56_260595134347_rgbf000074-resize_0/002199_2014-06-28_18-33-56_260595134347_rgbf000074-resize_0-target.png,1000,1.996,1,6726,1001,feet,jsons/v1_VE1000_randls_65_rotated.json,1806539,2034306,50,Woman
148,481815,DepthScenes,duration_manipulation_targetAtFixation,jsons/v1_VE1000_randls_65_rotated.json,http://54.235.29.9/FacialAge/BNav_EC2/DepthDuration/v2_depth_duration_MTurk/v2_DepthDuration_HTML.html#151,151,1366,625,1366,768,8-29-2022,10-36-51,149,depth_duration_stimuli/001056_2014-06-08_18-46-44_260595134347_rgbf000068-resize_0/001056_2014-06-08_18-46-44_260595134347_rgbf000068-resize_0-target.png,1000,2.6625,5,3628,998,feet,jsons/v1_VE1000_randls_65_rotated.json,1806539,2034306,50,Woman
149,481815,DepthScenes,duration_manipulation_targetAtFixation,jsons/v1_VE1000_randls_65_rotated.json,http://54.235.29.9/FacialAge/BNav_EC2/DepthDuration/v2_depth_duration_MTurk/v2_DepthDuration_HTML.html#151,151,1366,625,1366,768,8-29-2022,10-36-51,150,depth_duration_stimuli/002660_2014-06-13_15-44-18_094959634447_rgbf001878-resize_2/002660_2014-06-13_15-44-18_094959634447_rgbf001878-resize_2-target.png,1000,3.576,3,4759,999,feet,jsons/v1_VE1000_randls_65_rotated.json,1806539,2034306,50,Woman
150,481815,DepthScenes,duration_manipulation_targetAtFixation,jsons/v1_VE1000_randls_65_rotated.json,http://54.235.29.9/FacialAge/BNav_EC2/DepthDuration/v2_depth_duration_MTurk/v2_DepthDuration_HTML.html#151,151,1366,625,1366,768,8-29-2022,10-36-51,151,depth_duration_stimuli/002153_2014-06-25_21-27-18_260595134347_rgbf000038-resize_5/002153_2014-06-25_21-27-18_260595134347_rgbf000038-resize_5-target.png,1000,2.505,3,2956,999,feet,jsons/v1_VE1000_randls_65_rotated.json,1806539,2034306,50,Woman
151,481815,DepthScenes,duration_manipulation_targetAtFixation,jsons/v1_VE1000_randls_65_rotated.json,http://54.235.29.9/FacialAge/BNav_EC2/DepthDuration/v2_depth_duration_MTurk/v2_DepthDuration_HTML.html#151,151,1366,625,1366,768,8-29-2022,10-36-51,152,depth_duration_stimuli/000569_2014-06-09_22-51-47_260595134347_rgbf000141-resize_3/000569_2014-06-09_22-51-47_260595134347_rgbf000141-resize-original.jpg,1000,4.512,5,10587,992,feet,jsons/v1_VE1000_randls_65_rotated.json,1806539,2034306,50,Woman
152,481815,DepthScenes,duration_manipulation_targetAtFixation,jsons/v1_VE1000_randls_65_rotated.json,http://54.235.29.9/FacialAge/BNav_EC2/DepthDuration/v2_depth_duration_MTurk/v2_DepthDuration_HTML.html#151,151,1366,625,1366,768,8-29-2022,10-36-51,153,depth_duration_stimuli/001571_2014-06-20_17-21-32_260595134347_rgbf000089-resize_1/001571_2014-06-20_17-21-32_260595134347_rgbf000089-resize_1-target.png,1000,1.86,2,5066,1000,feet,jsons/v1_VE1000_randls_65_rotated.json,1806539,2034306,50,Woman
153,481815,DepthScenes,duration_manipulation_targetAtFixation,jsons/v1_VE1000_randls_65_rotated.json,http://54.235.29.9/FacialAge/BNav_EC2/DepthDuration/v2_depth_duration_MTurk/v2_DepthDuration_HTML.html#151,151,1366,625,1366,768,8-29-2022,10-36-51,154,depth_duration_stimuli/002272_2014-06-28_18-53-56_260595134347_rgbf000067-resize_2/002272_2014-06-28_18-53-56_260595134347_rgbf000067-resize_2-target.png,1000,1.138,2,3013,1000,feet,jsons/v1_VE1000_randls_65_rotated.json,1806539,2034306,50,Woman
154,481815,DepthScenes,duration_manipulation_targetAtFixation,jsons/v1_VE1000_randls_65_rotated.json,http://54.235.29.9/FacialAge/BNav_EC2/DepthDuration/v2_depth_duration_MTurk/v2_DepthDuration_HTML.html#151,151,1366,625,1366,768,8-29-2022,10-36-51,155,depth_duration_stimuli/003129_2014-05-12_10-48-10_094959634447_rgbf000100-resize_0/003129_2014-05-12_10-48-10_094959634447_rgbf000100-resize_0-target.png,1000,4.9305,3,5082,1001,feet,jsons/v1_VE1000_randls_65_rotated.json,1806539,2034306,50,Woman
155,481815,DepthScenes,duration_manipulation_targetAtFixation,jsons/v1_VE1000_randls_65_rotated.json,http://54.235.29.9/FacialAge/BNav_EC2/DepthDuration/v2_depth_duration_MTurk/v2_DepthDuration_HTML.html#151,151,1366,625,1366,768,8-29-2022,10-36-51,156,depth_duration_stimuli/000414_2014-06-04_19-49-13_260595134347_rgbf000044-resize_0/000414_2014-06-04_19-49-13_260595134347_rgbf000044-resize_0-target.png,1000,4.329,1,3369,1000,feet,jsons/v1_VE1000_randls_65_rotated.json,1806539,2034306,50,Woman
156,481815,DepthScenes,duration_manipulation_targetAtFixation,jsons/v1_VE1000_randls_65_rotated.json,http://54.235.29.9/FacialAge/BNav_EC2/DepthDuration/v2_depth_duration_MTurk/v2_DepthDuration_HTML.html#151,151,1366,625,1366,768,8-29-2022,10-36-51,157,depth_duration_stimuli/001392_2014-06-19_16-07-59_260595134347_rgbf000046-resize_1/001392_2014-06-19_16-07-59_260595134347_rgbf000046-resize_1-target.png,1000,4.135,5,4451,1002,feet,jsons/v1_VE1000_randls_65_rotated.json,1806539,2034306,50,Woman
157,481815,DepthScenes,duration_manipulation_targetAtFixation,jsons/v1_VE1000_randls_65_rotated.json,http://54.235.29.9/FacialAge/BNav_EC2/DepthDuration/v2_depth_duration_MTurk/v2_DepthDuration_HTML.html#151,151,1366,625,1366,768,8-29-2022,10-36-51,158,depth_duration_stimuli/001570_2014-06-20_17-21-09_260595134347_rgbf000135-resize_4/001570_2014-06-20_17-21-09_260595134347_rgbf000135-resize_4-target.png,1000,4.467,3,2654,999,feet,jsons/v1_VE1000_randls_65_rotated.json,1806539,2034306,50,Woman
158,481815,DepthScenes,duration_manipulation_targetAtFixation,jsons/v1_VE1000_randls_65_rotated.json,http://54.235.29.9/FacialAge/BNav_EC2/DepthDuration/v2_depth_duration_MTurk/v2_DepthDuration_HTML.html#151,151,1366,625,1366,768,8-29-2022,10-36-51,159,depth_duration_stimuli/002103_2014-06-25_20-00-40_260595134347_rgbf000049-resize_0/002103_2014-06-25_20-00-40_260595134347_rgbf000049-resize_0-target.png,1000,4.105,2,6831,999,feet,jsons/v1_VE1000_randls_65_rotated.json,1806539,2034306,50,Woman
159,481815,DepthScenes,duration_manipulation_targetAtFixation,jsons/v1_VE1000_randls_65_rotated.json,http://54.235.29.9/FacialAge/BNav_EC2/DepthDuration/v2_depth_duration_MTurk/v2_DepthDuration_HTML.html#151,151,1366,625,1366,768,8-29-2022,10-36-51,160,depth_duration_stimuli/002039_2014-06-24_20-22-38_260595134347_rgbf000084-resize_1/002039_2014-06-24_20-22-38_260595134347_rgbf000084-resize_1-target.png,1000,4.408,5,11385,1047,feet,jsons/v1_VE1000_randls_65_rotated.json,1806539,2034306,50,Woman
160,481815,DepthScenes,duration_manipulation_targetAtFixation,jsons/v1_VE1000_randls_65_rotated.json,http://54.235.29.9/FacialAge/BNav_EC2/DepthDuration/v2_depth_duration_MTurk/v2_DepthDuration_HTML.html#151,151,1366,625,1366,768,8-29-2022,10-36-51,161,depth_duration_stimuli/000709_2014-06-08_13-51-55_260595134347_rgbf000068-resize_3/000709_2014-06-08_13-51-55_260595134347_rgbf000068-resize_3-target.png,1000,1.8030000000000002,5,16222,1000,feet,jsons/v1_VE1000_randls_65_rotated.json,1806539,2034306,50,Woman
161,481815,DepthScenes,duration_manipulation_targetAtFixation,jsons/v1_VE1000_randls_65_rotated.json,http://54.235.29.9/FacialAge/BNav_EC2/DepthDuration/v2_depth_duration_MTurk/v2_DepthDuration_HTML.html#151,151,1366,625,1366,768,8-29-2022,10-36-51,162,depth_duration_stimuli/002057_2014-06-24_21-00-13_260595134347_rgbf000120-resize_1/002057_2014-06-24_21-00-13_260595134347_rgbf000120-resize_1-target.png,1000,2.967,5,5238,1000,feet,jsons/v1_VE1000_randls_65_rotated.json,1806539,2034306,50,Woman
162,481815,DepthScenes,duration_manipulation_targetAtFixation,jsons/v1_VE1000_randls_65_rotated.json,http://54.235.29.9/FacialAge/BNav_EC2/DepthDuration/v2_depth_duration_MTurk/v2_DepthDuration_HTML.html#151,151,1366,625,1366,768,8-29-2022,10-36-51,163,depth_duration_stimuli/000549_2014-06-08_22-10-24_260595134347_rgbf000247-resize_3/000549_2014-06-08_22-10-24_260595134347_rgbf000247-resize_3-target.png,1000,1.841,1,7556,999,feet,jsons/v1_VE1000_randls_65_rotated.json,1806539,2034306,50,Woman
163,481815,DepthScenes,duration_manipulation_targetAtFixation,jsons/v1_VE1000_randls_65_rotated.json,http://54.235.29.9/FacialAge/BNav_EC2/DepthDuration/v2_depth_duration_MTurk/v2_DepthDuration_HTML.html#151,151,1366,625,1366,768,8-29-2022,10-36-51,164,depth_duration_stimuli/001055_2014-06-08_18-45-35_260595134347_rgbf000111-resize_4/001055_2014-06-08_18-45-35_260595134347_rgbf000111-resize_4-target.png,1000,2.4290000000000003,2,29787,1003,feet,jsons/v1_VE1000_randls_65_rotated.json,1806539,2034306,50,Woman
