,subjID,experimentName,versionName,sequenceName,url,selected_row,windowWidth,windowHeight,screenWidth,screenHeight,startDate,startTime,trial,stimulus,duration,actual_depth,depth_estimate,trial_RT,log_sceneDuration,unitSelection,seq_filepath,experimentTime,totalTime,age,gender
0,487132,DepthScenes,duration_manipulation_targetAtFixation,jsons/v1_VE250_randls_73.json,http://54.235.29.9/FacialAge/BNav_EC2/DepthDuration/v2_depth_duration_MTurk/v2_DepthDuration_HTML.html#172,172,1536,722,1536,864,8-30-2022,10-12-36,1,depth_duration_stimuli/001011_2014-06-08_23-18-54_260595134347_rgbf000044-resize_4/001011_2014-06-08_23-18-54_260595134347_rgbf000044-resize_4-target.png,250,2.4730000000000003,5,5994,250,feet,jsons/v1_VE250_randls_73.json,635429,837440,61,Woman
1,487132,DepthScenes,duration_manipulation_targetAtFixation,jsons/v1_VE250_randls_73.json,http://54.235.29.9/FacialAge/BNav_EC2/DepthDuration/v2_depth_duration_MTurk/v2_DepthDuration_HTML.html#172,172,1536,722,1536,864,8-30-2022,10-12-36,2,depth_duration_stimuli/002875_2014-06-01_15-19-00_094959634447_rgbf000151-resize_1/002875_2014-06-01_15-19-00_094959634447_rgbf000151-resize_1-target.png,250,1.9675,2,6156,249,feet,jsons/v1_VE250_randls_73.json,635429,837440,61,Woman
2,487132,DepthScenes,duration_manipulation_targetAtFixation,jsons/v1_VE250_randls_73.json,http://54.235.29.9/FacialAge/BNav_EC2/DepthDuration/v2_depth_duration_MTurk/v2_DepthDuration_HTML.html#172,172,1536,722,1536,864,8-30-2022,10-12-36,3,depth_duration_stimuli/000810_2014-06-08_17-20-01_260595134347_rgbf000105-resize_0/000810_2014-06-08_17-20-01_260595134347_rgbf000105-resize_0-target.png,250,1.4865,3,4937,263,feet,jsons/v1_VE250_randls_73.json,635429,837440,61,Woman
3,487132,DepthScenes,duration_manipulation_targetAtFixation,jsons/v1_VE250_randls_73.json,http://54.235.29.9/FacialAge/BNav_EC2/DepthDuration/v2_depth_duration_MTurk/v2_DepthDuration_HTML.html#172,172,1536,722,1536,864,8-30-2022,10-12-36,4,depth_duration_stimuli/001214_2014-06-17_16-13-55_260595134347_rgbf000111-resize_0/001214_2014-06-17_16-13-55_260595134347_rgbf000111-resize_0-target.png,250,2.6505,3,5092,247,feet,jsons/v1_VE250_randls_73.json,635429,837440,61,Woman
4,487132,DepthScenes,duration_manipulation_targetAtFixation,jsons/v1_VE250_randls_73.json,http://54.235.29.9/FacialAge/BNav_EC2/DepthDuration/v2_depth_duration_MTurk/v2_DepthDuration_HTML.html#172,172,1536,722,1536,864,8-30-2022,10-12-36,5,depth_duration_stimuli/003292_2014-05-14_21-53-49_094959634447_rgbf000100-resize_2/003292_2014-05-14_21-53-49_094959634447_rgbf000100-resize_2-target.png,250,3.4815,5,5194,252,feet,jsons/v1_VE250_randls_73.json,635429,837440,61,Woman
5,487132,DepthScenes,duration_manipulation_targetAtFixation,jsons/v1_VE250_randls_73.json,http://54.235.29.9/FacialAge/BNav_EC2/DepthDuration/v2_depth_duration_MTurk/v2_DepthDuration_HTML.html#172,172,1536,722,1536,864,8-30-2022,10-12-36,6,depth_duration_stimuli/002639_2014-06-24_14-51-37_094959634447_rgbf000074-resize_4/002639_2014-06-24_14-51-37_094959634447_rgbf000074-resize_4-target.png,250,4.0375,6,4733,253,feet,jsons/v1_VE250_randls_73.json,635429,837440,61,Woman
6,487132,DepthScenes,duration_manipulation_targetAtFixation,jsons/v1_VE250_randls_73.json,http://54.235.29.9/FacialAge/BNav_EC2/DepthDuration/v2_depth_duration_MTurk/v2_DepthDuration_HTML.html#172,172,1536,722,1536,864,8-30-2022,10-12-36,7,depth_duration_stimuli/001066_2014-06-08_22-03-20_260595134347_rgbf000066-resize_4/001066_2014-06-08_22-03-20_260595134347_rgbf000066-resize_4-target.png,250,4.2330000000000005,5,4633,248,feet,jsons/v1_VE250_randls_73.json,635429,837440,61,Woman
7,487132,DepthScenes,duration_manipulation_targetAtFixation,jsons/v1_VE250_randls_73.json,http://54.235.29.9/FacialAge/BNav_EC2/DepthDuration/v2_depth_duration_MTurk/v2_DepthDuration_HTML.html#172,172,1536,722,1536,864,8-30-2022,10-12-36,8,depth_duration_stimuli/000742_2014-06-08_18-48-09_260595134347_rgbf000164-resize_4/000742_2014-06-08_18-48-09_260595134347_rgbf000164-resize_4-target.png,250,4.632,7,4327,250,feet,jsons/v1_VE250_randls_73.json,635429,837440,61,Woman
8,487132,DepthScenes,duration_manipulation_targetAtFixation,jsons/v1_VE250_randls_73.json,http://54.235.29.9/FacialAge/BNav_EC2/DepthDuration/v2_depth_duration_MTurk/v2_DepthDuration_HTML.html#172,172,1536,722,1536,864,8-30-2022,10-12-36,9,depth_duration_stimuli/001555_2014-06-20_17-12-10_260595134347_rgbf000065-resize_4/001555_2014-06-20_17-12-10_260595134347_rgbf000065-resize_4-target.png,250,1.633,2,4582,250,feet,jsons/v1_VE250_randls_73.json,635429,837440,61,Woman
9,487132,DepthScenes,duration_manipulation_targetAtFixation,jsons/v1_VE250_randls_73.json,http://54.235.29.9/FacialAge/BNav_EC2/DepthDuration/v2_depth_duration_MTurk/v2_DepthDuration_HTML.html#172,172,1536,722,1536,864,8-30-2022,10-12-36,10,depth_duration_stimuli/000103_2014-05-14_22-01-17_260595134347_rgbf000152-resize_5/000103_2014-05-14_22-01-17_260595134347_rgbf000152-resize_5-target.png,250,1.993,5,4733,249,feet,jsons/v1_VE250_randls_73.json,635429,837440,61,Woman
10,487132,DepthScenes,duration_manipulation_targetAtFixation,jsons/v1_VE250_randls_73.json,http://54.235.29.9/FacialAge/BNav_EC2/DepthDuration/v2_depth_duration_MTurk/v2_DepthDuration_HTML.html#172,172,1536,722,1536,864,8-30-2022,10-12-36,11,depth_duration_stimuli/000682_2014-06-08_23-14-58_260595134347_rgbf000041-resize_5/000682_2014-06-08_23-14-58_260595134347_rgbf000041-resize_5-target.png,250,2.7239999999999998,3,4988,250,feet,jsons/v1_VE250_randls_73.json,635429,837440,61,Woman
11,487132,DepthScenes,duration_manipulation_targetAtFixation,jsons/v1_VE250_randls_73.json,http://54.235.29.9/FacialAge/BNav_EC2/DepthDuration/v2_depth_duration_MTurk/v2_DepthDuration_HTML.html#172,172,1536,722,1536,864,8-30-2022,10-12-36,12,depth_duration_stimuli/001650_2014-06-20_12-09-00_260595134347_rgbf000087-resize_3/001650_2014-06-20_12-09-00_260595134347_rgbf000087-resize_3-target.png,250,1.9505,3,5020,258,feet,jsons/v1_VE250_randls_73.json,635429,837440,61,Woman
12,487132,DepthScenes,duration_manipulation_targetAtFixation,jsons/v1_VE250_randls_73.json,http://54.235.29.9/FacialAge/BNav_EC2/DepthDuration/v2_depth_duration_MTurk/v2_DepthDuration_HTML.html#172,172,1536,722,1536,864,8-30-2022,10-12-36,13,depth_duration_stimuli/000569_2014-06-09_22-51-47_260595134347_rgbf000141-resize_3/000569_2014-06-09_22-51-47_260595134347_rgbf000141-resize-original.jpg,250,4.512,0,4135,252,feet,jsons/v1_VE250_randls_73.json,635429,837440,61,Woman
13,487132,DepthScenes,duration_manipulation_targetAtFixation,jsons/v1_VE250_randls_73.json,http://54.235.29.9/FacialAge/BNav_EC2/DepthDuration/v2_depth_duration_MTurk/v2_DepthDuration_HTML.html#172,172,1536,722,1536,864,8-30-2022,10-12-36,14,depth_duration_stimuli/000368_2014-06-09_15-53-01_260595134347_rgbf000155-resize_2/000368_2014-06-09_15-53-01_260595134347_rgbf000155-resize_2-target.png,250,2.4859999999999998,2,4555,259,feet,jsons/v1_VE250_randls_73.json,635429,837440,61,Woman
14,487132,DepthScenes,duration_manipulation_targetAtFixation,jsons/v1_VE250_randls_73.json,http://54.235.29.9/FacialAge/BNav_EC2/DepthDuration/v2_depth_duration_MTurk/v2_DepthDuration_HTML.html#172,172,1536,722,1536,864,8-30-2022,10-12-36,15,depth_duration_stimuli/002678_2014-06-13_16-15-32_094959634447_rgbf000151-resize_6/002678_2014-06-13_16-15-32_094959634447_rgbf000151-resize_6-target.png,250,2.1830000000000003,7,4510,249,feet,jsons/v1_VE250_randls_73.json,635429,837440,61,Woman
15,487132,DepthScenes,duration_manipulation_targetAtFixation,jsons/v1_VE250_randls_73.json,http://54.235.29.9/FacialAge/BNav_EC2/DepthDuration/v2_depth_duration_MTurk/v2_DepthDuration_HTML.html#172,172,1536,722,1536,864,8-30-2022,10-12-36,16,depth_duration_stimuli/000009_2014-05-26_14-32-05_260595134347_rgbf000034-resize_3/000009_2014-05-26_14-32-05_260595134347_rgbf000034-resize_3-target.png,250,3.8715,12,5113,252,feet,jsons/v1_VE250_randls_73.json,635429,837440,61,Woman
16,487132,DepthScenes,duration_manipulation_targetAtFixation,jsons/v1_VE250_randls_73.json,http://54.235.29.9/FacialAge/BNav_EC2/DepthDuration/v2_depth_duration_MTurk/v2_DepthDuration_HTML.html#172,172,1536,722,1536,864,8-30-2022,10-12-36,17,depth_duration_stimuli/001828_2014-06-26_21-40-03_260595134347_rgbf000024-resize_0/001828_2014-06-26_21-40-03_260595134347_rgbf000024-resize_0-target.png,250,4.8260000000000005,5,5171,231,feet,jsons/v1_VE250_randls_73.json,635429,837440,61,Woman
17,487132,DepthScenes,duration_manipulation_targetAtFixation,jsons/v1_VE250_randls_73.json,http://54.235.29.9/FacialAge/BNav_EC2/DepthDuration/v2_depth_duration_MTurk/v2_DepthDuration_HTML.html#172,172,1536,722,1536,864,8-30-2022,10-12-36,18,depth_duration_stimuli/002663_2014-06-13_15-50-26_094959634447_rgbf000075-resize_1/002663_2014-06-13_15-50-26_094959634447_rgbf000075-resize_1-target.png,250,4.7495,6,4250,250,feet,jsons/v1_VE250_randls_73.json,635429,837440,61,Woman
18,487132,DepthScenes,duration_manipulation_targetAtFixation,jsons/v1_VE250_randls_73.json,http://54.235.29.9/FacialAge/BNav_EC2/DepthDuration/v2_depth_duration_MTurk/v2_DepthDuration_HTML.html#172,172,1536,722,1536,864,8-30-2022,10-12-36,19,depth_duration_stimuli/000409_2014-06-04_19-23-33_260595134347_rgbf000067-resize_0/000409_2014-06-04_19-23-33_260595134347_rgbf000067-resize_0-target.png,250,3.7335,6,5276,255,feet,jsons/v1_VE250_randls_73.json,635429,837440,61,Woman
19,487132,DepthScenes,duration_manipulation_targetAtFixation,jsons/v1_VE250_randls_73.json,http://54.235.29.9/FacialAge/BNav_EC2/DepthDuration/v2_depth_duration_MTurk/v2_DepthDuration_HTML.html#172,172,1536,722,1536,864,8-30-2022,10-12-36,20,depth_duration_stimuli/000736_2014-06-08_18-24-15_260595134347_rgbf000206-resize_3/000736_2014-06-08_18-24-15_260595134347_rgbf000206-resize_3-target.png,250,3.515,4,4416,240,feet,jsons/v1_VE250_randls_73.json,635429,837440,61,Woman
20,487132,DepthScenes,duration_manipulation_targetAtFixation,jsons/v1_VE250_randls_73.json,http://54.235.29.9/FacialAge/BNav_EC2/DepthDuration/v2_depth_duration_MTurk/v2_DepthDuration_HTML.html#172,172,1536,722,1536,864,8-30-2022,10-12-36,21,depth_duration_stimuli/000137_2014-05-20_17-04-49_260595134347_rgbf000120-resize_1/000137_2014-05-20_17-04-49_260595134347_rgbf000120-resize_1-target.png,250,3.786,4,5265,249,feet,jsons/v1_VE250_randls_73.json,635429,837440,61,Woman
21,487132,DepthScenes,duration_manipulation_targetAtFixation,jsons/v1_VE250_randls_73.json,http://54.235.29.9/FacialAge/BNav_EC2/DepthDuration/v2_depth_duration_MTurk/v2_DepthDuration_HTML.html#172,172,1536,722,1536,864,8-30-2022,10-12-36,22,depth_duration_stimuli/000447_2014-06-08_16-15-46_260595134347_rgbf000130-resize_1/000447_2014-06-08_16-15-46_260595134347_rgbf000130-resize_1-target.png,250,4.479,5,4693,251,feet,jsons/v1_VE250_randls_73.json,635429,837440,61,Woman
22,487132,DepthScenes,duration_manipulation_targetAtFixation,jsons/v1_VE250_randls_73.json,http://54.235.29.9/FacialAge/BNav_EC2/DepthDuration/v2_depth_duration_MTurk/v2_DepthDuration_HTML.html#172,172,1536,722,1536,864,8-30-2022,10-12-36,23,depth_duration_stimuli/001447_2014-06-19_17-00-32_260595134347_rgbf000082-resize_5/001447_2014-06-19_17-00-32_260595134347_rgbf000082-resize_5-target.png,250,4.13775,3,5106,253,feet,jsons/v1_VE250_randls_73.json,635429,837440,61,Woman
23,487132,DepthScenes,duration_manipulation_targetAtFixation,jsons/v1_VE250_randls_73.json,http://54.235.29.9/FacialAge/BNav_EC2/DepthDuration/v2_depth_duration_MTurk/v2_DepthDuration_HTML.html#172,172,1536,722,1536,864,8-30-2022,10-12-36,24,depth_duration_stimuli/002279_2014-06-28_18-55-32_260595134347_rgbf000040-resize_5/002279_2014-06-28_18-55-32_260595134347_rgbf000040-resize_5-target.png,250,1.5043333333333,2,8963,264,feet,jsons/v1_VE250_randls_73.json,635429,837440,61,Woman
24,487132,DepthScenes,duration_manipulation_targetAtFixation,jsons/v1_VE250_randls_73.json,http://54.235.29.9/FacialAge/BNav_EC2/DepthDuration/v2_depth_duration_MTurk/v2_DepthDuration_HTML.html#172,172,1536,722,1536,864,8-30-2022,10-12-36,25,depth_duration_stimuli/000635_2014-06-08_16-38-42_260595134347_rgbf000106-resize_1/000635_2014-06-08_16-38-42_260595134347_rgbf000106-resize_1-target.png,250,2.074,3,5607,250,feet,jsons/v1_VE250_randls_73.json,635429,837440,61,Woman
25,487132,DepthScenes,duration_manipulation_targetAtFixation,jsons/v1_VE250_randls_73.json,http://54.235.29.9/FacialAge/BNav_EC2/DepthDuration/v2_depth_duration_MTurk/v2_DepthDuration_HTML.html#172,172,1536,722,1536,864,8-30-2022,10-12-36,26,depth_duration_stimuli/000906_2014-06-08_13-35-43_260595134347_rgbf000155-resize_1/000906_2014-06-08_13-35-43_260595134347_rgbf000155-resize_1-target.png,250,2.8489999999999998,4,5118,257,feet,jsons/v1_VE250_randls_73.json,635429,837440,61,Woman
26,487132,DepthScenes,duration_manipulation_targetAtFixation,jsons/v1_VE250_randls_73.json,http://54.235.29.9/FacialAge/BNav_EC2/DepthDuration/v2_depth_duration_MTurk/v2_DepthDuration_HTML.html#172,172,1536,722,1536,864,8-30-2022,10-12-36,27,depth_duration_stimuli/002805_2014-06-22_19-54-03_094959634447_rgbf000079-resize_1/002805_2014-06-22_19-54-03_094959634447_rgbf000079-resize_1-target.png,250,3.1439999999999997,5,4483,260,feet,jsons/v1_VE250_randls_73.json,635429,837440,61,Woman
27,487132,DepthScenes,duration_manipulation_targetAtFixation,jsons/v1_VE250_randls_73.json,http://54.235.29.9/FacialAge/BNav_EC2/DepthDuration/v2_depth_duration_MTurk/v2_DepthDuration_HTML.html#172,172,1536,722,1536,864,8-30-2022,10-12-36,28,depth_duration_stimuli/000436_2014-06-09_22-25-11_260595134347_rgbf000137-resize_1/000436_2014-06-09_22-25-11_260595134347_rgbf000137-resize_1-target.png,250,4.0705,6,4577,251,feet,jsons/v1_VE250_randls_73.json,635429,837440,61,Woman
28,487132,DepthScenes,duration_manipulation_targetAtFixation,jsons/v1_VE250_randls_73.json,http://54.235.29.9/FacialAge/BNav_EC2/DepthDuration/v2_depth_duration_MTurk/v2_DepthDuration_HTML.html#172,172,1536,722,1536,864,8-30-2022,10-12-36,29,depth_duration_stimuli/002444_2014-06-28_20-32-08_260595134347_rgbf000027-resize_0/002444_2014-06-28_20-32-08_260595134347_rgbf000027-resize_0-target.png,250,4.388999999999999,5,4244,231,feet,jsons/v1_VE250_randls_73.json,635429,837440,61,Woman
29,487132,DepthScenes,duration_manipulation_targetAtFixation,jsons/v1_VE250_randls_73.json,http://54.235.29.9/FacialAge/BNav_EC2/DepthDuration/v2_depth_duration_MTurk/v2_DepthDuration_HTML.html#172,172,1536,722,1536,864,8-30-2022,10-12-36,30,depth_duration_stimuli/000375_2014-06-08_11-17-29_260595134347_rgbf000133-resize_2/000375_2014-06-08_11-17-29_260595134347_rgbf000133-resize-original.jpg,250,4.718,0,4408,265,feet,jsons/v1_VE250_randls_73.json,635429,837440,61,Woman
30,487132,DepthScenes,duration_manipulation_targetAtFixation,jsons/v1_VE250_randls_73.json,http://54.235.29.9/FacialAge/BNav_EC2/DepthDuration/v2_depth_duration_MTurk/v2_DepthDuration_HTML.html#172,172,1536,722,1536,864,8-30-2022,10-12-36,31,depth_duration_stimuli/000493_2014-06-09_21-01-18_260595134347_rgbf000196-resize_3/000493_2014-06-09_21-01-18_260595134347_rgbf000196-resize_3-target.png,250,3.44,3,4408,255,feet,jsons/v1_VE250_randls_73.json,635429,837440,61,Woman
31,487132,DepthScenes,duration_manipulation_targetAtFixation,jsons/v1_VE250_randls_73.json,http://54.235.29.9/FacialAge/BNav_EC2/DepthDuration/v2_depth_duration_MTurk/v2_DepthDuration_HTML.html#172,172,1536,722,1536,864,8-30-2022,10-12-36,32,depth_duration_stimuli/000191_2014-05-12_17-07-38_260595134347_rgbf000199-resize_0/000191_2014-05-12_17-07-38_260595134347_rgbf000199-resize_0-target.png,250,3.7995,5,4750,250,feet,jsons/v1_VE250_randls_73.json,635429,837440,61,Woman
32,487132,DepthScenes,duration_manipulation_targetAtFixation,jsons/v1_VE250_randls_73.json,http://54.235.29.9/FacialAge/BNav_EC2/DepthDuration/v2_depth_duration_MTurk/v2_DepthDuration_HTML.html#172,172,1536,722,1536,864,8-30-2022,10-12-36,33,depth_duration_stimuli/000917_2014-06-09_22-45-29_260595134347_rgbf000149-resize_3/000917_2014-06-09_22-45-29_260595134347_rgbf000149-resize_3-target.png,250,4.1865,5,4387,252,feet,jsons/v1_VE250_randls_73.json,635429,837440,61,Woman
33,487132,DepthScenes,duration_manipulation_targetAtFixation,jsons/v1_VE250_randls_73.json,http://54.235.29.9/FacialAge/BNav_EC2/DepthDuration/v2_depth_duration_MTurk/v2_DepthDuration_HTML.html#172,172,1536,722,1536,864,8-30-2022,10-12-36,34,depth_duration_stimuli/002323_2014-06-28_20-01-54_260595134347_rgbf000051-resize_4/002323_2014-06-28_20-01-54_260595134347_rgbf000051-resize_4-target.png,250,3.7310000000000003,4,4606,249,feet,jsons/v1_VE250_randls_73.json,635429,837440,61,Woman
34,487132,DepthScenes,duration_manipulation_targetAtFixation,jsons/v1_VE250_randls_73.json,http://54.235.29.9/FacialAge/BNav_EC2/DepthDuration/v2_depth_duration_MTurk/v2_DepthDuration_HTML.html#172,172,1536,722,1536,864,8-30-2022,10-12-36,35,depth_duration_stimuli/000878_2014-06-08_22-52-45_260595134347_rgbf000045-resize_2/000878_2014-06-08_22-52-45_260595134347_rgbf000045-resize_2-target.png,250,2.092,3,4491,251,feet,jsons/v1_VE250_randls_73.json,635429,837440,61,Woman
35,487132,DepthScenes,duration_manipulation_targetAtFixation,jsons/v1_VE250_randls_73.json,http://54.235.29.9/FacialAge/BNav_EC2/DepthDuration/v2_depth_duration_MTurk/v2_DepthDuration_HTML.html#172,172,1536,722,1536,864,8-30-2022,10-12-36,36,depth_duration_stimuli/002953_2014-06-08_17-32-18_094959634447_rgbf000059-resize_5/002953_2014-06-08_17-32-18_094959634447_rgbf000059-resize_5-target.png,250,1.551,2,3752,260,feet,jsons/v1_VE250_randls_73.json,635429,837440,61,Woman
36,487132,DepthScenes,duration_manipulation_targetAtFixation,jsons/v1_VE250_randls_73.json,http://54.235.29.9/FacialAge/BNav_EC2/DepthDuration/v2_depth_duration_MTurk/v2_DepthDuration_HTML.html#172,172,1536,722,1536,864,8-30-2022,10-12-36,37,depth_duration_stimuli/000758_2014-06-08_22-05-08_260595134347_rgbf000085-resize_0/000758_2014-06-08_22-05-08_260595134347_rgbf000085-resize_0-target.png,250,3.3810000000000002,4,3982,227,feet,jsons/v1_VE250_randls_73.json,635429,837440,61,Woman
37,487132,DepthScenes,duration_manipulation_targetAtFixation,jsons/v1_VE250_randls_73.json,http://54.235.29.9/FacialAge/BNav_EC2/DepthDuration/v2_depth_duration_MTurk/v2_DepthDuration_HTML.html#172,172,1536,722,1536,864,8-30-2022,10-12-36,38,depth_duration_stimuli/000854_2014-06-09_19-43-13_260595134347_rgbf000066-resize_0/000854_2014-06-09_19-43-13_260595134347_rgbf000066-resize_0-target.png,250,3.068,3,3806,249,feet,jsons/v1_VE250_randls_73.json,635429,837440,61,Woman
38,487132,DepthScenes,duration_manipulation_targetAtFixation,jsons/v1_VE250_randls_73.json,http://54.235.29.9/FacialAge/BNav_EC2/DepthDuration/v2_depth_duration_MTurk/v2_DepthDuration_HTML.html#172,172,1536,722,1536,864,8-30-2022,10-12-36,39,depth_duration_stimuli/002153_2014-06-25_21-27-18_260595134347_rgbf000038-resize_5/002153_2014-06-25_21-27-18_260595134347_rgbf000038-resize_5-target.png,250,2.505,3,3033,235,feet,jsons/v1_VE250_randls_73.json,635429,837440,61,Woman
39,487132,DepthScenes,duration_manipulation_targetAtFixation,jsons/v1_VE250_randls_73.json,http://54.235.29.9/FacialAge/BNav_EC2/DepthDuration/v2_depth_duration_MTurk/v2_DepthDuration_HTML.html#172,172,1536,722,1536,864,8-30-2022,10-12-36,40,depth_duration_stimuli/002660_2014-06-13_15-44-18_094959634447_rgbf001878-resize_2/002660_2014-06-13_15-44-18_094959634447_rgbf001878-resize_2-target.png,250,3.576,5,3099,251,feet,jsons/v1_VE250_randls_73.json,635429,837440,61,Woman
40,487132,DepthScenes,duration_manipulation_targetAtFixation,jsons/v1_VE250_randls_73.json,http://54.235.29.9/FacialAge/BNav_EC2/DepthDuration/v2_depth_duration_MTurk/v2_DepthDuration_HTML.html#172,172,1536,722,1536,864,8-30-2022,10-12-36,41,depth_duration_stimuli/001055_2014-06-08_18-45-35_260595134347_rgbf000111-resize_4/001055_2014-06-08_18-45-35_260595134347_rgbf000111-resize_4-target.png,250,2.4290000000000003,5,3383,248,feet,jsons/v1_VE250_randls_73.json,635429,837440,61,Woman
41,487132,DepthScenes,duration_manipulation_targetAtFixation,jsons/v1_VE250_randls_73.json,http://54.235.29.9/FacialAge/BNav_EC2/DepthDuration/v2_depth_duration_MTurk/v2_DepthDuration_HTML.html#172,172,1536,722,1536,864,8-30-2022,10-12-36,42,depth_duration_stimuli/000549_2014-06-08_22-10-24_260595134347_rgbf000247-resize_3/000549_2014-06-08_22-10-24_260595134347_rgbf000247-resize_3-target.png,250,1.841,2,3662,232,feet,jsons/v1_VE250_randls_73.json,635429,837440,61,Woman
42,487132,DepthScenes,duration_manipulation_targetAtFixation,jsons/v1_VE250_randls_73.json,http://54.235.29.9/FacialAge/BNav_EC2/DepthDuration/v2_depth_duration_MTurk/v2_DepthDuration_HTML.html#172,172,1536,722,1536,864,8-30-2022,10-12-36,43,depth_duration_stimuli/002725_2014-06-22_11-47-51_094959634447_rgbf000070-resize_1/002725_2014-06-22_11-47-51_094959634447_rgbf000070-resize_1-target.png,250,2.195,3,2726,250,feet,jsons/v1_VE250_randls_73.json,635429,837440,61,Woman
43,487132,DepthScenes,duration_manipulation_targetAtFixation,jsons/v1_VE250_randls_73.json,http://54.235.29.9/FacialAge/BNav_EC2/DepthDuration/v2_depth_duration_MTurk/v2_DepthDuration_HTML.html#172,172,1536,722,1536,864,8-30-2022,10-12-36,44,depth_duration_stimuli/002344_2014-06-28_20-06-29_260595134347_rgbf000030-resize_1/002344_2014-06-28_20-06-29_260595134347_rgbf000030-resize_1-target.png,250,1.5795,1,3407,252,feet,jsons/v1_VE250_randls_73.json,635429,837440,61,Woman
44,487132,DepthScenes,duration_manipulation_targetAtFixation,jsons/v1_VE250_randls_73.json,http://54.235.29.9/FacialAge/BNav_EC2/DepthDuration/v2_depth_duration_MTurk/v2_DepthDuration_HTML.html#172,172,1536,722,1536,864,8-30-2022,10-12-36,45,depth_duration_stimuli/000787_2014-06-08_22-33-53_260595134347_rgbf000175-resize_1/000787_2014-06-08_22-33-53_260595134347_rgbf000175-resize-original.jpg,250,4.784,0,3185,249,feet,jsons/v1_VE250_randls_73.json,635429,837440,61,Woman
45,487132,DepthScenes,duration_manipulation_targetAtFixation,jsons/v1_VE250_randls_73.json,http://54.235.29.9/FacialAge/BNav_EC2/DepthDuration/v2_depth_duration_MTurk/v2_DepthDuration_HTML.html#172,172,1536,722,1536,864,8-30-2022,10-12-36,46,depth_duration_stimuli/002784_2014-06-22_19-26-30_094959634447_rgbf000083-resize_3/002784_2014-06-22_19-26-30_094959634447_rgbf000083-resize_3-target.png,250,1.8046666666667,1,4347,253,feet,jsons/v1_VE250_randls_73.json,635429,837440,61,Woman
46,487132,DepthScenes,duration_manipulation_targetAtFixation,jsons/v1_VE250_randls_73.json,http://54.235.29.9/FacialAge/BNav_EC2/DepthDuration/v2_depth_duration_MTurk/v2_DepthDuration_HTML.html#172,172,1536,722,1536,864,8-30-2022,10-12-36,47,depth_duration_stimuli/001100_2014-06-15_17-46-26_260595134347_rgbf000225-resize_2/001100_2014-06-15_17-46-26_260595134347_rgbf000225-resize_2-target.png,250,2.24,2,2901,251,feet,jsons/v1_VE250_randls_73.json,635429,837440,61,Woman
47,487132,DepthScenes,duration_manipulation_targetAtFixation,jsons/v1_VE250_randls_73.json,http://54.235.29.9/FacialAge/BNav_EC2/DepthDuration/v2_depth_duration_MTurk/v2_DepthDuration_HTML.html#172,172,1536,722,1536,864,8-30-2022,10-12-36,48,depth_duration_stimuli/001016_2014-06-09_16-16-10_260595134347_rgbf000112-resize_5/001016_2014-06-09_16-16-10_260595134347_rgbf000112-resize_5-target.png,250,1.6565,4,3241,238,feet,jsons/v1_VE250_randls_73.json,635429,837440,61,Woman
48,487132,DepthScenes,duration_manipulation_targetAtFixation,jsons/v1_VE250_randls_73.json,http://54.235.29.9/FacialAge/BNav_EC2/DepthDuration/v2_depth_duration_MTurk/v2_DepthDuration_HTML.html#172,172,1536,722,1536,864,8-30-2022,10-12-36,49,depth_duration_stimuli/002340_2014-06-28_20-05-46_260595134347_rgbf000113-resize_0/002340_2014-06-28_20-05-46_260595134347_rgbf000113-resize_0-target.png,250,2.4735,3,2672,239,feet,jsons/v1_VE250_randls_73.json,635429,837440,61,Woman
49,487132,DepthScenes,duration_manipulation_targetAtFixation,jsons/v1_VE250_randls_73.json,http://54.235.29.9/FacialAge/BNav_EC2/DepthDuration/v2_depth_duration_MTurk/v2_DepthDuration_HTML.html#172,172,1536,722,1536,864,8-30-2022,10-12-36,50,depth_duration_stimuli/003621_2014-05-23_18-06-08_094959634447_rgbf000101-resize_1/003621_2014-05-23_18-06-08_094959634447_rgbf000101-resize_1-target.png,250,3.9835,5,3085,255,feet,jsons/v1_VE250_randls_73.json,635429,837440,61,Woman
50,487132,DepthScenes,duration_manipulation_targetAtFixation,jsons/v1_VE250_randls_73.json,http://54.235.29.9/FacialAge/BNav_EC2/DepthDuration/v2_depth_duration_MTurk/v2_DepthDuration_HTML.html#172,172,1536,722,1536,864,8-30-2022,10-12-36,51,depth_duration_stimuli/001584_2014-06-20_11-07-43_260595134347_rgbf000002-resize_1/001584_2014-06-20_11-07-43_260595134347_rgbf000002-resize_1-target.png,250,3.53,3,2757,251,feet,jsons/v1_VE250_randls_73.json,635429,837440,61,Woman
51,487132,DepthScenes,duration_manipulation_targetAtFixation,jsons/v1_VE250_randls_73.json,http://54.235.29.9/FacialAge/BNav_EC2/DepthDuration/v2_depth_duration_MTurk/v2_DepthDuration_HTML.html#172,172,1536,722,1536,864,8-30-2022,10-12-36,52,depth_duration_stimuli/002549_2014-06-24_13-41-39_094959634447_rgbf000022-resize_3/002549_2014-06-24_13-41-39_094959634447_rgbf000022-resize_3-target.png,250,1.476,3,3123,254,feet,jsons/v1_VE250_randls_73.json,635429,837440,61,Woman
52,487132,DepthScenes,duration_manipulation_targetAtFixation,jsons/v1_VE250_randls_73.json,http://54.235.29.9/FacialAge/BNav_EC2/DepthDuration/v2_depth_duration_MTurk/v2_DepthDuration_HTML.html#172,172,1536,722,1536,864,8-30-2022,10-12-36,53,depth_duration_stimuli/002750_2014-06-22_19-08-03_094959634447_rgbf000094-resize_4/002750_2014-06-22_19-08-03_094959634447_rgbf000094-resize_4-target.png,250,2.354,5,3148,265,feet,jsons/v1_VE250_randls_73.json,635429,837440,61,Woman
53,487132,DepthScenes,duration_manipulation_targetAtFixation,jsons/v1_VE250_randls_73.json,http://54.235.29.9/FacialAge/BNav_EC2/DepthDuration/v2_depth_duration_MTurk/v2_DepthDuration_HTML.html#172,172,1536,722,1536,864,8-30-2022,10-12-36,54,depth_duration_stimuli/002570_2014-06-24_13-59-54_094959634447_rgbf000059-resize_0/002570_2014-06-24_13-59-54_094959634447_rgbf000059-resize_0-target.png,250,4.037,4,3177,250,feet,jsons/v1_VE250_randls_73.json,635429,837440,61,Woman
54,487132,DepthScenes,duration_manipulation_targetAtFixation,jsons/v1_VE250_randls_73.json,http://54.235.29.9/FacialAge/BNav_EC2/DepthDuration/v2_depth_duration_MTurk/v2_DepthDuration_HTML.html#172,172,1536,722,1536,864,8-30-2022,10-12-36,55,depth_duration_stimuli/002467_2014-06-28_20-38-07_260595134347_rgbf000026-resize_2/002467_2014-06-28_20-38-07_260595134347_rgbf000026-resize_2-target.png,250,4.742,8,3306,249,feet,jsons/v1_VE250_randls_73.json,635429,837440,61,Woman
55,487132,DepthScenes,duration_manipulation_targetAtFixation,jsons/v1_VE250_randls_73.json,http://54.235.29.9/FacialAge/BNav_EC2/DepthDuration/v2_depth_duration_MTurk/v2_DepthDuration_HTML.html#172,172,1536,722,1536,864,8-30-2022,10-12-36,56,depth_duration_stimuli/001029_2014-06-08_13-17-57_260595134347_rgbf000065-resize_1/001029_2014-06-08_13-17-57_260595134347_rgbf000065-resize_1-target.png,250,3.0835,4,3030,239,feet,jsons/v1_VE250_randls_73.json,635429,837440,61,Woman
56,487132,DepthScenes,duration_manipulation_targetAtFixation,jsons/v1_VE250_randls_73.json,http://54.235.29.9/FacialAge/BNav_EC2/DepthDuration/v2_depth_duration_MTurk/v2_DepthDuration_HTML.html#172,172,1536,722,1536,864,8-30-2022,10-12-36,57,depth_duration_stimuli/000677_2014-06-08_23-10-32_260595134347_rgbf000158-resize_6/000677_2014-06-08_23-10-32_260595134347_rgbf000158-resize_6-target.png,250,3.556,5,3722,250,feet,jsons/v1_VE250_randls_73.json,635429,837440,61,Woman
57,487132,DepthScenes,duration_manipulation_targetAtFixation,jsons/v1_VE250_randls_73.json,http://54.235.29.9/FacialAge/BNav_EC2/DepthDuration/v2_depth_duration_MTurk/v2_DepthDuration_HTML.html#172,172,1536,722,1536,864,8-30-2022,10-12-36,58,depth_duration_stimuli/001808_2014-06-26_20-50-58_260595134347_rgbf000029-resize_1/001808_2014-06-26_20-50-58_260595134347_rgbf000029-resize_1-target.png,250,4.249,6,3401,251,feet,jsons/v1_VE250_randls_73.json,635429,837440,61,Woman
58,487132,DepthScenes,duration_manipulation_targetAtFixation,jsons/v1_VE250_randls_73.json,http://54.235.29.9/FacialAge/BNav_EC2/DepthDuration/v2_depth_duration_MTurk/v2_DepthDuration_HTML.html#172,172,1536,722,1536,864,8-30-2022,10-12-36,59,depth_duration_stimuli/001815_2014-06-26_20-52-55_260595134347_rgbf000020-resize_0/001815_2014-06-26_20-52-55_260595134347_rgbf000020-resize_0-target.png,250,3.3865,6,3591,249,feet,jsons/v1_VE250_randls_73.json,635429,837440,61,Woman
59,487132,DepthScenes,duration_manipulation_targetAtFixation,jsons/v1_VE250_randls_73.json,http://54.235.29.9/FacialAge/BNav_EC2/DepthDuration/v2_depth_duration_MTurk/v2_DepthDuration_HTML.html#172,172,1536,722,1536,864,8-30-2022,10-12-36,60,depth_duration_stimuli/001806_2014-06-26_20-50-20_260595134347_rgbf000091-resize_1/001806_2014-06-26_20-50-20_260595134347_rgbf000091-resize_1-target.png,250,2.7305,3,2922,246,feet,jsons/v1_VE250_randls_73.json,635429,837440,61,Woman
60,487132,DepthScenes,duration_manipulation_targetAtFixation,jsons/v1_VE250_randls_73.json,http://54.235.29.9/FacialAge/BNav_EC2/DepthDuration/v2_depth_duration_MTurk/v2_DepthDuration_HTML.html#172,172,1536,722,1536,864,8-30-2022,10-12-36,61,depth_duration_stimuli/001617_2014-06-20_11-35-32_260595134347_rgbf000066-resize_1/001617_2014-06-20_11-35-32_260595134347_rgbf000066-resize_1-target.png,250,3.7910000000000004,6,3080,254,feet,jsons/v1_VE250_randls_73.json,635429,837440,61,Woman
61,487132,DepthScenes,duration_manipulation_targetAtFixation,jsons/v1_VE250_randls_73.json,http://54.235.29.9/FacialAge/BNav_EC2/DepthDuration/v2_depth_duration_MTurk/v2_DepthDuration_HTML.html#172,172,1536,722,1536,864,8-30-2022,10-12-36,62,depth_duration_stimuli/001158_2014-06-17_15-32-16_260595134347_rgbf000138-resize_2/001158_2014-06-17_15-32-16_260595134347_rgbf000138-resize_2-target.png,250,4.5315,8,2994,261,feet,jsons/v1_VE250_randls_73.json,635429,837440,61,Woman
62,487132,DepthScenes,duration_manipulation_targetAtFixation,jsons/v1_VE250_randls_73.json,http://54.235.29.9/FacialAge/BNav_EC2/DepthDuration/v2_depth_duration_MTurk/v2_DepthDuration_HTML.html#172,172,1536,722,1536,864,8-30-2022,10-12-36,63,depth_duration_stimuli/000556_2014-06-09_22-42-56_260595134347_rgbf000214-resize_1/000556_2014-06-09_22-42-56_260595134347_rgbf000214-resize_1-target.png,250,4.8415,6,2960,250,feet,jsons/v1_VE250_randls_73.json,635429,837440,61,Woman
63,487132,DepthScenes,duration_manipulation_targetAtFixation,jsons/v1_VE250_randls_73.json,http://54.235.29.9/FacialAge/BNav_EC2/DepthDuration/v2_depth_duration_MTurk/v2_DepthDuration_HTML.html#172,172,1536,722,1536,864,8-30-2022,10-12-36,64,depth_duration_stimuli/002039_2014-06-24_20-22-38_260595134347_rgbf000084-resize_1/002039_2014-06-24_20-22-38_260595134347_rgbf000084-resize_1-target.png,250,4.408,7,2987,250,feet,jsons/v1_VE250_randls_73.json,635429,837440,61,Woman
64,487132,DepthScenes,duration_manipulation_targetAtFixation,jsons/v1_VE250_randls_73.json,http://54.235.29.9/FacialAge/BNav_EC2/DepthDuration/v2_depth_duration_MTurk/v2_DepthDuration_HTML.html#172,172,1536,722,1536,864,8-30-2022,10-12-36,65,depth_duration_stimuli/002103_2014-06-25_20-00-40_260595134347_rgbf000049-resize_0/002103_2014-06-25_20-00-40_260595134347_rgbf000049-resize_0-target.png,250,4.105,3,3402,252,feet,jsons/v1_VE250_randls_73.json,635429,837440,61,Woman
65,487132,DepthScenes,duration_manipulation_targetAtFixation,jsons/v1_VE250_randls_73.json,http://54.235.29.9/FacialAge/BNav_EC2/DepthDuration/v2_depth_duration_MTurk/v2_DepthDuration_HTML.html#172,172,1536,722,1536,864,8-30-2022,10-12-36,66,depth_duration_stimuli/001222_2014-06-17_16-24-06_260595134347_rgbf000073-resize_0/001222_2014-06-17_16-24-06_260595134347_rgbf000073-resize-original.jpg,250,1.4385,9,3343,252,feet,jsons/v1_VE250_randls_73.json,635429,837440,61,Woman
66,487132,DepthScenes,duration_manipulation_targetAtFixation,jsons/v1_VE250_randls_73.json,http://54.235.29.9/FacialAge/BNav_EC2/DepthDuration/v2_depth_duration_MTurk/v2_DepthDuration_HTML.html#172,172,1536,722,1536,864,8-30-2022,10-12-36,67,depth_duration_stimuli/001449_2014-06-19_17-01-27_260595134347_rgbf000116-resize_2/001449_2014-06-19_17-01-27_260595134347_rgbf000116-resize_2-target.png,250,3.452,4,2976,256,feet,jsons/v1_VE250_randls_73.json,635429,837440,61,Woman
67,487132,DepthScenes,duration_manipulation_targetAtFixation,jsons/v1_VE250_randls_73.json,http://54.235.29.9/FacialAge/BNav_EC2/DepthDuration/v2_depth_duration_MTurk/v2_DepthDuration_HTML.html#172,172,1536,722,1536,864,8-30-2022,10-12-36,68,depth_duration_stimuli/001450_2014-06-19_17-02-03_260595134347_rgbf000203-resize_4/001450_2014-06-19_17-02-03_260595134347_rgbf000203-resize_4-target.png,250,4.0106666666667,5,2898,249,feet,jsons/v1_VE250_randls_73.json,635429,837440,61,Woman
68,487132,DepthScenes,duration_manipulation_targetAtFixation,jsons/v1_VE250_randls_73.json,http://54.235.29.9/FacialAge/BNav_EC2/DepthDuration/v2_depth_duration_MTurk/v2_DepthDuration_HTML.html#172,172,1536,722,1536,864,8-30-2022,10-12-36,69,depth_duration_stimuli/001199_2014-06-17_16-03-48_260595134347_rgbf000077-resize_0/001199_2014-06-17_16-03-48_260595134347_rgbf000077-resize_0-target.png,250,3.4375,6,2743,259,feet,jsons/v1_VE250_randls_73.json,635429,837440,61,Woman
69,487132,DepthScenes,duration_manipulation_targetAtFixation,jsons/v1_VE250_randls_73.json,http://54.235.29.9/FacialAge/BNav_EC2/DepthDuration/v2_depth_duration_MTurk/v2_DepthDuration_HTML.html#172,172,1536,722,1536,864,8-30-2022,10-12-36,70,depth_duration_stimuli/000502_2014-06-08_23-02-32_260595134347_rgbf000063-resize_4/000502_2014-06-08_23-02-32_260595134347_rgbf000063-resize_4-target.png,250,2.431,3,2803,250,feet,jsons/v1_VE250_randls_73.json,635429,837440,61,Woman
70,487132,DepthScenes,duration_manipulation_targetAtFixation,jsons/v1_VE250_randls_73.json,http://54.235.29.9/FacialAge/BNav_EC2/DepthDuration/v2_depth_duration_MTurk/v2_DepthDuration_HTML.html#172,172,1536,722,1536,864,8-30-2022,10-12-36,71,depth_duration_stimuli/000469_2014-06-09_19-42-10_260595134347_rgbf000081-resize_1/000469_2014-06-09_19-42-10_260595134347_rgbf000081-resize_1-target.png,250,1.652,2,3125,251,feet,jsons/v1_VE250_randls_73.json,635429,837440,61,Woman
71,487132,DepthScenes,duration_manipulation_targetAtFixation,jsons/v1_VE250_randls_73.json,http://54.235.29.9/FacialAge/BNav_EC2/DepthDuration/v2_depth_duration_MTurk/v2_DepthDuration_HTML.html#172,172,1536,722,1536,864,8-30-2022,10-12-36,72,depth_duration_stimuli/000483_2014-06-09_20-41-45_260595134347_rgbf000116-resize_4/000483_2014-06-09_20-41-45_260595134347_rgbf000116-resize_4-target.png,250,1.337,2,3044,251,feet,jsons/v1_VE250_randls_73.json,635429,837440,61,Woman
72,487132,DepthScenes,duration_manipulation_targetAtFixation,jsons/v1_VE250_randls_73.json,http://54.235.29.9/FacialAge/BNav_EC2/DepthDuration/v2_depth_duration_MTurk/v2_DepthDuration_HTML.html#172,172,1536,722,1536,864,8-30-2022,10-12-36,73,depth_duration_stimuli/002964_2014-06-08_17-46-11_094959634447_rgbf000091-resize_4/002964_2014-06-08_17-46-11_094959634447_rgbf000091-resize_4-target.png,250,1.6909999999999998,3,3272,237,feet,jsons/v1_VE250_randls_73.json,635429,837440,61,Woman
73,487132,DepthScenes,duration_manipulation_targetAtFixation,jsons/v1_VE250_randls_73.json,http://54.235.29.9/FacialAge/BNav_EC2/DepthDuration/v2_depth_duration_MTurk/v2_DepthDuration_HTML.html#172,172,1536,722,1536,864,8-30-2022,10-12-36,74,depth_duration_stimuli/002136_2014-06-25_21-18-03_260595134347_rgbf000109-resize_3/002136_2014-06-25_21-18-03_260595134347_rgbf000109-resize_3-target.png,250,1.9569999999999999,3,3031,252,feet,jsons/v1_VE250_randls_73.json,635429,837440,61,Woman
74,487132,DepthScenes,duration_manipulation_targetAtFixation,jsons/v1_VE250_randls_73.json,http://54.235.29.9/FacialAge/BNav_EC2/DepthDuration/v2_depth_duration_MTurk/v2_DepthDuration_HTML.html#172,172,1536,722,1536,864,8-30-2022,10-12-36,75,depth_duration_stimuli/001150_2014-06-17_15-27-34_260595134347_rgbf000108-resize_2/001150_2014-06-17_15-27-34_260595134347_rgbf000108-resize_2-target.png,250,4.0325,6,3191,255,feet,jsons/v1_VE250_randls_73.json,635429,837440,61,Woman
75,487132,DepthScenes,duration_manipulation_targetAtFixation,jsons/v1_VE250_randls_73.json,http://54.235.29.9/FacialAge/BNav_EC2/DepthDuration/v2_depth_duration_MTurk/v2_DepthDuration_HTML.html#172,172,1536,722,1536,864,8-30-2022,10-12-36,76,depth_duration_stimuli/000665_2014-06-09_20-42-35_260595134347_rgbf000110-resize_1/000665_2014-06-09_20-42-35_260595134347_rgbf000110-resize_1-target.png,250,3.057,5,2723,263,feet,jsons/v1_VE250_randls_73.json,635429,837440,61,Woman
76,487132,DepthScenes,duration_manipulation_targetAtFixation,jsons/v1_VE250_randls_73.json,http://54.235.29.9/FacialAge/BNav_EC2/DepthDuration/v2_depth_duration_MTurk/v2_DepthDuration_HTML.html#172,172,1536,722,1536,864,8-30-2022,10-12-36,77,depth_duration_stimuli/000414_2014-06-04_19-49-13_260595134347_rgbf000044-resize_0/000414_2014-06-04_19-49-13_260595134347_rgbf000044-resize_0-target.png,250,4.329,7,3023,266,feet,jsons/v1_VE250_randls_73.json,635429,837440,61,Woman
77,487132,DepthScenes,duration_manipulation_targetAtFixation,jsons/v1_VE250_randls_73.json,http://54.235.29.9/FacialAge/BNav_EC2/DepthDuration/v2_depth_duration_MTurk/v2_DepthDuration_HTML.html#172,172,1536,722,1536,864,8-30-2022,10-12-36,78,depth_duration_stimuli/003129_2014-05-12_10-48-10_094959634447_rgbf000100-resize_0/003129_2014-05-12_10-48-10_094959634447_rgbf000100-resize_0-target.png,250,4.9305,8,2924,252,feet,jsons/v1_VE250_randls_73.json,635429,837440,61,Woman
78,487132,DepthScenes,duration_manipulation_targetAtFixation,jsons/v1_VE250_randls_73.json,http://54.235.29.9/FacialAge/BNav_EC2/DepthDuration/v2_depth_duration_MTurk/v2_DepthDuration_HTML.html#172,172,1536,722,1536,864,8-30-2022,10-12-36,79,depth_duration_stimuli/000773_2014-06-08_22-24-54_260595134347_rgbf000093-resize_1/000773_2014-06-08_22-24-54_260595134347_rgbf000093-resize_1-target.png,250,4.973,6,2811,248,feet,jsons/v1_VE250_randls_73.json,635429,837440,61,Woman
79,487132,DepthScenes,duration_manipulation_targetAtFixation,jsons/v1_VE250_randls_73.json,http://54.235.29.9/FacialAge/BNav_EC2/DepthDuration/v2_depth_duration_MTurk/v2_DepthDuration_HTML.html#172,172,1536,722,1536,864,8-30-2022,10-12-36,80,depth_duration_stimuli/002414_2014-06-28_20-24-58_260595134347_rgbf000067-resize_4/002414_2014-06-28_20-24-58_260595134347_rgbf000067-resize_4-target.png,250,4.363,7,3244,250,feet,jsons/v1_VE250_randls_73.json,635429,837440,61,Woman
80,487132,DepthScenes,duration_manipulation_targetAtFixation,jsons/v1_VE250_randls_73.json,http://54.235.29.9/FacialAge/BNav_EC2/DepthDuration/v2_depth_duration_MTurk/v2_DepthDuration_HTML.html#172,172,1536,722,1536,864,8-30-2022,10-12-36,81,depth_duration_stimuli/002057_2014-06-24_21-00-13_260595134347_rgbf000120-resize_1/002057_2014-06-24_21-00-13_260595134347_rgbf000120-resize_1-target.png,250,2.967,6,3254,250,feet,jsons/v1_VE250_randls_73.json,635429,837440,61,Woman
81,487132,DepthScenes,duration_manipulation_targetAtFixation,jsons/v1_VE250_randls_73.json,http://54.235.29.9/FacialAge/BNav_EC2/DepthDuration/v2_depth_duration_MTurk/v2_DepthDuration_HTML.html#172,172,1536,722,1536,864,8-30-2022,10-12-36,82,depth_duration_stimuli/000709_2014-06-08_13-51-55_260595134347_rgbf000068-resize_3/000709_2014-06-08_13-51-55_260595134347_rgbf000068-resize_3-target.png,250,1.8030000000000002,3,2848,248,feet,jsons/v1_VE250_randls_73.json,635429,837440,61,Woman
82,487132,DepthScenes,duration_manipulation_targetAtFixation,jsons/v1_VE250_randls_73.json,http://54.235.29.9/FacialAge/BNav_EC2/DepthDuration/v2_depth_duration_MTurk/v2_DepthDuration_HTML.html#172,172,1536,722,1536,864,8-30-2022,10-12-36,83,depth_duration_stimuli/002600_2014-06-24_14-27-04_094959634447_rgbf000074-resize_2/002600_2014-06-24_14-27-04_094959634447_rgbf000074-resize_2-target.png,250,2.7575,4,2703,258,feet,jsons/v1_VE250_randls_73.json,635429,837440,61,Woman
83,487132,DepthScenes,duration_manipulation_targetAtFixation,jsons/v1_VE250_randls_73.json,http://54.235.29.9/FacialAge/BNav_EC2/DepthDuration/v2_depth_duration_MTurk/v2_DepthDuration_HTML.html#172,172,1536,722,1536,864,8-30-2022,10-12-36,84,depth_duration_stimuli/003228_2014-05-14_13-42-35_094959634447_rgbf000101-resize_1/003228_2014-05-14_13-42-35_094959634447_rgbf000101-resize_1-target.png,250,1.9680000000000002,3,2622,251,feet,jsons/v1_VE250_randls_73.json,635429,837440,61,Woman
84,487132,DepthScenes,duration_manipulation_targetAtFixation,jsons/v1_VE250_randls_73.json,http://54.235.29.9/FacialAge/BNav_EC2/DepthDuration/v2_depth_duration_MTurk/v2_DepthDuration_HTML.html#172,172,1536,722,1536,864,8-30-2022,10-12-36,85,depth_duration_stimuli/002213_2014-06-28_18-37-58_260595134347_rgbf000055-resize_1/002213_2014-06-28_18-37-58_260595134347_rgbf000055-resize_1-target.png,250,3.62,5,2574,250,feet,jsons/v1_VE250_randls_73.json,635429,837440,61,Woman
85,487132,DepthScenes,duration_manipulation_targetAtFixation,jsons/v1_VE250_randls_73.json,http://54.235.29.9/FacialAge/BNav_EC2/DepthDuration/v2_depth_duration_MTurk/v2_DepthDuration_HTML.html#172,172,1536,722,1536,864,8-30-2022,10-12-36,86,depth_duration_stimuli/000691_2014-06-08_13-08-50_260595134347_rgbf000132-resize_3/000691_2014-06-08_13-08-50_260595134347_rgbf000132-resize_3-target.png,250,4.1530000000000005,6,2650,250,feet,jsons/v1_VE250_randls_73.json,635429,837440,61,Woman
86,487132,DepthScenes,duration_manipulation_targetAtFixation,jsons/v1_VE250_randls_73.json,http://54.235.29.9/FacialAge/BNav_EC2/DepthDuration/v2_depth_duration_MTurk/v2_DepthDuration_HTML.html#172,172,1536,722,1536,864,8-30-2022,10-12-36,87,depth_duration_stimuli/002763_2014-06-22_19-13-10_094959634447_rgbf000075-resize_4/002763_2014-06-22_19-13-10_094959634447_rgbf000075-resize_4-target.png,250,1.68375,3,2850,248,feet,jsons/v1_VE250_randls_73.json,635429,837440,61,Woman
87,487132,DepthScenes,duration_manipulation_targetAtFixation,jsons/v1_VE250_randls_73.json,http://54.235.29.9/FacialAge/BNav_EC2/DepthDuration/v2_depth_duration_MTurk/v2_DepthDuration_HTML.html#172,172,1536,722,1536,864,8-30-2022,10-12-36,88,depth_duration_stimuli/002209_2014-06-28_18-36-10_260595134347_rgbf000051-resize_1/002209_2014-06-28_18-36-10_260595134347_rgbf000051-resize_1-target.png,250,2.057,3,2804,255,feet,jsons/v1_VE250_randls_73.json,635429,837440,61,Woman
88,487132,DepthScenes,duration_manipulation_targetAtFixation,jsons/v1_VE250_randls_73.json,http://54.235.29.9/FacialAge/BNav_EC2/DepthDuration/v2_depth_duration_MTurk/v2_DepthDuration_HTML.html#172,172,1536,722,1536,864,8-30-2022,10-12-36,89,depth_duration_stimuli/000486_2014-06-09_20-47-20_260595134347_rgbf000143-resize_2/000486_2014-06-09_20-47-20_260595134347_rgbf000143-resize_2-target.png,250,4.8325,4,2535,253,feet,jsons/v1_VE250_randls_73.json,635429,837440,61,Woman
89,487132,DepthScenes,duration_manipulation_targetAtFixation,jsons/v1_VE250_randls_73.json,http://54.235.29.9/FacialAge/BNav_EC2/DepthDuration/v2_depth_duration_MTurk/v2_DepthDuration_HTML.html#172,172,1536,722,1536,864,8-30-2022,10-12-36,90,depth_duration_stimuli/003083_2014-06-15_15-21-03_094959634447_rgbf000063-resize_1/003083_2014-06-15_15-21-03_094959634447_rgbf000063-resize_1-target.png,250,4.1405,5,2545,239,feet,jsons/v1_VE250_randls_73.json,635429,837440,61,Woman
90,487132,DepthScenes,duration_manipulation_targetAtFixation,jsons/v1_VE250_randls_73.json,http://54.235.29.9/FacialAge/BNav_EC2/DepthDuration/v2_depth_duration_MTurk/v2_DepthDuration_HTML.html#172,172,1536,722,1536,864,8-30-2022,10-12-36,91,depth_duration_stimuli/001110_2014-06-15_17-25-28_260595134347_rgbf000150-resize_1/001110_2014-06-15_17-25-28_260595134347_rgbf000150-resize_1-target.png,250,1.7115,4,2705,249,feet,jsons/v1_VE250_randls_73.json,635429,837440,61,Woman
91,487132,DepthScenes,duration_manipulation_targetAtFixation,jsons/v1_VE250_randls_73.json,http://54.235.29.9/FacialAge/BNav_EC2/DepthDuration/v2_depth_duration_MTurk/v2_DepthDuration_HTML.html#172,172,1536,722,1536,864,8-30-2022,10-12-36,92,depth_duration_stimuli/000927_2014-06-09_16-32-30_260595134347_rgbf000123-resize_3/000927_2014-06-09_16-32-30_260595134347_rgbf000123-resize_3-target.png,250,2.6785,5,2997,249,feet,jsons/v1_VE250_randls_73.json,635429,837440,61,Woman
92,487132,DepthScenes,duration_manipulation_targetAtFixation,jsons/v1_VE250_randls_73.json,http://54.235.29.9/FacialAge/BNav_EC2/DepthDuration/v2_depth_duration_MTurk/v2_DepthDuration_HTML.html#172,172,1536,722,1536,864,8-30-2022,10-12-36,93,depth_duration_stimuli/003070_2014-06-15_14-58-27_094959634447_rgbf000150-resize_3/003070_2014-06-15_14-58-27_094959634447_rgbf000150-resize_3-target.png,250,2.9415,5,2718,253,feet,jsons/v1_VE250_randls_73.json,635429,837440,61,Woman
93,487132,DepthScenes,duration_manipulation_targetAtFixation,jsons/v1_VE250_randls_73.json,http://54.235.29.9/FacialAge/BNav_EC2/DepthDuration/v2_depth_duration_MTurk/v2_DepthDuration_HTML.html#172,172,1536,722,1536,864,8-30-2022,10-12-36,94,depth_duration_stimuli/000943_2014-06-09_19-31-07_260595134347_rgbf000128-resize_1/000943_2014-06-09_19-31-07_260595134347_rgbf000128-resize_1-target.png,250,1.9765,4,2660,252,feet,jsons/v1_VE250_randls_73.json,635429,837440,61,Woman
94,487132,DepthScenes,duration_manipulation_targetAtFixation,jsons/v1_VE250_randls_73.json,http://54.235.29.9/FacialAge/BNav_EC2/DepthDuration/v2_depth_duration_MTurk/v2_DepthDuration_HTML.html#172,172,1536,722,1536,864,8-30-2022,10-12-36,95,depth_duration_stimuli/001059_2014-06-08_21-53-27_260595134347_rgbf000061-resize_4/001059_2014-06-08_21-53-27_260595134347_rgbf000061-resize_4-target.png,250,2.4185,4,2587,250,feet,jsons/v1_VE250_randls_73.json,635429,837440,61,Woman
95,487132,DepthScenes,duration_manipulation_targetAtFixation,jsons/v1_VE250_randls_73.json,http://54.235.29.9/FacialAge/BNav_EC2/DepthDuration/v2_depth_duration_MTurk/v2_DepthDuration_HTML.html#172,172,1536,722,1536,864,8-30-2022,10-12-36,96,depth_duration_stimuli/001032_2014-06-08_13-23-17_260595134347_rgbf000021-resize_3/001032_2014-06-08_13-23-17_260595134347_rgbf000021-resize_3-target.png,250,3.2725,3,3311,251,feet,jsons/v1_VE250_randls_73.json,635429,837440,61,Woman
96,487132,DepthScenes,duration_manipulation_targetAtFixation,jsons/v1_VE250_randls_73.json,http://54.235.29.9/FacialAge/BNav_EC2/DepthDuration/v2_depth_duration_MTurk/v2_DepthDuration_HTML.html#172,172,1536,722,1536,864,8-30-2022,10-12-36,97,depth_duration_stimuli/002748_2014-06-22_19-07-22_094959634447_rgbf000078-resize_1/002748_2014-06-22_19-07-22_094959634447_rgbf000078-resize_1-target.png,250,4.6705,6,3022,251,feet,jsons/v1_VE250_randls_73.json,635429,837440,61,Woman
97,487132,DepthScenes,duration_manipulation_targetAtFixation,jsons/v1_VE250_randls_73.json,http://54.235.29.9/FacialAge/BNav_EC2/DepthDuration/v2_depth_duration_MTurk/v2_DepthDuration_HTML.html#172,172,1536,722,1536,864,8-30-2022,10-12-36,98,depth_duration_stimuli/002995_2014-06-15_12-31-26_094959634447_rgbf000150-resize_1/002995_2014-06-15_12-31-26_094959634447_rgbf000150-resize_1-target.png,250,3.8360000000000003,6,2899,263,feet,jsons/v1_VE250_randls_73.json,635429,837440,61,Woman
98,487132,DepthScenes,duration_manipulation_targetAtFixation,jsons/v1_VE250_randls_73.json,http://54.235.29.9/FacialAge/BNav_EC2/DepthDuration/v2_depth_duration_MTurk/v2_DepthDuration_HTML.html#172,172,1536,722,1536,864,8-30-2022,10-12-36,99,depth_duration_stimuli/001540_2014-06-20_17-01-05_260595134347_rgbf000086-resize_2/001540_2014-06-20_17-01-05_260595134347_rgbf000086-resize-original.jpg,250,1.459,0,3217,248,feet,jsons/v1_VE250_randls_73.json,635429,837440,61,Woman
99,487132,DepthScenes,duration_manipulation_targetAtFixation,jsons/v1_VE250_randls_73.json,http://54.235.29.9/FacialAge/BNav_EC2/DepthDuration/v2_depth_duration_MTurk/v2_DepthDuration_HTML.html#172,172,1536,722,1536,864,8-30-2022,10-12-36,100,depth_duration_stimuli/002445_2014-06-28_20-32-16_260595134347_rgbf000029-resize_4/002445_2014-06-28_20-32-16_260595134347_rgbf000029-resize_4-target.png,250,2.5315,3,2915,265,feet,jsons/v1_VE250_randls_73.json,635429,837440,61,Woman
100,487132,DepthScenes,duration_manipulation_targetAtFixation,jsons/v1_VE250_randls_73.json,http://54.235.29.9/FacialAge/BNav_EC2/DepthDuration/v2_depth_duration_MTurk/v2_DepthDuration_HTML.html#172,172,1536,722,1536,864,8-30-2022,10-12-36,101,depth_duration_stimuli/000780_2014-06-08_22-28-29_260595134347_rgbf000126-resize_1/000780_2014-06-08_22-28-29_260595134347_rgbf000126-resize_1-target.png,250,3.3825,4,2563,248,feet,jsons/v1_VE250_randls_73.json,635429,837440,61,Woman
101,487132,DepthScenes,duration_manipulation_targetAtFixation,jsons/v1_VE250_randls_73.json,http://54.235.29.9/FacialAge/BNav_EC2/DepthDuration/v2_depth_duration_MTurk/v2_DepthDuration_HTML.html#172,172,1536,722,1536,864,8-30-2022,10-12-36,102,depth_duration_stimuli/000692_2014-06-08_13-09-42_260595134347_rgbf000199-resize_2/000692_2014-06-08_13-09-42_260595134347_rgbf000199-resize_2-target.png,250,3.661,5,2600,225,feet,jsons/v1_VE250_randls_73.json,635429,837440,61,Woman
102,487132,DepthScenes,duration_manipulation_targetAtFixation,jsons/v1_VE250_randls_73.json,http://54.235.29.9/FacialAge/BNav_EC2/DepthDuration/v2_depth_duration_MTurk/v2_DepthDuration_HTML.html#172,172,1536,722,1536,864,8-30-2022,10-12-36,103,depth_duration_stimuli/001094_2014-06-15_17-36-00_260595134347_rgbf000205-resize_0/001094_2014-06-15_17-36-00_260595134347_rgbf000205-resize_0-target.png,250,4.2175,5,2914,264,feet,jsons/v1_VE250_randls_73.json,635429,837440,61,Woman
103,487132,DepthScenes,duration_manipulation_targetAtFixation,jsons/v1_VE250_randls_73.json,http://54.235.29.9/FacialAge/BNav_EC2/DepthDuration/v2_depth_duration_MTurk/v2_DepthDuration_HTML.html#172,172,1536,722,1536,864,8-30-2022,10-12-36,104,depth_duration_stimuli/002043_2014-06-24_20-29-38_260595134347_rgbf000039-resize_4/002043_2014-06-24_20-29-38_260595134347_rgbf000039-resize_4-target.png,250,2.8435,4,2713,248,feet,jsons/v1_VE250_randls_73.json,635429,837440,61,Woman
104,487132,DepthScenes,duration_manipulation_targetAtFixation,jsons/v1_VE250_randls_73.json,http://54.235.29.9/FacialAge/BNav_EC2/DepthDuration/v2_depth_duration_MTurk/v2_DepthDuration_HTML.html#172,172,1536,722,1536,864,8-30-2022,10-12-36,105,depth_duration_stimuli/003048_2014-06-15_13-49-43_094959634447_rgbf000150-resize_1/003048_2014-06-15_13-49-43_094959634447_rgbf000150-resize_1-target.png,250,4.0035,6,2691,252,feet,jsons/v1_VE250_randls_73.json,635429,837440,61,Woman
105,487132,DepthScenes,duration_manipulation_targetAtFixation,jsons/v1_VE250_randls_73.json,http://54.235.29.9/FacialAge/BNav_EC2/DepthDuration/v2_depth_duration_MTurk/v2_DepthDuration_HTML.html#172,172,1536,722,1536,864,8-30-2022,10-12-36,106,depth_duration_stimuli/001244_2014-06-17_16-47-45_260595134347_rgbf000030-resize_4/001244_2014-06-17_16-47-45_260595134347_rgbf000030-resize_4-target.png,250,2.0425,5,2604,250,feet,jsons/v1_VE250_randls_73.json,635429,837440,61,Woman
106,487132,DepthScenes,duration_manipulation_targetAtFixation,jsons/v1_VE250_randls_73.json,http://54.235.29.9/FacialAge/BNav_EC2/DepthDuration/v2_depth_duration_MTurk/v2_DepthDuration_HTML.html#172,172,1536,722,1536,864,8-30-2022,10-12-36,107,depth_duration_stimuli/003495_2014-05-21_16-01-51_094959634447_rgbf000100-resize_3/003495_2014-05-21_16-01-51_094959634447_rgbf000100-resize_3-target.png,250,1.6255,3,2736,248,feet,jsons/v1_VE250_randls_73.json,635429,837440,61,Woman
107,487132,DepthScenes,duration_manipulation_targetAtFixation,jsons/v1_VE250_randls_73.json,http://54.235.29.9/FacialAge/BNav_EC2/DepthDuration/v2_depth_duration_MTurk/v2_DepthDuration_HTML.html#172,172,1536,722,1536,864,8-30-2022,10-12-36,108,depth_duration_stimuli/002988_2014-06-15_12-24-20_094959634447_rgbf000150-resize_1/002988_2014-06-15_12-24-20_094959634447_rgbf000150-resize_1-target.png,250,4.7669999999999995,5,2734,246,feet,jsons/v1_VE250_randls_73.json,635429,837440,61,Woman
108,487132,DepthScenes,duration_manipulation_targetAtFixation,jsons/v1_VE250_randls_73.json,http://54.235.29.9/FacialAge/BNav_EC2/DepthDuration/v2_depth_duration_MTurk/v2_DepthDuration_HTML.html#172,172,1536,722,1536,864,8-30-2022,10-12-36,109,depth_duration_stimuli/001052_2014-06-08_18-24-54_260595134347_rgbf000130-resize_1/001052_2014-06-08_18-24-54_260595134347_rgbf000130-resize_1-target.png,250,4.1045,5,2672,248,feet,jsons/v1_VE250_randls_73.json,635429,837440,61,Woman
109,487132,DepthScenes,duration_manipulation_targetAtFixation,jsons/v1_VE250_randls_73.json,http://54.235.29.9/FacialAge/BNav_EC2/DepthDuration/v2_depth_duration_MTurk/v2_DepthDuration_HTML.html#172,172,1536,722,1536,864,8-30-2022,10-12-36,110,depth_duration_stimuli/000642_2014-06-08_16-59-25_260595134347_rgbf000098-resize_2/000642_2014-06-08_16-59-25_260595134347_rgbf000098-resize_2-target.png,250,2.8815,4,2915,248,feet,jsons/v1_VE250_randls_73.json,635429,837440,61,Woman
110,487132,DepthScenes,duration_manipulation_targetAtFixation,jsons/v1_VE250_randls_73.json,http://54.235.29.9/FacialAge/BNav_EC2/DepthDuration/v2_depth_duration_MTurk/v2_DepthDuration_HTML.html#172,172,1536,722,1536,864,8-30-2022,10-12-36,111,depth_duration_stimuli/002425_2014-06-28_20-27-29_260595134347_rgbf000031-resize_8/002425_2014-06-28_20-27-29_260595134347_rgbf000031-resize_8-target.png,250,3.8960000000000004,6,3286,245,feet,jsons/v1_VE250_randls_73.json,635429,837440,61,Woman
111,487132,DepthScenes,duration_manipulation_targetAtFixation,jsons/v1_VE250_randls_73.json,http://54.235.29.9/FacialAge/BNav_EC2/DepthDuration/v2_depth_duration_MTurk/v2_DepthDuration_HTML.html#172,172,1536,722,1536,864,8-30-2022,10-12-36,112,depth_duration_stimuli/003534_2014-05-22_15-06-10_094959634447_rgbf000102-resize_4/003534_2014-05-22_15-06-10_094959634447_rgbf000102-resize_4-target.png,250,1.426,2,2870,247,feet,jsons/v1_VE250_randls_73.json,635429,837440,61,Woman
112,487132,DepthScenes,duration_manipulation_targetAtFixation,jsons/v1_VE250_randls_73.json,http://54.235.29.9/FacialAge/BNav_EC2/DepthDuration/v2_depth_duration_MTurk/v2_DepthDuration_HTML.html#172,172,1536,722,1536,864,8-30-2022,10-12-36,113,depth_duration_stimuli/002637_2014-06-24_14-51-13_094959634447_rgbf000066-resize_4/002637_2014-06-24_14-51-13_094959634447_rgbf000066-resize_4-target.png,250,1.9955,4,2640,246,feet,jsons/v1_VE250_randls_73.json,635429,837440,61,Woman
113,487132,DepthScenes,duration_manipulation_targetAtFixation,jsons/v1_VE250_randls_73.json,http://54.235.29.9/FacialAge/BNav_EC2/DepthDuration/v2_depth_duration_MTurk/v2_DepthDuration_HTML.html#172,172,1536,722,1536,864,8-30-2022,10-12-36,114,depth_duration_stimuli/002272_2014-06-28_18-53-56_260595134347_rgbf000067-resize_2/002272_2014-06-28_18-53-56_260595134347_rgbf000067-resize_2-target.png,250,1.138,2,3323,249,feet,jsons/v1_VE250_randls_73.json,635429,837440,61,Woman
114,487132,DepthScenes,duration_manipulation_targetAtFixation,jsons/v1_VE250_randls_73.json,http://54.235.29.9/FacialAge/BNav_EC2/DepthDuration/v2_depth_duration_MTurk/v2_DepthDuration_HTML.html#172,172,1536,722,1536,864,8-30-2022,10-12-36,115,depth_duration_stimuli/001571_2014-06-20_17-21-32_260595134347_rgbf000089-resize_1/001571_2014-06-20_17-21-32_260595134347_rgbf000089-resize_1-target.png,250,1.86,3,2624,263,feet,jsons/v1_VE250_randls_73.json,635429,837440,61,Woman
115,487132,DepthScenes,duration_manipulation_targetAtFixation,jsons/v1_VE250_randls_73.json,http://54.235.29.9/FacialAge/BNav_EC2/DepthDuration/v2_depth_duration_MTurk/v2_DepthDuration_HTML.html#172,172,1536,722,1536,864,8-30-2022,10-12-36,116,depth_duration_stimuli/001170_2014-06-17_15-43-44_260595134347_rgbf000096-resize_6/001170_2014-06-17_15-43-44_260595134347_rgbf000096-resize-original.jpg,250,1.1909999999999998,0,3033,250,feet,jsons/v1_VE250_randls_73.json,635429,837440,61,Woman
116,487132,DepthScenes,duration_manipulation_targetAtFixation,jsons/v1_VE250_randls_73.json,http://54.235.29.9/FacialAge/BNav_EC2/DepthDuration/v2_depth_duration_MTurk/v2_DepthDuration_HTML.html#172,172,1536,722,1536,864,8-30-2022,10-12-36,117,depth_duration_stimuli/002989_2014-06-15_12-25-03_094959634447_rgbf000150-resize_3/002989_2014-06-15_12-25-03_094959634447_rgbf000150-resize_3-target.png,250,4.1975,5,2986,251,feet,jsons/v1_VE250_randls_73.json,635429,837440,61,Woman
117,487132,DepthScenes,duration_manipulation_targetAtFixation,jsons/v1_VE250_randls_73.json,http://54.235.29.9/FacialAge/BNav_EC2/DepthDuration/v2_depth_duration_MTurk/v2_DepthDuration_HTML.html#172,172,1536,722,1536,864,8-30-2022,10-12-36,118,depth_duration_stimuli/000866_2014-06-09_20-45-42_260595134347_rgbf000139-resize_1/000866_2014-06-09_20-45-42_260595134347_rgbf000139-resize_1-target.png,250,3.2155,4,2943,242,feet,jsons/v1_VE250_randls_73.json,635429,837440,61,Woman
118,487132,DepthScenes,duration_manipulation_targetAtFixation,jsons/v1_VE250_randls_73.json,http://54.235.29.9/FacialAge/BNav_EC2/DepthDuration/v2_depth_duration_MTurk/v2_DepthDuration_HTML.html#172,172,1536,722,1536,864,8-30-2022,10-12-36,119,depth_duration_stimuli/001810_2014-06-26_20-51-35_260595134347_rgbf000040-resize_3/001810_2014-06-26_20-51-35_260595134347_rgbf000040-resize_3-target.png,250,2.2525,3,2987,262,feet,jsons/v1_VE250_randls_73.json,635429,837440,61,Woman
119,487132,DepthScenes,duration_manipulation_targetAtFixation,jsons/v1_VE250_randls_73.json,http://54.235.29.9/FacialAge/BNav_EC2/DepthDuration/v2_depth_duration_MTurk/v2_DepthDuration_HTML.html#172,172,1536,722,1536,864,8-30-2022,10-12-36,120,depth_duration_stimuli/003010_2014-06-15_12-54-35_094959634447_rgbf000112-resize_0/003010_2014-06-15_12-54-35_094959634447_rgbf000112-resize_0-target.png,250,3.1185,6,2931,247,feet,jsons/v1_VE250_randls_73.json,635429,837440,61,Woman
120,487132,DepthScenes,duration_manipulation_targetAtFixation,jsons/v1_VE250_randls_73.json,http://54.235.29.9/FacialAge/BNav_EC2/DepthDuration/v2_depth_duration_MTurk/v2_DepthDuration_HTML.html#172,172,1536,722,1536,864,8-30-2022,10-12-36,121,depth_duration_stimuli/000739_2014-06-08_18-45-58_260595134347_rgbf000068-resize_1/000739_2014-06-08_18-45-58_260595134347_rgbf000068-resize_1-target.png,250,3.534,6,2797,245,feet,jsons/v1_VE250_randls_73.json,635429,837440,61,Woman
121,487132,DepthScenes,duration_manipulation_targetAtFixation,jsons/v1_VE250_randls_73.json,http://54.235.29.9/FacialAge/BNav_EC2/DepthDuration/v2_depth_duration_MTurk/v2_DepthDuration_HTML.html#172,172,1536,722,1536,864,8-30-2022,10-12-36,122,depth_duration_stimuli/000734_2014-06-08_17-39-11_260595134347_rgbf000128-resize_2/000734_2014-06-08_17-39-11_260595134347_rgbf000128-resize_2-target.png,250,4.098,5,2874,249,feet,jsons/v1_VE250_randls_73.json,635429,837440,61,Woman
122,487132,DepthScenes,duration_manipulation_targetAtFixation,jsons/v1_VE250_randls_73.json,http://54.235.29.9/FacialAge/BNav_EC2/DepthDuration/v2_depth_duration_MTurk/v2_DepthDuration_HTML.html#172,172,1536,722,1536,864,8-30-2022,10-12-36,123,depth_duration_stimuli/000470_2014-06-09_19-42-40_260595134347_rgbf000094-resize_1/000470_2014-06-09_19-42-40_260595134347_rgbf000094-resize_1-target.png,250,1.831,4,2691,248,feet,jsons/v1_VE250_randls_73.json,635429,837440,61,Woman
123,487132,DepthScenes,duration_manipulation_targetAtFixation,jsons/v1_VE250_randls_73.json,http://54.235.29.9/FacialAge/BNav_EC2/DepthDuration/v2_depth_duration_MTurk/v2_DepthDuration_HTML.html#172,172,1536,722,1536,864,8-30-2022,10-12-36,124,depth_duration_stimuli/000109_2014-05-14_23-41-52_260595134347_rgbf000035-resize_9/000109_2014-05-14_23-41-52_260595134347_rgbf000035-resize_9-target.png,250,1.3545,3,2670,249,feet,jsons/v1_VE250_randls_73.json,635429,837440,61,Woman
124,487132,DepthScenes,duration_manipulation_targetAtFixation,jsons/v1_VE250_randls_73.json,http://54.235.29.9/FacialAge/BNav_EC2/DepthDuration/v2_depth_duration_MTurk/v2_DepthDuration_HTML.html#172,172,1536,722,1536,864,8-30-2022,10-12-36,125,depth_duration_stimuli/002905_2014-06-03_18-04-43_094959634447_rgbf000151-resize_2/002905_2014-06-03_18-04-43_094959634447_rgbf000151-resize_2-target.png,250,2.0295,3,3421,236,feet,jsons/v1_VE250_randls_73.json,635429,837440,61,Woman
125,487132,DepthScenes,duration_manipulation_targetAtFixation,jsons/v1_VE250_randls_73.json,http://54.235.29.9/FacialAge/BNav_EC2/DepthDuration/v2_depth_duration_MTurk/v2_DepthDuration_HTML.html#172,172,1536,722,1536,864,8-30-2022,10-12-36,126,depth_duration_stimuli/003423_2014-05-21_10-23-26_094959634447_rgbf002665-resize_2/003423_2014-05-21_10-23-26_094959634447_rgbf002665-resize_2-target.png,250,3.2575,7,3125,251,feet,jsons/v1_VE250_randls_73.json,635429,837440,61,Woman
126,487132,DepthScenes,duration_manipulation_targetAtFixation,jsons/v1_VE250_randls_73.json,http://54.235.29.9/FacialAge/BNav_EC2/DepthDuration/v2_depth_duration_MTurk/v2_DepthDuration_HTML.html#172,172,1536,722,1536,864,8-30-2022,10-12-36,127,depth_duration_stimuli/001570_2014-06-20_17-21-09_260595134347_rgbf000135-resize_4/001570_2014-06-20_17-21-09_260595134347_rgbf000135-resize_4-target.png,250,4.467,6,2789,248,feet,jsons/v1_VE250_randls_73.json,635429,837440,61,Woman
127,487132,DepthScenes,duration_manipulation_targetAtFixation,jsons/v1_VE250_randls_73.json,http://54.235.29.9/FacialAge/BNav_EC2/DepthDuration/v2_depth_duration_MTurk/v2_DepthDuration_HTML.html#172,172,1536,722,1536,864,8-30-2022,10-12-36,128,depth_duration_stimuli/001392_2014-06-19_16-07-59_260595134347_rgbf000046-resize_1/001392_2014-06-19_16-07-59_260595134347_rgbf000046-resize_1-target.png,250,4.135,7,3319,245,feet,jsons/v1_VE250_randls_73.json,635429,837440,61,Woman
128,487132,DepthScenes,duration_manipulation_targetAtFixation,jsons/v1_VE250_randls_73.json,http://54.235.29.9/FacialAge/BNav_EC2/DepthDuration/v2_depth_duration_MTurk/v2_DepthDuration_HTML.html#172,172,1536,722,1536,864,8-30-2022,10-12-36,129,depth_duration_stimuli/002509_2014-06-24_13-19-22_094959634447_rgbf000077-resize_0/002509_2014-06-24_13-19-22_094959634447_rgbf000077-resize_0-target.png,250,1.3065,3,2685,250,feet,jsons/v1_VE250_randls_73.json,635429,837440,61,Woman
129,487132,DepthScenes,duration_manipulation_targetAtFixation,jsons/v1_VE250_randls_73.json,http://54.235.29.9/FacialAge/BNav_EC2/DepthDuration/v2_depth_duration_MTurk/v2_DepthDuration_HTML.html#172,172,1536,722,1536,864,8-30-2022,10-12-36,130,depth_duration_stimuli/003338_2014-05-20_11-01-23_094959634447_rgbf000051-resize_6/003338_2014-05-20_11-01-23_094959634447_rgbf000051-resize_6-target.png,250,1.693,2,3078,249,feet,jsons/v1_VE250_randls_73.json,635429,837440,61,Woman
130,487132,DepthScenes,duration_manipulation_targetAtFixation,jsons/v1_VE250_randls_73.json,http://54.235.29.9/FacialAge/BNav_EC2/DepthDuration/v2_depth_duration_MTurk/v2_DepthDuration_HTML.html#172,172,1536,722,1536,864,8-30-2022,10-12-36,131,depth_duration_stimuli/000506_2014-06-08_23-21-00_260595134347_rgbf000070-resize_7/000506_2014-06-08_23-21-00_260595134347_rgbf000070-resize_7-target.png,250,4.0585,6,2995,246,feet,jsons/v1_VE250_randls_73.json,635429,837440,61,Woman
131,487132,DepthScenes,duration_manipulation_targetAtFixation,jsons/v1_VE250_randls_73.json,http://54.235.29.9/FacialAge/BNav_EC2/DepthDuration/v2_depth_duration_MTurk/v2_DepthDuration_HTML.html#172,172,1536,722,1536,864,8-30-2022,10-12-36,132,depth_duration_stimuli/003079_2014-06-15_15-18-20_094959634447_rgbf000152-resize_8/003079_2014-06-15_15-18-20_094959634447_rgbf000152-resize_8-target.png,250,2.8775,5,2936,248,feet,jsons/v1_VE250_randls_73.json,635429,837440,61,Woman
132,487132,DepthScenes,duration_manipulation_targetAtFixation,jsons/v1_VE250_randls_73.json,http://54.235.29.9/FacialAge/BNav_EC2/DepthDuration/v2_depth_duration_MTurk/v2_DepthDuration_HTML.html#172,172,1536,722,1536,864,8-30-2022,10-12-36,133,depth_duration_stimuli/001164_2014-06-17_15-35-46_260595134347_rgbf000085-resize_3/001164_2014-06-17_15-35-46_260595134347_rgbf000085-resize_3-target.png,250,2.354,4,2514,264,feet,jsons/v1_VE250_randls_73.json,635429,837440,61,Woman
133,487132,DepthScenes,duration_manipulation_targetAtFixation,jsons/v1_VE250_randls_73.json,http://54.235.29.9/FacialAge/BNav_EC2/DepthDuration/v2_depth_duration_MTurk/v2_DepthDuration_HTML.html#172,172,1536,722,1536,864,8-30-2022,10-12-36,134,depth_duration_stimuli/001136_2014-06-17_15-19-41_260595134347_rgbf000076-resize_3/001136_2014-06-17_15-19-41_260595134347_rgbf000076-resize_3-target.png,250,1.8655,3,2569,247,feet,jsons/v1_VE250_randls_73.json,635429,837440,61,Woman
134,487132,DepthScenes,duration_manipulation_targetAtFixation,jsons/v1_VE250_randls_73.json,http://54.235.29.9/FacialAge/BNav_EC2/DepthDuration/v2_depth_duration_MTurk/v2_DepthDuration_HTML.html#172,172,1536,722,1536,864,8-30-2022,10-12-36,135,depth_duration_stimuli/002072_2014-06-24_21-48-06_260595134347_rgbf000115-resize_0/002072_2014-06-24_21-48-06_260595134347_rgbf000115-resize-original.jpg,250,4.702,0,3813,247,feet,jsons/v1_VE250_randls_73.json,635429,837440,61,Woman
135,487132,DepthScenes,duration_manipulation_targetAtFixation,jsons/v1_VE250_randls_73.json,http://54.235.29.9/FacialAge/BNav_EC2/DepthDuration/v2_depth_duration_MTurk/v2_DepthDuration_HTML.html#172,172,1536,722,1536,864,8-30-2022,10-12-36,136,depth_duration_stimuli/000788_2014-06-08_22-34-36_260595134347_rgbf000131-resize_1/000788_2014-06-08_22-34-36_260595134347_rgbf000131-resize_1-target.png,250,3.359,4,2611,248,feet,jsons/v1_VE250_randls_73.json,635429,837440,61,Woman
136,487132,DepthScenes,duration_manipulation_targetAtFixation,jsons/v1_VE250_randls_73.json,http://54.235.29.9/FacialAge/BNav_EC2/DepthDuration/v2_depth_duration_MTurk/v2_DepthDuration_HTML.html#172,172,1536,722,1536,864,8-30-2022,10-12-36,137,depth_duration_stimuli/001235_2014-06-17_16-37-36_260595134347_rgbf000084-resize_4/001235_2014-06-17_16-37-36_260595134347_rgbf000084-resize_4-target.png,250,3.6605,4,2627,264,feet,jsons/v1_VE250_randls_73.json,635429,837440,61,Woman
137,487132,DepthScenes,duration_manipulation_targetAtFixation,jsons/v1_VE250_randls_73.json,http://54.235.29.9/FacialAge/BNav_EC2/DepthDuration/v2_depth_duration_MTurk/v2_DepthDuration_HTML.html#172,172,1536,722,1536,864,8-30-2022,10-12-36,138,depth_duration_stimuli/000522_2014-06-08_13-35-06_260595134347_rgbf000244-resize_1/000522_2014-06-08_13-35-06_260595134347_rgbf000244-resize_1-target.png,250,2.3715,2,2915,263,feet,jsons/v1_VE250_randls_73.json,635429,837440,61,Woman
138,487132,DepthScenes,duration_manipulation_targetAtFixation,jsons/v1_VE250_randls_73.json,http://54.235.29.9/FacialAge/BNav_EC2/DepthDuration/v2_depth_duration_MTurk/v2_DepthDuration_HTML.html#172,172,1536,722,1536,864,8-30-2022,10-12-36,139,depth_duration_stimuli/002949_2014-06-26_15-57-42_094959634447_rgbf000079-resize_1/002949_2014-06-26_15-57-42_094959634447_rgbf000079-resize_1-target.png,250,1.8915,3,2478,249,feet,jsons/v1_VE250_randls_73.json,635429,837440,61,Woman
139,487132,DepthScenes,duration_manipulation_targetAtFixation,jsons/v1_VE250_randls_73.json,http://54.235.29.9/FacialAge/BNav_EC2/DepthDuration/v2_depth_duration_MTurk/v2_DepthDuration_HTML.html#172,172,1536,722,1536,864,8-30-2022,10-12-36,140,depth_duration_stimuli/001092_2014-06-15_17-34-58_260595134347_rgbf000171-resize_3/001092_2014-06-15_17-34-58_260595134347_rgbf000171-resize_3-target.png,250,2.6935,3,2589,250,feet,jsons/v1_VE250_randls_73.json,635429,837440,61,Woman
140,487132,DepthScenes,duration_manipulation_targetAtFixation,jsons/v1_VE250_randls_73.json,http://54.235.29.9/FacialAge/BNav_EC2/DepthDuration/v2_depth_duration_MTurk/v2_DepthDuration_HTML.html#172,172,1536,722,1536,864,8-30-2022,10-12-36,141,depth_duration_stimuli/002545_2014-06-24_13-38-53_094959634447_rgbf000080-resize_4/002545_2014-06-24_13-38-53_094959634447_rgbf000080-resize_4-target.png,250,1.9205,3,2628,248,feet,jsons/v1_VE250_randls_73.json,635429,837440,61,Woman
141,487132,DepthScenes,duration_manipulation_targetAtFixation,jsons/v1_VE250_randls_73.json,http://54.235.29.9/FacialAge/BNav_EC2/DepthDuration/v2_depth_duration_MTurk/v2_DepthDuration_HTML.html#172,172,1536,722,1536,864,8-30-2022,10-12-36,142,depth_duration_stimuli/001167_2014-06-17_15-38-07_260595134347_rgbf000108-resize_0/001167_2014-06-17_15-38-07_260595134347_rgbf000108-resize_0-target.png,250,1.8505,3,2576,249,feet,jsons/v1_VE250_randls_73.json,635429,837440,61,Woman
142,487132,DepthScenes,duration_manipulation_targetAtFixation,jsons/v1_VE250_randls_73.json,http://54.235.29.9/FacialAge/BNav_EC2/DepthDuration/v2_depth_duration_MTurk/v2_DepthDuration_HTML.html#172,172,1536,722,1536,864,8-30-2022,10-12-36,143,depth_duration_stimuli/003587_2014-05-23_16-48-02_094959634447_rgbf002384-resize_2/003587_2014-05-23_16-48-02_094959634447_rgbf002384-resize_2-target.png,250,1.357,2,2765,250,feet,jsons/v1_VE250_randls_73.json,635429,837440,61,Woman
143,487132,DepthScenes,duration_manipulation_targetAtFixation,jsons/v1_VE250_randls_73.json,http://54.235.29.9/FacialAge/BNav_EC2/DepthDuration/v2_depth_duration_MTurk/v2_DepthDuration_HTML.html#172,172,1536,722,1536,864,8-30-2022,10-12-36,144,depth_duration_stimuli/001417_2014-06-19_16-25-36_260595134347_rgbf000115-resize_5/001417_2014-06-19_16-25-36_260595134347_rgbf000115-resize_5-target.png,250,4.6255,5,3066,249,feet,jsons/v1_VE250_randls_73.json,635429,837440,61,Woman
144,487132,DepthScenes,duration_manipulation_targetAtFixation,jsons/v1_VE250_randls_73.json,http://54.235.29.9/FacialAge/BNav_EC2/DepthDuration/v2_depth_duration_MTurk/v2_DepthDuration_HTML.html#172,172,1536,722,1536,864,8-30-2022,10-12-36,145,depth_duration_stimuli/003081_2014-06-15_15-19-16_094959634447_rgbf000150-resize_1/003081_2014-06-15_15-19-16_094959634447_rgbf000150-resize_1-target.png,250,3.9125,5,3236,247,feet,jsons/v1_VE250_randls_73.json,635429,837440,61,Woman
145,487132,DepthScenes,duration_manipulation_targetAtFixation,jsons/v1_VE250_randls_73.json,http://54.235.29.9/FacialAge/BNav_EC2/DepthDuration/v2_depth_duration_MTurk/v2_DepthDuration_HTML.html#172,172,1536,722,1536,864,8-30-2022,10-12-36,146,depth_duration_stimuli/001498_2014-06-19_17-45-14_260595134347_rgbf000129-resize_4/001498_2014-06-19_17-45-14_260595134347_rgbf000129-resize-original.jpg,250,1.4075,0,3185,249,feet,jsons/v1_VE250_randls_73.json,635429,837440,61,Woman
146,487132,DepthScenes,duration_manipulation_targetAtFixation,jsons/v1_VE250_randls_73.json,http://54.235.29.9/FacialAge/BNav_EC2/DepthDuration/v2_depth_duration_MTurk/v2_DepthDuration_HTML.html#172,172,1536,722,1536,864,8-30-2022,10-12-36,147,depth_duration_stimuli/001056_2014-06-08_18-46-44_260595134347_rgbf000068-resize_0/001056_2014-06-08_18-46-44_260595134347_rgbf000068-resize_0-target.png,250,2.6625,4,2437,248,feet,jsons/v1_VE250_randls_73.json,635429,837440,61,Woman
147,487132,DepthScenes,duration_manipulation_targetAtFixation,jsons/v1_VE250_randls_73.json,http://54.235.29.9/FacialAge/BNav_EC2/DepthDuration/v2_depth_duration_MTurk/v2_DepthDuration_HTML.html#172,172,1536,722,1536,864,8-30-2022,10-12-36,148,depth_duration_stimuli/002199_2014-06-28_18-33-56_260595134347_rgbf000074-resize_0/002199_2014-06-28_18-33-56_260595134347_rgbf000074-resize_0-target.png,250,1.996,2,2603,250,feet,jsons/v1_VE250_randls_73.json,635429,837440,61,Woman
148,487132,DepthScenes,duration_manipulation_targetAtFixation,jsons/v1_VE250_randls_73.json,http://54.235.29.9/FacialAge/BNav_EC2/DepthDuration/v2_depth_duration_MTurk/v2_DepthDuration_HTML.html#172,172,1536,722,1536,864,8-30-2022,10-12-36,149,depth_duration_stimuli/001175_2014-06-17_15-45-55_260595134347_rgbf000129-resize_4/001175_2014-06-17_15-45-55_260595134347_rgbf000129-resize_4-target.png,250,4.255,6,2920,240,feet,jsons/v1_VE250_randls_73.json,635429,837440,61,Woman
149,487132,DepthScenes,duration_manipulation_targetAtFixation,jsons/v1_VE250_randls_73.json,http://54.235.29.9/FacialAge/BNav_EC2/DepthDuration/v2_depth_duration_MTurk/v2_DepthDuration_HTML.html#172,172,1536,722,1536,864,8-30-2022,10-12-36,150,depth_duration_stimuli/003490_2014-05-21_15-50-11_094959634447_rgbf000101-resize_3/003490_2014-05-21_15-50-11_094959634447_rgbf000101-resize_3-target.png,250,3.6445,6,2776,272,feet,jsons/v1_VE250_randls_73.json,635429,837440,61,Woman
150,487132,DepthScenes,duration_manipulation_targetAtFixation,jsons/v1_VE250_randls_73.json,http://54.235.29.9/FacialAge/BNav_EC2/DepthDuration/v2_depth_duration_MTurk/v2_DepthDuration_HTML.html#172,172,1536,722,1536,864,8-30-2022,10-12-36,151,depth_duration_stimuli/002375_2014-06-28_20-13-44_260595134347_rgbf000032-resize_1/002375_2014-06-28_20-13-44_260595134347_rgbf000032-resize_1-target.png,250,4.0175,5,2783,251,feet,jsons/v1_VE250_randls_73.json,635429,837440,61,Woman
151,487132,DepthScenes,duration_manipulation_targetAtFixation,jsons/v1_VE250_randls_73.json,http://54.235.29.9/FacialAge/BNav_EC2/DepthDuration/v2_depth_duration_MTurk/v2_DepthDuration_HTML.html#172,172,1536,722,1536,864,8-30-2022,10-12-36,152,depth_duration_stimuli/002657_2014-06-13_15-29-54_094959634447_rgbf000150-resize_1/002657_2014-06-13_15-29-54_094959634447_rgbf000150-resize_1-target.png,250,4.919,6,2637,245,feet,jsons/v1_VE250_randls_73.json,635429,837440,61,Woman
152,487132,DepthScenes,duration_manipulation_targetAtFixation,jsons/v1_VE250_randls_73.json,http://54.235.29.9/FacialAge/BNav_EC2/DepthDuration/v2_depth_duration_MTurk/v2_DepthDuration_HTML.html#172,172,1536,722,1536,864,8-30-2022,10-12-36,153,depth_duration_stimuli/002118_2014-06-25_20-32-08_260595134347_rgbf000078-resize_1/002118_2014-06-25_20-32-08_260595134347_rgbf000078-resize_1-target.png,250,2.6460000000000004,4,2614,247,feet,jsons/v1_VE250_randls_73.json,635429,837440,61,Woman
153,487132,DepthScenes,duration_manipulation_targetAtFixation,jsons/v1_VE250_randls_73.json,http://54.235.29.9/FacialAge/BNav_EC2/DepthDuration/v2_depth_duration_MTurk/v2_DepthDuration_HTML.html#172,172,1536,722,1536,864,8-30-2022,10-12-36,154,depth_duration_stimuli/001516_2014-06-20_16-25-09_260595134347_rgbf000076-resize_2/001516_2014-06-20_16-25-09_260595134347_rgbf000076-resize_2-target.png,250,1.7445,4,2541,251,feet,jsons/v1_VE250_randls_73.json,635429,837440,61,Woman
154,487132,DepthScenes,duration_manipulation_targetAtFixation,jsons/v1_VE250_randls_73.json,http://54.235.29.9/FacialAge/BNav_EC2/DepthDuration/v2_depth_duration_MTurk/v2_DepthDuration_HTML.html#172,172,1536,722,1536,864,8-30-2022,10-12-36,155,depth_duration_stimuli/000929_2014-06-09_16-33-19_260595134347_rgbf000139-resize_0/000929_2014-06-09_16-33-19_260595134347_rgbf000139-resize_0-target.png,250,2.8680000000000003,4,2531,245,feet,jsons/v1_VE250_randls_73.json,635429,837440,61,Woman
155,487132,DepthScenes,duration_manipulation_targetAtFixation,jsons/v1_VE250_randls_73.json,http://54.235.29.9/FacialAge/BNav_EC2/DepthDuration/v2_depth_duration_MTurk/v2_DepthDuration_HTML.html#172,172,1536,722,1536,864,8-30-2022,10-12-36,156,depth_duration_stimuli/000457_2014-06-08_16-52-43_260595134347_rgbf000199-resize_1/000457_2014-06-08_16-52-43_260595134347_rgbf000199-resize_1-target.png,250,3.6489999999999996,5,2527,246,feet,jsons/v1_VE250_randls_73.json,635429,837440,61,Woman
156,487132,DepthScenes,duration_manipulation_targetAtFixation,jsons/v1_VE250_randls_73.json,http://54.235.29.9/FacialAge/BNav_EC2/DepthDuration/v2_depth_duration_MTurk/v2_DepthDuration_HTML.html#172,172,1536,722,1536,864,8-30-2022,10-12-36,157,depth_duration_stimuli/001133_2014-06-17_14-49-16_260595134347_rgbf000100-resize_0/001133_2014-06-17_14-49-16_260595134347_rgbf000100-resize_0-target.png,250,4.2115,7,2742,249,feet,jsons/v1_VE250_randls_73.json,635429,837440,61,Woman
157,487132,DepthScenes,duration_manipulation_targetAtFixation,jsons/v1_VE250_randls_73.json,http://54.235.29.9/FacialAge/BNav_EC2/DepthDuration/v2_depth_duration_MTurk/v2_DepthDuration_HTML.html#172,172,1536,722,1536,864,8-30-2022,10-12-36,158,depth_duration_stimuli/001132_2014-06-17_14-48-54_260595134347_rgbf000100-resize_2/001132_2014-06-17_14-48-54_260595134347_rgbf000100-resize_2-target.png,250,3.753,6,2650,245,feet,jsons/v1_VE250_randls_73.json,635429,837440,61,Woman
158,487132,DepthScenes,duration_manipulation_targetAtFixation,jsons/v1_VE250_randls_73.json,http://54.235.29.9/FacialAge/BNav_EC2/DepthDuration/v2_depth_duration_MTurk/v2_DepthDuration_HTML.html#172,172,1536,722,1536,864,8-30-2022,10-12-36,159,depth_duration_stimuli/003492_2014-05-21_15-50-55_094959634447_rgbf000828-resize_1/003492_2014-05-21_15-50-55_094959634447_rgbf000828-resize_1-target.png,250,4.06875,8,2762,250,feet,jsons/v1_VE250_randls_73.json,635429,837440,61,Woman
159,487132,DepthScenes,duration_manipulation_targetAtFixation,jsons/v1_VE250_randls_73.json,http://54.235.29.9/FacialAge/BNav_EC2/DepthDuration/v2_depth_duration_MTurk/v2_DepthDuration_HTML.html#172,172,1536,722,1536,864,8-30-2022,10-12-36,160,depth_duration_stimuli/002568_2014-06-24_13-59-21_094959634447_rgbf000062-resize_4/002568_2014-06-24_13-59-21_094959634447_rgbf000062-resize_4-target.png,250,3.015,6,2847,250,feet,jsons/v1_VE250_randls_73.json,635429,837440,61,Woman
160,487132,DepthScenes,duration_manipulation_targetAtFixation,jsons/v1_VE250_randls_73.json,http://54.235.29.9/FacialAge/BNav_EC2/DepthDuration/v2_depth_duration_MTurk/v2_DepthDuration_HTML.html#172,172,1536,722,1536,864,8-30-2022,10-12-36,161,depth_duration_stimuli/002630_2014-06-24_14-47-50_094959634447_rgbf000055-resize_1/002630_2014-06-24_14-47-50_094959634447_rgbf000055-resize_1-target.png,250,3.0095,5,2734,248,feet,jsons/v1_VE250_randls_73.json,635429,837440,61,Woman
161,487132,DepthScenes,duration_manipulation_targetAtFixation,jsons/v1_VE250_randls_73.json,http://54.235.29.9/FacialAge/BNav_EC2/DepthDuration/v2_depth_duration_MTurk/v2_DepthDuration_HTML.html#172,172,1536,722,1536,864,8-30-2022,10-12-36,162,depth_duration_stimuli/002758_2014-06-22_19-11-20_094959634447_rgbf000128-resize_1/002758_2014-06-22_19-11-20_094959634447_rgbf000128-resize_1-target.png,250,2.555,4,2584,259,feet,jsons/v1_VE250_randls_73.json,635429,837440,61,Woman
162,487132,DepthScenes,duration_manipulation_targetAtFixation,jsons/v1_VE250_randls_73.json,http://54.235.29.9/FacialAge/BNav_EC2/DepthDuration/v2_depth_duration_MTurk/v2_DepthDuration_HTML.html#172,172,1536,722,1536,864,8-30-2022,10-12-36,163,depth_duration_stimuli/002788_2014-06-22_19-36-03_094959634447_rgbf000088-resize_2/002788_2014-06-22_19-36-03_094959634447_rgbf000088-resize_2-target.png,250,1.6465,4,2677,249,feet,jsons/v1_VE250_randls_73.json,635429,837440,61,Woman
163,487132,DepthScenes,duration_manipulation_targetAtFixation,jsons/v1_VE250_randls_73.json,http://54.235.29.9/FacialAge/BNav_EC2/DepthDuration/v2_depth_duration_MTurk/v2_DepthDuration_HTML.html#172,172,1536,722,1536,864,8-30-2022,10-12-36,164,depth_duration_stimuli/000749_2014-06-08_21-55-06_260595134347_rgbf000070-resize_2/000749_2014-06-08_21-55-06_260595134347_rgbf000070-resize_2-target.png,250,2.331,4,2657,243,feet,jsons/v1_VE250_randls_73.json,635429,837440,61,Woman
