,subjID,experimentName,versionName,sequenceName,url,selected_row,windowWidth,windowHeight,screenWidth,screenHeight,startDate,startTime,trial,stimulus,duration,actual_depth,depth_estimate,trial_RT,log_sceneDuration,unitSelection,seq_filepath,experimentTime,totalTime,age,gender
0,491548,DepthScenes,duration_manipulation_targetAtFixation,jsons/v1_VE250_randls_48_rotated.json,http://54.235.29.9/FacialAge/BNav_EC2/DepthDuration/v2_depth_duration_MTurk/v2_DepthDuration_HTML.html#89,89,1440,789,1440,900,8-20-2022,10-58-55,1,depth_duration_stimuli/000709_2014-06-08_13-51-55_260595134347_rgbf000068-resize_3/000709_2014-06-08_13-51-55_260595134347_rgbf000068-resize_3-target.png,250,1.8030000000000002,50.0,5433,250,meters,jsons/v1_VE250_randls_48_rotated.json,1236453,1521048,31,Woman
1,491548,DepthScenes,duration_manipulation_targetAtFixation,jsons/v1_VE250_randls_48_rotated.json,http://54.235.29.9/FacialAge/BNav_EC2/DepthDuration/v2_depth_duration_MTurk/v2_DepthDuration_HTML.html#89,89,1440,789,1440,900,8-20-2022,10-58-55,2,depth_duration_stimuli/002057_2014-06-24_21-00-13_260595134347_rgbf000120-resize_1/002057_2014-06-24_21-00-13_260595134347_rgbf000120-resize_1-target.png,250,2.967,50.0,19595,250,meters,jsons/v1_VE250_randls_48_rotated.json,1236453,1521048,31,Woman
2,491548,DepthScenes,duration_manipulation_targetAtFixation,jsons/v1_VE250_randls_48_rotated.json,http://54.235.29.9/FacialAge/BNav_EC2/DepthDuration/v2_depth_duration_MTurk/v2_DepthDuration_HTML.html#89,89,1440,789,1440,900,8-20-2022,10-58-55,3,depth_duration_stimuli/000635_2014-06-08_16-38-42_260595134347_rgbf000106-resize_1/000635_2014-06-08_16-38-42_260595134347_rgbf000106-resize_1-target.png,250,2.074,52.0,6747,249,meters,jsons/v1_VE250_randls_48_rotated.json,1236453,1521048,31,Woman
3,491548,DepthScenes,duration_manipulation_targetAtFixation,jsons/v1_VE250_randls_48_rotated.json,http://54.235.29.9/FacialAge/BNav_EC2/DepthDuration/v2_depth_duration_MTurk/v2_DepthDuration_HTML.html#89,89,1440,789,1440,900,8-20-2022,10-58-55,4,depth_duration_stimuli/002279_2014-06-28_18-55-32_260595134347_rgbf000040-resize_5/002279_2014-06-28_18-55-32_260595134347_rgbf000040-resize_5-target.png,250,1.5043333333333,60.0,19395,252,meters,jsons/v1_VE250_randls_48_rotated.json,1236453,1521048,31,Woman
4,491548,DepthScenes,duration_manipulation_targetAtFixation,jsons/v1_VE250_randls_48_rotated.json,http://54.235.29.9/FacialAge/BNav_EC2/DepthDuration/v2_depth_duration_MTurk/v2_DepthDuration_HTML.html#89,89,1440,789,1440,900,8-20-2022,10-58-55,5,depth_duration_stimuli/002758_2014-06-22_19-11-20_094959634447_rgbf000128-resize_1/002758_2014-06-22_19-11-20_094959634447_rgbf000128-resize_1-target.png,250,2.555,56.0,5723,252,meters,jsons/v1_VE250_randls_48_rotated.json,1236453,1521048,31,Woman
5,491548,DepthScenes,duration_manipulation_targetAtFixation,jsons/v1_VE250_randls_48_rotated.json,http://54.235.29.9/FacialAge/BNav_EC2/DepthDuration/v2_depth_duration_MTurk/v2_DepthDuration_HTML.html#89,89,1440,789,1440,900,8-20-2022,10-58-55,6,depth_duration_stimuli/002630_2014-06-24_14-47-50_094959634447_rgbf000055-resize_1/002630_2014-06-24_14-47-50_094959634447_rgbf000055-resize_1-target.png,250,3.0095,50.0,6401,250,meters,jsons/v1_VE250_randls_48_rotated.json,1236453,1521048,31,Woman
6,491548,DepthScenes,duration_manipulation_targetAtFixation,jsons/v1_VE250_randls_48_rotated.json,http://54.235.29.9/FacialAge/BNav_EC2/DepthDuration/v2_depth_duration_MTurk/v2_DepthDuration_HTML.html#89,89,1440,789,1440,900,8-20-2022,10-58-55,7,depth_duration_stimuli/003228_2014-05-14_13-42-35_094959634447_rgbf000101-resize_1/003228_2014-05-14_13-42-35_094959634447_rgbf000101-resize_1-target.png,250,1.9680000000000002,60.0,5289,250,meters,jsons/v1_VE250_randls_48_rotated.json,1236453,1521048,31,Woman
7,491548,DepthScenes,duration_manipulation_targetAtFixation,jsons/v1_VE250_randls_48_rotated.json,http://54.235.29.9/FacialAge/BNav_EC2/DepthDuration/v2_depth_duration_MTurk/v2_DepthDuration_HTML.html#89,89,1440,789,1440,900,8-20-2022,10-58-55,8,depth_duration_stimuli/002600_2014-06-24_14-27-04_094959634447_rgbf000074-resize_2/002600_2014-06-24_14-27-04_094959634447_rgbf000074-resize_2-target.png,250,2.7575,60.0,15012,251,meters,jsons/v1_VE250_randls_48_rotated.json,1236453,1521048,31,Woman
8,491548,DepthScenes,duration_manipulation_targetAtFixation,jsons/v1_VE250_randls_48_rotated.json,http://54.235.29.9/FacialAge/BNav_EC2/DepthDuration/v2_depth_duration_MTurk/v2_DepthDuration_HTML.html#89,89,1440,789,1440,900,8-20-2022,10-58-55,9,depth_duration_stimuli/001447_2014-06-19_17-00-32_260595134347_rgbf000082-resize_5/001447_2014-06-19_17-00-32_260595134347_rgbf000082-resize_5-target.png,250,4.13775,50.0,8874,249,meters,jsons/v1_VE250_randls_48_rotated.json,1236453,1521048,31,Woman
9,491548,DepthScenes,duration_manipulation_targetAtFixation,jsons/v1_VE250_randls_48_rotated.json,http://54.235.29.9/FacialAge/BNav_EC2/DepthDuration/v2_depth_duration_MTurk/v2_DepthDuration_HTML.html#89,89,1440,789,1440,900,8-20-2022,10-58-55,10,depth_duration_stimuli/000447_2014-06-08_16-15-46_260595134347_rgbf000130-resize_1/000447_2014-06-08_16-15-46_260595134347_rgbf000130-resize_1-target.png,250,4.479,60.0,13267,251,meters,jsons/v1_VE250_randls_48_rotated.json,1236453,1521048,31,Woman
10,491548,DepthScenes,duration_manipulation_targetAtFixation,jsons/v1_VE250_randls_48_rotated.json,http://54.235.29.9/FacialAge/BNav_EC2/DepthDuration/v2_depth_duration_MTurk/v2_DepthDuration_HTML.html#89,89,1440,789,1440,900,8-20-2022,10-58-55,11,depth_duration_stimuli/000691_2014-06-08_13-08-50_260595134347_rgbf000132-resize_3/000691_2014-06-08_13-08-50_260595134347_rgbf000132-resize_3-target.png,250,4.1530000000000005,50.0,8809,249,meters,jsons/v1_VE250_randls_48_rotated.json,1236453,1521048,31,Woman
11,491548,DepthScenes,duration_manipulation_targetAtFixation,jsons/v1_VE250_randls_48_rotated.json,http://54.235.29.9/FacialAge/BNav_EC2/DepthDuration/v2_depth_duration_MTurk/v2_DepthDuration_HTML.html#89,89,1440,789,1440,900,8-20-2022,10-58-55,12,depth_duration_stimuli/002213_2014-06-28_18-37-58_260595134347_rgbf000055-resize_1/002213_2014-06-28_18-37-58_260595134347_rgbf000055-resize_1-target.png,250,3.62,60.0,7507,251,meters,jsons/v1_VE250_randls_48_rotated.json,1236453,1521048,31,Woman
12,491548,DepthScenes,duration_manipulation_targetAtFixation,jsons/v1_VE250_randls_48_rotated.json,http://54.235.29.9/FacialAge/BNav_EC2/DepthDuration/v2_depth_duration_MTurk/v2_DepthDuration_HTML.html#89,89,1440,789,1440,900,8-20-2022,10-58-55,13,depth_duration_stimuli/003423_2014-05-21_10-23-26_094959634447_rgbf002665-resize_2/003423_2014-05-21_10-23-26_094959634447_rgbf002665-resize_2-target.png,250,3.2575,60.0,5388,252,meters,jsons/v1_VE250_randls_48_rotated.json,1236453,1521048,31,Woman
13,491548,DepthScenes,duration_manipulation_targetAtFixation,jsons/v1_VE250_randls_48_rotated.json,http://54.235.29.9/FacialAge/BNav_EC2/DepthDuration/v2_depth_duration_MTurk/v2_DepthDuration_HTML.html#89,89,1440,789,1440,900,8-20-2022,10-58-55,14,depth_duration_stimuli/002905_2014-06-03_18-04-43_094959634447_rgbf000151-resize_2/002905_2014-06-03_18-04-43_094959634447_rgbf000151-resize_2-target.png,250,2.0295,60.0,8825,250,meters,jsons/v1_VE250_randls_48_rotated.json,1236453,1521048,31,Woman
14,491548,DepthScenes,duration_manipulation_targetAtFixation,jsons/v1_VE250_randls_48_rotated.json,http://54.235.29.9/FacialAge/BNav_EC2/DepthDuration/v2_depth_duration_MTurk/v2_DepthDuration_HTML.html#89,89,1440,789,1440,900,8-20-2022,10-58-55,15,depth_duration_stimuli/001052_2014-06-08_18-24-54_260595134347_rgbf000130-resize_1/001052_2014-06-08_18-24-54_260595134347_rgbf000130-resize_1-target.png,250,4.1045,50.0,6362,250,meters,jsons/v1_VE250_randls_48_rotated.json,1236453,1521048,31,Woman
15,491548,DepthScenes,duration_manipulation_targetAtFixation,jsons/v1_VE250_randls_48_rotated.json,http://54.235.29.9/FacialAge/BNav_EC2/DepthDuration/v2_depth_duration_MTurk/v2_DepthDuration_HTML.html#89,89,1440,789,1440,900,8-20-2022,10-58-55,16,depth_duration_stimuli/002988_2014-06-15_12-24-20_094959634447_rgbf000150-resize_1/002988_2014-06-15_12-24-20_094959634447_rgbf000150-resize_1-target.png,250,4.7669999999999995,60.0,6539,249,meters,jsons/v1_VE250_randls_48_rotated.json,1236453,1521048,31,Woman
16,491548,DepthScenes,duration_manipulation_targetAtFixation,jsons/v1_VE250_randls_48_rotated.json,http://54.235.29.9/FacialAge/BNav_EC2/DepthDuration/v2_depth_duration_MTurk/v2_DepthDuration_HTML.html#89,89,1440,789,1440,900,8-20-2022,10-58-55,17,depth_duration_stimuli/001450_2014-06-19_17-02-03_260595134347_rgbf000203-resize_4/001450_2014-06-19_17-02-03_260595134347_rgbf000203-resize_4-target.png,250,4.0106666666667,50.0,5586,250,meters,jsons/v1_VE250_randls_48_rotated.json,1236453,1521048,31,Woman
17,491548,DepthScenes,duration_manipulation_targetAtFixation,jsons/v1_VE250_randls_48_rotated.json,http://54.235.29.9/FacialAge/BNav_EC2/DepthDuration/v2_depth_duration_MTurk/v2_DepthDuration_HTML.html#89,89,1440,789,1440,900,8-20-2022,10-58-55,18,depth_duration_stimuli/001449_2014-06-19_17-01-27_260595134347_rgbf000116-resize_2/001449_2014-06-19_17-01-27_260595134347_rgbf000116-resize_2-target.png,250,3.452,60.0,15641,249,meters,jsons/v1_VE250_randls_48_rotated.json,1236453,1521048,31,Woman
18,491548,DepthScenes,duration_manipulation_targetAtFixation,jsons/v1_VE250_randls_48_rotated.json,http://54.235.29.9/FacialAge/BNav_EC2/DepthDuration/v2_depth_duration_MTurk/v2_DepthDuration_HTML.html#89,89,1440,789,1440,900,8-20-2022,10-58-55,19,depth_duration_stimuli/001498_2014-06-19_17-45-14_260595134347_rgbf000129-resize_4/001498_2014-06-19_17-45-14_260595134347_rgbf000129-resize-original.jpg,250,1.4075,0.0,5043,251,meters,jsons/v1_VE250_randls_48_rotated.json,1236453,1521048,31,Woman
19,491548,DepthScenes,duration_manipulation_targetAtFixation,jsons/v1_VE250_randls_48_rotated.json,http://54.235.29.9/FacialAge/BNav_EC2/DepthDuration/v2_depth_duration_MTurk/v2_DepthDuration_HTML.html#89,89,1440,789,1440,900,8-20-2022,10-58-55,20,depth_duration_stimuli/002805_2014-06-22_19-54-03_094959634447_rgbf000079-resize_1/002805_2014-06-22_19-54-03_094959634447_rgbf000079-resize_1-target.png,250,3.1439999999999997,60.0,2786,249,meters,jsons/v1_VE250_randls_48_rotated.json,1236453,1521048,31,Woman
20,491548,DepthScenes,duration_manipulation_targetAtFixation,jsons/v1_VE250_randls_48_rotated.json,http://54.235.29.9/FacialAge/BNav_EC2/DepthDuration/v2_depth_duration_MTurk/v2_DepthDuration_HTML.html#89,89,1440,789,1440,900,8-20-2022,10-58-55,21,depth_duration_stimuli/000906_2014-06-08_13-35-43_260595134347_rgbf000155-resize_1/000906_2014-06-08_13-35-43_260595134347_rgbf000155-resize_1-target.png,250,2.8489999999999998,50.0,2899,249,meters,jsons/v1_VE250_randls_48_rotated.json,1236453,1521048,31,Woman
21,491548,DepthScenes,duration_manipulation_targetAtFixation,jsons/v1_VE250_randls_48_rotated.json,http://54.235.29.9/FacialAge/BNav_EC2/DepthDuration/v2_depth_duration_MTurk/v2_DepthDuration_HTML.html#89,89,1440,789,1440,900,8-20-2022,10-58-55,22,depth_duration_stimuli/002949_2014-06-26_15-57-42_094959634447_rgbf000079-resize_1/002949_2014-06-26_15-57-42_094959634447_rgbf000079-resize_1-target.png,250,1.8915,60.0,4151,249,meters,jsons/v1_VE250_randls_48_rotated.json,1236453,1521048,31,Woman
22,491548,DepthScenes,duration_manipulation_targetAtFixation,jsons/v1_VE250_randls_48_rotated.json,http://54.235.29.9/FacialAge/BNav_EC2/DepthDuration/v2_depth_duration_MTurk/v2_DepthDuration_HTML.html#89,89,1440,789,1440,900,8-20-2022,10-58-55,23,depth_duration_stimuli/000522_2014-06-08_13-35-06_260595134347_rgbf000244-resize_1/000522_2014-06-08_13-35-06_260595134347_rgbf000244-resize_1-target.png,250,2.3715,50.0,11220,250,meters,jsons/v1_VE250_randls_48_rotated.json,1236453,1521048,31,Woman
23,491548,DepthScenes,duration_manipulation_targetAtFixation,jsons/v1_VE250_randls_48_rotated.json,http://54.235.29.9/FacialAge/BNav_EC2/DepthDuration/v2_depth_duration_MTurk/v2_DepthDuration_HTML.html#89,89,1440,789,1440,900,8-20-2022,10-58-55,24,depth_duration_stimuli/000665_2014-06-09_20-42-35_260595134347_rgbf000110-resize_1/000665_2014-06-09_20-42-35_260595134347_rgbf000110-resize_1-target.png,250,3.057,60.0,36524,250,meters,jsons/v1_VE250_randls_48_rotated.json,1236453,1521048,31,Woman
24,491548,DepthScenes,duration_manipulation_targetAtFixation,jsons/v1_VE250_randls_48_rotated.json,http://54.235.29.9/FacialAge/BNav_EC2/DepthDuration/v2_depth_duration_MTurk/v2_DepthDuration_HTML.html#89,89,1440,789,1440,900,8-20-2022,10-58-55,25,depth_duration_stimuli/001150_2014-06-17_15-27-34_260595134347_rgbf000108-resize_2/001150_2014-06-17_15-27-34_260595134347_rgbf000108-resize_2-target.png,250,4.0325,60.0,5418,250,meters,jsons/v1_VE250_randls_48_rotated.json,1236453,1521048,31,Woman
25,491548,DepthScenes,duration_manipulation_targetAtFixation,jsons/v1_VE250_randls_48_rotated.json,http://54.235.29.9/FacialAge/BNav_EC2/DepthDuration/v2_depth_duration_MTurk/v2_DepthDuration_HTML.html#89,89,1440,789,1440,900,8-20-2022,10-58-55,26,depth_duration_stimuli/001617_2014-06-20_11-35-32_260595134347_rgbf000066-resize_1/001617_2014-06-20_11-35-32_260595134347_rgbf000066-resize_1-target.png,250,3.7910000000000004,80.0,5315,251,meters,jsons/v1_VE250_randls_48_rotated.json,1236453,1521048,31,Woman
26,491548,DepthScenes,duration_manipulation_targetAtFixation,jsons/v1_VE250_randls_48_rotated.json,http://54.235.29.9/FacialAge/BNav_EC2/DepthDuration/v2_depth_duration_MTurk/v2_DepthDuration_HTML.html#89,89,1440,789,1440,900,8-20-2022,10-58-55,27,depth_duration_stimuli/001806_2014-06-26_20-50-20_260595134347_rgbf000091-resize_1/001806_2014-06-26_20-50-20_260595134347_rgbf000091-resize_1-target.png,250,2.7305,60.0,3737,249,meters,jsons/v1_VE250_randls_48_rotated.json,1236453,1521048,31,Woman
27,491548,DepthScenes,duration_manipulation_targetAtFixation,jsons/v1_VE250_randls_48_rotated.json,http://54.235.29.9/FacialAge/BNav_EC2/DepthDuration/v2_depth_duration_MTurk/v2_DepthDuration_HTML.html#89,89,1440,789,1440,900,8-20-2022,10-58-55,28,depth_duration_stimuli/003495_2014-05-21_16-01-51_094959634447_rgbf000100-resize_3/003495_2014-05-21_16-01-51_094959634447_rgbf000100-resize_3-target.png,250,1.6255,60.0,4531,249,meters,jsons/v1_VE250_randls_48_rotated.json,1236453,1521048,31,Woman
28,491548,DepthScenes,duration_manipulation_targetAtFixation,jsons/v1_VE250_randls_48_rotated.json,http://54.235.29.9/FacialAge/BNav_EC2/DepthDuration/v2_depth_duration_MTurk/v2_DepthDuration_HTML.html#89,89,1440,789,1440,900,8-20-2022,10-58-55,29,depth_duration_stimuli/001244_2014-06-17_16-47-45_260595134347_rgbf000030-resize_4/001244_2014-06-17_16-47-45_260595134347_rgbf000030-resize_4-target.png,250,2.0425,80.0,3634,249,meters,jsons/v1_VE250_randls_48_rotated.json,1236453,1521048,31,Woman
29,491548,DepthScenes,duration_manipulation_targetAtFixation,jsons/v1_VE250_randls_48_rotated.json,http://54.235.29.9/FacialAge/BNav_EC2/DepthDuration/v2_depth_duration_MTurk/v2_DepthDuration_HTML.html#89,89,1440,789,1440,900,8-20-2022,10-58-55,30,depth_duration_stimuli/002072_2014-06-24_21-48-06_260595134347_rgbf000115-resize_0/002072_2014-06-24_21-48-06_260595134347_rgbf000115-resize-original.jpg,250,4.702,90.0,3795,250,meters,jsons/v1_VE250_randls_48_rotated.json,1236453,1521048,31,Woman
30,491548,DepthScenes,duration_manipulation_targetAtFixation,jsons/v1_VE250_randls_48_rotated.json,http://54.235.29.9/FacialAge/BNav_EC2/DepthDuration/v2_depth_duration_MTurk/v2_DepthDuration_HTML.html#89,89,1440,789,1440,900,8-20-2022,10-58-55,31,depth_duration_stimuli/002657_2014-06-13_15-29-54_094959634447_rgbf000150-resize_1/002657_2014-06-13_15-29-54_094959634447_rgbf000150-resize_1-target.png,250,4.919,60.0,3626,249,meters,jsons/v1_VE250_randls_48_rotated.json,1236453,1521048,31,Woman
31,491548,DepthScenes,duration_manipulation_targetAtFixation,jsons/v1_VE250_randls_48_rotated.json,http://54.235.29.9/FacialAge/BNav_EC2/DepthDuration/v2_depth_duration_MTurk/v2_DepthDuration_HTML.html#89,89,1440,789,1440,900,8-20-2022,10-58-55,32,depth_duration_stimuli/002375_2014-06-28_20-13-44_260595134347_rgbf000032-resize_1/002375_2014-06-28_20-13-44_260595134347_rgbf000032-resize_1-target.png,250,4.0175,80.0,9961,250,meters,jsons/v1_VE250_randls_48_rotated.json,1236453,1521048,31,Woman
32,491548,DepthScenes,duration_manipulation_targetAtFixation,jsons/v1_VE250_randls_48_rotated.json,http://54.235.29.9/FacialAge/BNav_EC2/DepthDuration/v2_depth_duration_MTurk/v2_DepthDuration_HTML.html#89,89,1440,789,1440,900,8-20-2022,10-58-55,33,depth_duration_stimuli/003010_2014-06-15_12-54-35_094959634447_rgbf000112-resize_0/003010_2014-06-15_12-54-35_094959634447_rgbf000112-resize_0-target.png,250,3.1185,80.0,3420,250,meters,jsons/v1_VE250_randls_48_rotated.json,1236453,1521048,31,Woman
33,491548,DepthScenes,duration_manipulation_targetAtFixation,jsons/v1_VE250_randls_48_rotated.json,http://54.235.29.9/FacialAge/BNav_EC2/DepthDuration/v2_depth_duration_MTurk/v2_DepthDuration_HTML.html#89,89,1440,789,1440,900,8-20-2022,10-58-55,34,depth_duration_stimuli/001810_2014-06-26_20-51-35_260595134347_rgbf000040-resize_3/001810_2014-06-26_20-51-35_260595134347_rgbf000040-resize_3-target.png,250,2.2525,80.0,3626,250,meters,jsons/v1_VE250_randls_48_rotated.json,1236453,1521048,31,Woman
34,491548,DepthScenes,duration_manipulation_targetAtFixation,jsons/v1_VE250_randls_48_rotated.json,http://54.235.29.9/FacialAge/BNav_EC2/DepthDuration/v2_depth_duration_MTurk/v2_DepthDuration_HTML.html#89,89,1440,789,1440,900,8-20-2022,10-58-55,35,depth_duration_stimuli/001516_2014-06-20_16-25-09_260595134347_rgbf000076-resize_2/001516_2014-06-20_16-25-09_260595134347_rgbf000076-resize_2-target.png,250,1.7445,80.0,4252,249,meters,jsons/v1_VE250_randls_48_rotated.json,1236453,1521048,31,Woman
35,491548,DepthScenes,duration_manipulation_targetAtFixation,jsons/v1_VE250_randls_48_rotated.json,http://54.235.29.9/FacialAge/BNav_EC2/DepthDuration/v2_depth_duration_MTurk/v2_DepthDuration_HTML.html#89,89,1440,789,1440,900,8-20-2022,10-58-55,36,depth_duration_stimuli/002118_2014-06-25_20-32-08_260595134347_rgbf000078-resize_1/002118_2014-06-25_20-32-08_260595134347_rgbf000078-resize_1-target.png,250,2.6460000000000004,80.0,2985,248,meters,jsons/v1_VE250_randls_48_rotated.json,1236453,1521048,31,Woman
36,491548,DepthScenes,duration_manipulation_targetAtFixation,jsons/v1_VE250_randls_48_rotated.json,http://54.235.29.9/FacialAge/BNav_EC2/DepthDuration/v2_depth_duration_MTurk/v2_DepthDuration_HTML.html#89,89,1440,789,1440,900,8-20-2022,10-58-55,37,depth_duration_stimuli/000854_2014-06-09_19-43-13_260595134347_rgbf000066-resize_0/000854_2014-06-09_19-43-13_260595134347_rgbf000066-resize_0-target.png,250,3.068,90.0,7306,249,meters,jsons/v1_VE250_randls_48_rotated.json,1236453,1521048,31,Woman
37,491548,DepthScenes,duration_manipulation_targetAtFixation,jsons/v1_VE250_randls_48_rotated.json,http://54.235.29.9/FacialAge/BNav_EC2/DepthDuration/v2_depth_duration_MTurk/v2_DepthDuration_HTML.html#89,89,1440,789,1440,900,8-20-2022,10-58-55,38,depth_duration_stimuli/000758_2014-06-08_22-05-08_260595134347_rgbf000085-resize_0/000758_2014-06-08_22-05-08_260595134347_rgbf000085-resize_0-target.png,250,3.3810000000000002,80.0,30041,249,meters,jsons/v1_VE250_randls_48_rotated.json,1236453,1521048,31,Woman
38,491548,DepthScenes,duration_manipulation_targetAtFixation,jsons/v1_VE250_randls_48_rotated.json,http://54.235.29.9/FacialAge/BNav_EC2/DepthDuration/v2_depth_duration_MTurk/v2_DepthDuration_HTML.html#89,89,1440,789,1440,900,8-20-2022,10-58-55,39,depth_duration_stimuli/000483_2014-06-09_20-41-45_260595134347_rgbf000116-resize_4/000483_2014-06-09_20-41-45_260595134347_rgbf000116-resize_4-target.png,250,1.337,80.0,6795,249,meters,jsons/v1_VE250_randls_48_rotated.json,1236453,1521048,31,Woman
39,491548,DepthScenes,duration_manipulation_targetAtFixation,jsons/v1_VE250_randls_48_rotated.json,http://54.235.29.9/FacialAge/BNav_EC2/DepthDuration/v2_depth_duration_MTurk/v2_DepthDuration_HTML.html#89,89,1440,789,1440,900,8-20-2022,10-58-55,40,depth_duration_stimuli/000469_2014-06-09_19-42-10_260595134347_rgbf000081-resize_1/000469_2014-06-09_19-42-10_260595134347_rgbf000081-resize_1-target.png,250,1.652,80.0,7522,249,meters,jsons/v1_VE250_randls_48_rotated.json,1236453,1521048,31,Woman
40,491548,DepthScenes,duration_manipulation_targetAtFixation,jsons/v1_VE250_randls_48_rotated.json,http://54.235.29.9/FacialAge/BNav_EC2/DepthDuration/v2_depth_duration_MTurk/v2_DepthDuration_HTML.html#89,89,1440,789,1440,900,8-20-2022,10-58-55,41,depth_duration_stimuli/000502_2014-06-08_23-02-32_260595134347_rgbf000063-resize_4/000502_2014-06-08_23-02-32_260595134347_rgbf000063-resize_4-target.png,250,2.431,90.0,7018,250,meters,jsons/v1_VE250_randls_48_rotated.json,1236453,1521048,31,Woman
41,491548,DepthScenes,duration_manipulation_targetAtFixation,jsons/v1_VE250_randls_48_rotated.json,http://54.235.29.9/FacialAge/BNav_EC2/DepthDuration/v2_depth_duration_MTurk/v2_DepthDuration_HTML.html#89,89,1440,789,1440,900,8-20-2022,10-58-55,42,depth_duration_stimuli/001199_2014-06-17_16-03-48_260595134347_rgbf000077-resize_0/001199_2014-06-17_16-03-48_260595134347_rgbf000077-resize_0-target.png,250,3.4375,60.0,3666,249,meters,jsons/v1_VE250_randls_48_rotated.json,1236453,1521048,31,Woman
42,491548,DepthScenes,duration_manipulation_targetAtFixation,jsons/v1_VE250_randls_48_rotated.json,http://54.235.29.9/FacialAge/BNav_EC2/DepthDuration/v2_depth_duration_MTurk/v2_DepthDuration_HTML.html#89,89,1440,789,1440,900,8-20-2022,10-58-55,43,depth_duration_stimuli/002637_2014-06-24_14-51-13_094959634447_rgbf000066-resize_4/002637_2014-06-24_14-51-13_094959634447_rgbf000066-resize_4-target.png,250,1.9955,80.0,4099,250,meters,jsons/v1_VE250_randls_48_rotated.json,1236453,1521048,31,Woman
43,491548,DepthScenes,duration_manipulation_targetAtFixation,jsons/v1_VE250_randls_48_rotated.json,http://54.235.29.9/FacialAge/BNav_EC2/DepthDuration/v2_depth_duration_MTurk/v2_DepthDuration_HTML.html#89,89,1440,789,1440,900,8-20-2022,10-58-55,44,depth_duration_stimuli/003534_2014-05-22_15-06-10_094959634447_rgbf000102-resize_4/003534_2014-05-22_15-06-10_094959634447_rgbf000102-resize_4-target.png,250,1.426,90.0,3569,250,meters,jsons/v1_VE250_randls_48_rotated.json,1236453,1521048,31,Woman
44,491548,DepthScenes,duration_manipulation_targetAtFixation,jsons/v1_VE250_randls_48_rotated.json,http://54.235.29.9/FacialAge/BNav_EC2/DepthDuration/v2_depth_duration_MTurk/v2_DepthDuration_HTML.html#89,89,1440,789,1440,900,8-20-2022,10-58-55,45,depth_duration_stimuli/002103_2014-06-25_20-00-40_260595134347_rgbf000049-resize_0/002103_2014-06-25_20-00-40_260595134347_rgbf000049-resize_0-target.png,250,4.105,80.0,12516,248,meters,jsons/v1_VE250_randls_48_rotated.json,1236453,1521048,31,Woman
45,491548,DepthScenes,duration_manipulation_targetAtFixation,jsons/v1_VE250_randls_48_rotated.json,http://54.235.29.9/FacialAge/BNav_EC2/DepthDuration/v2_depth_duration_MTurk/v2_DepthDuration_HTML.html#89,89,1440,789,1440,900,8-20-2022,10-58-55,46,depth_duration_stimuli/002039_2014-06-24_20-22-38_260595134347_rgbf000084-resize_1/002039_2014-06-24_20-22-38_260595134347_rgbf000084-resize_1-target.png,250,4.408,80.0,14409,249,meters,jsons/v1_VE250_randls_48_rotated.json,1236453,1521048,31,Woman
46,491548,DepthScenes,duration_manipulation_targetAtFixation,jsons/v1_VE250_randls_48_rotated.json,http://54.235.29.9/FacialAge/BNav_EC2/DepthDuration/v2_depth_duration_MTurk/v2_DepthDuration_HTML.html#89,89,1440,789,1440,900,8-20-2022,10-58-55,47,depth_duration_stimuli/003048_2014-06-15_13-49-43_094959634447_rgbf000150-resize_1/003048_2014-06-15_13-49-43_094959634447_rgbf000150-resize_1-target.png,250,4.0035,70.0,18782,250,meters,jsons/v1_VE250_randls_48_rotated.json,1236453,1521048,31,Woman
47,491548,DepthScenes,duration_manipulation_targetAtFixation,jsons/v1_VE250_randls_48_rotated.json,http://54.235.29.9/FacialAge/BNav_EC2/DepthDuration/v2_depth_duration_MTurk/v2_DepthDuration_HTML.html#89,89,1440,789,1440,900,8-20-2022,10-58-55,48,depth_duration_stimuli/002043_2014-06-24_20-29-38_260595134347_rgbf000039-resize_4/002043_2014-06-24_20-29-38_260595134347_rgbf000039-resize_4-target.png,250,2.8435,70.0,4114,250,meters,jsons/v1_VE250_randls_48_rotated.json,1236453,1521048,31,Woman
48,491548,DepthScenes,duration_manipulation_targetAtFixation,jsons/v1_VE250_randls_48_rotated.json,http://54.235.29.9/FacialAge/BNav_EC2/DepthDuration/v2_depth_duration_MTurk/v2_DepthDuration_HTML.html#89,89,1440,789,1440,900,8-20-2022,10-58-55,49,depth_duration_stimuli/001170_2014-06-17_15-43-44_260595134347_rgbf000096-resize_6/001170_2014-06-17_15-43-44_260595134347_rgbf000096-resize-original.jpg,250,1.1909999999999998,850.0,3618,250,meters,jsons/v1_VE250_randls_48_rotated.json,1236453,1521048,31,Woman
49,491548,DepthScenes,duration_manipulation_targetAtFixation,jsons/v1_VE250_randls_48_rotated.json,http://54.235.29.9/FacialAge/BNav_EC2/DepthDuration/v2_depth_duration_MTurk/v2_DepthDuration_HTML.html#89,89,1440,789,1440,900,8-20-2022,10-58-55,50,depth_duration_stimuli/002136_2014-06-25_21-18-03_260595134347_rgbf000109-resize_3/002136_2014-06-25_21-18-03_260595134347_rgbf000109-resize_3-target.png,250,1.9569999999999999,80.0,12937,249,meters,jsons/v1_VE250_randls_48_rotated.json,1236453,1521048,31,Woman
50,491548,DepthScenes,duration_manipulation_targetAtFixation,jsons/v1_VE250_randls_48_rotated.json,http://54.235.29.9/FacialAge/BNav_EC2/DepthDuration/v2_depth_duration_MTurk/v2_DepthDuration_HTML.html#89,89,1440,789,1440,900,8-20-2022,10-58-55,51,depth_duration_stimuli/002964_2014-06-08_17-46-11_094959634447_rgbf000091-resize_4/002964_2014-06-08_17-46-11_094959634447_rgbf000091-resize_4-target.png,250,1.6909999999999998,80.0,4602,250,meters,jsons/v1_VE250_randls_48_rotated.json,1236453,1521048,31,Woman
51,491548,DepthScenes,duration_manipulation_targetAtFixation,jsons/v1_VE250_randls_48_rotated.json,http://54.235.29.9/FacialAge/BNav_EC2/DepthDuration/v2_depth_duration_MTurk/v2_DepthDuration_HTML.html#89,89,1440,789,1440,900,8-20-2022,10-58-55,52,depth_duration_stimuli/002425_2014-06-28_20-27-29_260595134347_rgbf000031-resize_8/002425_2014-06-28_20-27-29_260595134347_rgbf000031-resize_8-target.png,250,3.8960000000000004,80.0,5017,249,meters,jsons/v1_VE250_randls_48_rotated.json,1236453,1521048,31,Woman
52,491548,DepthScenes,duration_manipulation_targetAtFixation,jsons/v1_VE250_randls_48_rotated.json,http://54.235.29.9/FacialAge/BNav_EC2/DepthDuration/v2_depth_duration_MTurk/v2_DepthDuration_HTML.html#89,89,1440,789,1440,900,8-20-2022,10-58-55,53,depth_duration_stimuli/000642_2014-06-08_16-59-25_260595134347_rgbf000098-resize_2/000642_2014-06-08_16-59-25_260595134347_rgbf000098-resize_2-target.png,250,2.8815,80.0,6154,249,meters,jsons/v1_VE250_randls_48_rotated.json,1236453,1521048,31,Woman
53,491548,DepthScenes,duration_manipulation_targetAtFixation,jsons/v1_VE250_randls_48_rotated.json,http://54.235.29.9/FacialAge/BNav_EC2/DepthDuration/v2_depth_duration_MTurk/v2_DepthDuration_HTML.html#89,89,1440,789,1440,900,8-20-2022,10-58-55,54,depth_duration_stimuli/000109_2014-05-14_23-41-52_260595134347_rgbf000035-resize_9/000109_2014-05-14_23-41-52_260595134347_rgbf000035-resize_9-target.png,250,1.3545,80.0,3561,250,meters,jsons/v1_VE250_randls_48_rotated.json,1236453,1521048,31,Woman
54,491548,DepthScenes,duration_manipulation_targetAtFixation,jsons/v1_VE250_randls_48_rotated.json,http://54.235.29.9/FacialAge/BNav_EC2/DepthDuration/v2_depth_duration_MTurk/v2_DepthDuration_HTML.html#89,89,1440,789,1440,900,8-20-2022,10-58-55,55,depth_duration_stimuli/000470_2014-06-09_19-42-40_260595134347_rgbf000094-resize_1/000470_2014-06-09_19-42-40_260595134347_rgbf000094-resize_1-target.png,250,1.831,80.0,3706,250,meters,jsons/v1_VE250_randls_48_rotated.json,1236453,1521048,31,Woman
55,491548,DepthScenes,duration_manipulation_targetAtFixation,jsons/v1_VE250_randls_48_rotated.json,http://54.235.29.9/FacialAge/BNav_EC2/DepthDuration/v2_depth_duration_MTurk/v2_DepthDuration_HTML.html#89,89,1440,789,1440,900,8-20-2022,10-58-55,56,depth_duration_stimuli/002953_2014-06-08_17-32-18_094959634447_rgbf000059-resize_5/002953_2014-06-08_17-32-18_094959634447_rgbf000059-resize_5-target.png,250,1.551,50.0,7545,250,meters,jsons/v1_VE250_randls_48_rotated.json,1236453,1521048,31,Woman
56,491548,DepthScenes,duration_manipulation_targetAtFixation,jsons/v1_VE250_randls_48_rotated.json,http://54.235.29.9/FacialAge/BNav_EC2/DepthDuration/v2_depth_duration_MTurk/v2_DepthDuration_HTML.html#89,89,1440,789,1440,900,8-20-2022,10-58-55,57,depth_duration_stimuli/000878_2014-06-08_22-52-45_260595134347_rgbf000045-resize_2/000878_2014-06-08_22-52-45_260595134347_rgbf000045-resize_2-target.png,250,2.092,50.0,2796,249,meters,jsons/v1_VE250_randls_48_rotated.json,1236453,1521048,31,Woman
57,491548,DepthScenes,duration_manipulation_targetAtFixation,jsons/v1_VE250_randls_48_rotated.json,http://54.235.29.9/FacialAge/BNav_EC2/DepthDuration/v2_depth_duration_MTurk/v2_DepthDuration_HTML.html#89,89,1440,789,1440,900,8-20-2022,10-58-55,58,depth_duration_stimuli/003079_2014-06-15_15-18-20_094959634447_rgbf000152-resize_8/003079_2014-06-15_15-18-20_094959634447_rgbf000152-resize_8-target.png,250,2.8775,42.0,4082,250,meters,jsons/v1_VE250_randls_48_rotated.json,1236453,1521048,31,Woman
58,491548,DepthScenes,duration_manipulation_targetAtFixation,jsons/v1_VE250_randls_48_rotated.json,http://54.235.29.9/FacialAge/BNav_EC2/DepthDuration/v2_depth_duration_MTurk/v2_DepthDuration_HTML.html#89,89,1440,789,1440,900,8-20-2022,10-58-55,59,depth_duration_stimuli/000506_2014-06-08_23-21-00_260595134347_rgbf000070-resize_7/000506_2014-06-08_23-21-00_260595134347_rgbf000070-resize_7-target.png,250,4.0585,50.0,9369,250,meters,jsons/v1_VE250_randls_48_rotated.json,1236453,1521048,31,Woman
59,491548,DepthScenes,duration_manipulation_targetAtFixation,jsons/v1_VE250_randls_48_rotated.json,http://54.235.29.9/FacialAge/BNav_EC2/DepthDuration/v2_depth_duration_MTurk/v2_DepthDuration_HTML.html#89,89,1440,789,1440,900,8-20-2022,10-58-55,60,depth_duration_stimuli/001828_2014-06-26_21-40-03_260595134347_rgbf000024-resize_0/001828_2014-06-26_21-40-03_260595134347_rgbf000024-resize_0-target.png,250,4.8260000000000005,850.0,4162,250,meters,jsons/v1_VE250_randls_48_rotated.json,1236453,1521048,31,Woman
60,491548,DepthScenes,duration_manipulation_targetAtFixation,jsons/v1_VE250_randls_48_rotated.json,http://54.235.29.9/FacialAge/BNav_EC2/DepthDuration/v2_depth_duration_MTurk/v2_DepthDuration_HTML.html#89,89,1440,789,1440,900,8-20-2022,10-58-55,61,depth_duration_stimuli/000009_2014-05-26_14-32-05_260595134347_rgbf000034-resize_3/000009_2014-05-26_14-32-05_260595134347_rgbf000034-resize_3-target.png,250,3.8715,50.0,8442,249,meters,jsons/v1_VE250_randls_48_rotated.json,1236453,1521048,31,Woman
61,491548,DepthScenes,duration_manipulation_targetAtFixation,jsons/v1_VE250_randls_48_rotated.json,http://54.235.29.9/FacialAge/BNav_EC2/DepthDuration/v2_depth_duration_MTurk/v2_DepthDuration_HTML.html#89,89,1440,789,1440,900,8-20-2022,10-58-55,62,depth_duration_stimuli/000734_2014-06-08_17-39-11_260595134347_rgbf000128-resize_2/000734_2014-06-08_17-39-11_260595134347_rgbf000128-resize_2-target.png,250,4.098,50.0,12122,250,meters,jsons/v1_VE250_randls_48_rotated.json,1236453,1521048,31,Woman
62,491548,DepthScenes,duration_manipulation_targetAtFixation,jsons/v1_VE250_randls_48_rotated.json,http://54.235.29.9/FacialAge/BNav_EC2/DepthDuration/v2_depth_duration_MTurk/v2_DepthDuration_HTML.html#89,89,1440,789,1440,900,8-20-2022,10-58-55,63,depth_duration_stimuli/000739_2014-06-08_18-45-58_260595134347_rgbf000068-resize_1/000739_2014-06-08_18-45-58_260595134347_rgbf000068-resize_1-target.png,250,3.534,50.0,2930,249,meters,jsons/v1_VE250_randls_48_rotated.json,1236453,1521048,31,Woman
63,491548,DepthScenes,duration_manipulation_targetAtFixation,jsons/v1_VE250_randls_48_rotated.json,http://54.235.29.9/FacialAge/BNav_EC2/DepthDuration/v2_depth_duration_MTurk/v2_DepthDuration_HTML.html#89,89,1440,789,1440,900,8-20-2022,10-58-55,64,depth_duration_stimuli/002340_2014-06-28_20-05-46_260595134347_rgbf000113-resize_0/002340_2014-06-28_20-05-46_260595134347_rgbf000113-resize_0-target.png,250,2.4735,80.0,4138,250,meters,jsons/v1_VE250_randls_48_rotated.json,1236453,1521048,31,Woman
64,491548,DepthScenes,duration_manipulation_targetAtFixation,jsons/v1_VE250_randls_48_rotated.json,http://54.235.29.9/FacialAge/BNav_EC2/DepthDuration/v2_depth_duration_MTurk/v2_DepthDuration_HTML.html#89,89,1440,789,1440,900,8-20-2022,10-58-55,65,depth_duration_stimuli/001016_2014-06-09_16-16-10_260595134347_rgbf000112-resize_5/001016_2014-06-09_16-16-10_260595134347_rgbf000112-resize_5-target.png,250,1.6565,80.0,3193,249,meters,jsons/v1_VE250_randls_48_rotated.json,1236453,1521048,31,Woman
65,491548,DepthScenes,duration_manipulation_targetAtFixation,jsons/v1_VE250_randls_48_rotated.json,http://54.235.29.9/FacialAge/BNav_EC2/DepthDuration/v2_depth_duration_MTurk/v2_DepthDuration_HTML.html#89,89,1440,789,1440,900,8-20-2022,10-58-55,66,depth_duration_stimuli/001540_2014-06-20_17-01-05_260595134347_rgbf000086-resize_2/001540_2014-06-20_17-01-05_260595134347_rgbf000086-resize-original.jpg,250,1.459,80.0,2731,250,meters,jsons/v1_VE250_randls_48_rotated.json,1236453,1521048,31,Woman
66,491548,DepthScenes,duration_manipulation_targetAtFixation,jsons/v1_VE250_randls_48_rotated.json,http://54.235.29.9/FacialAge/BNav_EC2/DepthDuration/v2_depth_duration_MTurk/v2_DepthDuration_HTML.html#89,89,1440,789,1440,900,8-20-2022,10-58-55,67,depth_duration_stimuli/001214_2014-06-17_16-13-55_260595134347_rgbf000111-resize_0/001214_2014-06-17_16-13-55_260595134347_rgbf000111-resize_0-target.png,250,2.6505,80.0,2996,251,meters,jsons/v1_VE250_randls_48_rotated.json,1236453,1521048,31,Woman
67,491548,DepthScenes,duration_manipulation_targetAtFixation,jsons/v1_VE250_randls_48_rotated.json,http://54.235.29.9/FacialAge/BNav_EC2/DepthDuration/v2_depth_duration_MTurk/v2_DepthDuration_HTML.html#89,89,1440,789,1440,900,8-20-2022,10-58-55,68,depth_duration_stimuli/000810_2014-06-08_17-20-01_260595134347_rgbf000105-resize_0/000810_2014-06-08_17-20-01_260595134347_rgbf000105-resize_0-target.png,250,1.4865,80.0,2689,250,meters,jsons/v1_VE250_randls_48_rotated.json,1236453,1521048,31,Woman
68,491548,DepthScenes,duration_manipulation_targetAtFixation,jsons/v1_VE250_randls_48_rotated.json,http://54.235.29.9/FacialAge/BNav_EC2/DepthDuration/v2_depth_duration_MTurk/v2_DepthDuration_HTML.html#89,89,1440,789,1440,900,8-20-2022,10-58-55,69,depth_duration_stimuli/001094_2014-06-15_17-36-00_260595134347_rgbf000205-resize_0/001094_2014-06-15_17-36-00_260595134347_rgbf000205-resize_0-target.png,250,4.2175,80.0,3411,251,meters,jsons/v1_VE250_randls_48_rotated.json,1236453,1521048,31,Woman
69,491548,DepthScenes,duration_manipulation_targetAtFixation,jsons/v1_VE250_randls_48_rotated.json,http://54.235.29.9/FacialAge/BNav_EC2/DepthDuration/v2_depth_duration_MTurk/v2_DepthDuration_HTML.html#89,89,1440,789,1440,900,8-20-2022,10-58-55,70,depth_duration_stimuli/000692_2014-06-08_13-09-42_260595134347_rgbf000199-resize_2/000692_2014-06-08_13-09-42_260595134347_rgbf000199-resize_2-target.png,250,3.661,80.0,2953,249,meters,jsons/v1_VE250_randls_48_rotated.json,1236453,1521048,31,Woman
70,491548,DepthScenes,duration_manipulation_targetAtFixation,jsons/v1_VE250_randls_48_rotated.json,http://54.235.29.9/FacialAge/BNav_EC2/DepthDuration/v2_depth_duration_MTurk/v2_DepthDuration_HTML.html#89,89,1440,789,1440,900,8-20-2022,10-58-55,71,depth_duration_stimuli/003490_2014-05-21_15-50-11_094959634447_rgbf000101-resize_3/003490_2014-05-21_15-50-11_094959634447_rgbf000101-resize_3-target.png,250,3.6445,810.0,4107,249,meters,jsons/v1_VE250_randls_48_rotated.json,1236453,1521048,31,Woman
71,491548,DepthScenes,duration_manipulation_targetAtFixation,jsons/v1_VE250_randls_48_rotated.json,http://54.235.29.9/FacialAge/BNav_EC2/DepthDuration/v2_depth_duration_MTurk/v2_DepthDuration_HTML.html#89,89,1440,789,1440,900,8-20-2022,10-58-55,72,depth_duration_stimuli/001175_2014-06-17_15-45-55_260595134347_rgbf000129-resize_4/001175_2014-06-17_15-45-55_260595134347_rgbf000129-resize_4-target.png,250,4.255,80.0,7634,250,meters,jsons/v1_VE250_randls_48_rotated.json,1236453,1521048,31,Woman
72,491548,DepthScenes,duration_manipulation_targetAtFixation,jsons/v1_VE250_randls_48_rotated.json,http://54.235.29.9/FacialAge/BNav_EC2/DepthDuration/v2_depth_duration_MTurk/v2_DepthDuration_HTML.html#89,89,1440,789,1440,900,8-20-2022,10-58-55,73,depth_duration_stimuli/001392_2014-06-19_16-07-59_260595134347_rgbf000046-resize_1/001392_2014-06-19_16-07-59_260595134347_rgbf000046-resize_1-target.png,250,4.135,80.0,3466,250,meters,jsons/v1_VE250_randls_48_rotated.json,1236453,1521048,31,Woman
73,491548,DepthScenes,duration_manipulation_targetAtFixation,jsons/v1_VE250_randls_48_rotated.json,http://54.235.29.9/FacialAge/BNav_EC2/DepthDuration/v2_depth_duration_MTurk/v2_DepthDuration_HTML.html#89,89,1440,789,1440,900,8-20-2022,10-58-55,74,depth_duration_stimuli/001570_2014-06-20_17-21-09_260595134347_rgbf000135-resize_4/001570_2014-06-20_17-21-09_260595134347_rgbf000135-resize_4-target.png,250,4.467,80.0,18946,249,meters,jsons/v1_VE250_randls_48_rotated.json,1236453,1521048,31,Woman
74,491548,DepthScenes,duration_manipulation_targetAtFixation,jsons/v1_VE250_randls_48_rotated.json,http://54.235.29.9/FacialAge/BNav_EC2/DepthDuration/v2_depth_duration_MTurk/v2_DepthDuration_HTML.html#89,89,1440,789,1440,900,8-20-2022,10-58-55,75,depth_duration_stimuli/002209_2014-06-28_18-36-10_260595134347_rgbf000051-resize_1/002209_2014-06-28_18-36-10_260595134347_rgbf000051-resize_1-target.png,250,2.057,80.0,12171,250,meters,jsons/v1_VE250_randls_48_rotated.json,1236453,1521048,31,Woman
75,491548,DepthScenes,duration_manipulation_targetAtFixation,jsons/v1_VE250_randls_48_rotated.json,http://54.235.29.9/FacialAge/BNav_EC2/DepthDuration/v2_depth_duration_MTurk/v2_DepthDuration_HTML.html#89,89,1440,789,1440,900,8-20-2022,10-58-55,76,depth_duration_stimuli/002763_2014-06-22_19-13-10_094959634447_rgbf000075-resize_4/002763_2014-06-22_19-13-10_094959634447_rgbf000075-resize_4-target.png,250,1.68375,80.0,3579,249,meters,jsons/v1_VE250_randls_48_rotated.json,1236453,1521048,31,Woman
76,491548,DepthScenes,duration_manipulation_targetAtFixation,jsons/v1_VE250_randls_48_rotated.json,http://54.235.29.9/FacialAge/BNav_EC2/DepthDuration/v2_depth_duration_MTurk/v2_DepthDuration_HTML.html#89,89,1440,789,1440,900,8-20-2022,10-58-55,77,depth_duration_stimuli/000780_2014-06-08_22-28-29_260595134347_rgbf000126-resize_1/000780_2014-06-08_22-28-29_260595134347_rgbf000126-resize_1-target.png,250,3.3825,80.0,4338,249,meters,jsons/v1_VE250_randls_48_rotated.json,1236453,1521048,31,Woman
77,491548,DepthScenes,duration_manipulation_targetAtFixation,jsons/v1_VE250_randls_48_rotated.json,http://54.235.29.9/FacialAge/BNav_EC2/DepthDuration/v2_depth_duration_MTurk/v2_DepthDuration_HTML.html#89,89,1440,789,1440,900,8-20-2022,10-58-55,78,depth_duration_stimuli/002445_2014-06-28_20-32-16_260595134347_rgbf000029-resize_4/002445_2014-06-28_20-32-16_260595134347_rgbf000029-resize_4-target.png,250,2.5315,80.0,3147,249,meters,jsons/v1_VE250_randls_48_rotated.json,1236453,1521048,31,Woman
78,491548,DepthScenes,duration_manipulation_targetAtFixation,jsons/v1_VE250_randls_48_rotated.json,http://54.235.29.9/FacialAge/BNav_EC2/DepthDuration/v2_depth_duration_MTurk/v2_DepthDuration_HTML.html#89,89,1440,789,1440,900,8-20-2022,10-58-55,79,depth_duration_stimuli/003083_2014-06-15_15-21-03_094959634447_rgbf000063-resize_1/003083_2014-06-15_15-21-03_094959634447_rgbf000063-resize_1-target.png,250,4.1405,80.0,3675,250,meters,jsons/v1_VE250_randls_48_rotated.json,1236453,1521048,31,Woman
79,491548,DepthScenes,duration_manipulation_targetAtFixation,jsons/v1_VE250_randls_48_rotated.json,http://54.235.29.9/FacialAge/BNav_EC2/DepthDuration/v2_depth_duration_MTurk/v2_DepthDuration_HTML.html#89,89,1440,789,1440,900,8-20-2022,10-58-55,80,depth_duration_stimuli/000486_2014-06-09_20-47-20_260595134347_rgbf000143-resize_2/000486_2014-06-09_20-47-20_260595134347_rgbf000143-resize_2-target.png,250,4.8325,80.0,23762,250,meters,jsons/v1_VE250_randls_48_rotated.json,1236453,1521048,31,Woman
80,491548,DepthScenes,duration_manipulation_targetAtFixation,jsons/v1_VE250_randls_48_rotated.json,http://54.235.29.9/FacialAge/BNav_EC2/DepthDuration/v2_depth_duration_MTurk/v2_DepthDuration_HTML.html#89,89,1440,789,1440,900,8-20-2022,10-58-55,81,depth_duration_stimuli/002545_2014-06-24_13-38-53_094959634447_rgbf000080-resize_4/002545_2014-06-24_13-38-53_094959634447_rgbf000080-resize_4-target.png,250,1.9205,80.0,11084,250,meters,jsons/v1_VE250_randls_48_rotated.json,1236453,1521048,31,Woman
81,491548,DepthScenes,duration_manipulation_targetAtFixation,jsons/v1_VE250_randls_48_rotated.json,http://54.235.29.9/FacialAge/BNav_EC2/DepthDuration/v2_depth_duration_MTurk/v2_DepthDuration_HTML.html#89,89,1440,789,1440,900,8-20-2022,10-58-55,82,depth_duration_stimuli/001092_2014-06-15_17-34-58_260595134347_rgbf000171-resize_3/001092_2014-06-15_17-34-58_260595134347_rgbf000171-resize_3-target.png,250,2.6935,80.0,99289,251,meters,jsons/v1_VE250_randls_48_rotated.json,1236453,1521048,31,Woman
82,491548,DepthScenes,duration_manipulation_targetAtFixation,jsons/v1_VE250_randls_48_rotated.json,http://54.235.29.9/FacialAge/BNav_EC2/DepthDuration/v2_depth_duration_MTurk/v2_DepthDuration_HTML.html#89,89,1440,789,1440,900,8-20-2022,10-58-55,83,depth_duration_stimuli/001650_2014-06-20_12-09-00_260595134347_rgbf000087-resize_3/001650_2014-06-20_12-09-00_260595134347_rgbf000087-resize_3-target.png,250,1.9505,80.0,31892,249,meters,jsons/v1_VE250_randls_48_rotated.json,1236453,1521048,31,Woman
83,491548,DepthScenes,duration_manipulation_targetAtFixation,jsons/v1_VE250_randls_48_rotated.json,http://54.235.29.9/FacialAge/BNav_EC2/DepthDuration/v2_depth_duration_MTurk/v2_DepthDuration_HTML.html#89,89,1440,789,1440,900,8-20-2022,10-58-55,84,depth_duration_stimuli/000682_2014-06-08_23-14-58_260595134347_rgbf000041-resize_5/000682_2014-06-08_23-14-58_260595134347_rgbf000041-resize_5-target.png,250,2.7239999999999998,50.0,82538,248,meters,jsons/v1_VE250_randls_48_rotated.json,1236453,1521048,31,Woman
84,491548,DepthScenes,duration_manipulation_targetAtFixation,jsons/v1_VE250_randls_48_rotated.json,http://54.235.29.9/FacialAge/BNav_EC2/DepthDuration/v2_depth_duration_MTurk/v2_DepthDuration_HTML.html#89,89,1440,789,1440,900,8-20-2022,10-58-55,85,depth_duration_stimuli/002444_2014-06-28_20-32-08_260595134347_rgbf000027-resize_0/002444_2014-06-28_20-32-08_260595134347_rgbf000027-resize_0-target.png,250,4.388999999999999,50.0,2817,249,meters,jsons/v1_VE250_randls_48_rotated.json,1236453,1521048,31,Woman
85,491548,DepthScenes,duration_manipulation_targetAtFixation,jsons/v1_VE250_randls_48_rotated.json,http://54.235.29.9/FacialAge/BNav_EC2/DepthDuration/v2_depth_duration_MTurk/v2_DepthDuration_HTML.html#89,89,720,394,1440,900,8-20-2022,10-58-55,86,depth_duration_stimuli/000436_2014-06-09_22-25-11_260595134347_rgbf000137-resize_1/000436_2014-06-09_22-25-11_260595134347_rgbf000137-resize_1-target.png,250,4.0705,40.0,3547,249,meters,jsons/v1_VE250_randls_48_rotated.json,1236453,1521048,31,Woman
86,491548,DepthScenes,duration_manipulation_targetAtFixation,jsons/v1_VE250_randls_48_rotated.json,http://54.235.29.9/FacialAge/BNav_EC2/DepthDuration/v2_depth_duration_MTurk/v2_DepthDuration_HTML.html#89,89,720,394,1440,900,8-20-2022,10-58-55,87,depth_duration_stimuli/000742_2014-06-08_18-48-09_260595134347_rgbf000164-resize_4/000742_2014-06-08_18-48-09_260595134347_rgbf000164-resize_4-target.png,250,4.632,60.0,39762,250,meters,jsons/v1_VE250_randls_48_rotated.json,1236453,1521048,31,Woman
87,491548,DepthScenes,duration_manipulation_targetAtFixation,jsons/v1_VE250_randls_48_rotated.json,http://54.235.29.9/FacialAge/BNav_EC2/DepthDuration/v2_depth_duration_MTurk/v2_DepthDuration_HTML.html#89,89,720,394,1440,900,8-20-2022,10-58-55,88,depth_duration_stimuli/001066_2014-06-08_22-03-20_260595134347_rgbf000066-resize_4/001066_2014-06-08_22-03-20_260595134347_rgbf000066-resize_4-target.png,250,4.2330000000000005,50.0,5561,249,meters,jsons/v1_VE250_randls_48_rotated.json,1236453,1521048,31,Woman
88,491548,DepthScenes,duration_manipulation_targetAtFixation,jsons/v1_VE250_randls_48_rotated.json,http://54.235.29.9/FacialAge/BNav_EC2/DepthDuration/v2_depth_duration_MTurk/v2_DepthDuration_HTML.html#89,89,720,394,1440,900,8-20-2022,10-58-55,89,depth_duration_stimuli/002467_2014-06-28_20-38-07_260595134347_rgbf000026-resize_2/002467_2014-06-28_20-38-07_260595134347_rgbf000026-resize_2-target.png,250,4.742,50.0,3826,250,meters,jsons/v1_VE250_randls_48_rotated.json,1236453,1521048,31,Woman
89,491548,DepthScenes,duration_manipulation_targetAtFixation,jsons/v1_VE250_randls_48_rotated.json,http://54.235.29.9/FacialAge/BNav_EC2/DepthDuration/v2_depth_duration_MTurk/v2_DepthDuration_HTML.html#89,89,720,394,1440,900,8-20-2022,10-58-55,90,depth_duration_stimuli/002570_2014-06-24_13-59-54_094959634447_rgbf000059-resize_0/002570_2014-06-24_13-59-54_094959634447_rgbf000059-resize_0-target.png,250,4.037,50.0,6683,250,meters,jsons/v1_VE250_randls_48_rotated.json,1236453,1521048,31,Woman
90,491548,DepthScenes,duration_manipulation_targetAtFixation,jsons/v1_VE250_randls_48_rotated.json,http://54.235.29.9/FacialAge/BNav_EC2/DepthDuration/v2_depth_duration_MTurk/v2_DepthDuration_HTML.html#89,89,720,394,1440,900,8-20-2022,10-58-55,91,depth_duration_stimuli/002660_2014-06-13_15-44-18_094959634447_rgbf001878-resize_2/002660_2014-06-13_15-44-18_094959634447_rgbf001878-resize_2-target.png,250,3.576,50.0,4313,250,meters,jsons/v1_VE250_randls_48_rotated.json,1236453,1521048,31,Woman
91,491548,DepthScenes,duration_manipulation_targetAtFixation,jsons/v1_VE250_randls_48_rotated.json,http://54.235.29.9/FacialAge/BNav_EC2/DepthDuration/v2_depth_duration_MTurk/v2_DepthDuration_HTML.html#89,89,720,394,1440,900,8-20-2022,10-58-55,92,depth_duration_stimuli/002153_2014-06-25_21-27-18_260595134347_rgbf000038-resize_5/002153_2014-06-25_21-27-18_260595134347_rgbf000038-resize_5-target.png,250,2.505,50.0,4365,249,meters,jsons/v1_VE250_randls_48_rotated.json,1236453,1521048,31,Woman
92,491548,DepthScenes,duration_manipulation_targetAtFixation,jsons/v1_VE250_randls_48_rotated.json,http://54.235.29.9/FacialAge/BNav_EC2/DepthDuration/v2_depth_duration_MTurk/v2_DepthDuration_HTML.html#89,89,720,394,1440,900,8-20-2022,10-58-55,93,depth_duration_stimuli/002875_2014-06-01_15-19-00_094959634447_rgbf000151-resize_1/002875_2014-06-01_15-19-00_094959634447_rgbf000151-resize_1-target.png,250,1.9675,50.0,5032,250,meters,jsons/v1_VE250_randls_48_rotated.json,1236453,1521048,31,Woman
93,491548,DepthScenes,duration_manipulation_targetAtFixation,jsons/v1_VE250_randls_48_rotated.json,http://54.235.29.9/FacialAge/BNav_EC2/DepthDuration/v2_depth_duration_MTurk/v2_DepthDuration_HTML.html#89,89,720,394,1440,900,8-20-2022,10-58-55,94,depth_duration_stimuli/001011_2014-06-08_23-18-54_260595134347_rgbf000044-resize_4/001011_2014-06-08_23-18-54_260595134347_rgbf000044-resize_4-target.png,250,2.4730000000000003,60.0,3605,249,meters,jsons/v1_VE250_randls_48_rotated.json,1236453,1521048,31,Woman
94,491548,DepthScenes,duration_manipulation_targetAtFixation,jsons/v1_VE250_randls_48_rotated.json,http://54.235.29.9/FacialAge/BNav_EC2/DepthDuration/v2_depth_duration_MTurk/v2_DepthDuration_HTML.html#89,89,720,394,1440,900,8-20-2022,10-58-55,95,depth_duration_stimuli/000749_2014-06-08_21-55-06_260595134347_rgbf000070-resize_2/000749_2014-06-08_21-55-06_260595134347_rgbf000070-resize_2-target.png,250,2.331,60.0,6775,250,meters,jsons/v1_VE250_randls_48_rotated.json,1236453,1521048,31,Woman
95,491548,DepthScenes,duration_manipulation_targetAtFixation,jsons/v1_VE250_randls_48_rotated.json,http://54.235.29.9/FacialAge/BNav_EC2/DepthDuration/v2_depth_duration_MTurk/v2_DepthDuration_HTML.html#89,89,720,394,1440,900,8-20-2022,10-58-55,96,depth_duration_stimuli/002788_2014-06-22_19-36-03_094959634447_rgbf000088-resize_2/002788_2014-06-22_19-36-03_094959634447_rgbf000088-resize_2-target.png,250,1.6465,80.0,2562,248,meters,jsons/v1_VE250_randls_48_rotated.json,1236453,1521048,31,Woman
96,491548,DepthScenes,duration_manipulation_targetAtFixation,jsons/v1_VE250_randls_48_rotated.json,http://54.235.29.9/FacialAge/BNav_EC2/DepthDuration/v2_depth_duration_MTurk/v2_DepthDuration_HTML.html#89,89,720,394,1440,900,8-20-2022,10-58-55,97,depth_duration_stimuli/002750_2014-06-22_19-08-03_094959634447_rgbf000094-resize_4/002750_2014-06-22_19-08-03_094959634447_rgbf000094-resize_4-target.png,250,2.354,60.0,4682,249,meters,jsons/v1_VE250_randls_48_rotated.json,1236453,1521048,31,Woman
97,491548,DepthScenes,duration_manipulation_targetAtFixation,jsons/v1_VE250_randls_48_rotated.json,http://54.235.29.9/FacialAge/BNav_EC2/DepthDuration/v2_depth_duration_MTurk/v2_DepthDuration_HTML.html#89,89,720,394,1440,900,8-20-2022,10-58-55,98,depth_duration_stimuli/002549_2014-06-24_13-41-39_094959634447_rgbf000022-resize_3/002549_2014-06-24_13-41-39_094959634447_rgbf000022-resize_3-target.png,250,1.476,60.0,2666,249,meters,jsons/v1_VE250_randls_48_rotated.json,1236453,1521048,31,Woman
98,491548,DepthScenes,duration_manipulation_targetAtFixation,jsons/v1_VE250_randls_48_rotated.json,http://54.235.29.9/FacialAge/BNav_EC2/DepthDuration/v2_depth_duration_MTurk/v2_DepthDuration_HTML.html#89,89,720,394,1440,900,8-20-2022,10-58-55,99,depth_duration_stimuli/001222_2014-06-17_16-24-06_260595134347_rgbf000073-resize_0/001222_2014-06-17_16-24-06_260595134347_rgbf000073-resize-original.jpg,250,1.4385,80.0,3019,249,meters,jsons/v1_VE250_randls_48_rotated.json,1236453,1521048,31,Woman
99,491548,DepthScenes,duration_manipulation_targetAtFixation,jsons/v1_VE250_randls_48_rotated.json,http://54.235.29.9/FacialAge/BNav_EC2/DepthDuration/v2_depth_duration_MTurk/v2_DepthDuration_HTML.html#89,89,720,394,1440,900,8-20-2022,10-58-55,100,depth_duration_stimuli/000677_2014-06-08_23-10-32_260595134347_rgbf000158-resize_6/000677_2014-06-08_23-10-32_260595134347_rgbf000158-resize_6-target.png,250,3.556,80.0,2930,249,meters,jsons/v1_VE250_randls_48_rotated.json,1236453,1521048,31,Woman
100,491548,DepthScenes,duration_manipulation_targetAtFixation,jsons/v1_VE250_randls_48_rotated.json,http://54.235.29.9/FacialAge/BNav_EC2/DepthDuration/v2_depth_duration_MTurk/v2_DepthDuration_HTML.html#89,89,720,394,1440,900,8-20-2022,10-58-55,101,depth_duration_stimuli/001029_2014-06-08_13-17-57_260595134347_rgbf000065-resize_1/001029_2014-06-08_13-17-57_260595134347_rgbf000065-resize_1-target.png,250,3.0835,80.0,4779,250,meters,jsons/v1_VE250_randls_48_rotated.json,1236453,1521048,31,Woman
101,491548,DepthScenes,duration_manipulation_targetAtFixation,jsons/v1_VE250_randls_48_rotated.json,http://54.235.29.9/FacialAge/BNav_EC2/DepthDuration/v2_depth_duration_MTurk/v2_DepthDuration_HTML.html#89,89,720,394,1440,900,8-20-2022,10-58-55,102,depth_duration_stimuli/002323_2014-06-28_20-01-54_260595134347_rgbf000051-resize_4/002323_2014-06-28_20-01-54_260595134347_rgbf000051-resize_4-target.png,250,3.7310000000000003,80.0,6856,249,meters,jsons/v1_VE250_randls_48_rotated.json,1236453,1521048,31,Woman
102,491548,DepthScenes,duration_manipulation_targetAtFixation,jsons/v1_VE250_randls_48_rotated.json,http://54.235.29.9/FacialAge/BNav_EC2/DepthDuration/v2_depth_duration_MTurk/v2_DepthDuration_HTML.html#89,89,720,394,1440,900,8-20-2022,10-58-55,103,depth_duration_stimuli/000917_2014-06-09_22-45-29_260595134347_rgbf000149-resize_3/000917_2014-06-09_22-45-29_260595134347_rgbf000149-resize_3-target.png,250,4.1865,80.0,3122,249,meters,jsons/v1_VE250_randls_48_rotated.json,1236453,1521048,31,Woman
103,491548,DepthScenes,duration_manipulation_targetAtFixation,jsons/v1_VE250_randls_48_rotated.json,http://54.235.29.9/FacialAge/BNav_EC2/DepthDuration/v2_depth_duration_MTurk/v2_DepthDuration_HTML.html#89,89,720,394,1440,900,8-20-2022,10-58-55,104,depth_duration_stimuli/002639_2014-06-24_14-51-37_094959634447_rgbf000074-resize_4/002639_2014-06-24_14-51-37_094959634447_rgbf000074-resize_4-target.png,250,4.0375,80.0,2403,250,meters,jsons/v1_VE250_randls_48_rotated.json,1236453,1521048,31,Woman
104,491548,DepthScenes,duration_manipulation_targetAtFixation,jsons/v1_VE250_randls_48_rotated.json,http://54.235.29.9/FacialAge/BNav_EC2/DepthDuration/v2_depth_duration_MTurk/v2_DepthDuration_HTML.html#89,89,720,394,1440,900,8-20-2022,10-58-55,105,depth_duration_stimuli/003292_2014-05-14_21-53-49_094959634447_rgbf000100-resize_2/003292_2014-05-14_21-53-49_094959634447_rgbf000100-resize_2-target.png,250,3.4815,80.0,2602,250,meters,jsons/v1_VE250_randls_48_rotated.json,1236453,1521048,31,Woman
105,491548,DepthScenes,duration_manipulation_targetAtFixation,jsons/v1_VE250_randls_48_rotated.json,http://54.235.29.9/FacialAge/BNav_EC2/DepthDuration/v2_depth_duration_MTurk/v2_DepthDuration_HTML.html#89,89,720,394,1440,900,8-20-2022,10-58-55,106,depth_duration_stimuli/003587_2014-05-23_16-48-02_094959634447_rgbf002384-resize_2/003587_2014-05-23_16-48-02_094959634447_rgbf002384-resize_2-target.png,250,1.357,60.0,2292,249,meters,jsons/v1_VE250_randls_48_rotated.json,1236453,1521048,31,Woman
106,491548,DepthScenes,duration_manipulation_targetAtFixation,jsons/v1_VE250_randls_48_rotated.json,http://54.235.29.9/FacialAge/BNav_EC2/DepthDuration/v2_depth_duration_MTurk/v2_DepthDuration_HTML.html#89,89,720,394,1440,900,8-20-2022,10-58-55,107,depth_duration_stimuli/001167_2014-06-17_15-38-07_260595134347_rgbf000108-resize_0/001167_2014-06-17_15-38-07_260595134347_rgbf000108-resize_0-target.png,250,1.8505,90.0,2555,249,meters,jsons/v1_VE250_randls_48_rotated.json,1236453,1521048,31,Woman
107,491548,DepthScenes,duration_manipulation_targetAtFixation,jsons/v1_VE250_randls_48_rotated.json,http://54.235.29.9/FacialAge/BNav_EC2/DepthDuration/v2_depth_duration_MTurk/v2_DepthDuration_HTML.html#89,89,720,394,1440,900,8-20-2022,10-58-55,108,depth_duration_stimuli/001100_2014-06-15_17-46-26_260595134347_rgbf000225-resize_2/001100_2014-06-15_17-46-26_260595134347_rgbf000225-resize_2-target.png,250,2.24,60.0,2578,249,meters,jsons/v1_VE250_randls_48_rotated.json,1236453,1521048,31,Woman
108,491548,DepthScenes,duration_manipulation_targetAtFixation,jsons/v1_VE250_randls_48_rotated.json,http://54.235.29.9/FacialAge/BNav_EC2/DepthDuration/v2_depth_duration_MTurk/v2_DepthDuration_HTML.html#89,89,720,394,1440,900,8-20-2022,10-58-55,109,depth_duration_stimuli/002784_2014-06-22_19-26-30_094959634447_rgbf000083-resize_3/002784_2014-06-22_19-26-30_094959634447_rgbf000083-resize_3-target.png,250,1.8046666666667,60.0,2354,249,meters,jsons/v1_VE250_randls_48_rotated.json,1236453,1521048,31,Woman
109,491548,DepthScenes,duration_manipulation_targetAtFixation,jsons/v1_VE250_randls_48_rotated.json,http://54.235.29.9/FacialAge/BNav_EC2/DepthDuration/v2_depth_duration_MTurk/v2_DepthDuration_HTML.html#89,89,720,394,1440,900,8-20-2022,10-58-55,110,depth_duration_stimuli/002199_2014-06-28_18-33-56_260595134347_rgbf000074-resize_0/002199_2014-06-28_18-33-56_260595134347_rgbf000074-resize_0-target.png,250,1.996,60.0,5233,249,meters,jsons/v1_VE250_randls_48_rotated.json,1236453,1521048,31,Woman
110,491548,DepthScenes,duration_manipulation_targetAtFixation,jsons/v1_VE250_randls_48_rotated.json,http://54.235.29.9/FacialAge/BNav_EC2/DepthDuration/v2_depth_duration_MTurk/v2_DepthDuration_HTML.html#89,89,720,394,1440,900,8-20-2022,10-58-55,111,depth_duration_stimuli/001056_2014-06-08_18-46-44_260595134347_rgbf000068-resize_0/001056_2014-06-08_18-46-44_260595134347_rgbf000068-resize_0-target.png,250,2.6625,60.0,2299,249,meters,jsons/v1_VE250_randls_48_rotated.json,1236453,1521048,31,Woman
111,491548,DepthScenes,duration_manipulation_targetAtFixation,jsons/v1_VE250_randls_48_rotated.json,http://54.235.29.9/FacialAge/BNav_EC2/DepthDuration/v2_depth_duration_MTurk/v2_DepthDuration_HTML.html#89,89,720,394,1440,900,8-20-2022,10-58-55,112,depth_duration_stimuli/000927_2014-06-09_16-32-30_260595134347_rgbf000123-resize_3/000927_2014-06-09_16-32-30_260595134347_rgbf000123-resize_3-target.png,250,2.6785,60.0,2691,249,meters,jsons/v1_VE250_randls_48_rotated.json,1236453,1521048,31,Woman
112,491548,DepthScenes,duration_manipulation_targetAtFixation,jsons/v1_VE250_randls_48_rotated.json,http://54.235.29.9/FacialAge/BNav_EC2/DepthDuration/v2_depth_duration_MTurk/v2_DepthDuration_HTML.html#89,89,720,394,1440,900,8-20-2022,10-58-55,113,depth_duration_stimuli/001110_2014-06-15_17-25-28_260595134347_rgbf000150-resize_1/001110_2014-06-15_17-25-28_260595134347_rgbf000150-resize_1-target.png,250,1.7115,50.0,4746,249,meters,jsons/v1_VE250_randls_48_rotated.json,1236453,1521048,31,Woman
113,491548,DepthScenes,duration_manipulation_targetAtFixation,jsons/v1_VE250_randls_48_rotated.json,http://54.235.29.9/FacialAge/BNav_EC2/DepthDuration/v2_depth_duration_MTurk/v2_DepthDuration_HTML.html#89,89,720,394,1440,900,8-20-2022,10-58-55,114,depth_duration_stimuli/001571_2014-06-20_17-21-32_260595134347_rgbf000089-resize_1/001571_2014-06-20_17-21-32_260595134347_rgbf000089-resize_1-target.png,250,1.86,50.0,2738,249,meters,jsons/v1_VE250_randls_48_rotated.json,1236453,1521048,31,Woman
114,491548,DepthScenes,duration_manipulation_targetAtFixation,jsons/v1_VE250_randls_48_rotated.json,http://54.235.29.9/FacialAge/BNav_EC2/DepthDuration/v2_depth_duration_MTurk/v2_DepthDuration_HTML.html#89,89,720,394,1440,900,8-20-2022,10-58-55,115,depth_duration_stimuli/002272_2014-06-28_18-53-56_260595134347_rgbf000067-resize_2/002272_2014-06-28_18-53-56_260595134347_rgbf000067-resize_2-target.png,250,1.138,60.0,2403,250,meters,jsons/v1_VE250_randls_48_rotated.json,1236453,1521048,31,Woman
115,491548,DepthScenes,duration_manipulation_targetAtFixation,jsons/v1_VE250_randls_48_rotated.json,http://54.235.29.9/FacialAge/BNav_EC2/DepthDuration/v2_depth_duration_MTurk/v2_DepthDuration_HTML.html#89,89,720,394,1440,900,8-20-2022,10-58-55,116,depth_duration_stimuli/000137_2014-05-20_17-04-49_260595134347_rgbf000120-resize_1/000137_2014-05-20_17-04-49_260595134347_rgbf000120-resize_1-target.png,250,3.786,60.0,2634,249,meters,jsons/v1_VE250_randls_48_rotated.json,1236453,1521048,31,Woman
116,491548,DepthScenes,duration_manipulation_targetAtFixation,jsons/v1_VE250_randls_48_rotated.json,http://54.235.29.9/FacialAge/BNav_EC2/DepthDuration/v2_depth_duration_MTurk/v2_DepthDuration_HTML.html#89,89,720,394,1440,900,8-20-2022,10-58-55,117,depth_duration_stimuli/000736_2014-06-08_18-24-15_260595134347_rgbf000206-resize_3/000736_2014-06-08_18-24-15_260595134347_rgbf000206-resize_3-target.png,250,3.515,60.0,3186,249,meters,jsons/v1_VE250_randls_48_rotated.json,1236453,1521048,31,Woman
117,491548,DepthScenes,duration_manipulation_targetAtFixation,jsons/v1_VE250_randls_48_rotated.json,http://54.235.29.9/FacialAge/BNav_EC2/DepthDuration/v2_depth_duration_MTurk/v2_DepthDuration_HTML.html#89,89,720,394,1440,900,8-20-2022,10-58-55,118,depth_duration_stimuli/002995_2014-06-15_12-31-26_094959634447_rgbf000150-resize_1/002995_2014-06-15_12-31-26_094959634447_rgbf000150-resize_1-target.png,250,3.8360000000000003,60.0,5675,250,meters,jsons/v1_VE250_randls_48_rotated.json,1236453,1521048,31,Woman
118,491548,DepthScenes,duration_manipulation_targetAtFixation,jsons/v1_VE250_randls_48_rotated.json,http://54.235.29.9/FacialAge/BNav_EC2/DepthDuration/v2_depth_duration_MTurk/v2_DepthDuration_HTML.html#89,89,720,394,1440,900,8-20-2022,10-58-55,119,depth_duration_stimuli/002748_2014-06-22_19-07-22_094959634447_rgbf000078-resize_1/002748_2014-06-22_19-07-22_094959634447_rgbf000078-resize_1-target.png,250,4.6705,60.0,4514,250,meters,jsons/v1_VE250_randls_48_rotated.json,1236453,1521048,31,Woman
119,491548,DepthScenes,duration_manipulation_targetAtFixation,jsons/v1_VE250_randls_48_rotated.json,http://54.235.29.9/FacialAge/BNav_EC2/DepthDuration/v2_depth_duration_MTurk/v2_DepthDuration_HTML.html#89,89,720,394,1440,900,8-20-2022,10-58-55,120,depth_duration_stimuli/000787_2014-06-08_22-33-53_260595134347_rgbf000175-resize_1/000787_2014-06-08_22-33-53_260595134347_rgbf000175-resize-original.jpg,250,4.784,80.0,2569,250,meters,jsons/v1_VE250_randls_48_rotated.json,1236453,1521048,31,Woman
120,491548,DepthScenes,duration_manipulation_targetAtFixation,jsons/v1_VE250_randls_48_rotated.json,http://54.235.29.9/FacialAge/BNav_EC2/DepthDuration/v2_depth_duration_MTurk/v2_DepthDuration_HTML.html#89,89,720,394,1440,900,8-20-2022,10-58-55,121,depth_duration_stimuli/000191_2014-05-12_17-07-38_260595134347_rgbf000199-resize_0/000191_2014-05-12_17-07-38_260595134347_rgbf000199-resize_0-target.png,250,3.7995,30.0,2378,250,meters,jsons/v1_VE250_randls_48_rotated.json,1236453,1521048,31,Woman
121,491548,DepthScenes,duration_manipulation_targetAtFixation,jsons/v1_VE250_randls_48_rotated.json,http://54.235.29.9/FacialAge/BNav_EC2/DepthDuration/v2_depth_duration_MTurk/v2_DepthDuration_HTML.html#89,89,720,394,1440,900,8-20-2022,10-58-55,122,depth_duration_stimuli/000493_2014-06-09_21-01-18_260595134347_rgbf000196-resize_3/000493_2014-06-09_21-01-18_260595134347_rgbf000196-resize_3-target.png,250,3.44,36.0,3059,250,meters,jsons/v1_VE250_randls_48_rotated.json,1236453,1521048,31,Woman
122,491548,DepthScenes,duration_manipulation_targetAtFixation,jsons/v1_VE250_randls_48_rotated.json,http://54.235.29.9/FacialAge/BNav_EC2/DepthDuration/v2_depth_duration_MTurk/v2_DepthDuration_HTML.html#89,89,720,394,1440,900,8-20-2022,10-58-55,123,depth_duration_stimuli/001136_2014-06-17_15-19-41_260595134347_rgbf000076-resize_3/001136_2014-06-17_15-19-41_260595134347_rgbf000076-resize_3-target.png,250,1.8655,60.0,4226,249,meters,jsons/v1_VE250_randls_48_rotated.json,1236453,1521048,31,Woman
123,491548,DepthScenes,duration_manipulation_targetAtFixation,jsons/v1_VE250_randls_48_rotated.json,http://54.235.29.9/FacialAge/BNav_EC2/DepthDuration/v2_depth_duration_MTurk/v2_DepthDuration_HTML.html#89,89,720,394,1440,900,8-20-2022,10-58-55,124,depth_duration_stimuli/001164_2014-06-17_15-35-46_260595134347_rgbf000085-resize_3/001164_2014-06-17_15-35-46_260595134347_rgbf000085-resize_3-target.png,250,2.354,60.0,2377,250,meters,jsons/v1_VE250_randls_48_rotated.json,1236453,1521048,31,Woman
124,491548,DepthScenes,duration_manipulation_targetAtFixation,jsons/v1_VE250_randls_48_rotated.json,http://54.235.29.9/FacialAge/BNav_EC2/DepthDuration/v2_depth_duration_MTurk/v2_DepthDuration_HTML.html#89,89,720,394,1440,900,8-20-2022,10-58-55,125,depth_duration_stimuli/001815_2014-06-26_20-52-55_260595134347_rgbf000020-resize_0/001815_2014-06-26_20-52-55_260595134347_rgbf000020-resize_0-target.png,250,3.3865,30.0,2538,250,meters,jsons/v1_VE250_randls_48_rotated.json,1236453,1521048,31,Woman
125,491548,DepthScenes,duration_manipulation_targetAtFixation,jsons/v1_VE250_randls_48_rotated.json,http://54.235.29.9/FacialAge/BNav_EC2/DepthDuration/v2_depth_duration_MTurk/v2_DepthDuration_HTML.html#89,89,720,394,1440,900,8-20-2022,10-58-55,126,depth_duration_stimuli/001808_2014-06-26_20-50-58_260595134347_rgbf000029-resize_1/001808_2014-06-26_20-50-58_260595134347_rgbf000029-resize_1-target.png,250,4.249,60.0,2322,250,meters,jsons/v1_VE250_randls_48_rotated.json,1236453,1521048,31,Woman
126,491548,DepthScenes,duration_manipulation_targetAtFixation,jsons/v1_VE250_randls_48_rotated.json,http://54.235.29.9/FacialAge/BNav_EC2/DepthDuration/v2_depth_duration_MTurk/v2_DepthDuration_HTML.html#89,89,720,394,1440,900,8-20-2022,10-58-55,127,depth_duration_stimuli/002678_2014-06-13_16-15-32_094959634447_rgbf000151-resize_6/002678_2014-06-13_16-15-32_094959634447_rgbf000151-resize_6-target.png,250,2.1830000000000003,60.0,3114,250,meters,jsons/v1_VE250_randls_48_rotated.json,1236453,1521048,31,Woman
127,491548,DepthScenes,duration_manipulation_targetAtFixation,jsons/v1_VE250_randls_48_rotated.json,http://54.235.29.9/FacialAge/BNav_EC2/DepthDuration/v2_depth_duration_MTurk/v2_DepthDuration_HTML.html#89,89,720,394,1440,900,8-20-2022,10-58-55,128,depth_duration_stimuli/000368_2014-06-09_15-53-01_260595134347_rgbf000155-resize_2/000368_2014-06-09_15-53-01_260595134347_rgbf000155-resize_2-target.png,250,2.4859999999999998,60.0,2465,250,meters,jsons/v1_VE250_randls_48_rotated.json,1236453,1521048,31,Woman
128,491548,DepthScenes,duration_manipulation_targetAtFixation,jsons/v1_VE250_randls_48_rotated.json,http://54.235.29.9/FacialAge/BNav_EC2/DepthDuration/v2_depth_duration_MTurk/v2_DepthDuration_HTML.html#89,89,720,394,1440,900,8-20-2022,10-58-55,129,depth_duration_stimuli/001584_2014-06-20_11-07-43_260595134347_rgbf000002-resize_1/001584_2014-06-20_11-07-43_260595134347_rgbf000002-resize_1-target.png,250,3.53,60.0,2787,250,meters,jsons/v1_VE250_randls_48_rotated.json,1236453,1521048,31,Woman
129,491548,DepthScenes,duration_manipulation_targetAtFixation,jsons/v1_VE250_randls_48_rotated.json,http://54.235.29.9/FacialAge/BNav_EC2/DepthDuration/v2_depth_duration_MTurk/v2_DepthDuration_HTML.html#89,89,720,394,1440,900,8-20-2022,10-58-55,130,depth_duration_stimuli/003621_2014-05-23_18-06-08_094959634447_rgbf000101-resize_1/003621_2014-05-23_18-06-08_094959634447_rgbf000101-resize_1-target.png,250,3.9835,60.0,2449,250,meters,jsons/v1_VE250_randls_48_rotated.json,1236453,1521048,31,Woman
130,491548,DepthScenes,duration_manipulation_targetAtFixation,jsons/v1_VE250_randls_48_rotated.json,http://54.235.29.9/FacialAge/BNav_EC2/DepthDuration/v2_depth_duration_MTurk/v2_DepthDuration_HTML.html#89,89,720,394,1440,900,8-20-2022,10-58-55,131,depth_duration_stimuli/002568_2014-06-24_13-59-21_094959634447_rgbf000062-resize_4/002568_2014-06-24_13-59-21_094959634447_rgbf000062-resize_4-target.png,250,3.015,60.0,2377,250,meters,jsons/v1_VE250_randls_48_rotated.json,1236453,1521048,31,Woman
131,491548,DepthScenes,duration_manipulation_targetAtFixation,jsons/v1_VE250_randls_48_rotated.json,http://54.235.29.9/FacialAge/BNav_EC2/DepthDuration/v2_depth_duration_MTurk/v2_DepthDuration_HTML.html#89,89,720,394,1440,900,8-20-2022,10-58-55,132,depth_duration_stimuli/003492_2014-05-21_15-50-55_094959634447_rgbf000828-resize_1/003492_2014-05-21_15-50-55_094959634447_rgbf000828-resize_1-target.png,250,4.06875,60.0,2836,249,meters,jsons/v1_VE250_randls_48_rotated.json,1236453,1521048,31,Woman
132,491548,DepthScenes,duration_manipulation_targetAtFixation,jsons/v1_VE250_randls_48_rotated.json,http://54.235.29.9/FacialAge/BNav_EC2/DepthDuration/v2_depth_duration_MTurk/v2_DepthDuration_HTML.html#89,89,720,394,1440,900,8-20-2022,10-58-55,133,depth_duration_stimuli/001235_2014-06-17_16-37-36_260595134347_rgbf000084-resize_4/001235_2014-06-17_16-37-36_260595134347_rgbf000084-resize_4-target.png,250,3.6605,50.0,32260,250,meters,jsons/v1_VE250_randls_48_rotated.json,1236453,1521048,31,Woman
133,491548,DepthScenes,duration_manipulation_targetAtFixation,jsons/v1_VE250_randls_48_rotated.json,http://54.235.29.9/FacialAge/BNav_EC2/DepthDuration/v2_depth_duration_MTurk/v2_DepthDuration_HTML.html#89,89,720,394,1440,900,8-20-2022,10-58-55,134,depth_duration_stimuli/000788_2014-06-08_22-34-36_260595134347_rgbf000131-resize_1/000788_2014-06-08_22-34-36_260595134347_rgbf000131-resize_1-target.png,250,3.359,0.0,7626,249,meters,jsons/v1_VE250_randls_48_rotated.json,1236453,1521048,31,Woman
134,491548,DepthScenes,duration_manipulation_targetAtFixation,jsons/v1_VE250_randls_48_rotated.json,http://54.235.29.9/FacialAge/BNav_EC2/DepthDuration/v2_depth_duration_MTurk/v2_DepthDuration_HTML.html#89,89,720,394,1440,900,8-20-2022,10-58-55,135,depth_duration_stimuli/000375_2014-06-08_11-17-29_260595134347_rgbf000133-resize_2/000375_2014-06-08_11-17-29_260595134347_rgbf000133-resize-original.jpg,250,4.718,50.0,3770,249,meters,jsons/v1_VE250_randls_48_rotated.json,1236453,1521048,31,Woman
135,491548,DepthScenes,duration_manipulation_targetAtFixation,jsons/v1_VE250_randls_48_rotated.json,http://54.235.29.9/FacialAge/BNav_EC2/DepthDuration/v2_depth_duration_MTurk/v2_DepthDuration_HTML.html#89,89,720,394,1440,900,8-20-2022,10-58-55,136,depth_duration_stimuli/000457_2014-06-08_16-52-43_260595134347_rgbf000199-resize_1/000457_2014-06-08_16-52-43_260595134347_rgbf000199-resize_1-target.png,250,3.6489999999999996,50.0,3018,250,meters,jsons/v1_VE250_randls_48_rotated.json,1236453,1521048,31,Woman
136,491548,DepthScenes,duration_manipulation_targetAtFixation,jsons/v1_VE250_randls_48_rotated.json,http://54.235.29.9/FacialAge/BNav_EC2/DepthDuration/v2_depth_duration_MTurk/v2_DepthDuration_HTML.html#89,89,720,394,1440,900,8-20-2022,10-58-55,137,depth_duration_stimuli/000929_2014-06-09_16-33-19_260595134347_rgbf000139-resize_0/000929_2014-06-09_16-33-19_260595134347_rgbf000139-resize_0-target.png,250,2.8680000000000003,50.0,2547,249,meters,jsons/v1_VE250_randls_48_rotated.json,1236453,1521048,31,Woman
137,491548,DepthScenes,duration_manipulation_targetAtFixation,jsons/v1_VE250_randls_48_rotated.json,http://54.235.29.9/FacialAge/BNav_EC2/DepthDuration/v2_depth_duration_MTurk/v2_DepthDuration_HTML.html#89,89,720,394,1440,900,8-20-2022,10-58-55,138,depth_duration_stimuli/002414_2014-06-28_20-24-58_260595134347_rgbf000067-resize_4/002414_2014-06-28_20-24-58_260595134347_rgbf000067-resize_4-target.png,250,4.363,50.0,2537,248,meters,jsons/v1_VE250_randls_48_rotated.json,1236453,1521048,31,Woman
138,491548,DepthScenes,duration_manipulation_targetAtFixation,jsons/v1_VE250_randls_48_rotated.json,http://54.235.29.9/FacialAge/BNav_EC2/DepthDuration/v2_depth_duration_MTurk/v2_DepthDuration_HTML.html#89,89,720,394,1440,900,8-20-2022,10-58-55,139,depth_duration_stimuli/000773_2014-06-08_22-24-54_260595134347_rgbf000093-resize_1/000773_2014-06-08_22-24-54_260595134347_rgbf000093-resize_1-target.png,250,4.973,50.0,3354,249,meters,jsons/v1_VE250_randls_48_rotated.json,1236453,1521048,31,Woman
139,491548,DepthScenes,duration_manipulation_targetAtFixation,jsons/v1_VE250_randls_48_rotated.json,http://54.235.29.9/FacialAge/BNav_EC2/DepthDuration/v2_depth_duration_MTurk/v2_DepthDuration_HTML.html#89,89,720,394,1440,900,8-20-2022,10-58-55,140,depth_duration_stimuli/000866_2014-06-09_20-45-42_260595134347_rgbf000139-resize_1/000866_2014-06-09_20-45-42_260595134347_rgbf000139-resize_1-target.png,250,3.2155,50.0,3034,250,meters,jsons/v1_VE250_randls_48_rotated.json,1236453,1521048,31,Woman
140,491548,DepthScenes,duration_manipulation_targetAtFixation,jsons/v1_VE250_randls_48_rotated.json,http://54.235.29.9/FacialAge/BNav_EC2/DepthDuration/v2_depth_duration_MTurk/v2_DepthDuration_HTML.html#89,89,720,394,1440,900,8-20-2022,10-58-55,141,depth_duration_stimuli/002989_2014-06-15_12-25-03_094959634447_rgbf000150-resize_3/002989_2014-06-15_12-25-03_094959634447_rgbf000150-resize_3-target.png,250,4.1975,60.0,2395,250,meters,jsons/v1_VE250_randls_48_rotated.json,1236453,1521048,31,Woman
141,491548,DepthScenes,duration_manipulation_targetAtFixation,jsons/v1_VE250_randls_48_rotated.json,http://54.235.29.9/FacialAge/BNav_EC2/DepthDuration/v2_depth_duration_MTurk/v2_DepthDuration_HTML.html#89,89,720,394,1440,900,8-20-2022,10-58-55,142,depth_duration_stimuli/001132_2014-06-17_14-48-54_260595134347_rgbf000100-resize_2/001132_2014-06-17_14-48-54_260595134347_rgbf000100-resize_2-target.png,250,3.753,60.0,3440,248,meters,jsons/v1_VE250_randls_48_rotated.json,1236453,1521048,31,Woman
142,491548,DepthScenes,duration_manipulation_targetAtFixation,jsons/v1_VE250_randls_48_rotated.json,http://54.235.29.9/FacialAge/BNav_EC2/DepthDuration/v2_depth_duration_MTurk/v2_DepthDuration_HTML.html#89,89,720,394,1440,900,8-20-2022,10-58-55,143,depth_duration_stimuli/001133_2014-06-17_14-49-16_260595134347_rgbf000100-resize_0/001133_2014-06-17_14-49-16_260595134347_rgbf000100-resize_0-target.png,250,4.2115,60.0,2819,250,meters,jsons/v1_VE250_randls_48_rotated.json,1236453,1521048,31,Woman
143,491548,DepthScenes,duration_manipulation_targetAtFixation,jsons/v1_VE250_randls_48_rotated.json,http://54.235.29.9/FacialAge/BNav_EC2/DepthDuration/v2_depth_duration_MTurk/v2_DepthDuration_HTML.html#89,89,720,394,1440,900,8-20-2022,10-58-55,144,depth_duration_stimuli/003338_2014-05-20_11-01-23_094959634447_rgbf000051-resize_6/003338_2014-05-20_11-01-23_094959634447_rgbf000051-resize_6-target.png,250,1.693,60.0,2521,250,meters,jsons/v1_VE250_randls_48_rotated.json,1236453,1521048,31,Woman
144,491548,DepthScenes,duration_manipulation_targetAtFixation,jsons/v1_VE250_randls_48_rotated.json,http://54.235.29.9/FacialAge/BNav_EC2/DepthDuration/v2_depth_duration_MTurk/v2_DepthDuration_HTML.html#89,89,720,394,1440,900,8-20-2022,10-58-55,145,depth_duration_stimuli/002509_2014-06-24_13-19-22_094959634447_rgbf000077-resize_0/002509_2014-06-24_13-19-22_094959634447_rgbf000077-resize_0-target.png,250,1.3065,60.0,2329,250,meters,jsons/v1_VE250_randls_48_rotated.json,1236453,1521048,31,Woman
145,491548,DepthScenes,duration_manipulation_targetAtFixation,jsons/v1_VE250_randls_48_rotated.json,http://54.235.29.9/FacialAge/BNav_EC2/DepthDuration/v2_depth_duration_MTurk/v2_DepthDuration_HTML.html#89,89,720,394,1440,900,8-20-2022,10-58-55,146,depth_duration_stimuli/000549_2014-06-08_22-10-24_260595134347_rgbf000247-resize_3/000549_2014-06-08_22-10-24_260595134347_rgbf000247-resize_3-target.png,250,1.841,60.0,2739,262,meters,jsons/v1_VE250_randls_48_rotated.json,1236453,1521048,31,Woman
146,491548,DepthScenes,duration_manipulation_targetAtFixation,jsons/v1_VE250_randls_48_rotated.json,http://54.235.29.9/FacialAge/BNav_EC2/DepthDuration/v2_depth_duration_MTurk/v2_DepthDuration_HTML.html#89,89,720,394,1440,900,8-20-2022,10-58-55,147,depth_duration_stimuli/001055_2014-06-08_18-45-35_260595134347_rgbf000111-resize_4/001055_2014-06-08_18-45-35_260595134347_rgbf000111-resize_4-target.png,250,2.4290000000000003,60.0,2706,251,meters,jsons/v1_VE250_randls_48_rotated.json,1236453,1521048,31,Woman
147,491548,DepthScenes,duration_manipulation_targetAtFixation,jsons/v1_VE250_randls_48_rotated.json,http://54.235.29.9/FacialAge/BNav_EC2/DepthDuration/v2_depth_duration_MTurk/v2_DepthDuration_HTML.html#89,89,720,394,1440,900,8-20-2022,10-58-55,148,depth_duration_stimuli/000943_2014-06-09_19-31-07_260595134347_rgbf000128-resize_1/000943_2014-06-09_19-31-07_260595134347_rgbf000128-resize_1-target.png,250,1.9765,60.0,2273,250,meters,jsons/v1_VE250_randls_48_rotated.json,1236453,1521048,31,Woman
148,491548,DepthScenes,duration_manipulation_targetAtFixation,jsons/v1_VE250_randls_48_rotated.json,http://54.235.29.9/FacialAge/BNav_EC2/DepthDuration/v2_depth_duration_MTurk/v2_DepthDuration_HTML.html#89,89,720,394,1440,900,8-20-2022,10-58-55,149,depth_duration_stimuli/003070_2014-06-15_14-58-27_094959634447_rgbf000150-resize_3/003070_2014-06-15_14-58-27_094959634447_rgbf000150-resize_3-target.png,250,2.9415,60.0,2561,250,meters,jsons/v1_VE250_randls_48_rotated.json,1236453,1521048,31,Woman
149,491548,DepthScenes,duration_manipulation_targetAtFixation,jsons/v1_VE250_randls_48_rotated.json,http://54.235.29.9/FacialAge/BNav_EC2/DepthDuration/v2_depth_duration_MTurk/v2_DepthDuration_HTML.html#89,89,720,394,1440,900,8-20-2022,10-58-55,150,depth_duration_stimuli/001032_2014-06-08_13-23-17_260595134347_rgbf000021-resize_3/001032_2014-06-08_13-23-17_260595134347_rgbf000021-resize_3-target.png,250,3.2725,60.0,3115,249,meters,jsons/v1_VE250_randls_48_rotated.json,1236453,1521048,31,Woman
150,491548,DepthScenes,duration_manipulation_targetAtFixation,jsons/v1_VE250_randls_48_rotated.json,http://54.235.29.9/FacialAge/BNav_EC2/DepthDuration/v2_depth_duration_MTurk/v2_DepthDuration_HTML.html#89,89,720,394,1440,900,8-20-2022,10-58-55,151,depth_duration_stimuli/001059_2014-06-08_21-53-27_260595134347_rgbf000061-resize_4/001059_2014-06-08_21-53-27_260595134347_rgbf000061-resize_4-target.png,250,2.4185,60.0,2506,249,meters,jsons/v1_VE250_randls_48_rotated.json,1236453,1521048,31,Woman
151,491548,DepthScenes,duration_manipulation_targetAtFixation,jsons/v1_VE250_randls_48_rotated.json,http://54.235.29.9/FacialAge/BNav_EC2/DepthDuration/v2_depth_duration_MTurk/v2_DepthDuration_HTML.html#89,89,720,394,1440,900,8-20-2022,10-58-55,152,depth_duration_stimuli/000569_2014-06-09_22-51-47_260595134347_rgbf000141-resize_3/000569_2014-06-09_22-51-47_260595134347_rgbf000141-resize-original.jpg,250,4.512,60.0,2465,250,meters,jsons/v1_VE250_randls_48_rotated.json,1236453,1521048,31,Woman
152,491548,DepthScenes,duration_manipulation_targetAtFixation,jsons/v1_VE250_randls_48_rotated.json,http://54.235.29.9/FacialAge/BNav_EC2/DepthDuration/v2_depth_duration_MTurk/v2_DepthDuration_HTML.html#89,89,720,394,1440,900,8-20-2022,10-58-55,153,depth_duration_stimuli/000556_2014-06-09_22-42-56_260595134347_rgbf000214-resize_1/000556_2014-06-09_22-42-56_260595134347_rgbf000214-resize_1-target.png,250,4.8415,60.0,2363,250,meters,jsons/v1_VE250_randls_48_rotated.json,1236453,1521048,31,Woman
153,491548,DepthScenes,duration_manipulation_targetAtFixation,jsons/v1_VE250_randls_48_rotated.json,http://54.235.29.9/FacialAge/BNav_EC2/DepthDuration/v2_depth_duration_MTurk/v2_DepthDuration_HTML.html#89,89,720,394,1440,900,8-20-2022,10-58-55,154,depth_duration_stimuli/001158_2014-06-17_15-32-16_260595134347_rgbf000138-resize_2/001158_2014-06-17_15-32-16_260595134347_rgbf000138-resize_2-target.png,250,4.5315,60.0,2442,249,meters,jsons/v1_VE250_randls_48_rotated.json,1236453,1521048,31,Woman
154,491548,DepthScenes,duration_manipulation_targetAtFixation,jsons/v1_VE250_randls_48_rotated.json,http://54.235.29.9/FacialAge/BNav_EC2/DepthDuration/v2_depth_duration_MTurk/v2_DepthDuration_HTML.html#89,89,720,394,1440,900,8-20-2022,10-58-55,155,depth_duration_stimuli/002344_2014-06-28_20-06-29_260595134347_rgbf000030-resize_1/002344_2014-06-28_20-06-29_260595134347_rgbf000030-resize_1-target.png,250,1.5795,60.0,2456,250,meters,jsons/v1_VE250_randls_48_rotated.json,1236453,1521048,31,Woman
155,491548,DepthScenes,duration_manipulation_targetAtFixation,jsons/v1_VE250_randls_48_rotated.json,http://54.235.29.9/FacialAge/BNav_EC2/DepthDuration/v2_depth_duration_MTurk/v2_DepthDuration_HTML.html#89,89,720,394,1440,900,8-20-2022,10-58-55,156,depth_duration_stimuli/002725_2014-06-22_11-47-51_094959634447_rgbf000070-resize_1/002725_2014-06-22_11-47-51_094959634447_rgbf000070-resize_1-target.png,250,2.195,60.0,2313,250,meters,jsons/v1_VE250_randls_48_rotated.json,1236453,1521048,31,Woman
156,491548,DepthScenes,duration_manipulation_targetAtFixation,jsons/v1_VE250_randls_48_rotated.json,http://54.235.29.9/FacialAge/BNav_EC2/DepthDuration/v2_depth_duration_MTurk/v2_DepthDuration_HTML.html#89,89,720,394,1440,900,8-20-2022,10-58-55,157,depth_duration_stimuli/000409_2014-06-04_19-23-33_260595134347_rgbf000067-resize_0/000409_2014-06-04_19-23-33_260595134347_rgbf000067-resize_0-target.png,250,3.7335,60.0,2852,251,meters,jsons/v1_VE250_randls_48_rotated.json,1236453,1521048,31,Woman
157,491548,DepthScenes,duration_manipulation_targetAtFixation,jsons/v1_VE250_randls_48_rotated.json,http://54.235.29.9/FacialAge/BNav_EC2/DepthDuration/v2_depth_duration_MTurk/v2_DepthDuration_HTML.html#89,89,720,394,1440,900,8-20-2022,10-58-55,158,depth_duration_stimuli/002663_2014-06-13_15-50-26_094959634447_rgbf000075-resize_1/002663_2014-06-13_15-50-26_094959634447_rgbf000075-resize_1-target.png,250,4.7495,60.0,3600,249,meters,jsons/v1_VE250_randls_48_rotated.json,1236453,1521048,31,Woman
158,491548,DepthScenes,duration_manipulation_targetAtFixation,jsons/v1_VE250_randls_48_rotated.json,http://54.235.29.9/FacialAge/BNav_EC2/DepthDuration/v2_depth_duration_MTurk/v2_DepthDuration_HTML.html#89,89,720,394,1440,900,8-20-2022,10-58-55,159,depth_duration_stimuli/003129_2014-05-12_10-48-10_094959634447_rgbf000100-resize_0/003129_2014-05-12_10-48-10_094959634447_rgbf000100-resize_0-target.png,250,4.9305,60.0,2659,250,meters,jsons/v1_VE250_randls_48_rotated.json,1236453,1521048,31,Woman
159,491548,DepthScenes,duration_manipulation_targetAtFixation,jsons/v1_VE250_randls_48_rotated.json,http://54.235.29.9/FacialAge/BNav_EC2/DepthDuration/v2_depth_duration_MTurk/v2_DepthDuration_HTML.html#89,89,720,394,1440,900,8-20-2022,10-58-55,160,depth_duration_stimuli/000414_2014-06-04_19-49-13_260595134347_rgbf000044-resize_0/000414_2014-06-04_19-49-13_260595134347_rgbf000044-resize_0-target.png,250,4.329,60.0,3082,250,meters,jsons/v1_VE250_randls_48_rotated.json,1236453,1521048,31,Woman
160,491548,DepthScenes,duration_manipulation_targetAtFixation,jsons/v1_VE250_randls_48_rotated.json,http://54.235.29.9/FacialAge/BNav_EC2/DepthDuration/v2_depth_duration_MTurk/v2_DepthDuration_HTML.html#89,89,720,394,1440,900,8-20-2022,10-58-55,161,depth_duration_stimuli/000103_2014-05-14_22-01-17_260595134347_rgbf000152-resize_5/000103_2014-05-14_22-01-17_260595134347_rgbf000152-resize_5-target.png,250,1.993,60.0,2201,250,meters,jsons/v1_VE250_randls_48_rotated.json,1236453,1521048,31,Woman
161,491548,DepthScenes,duration_manipulation_targetAtFixation,jsons/v1_VE250_randls_48_rotated.json,http://54.235.29.9/FacialAge/BNav_EC2/DepthDuration/v2_depth_duration_MTurk/v2_DepthDuration_HTML.html#89,89,720,394,1440,900,8-20-2022,10-58-55,162,depth_duration_stimuli/001555_2014-06-20_17-12-10_260595134347_rgbf000065-resize_4/001555_2014-06-20_17-12-10_260595134347_rgbf000065-resize_4-target.png,250,1.633,60.0,2291,249,meters,jsons/v1_VE250_randls_48_rotated.json,1236453,1521048,31,Woman
162,491548,DepthScenes,duration_manipulation_targetAtFixation,jsons/v1_VE250_randls_48_rotated.json,http://54.235.29.9/FacialAge/BNav_EC2/DepthDuration/v2_depth_duration_MTurk/v2_DepthDuration_HTML.html#89,89,720,394,1440,900,8-20-2022,10-58-55,163,depth_duration_stimuli/003081_2014-06-15_15-19-16_094959634447_rgbf000150-resize_1/003081_2014-06-15_15-19-16_094959634447_rgbf000150-resize_1-target.png,250,3.9125,60.0,2282,249,meters,jsons/v1_VE250_randls_48_rotated.json,1236453,1521048,31,Woman
163,491548,DepthScenes,duration_manipulation_targetAtFixation,jsons/v1_VE250_randls_48_rotated.json,http://54.235.29.9/FacialAge/BNav_EC2/DepthDuration/v2_depth_duration_MTurk/v2_DepthDuration_HTML.html#89,89,720,394,1440,900,8-20-2022,10-58-55,164,depth_duration_stimuli/001417_2014-06-19_16-25-36_260595134347_rgbf000115-resize_5/001417_2014-06-19_16-25-36_260595134347_rgbf000115-resize_5-target.png,250,4.6255,60.0,2354,249,meters,jsons/v1_VE250_randls_48_rotated.json,1236453,1521048,31,Woman
