,subjID,experimentName,versionName,sequenceName,url,selected_row,windowWidth,windowHeight,screenWidth,screenHeight,startDate,startTime,trial,stimulus,duration,actual_depth,depth_estimate,trial_RT,log_sceneDuration,unitSelection,seq_filepath,experimentTime,totalTime,age,gender
0,492147,DepthScenes,duration_manipulation_targetAtFixation,jsons/VE125_randls_62_rotated.json,http://54.235.29.9/FacialAge/BNav_EC2/DepthDuration/v2_depth_duration_MTurk/v2_DepthDuration_HTML.html#142,142,1364,625,1364,768,8-29-2022,18-28-50,1,depth_duration_stimuli/001214_2014-06-17_16-13-55_260595134347_rgbf000111-resize_0/001214_2014-06-17_16-13-55_260595134347_rgbf000111-resize_0-target.png,125,2.6505,60,15117,125,meters,jsons/VE125_randls_62_rotated.json,979439,1147728,44,Man
1,492147,DepthScenes,duration_manipulation_targetAtFixation,jsons/VE125_randls_62_rotated.json,http://54.235.29.9/FacialAge/BNav_EC2/DepthDuration/v2_depth_duration_MTurk/v2_DepthDuration_HTML.html#142,142,1364,625,1364,768,8-29-2022,18-28-50,2,depth_duration_stimuli/000810_2014-06-08_17-20-01_260595134347_rgbf000105-resize_0/000810_2014-06-08_17-20-01_260595134347_rgbf000105-resize_0-target.png,125,1.4865,70,4464,119,meters,jsons/VE125_randls_62_rotated.json,979439,1147728,44,Man
2,492147,DepthScenes,duration_manipulation_targetAtFixation,jsons/VE125_randls_62_rotated.json,http://54.235.29.9/FacialAge/BNav_EC2/DepthDuration/v2_depth_duration_MTurk/v2_DepthDuration_HTML.html#142,142,1364,625,1364,768,8-29-2022,18-28-50,3,depth_duration_stimuli/002953_2014-06-08_17-32-18_094959634447_rgbf000059-resize_5/002953_2014-06-08_17-32-18_094959634447_rgbf000059-resize_5-target.png,125,1.551,60,9391,126,meters,jsons/VE125_randls_62_rotated.json,979439,1147728,44,Man
3,492147,DepthScenes,duration_manipulation_targetAtFixation,jsons/VE125_randls_62_rotated.json,http://54.235.29.9/FacialAge/BNav_EC2/DepthDuration/v2_depth_duration_MTurk/v2_DepthDuration_HTML.html#142,142,1364,625,1364,768,8-29-2022,18-28-50,4,depth_duration_stimuli/000878_2014-06-08_22-52-45_260595134347_rgbf000045-resize_2/000878_2014-06-08_22-52-45_260595134347_rgbf000045-resize_2-target.png,125,2.092,50,5437,123,meters,jsons/VE125_randls_62_rotated.json,979439,1147728,44,Man
4,492147,DepthScenes,duration_manipulation_targetAtFixation,jsons/VE125_randls_62_rotated.json,http://54.235.29.9/FacialAge/BNav_EC2/DepthDuration/v2_depth_duration_MTurk/v2_DepthDuration_HTML.html#142,142,1364,625,1364,768,8-29-2022,18-28-50,5,depth_duration_stimuli/001516_2014-06-20_16-25-09_260595134347_rgbf000076-resize_2/001516_2014-06-20_16-25-09_260595134347_rgbf000076-resize_2-target.png,125,1.7445,50,7939,124,meters,jsons/VE125_randls_62_rotated.json,979439,1147728,44,Man
5,492147,DepthScenes,duration_manipulation_targetAtFixation,jsons/VE125_randls_62_rotated.json,http://54.235.29.9/FacialAge/BNav_EC2/DepthDuration/v2_depth_duration_MTurk/v2_DepthDuration_HTML.html#142,142,1364,625,1364,768,8-29-2022,18-28-50,6,depth_duration_stimuli/002118_2014-06-25_20-32-08_260595134347_rgbf000078-resize_1/002118_2014-06-25_20-32-08_260595134347_rgbf000078-resize_1-target.png,125,2.6460000000000004,70,6391,124,meters,jsons/VE125_randls_62_rotated.json,979439,1147728,44,Man
6,492147,DepthScenes,duration_manipulation_targetAtFixation,jsons/VE125_randls_62_rotated.json,http://54.235.29.9/FacialAge/BNav_EC2/DepthDuration/v2_depth_duration_MTurk/v2_DepthDuration_HTML.html#142,142,1364,625,1364,768,8-29-2022,18-28-50,7,depth_duration_stimuli/003490_2014-05-21_15-50-11_094959634447_rgbf000101-resize_3/003490_2014-05-21_15-50-11_094959634447_rgbf000101-resize_3-target.png,125,3.6445,70,16996,160,meters,jsons/VE125_randls_62_rotated.json,979439,1147728,44,Man
7,492147,DepthScenes,duration_manipulation_targetAtFixation,jsons/VE125_randls_62_rotated.json,http://54.235.29.9/FacialAge/BNav_EC2/DepthDuration/v2_depth_duration_MTurk/v2_DepthDuration_HTML.html#142,142,1364,625,1364,768,8-29-2022,18-28-50,8,depth_duration_stimuli/001175_2014-06-17_15-45-55_260595134347_rgbf000129-resize_4/001175_2014-06-17_15-45-55_260595134347_rgbf000129-resize_4-target.png,125,4.255,70,6479,125,meters,jsons/VE125_randls_62_rotated.json,979439,1147728,44,Man
8,492147,DepthScenes,duration_manipulation_targetAtFixation,jsons/VE125_randls_62_rotated.json,http://54.235.29.9/FacialAge/BNav_EC2/DepthDuration/v2_depth_duration_MTurk/v2_DepthDuration_HTML.html#142,142,1364,625,1364,768,8-29-2022,18-28-50,9,depth_duration_stimuli/001450_2014-06-19_17-02-03_260595134347_rgbf000203-resize_4/001450_2014-06-19_17-02-03_260595134347_rgbf000203-resize_4-target.png,125,4.0106666666667,60,7501,125,meters,jsons/VE125_randls_62_rotated.json,979439,1147728,44,Man
9,492147,DepthScenes,duration_manipulation_targetAtFixation,jsons/VE125_randls_62_rotated.json,http://54.235.29.9/FacialAge/BNav_EC2/DepthDuration/v2_depth_duration_MTurk/v2_DepthDuration_HTML.html#142,142,1364,625,1364,768,8-29-2022,18-28-50,10,depth_duration_stimuli/001449_2014-06-19_17-01-27_260595134347_rgbf000116-resize_2/001449_2014-06-19_17-01-27_260595134347_rgbf000116-resize_2-target.png,125,3.452,50,3477,125,meters,jsons/VE125_randls_62_rotated.json,979439,1147728,44,Man
10,492147,DepthScenes,duration_manipulation_targetAtFixation,jsons/VE125_randls_62_rotated.json,http://54.235.29.9/FacialAge/BNav_EC2/DepthDuration/v2_depth_duration_MTurk/v2_DepthDuration_HTML.html#142,142,1364,625,1364,768,8-29-2022,18-28-50,11,depth_duration_stimuli/003083_2014-06-15_15-21-03_094959634447_rgbf000063-resize_1/003083_2014-06-15_15-21-03_094959634447_rgbf000063-resize_1-target.png,125,4.1405,50,6017,124,meters,jsons/VE125_randls_62_rotated.json,979439,1147728,44,Man
11,492147,DepthScenes,duration_manipulation_targetAtFixation,jsons/VE125_randls_62_rotated.json,http://54.235.29.9/FacialAge/BNav_EC2/DepthDuration/v2_depth_duration_MTurk/v2_DepthDuration_HTML.html#142,142,1364,625,1364,768,8-29-2022,18-28-50,12,depth_duration_stimuli/000486_2014-06-09_20-47-20_260595134347_rgbf000143-resize_2/000486_2014-06-09_20-47-20_260595134347_rgbf000143-resize_2-target.png,125,4.8325,60,4109,125,meters,jsons/VE125_randls_62_rotated.json,979439,1147728,44,Man
12,492147,DepthScenes,duration_manipulation_targetAtFixation,jsons/VE125_randls_62_rotated.json,http://54.235.29.9/FacialAge/BNav_EC2/DepthDuration/v2_depth_duration_MTurk/v2_DepthDuration_HTML.html#142,142,1364,625,1364,768,8-29-2022,18-28-50,13,depth_duration_stimuli/000556_2014-06-09_22-42-56_260595134347_rgbf000214-resize_1/000556_2014-06-09_22-42-56_260595134347_rgbf000214-resize_1-target.png,125,4.8415,80,5147,125,meters,jsons/VE125_randls_62_rotated.json,979439,1147728,44,Man
13,492147,DepthScenes,duration_manipulation_targetAtFixation,jsons/VE125_randls_62_rotated.json,http://54.235.29.9/FacialAge/BNav_EC2/DepthDuration/v2_depth_duration_MTurk/v2_DepthDuration_HTML.html#142,142,1364,625,1364,768,8-29-2022,18-28-50,14,depth_duration_stimuli/001158_2014-06-17_15-32-16_260595134347_rgbf000138-resize_2/001158_2014-06-17_15-32-16_260595134347_rgbf000138-resize_2-target.png,125,4.5315,70,6332,126,meters,jsons/VE125_randls_62_rotated.json,979439,1147728,44,Man
14,492147,DepthScenes,duration_manipulation_targetAtFixation,jsons/VE125_randls_62_rotated.json,http://54.235.29.9/FacialAge/BNav_EC2/DepthDuration/v2_depth_duration_MTurk/v2_DepthDuration_HTML.html#142,142,1364,625,1364,768,8-29-2022,18-28-50,15,depth_duration_stimuli/000457_2014-06-08_16-52-43_260595134347_rgbf000199-resize_1/000457_2014-06-08_16-52-43_260595134347_rgbf000199-resize_1-target.png,125,3.6489999999999996,70,6341,125,meters,jsons/VE125_randls_62_rotated.json,979439,1147728,44,Man
15,492147,DepthScenes,duration_manipulation_targetAtFixation,jsons/VE125_randls_62_rotated.json,http://54.235.29.9/FacialAge/BNav_EC2/DepthDuration/v2_depth_duration_MTurk/v2_DepthDuration_HTML.html#142,142,1364,625,1364,768,8-29-2022,18-28-50,16,depth_duration_stimuli/000929_2014-06-09_16-33-19_260595134347_rgbf000139-resize_0/000929_2014-06-09_16-33-19_260595134347_rgbf000139-resize_0-target.png,125,2.8680000000000003,66,6179,125,meters,jsons/VE125_randls_62_rotated.json,979439,1147728,44,Man
16,492147,DepthScenes,duration_manipulation_targetAtFixation,jsons/VE125_randls_62_rotated.json,http://54.235.29.9/FacialAge/BNav_EC2/DepthDuration/v2_depth_duration_MTurk/v2_DepthDuration_HTML.html#142,142,1364,625,1364,768,8-29-2022,18-28-50,17,depth_duration_stimuli/002340_2014-06-28_20-05-46_260595134347_rgbf000113-resize_0/002340_2014-06-28_20-05-46_260595134347_rgbf000113-resize_0-target.png,125,2.4735,60,5748,126,meters,jsons/VE125_randls_62_rotated.json,979439,1147728,44,Man
17,492147,DepthScenes,duration_manipulation_targetAtFixation,jsons/VE125_randls_62_rotated.json,http://54.235.29.9/FacialAge/BNav_EC2/DepthDuration/v2_depth_duration_MTurk/v2_DepthDuration_HTML.html#142,142,1364,625,1364,768,8-29-2022,18-28-50,18,depth_duration_stimuli/001016_2014-06-09_16-16-10_260595134347_rgbf000112-resize_5/001016_2014-06-09_16-16-10_260595134347_rgbf000112-resize_5-target.png,125,1.6565,50,8610,125,meters,jsons/VE125_randls_62_rotated.json,979439,1147728,44,Man
18,492147,DepthScenes,duration_manipulation_targetAtFixation,jsons/VE125_randls_62_rotated.json,http://54.235.29.9/FacialAge/BNav_EC2/DepthDuration/v2_depth_duration_MTurk/v2_DepthDuration_HTML.html#142,142,1364,625,1364,768,8-29-2022,18-28-50,19,depth_duration_stimuli/001498_2014-06-19_17-45-14_260595134347_rgbf000129-resize_4/001498_2014-06-19_17-45-14_260595134347_rgbf000129-resize-original.jpg,125,1.4075,70,6489,125,meters,jsons/VE125_randls_62_rotated.json,979439,1147728,44,Man
19,492147,DepthScenes,duration_manipulation_targetAtFixation,jsons/VE125_randls_62_rotated.json,http://54.235.29.9/FacialAge/BNav_EC2/DepthDuration/v2_depth_duration_MTurk/v2_DepthDuration_HTML.html#142,142,1364,625,1364,768,8-29-2022,18-28-50,20,depth_duration_stimuli/000854_2014-06-09_19-43-13_260595134347_rgbf000066-resize_0/000854_2014-06-09_19-43-13_260595134347_rgbf000066-resize_0-target.png,125,3.068,70,5538,126,meters,jsons/VE125_randls_62_rotated.json,979439,1147728,44,Man
20,492147,DepthScenes,duration_manipulation_targetAtFixation,jsons/VE125_randls_62_rotated.json,http://54.235.29.9/FacialAge/BNav_EC2/DepthDuration/v2_depth_duration_MTurk/v2_DepthDuration_HTML.html#142,142,1364,625,1364,768,8-29-2022,18-28-50,21,depth_duration_stimuli/000758_2014-06-08_22-05-08_260595134347_rgbf000085-resize_0/000758_2014-06-08_22-05-08_260595134347_rgbf000085-resize_0-target.png,125,3.3810000000000002,50,3999,124,meters,jsons/VE125_randls_62_rotated.json,979439,1147728,44,Man
21,492147,DepthScenes,duration_manipulation_targetAtFixation,jsons/VE125_randls_62_rotated.json,http://54.235.29.9/FacialAge/BNav_EC2/DepthDuration/v2_depth_duration_MTurk/v2_DepthDuration_HTML.html#142,142,1364,625,1364,768,8-29-2022,18-28-50,22,depth_duration_stimuli/001650_2014-06-20_12-09-00_260595134347_rgbf000087-resize_3/001650_2014-06-20_12-09-00_260595134347_rgbf000087-resize_3-target.png,125,1.9505,60,5249,124,meters,jsons/VE125_randls_62_rotated.json,979439,1147728,44,Man
22,492147,DepthScenes,duration_manipulation_targetAtFixation,jsons/VE125_randls_62_rotated.json,http://54.235.29.9/FacialAge/BNav_EC2/DepthDuration/v2_depth_duration_MTurk/v2_DepthDuration_HTML.html#142,142,1364,625,1364,768,8-29-2022,18-28-50,23,depth_duration_stimuli/000682_2014-06-08_23-14-58_260595134347_rgbf000041-resize_5/000682_2014-06-08_23-14-58_260595134347_rgbf000041-resize_5-target.png,125,2.7239999999999998,60,3610,125,meters,jsons/VE125_randls_62_rotated.json,979439,1147728,44,Man
23,492147,DepthScenes,duration_manipulation_targetAtFixation,jsons/VE125_randls_62_rotated.json,http://54.235.29.9/FacialAge/BNav_EC2/DepthDuration/v2_depth_duration_MTurk/v2_DepthDuration_HTML.html#142,142,1364,625,1364,768,8-29-2022,18-28-50,24,depth_duration_stimuli/001617_2014-06-20_11-35-32_260595134347_rgbf000066-resize_1/001617_2014-06-20_11-35-32_260595134347_rgbf000066-resize_1-target.png,125,3.7910000000000004,50,3822,124,meters,jsons/VE125_randls_62_rotated.json,979439,1147728,44,Man
24,492147,DepthScenes,duration_manipulation_targetAtFixation,jsons/VE125_randls_62_rotated.json,http://54.235.29.9/FacialAge/BNav_EC2/DepthDuration/v2_depth_duration_MTurk/v2_DepthDuration_HTML.html#142,142,1364,625,1364,768,8-29-2022,18-28-50,25,depth_duration_stimuli/001806_2014-06-26_20-50-20_260595134347_rgbf000091-resize_1/001806_2014-06-26_20-50-20_260595134347_rgbf000091-resize_1-target.png,125,2.7305,70,6454,124,meters,jsons/VE125_randls_62_rotated.json,979439,1147728,44,Man
25,492147,DepthScenes,duration_manipulation_targetAtFixation,jsons/VE125_randls_62_rotated.json,http://54.235.29.9/FacialAge/BNav_EC2/DepthDuration/v2_depth_duration_MTurk/v2_DepthDuration_HTML.html#142,142,1364,625,1364,768,8-29-2022,18-28-50,26,depth_duration_stimuli/001815_2014-06-26_20-52-55_260595134347_rgbf000020-resize_0/001815_2014-06-26_20-52-55_260595134347_rgbf000020-resize_0-target.png,125,3.3865,60,6288,124,meters,jsons/VE125_randls_62_rotated.json,979439,1147728,44,Man
26,492147,DepthScenes,duration_manipulation_targetAtFixation,jsons/VE125_randls_62_rotated.json,http://54.235.29.9/FacialAge/BNav_EC2/DepthDuration/v2_depth_duration_MTurk/v2_DepthDuration_HTML.html#142,142,1364,625,1364,768,8-29-2022,18-28-50,27,depth_duration_stimuli/001808_2014-06-26_20-50-58_260595134347_rgbf000029-resize_1/001808_2014-06-26_20-50-58_260595134347_rgbf000029-resize_1-target.png,125,4.249,70,9230,125,meters,jsons/VE125_randls_62_rotated.json,979439,1147728,44,Man
27,492147,DepthScenes,duration_manipulation_targetAtFixation,jsons/VE125_randls_62_rotated.json,http://54.235.29.9/FacialAge/BNav_EC2/DepthDuration/v2_depth_duration_MTurk/v2_DepthDuration_HTML.html#142,142,1364,625,1364,768,8-29-2022,18-28-50,28,depth_duration_stimuli/002444_2014-06-28_20-32-08_260595134347_rgbf000027-resize_0/002444_2014-06-28_20-32-08_260595134347_rgbf000027-resize_0-target.png,125,4.388999999999999,50,11230,125,meters,jsons/VE125_randls_62_rotated.json,979439,1147728,44,Man
28,492147,DepthScenes,duration_manipulation_targetAtFixation,jsons/VE125_randls_62_rotated.json,http://54.235.29.9/FacialAge/BNav_EC2/DepthDuration/v2_depth_duration_MTurk/v2_DepthDuration_HTML.html#142,142,1364,625,1364,768,8-29-2022,18-28-50,29,depth_duration_stimuli/000436_2014-06-09_22-25-11_260595134347_rgbf000137-resize_1/000436_2014-06-09_22-25-11_260595134347_rgbf000137-resize_1-target.png,125,4.0705,60,5788,124,meters,jsons/VE125_randls_62_rotated.json,979439,1147728,44,Man
29,492147,DepthScenes,duration_manipulation_targetAtFixation,jsons/VE125_randls_62_rotated.json,http://54.235.29.9/FacialAge/BNav_EC2/DepthDuration/v2_depth_duration_MTurk/v2_DepthDuration_HTML.html#142,142,1364,625,1364,768,8-29-2022,18-28-50,30,depth_duration_stimuli/002072_2014-06-24_21-48-06_260595134347_rgbf000115-resize_0/002072_2014-06-24_21-48-06_260595134347_rgbf000115-resize-original.jpg,125,4.702,70,6238,124,meters,jsons/VE125_randls_62_rotated.json,979439,1147728,44,Man
30,492147,DepthScenes,duration_manipulation_targetAtFixation,jsons/VE125_randls_62_rotated.json,http://54.235.29.9/FacialAge/BNav_EC2/DepthDuration/v2_depth_duration_MTurk/v2_DepthDuration_HTML.html#142,142,1364,625,1364,768,8-29-2022,18-28-50,31,depth_duration_stimuli/000665_2014-06-09_20-42-35_260595134347_rgbf000110-resize_1/000665_2014-06-09_20-42-35_260595134347_rgbf000110-resize_1-target.png,125,3.057,70,6837,123,meters,jsons/VE125_randls_62_rotated.json,979439,1147728,44,Man
31,492147,DepthScenes,duration_manipulation_targetAtFixation,jsons/VE125_randls_62_rotated.json,http://54.235.29.9/FacialAge/BNav_EC2/DepthDuration/v2_depth_duration_MTurk/v2_DepthDuration_HTML.html#142,142,1364,625,1364,768,8-29-2022,18-28-50,32,depth_duration_stimuli/001150_2014-06-17_15-27-34_260595134347_rgbf000108-resize_2/001150_2014-06-17_15-27-34_260595134347_rgbf000108-resize_2-target.png,125,4.0325,60,4340,125,meters,jsons/VE125_randls_62_rotated.json,979439,1147728,44,Man
32,492147,DepthScenes,duration_manipulation_targetAtFixation,jsons/VE125_randls_62_rotated.json,http://54.235.29.9/FacialAge/BNav_EC2/DepthDuration/v2_depth_duration_MTurk/v2_DepthDuration_HTML.html#142,142,1364,625,1364,768,8-29-2022,18-28-50,33,depth_duration_stimuli/000691_2014-06-08_13-08-50_260595134347_rgbf000132-resize_3/000691_2014-06-08_13-08-50_260595134347_rgbf000132-resize_3-target.png,125,4.1530000000000005,50,4980,126,meters,jsons/VE125_randls_62_rotated.json,979439,1147728,44,Man
33,492147,DepthScenes,duration_manipulation_targetAtFixation,jsons/VE125_randls_62_rotated.json,http://54.235.29.9/FacialAge/BNav_EC2/DepthDuration/v2_depth_duration_MTurk/v2_DepthDuration_HTML.html#142,142,1364,625,1364,768,8-29-2022,18-28-50,34,depth_duration_stimuli/002213_2014-06-28_18-37-58_260595134347_rgbf000055-resize_1/002213_2014-06-28_18-37-58_260595134347_rgbf000055-resize_1-target.png,125,3.62,60,4499,125,meters,jsons/VE125_randls_62_rotated.json,979439,1147728,44,Man
34,492147,DepthScenes,duration_manipulation_targetAtFixation,jsons/VE125_randls_62_rotated.json,http://54.235.29.9/FacialAge/BNav_EC2/DepthDuration/v2_depth_duration_MTurk/v2_DepthDuration_HTML.html#142,142,1364,625,1364,768,8-29-2022,18-28-50,35,depth_duration_stimuli/000409_2014-06-04_19-23-33_260595134347_rgbf000067-resize_0/000409_2014-06-04_19-23-33_260595134347_rgbf000067-resize_0-target.png,125,3.7335,70,10322,126,meters,jsons/VE125_randls_62_rotated.json,979439,1147728,44,Man
35,492147,DepthScenes,duration_manipulation_targetAtFixation,jsons/VE125_randls_62_rotated.json,http://54.235.29.9/FacialAge/BNav_EC2/DepthDuration/v2_depth_duration_MTurk/v2_DepthDuration_HTML.html#142,142,1364,625,1364,768,8-29-2022,18-28-50,36,depth_duration_stimuli/002663_2014-06-13_15-50-26_094959634447_rgbf000075-resize_1/002663_2014-06-13_15-50-26_094959634447_rgbf000075-resize_1-target.png,125,4.7495,60,7730,127,meters,jsons/VE125_randls_62_rotated.json,979439,1147728,44,Man
36,492147,DepthScenes,duration_manipulation_targetAtFixation,jsons/VE125_randls_62_rotated.json,http://54.235.29.9/FacialAge/BNav_EC2/DepthDuration/v2_depth_duration_MTurk/v2_DepthDuration_HTML.html#142,142,1364,625,1364,768,8-29-2022,18-28-50,37,depth_duration_stimuli/002660_2014-06-13_15-44-18_094959634447_rgbf001878-resize_2/002660_2014-06-13_15-44-18_094959634447_rgbf001878-resize_2-target.png,125,3.576,70,8439,124,meters,jsons/VE125_randls_62_rotated.json,979439,1147728,44,Man
37,492147,DepthScenes,duration_manipulation_targetAtFixation,jsons/VE125_randls_62_rotated.json,http://54.235.29.9/FacialAge/BNav_EC2/DepthDuration/v2_depth_duration_MTurk/v2_DepthDuration_HTML.html#142,142,1364,625,1364,768,8-29-2022,18-28-50,38,depth_duration_stimuli/002153_2014-06-25_21-27-18_260595134347_rgbf000038-resize_5/002153_2014-06-25_21-27-18_260595134347_rgbf000038-resize_5-target.png,125,2.505,60,4872,125,meters,jsons/VE125_randls_62_rotated.json,979439,1147728,44,Man
38,492147,DepthScenes,duration_manipulation_targetAtFixation,jsons/VE125_randls_62_rotated.json,http://54.235.29.9/FacialAge/BNav_EC2/DepthDuration/v2_depth_duration_MTurk/v2_DepthDuration_HTML.html#142,142,1364,625,1364,768,8-29-2022,18-28-50,39,depth_duration_stimuli/002875_2014-06-01_15-19-00_094959634447_rgbf000151-resize_1/002875_2014-06-01_15-19-00_094959634447_rgbf000151-resize_1-target.png,125,1.9675,50,5306,125,meters,jsons/VE125_randls_62_rotated.json,979439,1147728,44,Man
39,492147,DepthScenes,duration_manipulation_targetAtFixation,jsons/VE125_randls_62_rotated.json,http://54.235.29.9/FacialAge/BNav_EC2/DepthDuration/v2_depth_duration_MTurk/v2_DepthDuration_HTML.html#142,142,1364,625,1364,768,8-29-2022,18-28-50,40,depth_duration_stimuli/001011_2014-06-08_23-18-54_260595134347_rgbf000044-resize_4/001011_2014-06-08_23-18-54_260595134347_rgbf000044-resize_4-target.png,125,2.4730000000000003,50,4649,125,meters,jsons/VE125_randls_62_rotated.json,979439,1147728,44,Man
40,492147,DepthScenes,duration_manipulation_targetAtFixation,jsons/VE125_randls_62_rotated.json,http://54.235.29.9/FacialAge/BNav_EC2/DepthDuration/v2_depth_duration_MTurk/v2_DepthDuration_HTML.html#142,142,1364,625,1364,768,8-29-2022,18-28-50,41,depth_duration_stimuli/002657_2014-06-13_15-29-54_094959634447_rgbf000150-resize_1/002657_2014-06-13_15-29-54_094959634447_rgbf000150-resize_1-target.png,125,4.919,60,6978,123,meters,jsons/VE125_randls_62_rotated.json,979439,1147728,44,Man
41,492147,DepthScenes,duration_manipulation_targetAtFixation,jsons/VE125_randls_62_rotated.json,http://54.235.29.9/FacialAge/BNav_EC2/DepthDuration/v2_depth_duration_MTurk/v2_DepthDuration_HTML.html#142,142,1364,625,1364,768,8-29-2022,18-28-50,42,depth_duration_stimuli/002375_2014-06-28_20-13-44_260595134347_rgbf000032-resize_1/002375_2014-06-28_20-13-44_260595134347_rgbf000032-resize_1-target.png,125,4.0175,60,3319,125,meters,jsons/VE125_randls_62_rotated.json,979439,1147728,44,Man
42,492147,DepthScenes,duration_manipulation_targetAtFixation,jsons/VE125_randls_62_rotated.json,http://54.235.29.9/FacialAge/BNav_EC2/DepthDuration/v2_depth_duration_MTurk/v2_DepthDuration_HTML.html#142,142,1364,625,1364,768,8-29-2022,18-28-50,43,depth_duration_stimuli/002425_2014-06-28_20-27-29_260595134347_rgbf000031-resize_8/002425_2014-06-28_20-27-29_260595134347_rgbf000031-resize_8-target.png,125,3.8960000000000004,70,5127,125,meters,jsons/VE125_randls_62_rotated.json,979439,1147728,44,Man
43,492147,DepthScenes,duration_manipulation_targetAtFixation,jsons/VE125_randls_62_rotated.json,http://54.235.29.9/FacialAge/BNav_EC2/DepthDuration/v2_depth_duration_MTurk/v2_DepthDuration_HTML.html#142,142,1364,625,1364,768,8-29-2022,18-28-50,44,depth_duration_stimuli/000642_2014-06-08_16-59-25_260595134347_rgbf000098-resize_2/000642_2014-06-08_16-59-25_260595134347_rgbf000098-resize_2-target.png,125,2.8815,70,2500,126,meters,jsons/VE125_randls_62_rotated.json,979439,1147728,44,Man
44,492147,DepthScenes,duration_manipulation_targetAtFixation,jsons/VE125_randls_62_rotated.json,http://54.235.29.9/FacialAge/BNav_EC2/DepthDuration/v2_depth_duration_MTurk/v2_DepthDuration_HTML.html#142,142,1364,625,1364,768,8-29-2022,18-28-50,45,depth_duration_stimuli/002805_2014-06-22_19-54-03_094959634447_rgbf000079-resize_1/002805_2014-06-22_19-54-03_094959634447_rgbf000079-resize_1-target.png,125,3.1439999999999997,60,4248,126,meters,jsons/VE125_randls_62_rotated.json,979439,1147728,44,Man
45,492147,DepthScenes,duration_manipulation_targetAtFixation,jsons/VE125_randls_62_rotated.json,http://54.235.29.9/FacialAge/BNav_EC2/DepthDuration/v2_depth_duration_MTurk/v2_DepthDuration_HTML.html#142,142,1364,625,1364,768,8-29-2022,18-28-50,46,depth_duration_stimuli/000906_2014-06-08_13-35-43_260595134347_rgbf000155-resize_1/000906_2014-06-08_13-35-43_260595134347_rgbf000155-resize_1-target.png,125,2.8489999999999998,50,3039,126,meters,jsons/VE125_randls_62_rotated.json,979439,1147728,44,Man
46,492147,DepthScenes,duration_manipulation_targetAtFixation,jsons/VE125_randls_62_rotated.json,http://54.235.29.9/FacialAge/BNav_EC2/DepthDuration/v2_depth_duration_MTurk/v2_DepthDuration_HTML.html#142,142,1364,625,1364,768,8-29-2022,18-28-50,47,depth_duration_stimuli/003495_2014-05-21_16-01-51_094959634447_rgbf000100-resize_3/003495_2014-05-21_16-01-51_094959634447_rgbf000100-resize_3-target.png,125,1.6255,60,4121,125,meters,jsons/VE125_randls_62_rotated.json,979439,1147728,44,Man
47,492147,DepthScenes,duration_manipulation_targetAtFixation,jsons/VE125_randls_62_rotated.json,http://54.235.29.9/FacialAge/BNav_EC2/DepthDuration/v2_depth_duration_MTurk/v2_DepthDuration_HTML.html#142,142,1364,625,1364,768,8-29-2022,18-28-50,48,depth_duration_stimuli/001244_2014-06-17_16-47-45_260595134347_rgbf000030-resize_4/001244_2014-06-17_16-47-45_260595134347_rgbf000030-resize_4-target.png,125,2.0425,70,3049,125,meters,jsons/VE125_randls_62_rotated.json,979439,1147728,44,Man
48,492147,DepthScenes,duration_manipulation_targetAtFixation,jsons/VE125_randls_62_rotated.json,http://54.235.29.9/FacialAge/BNav_EC2/DepthDuration/v2_depth_duration_MTurk/v2_DepthDuration_HTML.html#142,142,1364,625,1364,768,8-29-2022,18-28-50,49,depth_duration_stimuli/001170_2014-06-17_15-43-44_260595134347_rgbf000096-resize_6/001170_2014-06-17_15-43-44_260595134347_rgbf000096-resize-original.jpg,125,1.1909999999999998,70,3938,125,meters,jsons/VE125_randls_62_rotated.json,979439,1147728,44,Man
49,492147,DepthScenes,duration_manipulation_targetAtFixation,jsons/VE125_randls_62_rotated.json,http://54.235.29.9/FacialAge/BNav_EC2/DepthDuration/v2_depth_duration_MTurk/v2_DepthDuration_HTML.html#142,142,1364,625,1364,768,8-29-2022,18-28-50,50,depth_duration_stimuli/003228_2014-05-14_13-42-35_094959634447_rgbf000101-resize_1/003228_2014-05-14_13-42-35_094959634447_rgbf000101-resize_1-target.png,125,1.9680000000000002,70,3400,126,meters,jsons/VE125_randls_62_rotated.json,979439,1147728,44,Man
50,492147,DepthScenes,duration_manipulation_targetAtFixation,jsons/VE125_randls_62_rotated.json,http://54.235.29.9/FacialAge/BNav_EC2/DepthDuration/v2_depth_duration_MTurk/v2_DepthDuration_HTML.html#142,142,1364,625,1364,768,8-29-2022,18-28-50,51,depth_duration_stimuli/002600_2014-06-24_14-27-04_094959634447_rgbf000074-resize_2/002600_2014-06-24_14-27-04_094959634447_rgbf000074-resize_2-target.png,125,2.7575,70,2660,125,meters,jsons/VE125_randls_62_rotated.json,979439,1147728,44,Man
51,492147,DepthScenes,duration_manipulation_targetAtFixation,jsons/VE125_randls_62_rotated.json,http://54.235.29.9/FacialAge/BNav_EC2/DepthDuration/v2_depth_duration_MTurk/v2_DepthDuration_HTML.html#142,142,1364,625,1364,768,8-29-2022,18-28-50,52,depth_duration_stimuli/000866_2014-06-09_20-45-42_260595134347_rgbf000139-resize_1/000866_2014-06-09_20-45-42_260595134347_rgbf000139-resize_1-target.png,125,3.2155,60,3689,124,meters,jsons/VE125_randls_62_rotated.json,979439,1147728,44,Man
52,492147,DepthScenes,duration_manipulation_targetAtFixation,jsons/VE125_randls_62_rotated.json,http://54.235.29.9/FacialAge/BNav_EC2/DepthDuration/v2_depth_duration_MTurk/v2_DepthDuration_HTML.html#142,142,1364,625,1364,768,8-29-2022,18-28-50,53,depth_duration_stimuli/002989_2014-06-15_12-25-03_094959634447_rgbf000150-resize_3/002989_2014-06-15_12-25-03_094959634447_rgbf000150-resize_3-target.png,125,4.1975,60,2798,125,meters,jsons/VE125_randls_62_rotated.json,979439,1147728,44,Man
53,492147,DepthScenes,duration_manipulation_targetAtFixation,jsons/VE125_randls_62_rotated.json,http://54.235.29.9/FacialAge/BNav_EC2/DepthDuration/v2_depth_duration_MTurk/v2_DepthDuration_HTML.html#142,142,1364,625,1364,768,8-29-2022,18-28-50,54,depth_duration_stimuli/001571_2014-06-20_17-21-32_260595134347_rgbf000089-resize_1/001571_2014-06-20_17-21-32_260595134347_rgbf000089-resize_1-target.png,125,1.86,60,3770,122,meters,jsons/VE125_randls_62_rotated.json,979439,1147728,44,Man
54,492147,DepthScenes,duration_manipulation_targetAtFixation,jsons/VE125_randls_62_rotated.json,http://54.235.29.9/FacialAge/BNav_EC2/DepthDuration/v2_depth_duration_MTurk/v2_DepthDuration_HTML.html#142,142,1364,625,1364,768,8-29-2022,18-28-50,55,depth_duration_stimuli/002272_2014-06-28_18-53-56_260595134347_rgbf000067-resize_2/002272_2014-06-28_18-53-56_260595134347_rgbf000067-resize_2-target.png,125,1.138,50,2569,125,meters,jsons/VE125_randls_62_rotated.json,979439,1147728,44,Man
55,492147,DepthScenes,duration_manipulation_targetAtFixation,jsons/VE125_randls_62_rotated.json,http://54.235.29.9/FacialAge/BNav_EC2/DepthDuration/v2_depth_duration_MTurk/v2_DepthDuration_HTML.html#142,142,1364,625,1364,768,8-29-2022,18-28-50,56,depth_duration_stimuli/000677_2014-06-08_23-10-32_260595134347_rgbf000158-resize_6/000677_2014-06-08_23-10-32_260595134347_rgbf000158-resize_6-target.png,125,3.556,50,3198,125,meters,jsons/VE125_randls_62_rotated.json,979439,1147728,44,Man
56,492147,DepthScenes,duration_manipulation_targetAtFixation,jsons/VE125_randls_62_rotated.json,http://54.235.29.9/FacialAge/BNav_EC2/DepthDuration/v2_depth_duration_MTurk/v2_DepthDuration_HTML.html#142,142,1364,625,1364,768,8-29-2022,18-28-50,57,depth_duration_stimuli/001029_2014-06-08_13-17-57_260595134347_rgbf000065-resize_1/001029_2014-06-08_13-17-57_260595134347_rgbf000065-resize_1-target.png,125,3.0835,60,3189,124,meters,jsons/VE125_randls_62_rotated.json,979439,1147728,44,Man
57,492147,DepthScenes,duration_manipulation_targetAtFixation,jsons/VE125_randls_62_rotated.json,http://54.235.29.9/FacialAge/BNav_EC2/DepthDuration/v2_depth_duration_MTurk/v2_DepthDuration_HTML.html#142,142,1364,625,1364,768,8-29-2022,18-28-50,58,depth_duration_stimuli/002199_2014-06-28_18-33-56_260595134347_rgbf000074-resize_0/002199_2014-06-28_18-33-56_260595134347_rgbf000074-resize_0-target.png,125,1.996,70,6151,126,meters,jsons/VE125_randls_62_rotated.json,979439,1147728,44,Man
58,492147,DepthScenes,duration_manipulation_targetAtFixation,jsons/VE125_randls_62_rotated.json,http://54.235.29.9/FacialAge/BNav_EC2/DepthDuration/v2_depth_duration_MTurk/v2_DepthDuration_HTML.html#142,142,1364,625,1364,768,8-29-2022,18-28-50,59,depth_duration_stimuli/001056_2014-06-08_18-46-44_260595134347_rgbf000068-resize_0/001056_2014-06-08_18-46-44_260595134347_rgbf000068-resize_0-target.png,125,2.6625,70,4277,122,meters,jsons/VE125_randls_62_rotated.json,979439,1147728,44,Man
59,492147,DepthScenes,duration_manipulation_targetAtFixation,jsons/VE125_randls_62_rotated.json,http://54.235.29.9/FacialAge/BNav_EC2/DepthDuration/v2_depth_duration_MTurk/v2_DepthDuration_HTML.html#142,142,1364,625,1364,768,8-29-2022,18-28-50,60,depth_duration_stimuli/002995_2014-06-15_12-31-26_094959634447_rgbf000150-resize_1/002995_2014-06-15_12-31-26_094959634447_rgbf000150-resize_1-target.png,125,3.8360000000000003,80,5449,124,meters,jsons/VE125_randls_62_rotated.json,979439,1147728,44,Man
60,492147,DepthScenes,duration_manipulation_targetAtFixation,jsons/VE125_randls_62_rotated.json,http://54.235.29.9/FacialAge/BNav_EC2/DepthDuration/v2_depth_duration_MTurk/v2_DepthDuration_HTML.html#142,142,1364,625,1364,768,8-29-2022,18-28-50,61,depth_duration_stimuli/002748_2014-06-22_19-07-22_094959634447_rgbf000078-resize_1/002748_2014-06-22_19-07-22_094959634447_rgbf000078-resize_1-target.png,125,4.6705,70,3973,126,meters,jsons/VE125_randls_62_rotated.json,979439,1147728,44,Man
61,492147,DepthScenes,duration_manipulation_targetAtFixation,jsons/VE125_randls_62_rotated.json,http://54.235.29.9/FacialAge/BNav_EC2/DepthDuration/v2_depth_duration_MTurk/v2_DepthDuration_HTML.html#142,142,1364,625,1364,768,8-29-2022,18-28-50,62,depth_duration_stimuli/002637_2014-06-24_14-51-13_094959634447_rgbf000066-resize_4/002637_2014-06-24_14-51-13_094959634447_rgbf000066-resize_4-target.png,125,1.9955,70,5257,125,meters,jsons/VE125_randls_62_rotated.json,979439,1147728,44,Man
62,492147,DepthScenes,duration_manipulation_targetAtFixation,jsons/VE125_randls_62_rotated.json,http://54.235.29.9/FacialAge/BNav_EC2/DepthDuration/v2_depth_duration_MTurk/v2_DepthDuration_HTML.html#142,142,1364,625,1364,768,8-29-2022,18-28-50,63,depth_duration_stimuli/003534_2014-05-22_15-06-10_094959634447_rgbf000102-resize_4/003534_2014-05-22_15-06-10_094959634447_rgbf000102-resize_4-target.png,125,1.426,80,2338,125,meters,jsons/VE125_randls_62_rotated.json,979439,1147728,44,Man
63,492147,DepthScenes,duration_manipulation_targetAtFixation,jsons/VE125_randls_62_rotated.json,http://54.235.29.9/FacialAge/BNav_EC2/DepthDuration/v2_depth_duration_MTurk/v2_DepthDuration_HTML.html#142,142,1364,625,1364,768,8-29-2022,18-28-50,64,depth_duration_stimuli/002414_2014-06-28_20-24-58_260595134347_rgbf000067-resize_4/002414_2014-06-28_20-24-58_260595134347_rgbf000067-resize_4-target.png,125,4.363,60,6402,124,meters,jsons/VE125_randls_62_rotated.json,979439,1147728,44,Man
64,492147,DepthScenes,duration_manipulation_targetAtFixation,jsons/VE125_randls_62_rotated.json,http://54.235.29.9/FacialAge/BNav_EC2/DepthDuration/v2_depth_duration_MTurk/v2_DepthDuration_HTML.html#142,142,1364,625,1364,768,8-29-2022,18-28-50,65,depth_duration_stimuli/000773_2014-06-08_22-24-54_260595134347_rgbf000093-resize_1/000773_2014-06-08_22-24-54_260595134347_rgbf000093-resize_1-target.png,125,4.973,50,3359,125,meters,jsons/VE125_randls_62_rotated.json,979439,1147728,44,Man
65,492147,DepthScenes,duration_manipulation_targetAtFixation,jsons/VE125_randls_62_rotated.json,http://54.235.29.9/FacialAge/BNav_EC2/DepthDuration/v2_depth_duration_MTurk/v2_DepthDuration_HTML.html#142,142,1364,625,1364,768,8-29-2022,18-28-50,66,depth_duration_stimuli/001540_2014-06-20_17-01-05_260595134347_rgbf000086-resize_2/001540_2014-06-20_17-01-05_260595134347_rgbf000086-resize-original.jpg,125,1.459,60,3787,124,meters,jsons/VE125_randls_62_rotated.json,979439,1147728,44,Man
66,492147,DepthScenes,duration_manipulation_targetAtFixation,jsons/VE125_randls_62_rotated.json,http://54.235.29.9/FacialAge/BNav_EC2/DepthDuration/v2_depth_duration_MTurk/v2_DepthDuration_HTML.html#142,142,1364,625,1364,768,8-29-2022,18-28-50,67,depth_duration_stimuli/000549_2014-06-08_22-10-24_260595134347_rgbf000247-resize_3/000549_2014-06-08_22-10-24_260595134347_rgbf000247-resize_3-target.png,125,1.841,70,4719,125,meters,jsons/VE125_randls_62_rotated.json,979439,1147728,44,Man
67,492147,DepthScenes,duration_manipulation_targetAtFixation,jsons/VE125_randls_62_rotated.json,http://54.235.29.9/FacialAge/BNav_EC2/DepthDuration/v2_depth_duration_MTurk/v2_DepthDuration_HTML.html#142,142,1364,625,1364,768,8-29-2022,18-28-50,68,depth_duration_stimuli/001055_2014-06-08_18-45-35_260595134347_rgbf000111-resize_4/001055_2014-06-08_18-45-35_260595134347_rgbf000111-resize_4-target.png,125,2.4290000000000003,70,2457,124,meters,jsons/VE125_randls_62_rotated.json,979439,1147728,44,Man
68,492147,DepthScenes,duration_manipulation_targetAtFixation,jsons/VE125_randls_62_rotated.json,http://54.235.29.9/FacialAge/BNav_EC2/DepthDuration/v2_depth_duration_MTurk/v2_DepthDuration_HTML.html#142,142,1364,625,1364,768,8-29-2022,18-28-50,69,depth_duration_stimuli/000927_2014-06-09_16-32-30_260595134347_rgbf000123-resize_3/000927_2014-06-09_16-32-30_260595134347_rgbf000123-resize_3-target.png,125,2.6785,70,3790,125,meters,jsons/VE125_randls_62_rotated.json,979439,1147728,44,Man
69,492147,DepthScenes,duration_manipulation_targetAtFixation,jsons/VE125_randls_62_rotated.json,http://54.235.29.9/FacialAge/BNav_EC2/DepthDuration/v2_depth_duration_MTurk/v2_DepthDuration_HTML.html#142,142,1364,625,1364,768,8-29-2022,18-28-50,70,depth_duration_stimuli/001110_2014-06-15_17-25-28_260595134347_rgbf000150-resize_1/001110_2014-06-15_17-25-28_260595134347_rgbf000150-resize_1-target.png,125,1.7115,80,3028,124,meters,jsons/VE125_randls_62_rotated.json,979439,1147728,44,Man
70,492147,DepthScenes,duration_manipulation_targetAtFixation,jsons/VE125_randls_62_rotated.json,http://54.235.29.9/FacialAge/BNav_EC2/DepthDuration/v2_depth_duration_MTurk/v2_DepthDuration_HTML.html#142,142,1364,625,1364,768,8-29-2022,18-28-50,71,depth_duration_stimuli/000483_2014-06-09_20-41-45_260595134347_rgbf000116-resize_4/000483_2014-06-09_20-41-45_260595134347_rgbf000116-resize_4-target.png,125,1.337,80,7279,125,meters,jsons/VE125_randls_62_rotated.json,979439,1147728,44,Man
71,492147,DepthScenes,duration_manipulation_targetAtFixation,jsons/VE125_randls_62_rotated.json,http://54.235.29.9/FacialAge/BNav_EC2/DepthDuration/v2_depth_duration_MTurk/v2_DepthDuration_HTML.html#142,142,1364,625,1364,768,8-29-2022,18-28-50,72,depth_duration_stimuli/000469_2014-06-09_19-42-10_260595134347_rgbf000081-resize_1/000469_2014-06-09_19-42-10_260595134347_rgbf000081-resize_1-target.png,125,1.652,70,6668,125,meters,jsons/VE125_randls_62_rotated.json,979439,1147728,44,Man
72,492147,DepthScenes,duration_manipulation_targetAtFixation,jsons/VE125_randls_62_rotated.json,http://54.235.29.9/FacialAge/BNav_EC2/DepthDuration/v2_depth_duration_MTurk/v2_DepthDuration_HTML.html#142,142,1364,625,1364,768,8-29-2022,18-28-50,73,depth_duration_stimuli/000749_2014-06-08_21-55-06_260595134347_rgbf000070-resize_2/000749_2014-06-08_21-55-06_260595134347_rgbf000070-resize_2-target.png,125,2.331,80,5698,123,meters,jsons/VE125_randls_62_rotated.json,979439,1147728,44,Man
73,492147,DepthScenes,duration_manipulation_targetAtFixation,jsons/VE125_randls_62_rotated.json,http://54.235.29.9/FacialAge/BNav_EC2/DepthDuration/v2_depth_duration_MTurk/v2_DepthDuration_HTML.html#142,142,1364,625,1364,768,8-29-2022,18-28-50,74,depth_duration_stimuli/002788_2014-06-22_19-36-03_094959634447_rgbf000088-resize_2/002788_2014-06-22_19-36-03_094959634447_rgbf000088-resize_2-target.png,125,1.6465,50,2970,124,meters,jsons/VE125_randls_62_rotated.json,979439,1147728,44,Man
74,492147,DepthScenes,duration_manipulation_targetAtFixation,jsons/VE125_randls_62_rotated.json,http://54.235.29.9/FacialAge/BNav_EC2/DepthDuration/v2_depth_duration_MTurk/v2_DepthDuration_HTML.html#142,142,1364,625,1364,768,8-29-2022,18-28-50,75,depth_duration_stimuli/001584_2014-06-20_11-07-43_260595134347_rgbf000002-resize_1/001584_2014-06-20_11-07-43_260595134347_rgbf000002-resize_1-target.png,125,3.53,60,5600,125,meters,jsons/VE125_randls_62_rotated.json,979439,1147728,44,Man
75,492147,DepthScenes,duration_manipulation_targetAtFixation,jsons/VE125_randls_62_rotated.json,http://54.235.29.9/FacialAge/BNav_EC2/DepthDuration/v2_depth_duration_MTurk/v2_DepthDuration_HTML.html#142,142,1364,625,1364,768,8-29-2022,18-28-50,76,depth_duration_stimuli/003621_2014-05-23_18-06-08_094959634447_rgbf000101-resize_1/003621_2014-05-23_18-06-08_094959634447_rgbf000101-resize_1-target.png,125,3.9835,70,7378,124,meters,jsons/VE125_randls_62_rotated.json,979439,1147728,44,Man
76,492147,DepthScenes,duration_manipulation_targetAtFixation,jsons/VE125_randls_62_rotated.json,http://54.235.29.9/FacialAge/BNav_EC2/DepthDuration/v2_depth_duration_MTurk/v2_DepthDuration_HTML.html#142,142,1364,625,1364,768,8-29-2022,18-28-50,77,depth_duration_stimuli/000109_2014-05-14_23-41-52_260595134347_rgbf000035-resize_9/000109_2014-05-14_23-41-52_260595134347_rgbf000035-resize_9-target.png,125,1.3545,80,9239,125,meters,jsons/VE125_randls_62_rotated.json,979439,1147728,44,Man
77,492147,DepthScenes,duration_manipulation_targetAtFixation,jsons/VE125_randls_62_rotated.json,http://54.235.29.9/FacialAge/BNav_EC2/DepthDuration/v2_depth_duration_MTurk/v2_DepthDuration_HTML.html#142,142,1364,625,1364,768,8-29-2022,18-28-50,78,depth_duration_stimuli/000470_2014-06-09_19-42-40_260595134347_rgbf000094-resize_1/000470_2014-06-09_19-42-40_260595134347_rgbf000094-resize_1-target.png,125,1.831,80,7898,123,meters,jsons/VE125_randls_62_rotated.json,979439,1147728,44,Man
78,492147,DepthScenes,duration_manipulation_targetAtFixation,jsons/VE125_randls_62_rotated.json,http://54.235.29.9/FacialAge/BNav_EC2/DepthDuration/v2_depth_duration_MTurk/v2_DepthDuration_HTML.html#142,142,1364,625,1364,768,8-29-2022,18-28-50,79,depth_duration_stimuli/003587_2014-05-23_16-48-02_094959634447_rgbf002384-resize_2/003587_2014-05-23_16-48-02_094959634447_rgbf002384-resize_2-target.png,125,1.357,60,9988,125,meters,jsons/VE125_randls_62_rotated.json,979439,1147728,44,Man
79,492147,DepthScenes,duration_manipulation_targetAtFixation,jsons/VE125_randls_62_rotated.json,http://54.235.29.9/FacialAge/BNav_EC2/DepthDuration/v2_depth_duration_MTurk/v2_DepthDuration_HTML.html#142,142,1364,625,1364,768,8-29-2022,18-28-50,80,depth_duration_stimuli/001167_2014-06-17_15-38-07_260595134347_rgbf000108-resize_0/001167_2014-06-17_15-38-07_260595134347_rgbf000108-resize_0-target.png,125,1.8505,70,3820,126,meters,jsons/VE125_randls_62_rotated.json,979439,1147728,44,Man
80,492147,DepthScenes,duration_manipulation_targetAtFixation,jsons/VE125_randls_62_rotated.json,http://54.235.29.9/FacialAge/BNav_EC2/DepthDuration/v2_depth_duration_MTurk/v2_DepthDuration_HTML.html#142,142,1364,625,1364,768,8-29-2022,18-28-50,81,depth_duration_stimuli/002639_2014-06-24_14-51-37_094959634447_rgbf000074-resize_4/002639_2014-06-24_14-51-37_094959634447_rgbf000074-resize_4-target.png,125,4.0375,70,5398,124,meters,jsons/VE125_randls_62_rotated.json,979439,1147728,44,Man
81,492147,DepthScenes,duration_manipulation_targetAtFixation,jsons/VE125_randls_62_rotated.json,http://54.235.29.9/FacialAge/BNav_EC2/DepthDuration/v2_depth_duration_MTurk/v2_DepthDuration_HTML.html#142,142,1364,625,1364,768,8-29-2022,18-28-50,82,depth_duration_stimuli/003292_2014-05-14_21-53-49_094959634447_rgbf000100-resize_2/003292_2014-05-14_21-53-49_094959634447_rgbf000100-resize_2-target.png,125,3.4815,60,4769,126,meters,jsons/VE125_randls_62_rotated.json,979439,1147728,44,Man
82,492147,DepthScenes,duration_manipulation_targetAtFixation,jsons/VE125_randls_62_rotated.json,http://54.235.29.9/FacialAge/BNav_EC2/DepthDuration/v2_depth_duration_MTurk/v2_DepthDuration_HTML.html#142,142,1364,625,1364,768,8-29-2022,18-28-50,83,depth_duration_stimuli/003079_2014-06-15_15-18-20_094959634447_rgbf000152-resize_8/003079_2014-06-15_15-18-20_094959634447_rgbf000152-resize_8-target.png,125,2.8775,70,6348,126,meters,jsons/VE125_randls_62_rotated.json,979439,1147728,44,Man
83,492147,DepthScenes,duration_manipulation_targetAtFixation,jsons/VE125_randls_62_rotated.json,http://54.235.29.9/FacialAge/BNav_EC2/DepthDuration/v2_depth_duration_MTurk/v2_DepthDuration_HTML.html#142,142,1364,625,1364,768,8-29-2022,18-28-50,84,depth_duration_stimuli/000506_2014-06-08_23-21-00_260595134347_rgbf000070-resize_7/000506_2014-06-08_23-21-00_260595134347_rgbf000070-resize_7-target.png,125,4.0585,80,4282,124,meters,jsons/VE125_randls_62_rotated.json,979439,1147728,44,Man
84,492147,DepthScenes,duration_manipulation_targetAtFixation,jsons/VE125_randls_62_rotated.json,http://54.235.29.9/FacialAge/BNav_EC2/DepthDuration/v2_depth_duration_MTurk/v2_DepthDuration_HTML.html#142,142,1364,625,1364,768,8-29-2022,18-28-50,85,depth_duration_stimuli/001392_2014-06-19_16-07-59_260595134347_rgbf000046-resize_1/001392_2014-06-19_16-07-59_260595134347_rgbf000046-resize_1-target.png,125,4.135,80,7750,124,meters,jsons/VE125_randls_62_rotated.json,979439,1147728,44,Man
85,492147,DepthScenes,duration_manipulation_targetAtFixation,jsons/VE125_randls_62_rotated.json,http://54.235.29.9/FacialAge/BNav_EC2/DepthDuration/v2_depth_duration_MTurk/v2_DepthDuration_HTML.html#142,142,1364,625,1364,768,8-29-2022,18-28-50,86,depth_duration_stimuli/001570_2014-06-20_17-21-09_260595134347_rgbf000135-resize_4/001570_2014-06-20_17-21-09_260595134347_rgbf000135-resize_4-target.png,125,4.467,50,6607,126,meters,jsons/VE125_randls_62_rotated.json,979439,1147728,44,Man
86,492147,DepthScenes,duration_manipulation_targetAtFixation,jsons/VE125_randls_62_rotated.json,http://54.235.29.9/FacialAge/BNav_EC2/DepthDuration/v2_depth_duration_MTurk/v2_DepthDuration_HTML.html#142,142,1364,625,1364,768,8-29-2022,18-28-50,87,depth_duration_stimuli/002136_2014-06-25_21-18-03_260595134347_rgbf000109-resize_3/002136_2014-06-25_21-18-03_260595134347_rgbf000109-resize_3-target.png,125,1.9569999999999999,60,8312,125,meters,jsons/VE125_randls_62_rotated.json,979439,1147728,44,Man
87,492147,DepthScenes,duration_manipulation_targetAtFixation,jsons/VE125_randls_62_rotated.json,http://54.235.29.9/FacialAge/BNav_EC2/DepthDuration/v2_depth_duration_MTurk/v2_DepthDuration_HTML.html#142,142,1364,625,1364,768,8-29-2022,18-28-50,88,depth_duration_stimuli/002964_2014-06-08_17-46-11_094959634447_rgbf000091-resize_4/002964_2014-06-08_17-46-11_094959634447_rgbf000091-resize_4-target.png,125,1.6909999999999998,70,9040,125,meters,jsons/VE125_randls_62_rotated.json,979439,1147728,44,Man
88,492147,DepthScenes,duration_manipulation_targetAtFixation,jsons/VE125_randls_62_rotated.json,http://54.235.29.9/FacialAge/BNav_EC2/DepthDuration/v2_depth_duration_MTurk/v2_DepthDuration_HTML.html#142,142,1364,625,1364,768,8-29-2022,18-28-50,89,depth_duration_stimuli/000191_2014-05-12_17-07-38_260595134347_rgbf000199-resize_0/000191_2014-05-12_17-07-38_260595134347_rgbf000199-resize_0-target.png,125,3.7995,60,5935,124,meters,jsons/VE125_randls_62_rotated.json,979439,1147728,44,Man
89,492147,DepthScenes,duration_manipulation_targetAtFixation,jsons/VE125_randls_62_rotated.json,http://54.235.29.9/FacialAge/BNav_EC2/DepthDuration/v2_depth_duration_MTurk/v2_DepthDuration_HTML.html#142,142,1364,625,1364,768,8-29-2022,18-28-50,90,depth_duration_stimuli/000493_2014-06-09_21-01-18_260595134347_rgbf000196-resize_3/000493_2014-06-09_21-01-18_260595134347_rgbf000196-resize_3-target.png,125,3.44,50,3511,125,meters,jsons/VE125_randls_62_rotated.json,979439,1147728,44,Man
90,492147,DepthScenes,duration_manipulation_targetAtFixation,jsons/VE125_randls_62_rotated.json,http://54.235.29.9/FacialAge/BNav_EC2/DepthDuration/v2_depth_duration_MTurk/v2_DepthDuration_HTML.html#142,142,1364,625,1364,768,8-29-2022,18-28-50,91,depth_duration_stimuli/000943_2014-06-09_19-31-07_260595134347_rgbf000128-resize_1/000943_2014-06-09_19-31-07_260595134347_rgbf000128-resize_1-target.png,125,1.9765,50,5039,125,meters,jsons/VE125_randls_62_rotated.json,979439,1147728,44,Man
91,492147,DepthScenes,duration_manipulation_targetAtFixation,jsons/VE125_randls_62_rotated.json,http://54.235.29.9/FacialAge/BNav_EC2/DepthDuration/v2_depth_duration_MTurk/v2_DepthDuration_HTML.html#142,142,1364,625,1364,768,8-29-2022,18-28-50,92,depth_duration_stimuli/003070_2014-06-15_14-58-27_094959634447_rgbf000150-resize_3/003070_2014-06-15_14-58-27_094959634447_rgbf000150-resize_3-target.png,125,2.9415,60,7780,125,meters,jsons/VE125_randls_62_rotated.json,979439,1147728,44,Man
92,492147,DepthScenes,duration_manipulation_targetAtFixation,jsons/VE125_randls_62_rotated.json,http://54.235.29.9/FacialAge/BNav_EC2/DepthDuration/v2_depth_duration_MTurk/v2_DepthDuration_HTML.html#142,142,1364,625,1364,768,8-29-2022,18-28-50,93,depth_duration_stimuli/001132_2014-06-17_14-48-54_260595134347_rgbf000100-resize_2/001132_2014-06-17_14-48-54_260595134347_rgbf000100-resize_2-target.png,125,3.753,60,7469,125,meters,jsons/VE125_randls_62_rotated.json,979439,1147728,44,Man
93,492147,DepthScenes,duration_manipulation_targetAtFixation,jsons/VE125_randls_62_rotated.json,http://54.235.29.9/FacialAge/BNav_EC2/DepthDuration/v2_depth_duration_MTurk/v2_DepthDuration_HTML.html#142,142,1364,625,1364,768,8-29-2022,18-28-50,94,depth_duration_stimuli/001133_2014-06-17_14-49-16_260595134347_rgbf000100-resize_0/001133_2014-06-17_14-49-16_260595134347_rgbf000100-resize_0-target.png,125,4.2115,70,3791,125,meters,jsons/VE125_randls_62_rotated.json,979439,1147728,44,Man
94,492147,DepthScenes,duration_manipulation_targetAtFixation,jsons/VE125_randls_62_rotated.json,http://54.235.29.9/FacialAge/BNav_EC2/DepthDuration/v2_depth_duration_MTurk/v2_DepthDuration_HTML.html#142,142,1364,625,1364,768,8-29-2022,18-28-50,95,depth_duration_stimuli/002323_2014-06-28_20-01-54_260595134347_rgbf000051-resize_4/002323_2014-06-28_20-01-54_260595134347_rgbf000051-resize_4-target.png,125,3.7310000000000003,70,5148,125,meters,jsons/VE125_randls_62_rotated.json,979439,1147728,44,Man
95,492147,DepthScenes,duration_manipulation_targetAtFixation,jsons/VE125_randls_62_rotated.json,http://54.235.29.9/FacialAge/BNav_EC2/DepthDuration/v2_depth_duration_MTurk/v2_DepthDuration_HTML.html#142,142,1364,625,1364,768,8-29-2022,18-28-50,96,depth_duration_stimuli/000917_2014-06-09_22-45-29_260595134347_rgbf000149-resize_3/000917_2014-06-09_22-45-29_260595134347_rgbf000149-resize_3-target.png,125,4.1865,80,4511,125,meters,jsons/VE125_randls_62_rotated.json,979439,1147728,44,Man
96,492147,DepthScenes,duration_manipulation_targetAtFixation,jsons/VE125_randls_62_rotated.json,http://54.235.29.9/FacialAge/BNav_EC2/DepthDuration/v2_depth_duration_MTurk/v2_DepthDuration_HTML.html#142,142,1364,625,1364,768,8-29-2022,18-28-50,97,depth_duration_stimuli/002209_2014-06-28_18-36-10_260595134347_rgbf000051-resize_1/002209_2014-06-28_18-36-10_260595134347_rgbf000051-resize_1-target.png,125,2.057,80,4888,124,meters,jsons/VE125_randls_62_rotated.json,979439,1147728,44,Man
97,492147,DepthScenes,duration_manipulation_targetAtFixation,jsons/VE125_randls_62_rotated.json,http://54.235.29.9/FacialAge/BNav_EC2/DepthDuration/v2_depth_duration_MTurk/v2_DepthDuration_HTML.html#142,142,1364,625,1364,768,8-29-2022,18-28-50,98,depth_duration_stimuli/002763_2014-06-22_19-13-10_094959634447_rgbf000075-resize_4/002763_2014-06-22_19-13-10_094959634447_rgbf000075-resize_4-target.png,125,1.68375,80,4940,125,meters,jsons/VE125_randls_62_rotated.json,979439,1147728,44,Man
98,492147,DepthScenes,duration_manipulation_targetAtFixation,jsons/VE125_randls_62_rotated.json,http://54.235.29.9/FacialAge/BNav_EC2/DepthDuration/v2_depth_duration_MTurk/v2_DepthDuration_HTML.html#142,142,1364,625,1364,768,8-29-2022,18-28-50,99,depth_duration_stimuli/001222_2014-06-17_16-24-06_260595134347_rgbf000073-resize_0/001222_2014-06-17_16-24-06_260595134347_rgbf000073-resize-original.jpg,125,1.4385,80,5630,125,meters,jsons/VE125_randls_62_rotated.json,979439,1147728,44,Man
99,492147,DepthScenes,duration_manipulation_targetAtFixation,jsons/VE125_randls_62_rotated.json,http://54.235.29.9/FacialAge/BNav_EC2/DepthDuration/v2_depth_duration_MTurk/v2_DepthDuration_HTML.html#142,142,1364,625,1364,768,8-29-2022,18-28-50,100,depth_duration_stimuli/000137_2014-05-20_17-04-49_260595134347_rgbf000120-resize_1/000137_2014-05-20_17-04-49_260595134347_rgbf000120-resize_1-target.png,125,3.786,70,4489,126,meters,jsons/VE125_randls_62_rotated.json,979439,1147728,44,Man
100,492147,DepthScenes,duration_manipulation_targetAtFixation,jsons/VE125_randls_62_rotated.json,http://54.235.29.9/FacialAge/BNav_EC2/DepthDuration/v2_depth_duration_MTurk/v2_DepthDuration_HTML.html#142,142,1364,625,1364,768,8-29-2022,18-28-50,101,depth_duration_stimuli/000736_2014-06-08_18-24-15_260595134347_rgbf000206-resize_3/000736_2014-06-08_18-24-15_260595134347_rgbf000206-resize_3-target.png,125,3.515,60,2789,124,meters,jsons/VE125_randls_62_rotated.json,979439,1147728,44,Man
101,492147,DepthScenes,duration_manipulation_targetAtFixation,jsons/VE125_randls_62_rotated.json,http://54.235.29.9/FacialAge/BNav_EC2/DepthDuration/v2_depth_duration_MTurk/v2_DepthDuration_HTML.html#142,142,1364,625,1364,768,8-29-2022,18-28-50,102,depth_duration_stimuli/002678_2014-06-13_16-15-32_094959634447_rgbf000151-resize_6/002678_2014-06-13_16-15-32_094959634447_rgbf000151-resize_6-target.png,125,2.1830000000000003,70,4409,125,meters,jsons/VE125_randls_62_rotated.json,979439,1147728,44,Man
102,492147,DepthScenes,duration_manipulation_targetAtFixation,jsons/VE125_randls_62_rotated.json,http://54.235.29.9/FacialAge/BNav_EC2/DepthDuration/v2_depth_duration_MTurk/v2_DepthDuration_HTML.html#142,142,1364,625,1364,768,8-29-2022,18-28-50,103,depth_duration_stimuli/000368_2014-06-09_15-53-01_260595134347_rgbf000155-resize_2/000368_2014-06-09_15-53-01_260595134347_rgbf000155-resize_2-target.png,125,2.4859999999999998,60,2980,126,meters,jsons/VE125_randls_62_rotated.json,979439,1147728,44,Man
103,492147,DepthScenes,duration_manipulation_targetAtFixation,jsons/VE125_randls_62_rotated.json,http://54.235.29.9/FacialAge/BNav_EC2/DepthDuration/v2_depth_duration_MTurk/v2_DepthDuration_HTML.html#142,142,1364,625,1364,768,8-29-2022,18-28-50,104,depth_duration_stimuli/003010_2014-06-15_12-54-35_094959634447_rgbf000112-resize_0/003010_2014-06-15_12-54-35_094959634447_rgbf000112-resize_0-target.png,125,3.1185,70,3830,124,meters,jsons/VE125_randls_62_rotated.json,979439,1147728,44,Man
104,492147,DepthScenes,duration_manipulation_targetAtFixation,jsons/VE125_randls_62_rotated.json,http://54.235.29.9/FacialAge/BNav_EC2/DepthDuration/v2_depth_duration_MTurk/v2_DepthDuration_HTML.html#142,142,1364,625,1364,768,8-29-2022,18-28-50,105,depth_duration_stimuli/001810_2014-06-26_20-51-35_260595134347_rgbf000040-resize_3/001810_2014-06-26_20-51-35_260595134347_rgbf000040-resize_3-target.png,125,2.2525,50,3020,126,meters,jsons/VE125_randls_62_rotated.json,979439,1147728,44,Man
105,492147,DepthScenes,duration_manipulation_targetAtFixation,jsons/VE125_randls_62_rotated.json,http://54.235.29.9/FacialAge/BNav_EC2/DepthDuration/v2_depth_duration_MTurk/v2_DepthDuration_HTML.html#142,142,1364,625,1364,768,8-29-2022,18-28-50,106,depth_duration_stimuli/000780_2014-06-08_22-28-29_260595134347_rgbf000126-resize_1/000780_2014-06-08_22-28-29_260595134347_rgbf000126-resize_1-target.png,125,3.3825,60,4689,124,meters,jsons/VE125_randls_62_rotated.json,979439,1147728,44,Man
106,492147,DepthScenes,duration_manipulation_targetAtFixation,jsons/VE125_randls_62_rotated.json,http://54.235.29.9/FacialAge/BNav_EC2/DepthDuration/v2_depth_duration_MTurk/v2_DepthDuration_HTML.html#142,142,1364,625,1364,768,8-29-2022,18-28-50,107,depth_duration_stimuli/002445_2014-06-28_20-32-16_260595134347_rgbf000029-resize_4/002445_2014-06-28_20-32-16_260595134347_rgbf000029-resize_4-target.png,125,2.5315,70,3011,125,meters,jsons/VE125_randls_62_rotated.json,979439,1147728,44,Man
107,492147,DepthScenes,duration_manipulation_targetAtFixation,jsons/VE125_randls_62_rotated.json,http://54.235.29.9/FacialAge/BNav_EC2/DepthDuration/v2_depth_duration_MTurk/v2_DepthDuration_HTML.html#142,142,1364,625,1364,768,8-29-2022,18-28-50,108,depth_duration_stimuli/003338_2014-05-20_11-01-23_094959634447_rgbf000051-resize_6/003338_2014-05-20_11-01-23_094959634447_rgbf000051-resize_6-target.png,125,1.693,80,4958,125,meters,jsons/VE125_randls_62_rotated.json,979439,1147728,44,Man
108,492147,DepthScenes,duration_manipulation_targetAtFixation,jsons/VE125_randls_62_rotated.json,http://54.235.29.9/FacialAge/BNav_EC2/DepthDuration/v2_depth_duration_MTurk/v2_DepthDuration_HTML.html#142,142,1364,625,1364,768,8-29-2022,18-28-50,109,depth_duration_stimuli/002509_2014-06-24_13-19-22_094959634447_rgbf000077-resize_0/002509_2014-06-24_13-19-22_094959634447_rgbf000077-resize_0-target.png,125,1.3065,60,2539,123,meters,jsons/VE125_randls_62_rotated.json,979439,1147728,44,Man
109,492147,DepthScenes,duration_manipulation_targetAtFixation,jsons/VE125_randls_62_rotated.json,http://54.235.29.9/FacialAge/BNav_EC2/DepthDuration/v2_depth_duration_MTurk/v2_DepthDuration_HTML.html#142,142,1364,625,1364,768,8-29-2022,18-28-50,110,depth_duration_stimuli/001136_2014-06-17_15-19-41_260595134347_rgbf000076-resize_3/001136_2014-06-17_15-19-41_260595134347_rgbf000076-resize_3-target.png,125,1.8655,70,4079,125,meters,jsons/VE125_randls_62_rotated.json,979439,1147728,44,Man
110,492147,DepthScenes,duration_manipulation_targetAtFixation,jsons/VE125_randls_62_rotated.json,http://54.235.29.9/FacialAge/BNav_EC2/DepthDuration/v2_depth_duration_MTurk/v2_DepthDuration_HTML.html#142,142,1364,625,1364,768,8-29-2022,18-28-50,111,depth_duration_stimuli/001164_2014-06-17_15-35-46_260595134347_rgbf000085-resize_3/001164_2014-06-17_15-35-46_260595134347_rgbf000085-resize_3-target.png,125,2.354,60,2843,125,meters,jsons/VE125_randls_62_rotated.json,979439,1147728,44,Man
111,492147,DepthScenes,duration_manipulation_targetAtFixation,jsons/VE125_randls_62_rotated.json,http://54.235.29.9/FacialAge/BNav_EC2/DepthDuration/v2_depth_duration_MTurk/v2_DepthDuration_HTML.html#142,142,1364,625,1364,768,8-29-2022,18-28-50,112,depth_duration_stimuli/000502_2014-06-08_23-02-32_260595134347_rgbf000063-resize_4/000502_2014-06-08_23-02-32_260595134347_rgbf000063-resize_4-target.png,125,2.431,70,4188,126,meters,jsons/VE125_randls_62_rotated.json,979439,1147728,44,Man
112,492147,DepthScenes,duration_manipulation_targetAtFixation,jsons/VE125_randls_62_rotated.json,http://54.235.29.9/FacialAge/BNav_EC2/DepthDuration/v2_depth_duration_MTurk/v2_DepthDuration_HTML.html#142,142,1364,625,1364,768,8-29-2022,18-28-50,113,depth_duration_stimuli/001199_2014-06-17_16-03-48_260595134347_rgbf000077-resize_0/001199_2014-06-17_16-03-48_260595134347_rgbf000077-resize_0-target.png,125,3.4375,70,2809,124,meters,jsons/VE125_randls_62_rotated.json,979439,1147728,44,Man
113,492147,DepthScenes,duration_manipulation_targetAtFixation,jsons/VE125_randls_62_rotated.json,http://54.235.29.9/FacialAge/BNav_EC2/DepthDuration/v2_depth_duration_MTurk/v2_DepthDuration_HTML.html#142,142,1364,625,1364,768,8-29-2022,18-28-50,114,depth_duration_stimuli/002758_2014-06-22_19-11-20_094959634447_rgbf000128-resize_1/002758_2014-06-22_19-11-20_094959634447_rgbf000128-resize_1-target.png,125,2.555,80,4039,125,meters,jsons/VE125_randls_62_rotated.json,979439,1147728,44,Man
114,492147,DepthScenes,duration_manipulation_targetAtFixation,jsons/VE125_randls_62_rotated.json,http://54.235.29.9/FacialAge/BNav_EC2/DepthDuration/v2_depth_duration_MTurk/v2_DepthDuration_HTML.html#142,142,1364,625,1364,768,8-29-2022,18-28-50,115,depth_duration_stimuli/002630_2014-06-24_14-47-50_094959634447_rgbf000055-resize_1/002630_2014-06-24_14-47-50_094959634447_rgbf000055-resize_1-target.png,125,3.0095,80,2468,125,meters,jsons/VE125_randls_62_rotated.json,979439,1147728,44,Man
115,492147,DepthScenes,duration_manipulation_targetAtFixation,jsons/VE125_randls_62_rotated.json,http://54.235.29.9/FacialAge/BNav_EC2/DepthDuration/v2_depth_duration_MTurk/v2_DepthDuration_HTML.html#142,142,1364,625,1364,768,8-29-2022,18-28-50,116,depth_duration_stimuli/002344_2014-06-28_20-06-29_260595134347_rgbf000030-resize_1/002344_2014-06-28_20-06-29_260595134347_rgbf000030-resize_1-target.png,125,1.5795,70,4270,125,meters,jsons/VE125_randls_62_rotated.json,979439,1147728,44,Man
116,492147,DepthScenes,duration_manipulation_targetAtFixation,jsons/VE125_randls_62_rotated.json,http://54.235.29.9/FacialAge/BNav_EC2/DepthDuration/v2_depth_duration_MTurk/v2_DepthDuration_HTML.html#142,142,1364,625,1364,768,8-29-2022,18-28-50,117,depth_duration_stimuli/002725_2014-06-22_11-47-51_094959634447_rgbf000070-resize_1/002725_2014-06-22_11-47-51_094959634447_rgbf000070-resize_1-target.png,125,2.195,90,2939,124,meters,jsons/VE125_randls_62_rotated.json,979439,1147728,44,Man
117,492147,DepthScenes,duration_manipulation_targetAtFixation,jsons/VE125_randls_62_rotated.json,http://54.235.29.9/FacialAge/BNav_EC2/DepthDuration/v2_depth_duration_MTurk/v2_DepthDuration_HTML.html#142,142,1364,625,1364,768,8-29-2022,18-28-50,118,depth_duration_stimuli/001447_2014-06-19_17-00-32_260595134347_rgbf000082-resize_5/001447_2014-06-19_17-00-32_260595134347_rgbf000082-resize_5-target.png,125,4.13775,70,3337,125,meters,jsons/VE125_randls_62_rotated.json,979439,1147728,44,Man
118,492147,DepthScenes,duration_manipulation_targetAtFixation,jsons/VE125_randls_62_rotated.json,http://54.235.29.9/FacialAge/BNav_EC2/DepthDuration/v2_depth_duration_MTurk/v2_DepthDuration_HTML.html#142,142,1364,625,1364,768,8-29-2022,18-28-50,119,depth_duration_stimuli/000447_2014-06-08_16-15-46_260595134347_rgbf000130-resize_1/000447_2014-06-08_16-15-46_260595134347_rgbf000130-resize_1-target.png,125,4.479,60,2629,123,meters,jsons/VE125_randls_62_rotated.json,979439,1147728,44,Man
119,492147,DepthScenes,duration_manipulation_targetAtFixation,jsons/VE125_randls_62_rotated.json,http://54.235.29.9/FacialAge/BNav_EC2/DepthDuration/v2_depth_duration_MTurk/v2_DepthDuration_HTML.html#142,142,1364,625,1364,768,8-29-2022,18-28-50,120,depth_duration_stimuli/000787_2014-06-08_22-33-53_260595134347_rgbf000175-resize_1/000787_2014-06-08_22-33-53_260595134347_rgbf000175-resize-original.jpg,125,4.784,70,3240,125,meters,jsons/VE125_randls_62_rotated.json,979439,1147728,44,Man
120,492147,DepthScenes,duration_manipulation_targetAtFixation,jsons/VE125_randls_62_rotated.json,http://54.235.29.9/FacialAge/BNav_EC2/DepthDuration/v2_depth_duration_MTurk/v2_DepthDuration_HTML.html#142,142,1364,625,1364,768,8-29-2022,18-28-50,121,depth_duration_stimuli/001052_2014-06-08_18-24-54_260595134347_rgbf000130-resize_1/001052_2014-06-08_18-24-54_260595134347_rgbf000130-resize_1-target.png,125,4.1045,70,3198,124,meters,jsons/VE125_randls_62_rotated.json,979439,1147728,44,Man
121,492147,DepthScenes,duration_manipulation_targetAtFixation,jsons/VE125_randls_62_rotated.json,http://54.235.29.9/FacialAge/BNav_EC2/DepthDuration/v2_depth_duration_MTurk/v2_DepthDuration_HTML.html#142,142,1364,625,1364,768,8-29-2022,18-28-50,122,depth_duration_stimuli/002988_2014-06-15_12-24-20_094959634447_rgbf000150-resize_1/002988_2014-06-15_12-24-20_094959634447_rgbf000150-resize_1-target.png,125,4.7669999999999995,60,2510,124,meters,jsons/VE125_randls_62_rotated.json,979439,1147728,44,Man
122,492147,DepthScenes,duration_manipulation_targetAtFixation,jsons/VE125_randls_62_rotated.json,http://54.235.29.9/FacialAge/BNav_EC2/DepthDuration/v2_depth_duration_MTurk/v2_DepthDuration_HTML.html#142,142,1364,625,1364,768,8-29-2022,18-28-50,123,depth_duration_stimuli/000734_2014-06-08_17-39-11_260595134347_rgbf000128-resize_2/000734_2014-06-08_17-39-11_260595134347_rgbf000128-resize_2-target.png,125,4.098,70,2857,125,meters,jsons/VE125_randls_62_rotated.json,979439,1147728,44,Man
123,492147,DepthScenes,duration_manipulation_targetAtFixation,jsons/VE125_randls_62_rotated.json,http://54.235.29.9/FacialAge/BNav_EC2/DepthDuration/v2_depth_duration_MTurk/v2_DepthDuration_HTML.html#142,142,1364,625,1364,768,8-29-2022,18-28-50,124,depth_duration_stimuli/000739_2014-06-08_18-45-58_260595134347_rgbf000068-resize_1/000739_2014-06-08_18-45-58_260595134347_rgbf000068-resize_1-target.png,125,3.534,80,2671,126,meters,jsons/VE125_randls_62_rotated.json,979439,1147728,44,Man
124,492147,DepthScenes,duration_manipulation_targetAtFixation,jsons/VE125_randls_62_rotated.json,http://54.235.29.9/FacialAge/BNav_EC2/DepthDuration/v2_depth_duration_MTurk/v2_DepthDuration_HTML.html#142,142,1364,625,1364,768,8-29-2022,18-28-50,125,depth_duration_stimuli/003048_2014-06-15_13-49-43_094959634447_rgbf000150-resize_1/003048_2014-06-15_13-49-43_094959634447_rgbf000150-resize_1-target.png,125,4.0035,80,12689,124,meters,jsons/VE125_randls_62_rotated.json,979439,1147728,44,Man
125,492147,DepthScenes,duration_manipulation_targetAtFixation,jsons/VE125_randls_62_rotated.json,http://54.235.29.9/FacialAge/BNav_EC2/DepthDuration/v2_depth_duration_MTurk/v2_DepthDuration_HTML.html#142,142,1364,625,1364,768,8-29-2022,18-28-50,126,depth_duration_stimuli/002043_2014-06-24_20-29-38_260595134347_rgbf000039-resize_4/002043_2014-06-24_20-29-38_260595134347_rgbf000039-resize_4-target.png,125,2.8435,80,10999,126,meters,jsons/VE125_randls_62_rotated.json,979439,1147728,44,Man
126,492147,DepthScenes,duration_manipulation_targetAtFixation,jsons/VE125_randls_62_rotated.json,http://54.235.29.9/FacialAge/BNav_EC2/DepthDuration/v2_depth_duration_MTurk/v2_DepthDuration_HTML.html#142,142,1364,625,1364,768,8-29-2022,18-28-50,127,depth_duration_stimuli/001094_2014-06-15_17-36-00_260595134347_rgbf000205-resize_0/001094_2014-06-15_17-36-00_260595134347_rgbf000205-resize_0-target.png,125,4.2175,70,4181,123,meters,jsons/VE125_randls_62_rotated.json,979439,1147728,44,Man
127,492147,DepthScenes,duration_manipulation_targetAtFixation,jsons/VE125_randls_62_rotated.json,http://54.235.29.9/FacialAge/BNav_EC2/DepthDuration/v2_depth_duration_MTurk/v2_DepthDuration_HTML.html#142,142,1364,625,1364,768,8-29-2022,18-28-50,128,depth_duration_stimuli/000692_2014-06-08_13-09-42_260595134347_rgbf000199-resize_2/000692_2014-06-08_13-09-42_260595134347_rgbf000199-resize_2-target.png,125,3.661,80,2767,125,meters,jsons/VE125_randls_62_rotated.json,979439,1147728,44,Man
128,492147,DepthScenes,duration_manipulation_targetAtFixation,jsons/VE125_randls_62_rotated.json,http://54.235.29.9/FacialAge/BNav_EC2/DepthDuration/v2_depth_duration_MTurk/v2_DepthDuration_HTML.html#142,142,1364,625,1364,768,8-29-2022,18-28-50,129,depth_duration_stimuli/001100_2014-06-15_17-46-26_260595134347_rgbf000225-resize_2/001100_2014-06-15_17-46-26_260595134347_rgbf000225-resize_2-target.png,125,2.24,60,3662,125,meters,jsons/VE125_randls_62_rotated.json,979439,1147728,44,Man
129,492147,DepthScenes,duration_manipulation_targetAtFixation,jsons/VE125_randls_62_rotated.json,http://54.235.29.9/FacialAge/BNav_EC2/DepthDuration/v2_depth_duration_MTurk/v2_DepthDuration_HTML.html#142,142,1364,625,1364,768,8-29-2022,18-28-50,130,depth_duration_stimuli/002784_2014-06-22_19-26-30_094959634447_rgbf000083-resize_3/002784_2014-06-22_19-26-30_094959634447_rgbf000083-resize_3-target.png,125,1.8046666666667,70,2187,124,meters,jsons/VE125_randls_62_rotated.json,979439,1147728,44,Man
130,492147,DepthScenes,duration_manipulation_targetAtFixation,jsons/VE125_randls_62_rotated.json,http://54.235.29.9/FacialAge/BNav_EC2/DepthDuration/v2_depth_duration_MTurk/v2_DepthDuration_HTML.html#142,142,1364,625,1364,768,8-29-2022,18-28-50,131,depth_duration_stimuli/002467_2014-06-28_20-38-07_260595134347_rgbf000026-resize_2/002467_2014-06-28_20-38-07_260595134347_rgbf000026-resize_2-target.png,125,4.742,60,3230,125,meters,jsons/VE125_randls_62_rotated.json,979439,1147728,44,Man
131,492147,DepthScenes,duration_manipulation_targetAtFixation,jsons/VE125_randls_62_rotated.json,http://54.235.29.9/FacialAge/BNav_EC2/DepthDuration/v2_depth_duration_MTurk/v2_DepthDuration_HTML.html#142,142,1364,625,1364,768,8-29-2022,18-28-50,132,depth_duration_stimuli/002570_2014-06-24_13-59-54_094959634447_rgbf000059-resize_0/002570_2014-06-24_13-59-54_094959634447_rgbf000059-resize_0-target.png,125,4.037,70,2197,125,meters,jsons/VE125_randls_62_rotated.json,979439,1147728,44,Man
132,492147,DepthScenes,duration_manipulation_targetAtFixation,jsons/VE125_randls_62_rotated.json,http://54.235.29.9/FacialAge/BNav_EC2/DepthDuration/v2_depth_duration_MTurk/v2_DepthDuration_HTML.html#142,142,1364,625,1364,768,8-29-2022,18-28-50,133,depth_duration_stimuli/001032_2014-06-08_13-23-17_260595134347_rgbf000021-resize_3/001032_2014-06-08_13-23-17_260595134347_rgbf000021-resize_3-target.png,125,3.2725,60,3859,126,meters,jsons/VE125_randls_62_rotated.json,979439,1147728,44,Man
133,492147,DepthScenes,duration_manipulation_targetAtFixation,jsons/VE125_randls_62_rotated.json,http://54.235.29.9/FacialAge/BNav_EC2/DepthDuration/v2_depth_duration_MTurk/v2_DepthDuration_HTML.html#142,142,1364,625,1364,768,8-29-2022,18-28-50,134,depth_duration_stimuli/001059_2014-06-08_21-53-27_260595134347_rgbf000061-resize_4/001059_2014-06-08_21-53-27_260595134347_rgbf000061-resize_4-target.png,125,2.4185,70,4121,125,meters,jsons/VE125_randls_62_rotated.json,979439,1147728,44,Man
134,492147,DepthScenes,duration_manipulation_targetAtFixation,jsons/VE125_randls_62_rotated.json,http://54.235.29.9/FacialAge/BNav_EC2/DepthDuration/v2_depth_duration_MTurk/v2_DepthDuration_HTML.html#142,142,1364,625,1364,768,8-29-2022,18-28-50,135,depth_duration_stimuli/000375_2014-06-08_11-17-29_260595134347_rgbf000133-resize_2/000375_2014-06-08_11-17-29_260595134347_rgbf000133-resize-original.jpg,125,4.718,60,3921,126,meters,jsons/VE125_randls_62_rotated.json,979439,1147728,44,Man
135,492147,DepthScenes,duration_manipulation_targetAtFixation,jsons/VE125_randls_62_rotated.json,http://54.235.29.9/FacialAge/BNav_EC2/DepthDuration/v2_depth_duration_MTurk/v2_DepthDuration_HTML.html#142,142,1364,625,1364,768,8-29-2022,18-28-50,136,depth_duration_stimuli/000635_2014-06-08_16-38-42_260595134347_rgbf000106-resize_1/000635_2014-06-08_16-38-42_260595134347_rgbf000106-resize_1-target.png,125,2.074,60,4028,124,meters,jsons/VE125_randls_62_rotated.json,979439,1147728,44,Man
136,492147,DepthScenes,duration_manipulation_targetAtFixation,jsons/VE125_randls_62_rotated.json,http://54.235.29.9/FacialAge/BNav_EC2/DepthDuration/v2_depth_duration_MTurk/v2_DepthDuration_HTML.html#142,142,1364,625,1364,768,8-29-2022,18-28-50,137,depth_duration_stimuli/002279_2014-06-28_18-55-32_260595134347_rgbf000040-resize_5/002279_2014-06-28_18-55-32_260595134347_rgbf000040-resize_5-target.png,125,1.5043333333333,70,2518,124,meters,jsons/VE125_randls_62_rotated.json,979439,1147728,44,Man
137,492147,DepthScenes,duration_manipulation_targetAtFixation,jsons/VE125_randls_62_rotated.json,http://54.235.29.9/FacialAge/BNav_EC2/DepthDuration/v2_depth_duration_MTurk/v2_DepthDuration_HTML.html#142,142,1364,625,1364,768,8-29-2022,18-28-50,138,depth_duration_stimuli/001235_2014-06-17_16-37-36_260595134347_rgbf000084-resize_4/001235_2014-06-17_16-37-36_260595134347_rgbf000084-resize_4-target.png,125,3.6605,60,4678,125,meters,jsons/VE125_randls_62_rotated.json,979439,1147728,44,Man
138,492147,DepthScenes,duration_manipulation_targetAtFixation,jsons/VE125_randls_62_rotated.json,http://54.235.29.9/FacialAge/BNav_EC2/DepthDuration/v2_depth_duration_MTurk/v2_DepthDuration_HTML.html#142,142,1364,625,1364,768,8-29-2022,18-28-50,139,depth_duration_stimuli/000788_2014-06-08_22-34-36_260595134347_rgbf000131-resize_1/000788_2014-06-08_22-34-36_260595134347_rgbf000131-resize_1-target.png,125,3.359,60,5171,126,meters,jsons/VE125_randls_62_rotated.json,979439,1147728,44,Man
139,492147,DepthScenes,duration_manipulation_targetAtFixation,jsons/VE125_randls_62_rotated.json,http://54.235.29.9/FacialAge/BNav_EC2/DepthDuration/v2_depth_duration_MTurk/v2_DepthDuration_HTML.html#142,142,1364,625,1364,768,8-29-2022,18-28-50,140,depth_duration_stimuli/002750_2014-06-22_19-08-03_094959634447_rgbf000094-resize_4/002750_2014-06-22_19-08-03_094959634447_rgbf000094-resize_4-target.png,125,2.354,70,13799,125,meters,jsons/VE125_randls_62_rotated.json,979439,1147728,44,Man
140,492147,DepthScenes,duration_manipulation_targetAtFixation,jsons/VE125_randls_62_rotated.json,http://54.235.29.9/FacialAge/BNav_EC2/DepthDuration/v2_depth_duration_MTurk/v2_DepthDuration_HTML.html#142,142,1364,625,1364,768,8-29-2022,18-28-50,141,depth_duration_stimuli/002549_2014-06-24_13-41-39_094959634447_rgbf000022-resize_3/002549_2014-06-24_13-41-39_094959634447_rgbf000022-resize_3-target.png,125,1.476,70,8840,125,meters,jsons/VE125_randls_62_rotated.json,979439,1147728,44,Man
141,492147,DepthScenes,duration_manipulation_targetAtFixation,jsons/VE125_randls_62_rotated.json,http://54.235.29.9/FacialAge/BNav_EC2/DepthDuration/v2_depth_duration_MTurk/v2_DepthDuration_HTML.html#142,142,1364,625,1364,768,8-29-2022,18-28-50,142,depth_duration_stimuli/000709_2014-06-08_13-51-55_260595134347_rgbf000068-resize_3/000709_2014-06-08_13-51-55_260595134347_rgbf000068-resize_3-target.png,125,1.8030000000000002,60,11631,124,meters,jsons/VE125_randls_62_rotated.json,979439,1147728,44,Man
142,492147,DepthScenes,duration_manipulation_targetAtFixation,jsons/VE125_randls_62_rotated.json,http://54.235.29.9/FacialAge/BNav_EC2/DepthDuration/v2_depth_duration_MTurk/v2_DepthDuration_HTML.html#142,142,1364,625,1364,768,8-29-2022,18-28-50,143,depth_duration_stimuli/002057_2014-06-24_21-00-13_260595134347_rgbf000120-resize_1/002057_2014-06-24_21-00-13_260595134347_rgbf000120-resize_1-target.png,125,2.967,70,6797,125,meters,jsons/VE125_randls_62_rotated.json,979439,1147728,44,Man
143,492147,DepthScenes,duration_manipulation_targetAtFixation,jsons/VE125_randls_62_rotated.json,http://54.235.29.9/FacialAge/BNav_EC2/DepthDuration/v2_depth_duration_MTurk/v2_DepthDuration_HTML.html#142,142,1364,625,1364,768,8-29-2022,18-28-50,144,depth_duration_stimuli/000742_2014-06-08_18-48-09_260595134347_rgbf000164-resize_4/000742_2014-06-08_18-48-09_260595134347_rgbf000164-resize_4-target.png,125,4.632,80,8100,124,meters,jsons/VE125_randls_62_rotated.json,979439,1147728,44,Man
144,492147,DepthScenes,duration_manipulation_targetAtFixation,jsons/VE125_randls_62_rotated.json,http://54.235.29.9/FacialAge/BNav_EC2/DepthDuration/v2_depth_duration_MTurk/v2_DepthDuration_HTML.html#142,142,1364,625,1364,768,8-29-2022,18-28-50,145,depth_duration_stimuli/001066_2014-06-08_22-03-20_260595134347_rgbf000066-resize_4/001066_2014-06-08_22-03-20_260595134347_rgbf000066-resize_4-target.png,125,4.2330000000000005,70,5898,125,meters,jsons/VE125_randls_62_rotated.json,979439,1147728,44,Man
145,492147,DepthScenes,duration_manipulation_targetAtFixation,jsons/VE125_randls_62_rotated.json,http://54.235.29.9/FacialAge/BNav_EC2/DepthDuration/v2_depth_duration_MTurk/v2_DepthDuration_HTML.html#142,142,1364,625,1364,768,8-29-2022,18-28-50,146,depth_duration_stimuli/003129_2014-05-12_10-48-10_094959634447_rgbf000100-resize_0/003129_2014-05-12_10-48-10_094959634447_rgbf000100-resize_0-target.png,125,4.9305,60,6258,125,meters,jsons/VE125_randls_62_rotated.json,979439,1147728,44,Man
146,492147,DepthScenes,duration_manipulation_targetAtFixation,jsons/VE125_randls_62_rotated.json,http://54.235.29.9/FacialAge/BNav_EC2/DepthDuration/v2_depth_duration_MTurk/v2_DepthDuration_HTML.html#142,142,1364,625,1364,768,8-29-2022,18-28-50,147,depth_duration_stimuli/000414_2014-06-04_19-49-13_260595134347_rgbf000044-resize_0/000414_2014-06-04_19-49-13_260595134347_rgbf000044-resize_0-target.png,125,4.329,60,6411,126,meters,jsons/VE125_randls_62_rotated.json,979439,1147728,44,Man
147,492147,DepthScenes,duration_manipulation_targetAtFixation,jsons/VE125_randls_62_rotated.json,http://54.235.29.9/FacialAge/BNav_EC2/DepthDuration/v2_depth_duration_MTurk/v2_DepthDuration_HTML.html#142,142,1364,625,1364,768,8-29-2022,18-28-50,148,depth_duration_stimuli/002103_2014-06-25_20-00-40_260595134347_rgbf000049-resize_0/002103_2014-06-25_20-00-40_260595134347_rgbf000049-resize_0-target.png,125,4.105,60,9589,126,meters,jsons/VE125_randls_62_rotated.json,979439,1147728,44,Man
148,492147,DepthScenes,duration_manipulation_targetAtFixation,jsons/VE125_randls_62_rotated.json,http://54.235.29.9/FacialAge/BNav_EC2/DepthDuration/v2_depth_duration_MTurk/v2_DepthDuration_HTML.html#142,142,1364,625,1364,768,8-29-2022,18-28-50,149,depth_duration_stimuli/002039_2014-06-24_20-22-38_260595134347_rgbf000084-resize_1/002039_2014-06-24_20-22-38_260595134347_rgbf000084-resize_1-target.png,125,4.408,60,16098,123,meters,jsons/VE125_randls_62_rotated.json,979439,1147728,44,Man
149,492147,DepthScenes,duration_manipulation_targetAtFixation,jsons/VE125_randls_62_rotated.json,http://54.235.29.9/FacialAge/BNav_EC2/DepthDuration/v2_depth_duration_MTurk/v2_DepthDuration_HTML.html#142,142,1364,625,1364,768,8-29-2022,18-28-50,150,depth_duration_stimuli/001828_2014-06-26_21-40-03_260595134347_rgbf000024-resize_0/001828_2014-06-26_21-40-03_260595134347_rgbf000024-resize_0-target.png,125,4.8260000000000005,70,9830,125,meters,jsons/VE125_randls_62_rotated.json,979439,1147728,44,Man
150,492147,DepthScenes,duration_manipulation_targetAtFixation,jsons/VE125_randls_62_rotated.json,http://54.235.29.9/FacialAge/BNav_EC2/DepthDuration/v2_depth_duration_MTurk/v2_DepthDuration_HTML.html#142,142,1364,625,1364,768,8-29-2022,18-28-50,151,depth_duration_stimuli/000009_2014-05-26_14-32-05_260595134347_rgbf000034-resize_3/000009_2014-05-26_14-32-05_260595134347_rgbf000034-resize_3-target.png,125,3.8715,70,6437,124,meters,jsons/VE125_randls_62_rotated.json,979439,1147728,44,Man
151,492147,DepthScenes,duration_manipulation_targetAtFixation,jsons/VE125_randls_62_rotated.json,http://54.235.29.9/FacialAge/BNav_EC2/DepthDuration/v2_depth_duration_MTurk/v2_DepthDuration_HTML.html#142,142,1364,625,1364,768,8-29-2022,18-28-50,152,depth_duration_stimuli/000569_2014-06-09_22-51-47_260595134347_rgbf000141-resize_3/000569_2014-06-09_22-51-47_260595134347_rgbf000141-resize-original.jpg,125,4.512,70,11089,126,meters,jsons/VE125_randls_62_rotated.json,979439,1147728,44,Man
152,492147,DepthScenes,duration_manipulation_targetAtFixation,jsons/VE125_randls_62_rotated.json,http://54.235.29.9/FacialAge/BNav_EC2/DepthDuration/v2_depth_duration_MTurk/v2_DepthDuration_HTML.html#142,142,1364,625,1364,768,8-29-2022,18-28-50,153,depth_duration_stimuli/002545_2014-06-24_13-38-53_094959634447_rgbf000080-resize_4/002545_2014-06-24_13-38-53_094959634447_rgbf000080-resize_4-target.png,125,1.9205,79,6930,124,meters,jsons/VE125_randls_62_rotated.json,979439,1147728,44,Man
153,492147,DepthScenes,duration_manipulation_targetAtFixation,jsons/VE125_randls_62_rotated.json,http://54.235.29.9/FacialAge/BNav_EC2/DepthDuration/v2_depth_duration_MTurk/v2_DepthDuration_HTML.html#142,142,1364,625,1364,768,8-29-2022,18-28-50,154,depth_duration_stimuli/001092_2014-06-15_17-34-58_260595134347_rgbf000171-resize_3/001092_2014-06-15_17-34-58_260595134347_rgbf000171-resize_3-target.png,125,2.6935,80,7670,125,meters,jsons/VE125_randls_62_rotated.json,979439,1147728,44,Man
154,492147,DepthScenes,duration_manipulation_targetAtFixation,jsons/VE125_randls_62_rotated.json,http://54.235.29.9/FacialAge/BNav_EC2/DepthDuration/v2_depth_duration_MTurk/v2_DepthDuration_HTML.html#142,142,1364,625,1364,768,8-29-2022,18-28-50,155,depth_duration_stimuli/003423_2014-05-21_10-23-26_094959634447_rgbf002665-resize_2/003423_2014-05-21_10-23-26_094959634447_rgbf002665-resize_2-target.png,125,3.2575,80,4609,124,meters,jsons/VE125_randls_62_rotated.json,979439,1147728,44,Man
155,492147,DepthScenes,duration_manipulation_targetAtFixation,jsons/VE125_randls_62_rotated.json,http://54.235.29.9/FacialAge/BNav_EC2/DepthDuration/v2_depth_duration_MTurk/v2_DepthDuration_HTML.html#142,142,1364,625,1364,768,8-29-2022,18-28-50,156,depth_duration_stimuli/002905_2014-06-03_18-04-43_094959634447_rgbf000151-resize_2/002905_2014-06-03_18-04-43_094959634447_rgbf000151-resize_2-target.png,125,2.0295,70,2508,124,meters,jsons/VE125_randls_62_rotated.json,979439,1147728,44,Man
156,492147,DepthScenes,duration_manipulation_targetAtFixation,jsons/VE125_randls_62_rotated.json,http://54.235.29.9/FacialAge/BNav_EC2/DepthDuration/v2_depth_duration_MTurk/v2_DepthDuration_HTML.html#142,142,1364,625,1364,768,8-29-2022,18-28-50,157,depth_duration_stimuli/002568_2014-06-24_13-59-21_094959634447_rgbf000062-resize_4/002568_2014-06-24_13-59-21_094959634447_rgbf000062-resize_4-target.png,125,3.015,70,3757,124,meters,jsons/VE125_randls_62_rotated.json,979439,1147728,44,Man
157,492147,DepthScenes,duration_manipulation_targetAtFixation,jsons/VE125_randls_62_rotated.json,http://54.235.29.9/FacialAge/BNav_EC2/DepthDuration/v2_depth_duration_MTurk/v2_DepthDuration_HTML.html#142,142,1364,625,1364,768,8-29-2022,18-28-50,158,depth_duration_stimuli/003492_2014-05-21_15-50-55_094959634447_rgbf000828-resize_1/003492_2014-05-21_15-50-55_094959634447_rgbf000828-resize_1-target.png,125,4.06875,80,2019,126,meters,jsons/VE125_randls_62_rotated.json,979439,1147728,44,Man
158,492147,DepthScenes,duration_manipulation_targetAtFixation,jsons/VE125_randls_62_rotated.json,http://54.235.29.9/FacialAge/BNav_EC2/DepthDuration/v2_depth_duration_MTurk/v2_DepthDuration_HTML.html#142,142,1364,625,1364,768,8-29-2022,18-28-50,159,depth_duration_stimuli/003081_2014-06-15_15-19-16_094959634447_rgbf000150-resize_1/003081_2014-06-15_15-19-16_094959634447_rgbf000150-resize_1-target.png,125,3.9125,60,4230,125,meters,jsons/VE125_randls_62_rotated.json,979439,1147728,44,Man
159,492147,DepthScenes,duration_manipulation_targetAtFixation,jsons/VE125_randls_62_rotated.json,http://54.235.29.9/FacialAge/BNav_EC2/DepthDuration/v2_depth_duration_MTurk/v2_DepthDuration_HTML.html#142,142,1364,625,1364,768,8-29-2022,18-28-50,160,depth_duration_stimuli/001417_2014-06-19_16-25-36_260595134347_rgbf000115-resize_5/001417_2014-06-19_16-25-36_260595134347_rgbf000115-resize_5-target.png,125,4.6255,60,2529,126,meters,jsons/VE125_randls_62_rotated.json,979439,1147728,44,Man
160,492147,DepthScenes,duration_manipulation_targetAtFixation,jsons/VE125_randls_62_rotated.json,http://54.235.29.9/FacialAge/BNav_EC2/DepthDuration/v2_depth_duration_MTurk/v2_DepthDuration_HTML.html#142,142,1364,625,1364,768,8-29-2022,18-28-50,161,depth_duration_stimuli/002949_2014-06-26_15-57-42_094959634447_rgbf000079-resize_1/002949_2014-06-26_15-57-42_094959634447_rgbf000079-resize_1-target.png,125,1.8915,70,6434,124,meters,jsons/VE125_randls_62_rotated.json,979439,1147728,44,Man
161,492147,DepthScenes,duration_manipulation_targetAtFixation,jsons/VE125_randls_62_rotated.json,http://54.235.29.9/FacialAge/BNav_EC2/DepthDuration/v2_depth_duration_MTurk/v2_DepthDuration_HTML.html#142,142,1364,625,1364,768,8-29-2022,18-28-50,162,depth_duration_stimuli/000522_2014-06-08_13-35-06_260595134347_rgbf000244-resize_1/000522_2014-06-08_13-35-06_260595134347_rgbf000244-resize_1-target.png,125,2.3715,70,5438,125,meters,jsons/VE125_randls_62_rotated.json,979439,1147728,44,Man
162,492147,DepthScenes,duration_manipulation_targetAtFixation,jsons/VE125_randls_62_rotated.json,http://54.235.29.9/FacialAge/BNav_EC2/DepthDuration/v2_depth_duration_MTurk/v2_DepthDuration_HTML.html#142,142,1364,625,1364,768,8-29-2022,18-28-50,163,depth_duration_stimuli/000103_2014-05-14_22-01-17_260595134347_rgbf000152-resize_5/000103_2014-05-14_22-01-17_260595134347_rgbf000152-resize_5-target.png,125,1.993,60,7349,125,meters,jsons/VE125_randls_62_rotated.json,979439,1147728,44,Man
163,492147,DepthScenes,duration_manipulation_targetAtFixation,jsons/VE125_randls_62_rotated.json,http://54.235.29.9/FacialAge/BNav_EC2/DepthDuration/v2_depth_duration_MTurk/v2_DepthDuration_HTML.html#142,142,1364,625,1364,768,8-29-2022,18-28-50,164,depth_duration_stimuli/001555_2014-06-20_17-12-10_260595134347_rgbf000065-resize_4/001555_2014-06-20_17-12-10_260595134347_rgbf000065-resize_4-target.png,125,1.633,60,6187,124,meters,jsons/VE125_randls_62_rotated.json,979439,1147728,44,Man
