,subjID,experimentName,versionName,sequenceName,url,selected_row,windowWidth,windowHeight,screenWidth,screenHeight,startDate,startTime,trial,stimulus,duration,actual_depth,depth_estimate,trial_RT,log_sceneDuration,unitSelection,seq_filepath,experimentTime,totalTime,age,gender
0,493852,DepthScenes,duration_manipulation_targetAtFixation,jsons/v1_VE250_randls_34_rotated.json,http://54.235.29.9/FacialAge/BNav_EC2/DepthDuration/v2_depth_duration_MTurk/v2_DepthDuration_HTML.html#426,426,1366,625,1366,768,8-30-2022,11-26-16,1,depth_duration_stimuli/000103_2014-05-14_22-01-17_260595134347_rgbf000152-resize_5/000103_2014-05-14_22-01-17_260595134347_rgbf000152-resize_5-target.png,250,1.993,3,4021,249,feet,jsons/v1_VE250_randls_34_rotated.json,948335,1388415,25,Man
1,493852,DepthScenes,duration_manipulation_targetAtFixation,jsons/v1_VE250_randls_34_rotated.json,http://54.235.29.9/FacialAge/BNav_EC2/DepthDuration/v2_depth_duration_MTurk/v2_DepthDuration_HTML.html#426,426,1366,625,1366,768,8-30-2022,11-26-16,2,depth_duration_stimuli/001555_2014-06-20_17-12-10_260595134347_rgbf000065-resize_4/001555_2014-06-20_17-12-10_260595134347_rgbf000065-resize_4-target.png,250,1.633,2,3343,249,feet,jsons/v1_VE250_randls_34_rotated.json,948335,1388415,25,Man
2,493852,DepthScenes,duration_manipulation_targetAtFixation,jsons/v1_VE250_randls_34_rotated.json,http://54.235.29.9/FacialAge/BNav_EC2/DepthDuration/v2_depth_duration_MTurk/v2_DepthDuration_HTML.html#426,426,1366,625,1366,768,8-30-2022,11-26-16,3,depth_duration_stimuli/001617_2014-06-20_11-35-32_260595134347_rgbf000066-resize_1/001617_2014-06-20_11-35-32_260595134347_rgbf000066-resize_1-target.png,250,3.7910000000000004,3,3515,250,feet,jsons/v1_VE250_randls_34_rotated.json,948335,1388415,25,Man
3,493852,DepthScenes,duration_manipulation_targetAtFixation,jsons/v1_VE250_randls_34_rotated.json,http://54.235.29.9/FacialAge/BNav_EC2/DepthDuration/v2_depth_duration_MTurk/v2_DepthDuration_HTML.html#426,426,1366,625,1366,768,8-30-2022,11-26-16,4,depth_duration_stimuli/001806_2014-06-26_20-50-20_260595134347_rgbf000091-resize_1/001806_2014-06-26_20-50-20_260595134347_rgbf000091-resize_1-target.png,250,2.7305,2,3498,249,feet,jsons/v1_VE250_randls_34_rotated.json,948335,1388415,25,Man
4,493852,DepthScenes,duration_manipulation_targetAtFixation,jsons/v1_VE250_randls_34_rotated.json,http://54.235.29.9/FacialAge/BNav_EC2/DepthDuration/v2_depth_duration_MTurk/v2_DepthDuration_HTML.html#426,426,1366,625,1366,768,8-30-2022,11-26-16,5,depth_duration_stimuli/003228_2014-05-14_13-42-35_094959634447_rgbf000101-resize_1/003228_2014-05-14_13-42-35_094959634447_rgbf000101-resize_1-target.png,250,1.9680000000000002,3,3019,251,feet,jsons/v1_VE250_randls_34_rotated.json,948335,1388415,25,Man
5,493852,DepthScenes,duration_manipulation_targetAtFixation,jsons/v1_VE250_randls_34_rotated.json,http://54.235.29.9/FacialAge/BNav_EC2/DepthDuration/v2_depth_duration_MTurk/v2_DepthDuration_HTML.html#426,426,1366,625,1366,768,8-30-2022,11-26-16,6,depth_duration_stimuli/002600_2014-06-24_14-27-04_094959634447_rgbf000074-resize_2/002600_2014-06-24_14-27-04_094959634447_rgbf000074-resize_2-target.png,250,2.7575,2,3979,249,feet,jsons/v1_VE250_randls_34_rotated.json,948335,1388415,25,Man
6,493852,DepthScenes,duration_manipulation_targetAtFixation,jsons/v1_VE250_randls_34_rotated.json,http://54.235.29.9/FacialAge/BNav_EC2/DepthDuration/v2_depth_duration_MTurk/v2_DepthDuration_HTML.html#426,426,1366,625,1366,768,8-30-2022,11-26-16,7,depth_duration_stimuli/001032_2014-06-08_13-23-17_260595134347_rgbf000021-resize_3/001032_2014-06-08_13-23-17_260595134347_rgbf000021-resize_3-target.png,250,3.2725,3,60660,249,feet,jsons/v1_VE250_randls_34_rotated.json,948335,1388415,25,Man
7,493852,DepthScenes,duration_manipulation_targetAtFixation,jsons/v1_VE250_randls_34_rotated.json,http://54.235.29.9/FacialAge/BNav_EC2/DepthDuration/v2_depth_duration_MTurk/v2_DepthDuration_HTML.html#426,426,1366,625,1366,768,8-30-2022,11-26-16,8,depth_duration_stimuli/001059_2014-06-08_21-53-27_260595134347_rgbf000061-resize_4/001059_2014-06-08_21-53-27_260595134347_rgbf000061-resize_4-target.png,250,2.4185,3,13290,250,feet,jsons/v1_VE250_randls_34_rotated.json,948335,1388415,25,Man
8,493852,DepthScenes,duration_manipulation_targetAtFixation,jsons/v1_VE250_randls_34_rotated.json,http://54.235.29.9/FacialAge/BNav_EC2/DepthDuration/v2_depth_duration_MTurk/v2_DepthDuration_HTML.html#426,426,1366,625,1366,768,8-30-2022,11-26-16,9,depth_duration_stimuli/003495_2014-05-21_16-01-51_094959634447_rgbf000100-resize_3/003495_2014-05-21_16-01-51_094959634447_rgbf000100-resize_3-target.png,250,1.6255,2,3321,250,feet,jsons/v1_VE250_randls_34_rotated.json,948335,1388415,25,Man
9,493852,DepthScenes,duration_manipulation_targetAtFixation,jsons/v1_VE250_randls_34_rotated.json,http://54.235.29.9/FacialAge/BNav_EC2/DepthDuration/v2_depth_duration_MTurk/v2_DepthDuration_HTML.html#426,426,1366,625,1366,768,8-30-2022,11-26-16,10,depth_duration_stimuli/001244_2014-06-17_16-47-45_260595134347_rgbf000030-resize_4/001244_2014-06-17_16-47-45_260595134347_rgbf000030-resize_4-target.png,250,2.0425,2,3219,250,feet,jsons/v1_VE250_randls_34_rotated.json,948335,1388415,25,Man
10,493852,DepthScenes,duration_manipulation_targetAtFixation,jsons/v1_VE250_randls_34_rotated.json,http://54.235.29.9/FacialAge/BNav_EC2/DepthDuration/v2_depth_duration_MTurk/v2_DepthDuration_HTML.html#426,426,1366,625,1366,768,8-30-2022,11-26-16,11,depth_duration_stimuli/002425_2014-06-28_20-27-29_260595134347_rgbf000031-resize_8/002425_2014-06-28_20-27-29_260595134347_rgbf000031-resize_8-target.png,250,3.8960000000000004,1,3166,250,feet,jsons/v1_VE250_randls_34_rotated.json,948335,1388415,25,Man
11,493852,DepthScenes,duration_manipulation_targetAtFixation,jsons/v1_VE250_randls_34_rotated.json,http://54.235.29.9/FacialAge/BNav_EC2/DepthDuration/v2_depth_duration_MTurk/v2_DepthDuration_HTML.html#426,426,1366,625,1366,768,8-30-2022,11-26-16,12,depth_duration_stimuli/000642_2014-06-08_16-59-25_260595134347_rgbf000098-resize_2/000642_2014-06-08_16-59-25_260595134347_rgbf000098-resize_2-target.png,250,2.8815,2,3109,251,feet,jsons/v1_VE250_randls_34_rotated.json,948335,1388415,25,Man
12,493852,DepthScenes,duration_manipulation_targetAtFixation,jsons/v1_VE250_randls_34_rotated.json,http://54.235.29.9/FacialAge/BNav_EC2/DepthDuration/v2_depth_duration_MTurk/v2_DepthDuration_HTML.html#426,426,1366,625,1366,768,8-30-2022,11-26-16,13,depth_duration_stimuli/001571_2014-06-20_17-21-32_260595134347_rgbf000089-resize_1/001571_2014-06-20_17-21-32_260595134347_rgbf000089-resize_1-target.png,250,1.86,3,2939,251,feet,jsons/v1_VE250_randls_34_rotated.json,948335,1388415,25,Man
13,493852,DepthScenes,duration_manipulation_targetAtFixation,jsons/v1_VE250_randls_34_rotated.json,http://54.235.29.9/FacialAge/BNav_EC2/DepthDuration/v2_depth_duration_MTurk/v2_DepthDuration_HTML.html#426,426,1366,625,1366,768,8-30-2022,11-26-16,14,depth_duration_stimuli/002272_2014-06-28_18-53-56_260595134347_rgbf000067-resize_2/002272_2014-06-28_18-53-56_260595134347_rgbf000067-resize_2-target.png,250,1.138,1,2963,251,feet,jsons/v1_VE250_randls_34_rotated.json,948335,1388415,25,Man
14,493852,DepthScenes,duration_manipulation_targetAtFixation,jsons/v1_VE250_randls_34_rotated.json,http://54.235.29.9/FacialAge/BNav_EC2/DepthDuration/v2_depth_duration_MTurk/v2_DepthDuration_HTML.html#426,426,1366,625,1366,768,8-30-2022,11-26-16,15,depth_duration_stimuli/003048_2014-06-15_13-49-43_094959634447_rgbf000150-resize_1/003048_2014-06-15_13-49-43_094959634447_rgbf000150-resize_1-target.png,250,4.0035,3,3828,250,feet,jsons/v1_VE250_randls_34_rotated.json,948335,1388415,25,Man
15,493852,DepthScenes,duration_manipulation_targetAtFixation,jsons/v1_VE250_randls_34_rotated.json,http://54.235.29.9/FacialAge/BNav_EC2/DepthDuration/v2_depth_duration_MTurk/v2_DepthDuration_HTML.html#426,426,1366,625,1366,768,8-30-2022,11-26-16,16,depth_duration_stimuli/002043_2014-06-24_20-29-38_260595134347_rgbf000039-resize_4/002043_2014-06-24_20-29-38_260595134347_rgbf000039-resize_4-target.png,250,2.8435,2,3131,250,feet,jsons/v1_VE250_randls_34_rotated.json,948335,1388415,25,Man
16,493852,DepthScenes,duration_manipulation_targetAtFixation,jsons/v1_VE250_randls_34_rotated.json,http://54.235.29.9/FacialAge/BNav_EC2/DepthDuration/v2_depth_duration_MTurk/v2_DepthDuration_HTML.html#426,426,1366,625,1366,768,8-30-2022,11-26-16,17,depth_duration_stimuli/001214_2014-06-17_16-13-55_260595134347_rgbf000111-resize_0/001214_2014-06-17_16-13-55_260595134347_rgbf000111-resize_0-target.png,250,2.6505,3,2994,250,feet,jsons/v1_VE250_randls_34_rotated.json,948335,1388415,25,Man
17,493852,DepthScenes,duration_manipulation_targetAtFixation,jsons/v1_VE250_randls_34_rotated.json,http://54.235.29.9/FacialAge/BNav_EC2/DepthDuration/v2_depth_duration_MTurk/v2_DepthDuration_HTML.html#426,426,1366,625,1366,768,8-30-2022,11-26-16,18,depth_duration_stimuli/000810_2014-06-08_17-20-01_260595134347_rgbf000105-resize_0/000810_2014-06-08_17-20-01_260595134347_rgbf000105-resize_0-target.png,250,1.4865,1,3620,250,feet,jsons/v1_VE250_randls_34_rotated.json,948335,1388415,25,Man
18,493852,DepthScenes,duration_manipulation_targetAtFixation,jsons/v1_VE250_randls_34_rotated.json,http://54.235.29.9/FacialAge/BNav_EC2/DepthDuration/v2_depth_duration_MTurk/v2_DepthDuration_HTML.html#426,426,1366,625,1366,768,8-30-2022,11-26-16,19,depth_duration_stimuli/001498_2014-06-19_17-45-14_260595134347_rgbf000129-resize_4/001498_2014-06-19_17-45-14_260595134347_rgbf000129-resize-original.jpg,250,1.4075,0,3331,250,feet,jsons/v1_VE250_randls_34_rotated.json,948335,1388415,25,Man
19,493852,DepthScenes,duration_manipulation_targetAtFixation,jsons/v1_VE250_randls_34_rotated.json,http://54.235.29.9/FacialAge/BNav_EC2/DepthDuration/v2_depth_duration_MTurk/v2_DepthDuration_HTML.html#426,426,1366,625,1366,768,8-30-2022,11-26-16,20,depth_duration_stimuli/002444_2014-06-28_20-32-08_260595134347_rgbf000027-resize_0/002444_2014-06-28_20-32-08_260595134347_rgbf000027-resize_0-target.png,250,4.388999999999999,4,3764,250,feet,jsons/v1_VE250_randls_34_rotated.json,948335,1388415,25,Man
20,493852,DepthScenes,duration_manipulation_targetAtFixation,jsons/v1_VE250_randls_34_rotated.json,http://54.235.29.9/FacialAge/BNav_EC2/DepthDuration/v2_depth_duration_MTurk/v2_DepthDuration_HTML.html#426,426,1366,625,1366,768,8-30-2022,11-26-16,21,depth_duration_stimuli/000436_2014-06-09_22-25-11_260595134347_rgbf000137-resize_1/000436_2014-06-09_22-25-11_260595134347_rgbf000137-resize_1-target.png,250,4.0705,3,3233,249,feet,jsons/v1_VE250_randls_34_rotated.json,948335,1388415,25,Man
21,493852,DepthScenes,duration_manipulation_targetAtFixation,jsons/v1_VE250_randls_34_rotated.json,http://54.235.29.9/FacialAge/BNav_EC2/DepthDuration/v2_depth_duration_MTurk/v2_DepthDuration_HTML.html#426,426,1366,625,1366,768,8-30-2022,11-26-16,22,depth_duration_stimuli/002637_2014-06-24_14-51-13_094959634447_rgbf000066-resize_4/002637_2014-06-24_14-51-13_094959634447_rgbf000066-resize_4-target.png,250,1.9955,2,3920,248,feet,jsons/v1_VE250_randls_34_rotated.json,948335,1388415,25,Man
22,493852,DepthScenes,duration_manipulation_targetAtFixation,jsons/v1_VE250_randls_34_rotated.json,http://54.235.29.9/FacialAge/BNav_EC2/DepthDuration/v2_depth_duration_MTurk/v2_DepthDuration_HTML.html#426,426,1366,625,1366,768,8-30-2022,11-26-16,23,depth_duration_stimuli/003534_2014-05-22_15-06-10_094959634447_rgbf000102-resize_4/003534_2014-05-22_15-06-10_094959634447_rgbf000102-resize_4-target.png,250,1.426,3,3196,250,feet,jsons/v1_VE250_randls_34_rotated.json,948335,1388415,25,Man
23,493852,DepthScenes,duration_manipulation_targetAtFixation,jsons/v1_VE250_randls_34_rotated.json,http://54.235.29.9/FacialAge/BNav_EC2/DepthDuration/v2_depth_duration_MTurk/v2_DepthDuration_HTML.html#426,426,1366,625,1366,768,8-30-2022,11-26-16,24,depth_duration_stimuli/001447_2014-06-19_17-00-32_260595134347_rgbf000082-resize_5/001447_2014-06-19_17-00-32_260595134347_rgbf000082-resize_5-target.png,250,4.13775,3,40682,251,feet,jsons/v1_VE250_randls_34_rotated.json,948335,1388415,25,Man
24,493852,DepthScenes,duration_manipulation_targetAtFixation,jsons/v1_VE250_randls_34_rotated.json,http://54.235.29.9/FacialAge/BNav_EC2/DepthDuration/v2_depth_duration_MTurk/v2_DepthDuration_HTML.html#426,426,1366,625,1366,768,8-30-2022,11-26-16,25,depth_duration_stimuli/000447_2014-06-08_16-15-46_260595134347_rgbf000130-resize_1/000447_2014-06-08_16-15-46_260595134347_rgbf000130-resize_1-target.png,250,4.479,3,3674,249,feet,jsons/v1_VE250_randls_34_rotated.json,948335,1388415,25,Man
25,493852,DepthScenes,duration_manipulation_targetAtFixation,jsons/v1_VE250_randls_34_rotated.json,http://54.235.29.9/FacialAge/BNav_EC2/DepthDuration/v2_depth_duration_MTurk/v2_DepthDuration_HTML.html#426,426,1366,625,1366,768,8-30-2022,11-26-16,26,depth_duration_stimuli/000854_2014-06-09_19-43-13_260595134347_rgbf000066-resize_0/000854_2014-06-09_19-43-13_260595134347_rgbf000066-resize_0-target.png,250,3.068,4,3512,251,feet,jsons/v1_VE250_randls_34_rotated.json,948335,1388415,25,Man
26,493852,DepthScenes,duration_manipulation_targetAtFixation,jsons/v1_VE250_randls_34_rotated.json,http://54.235.29.9/FacialAge/BNav_EC2/DepthDuration/v2_depth_duration_MTurk/v2_DepthDuration_HTML.html#426,426,1366,625,1366,768,8-30-2022,11-26-16,27,depth_duration_stimuli/000758_2014-06-08_22-05-08_260595134347_rgbf000085-resize_0/000758_2014-06-08_22-05-08_260595134347_rgbf000085-resize_0-target.png,250,3.3810000000000002,2,4517,248,feet,jsons/v1_VE250_randls_34_rotated.json,948335,1388415,25,Man
27,493852,DepthScenes,duration_manipulation_targetAtFixation,jsons/v1_VE250_randls_34_rotated.json,http://54.235.29.9/FacialAge/BNav_EC2/DepthDuration/v2_depth_duration_MTurk/v2_DepthDuration_HTML.html#426,426,1366,625,1366,768,8-30-2022,11-26-16,28,depth_duration_stimuli/001052_2014-06-08_18-24-54_260595134347_rgbf000130-resize_1/001052_2014-06-08_18-24-54_260595134347_rgbf000130-resize_1-target.png,250,4.1045,3,3058,249,feet,jsons/v1_VE250_randls_34_rotated.json,948335,1388415,25,Man
28,493852,DepthScenes,duration_manipulation_targetAtFixation,jsons/v1_VE250_randls_34_rotated.json,http://54.235.29.9/FacialAge/BNav_EC2/DepthDuration/v2_depth_duration_MTurk/v2_DepthDuration_HTML.html#426,426,1366,625,1366,768,8-30-2022,11-26-16,29,depth_duration_stimuli/002988_2014-06-15_12-24-20_094959634447_rgbf000150-resize_1/002988_2014-06-15_12-24-20_094959634447_rgbf000150-resize_1-target.png,250,4.7669999999999995,1,3420,249,feet,jsons/v1_VE250_randls_34_rotated.json,948335,1388415,25,Man
29,493852,DepthScenes,duration_manipulation_targetAtFixation,jsons/v1_VE250_randls_34_rotated.json,http://54.235.29.9/FacialAge/BNav_EC2/DepthDuration/v2_depth_duration_MTurk/v2_DepthDuration_HTML.html#426,426,1366,625,1366,768,8-30-2022,11-26-16,30,depth_duration_stimuli/002072_2014-06-24_21-48-06_260595134347_rgbf000115-resize_0/002072_2014-06-24_21-48-06_260595134347_rgbf000115-resize-original.jpg,250,4.702,0,3297,250,feet,jsons/v1_VE250_randls_34_rotated.json,948335,1388415,25,Man
30,493852,DepthScenes,duration_manipulation_targetAtFixation,jsons/v1_VE250_randls_34_rotated.json,http://54.235.29.9/FacialAge/BNav_EC2/DepthDuration/v2_depth_duration_MTurk/v2_DepthDuration_HTML.html#426,426,1366,625,1366,768,8-30-2022,11-26-16,31,depth_duration_stimuli/002209_2014-06-28_18-36-10_260595134347_rgbf000051-resize_1/002209_2014-06-28_18-36-10_260595134347_rgbf000051-resize_1-target.png,250,2.057,3,3108,250,feet,jsons/v1_VE250_randls_34_rotated.json,948335,1388415,25,Man
31,493852,DepthScenes,duration_manipulation_targetAtFixation,jsons/v1_VE250_randls_34_rotated.json,http://54.235.29.9/FacialAge/BNav_EC2/DepthDuration/v2_depth_duration_MTurk/v2_DepthDuration_HTML.html#426,426,1366,625,1366,768,8-30-2022,11-26-16,32,depth_duration_stimuli/002763_2014-06-22_19-13-10_094959634447_rgbf000075-resize_4/002763_2014-06-22_19-13-10_094959634447_rgbf000075-resize_4-target.png,250,1.68375,2,3344,249,feet,jsons/v1_VE250_randls_34_rotated.json,948335,1388415,25,Man
32,493852,DepthScenes,duration_manipulation_targetAtFixation,jsons/v1_VE250_randls_34_rotated.json,http://54.235.29.9/FacialAge/BNav_EC2/DepthDuration/v2_depth_duration_MTurk/v2_DepthDuration_HTML.html#426,426,1366,625,1366,768,8-30-2022,11-26-16,33,depth_duration_stimuli/002758_2014-06-22_19-11-20_094959634447_rgbf000128-resize_1/002758_2014-06-22_19-11-20_094959634447_rgbf000128-resize_1-target.png,250,2.555,2,3796,250,feet,jsons/v1_VE250_randls_34_rotated.json,948335,1388415,25,Man
33,493852,DepthScenes,duration_manipulation_targetAtFixation,jsons/v1_VE250_randls_34_rotated.json,http://54.235.29.9/FacialAge/BNav_EC2/DepthDuration/v2_depth_duration_MTurk/v2_DepthDuration_HTML.html#426,426,1366,625,1366,768,8-30-2022,11-26-16,34,depth_duration_stimuli/002630_2014-06-24_14-47-50_094959634447_rgbf000055-resize_1/002630_2014-06-24_14-47-50_094959634447_rgbf000055-resize_1-target.png,250,3.0095,1,3354,250,feet,jsons/v1_VE250_randls_34_rotated.json,948335,1388415,25,Man
34,493852,DepthScenes,duration_manipulation_targetAtFixation,jsons/v1_VE250_randls_34_rotated.json,http://54.235.29.9/FacialAge/BNav_EC2/DepthDuration/v2_depth_duration_MTurk/v2_DepthDuration_HTML.html#426,426,1366,625,1366,768,8-30-2022,11-26-16,35,depth_duration_stimuli/002344_2014-06-28_20-06-29_260595134347_rgbf000030-resize_1/002344_2014-06-28_20-06-29_260595134347_rgbf000030-resize_1-target.png,250,1.5795,2,3169,249,feet,jsons/v1_VE250_randls_34_rotated.json,948335,1388415,25,Man
35,493852,DepthScenes,duration_manipulation_targetAtFixation,jsons/v1_VE250_randls_34_rotated.json,http://54.235.29.9/FacialAge/BNav_EC2/DepthDuration/v2_depth_duration_MTurk/v2_DepthDuration_HTML.html#426,426,1366,625,1366,768,8-30-2022,11-26-16,36,depth_duration_stimuli/002725_2014-06-22_11-47-51_094959634447_rgbf000070-resize_1/002725_2014-06-22_11-47-51_094959634447_rgbf000070-resize_1-target.png,250,2.195,3,3236,249,feet,jsons/v1_VE250_randls_34_rotated.json,948335,1388415,25,Man
36,493852,DepthScenes,duration_manipulation_targetAtFixation,jsons/v1_VE250_randls_34_rotated.json,http://54.235.29.9/FacialAge/BNav_EC2/DepthDuration/v2_depth_duration_MTurk/v2_DepthDuration_HTML.html#426,426,1366,625,1366,768,8-30-2022,11-26-16,37,depth_duration_stimuli/003081_2014-06-15_15-19-16_094959634447_rgbf000150-resize_1/003081_2014-06-15_15-19-16_094959634447_rgbf000150-resize_1-target.png,250,3.9125,3,4818,249,feet,jsons/v1_VE250_randls_34_rotated.json,948335,1388415,25,Man
37,493852,DepthScenes,duration_manipulation_targetAtFixation,jsons/v1_VE250_randls_34_rotated.json,http://54.235.29.9/FacialAge/BNav_EC2/DepthDuration/v2_depth_duration_MTurk/v2_DepthDuration_HTML.html#426,426,1366,625,1366,768,8-30-2022,11-26-16,38,depth_duration_stimuli/001417_2014-06-19_16-25-36_260595134347_rgbf000115-resize_5/001417_2014-06-19_16-25-36_260595134347_rgbf000115-resize_5-target.png,250,4.6255,1,3434,249,feet,jsons/v1_VE250_randls_34_rotated.json,948335,1388415,25,Man
38,493852,DepthScenes,duration_manipulation_targetAtFixation,jsons/v1_VE250_randls_34_rotated.json,http://54.235.29.9/FacialAge/BNav_EC2/DepthDuration/v2_depth_duration_MTurk/v2_DepthDuration_HTML.html#426,426,1366,625,1366,768,8-30-2022,11-26-16,39,depth_duration_stimuli/000457_2014-06-08_16-52-43_260595134347_rgbf000199-resize_1/000457_2014-06-08_16-52-43_260595134347_rgbf000199-resize_1-target.png,250,3.6489999999999996,2,3508,250,feet,jsons/v1_VE250_randls_34_rotated.json,948335,1388415,25,Man
39,493852,DepthScenes,duration_manipulation_targetAtFixation,jsons/v1_VE250_randls_34_rotated.json,http://54.235.29.9/FacialAge/BNav_EC2/DepthDuration/v2_depth_duration_MTurk/v2_DepthDuration_HTML.html#426,426,1366,625,1366,768,8-30-2022,11-26-16,40,depth_duration_stimuli/000929_2014-06-09_16-33-19_260595134347_rgbf000139-resize_0/000929_2014-06-09_16-33-19_260595134347_rgbf000139-resize_0-target.png,250,2.8680000000000003,3,3371,250,feet,jsons/v1_VE250_randls_34_rotated.json,948335,1388415,25,Man
40,493852,DepthScenes,duration_manipulation_targetAtFixation,jsons/v1_VE250_randls_34_rotated.json,http://54.235.29.9/FacialAge/BNav_EC2/DepthDuration/v2_depth_duration_MTurk/v2_DepthDuration_HTML.html#426,426,1366,625,1366,768,8-30-2022,11-26-16,41,depth_duration_stimuli/002953_2014-06-08_17-32-18_094959634447_rgbf000059-resize_5/002953_2014-06-08_17-32-18_094959634447_rgbf000059-resize_5-target.png,250,1.551,2,4375,250,feet,jsons/v1_VE250_randls_34_rotated.json,948335,1388415,25,Man
41,493852,DepthScenes,duration_manipulation_targetAtFixation,jsons/v1_VE250_randls_34_rotated.json,http://54.235.29.9/FacialAge/BNav_EC2/DepthDuration/v2_depth_duration_MTurk/v2_DepthDuration_HTML.html#426,426,1366,625,1366,768,8-30-2022,11-26-16,42,depth_duration_stimuli/000878_2014-06-08_22-52-45_260595134347_rgbf000045-resize_2/000878_2014-06-08_22-52-45_260595134347_rgbf000045-resize_2-target.png,250,2.092,3,3748,248,feet,jsons/v1_VE250_randls_34_rotated.json,948335,1388415,25,Man
42,493852,DepthScenes,duration_manipulation_targetAtFixation,jsons/v1_VE250_randls_34_rotated.json,http://54.235.29.9/FacialAge/BNav_EC2/DepthDuration/v2_depth_duration_MTurk/v2_DepthDuration_HTML.html#426,426,1366,625,1366,768,8-30-2022,11-26-16,43,depth_duration_stimuli/000677_2014-06-08_23-10-32_260595134347_rgbf000158-resize_6/000677_2014-06-08_23-10-32_260595134347_rgbf000158-resize_6-target.png,250,3.556,1,4192,250,feet,jsons/v1_VE250_randls_34_rotated.json,948335,1388415,25,Man
43,493852,DepthScenes,duration_manipulation_targetAtFixation,jsons/v1_VE250_randls_34_rotated.json,http://54.235.29.9/FacialAge/BNav_EC2/DepthDuration/v2_depth_duration_MTurk/v2_DepthDuration_HTML.html#426,426,1366,625,1366,768,8-30-2022,11-26-16,44,depth_duration_stimuli/001029_2014-06-08_13-17-57_260595134347_rgbf000065-resize_1/001029_2014-06-08_13-17-57_260595134347_rgbf000065-resize_1-target.png,250,3.0835,3,3308,251,feet,jsons/v1_VE250_randls_34_rotated.json,948335,1388415,25,Man
44,493852,DepthScenes,duration_manipulation_targetAtFixation,jsons/v1_VE250_randls_34_rotated.json,http://54.235.29.9/FacialAge/BNav_EC2/DepthDuration/v2_depth_duration_MTurk/v2_DepthDuration_HTML.html#426,426,1366,625,1366,768,8-30-2022,11-26-16,45,depth_duration_stimuli/001094_2014-06-15_17-36-00_260595134347_rgbf000205-resize_0/001094_2014-06-15_17-36-00_260595134347_rgbf000205-resize_0-target.png,250,4.2175,2,3413,251,feet,jsons/v1_VE250_randls_34_rotated.json,948335,1388415,25,Man
45,493852,DepthScenes,duration_manipulation_targetAtFixation,jsons/v1_VE250_randls_34_rotated.json,http://54.235.29.9/FacialAge/BNav_EC2/DepthDuration/v2_depth_duration_MTurk/v2_DepthDuration_HTML.html#426,426,1366,625,1366,768,8-30-2022,11-26-16,46,depth_duration_stimuli/000692_2014-06-08_13-09-42_260595134347_rgbf000199-resize_2/000692_2014-06-08_13-09-42_260595134347_rgbf000199-resize_2-target.png,250,3.661,2,4331,251,feet,jsons/v1_VE250_randls_34_rotated.json,948335,1388415,25,Man
46,493852,DepthScenes,duration_manipulation_targetAtFixation,jsons/v1_VE250_randls_34_rotated.json,http://54.235.29.9/FacialAge/BNav_EC2/DepthDuration/v2_depth_duration_MTurk/v2_DepthDuration_HTML.html#426,426,1366,625,1366,768,8-30-2022,11-26-16,47,depth_duration_stimuli/000665_2014-06-09_20-42-35_260595134347_rgbf000110-resize_1/000665_2014-06-09_20-42-35_260595134347_rgbf000110-resize_1-target.png,250,3.057,3,14099,250,feet,jsons/v1_VE250_randls_34_rotated.json,948335,1388415,25,Man
47,493852,DepthScenes,duration_manipulation_targetAtFixation,jsons/v1_VE250_randls_34_rotated.json,http://54.235.29.9/FacialAge/BNav_EC2/DepthDuration/v2_depth_duration_MTurk/v2_DepthDuration_HTML.html#426,426,1366,625,1366,768,8-30-2022,11-26-16,48,depth_duration_stimuli/001150_2014-06-17_15-27-34_260595134347_rgbf000108-resize_2/001150_2014-06-17_15-27-34_260595134347_rgbf000108-resize_2-target.png,250,4.0325,4,4380,248,feet,jsons/v1_VE250_randls_34_rotated.json,948335,1388415,25,Man
48,493852,DepthScenes,duration_manipulation_targetAtFixation,jsons/v1_VE250_randls_34_rotated.json,http://54.235.29.9/FacialAge/BNav_EC2/DepthDuration/v2_depth_duration_MTurk/v2_DepthDuration_HTML.html#426,426,1366,625,1366,768,8-30-2022,11-26-16,49,depth_duration_stimuli/001170_2014-06-17_15-43-44_260595134347_rgbf000096-resize_6/001170_2014-06-17_15-43-44_260595134347_rgbf000096-resize-original.jpg,250,1.1909999999999998,0,3339,251,feet,jsons/v1_VE250_randls_34_rotated.json,948335,1388415,25,Man
49,493852,DepthScenes,duration_manipulation_targetAtFixation,jsons/v1_VE250_randls_34_rotated.json,http://54.235.29.9/FacialAge/BNav_EC2/DepthDuration/v2_depth_duration_MTurk/v2_DepthDuration_HTML.html#426,426,1366,625,1366,768,8-30-2022,11-26-16,50,depth_duration_stimuli/001136_2014-06-17_15-19-41_260595134347_rgbf000076-resize_3/001136_2014-06-17_15-19-41_260595134347_rgbf000076-resize_3-target.png,250,1.8655,4,4737,251,feet,jsons/v1_VE250_randls_34_rotated.json,948335,1388415,25,Man
50,493852,DepthScenes,duration_manipulation_targetAtFixation,jsons/v1_VE250_randls_34_rotated.json,http://54.235.29.9/FacialAge/BNav_EC2/DepthDuration/v2_depth_duration_MTurk/v2_DepthDuration_HTML.html#426,426,1366,625,1366,768,8-30-2022,11-26-16,51,depth_duration_stimuli/001164_2014-06-17_15-35-46_260595134347_rgbf000085-resize_3/001164_2014-06-17_15-35-46_260595134347_rgbf000085-resize_3-target.png,250,2.354,3,15443,249,feet,jsons/v1_VE250_randls_34_rotated.json,948335,1388415,25,Man
51,493852,DepthScenes,duration_manipulation_targetAtFixation,jsons/v1_VE250_randls_34_rotated.json,http://54.235.29.9/FacialAge/BNav_EC2/DepthDuration/v2_depth_duration_MTurk/v2_DepthDuration_HTML.html#426,426,1366,625,1366,768,8-30-2022,11-26-16,52,depth_duration_stimuli/002136_2014-06-25_21-18-03_260595134347_rgbf000109-resize_3/002136_2014-06-25_21-18-03_260595134347_rgbf000109-resize_3-target.png,250,1.9569999999999999,4,3563,249,feet,jsons/v1_VE250_randls_34_rotated.json,948335,1388415,25,Man
52,493852,DepthScenes,duration_manipulation_targetAtFixation,jsons/v1_VE250_randls_34_rotated.json,http://54.235.29.9/FacialAge/BNav_EC2/DepthDuration/v2_depth_duration_MTurk/v2_DepthDuration_HTML.html#426,426,1366,625,1366,768,8-30-2022,11-26-16,53,depth_duration_stimuli/002964_2014-06-08_17-46-11_094959634447_rgbf000091-resize_4/002964_2014-06-08_17-46-11_094959634447_rgbf000091-resize_4-target.png,250,1.6909999999999998,2,3905,250,feet,jsons/v1_VE250_randls_34_rotated.json,948335,1388415,25,Man
53,493852,DepthScenes,duration_manipulation_targetAtFixation,jsons/v1_VE250_randls_34_rotated.json,http://54.235.29.9/FacialAge/BNav_EC2/DepthDuration/v2_depth_duration_MTurk/v2_DepthDuration_HTML.html#426,426,1366,625,1366,768,8-30-2022,11-26-16,54,depth_duration_stimuli/000137_2014-05-20_17-04-49_260595134347_rgbf000120-resize_1/000137_2014-05-20_17-04-49_260595134347_rgbf000120-resize_1-target.png,250,3.786,3,3330,250,feet,jsons/v1_VE250_randls_34_rotated.json,948335,1388415,25,Man
54,493852,DepthScenes,duration_manipulation_targetAtFixation,jsons/v1_VE250_randls_34_rotated.json,http://54.235.29.9/FacialAge/BNav_EC2/DepthDuration/v2_depth_duration_MTurk/v2_DepthDuration_HTML.html#426,426,1366,625,1366,768,8-30-2022,11-26-16,55,depth_duration_stimuli/000736_2014-06-08_18-24-15_260595134347_rgbf000206-resize_3/000736_2014-06-08_18-24-15_260595134347_rgbf000206-resize_3-target.png,250,3.515,2,3371,251,feet,jsons/v1_VE250_randls_34_rotated.json,948335,1388415,25,Man
55,493852,DepthScenes,duration_manipulation_targetAtFixation,jsons/v1_VE250_randls_34_rotated.json,http://54.235.29.9/FacialAge/BNav_EC2/DepthDuration/v2_depth_duration_MTurk/v2_DepthDuration_HTML.html#426,426,1366,625,1366,768,8-30-2022,11-26-16,56,depth_duration_stimuli/002750_2014-06-22_19-08-03_094959634447_rgbf000094-resize_4/002750_2014-06-22_19-08-03_094959634447_rgbf000094-resize_4-target.png,250,2.354,4,3443,251,feet,jsons/v1_VE250_randls_34_rotated.json,948335,1388415,25,Man
56,493852,DepthScenes,duration_manipulation_targetAtFixation,jsons/v1_VE250_randls_34_rotated.json,http://54.235.29.9/FacialAge/BNav_EC2/DepthDuration/v2_depth_duration_MTurk/v2_DepthDuration_HTML.html#426,426,1366,625,1366,768,8-30-2022,11-26-16,57,depth_duration_stimuli/002549_2014-06-24_13-41-39_094959634447_rgbf000022-resize_3/002549_2014-06-24_13-41-39_094959634447_rgbf000022-resize_3-target.png,250,1.476,3,3100,250,feet,jsons/v1_VE250_randls_34_rotated.json,948335,1388415,25,Man
57,493852,DepthScenes,duration_manipulation_targetAtFixation,jsons/v1_VE250_randls_34_rotated.json,http://54.235.29.9/FacialAge/BNav_EC2/DepthDuration/v2_depth_duration_MTurk/v2_DepthDuration_HTML.html#426,426,1366,625,1366,768,8-30-2022,11-26-16,58,depth_duration_stimuli/000927_2014-06-09_16-32-30_260595134347_rgbf000123-resize_3/000927_2014-06-09_16-32-30_260595134347_rgbf000123-resize_3-target.png,250,2.6785,4,3570,251,feet,jsons/v1_VE250_randls_34_rotated.json,948335,1388415,25,Man
58,493852,DepthScenes,duration_manipulation_targetAtFixation,jsons/v1_VE250_randls_34_rotated.json,http://54.235.29.9/FacialAge/BNav_EC2/DepthDuration/v2_depth_duration_MTurk/v2_DepthDuration_HTML.html#426,426,1366,625,1366,768,8-30-2022,11-26-16,59,depth_duration_stimuli/001110_2014-06-15_17-25-28_260595134347_rgbf000150-resize_1/001110_2014-06-15_17-25-28_260595134347_rgbf000150-resize_1-target.png,250,1.7115,3,3948,250,feet,jsons/v1_VE250_randls_34_rotated.json,948335,1388415,25,Man
59,493852,DepthScenes,duration_manipulation_targetAtFixation,jsons/v1_VE250_randls_34_rotated.json,http://54.235.29.9/FacialAge/BNav_EC2/DepthDuration/v2_depth_duration_MTurk/v2_DepthDuration_HTML.html#426,426,1366,625,1366,768,8-30-2022,11-26-16,60,depth_duration_stimuli/003010_2014-06-15_12-54-35_094959634447_rgbf000112-resize_0/003010_2014-06-15_12-54-35_094959634447_rgbf000112-resize_0-target.png,250,3.1185,1,4210,250,feet,jsons/v1_VE250_randls_34_rotated.json,948335,1388415,25,Man
60,493852,DepthScenes,duration_manipulation_targetAtFixation,jsons/v1_VE250_randls_34_rotated.json,http://54.235.29.9/FacialAge/BNav_EC2/DepthDuration/v2_depth_duration_MTurk/v2_DepthDuration_HTML.html#426,426,1366,625,1366,768,8-30-2022,11-26-16,61,depth_duration_stimuli/001810_2014-06-26_20-51-35_260595134347_rgbf000040-resize_3/001810_2014-06-26_20-51-35_260595134347_rgbf000040-resize_3-target.png,250,2.2525,3,3869,251,feet,jsons/v1_VE250_randls_34_rotated.json,948335,1388415,25,Man
61,493852,DepthScenes,duration_manipulation_targetAtFixation,jsons/v1_VE250_randls_34_rotated.json,http://54.235.29.9/FacialAge/BNav_EC2/DepthDuration/v2_depth_duration_MTurk/v2_DepthDuration_HTML.html#426,426,1366,625,1366,768,8-30-2022,11-26-16,62,depth_duration_stimuli/002995_2014-06-15_12-31-26_094959634447_rgbf000150-resize_1/002995_2014-06-15_12-31-26_094959634447_rgbf000150-resize_1-target.png,250,3.8360000000000003,2,3713,251,feet,jsons/v1_VE250_randls_34_rotated.json,948335,1388415,25,Man
62,493852,DepthScenes,duration_manipulation_targetAtFixation,jsons/v1_VE250_randls_34_rotated.json,http://54.235.29.9/FacialAge/BNav_EC2/DepthDuration/v2_depth_duration_MTurk/v2_DepthDuration_HTML.html#426,426,1366,625,1366,768,8-30-2022,11-26-16,63,depth_duration_stimuli/002748_2014-06-22_19-07-22_094959634447_rgbf000078-resize_1/002748_2014-06-22_19-07-22_094959634447_rgbf000078-resize_1-target.png,250,4.6705,3,4675,251,feet,jsons/v1_VE250_randls_34_rotated.json,948335,1388415,25,Man
63,493852,DepthScenes,duration_manipulation_targetAtFixation,jsons/v1_VE250_randls_34_rotated.json,http://54.235.29.9/FacialAge/BNav_EC2/DepthDuration/v2_depth_duration_MTurk/v2_DepthDuration_HTML.html#426,426,1366,625,1366,768,8-30-2022,11-26-16,64,depth_duration_stimuli/002103_2014-06-25_20-00-40_260595134347_rgbf000049-resize_0/002103_2014-06-25_20-00-40_260595134347_rgbf000049-resize_0-target.png,250,4.105,0,3906,250,feet,jsons/v1_VE250_randls_34_rotated.json,948335,1388415,25,Man
64,493852,DepthScenes,duration_manipulation_targetAtFixation,jsons/v1_VE250_randls_34_rotated.json,http://54.235.29.9/FacialAge/BNav_EC2/DepthDuration/v2_depth_duration_MTurk/v2_DepthDuration_HTML.html#426,426,1366,625,1366,768,8-30-2022,11-26-16,65,depth_duration_stimuli/002039_2014-06-24_20-22-38_260595134347_rgbf000084-resize_1/002039_2014-06-24_20-22-38_260595134347_rgbf000084-resize_1-target.png,250,4.408,4,3243,249,feet,jsons/v1_VE250_randls_34_rotated.json,948335,1388415,25,Man
65,493852,DepthScenes,duration_manipulation_targetAtFixation,jsons/v1_VE250_randls_34_rotated.json,http://54.235.29.9/FacialAge/BNav_EC2/DepthDuration/v2_depth_duration_MTurk/v2_DepthDuration_HTML.html#426,426,1366,625,1366,768,8-30-2022,11-26-16,66,depth_duration_stimuli/001540_2014-06-20_17-01-05_260595134347_rgbf000086-resize_2/001540_2014-06-20_17-01-05_260595134347_rgbf000086-resize-original.jpg,250,1.459,0,3074,248,feet,jsons/v1_VE250_randls_34_rotated.json,948335,1388415,25,Man
66,493852,DepthScenes,duration_manipulation_targetAtFixation,jsons/v1_VE250_randls_34_rotated.json,http://54.235.29.9/FacialAge/BNav_EC2/DepthDuration/v2_depth_duration_MTurk/v2_DepthDuration_HTML.html#426,426,1366,625,1366,768,8-30-2022,11-26-16,67,depth_duration_stimuli/000742_2014-06-08_18-48-09_260595134347_rgbf000164-resize_4/000742_2014-06-08_18-48-09_260595134347_rgbf000164-resize_4-target.png,250,4.632,3,3464,249,feet,jsons/v1_VE250_randls_34_rotated.json,948335,1388415,25,Man
67,493852,DepthScenes,duration_manipulation_targetAtFixation,jsons/v1_VE250_randls_34_rotated.json,http://54.235.29.9/FacialAge/BNav_EC2/DepthDuration/v2_depth_duration_MTurk/v2_DepthDuration_HTML.html#426,426,1366,625,1366,768,8-30-2022,11-26-16,68,depth_duration_stimuli/001066_2014-06-08_22-03-20_260595134347_rgbf000066-resize_4/001066_2014-06-08_22-03-20_260595134347_rgbf000066-resize_4-target.png,250,4.2330000000000005,2,3579,249,feet,jsons/v1_VE250_randls_34_rotated.json,948335,1388415,25,Man
68,493852,DepthScenes,duration_manipulation_targetAtFixation,jsons/v1_VE250_randls_34_rotated.json,http://54.235.29.9/FacialAge/BNav_EC2/DepthDuration/v2_depth_duration_MTurk/v2_DepthDuration_HTML.html#426,426,1366,625,1366,768,8-30-2022,11-26-16,69,depth_duration_stimuli/002199_2014-06-28_18-33-56_260595134347_rgbf000074-resize_0/002199_2014-06-28_18-33-56_260595134347_rgbf000074-resize_0-target.png,250,1.996,3,3131,250,feet,jsons/v1_VE250_randls_34_rotated.json,948335,1388415,25,Man
69,493852,DepthScenes,duration_manipulation_targetAtFixation,jsons/v1_VE250_randls_34_rotated.json,http://54.235.29.9/FacialAge/BNav_EC2/DepthDuration/v2_depth_duration_MTurk/v2_DepthDuration_HTML.html#426,426,1366,625,1366,768,8-30-2022,11-26-16,70,depth_duration_stimuli/001056_2014-06-08_18-46-44_260595134347_rgbf000068-resize_0/001056_2014-06-08_18-46-44_260595134347_rgbf000068-resize_0-target.png,250,2.6625,2,3899,250,feet,jsons/v1_VE250_randls_34_rotated.json,948335,1388415,25,Man
70,493852,DepthScenes,duration_manipulation_targetAtFixation,jsons/v1_VE250_randls_34_rotated.json,http://54.235.29.9/FacialAge/BNav_EC2/DepthDuration/v2_depth_duration_MTurk/v2_DepthDuration_HTML.html#426,426,1366,625,1366,768,8-30-2022,11-26-16,71,depth_duration_stimuli/002805_2014-06-22_19-54-03_094959634447_rgbf000079-resize_1/002805_2014-06-22_19-54-03_094959634447_rgbf000079-resize_1-target.png,250,3.1439999999999997,2,3950,248,feet,jsons/v1_VE250_randls_34_rotated.json,948335,1388415,25,Man
71,493852,DepthScenes,duration_manipulation_targetAtFixation,jsons/v1_VE250_randls_34_rotated.json,http://54.235.29.9/FacialAge/BNav_EC2/DepthDuration/v2_depth_duration_MTurk/v2_DepthDuration_HTML.html#426,426,1366,625,1366,768,8-30-2022,11-26-16,72,depth_duration_stimuli/000906_2014-06-08_13-35-43_260595134347_rgbf000155-resize_1/000906_2014-06-08_13-35-43_260595134347_rgbf000155-resize_1-target.png,250,2.8489999999999998,3,3021,249,feet,jsons/v1_VE250_randls_34_rotated.json,948335,1388415,25,Man
72,493852,DepthScenes,duration_manipulation_targetAtFixation,jsons/v1_VE250_randls_34_rotated.json,http://54.235.29.9/FacialAge/BNav_EC2/DepthDuration/v2_depth_duration_MTurk/v2_DepthDuration_HTML.html#426,426,1366,625,1366,768,8-30-2022,11-26-16,73,depth_duration_stimuli/003338_2014-05-20_11-01-23_094959634447_rgbf000051-resize_6/003338_2014-05-20_11-01-23_094959634447_rgbf000051-resize_6-target.png,250,1.693,3,3651,249,feet,jsons/v1_VE250_randls_34_rotated.json,948335,1388415,25,Man
73,493852,DepthScenes,duration_manipulation_targetAtFixation,jsons/v1_VE250_randls_34_rotated.json,http://54.235.29.9/FacialAge/BNav_EC2/DepthDuration/v2_depth_duration_MTurk/v2_DepthDuration_HTML.html#426,426,1366,625,1366,768,8-30-2022,11-26-16,74,depth_duration_stimuli/002509_2014-06-24_13-19-22_094959634447_rgbf000077-resize_0/002509_2014-06-24_13-19-22_094959634447_rgbf000077-resize_0-target.png,250,1.3065,2,3539,249,feet,jsons/v1_VE250_randls_34_rotated.json,948335,1388415,25,Man
74,493852,DepthScenes,duration_manipulation_targetAtFixation,jsons/v1_VE250_randls_34_rotated.json,http://54.235.29.9/FacialAge/BNav_EC2/DepthDuration/v2_depth_duration_MTurk/v2_DepthDuration_HTML.html#426,426,1366,625,1366,768,8-30-2022,11-26-16,75,depth_duration_stimuli/003490_2014-05-21_15-50-11_094959634447_rgbf000101-resize_3/003490_2014-05-21_15-50-11_094959634447_rgbf000101-resize_3-target.png,250,3.6445,2,6211,250,feet,jsons/v1_VE250_randls_34_rotated.json,948335,1388415,25,Man
75,493852,DepthScenes,duration_manipulation_targetAtFixation,jsons/v1_VE250_randls_34_rotated.json,http://54.235.29.9/FacialAge/BNav_EC2/DepthDuration/v2_depth_duration_MTurk/v2_DepthDuration_HTML.html#426,426,1366,625,1366,768,8-30-2022,11-26-16,76,depth_duration_stimuli/001175_2014-06-17_15-45-55_260595134347_rgbf000129-resize_4/001175_2014-06-17_15-45-55_260595134347_rgbf000129-resize_4-target.png,250,4.255,3,4280,249,feet,jsons/v1_VE250_randls_34_rotated.json,948335,1388415,25,Man
76,493852,DepthScenes,duration_manipulation_targetAtFixation,jsons/v1_VE250_randls_34_rotated.json,http://54.235.29.9/FacialAge/BNav_EC2/DepthDuration/v2_depth_duration_MTurk/v2_DepthDuration_HTML.html#426,426,1366,625,1366,768,8-30-2022,11-26-16,77,depth_duration_stimuli/003423_2014-05-21_10-23-26_094959634447_rgbf002665-resize_2/003423_2014-05-21_10-23-26_094959634447_rgbf002665-resize_2-target.png,250,3.2575,4,4124,250,feet,jsons/v1_VE250_randls_34_rotated.json,948335,1388415,25,Man
77,493852,DepthScenes,duration_manipulation_targetAtFixation,jsons/v1_VE250_randls_34_rotated.json,http://54.235.29.9/FacialAge/BNav_EC2/DepthDuration/v2_depth_duration_MTurk/v2_DepthDuration_HTML.html#426,426,1366,625,1366,768,8-30-2022,11-26-16,78,depth_duration_stimuli/002905_2014-06-03_18-04-43_094959634447_rgbf000151-resize_2/002905_2014-06-03_18-04-43_094959634447_rgbf000151-resize_2-target.png,250,2.0295,3,80086,250,feet,jsons/v1_VE250_randls_34_rotated.json,948335,1388415,25,Man
78,493852,DepthScenes,duration_manipulation_targetAtFixation,jsons/v1_VE250_randls_34_rotated.json,http://54.235.29.9/FacialAge/BNav_EC2/DepthDuration/v2_depth_duration_MTurk/v2_DepthDuration_HTML.html#426,426,1366,625,1366,768,8-30-2022,11-26-16,79,depth_duration_stimuli/000635_2014-06-08_16-38-42_260595134347_rgbf000106-resize_1/000635_2014-06-08_16-38-42_260595134347_rgbf000106-resize_1-target.png,250,2.074,2,3258,249,feet,jsons/v1_VE250_randls_34_rotated.json,948335,1388415,25,Man
79,493852,DepthScenes,duration_manipulation_targetAtFixation,jsons/v1_VE250_randls_34_rotated.json,http://54.235.29.9/FacialAge/BNav_EC2/DepthDuration/v2_depth_duration_MTurk/v2_DepthDuration_HTML.html#426,426,1366,625,1366,768,8-30-2022,11-26-16,80,depth_duration_stimuli/002279_2014-06-28_18-55-32_260595134347_rgbf000040-resize_5/002279_2014-06-28_18-55-32_260595134347_rgbf000040-resize_5-target.png,250,1.5043333333333,1,4732,249,feet,jsons/v1_VE250_randls_34_rotated.json,948335,1388415,25,Man
80,493852,DepthScenes,duration_manipulation_targetAtFixation,jsons/v1_VE250_randls_34_rotated.json,http://54.235.29.9/FacialAge/BNav_EC2/DepthDuration/v2_depth_duration_MTurk/v2_DepthDuration_HTML.html#426,426,1366,625,1366,768,8-30-2022,11-26-16,81,depth_duration_stimuli/001828_2014-06-26_21-40-03_260595134347_rgbf000024-resize_0/001828_2014-06-26_21-40-03_260595134347_rgbf000024-resize_0-target.png,250,4.8260000000000005,2,3138,250,feet,jsons/v1_VE250_randls_34_rotated.json,948335,1388415,25,Man
81,493852,DepthScenes,duration_manipulation_targetAtFixation,jsons/v1_VE250_randls_34_rotated.json,http://54.235.29.9/FacialAge/BNav_EC2/DepthDuration/v2_depth_duration_MTurk/v2_DepthDuration_HTML.html#426,426,1366,625,1366,768,8-30-2022,11-26-16,82,depth_duration_stimuli/000009_2014-05-26_14-32-05_260595134347_rgbf000034-resize_3/000009_2014-05-26_14-32-05_260595134347_rgbf000034-resize_3-target.png,250,3.8715,3,3169,249,feet,jsons/v1_VE250_randls_34_rotated.json,948335,1388415,25,Man
82,493852,DepthScenes,duration_manipulation_targetAtFixation,jsons/v1_VE250_randls_34_rotated.json,http://54.235.29.9/FacialAge/BNav_EC2/DepthDuration/v2_depth_duration_MTurk/v2_DepthDuration_HTML.html#426,426,1366,625,1366,768,8-30-2022,11-26-16,83,depth_duration_stimuli/001584_2014-06-20_11-07-43_260595134347_rgbf000002-resize_1/001584_2014-06-20_11-07-43_260595134347_rgbf000002-resize_1-target.png,250,3.53,5,3138,249,feet,jsons/v1_VE250_randls_34_rotated.json,948335,1388415,25,Man
83,493852,DepthScenes,duration_manipulation_targetAtFixation,jsons/v1_VE250_randls_34_rotated.json,http://54.235.29.9/FacialAge/BNav_EC2/DepthDuration/v2_depth_duration_MTurk/v2_DepthDuration_HTML.html#426,426,1366,625,1366,768,8-30-2022,11-26-16,84,depth_duration_stimuli/003621_2014-05-23_18-06-08_094959634447_rgbf000101-resize_1/003621_2014-05-23_18-06-08_094959634447_rgbf000101-resize_1-target.png,250,3.9835,4,3837,251,feet,jsons/v1_VE250_randls_34_rotated.json,948335,1388415,25,Man
84,493852,DepthScenes,duration_manipulation_targetAtFixation,jsons/v1_VE250_randls_34_rotated.json,http://54.235.29.9/FacialAge/BNav_EC2/DepthDuration/v2_depth_duration_MTurk/v2_DepthDuration_HTML.html#426,426,1366,625,1366,768,8-30-2022,11-26-16,85,depth_duration_stimuli/001650_2014-06-20_12-09-00_260595134347_rgbf000087-resize_3/001650_2014-06-20_12-09-00_260595134347_rgbf000087-resize_3-target.png,250,1.9505,3,3153,250,feet,jsons/v1_VE250_randls_34_rotated.json,948335,1388415,25,Man
85,493852,DepthScenes,duration_manipulation_targetAtFixation,jsons/v1_VE250_randls_34_rotated.json,http://54.235.29.9/FacialAge/BNav_EC2/DepthDuration/v2_depth_duration_MTurk/v2_DepthDuration_HTML.html#426,426,1366,625,1366,768,8-30-2022,11-26-16,86,depth_duration_stimuli/000682_2014-06-08_23-14-58_260595134347_rgbf000041-resize_5/000682_2014-06-08_23-14-58_260595134347_rgbf000041-resize_5-target.png,250,2.7239999999999998,2,3441,250,feet,jsons/v1_VE250_randls_34_rotated.json,948335,1388415,25,Man
86,493852,DepthScenes,duration_manipulation_targetAtFixation,jsons/v1_VE250_randls_34_rotated.json,http://54.235.29.9/FacialAge/BNav_EC2/DepthDuration/v2_depth_duration_MTurk/v2_DepthDuration_HTML.html#426,426,1366,625,1366,768,8-30-2022,11-26-16,87,depth_duration_stimuli/002660_2014-06-13_15-44-18_094959634447_rgbf001878-resize_2/002660_2014-06-13_15-44-18_094959634447_rgbf001878-resize_2-target.png,250,3.576,3,3731,249,feet,jsons/v1_VE250_randls_34_rotated.json,948335,1388415,25,Man
87,493852,DepthScenes,duration_manipulation_targetAtFixation,jsons/v1_VE250_randls_34_rotated.json,http://54.235.29.9/FacialAge/BNav_EC2/DepthDuration/v2_depth_duration_MTurk/v2_DepthDuration_HTML.html#426,426,1366,625,1366,768,8-30-2022,11-26-16,88,depth_duration_stimuli/002153_2014-06-25_21-27-18_260595134347_rgbf000038-resize_5/002153_2014-06-25_21-27-18_260595134347_rgbf000038-resize_5-target.png,250,2.505,3,3275,250,feet,jsons/v1_VE250_randls_34_rotated.json,948335,1388415,25,Man
88,493852,DepthScenes,duration_manipulation_targetAtFixation,jsons/v1_VE250_randls_34_rotated.json,http://54.235.29.9/FacialAge/BNav_EC2/DepthDuration/v2_depth_duration_MTurk/v2_DepthDuration_HTML.html#426,426,1366,625,1366,768,8-30-2022,11-26-16,89,depth_duration_stimuli/000780_2014-06-08_22-28-29_260595134347_rgbf000126-resize_1/000780_2014-06-08_22-28-29_260595134347_rgbf000126-resize_1-target.png,250,3.3825,2,3402,251,feet,jsons/v1_VE250_randls_34_rotated.json,948335,1388415,25,Man
89,493852,DepthScenes,duration_manipulation_targetAtFixation,jsons/v1_VE250_randls_34_rotated.json,http://54.235.29.9/FacialAge/BNav_EC2/DepthDuration/v2_depth_duration_MTurk/v2_DepthDuration_HTML.html#426,426,1366,625,1366,768,8-30-2022,11-26-16,90,depth_duration_stimuli/002445_2014-06-28_20-32-16_260595134347_rgbf000029-resize_4/002445_2014-06-28_20-32-16_260595134347_rgbf000029-resize_4-target.png,250,2.5315,1,5730,249,feet,jsons/v1_VE250_randls_34_rotated.json,948335,1388415,25,Man
90,493852,DepthScenes,duration_manipulation_targetAtFixation,jsons/v1_VE250_randls_34_rotated.json,http://54.235.29.9/FacialAge/BNav_EC2/DepthDuration/v2_depth_duration_MTurk/v2_DepthDuration_HTML.html#426,426,1366,625,1366,768,8-30-2022,11-26-16,91,depth_duration_stimuli/002678_2014-06-13_16-15-32_094959634447_rgbf000151-resize_6/002678_2014-06-13_16-15-32_094959634447_rgbf000151-resize_6-target.png,250,2.1830000000000003,2,3571,250,feet,jsons/v1_VE250_randls_34_rotated.json,948335,1388415,25,Man
91,493852,DepthScenes,duration_manipulation_targetAtFixation,jsons/v1_VE250_randls_34_rotated.json,http://54.235.29.9/FacialAge/BNav_EC2/DepthDuration/v2_depth_duration_MTurk/v2_DepthDuration_HTML.html#426,426,1366,625,1366,768,8-30-2022,11-26-16,92,depth_duration_stimuli/000368_2014-06-09_15-53-01_260595134347_rgbf000155-resize_2/000368_2014-06-09_15-53-01_260595134347_rgbf000155-resize_2-target.png,250,2.4859999999999998,3,3485,249,feet,jsons/v1_VE250_randls_34_rotated.json,948335,1388415,25,Man
92,493852,DepthScenes,duration_manipulation_targetAtFixation,jsons/v1_VE250_randls_34_rotated.json,http://54.235.29.9/FacialAge/BNav_EC2/DepthDuration/v2_depth_duration_MTurk/v2_DepthDuration_HTML.html#426,426,1366,625,1366,768,8-30-2022,11-26-16,93,depth_duration_stimuli/003079_2014-06-15_15-18-20_094959634447_rgbf000152-resize_8/003079_2014-06-15_15-18-20_094959634447_rgbf000152-resize_8-target.png,250,2.8775,2,3488,249,feet,jsons/v1_VE250_randls_34_rotated.json,948335,1388415,25,Man
93,493852,DepthScenes,duration_manipulation_targetAtFixation,jsons/v1_VE250_randls_34_rotated.json,http://54.235.29.9/FacialAge/BNav_EC2/DepthDuration/v2_depth_duration_MTurk/v2_DepthDuration_HTML.html#426,426,1366,625,1366,768,8-30-2022,11-26-16,94,depth_duration_stimuli/000506_2014-06-08_23-21-00_260595134347_rgbf000070-resize_7/000506_2014-06-08_23-21-00_260595134347_rgbf000070-resize_7-target.png,250,4.0585,3,3747,251,feet,jsons/v1_VE250_randls_34_rotated.json,948335,1388415,25,Man
94,493852,DepthScenes,duration_manipulation_targetAtFixation,jsons/v1_VE250_randls_34_rotated.json,http://54.235.29.9/FacialAge/BNav_EC2/DepthDuration/v2_depth_duration_MTurk/v2_DepthDuration_HTML.html#426,426,1366,625,1366,768,8-30-2022,11-26-16,95,depth_duration_stimuli/000549_2014-06-08_22-10-24_260595134347_rgbf000247-resize_3/000549_2014-06-08_22-10-24_260595134347_rgbf000247-resize_3-target.png,250,1.841,1,5011,250,feet,jsons/v1_VE250_randls_34_rotated.json,948335,1388415,25,Man
95,493852,DepthScenes,duration_manipulation_targetAtFixation,jsons/v1_VE250_randls_34_rotated.json,http://54.235.29.9/FacialAge/BNav_EC2/DepthDuration/v2_depth_duration_MTurk/v2_DepthDuration_HTML.html#426,426,1366,625,1366,768,8-30-2022,11-26-16,96,depth_duration_stimuli/001055_2014-06-08_18-45-35_260595134347_rgbf000111-resize_4/001055_2014-06-08_18-45-35_260595134347_rgbf000111-resize_4-target.png,250,2.4290000000000003,3,3924,249,feet,jsons/v1_VE250_randls_34_rotated.json,948335,1388415,25,Man
96,493852,DepthScenes,duration_manipulation_targetAtFixation,jsons/v1_VE250_randls_34_rotated.json,http://54.235.29.9/FacialAge/BNav_EC2/DepthDuration/v2_depth_duration_MTurk/v2_DepthDuration_HTML.html#426,426,1366,625,1366,768,8-30-2022,11-26-16,97,depth_duration_stimuli/000749_2014-06-08_21-55-06_260595134347_rgbf000070-resize_2/000749_2014-06-08_21-55-06_260595134347_rgbf000070-resize_2-target.png,250,2.331,2,3297,250,feet,jsons/v1_VE250_randls_34_rotated.json,948335,1388415,25,Man
97,493852,DepthScenes,duration_manipulation_targetAtFixation,jsons/v1_VE250_randls_34_rotated.json,http://54.235.29.9/FacialAge/BNav_EC2/DepthDuration/v2_depth_duration_MTurk/v2_DepthDuration_HTML.html#426,426,1366,625,1366,768,8-30-2022,11-26-16,98,depth_duration_stimuli/002788_2014-06-22_19-36-03_094959634447_rgbf000088-resize_2/002788_2014-06-22_19-36-03_094959634447_rgbf000088-resize_2-target.png,250,1.6465,2,3339,251,feet,jsons/v1_VE250_randls_34_rotated.json,948335,1388415,25,Man
98,493852,DepthScenes,duration_manipulation_targetAtFixation,jsons/v1_VE250_randls_34_rotated.json,http://54.235.29.9/FacialAge/BNav_EC2/DepthDuration/v2_depth_duration_MTurk/v2_DepthDuration_HTML.html#426,426,1366,625,1366,768,8-30-2022,11-26-16,99,depth_duration_stimuli/001222_2014-06-17_16-24-06_260595134347_rgbf000073-resize_0/001222_2014-06-17_16-24-06_260595134347_rgbf000073-resize-original.jpg,250,1.4385,0,3388,250,feet,jsons/v1_VE250_randls_34_rotated.json,948335,1388415,25,Man
99,493852,DepthScenes,duration_manipulation_targetAtFixation,jsons/v1_VE250_randls_34_rotated.json,http://54.235.29.9/FacialAge/BNav_EC2/DepthDuration/v2_depth_duration_MTurk/v2_DepthDuration_HTML.html#426,426,1366,625,1366,768,8-30-2022,11-26-16,100,depth_duration_stimuli/000502_2014-06-08_23-02-32_260595134347_rgbf000063-resize_4/000502_2014-06-08_23-02-32_260595134347_rgbf000063-resize_4-target.png,250,2.431,1,3443,250,feet,jsons/v1_VE250_randls_34_rotated.json,948335,1388415,25,Man
100,493852,DepthScenes,duration_manipulation_targetAtFixation,jsons/v1_VE250_randls_34_rotated.json,http://54.235.29.9/FacialAge/BNav_EC2/DepthDuration/v2_depth_duration_MTurk/v2_DepthDuration_HTML.html#426,426,1366,625,1366,768,8-30-2022,11-26-16,101,depth_duration_stimuli/001199_2014-06-17_16-03-48_260595134347_rgbf000077-resize_0/001199_2014-06-17_16-03-48_260595134347_rgbf000077-resize_0-target.png,250,3.4375,3,3500,251,feet,jsons/v1_VE250_randls_34_rotated.json,948335,1388415,25,Man
101,493852,DepthScenes,duration_manipulation_targetAtFixation,jsons/v1_VE250_randls_34_rotated.json,http://54.235.29.9/FacialAge/BNav_EC2/DepthDuration/v2_depth_duration_MTurk/v2_DepthDuration_HTML.html#426,426,1366,625,1366,768,8-30-2022,11-26-16,102,depth_duration_stimuli/002545_2014-06-24_13-38-53_094959634447_rgbf000080-resize_4/002545_2014-06-24_13-38-53_094959634447_rgbf000080-resize_4-target.png,250,1.9205,5,4208,250,feet,jsons/v1_VE250_randls_34_rotated.json,948335,1388415,25,Man
102,493852,DepthScenes,duration_manipulation_targetAtFixation,jsons/v1_VE250_randls_34_rotated.json,http://54.235.29.9/FacialAge/BNav_EC2/DepthDuration/v2_depth_duration_MTurk/v2_DepthDuration_HTML.html#426,426,1366,625,1366,768,8-30-2022,11-26-16,103,depth_duration_stimuli/001092_2014-06-15_17-34-58_260595134347_rgbf000171-resize_3/001092_2014-06-15_17-34-58_260595134347_rgbf000171-resize_3-target.png,250,2.6935,3,3371,528,feet,jsons/v1_VE250_randls_34_rotated.json,948335,1388415,25,Man
103,493852,DepthScenes,duration_manipulation_targetAtFixation,jsons/v1_VE250_randls_34_rotated.json,http://54.235.29.9/FacialAge/BNav_EC2/DepthDuration/v2_depth_duration_MTurk/v2_DepthDuration_HTML.html#426,426,1366,625,1366,768,8-30-2022,11-26-16,104,depth_duration_stimuli/001815_2014-06-26_20-52-55_260595134347_rgbf000020-resize_0/001815_2014-06-26_20-52-55_260595134347_rgbf000020-resize_0-target.png,250,3.3865,2,3218,248,feet,jsons/v1_VE250_randls_34_rotated.json,948335,1388415,25,Man
104,493852,DepthScenes,duration_manipulation_targetAtFixation,jsons/v1_VE250_randls_34_rotated.json,http://54.235.29.9/FacialAge/BNav_EC2/DepthDuration/v2_depth_duration_MTurk/v2_DepthDuration_HTML.html#426,426,1366,625,1366,768,8-30-2022,11-26-16,105,depth_duration_stimuli/001808_2014-06-26_20-50-58_260595134347_rgbf000029-resize_1/001808_2014-06-26_20-50-58_260595134347_rgbf000029-resize_1-target.png,250,4.249,3,3130,251,feet,jsons/v1_VE250_randls_34_rotated.json,948335,1388415,25,Man
105,493852,DepthScenes,duration_manipulation_targetAtFixation,jsons/v1_VE250_randls_34_rotated.json,http://54.235.29.9/FacialAge/BNav_EC2/DepthDuration/v2_depth_duration_MTurk/v2_DepthDuration_HTML.html#426,426,1366,625,1366,768,8-30-2022,11-26-16,106,depth_duration_stimuli/002340_2014-06-28_20-05-46_260595134347_rgbf000113-resize_0/002340_2014-06-28_20-05-46_260595134347_rgbf000113-resize_0-target.png,250,2.4735,2,3347,250,feet,jsons/v1_VE250_randls_34_rotated.json,948335,1388415,25,Man
106,493852,DepthScenes,duration_manipulation_targetAtFixation,jsons/v1_VE250_randls_34_rotated.json,http://54.235.29.9/FacialAge/BNav_EC2/DepthDuration/v2_depth_duration_MTurk/v2_DepthDuration_HTML.html#426,426,1366,625,1366,768,8-30-2022,11-26-16,107,depth_duration_stimuli/001016_2014-06-09_16-16-10_260595134347_rgbf000112-resize_5/001016_2014-06-09_16-16-10_260595134347_rgbf000112-resize_5-target.png,250,1.6565,2,3441,251,feet,jsons/v1_VE250_randls_34_rotated.json,948335,1388415,25,Man
107,493852,DepthScenes,duration_manipulation_targetAtFixation,jsons/v1_VE250_randls_34_rotated.json,http://54.235.29.9/FacialAge/BNav_EC2/DepthDuration/v2_depth_duration_MTurk/v2_DepthDuration_HTML.html#426,426,1366,625,1366,768,8-30-2022,11-26-16,108,depth_duration_stimuli/002875_2014-06-01_15-19-00_094959634447_rgbf000151-resize_1/002875_2014-06-01_15-19-00_094959634447_rgbf000151-resize_1-target.png,250,1.9675,1,3142,250,feet,jsons/v1_VE250_randls_34_rotated.json,948335,1388415,25,Man
108,493852,DepthScenes,duration_manipulation_targetAtFixation,jsons/v1_VE250_randls_34_rotated.json,http://54.235.29.9/FacialAge/BNav_EC2/DepthDuration/v2_depth_duration_MTurk/v2_DepthDuration_HTML.html#426,426,1366,625,1366,768,8-30-2022,11-26-16,109,depth_duration_stimuli/001011_2014-06-08_23-18-54_260595134347_rgbf000044-resize_4/001011_2014-06-08_23-18-54_260595134347_rgbf000044-resize_4-target.png,250,2.4730000000000003,3,30626,248,feet,jsons/v1_VE250_randls_34_rotated.json,948335,1388415,25,Man
109,493852,DepthScenes,duration_manipulation_targetAtFixation,jsons/v1_VE250_randls_34_rotated.json,http://54.235.29.9/FacialAge/BNav_EC2/DepthDuration/v2_depth_duration_MTurk/v2_DepthDuration_HTML.html#426,426,1366,625,1366,768,8-30-2022,11-26-16,110,depth_duration_stimuli/002568_2014-06-24_13-59-21_094959634447_rgbf000062-resize_4/002568_2014-06-24_13-59-21_094959634447_rgbf000062-resize_4-target.png,250,3.015,2,3212,251,feet,jsons/v1_VE250_randls_34_rotated.json,948335,1388415,25,Man
110,493852,DepthScenes,duration_manipulation_targetAtFixation,jsons/v1_VE250_randls_34_rotated.json,http://54.235.29.9/FacialAge/BNav_EC2/DepthDuration/v2_depth_duration_MTurk/v2_DepthDuration_HTML.html#426,426,1366,625,1366,768,8-30-2022,11-26-16,111,depth_duration_stimuli/003492_2014-05-21_15-50-55_094959634447_rgbf000828-resize_1/003492_2014-05-21_15-50-55_094959634447_rgbf000828-resize_1-target.png,250,4.06875,3,3707,250,feet,jsons/v1_VE250_randls_34_rotated.json,948335,1388415,25,Man
111,493852,DepthScenes,duration_manipulation_targetAtFixation,jsons/v1_VE250_randls_34_rotated.json,http://54.235.29.9/FacialAge/BNav_EC2/DepthDuration/v2_depth_duration_MTurk/v2_DepthDuration_HTML.html#426,426,1366,625,1366,768,8-30-2022,11-26-16,112,depth_duration_stimuli/002323_2014-06-28_20-01-54_260595134347_rgbf000051-resize_4/002323_2014-06-28_20-01-54_260595134347_rgbf000051-resize_4-target.png,250,3.7310000000000003,2,3403,250,feet,jsons/v1_VE250_randls_34_rotated.json,948335,1388415,25,Man
112,493852,DepthScenes,duration_manipulation_targetAtFixation,jsons/v1_VE250_randls_34_rotated.json,http://54.235.29.9/FacialAge/BNav_EC2/DepthDuration/v2_depth_duration_MTurk/v2_DepthDuration_HTML.html#426,426,1366,625,1366,768,8-30-2022,11-26-16,113,depth_duration_stimuli/000917_2014-06-09_22-45-29_260595134347_rgbf000149-resize_3/000917_2014-06-09_22-45-29_260595134347_rgbf000149-resize_3-target.png,250,4.1865,3,3554,250,feet,jsons/v1_VE250_randls_34_rotated.json,948335,1388415,25,Man
113,493852,DepthScenes,duration_manipulation_targetAtFixation,jsons/v1_VE250_randls_34_rotated.json,http://54.235.29.9/FacialAge/BNav_EC2/DepthDuration/v2_depth_duration_MTurk/v2_DepthDuration_HTML.html#426,426,1366,625,1366,768,8-30-2022,11-26-16,114,depth_duration_stimuli/002467_2014-06-28_20-38-07_260595134347_rgbf000026-resize_2/002467_2014-06-28_20-38-07_260595134347_rgbf000026-resize_2-target.png,250,4.742,4,4051,248,feet,jsons/v1_VE250_randls_34_rotated.json,948335,1388415,25,Man
114,493852,DepthScenes,duration_manipulation_targetAtFixation,jsons/v1_VE250_randls_34_rotated.json,http://54.235.29.9/FacialAge/BNav_EC2/DepthDuration/v2_depth_duration_MTurk/v2_DepthDuration_HTML.html#426,426,1366,625,1366,768,8-30-2022,11-26-16,115,depth_duration_stimuli/002570_2014-06-24_13-59-54_094959634447_rgbf000059-resize_0/002570_2014-06-24_13-59-54_094959634447_rgbf000059-resize_0-target.png,250,4.037,3,5620,250,feet,jsons/v1_VE250_randls_34_rotated.json,948335,1388415,25,Man
115,493852,DepthScenes,duration_manipulation_targetAtFixation,jsons/v1_VE250_randls_34_rotated.json,http://54.235.29.9/FacialAge/BNav_EC2/DepthDuration/v2_depth_duration_MTurk/v2_DepthDuration_HTML.html#426,426,1366,625,1366,768,8-30-2022,11-26-16,116,depth_duration_stimuli/002639_2014-06-24_14-51-37_094959634447_rgbf000074-resize_4/002639_2014-06-24_14-51-37_094959634447_rgbf000074-resize_4-target.png,250,4.0375,2,5404,249,feet,jsons/v1_VE250_randls_34_rotated.json,948335,1388415,25,Man
116,493852,DepthScenes,duration_manipulation_targetAtFixation,jsons/v1_VE250_randls_34_rotated.json,http://54.235.29.9/FacialAge/BNav_EC2/DepthDuration/v2_depth_duration_MTurk/v2_DepthDuration_HTML.html#426,426,1366,625,1366,768,8-30-2022,11-26-16,117,depth_duration_stimuli/003292_2014-05-14_21-53-49_094959634447_rgbf000100-resize_2/003292_2014-05-14_21-53-49_094959634447_rgbf000100-resize_2-target.png,250,3.4815,2,4200,248,feet,jsons/v1_VE250_randls_34_rotated.json,948335,1388415,25,Man
117,493852,DepthScenes,duration_manipulation_targetAtFixation,jsons/v1_VE250_randls_34_rotated.json,http://54.235.29.9/FacialAge/BNav_EC2/DepthDuration/v2_depth_duration_MTurk/v2_DepthDuration_HTML.html#426,426,1366,625,1366,768,8-30-2022,11-26-16,118,depth_duration_stimuli/000943_2014-06-09_19-31-07_260595134347_rgbf000128-resize_1/000943_2014-06-09_19-31-07_260595134347_rgbf000128-resize_1-target.png,250,1.9765,3,3642,250,feet,jsons/v1_VE250_randls_34_rotated.json,948335,1388415,25,Man
118,493852,DepthScenes,duration_manipulation_targetAtFixation,jsons/v1_VE250_randls_34_rotated.json,http://54.235.29.9/FacialAge/BNav_EC2/DepthDuration/v2_depth_duration_MTurk/v2_DepthDuration_HTML.html#426,426,1366,625,1366,768,8-30-2022,11-26-16,119,depth_duration_stimuli/003070_2014-06-15_14-58-27_094959634447_rgbf000150-resize_3/003070_2014-06-15_14-58-27_094959634447_rgbf000150-resize_3-target.png,250,2.9415,1,3678,250,feet,jsons/v1_VE250_randls_34_rotated.json,948335,1388415,25,Man
119,493852,DepthScenes,duration_manipulation_targetAtFixation,jsons/v1_VE250_randls_34_rotated.json,http://54.235.29.9/FacialAge/BNav_EC2/DepthDuration/v2_depth_duration_MTurk/v2_DepthDuration_HTML.html#426,426,1366,625,1366,768,8-30-2022,11-26-16,120,depth_duration_stimuli/000787_2014-06-08_22-33-53_260595134347_rgbf000175-resize_1/000787_2014-06-08_22-33-53_260595134347_rgbf000175-resize-original.jpg,250,4.784,0,4556,250,feet,jsons/v1_VE250_randls_34_rotated.json,948335,1388415,25,Man
120,493852,DepthScenes,duration_manipulation_targetAtFixation,jsons/v1_VE250_randls_34_rotated.json,http://54.235.29.9/FacialAge/BNav_EC2/DepthDuration/v2_depth_duration_MTurk/v2_DepthDuration_HTML.html#426,426,1366,625,1366,768,8-30-2022,11-26-16,121,depth_duration_stimuli/000866_2014-06-09_20-45-42_260595134347_rgbf000139-resize_1/000866_2014-06-09_20-45-42_260595134347_rgbf000139-resize_1-target.png,250,3.2155,2,3630,250,feet,jsons/v1_VE250_randls_34_rotated.json,948335,1388415,25,Man
121,493852,DepthScenes,duration_manipulation_targetAtFixation,jsons/v1_VE250_randls_34_rotated.json,http://54.235.29.9/FacialAge/BNav_EC2/DepthDuration/v2_depth_duration_MTurk/v2_DepthDuration_HTML.html#426,426,1366,625,1366,768,8-30-2022,11-26-16,122,depth_duration_stimuli/002989_2014-06-15_12-25-03_094959634447_rgbf000150-resize_3/002989_2014-06-15_12-25-03_094959634447_rgbf000150-resize_3-target.png,250,4.1975,3,3362,250,feet,jsons/v1_VE250_randls_34_rotated.json,948335,1388415,25,Man
122,493852,DepthScenes,duration_manipulation_targetAtFixation,jsons/v1_VE250_randls_34_rotated.json,http://54.235.29.9/FacialAge/BNav_EC2/DepthDuration/v2_depth_duration_MTurk/v2_DepthDuration_HTML.html#426,426,1366,625,1366,768,8-30-2022,11-26-16,123,depth_duration_stimuli/001100_2014-06-15_17-46-26_260595134347_rgbf000225-resize_2/001100_2014-06-15_17-46-26_260595134347_rgbf000225-resize_2-target.png,250,2.24,1,3547,250,feet,jsons/v1_VE250_randls_34_rotated.json,948335,1388415,25,Man
123,493852,DepthScenes,duration_manipulation_targetAtFixation,jsons/v1_VE250_randls_34_rotated.json,http://54.235.29.9/FacialAge/BNav_EC2/DepthDuration/v2_depth_duration_MTurk/v2_DepthDuration_HTML.html#426,426,1366,625,1366,768,8-30-2022,11-26-16,124,depth_duration_stimuli/002784_2014-06-22_19-26-30_094959634447_rgbf000083-resize_3/002784_2014-06-22_19-26-30_094959634447_rgbf000083-resize_3-target.png,250,1.8046666666667,3,3714,250,feet,jsons/v1_VE250_randls_34_rotated.json,948335,1388415,25,Man
124,493852,DepthScenes,duration_manipulation_targetAtFixation,jsons/v1_VE250_randls_34_rotated.json,http://54.235.29.9/FacialAge/BNav_EC2/DepthDuration/v2_depth_duration_MTurk/v2_DepthDuration_HTML.html#426,426,1366,625,1366,768,8-30-2022,11-26-16,125,depth_duration_stimuli/000483_2014-06-09_20-41-45_260595134347_rgbf000116-resize_4/000483_2014-06-09_20-41-45_260595134347_rgbf000116-resize_4-target.png,250,1.337,2,3640,249,feet,jsons/v1_VE250_randls_34_rotated.json,948335,1388415,25,Man
125,493852,DepthScenes,duration_manipulation_targetAtFixation,jsons/v1_VE250_randls_34_rotated.json,http://54.235.29.9/FacialAge/BNav_EC2/DepthDuration/v2_depth_duration_MTurk/v2_DepthDuration_HTML.html#426,426,1366,625,1366,768,8-30-2022,11-26-16,126,depth_duration_stimuli/000469_2014-06-09_19-42-10_260595134347_rgbf000081-resize_1/000469_2014-06-09_19-42-10_260595134347_rgbf000081-resize_1-target.png,250,1.652,3,3139,249,feet,jsons/v1_VE250_randls_34_rotated.json,948335,1388415,25,Man
126,493852,DepthScenes,duration_manipulation_targetAtFixation,jsons/v1_VE250_randls_34_rotated.json,http://54.235.29.9/FacialAge/BNav_EC2/DepthDuration/v2_depth_duration_MTurk/v2_DepthDuration_HTML.html#426,426,1366,625,1366,768,8-30-2022,11-26-16,127,depth_duration_stimuli/000109_2014-05-14_23-41-52_260595134347_rgbf000035-resize_9/000109_2014-05-14_23-41-52_260595134347_rgbf000035-resize_9-target.png,250,1.3545,1,3509,251,feet,jsons/v1_VE250_randls_34_rotated.json,948335,1388415,25,Man
127,493852,DepthScenes,duration_manipulation_targetAtFixation,jsons/v1_VE250_randls_34_rotated.json,http://54.235.29.9/FacialAge/BNav_EC2/DepthDuration/v2_depth_duration_MTurk/v2_DepthDuration_HTML.html#426,426,1366,625,1366,768,8-30-2022,11-26-16,128,depth_duration_stimuli/000470_2014-06-09_19-42-40_260595134347_rgbf000094-resize_1/000470_2014-06-09_19-42-40_260595134347_rgbf000094-resize_1-target.png,250,1.831,2,3313,249,feet,jsons/v1_VE250_randls_34_rotated.json,948335,1388415,25,Man
128,493852,DepthScenes,duration_manipulation_targetAtFixation,jsons/v1_VE250_randls_34_rotated.json,http://54.235.29.9/FacialAge/BNav_EC2/DepthDuration/v2_depth_duration_MTurk/v2_DepthDuration_HTML.html#426,426,1366,625,1366,768,8-30-2022,11-26-16,129,depth_duration_stimuli/001132_2014-06-17_14-48-54_260595134347_rgbf000100-resize_2/001132_2014-06-17_14-48-54_260595134347_rgbf000100-resize_2-target.png,250,3.753,3,3340,249,feet,jsons/v1_VE250_randls_34_rotated.json,948335,1388415,25,Man
129,493852,DepthScenes,duration_manipulation_targetAtFixation,jsons/v1_VE250_randls_34_rotated.json,http://54.235.29.9/FacialAge/BNav_EC2/DepthDuration/v2_depth_duration_MTurk/v2_DepthDuration_HTML.html#426,426,1366,625,1366,768,8-30-2022,11-26-16,130,depth_duration_stimuli/001133_2014-06-17_14-49-16_260595134347_rgbf000100-resize_0/001133_2014-06-17_14-49-16_260595134347_rgbf000100-resize_0-target.png,250,4.2115,2,4033,250,feet,jsons/v1_VE250_randls_34_rotated.json,948335,1388415,25,Man
130,493852,DepthScenes,duration_manipulation_targetAtFixation,jsons/v1_VE250_randls_34_rotated.json,http://54.235.29.9/FacialAge/BNav_EC2/DepthDuration/v2_depth_duration_MTurk/v2_DepthDuration_HTML.html#426,426,1366,625,1366,768,8-30-2022,11-26-16,131,depth_duration_stimuli/001450_2014-06-19_17-02-03_260595134347_rgbf000203-resize_4/001450_2014-06-19_17-02-03_260595134347_rgbf000203-resize_4-target.png,250,4.0106666666667,2,3427,249,feet,jsons/v1_VE250_randls_34_rotated.json,948335,1388415,25,Man
131,493852,DepthScenes,duration_manipulation_targetAtFixation,jsons/v1_VE250_randls_34_rotated.json,http://54.235.29.9/FacialAge/BNav_EC2/DepthDuration/v2_depth_duration_MTurk/v2_DepthDuration_HTML.html#426,426,1366,625,1366,768,8-30-2022,11-26-16,132,depth_duration_stimuli/001449_2014-06-19_17-01-27_260595134347_rgbf000116-resize_2/001449_2014-06-19_17-01-27_260595134347_rgbf000116-resize_2-target.png,250,3.452,3,3441,249,feet,jsons/v1_VE250_randls_34_rotated.json,948335,1388415,25,Man
132,493852,DepthScenes,duration_manipulation_targetAtFixation,jsons/v1_VE250_randls_34_rotated.json,http://54.235.29.9/FacialAge/BNav_EC2/DepthDuration/v2_depth_duration_MTurk/v2_DepthDuration_HTML.html#426,426,1366,625,1366,768,8-30-2022,11-26-16,133,depth_duration_stimuli/003129_2014-05-12_10-48-10_094959634447_rgbf000100-resize_0/003129_2014-05-12_10-48-10_094959634447_rgbf000100-resize_0-target.png,250,4.9305,2,3218,249,feet,jsons/v1_VE250_randls_34_rotated.json,948335,1388415,25,Man
133,493852,DepthScenes,duration_manipulation_targetAtFixation,jsons/v1_VE250_randls_34_rotated.json,http://54.235.29.9/FacialAge/BNav_EC2/DepthDuration/v2_depth_duration_MTurk/v2_DepthDuration_HTML.html#426,426,1366,625,1366,768,8-30-2022,11-26-16,134,depth_duration_stimuli/000414_2014-06-04_19-49-13_260595134347_rgbf000044-resize_0/000414_2014-06-04_19-49-13_260595134347_rgbf000044-resize_0-target.png,250,4.329,3,19507,250,feet,jsons/v1_VE250_randls_34_rotated.json,948335,1388415,25,Man
134,493852,DepthScenes,duration_manipulation_targetAtFixation,jsons/v1_VE250_randls_34_rotated.json,http://54.235.29.9/FacialAge/BNav_EC2/DepthDuration/v2_depth_duration_MTurk/v2_DepthDuration_HTML.html#426,426,1366,625,1366,768,8-30-2022,11-26-16,135,depth_duration_stimuli/000375_2014-06-08_11-17-29_260595134347_rgbf000133-resize_2/000375_2014-06-08_11-17-29_260595134347_rgbf000133-resize-original.jpg,250,4.718,0,3233,250,feet,jsons/v1_VE250_randls_34_rotated.json,948335,1388415,25,Man
135,493852,DepthScenes,duration_manipulation_targetAtFixation,jsons/v1_VE250_randls_34_rotated.json,http://54.235.29.9/FacialAge/BNav_EC2/DepthDuration/v2_depth_duration_MTurk/v2_DepthDuration_HTML.html#426,426,1366,625,1366,768,8-30-2022,11-26-16,136,depth_duration_stimuli/003587_2014-05-23_16-48-02_094959634447_rgbf002384-resize_2/003587_2014-05-23_16-48-02_094959634447_rgbf002384-resize_2-target.png,250,1.357,2,3452,249,feet,jsons/v1_VE250_randls_34_rotated.json,948335,1388415,25,Man
136,493852,DepthScenes,duration_manipulation_targetAtFixation,jsons/v1_VE250_randls_34_rotated.json,http://54.235.29.9/FacialAge/BNav_EC2/DepthDuration/v2_depth_duration_MTurk/v2_DepthDuration_HTML.html#426,426,1366,625,1366,768,8-30-2022,11-26-16,137,depth_duration_stimuli/001167_2014-06-17_15-38-07_260595134347_rgbf000108-resize_0/001167_2014-06-17_15-38-07_260595134347_rgbf000108-resize_0-target.png,250,1.8505,6,3362,250,feet,jsons/v1_VE250_randls_34_rotated.json,948335,1388415,25,Man
137,493852,DepthScenes,duration_manipulation_targetAtFixation,jsons/v1_VE250_randls_34_rotated.json,http://54.235.29.9/FacialAge/BNav_EC2/DepthDuration/v2_depth_duration_MTurk/v2_DepthDuration_HTML.html#426,426,1366,625,1366,768,8-30-2022,11-26-16,138,depth_duration_stimuli/000709_2014-06-08_13-51-55_260595134347_rgbf000068-resize_3/000709_2014-06-08_13-51-55_260595134347_rgbf000068-resize_3-target.png,250,1.8030000000000002,0,3163,250,feet,jsons/v1_VE250_randls_34_rotated.json,948335,1388415,25,Man
138,493852,DepthScenes,duration_manipulation_targetAtFixation,jsons/v1_VE250_randls_34_rotated.json,http://54.235.29.9/FacialAge/BNav_EC2/DepthDuration/v2_depth_duration_MTurk/v2_DepthDuration_HTML.html#426,426,1366,625,1366,768,8-30-2022,11-26-16,139,depth_duration_stimuli/002057_2014-06-24_21-00-13_260595134347_rgbf000120-resize_1/002057_2014-06-24_21-00-13_260595134347_rgbf000120-resize_1-target.png,250,2.967,5,3300,250,feet,jsons/v1_VE250_randls_34_rotated.json,948335,1388415,25,Man
139,493852,DepthScenes,duration_manipulation_targetAtFixation,jsons/v1_VE250_randls_34_rotated.json,http://54.235.29.9/FacialAge/BNav_EC2/DepthDuration/v2_depth_duration_MTurk/v2_DepthDuration_HTML.html#426,426,1366,625,1366,768,8-30-2022,11-26-16,140,depth_duration_stimuli/002657_2014-06-13_15-29-54_094959634447_rgbf000150-resize_1/002657_2014-06-13_15-29-54_094959634447_rgbf000150-resize_1-target.png,250,4.919,3,3186,251,feet,jsons/v1_VE250_randls_34_rotated.json,948335,1388415,25,Man
140,493852,DepthScenes,duration_manipulation_targetAtFixation,jsons/v1_VE250_randls_34_rotated.json,http://54.235.29.9/FacialAge/BNav_EC2/DepthDuration/v2_depth_duration_MTurk/v2_DepthDuration_HTML.html#426,426,1366,625,1366,768,8-30-2022,11-26-16,141,depth_duration_stimuli/002375_2014-06-28_20-13-44_260595134347_rgbf000032-resize_1/002375_2014-06-28_20-13-44_260595134347_rgbf000032-resize_1-target.png,250,4.0175,3,3614,251,feet,jsons/v1_VE250_randls_34_rotated.json,948335,1388415,25,Man
141,493852,DepthScenes,duration_manipulation_targetAtFixation,jsons/v1_VE250_randls_34_rotated.json,http://54.235.29.9/FacialAge/BNav_EC2/DepthDuration/v2_depth_duration_MTurk/v2_DepthDuration_HTML.html#426,426,1366,625,1366,768,8-30-2022,11-26-16,142,depth_duration_stimuli/002414_2014-06-28_20-24-58_260595134347_rgbf000067-resize_4/002414_2014-06-28_20-24-58_260595134347_rgbf000067-resize_4-target.png,250,4.363,2,4566,251,feet,jsons/v1_VE250_randls_34_rotated.json,948335,1388415,25,Man
142,493852,DepthScenes,duration_manipulation_targetAtFixation,jsons/v1_VE250_randls_34_rotated.json,http://54.235.29.9/FacialAge/BNav_EC2/DepthDuration/v2_depth_duration_MTurk/v2_DepthDuration_HTML.html#426,426,1366,625,1366,768,8-30-2022,11-26-16,143,depth_duration_stimuli/000773_2014-06-08_22-24-54_260595134347_rgbf000093-resize_1/000773_2014-06-08_22-24-54_260595134347_rgbf000093-resize_1-target.png,250,4.973,3,3061,249,feet,jsons/v1_VE250_randls_34_rotated.json,948335,1388415,25,Man
143,493852,DepthScenes,duration_manipulation_targetAtFixation,jsons/v1_VE250_randls_34_rotated.json,http://54.235.29.9/FacialAge/BNav_EC2/DepthDuration/v2_depth_duration_MTurk/v2_DepthDuration_HTML.html#426,426,1366,625,1366,768,8-30-2022,11-26-16,144,depth_duration_stimuli/001516_2014-06-20_16-25-09_260595134347_rgbf000076-resize_2/001516_2014-06-20_16-25-09_260595134347_rgbf000076-resize_2-target.png,250,1.7445,2,3299,248,feet,jsons/v1_VE250_randls_34_rotated.json,948335,1388415,25,Man
144,493852,DepthScenes,duration_manipulation_targetAtFixation,jsons/v1_VE250_randls_34_rotated.json,http://54.235.29.9/FacialAge/BNav_EC2/DepthDuration/v2_depth_duration_MTurk/v2_DepthDuration_HTML.html#426,426,1366,625,1366,768,8-30-2022,11-26-16,145,depth_duration_stimuli/002118_2014-06-25_20-32-08_260595134347_rgbf000078-resize_1/002118_2014-06-25_20-32-08_260595134347_rgbf000078-resize_1-target.png,250,2.6460000000000004,4,3420,250,feet,jsons/v1_VE250_randls_34_rotated.json,948335,1388415,25,Man
145,493852,DepthScenes,duration_manipulation_targetAtFixation,jsons/v1_VE250_randls_34_rotated.json,http://54.235.29.9/FacialAge/BNav_EC2/DepthDuration/v2_depth_duration_MTurk/v2_DepthDuration_HTML.html#426,426,1366,625,1366,768,8-30-2022,11-26-16,146,depth_duration_stimuli/000556_2014-06-09_22-42-56_260595134347_rgbf000214-resize_1/000556_2014-06-09_22-42-56_260595134347_rgbf000214-resize_1-target.png,250,4.8415,3,3208,250,feet,jsons/v1_VE250_randls_34_rotated.json,948335,1388415,25,Man
146,493852,DepthScenes,duration_manipulation_targetAtFixation,jsons/v1_VE250_randls_34_rotated.json,http://54.235.29.9/FacialAge/BNav_EC2/DepthDuration/v2_depth_duration_MTurk/v2_DepthDuration_HTML.html#426,426,1366,625,1366,768,8-30-2022,11-26-16,147,depth_duration_stimuli/001158_2014-06-17_15-32-16_260595134347_rgbf000138-resize_2/001158_2014-06-17_15-32-16_260595134347_rgbf000138-resize_2-target.png,250,4.5315,2,34971,250,feet,jsons/v1_VE250_randls_34_rotated.json,948335,1388415,25,Man
147,493852,DepthScenes,duration_manipulation_targetAtFixation,jsons/v1_VE250_randls_34_rotated.json,http://54.235.29.9/FacialAge/BNav_EC2/DepthDuration/v2_depth_duration_MTurk/v2_DepthDuration_HTML.html#426,426,1366,625,1366,768,8-30-2022,11-26-16,148,depth_duration_stimuli/001392_2014-06-19_16-07-59_260595134347_rgbf000046-resize_1/001392_2014-06-19_16-07-59_260595134347_rgbf000046-resize_1-target.png,250,4.135,3,3371,250,feet,jsons/v1_VE250_randls_34_rotated.json,948335,1388415,25,Man
148,493852,DepthScenes,duration_manipulation_targetAtFixation,jsons/v1_VE250_randls_34_rotated.json,http://54.235.29.9/FacialAge/BNav_EC2/DepthDuration/v2_depth_duration_MTurk/v2_DepthDuration_HTML.html#426,426,1366,625,1366,768,8-30-2022,11-26-16,149,depth_duration_stimuli/001570_2014-06-20_17-21-09_260595134347_rgbf000135-resize_4/001570_2014-06-20_17-21-09_260595134347_rgbf000135-resize_4-target.png,250,4.467,2,3300,250,feet,jsons/v1_VE250_randls_34_rotated.json,948335,1388415,25,Man
149,493852,DepthScenes,duration_manipulation_targetAtFixation,jsons/v1_VE250_randls_34_rotated.json,http://54.235.29.9/FacialAge/BNav_EC2/DepthDuration/v2_depth_duration_MTurk/v2_DepthDuration_HTML.html#426,426,1366,625,1366,768,8-30-2022,11-26-16,150,depth_duration_stimuli/002949_2014-06-26_15-57-42_094959634447_rgbf000079-resize_1/002949_2014-06-26_15-57-42_094959634447_rgbf000079-resize_1-target.png,250,1.8915,3,3434,251,feet,jsons/v1_VE250_randls_34_rotated.json,948335,1388415,25,Man
150,493852,DepthScenes,duration_manipulation_targetAtFixation,jsons/v1_VE250_randls_34_rotated.json,http://54.235.29.9/FacialAge/BNav_EC2/DepthDuration/v2_depth_duration_MTurk/v2_DepthDuration_HTML.html#426,426,1366,625,1366,768,8-30-2022,11-26-16,151,depth_duration_stimuli/000522_2014-06-08_13-35-06_260595134347_rgbf000244-resize_1/000522_2014-06-08_13-35-06_260595134347_rgbf000244-resize_1-target.png,250,2.3715,2,3563,249,feet,jsons/v1_VE250_randls_34_rotated.json,948335,1388415,25,Man
151,493852,DepthScenes,duration_manipulation_targetAtFixation,jsons/v1_VE250_randls_34_rotated.json,http://54.235.29.9/FacialAge/BNav_EC2/DepthDuration/v2_depth_duration_MTurk/v2_DepthDuration_HTML.html#426,426,1366,625,1366,768,8-30-2022,11-26-16,152,depth_duration_stimuli/000569_2014-06-09_22-51-47_260595134347_rgbf000141-resize_3/000569_2014-06-09_22-51-47_260595134347_rgbf000141-resize-original.jpg,250,4.512,0,3061,250,feet,jsons/v1_VE250_randls_34_rotated.json,948335,1388415,25,Man
152,493852,DepthScenes,duration_manipulation_targetAtFixation,jsons/v1_VE250_randls_34_rotated.json,http://54.235.29.9/FacialAge/BNav_EC2/DepthDuration/v2_depth_duration_MTurk/v2_DepthDuration_HTML.html#426,426,1366,625,1366,768,8-30-2022,11-26-16,153,depth_duration_stimuli/003083_2014-06-15_15-21-03_094959634447_rgbf000063-resize_1/003083_2014-06-15_15-21-03_094959634447_rgbf000063-resize_1-target.png,250,4.1405,4,3334,248,feet,jsons/v1_VE250_randls_34_rotated.json,948335,1388415,25,Man
153,493852,DepthScenes,duration_manipulation_targetAtFixation,jsons/v1_VE250_randls_34_rotated.json,http://54.235.29.9/FacialAge/BNav_EC2/DepthDuration/v2_depth_duration_MTurk/v2_DepthDuration_HTML.html#426,426,1366,625,1366,768,8-30-2022,11-26-16,154,depth_duration_stimuli/000486_2014-06-09_20-47-20_260595134347_rgbf000143-resize_2/000486_2014-06-09_20-47-20_260595134347_rgbf000143-resize_2-target.png,250,4.8325,2,3107,249,feet,jsons/v1_VE250_randls_34_rotated.json,948335,1388415,25,Man
154,493852,DepthScenes,duration_manipulation_targetAtFixation,jsons/v1_VE250_randls_34_rotated.json,http://54.235.29.9/FacialAge/BNav_EC2/DepthDuration/v2_depth_duration_MTurk/v2_DepthDuration_HTML.html#426,426,1366,625,1366,768,8-30-2022,11-26-16,155,depth_duration_stimuli/000409_2014-06-04_19-23-33_260595134347_rgbf000067-resize_0/000409_2014-06-04_19-23-33_260595134347_rgbf000067-resize_0-target.png,250,3.7335,3,3146,251,feet,jsons/v1_VE250_randls_34_rotated.json,948335,1388415,25,Man
155,493852,DepthScenes,duration_manipulation_targetAtFixation,jsons/v1_VE250_randls_34_rotated.json,http://54.235.29.9/FacialAge/BNav_EC2/DepthDuration/v2_depth_duration_MTurk/v2_DepthDuration_HTML.html#426,426,1366,625,1366,768,8-30-2022,11-26-16,156,depth_duration_stimuli/002663_2014-06-13_15-50-26_094959634447_rgbf000075-resize_1/002663_2014-06-13_15-50-26_094959634447_rgbf000075-resize_1-target.png,250,4.7495,2,3524,249,feet,jsons/v1_VE250_randls_34_rotated.json,948335,1388415,25,Man
156,493852,DepthScenes,duration_manipulation_targetAtFixation,jsons/v1_VE250_randls_34_rotated.json,http://54.235.29.9/FacialAge/BNav_EC2/DepthDuration/v2_depth_duration_MTurk/v2_DepthDuration_HTML.html#426,426,1366,625,1366,768,8-30-2022,11-26-16,157,depth_duration_stimuli/000691_2014-06-08_13-08-50_260595134347_rgbf000132-resize_3/000691_2014-06-08_13-08-50_260595134347_rgbf000132-resize_3-target.png,250,4.1530000000000005,3,3138,250,feet,jsons/v1_VE250_randls_34_rotated.json,948335,1388415,25,Man
157,493852,DepthScenes,duration_manipulation_targetAtFixation,jsons/v1_VE250_randls_34_rotated.json,http://54.235.29.9/FacialAge/BNav_EC2/DepthDuration/v2_depth_duration_MTurk/v2_DepthDuration_HTML.html#426,426,1366,625,1366,768,8-30-2022,11-26-16,158,depth_duration_stimuli/002213_2014-06-28_18-37-58_260595134347_rgbf000055-resize_1/002213_2014-06-28_18-37-58_260595134347_rgbf000055-resize_1-target.png,250,3.62,5,3449,249,feet,jsons/v1_VE250_randls_34_rotated.json,948335,1388415,25,Man
158,493852,DepthScenes,duration_manipulation_targetAtFixation,jsons/v1_VE250_randls_34_rotated.json,http://54.235.29.9/FacialAge/BNav_EC2/DepthDuration/v2_depth_duration_MTurk/v2_DepthDuration_HTML.html#426,426,1366,625,1366,768,8-30-2022,11-26-16,159,depth_duration_stimuli/000191_2014-05-12_17-07-38_260595134347_rgbf000199-resize_0/000191_2014-05-12_17-07-38_260595134347_rgbf000199-resize_0-target.png,250,3.7995,3,3139,250,feet,jsons/v1_VE250_randls_34_rotated.json,948335,1388415,25,Man
159,493852,DepthScenes,duration_manipulation_targetAtFixation,jsons/v1_VE250_randls_34_rotated.json,http://54.235.29.9/FacialAge/BNav_EC2/DepthDuration/v2_depth_duration_MTurk/v2_DepthDuration_HTML.html#426,426,1366,625,1366,768,8-30-2022,11-26-16,160,depth_duration_stimuli/000493_2014-06-09_21-01-18_260595134347_rgbf000196-resize_3/000493_2014-06-09_21-01-18_260595134347_rgbf000196-resize_3-target.png,250,3.44,5,3070,250,feet,jsons/v1_VE250_randls_34_rotated.json,948335,1388415,25,Man
160,493852,DepthScenes,duration_manipulation_targetAtFixation,jsons/v1_VE250_randls_34_rotated.json,http://54.235.29.9/FacialAge/BNav_EC2/DepthDuration/v2_depth_duration_MTurk/v2_DepthDuration_HTML.html#426,426,1366,625,1366,768,8-30-2022,11-26-16,161,depth_duration_stimuli/001235_2014-06-17_16-37-36_260595134347_rgbf000084-resize_4/001235_2014-06-17_16-37-36_260595134347_rgbf000084-resize_4-target.png,250,3.6605,3,3264,250,feet,jsons/v1_VE250_randls_34_rotated.json,948335,1388415,25,Man
161,493852,DepthScenes,duration_manipulation_targetAtFixation,jsons/v1_VE250_randls_34_rotated.json,http://54.235.29.9/FacialAge/BNav_EC2/DepthDuration/v2_depth_duration_MTurk/v2_DepthDuration_HTML.html#426,426,1366,625,1366,768,8-30-2022,11-26-16,162,depth_duration_stimuli/000788_2014-06-08_22-34-36_260595134347_rgbf000131-resize_1/000788_2014-06-08_22-34-36_260595134347_rgbf000131-resize_1-target.png,250,3.359,3,3468,251,feet,jsons/v1_VE250_randls_34_rotated.json,948335,1388415,25,Man
162,493852,DepthScenes,duration_manipulation_targetAtFixation,jsons/v1_VE250_randls_34_rotated.json,http://54.235.29.9/FacialAge/BNav_EC2/DepthDuration/v2_depth_duration_MTurk/v2_DepthDuration_HTML.html#426,426,1366,625,1366,768,8-30-2022,11-26-16,163,depth_duration_stimuli/000734_2014-06-08_17-39-11_260595134347_rgbf000128-resize_2/000734_2014-06-08_17-39-11_260595134347_rgbf000128-resize_2-target.png,250,4.098,3,3627,250,feet,jsons/v1_VE250_randls_34_rotated.json,948335,1388415,25,Man
163,493852,DepthScenes,duration_manipulation_targetAtFixation,jsons/v1_VE250_randls_34_rotated.json,http://54.235.29.9/FacialAge/BNav_EC2/DepthDuration/v2_depth_duration_MTurk/v2_DepthDuration_HTML.html#426,426,1366,625,1366,768,8-30-2022,11-26-16,164,depth_duration_stimuli/000739_2014-06-08_18-45-58_260595134347_rgbf000068-resize_1/000739_2014-06-08_18-45-58_260595134347_rgbf000068-resize_1-target.png,250,3.534,4,3169,249,feet,jsons/v1_VE250_randls_34_rotated.json,948335,1388415,25,Man
