,subjID,experimentName,versionName,sequenceName,url,selected_row,windowWidth,windowHeight,screenWidth,screenHeight,startDate,startTime,trial,stimulus,duration,actual_depth,depth_estimate,trial_RT,log_sceneDuration,unitSelection,seq_filepath,experimentTime,totalTime,age,gender
0,494386,DepthScenes,duration_manipulation_targetAtFixation,jsons/VE125_randls_22_rotated.json,http://54.235.29.9/FacialAge/BNav_EC2/DepthDuration/v2_depth_duration_MTurk/v2_DepthDuration_HTML.html#36,36,1515,853,1364,768,8-21-2022,7-8-10,1,depth_duration_stimuli/002545_2014-06-24_13-38-53_094959634447_rgbf000080-resize_4/002545_2014-06-24_13-38-53_094959634447_rgbf000080-resize_4-target.png,125,1.9205,6,7924,125,feet,jsons/VE125_randls_22_rotated.json,1119939,1419621,30,Woman
1,494386,DepthScenes,duration_manipulation_targetAtFixation,jsons/VE125_randls_22_rotated.json,http://54.235.29.9/FacialAge/BNav_EC2/DepthDuration/v2_depth_duration_MTurk/v2_DepthDuration_HTML.html#36,36,1515,853,1364,768,8-21-2022,7-8-10,2,depth_duration_stimuli/001092_2014-06-15_17-34-58_260595134347_rgbf000171-resize_3/001092_2014-06-15_17-34-58_260595134347_rgbf000171-resize_3-target.png,125,2.6935,5,5551,123,feet,jsons/VE125_randls_22_rotated.json,1119939,1419621,30,Woman
2,494386,DepthScenes,duration_manipulation_targetAtFixation,jsons/VE125_randls_22_rotated.json,http://54.235.29.9/FacialAge/BNav_EC2/DepthDuration/v2_depth_duration_MTurk/v2_DepthDuration_HTML.html#36,36,1515,853,1364,768,8-21-2022,7-8-10,3,depth_duration_stimuli/002678_2014-06-13_16-15-32_094959634447_rgbf000151-resize_6/002678_2014-06-13_16-15-32_094959634447_rgbf000151-resize_6-target.png,125,2.1830000000000003,6,7598,123,feet,jsons/VE125_randls_22_rotated.json,1119939,1419621,30,Woman
3,494386,DepthScenes,duration_manipulation_targetAtFixation,jsons/VE125_randls_22_rotated.json,http://54.235.29.9/FacialAge/BNav_EC2/DepthDuration/v2_depth_duration_MTurk/v2_DepthDuration_HTML.html#36,36,1515,853,1364,768,8-21-2022,7-8-10,4,depth_duration_stimuli/000368_2014-06-09_15-53-01_260595134347_rgbf000155-resize_2/000368_2014-06-09_15-53-01_260595134347_rgbf000155-resize_2-target.png,125,2.4859999999999998,4,7050,120,feet,jsons/VE125_randls_22_rotated.json,1119939,1419621,30,Woman
4,494386,DepthScenes,duration_manipulation_targetAtFixation,jsons/VE125_randls_22_rotated.json,http://54.235.29.9/FacialAge/BNav_EC2/DepthDuration/v2_depth_duration_MTurk/v2_DepthDuration_HTML.html#36,36,1515,853,1364,768,8-21-2022,7-8-10,5,depth_duration_stimuli/001571_2014-06-20_17-21-32_260595134347_rgbf000089-resize_1/001571_2014-06-20_17-21-32_260595134347_rgbf000089-resize_1-target.png,125,1.86,3,6444,122,feet,jsons/VE125_randls_22_rotated.json,1119939,1419621,30,Woman
5,494386,DepthScenes,duration_manipulation_targetAtFixation,jsons/VE125_randls_22_rotated.json,http://54.235.29.9/FacialAge/BNav_EC2/DepthDuration/v2_depth_duration_MTurk/v2_DepthDuration_HTML.html#36,36,1515,853,1364,768,8-21-2022,7-8-10,6,depth_duration_stimuli/002272_2014-06-28_18-53-56_260595134347_rgbf000067-resize_2/002272_2014-06-28_18-53-56_260595134347_rgbf000067-resize_2-target.png,125,1.138,2,4985,121,feet,jsons/VE125_randls_22_rotated.json,1119939,1419621,30,Woman
6,494386,DepthScenes,duration_manipulation_targetAtFixation,jsons/VE125_randls_22_rotated.json,http://54.235.29.9/FacialAge/BNav_EC2/DepthDuration/v2_depth_duration_MTurk/v2_DepthDuration_HTML.html#36,36,1515,853,1364,768,8-21-2022,7-8-10,7,depth_duration_stimuli/002414_2014-06-28_20-24-58_260595134347_rgbf000067-resize_4/002414_2014-06-28_20-24-58_260595134347_rgbf000067-resize_4-target.png,125,4.363,0,5554,121,feet,jsons/VE125_randls_22_rotated.json,1119939,1419621,30,Woman
7,494386,DepthScenes,duration_manipulation_targetAtFixation,jsons/VE125_randls_22_rotated.json,http://54.235.29.9/FacialAge/BNav_EC2/DepthDuration/v2_depth_duration_MTurk/v2_DepthDuration_HTML.html#36,36,1515,853,1364,768,8-21-2022,7-8-10,8,depth_duration_stimuli/000773_2014-06-08_22-24-54_260595134347_rgbf000093-resize_1/000773_2014-06-08_22-24-54_260595134347_rgbf000093-resize_1-target.png,125,4.973,6,4166,120,feet,jsons/VE125_randls_22_rotated.json,1119939,1419621,30,Woman
8,494386,DepthScenes,duration_manipulation_targetAtFixation,jsons/VE125_randls_22_rotated.json,http://54.235.29.9/FacialAge/BNav_EC2/DepthDuration/v2_depth_duration_MTurk/v2_DepthDuration_HTML.html#36,36,1515,853,1364,768,8-21-2022,7-8-10,9,depth_duration_stimuli/000556_2014-06-09_22-42-56_260595134347_rgbf000214-resize_1/000556_2014-06-09_22-42-56_260595134347_rgbf000214-resize_1-target.png,125,4.8415,5,5638,124,feet,jsons/VE125_randls_22_rotated.json,1119939,1419621,30,Woman
9,494386,DepthScenes,duration_manipulation_targetAtFixation,jsons/VE125_randls_22_rotated.json,http://54.235.29.9/FacialAge/BNav_EC2/DepthDuration/v2_depth_duration_MTurk/v2_DepthDuration_HTML.html#36,36,1515,853,1364,768,8-21-2022,7-8-10,10,depth_duration_stimuli/001158_2014-06-17_15-32-16_260595134347_rgbf000138-resize_2/001158_2014-06-17_15-32-16_260595134347_rgbf000138-resize_2-target.png,125,4.5315,2,3589,110,feet,jsons/VE125_randls_22_rotated.json,1119939,1419621,30,Woman
10,494386,DepthScenes,duration_manipulation_targetAtFixation,jsons/VE125_randls_22_rotated.json,http://54.235.29.9/FacialAge/BNav_EC2/DepthDuration/v2_depth_duration_MTurk/v2_DepthDuration_HTML.html#36,36,1515,853,1364,768,8-21-2022,7-8-10,11,depth_duration_stimuli/001132_2014-06-17_14-48-54_260595134347_rgbf000100-resize_2/001132_2014-06-17_14-48-54_260595134347_rgbf000100-resize_2-target.png,125,3.753,7,7830,132,feet,jsons/VE125_randls_22_rotated.json,1119939,1419621,30,Woman
11,494386,DepthScenes,duration_manipulation_targetAtFixation,jsons/VE125_randls_22_rotated.json,http://54.235.29.9/FacialAge/BNav_EC2/DepthDuration/v2_depth_duration_MTurk/v2_DepthDuration_HTML.html#36,36,1515,853,1364,768,8-21-2022,7-8-10,12,depth_duration_stimuli/001133_2014-06-17_14-49-16_260595134347_rgbf000100-resize_0/001133_2014-06-17_14-49-16_260595134347_rgbf000100-resize_0-target.png,125,4.2115,1,3535,122,feet,jsons/VE125_randls_22_rotated.json,1119939,1419621,30,Woman
12,494386,DepthScenes,duration_manipulation_targetAtFixation,jsons/VE125_randls_22_rotated.json,http://54.235.29.9/FacialAge/BNav_EC2/DepthDuration/v2_depth_duration_MTurk/v2_DepthDuration_HTML.html#36,36,1515,853,1364,768,8-21-2022,7-8-10,13,depth_duration_stimuli/001100_2014-06-15_17-46-26_260595134347_rgbf000225-resize_2/001100_2014-06-15_17-46-26_260595134347_rgbf000225-resize_2-target.png,125,2.24,2,6217,118,feet,jsons/VE125_randls_22_rotated.json,1119939,1419621,30,Woman
13,494386,DepthScenes,duration_manipulation_targetAtFixation,jsons/VE125_randls_22_rotated.json,http://54.235.29.9/FacialAge/BNav_EC2/DepthDuration/v2_depth_duration_MTurk/v2_DepthDuration_HTML.html#36,36,1515,853,1364,768,8-21-2022,7-8-10,14,depth_duration_stimuli/002784_2014-06-22_19-26-30_094959634447_rgbf000083-resize_3/002784_2014-06-22_19-26-30_094959634447_rgbf000083-resize_3-target.png,125,1.8046666666667,0,7879,98,feet,jsons/VE125_randls_22_rotated.json,1119939,1419621,30,Woman
14,494386,DepthScenes,duration_manipulation_targetAtFixation,jsons/VE125_randls_22_rotated.json,http://54.235.29.9/FacialAge/BNav_EC2/DepthDuration/v2_depth_duration_MTurk/v2_DepthDuration_HTML.html#36,36,1515,853,1364,768,8-21-2022,7-8-10,15,depth_duration_stimuli/000927_2014-06-09_16-32-30_260595134347_rgbf000123-resize_3/000927_2014-06-09_16-32-30_260595134347_rgbf000123-resize_3-target.png,125,2.6785,4,3820,124,feet,jsons/VE125_randls_22_rotated.json,1119939,1419621,30,Woman
15,494386,DepthScenes,duration_manipulation_targetAtFixation,jsons/VE125_randls_22_rotated.json,http://54.235.29.9/FacialAge/BNav_EC2/DepthDuration/v2_depth_duration_MTurk/v2_DepthDuration_HTML.html#36,36,1515,853,1364,768,8-21-2022,7-8-10,16,depth_duration_stimuli/001110_2014-06-15_17-25-28_260595134347_rgbf000150-resize_1/001110_2014-06-15_17-25-28_260595134347_rgbf000150-resize_1-target.png,125,1.7115,1,4201,122,feet,jsons/VE125_randls_22_rotated.json,1119939,1419621,30,Woman
16,494386,DepthScenes,duration_manipulation_targetAtFixation,jsons/VE125_randls_22_rotated.json,http://54.235.29.9/FacialAge/BNav_EC2/DepthDuration/v2_depth_duration_MTurk/v2_DepthDuration_HTML.html#36,36,1515,853,1364,768,8-21-2022,7-8-10,17,depth_duration_stimuli/001052_2014-06-08_18-24-54_260595134347_rgbf000130-resize_1/001052_2014-06-08_18-24-54_260595134347_rgbf000130-resize_1-target.png,125,4.1045,4,5286,122,feet,jsons/VE125_randls_22_rotated.json,1119939,1419621,30,Woman
17,494386,DepthScenes,duration_manipulation_targetAtFixation,jsons/VE125_randls_22_rotated.json,http://54.235.29.9/FacialAge/BNav_EC2/DepthDuration/v2_depth_duration_MTurk/v2_DepthDuration_HTML.html#36,36,1515,853,1364,768,8-21-2022,7-8-10,18,depth_duration_stimuli/002988_2014-06-15_12-24-20_094959634447_rgbf000150-resize_1/002988_2014-06-15_12-24-20_094959634447_rgbf000150-resize_1-target.png,125,4.7669999999999995,5,4599,124,feet,jsons/VE125_randls_22_rotated.json,1119939,1419621,30,Woman
18,494386,DepthScenes,duration_manipulation_targetAtFixation,jsons/VE125_randls_22_rotated.json,http://54.235.29.9/FacialAge/BNav_EC2/DepthDuration/v2_depth_duration_MTurk/v2_DepthDuration_HTML.html#36,36,1515,853,1364,768,8-21-2022,7-8-10,19,depth_duration_stimuli/001498_2014-06-19_17-45-14_260595134347_rgbf000129-resize_4/001498_2014-06-19_17-45-14_260595134347_rgbf000129-resize-original.jpg,125,1.4075,0,5779,137,feet,jsons/VE125_randls_22_rotated.json,1119939,1419621,30,Woman
19,494386,DepthScenes,duration_manipulation_targetAtFixation,jsons/VE125_randls_22_rotated.json,http://54.235.29.9/FacialAge/BNav_EC2/DepthDuration/v2_depth_duration_MTurk/v2_DepthDuration_HTML.html#36,36,1515,853,1364,768,8-21-2022,7-8-10,20,depth_duration_stimuli/001650_2014-06-20_12-09-00_260595134347_rgbf000087-resize_3/001650_2014-06-20_12-09-00_260595134347_rgbf000087-resize_3-target.png,125,1.9505,1,5992,124,feet,jsons/VE125_randls_22_rotated.json,1119939,1419621,30,Woman
20,494386,DepthScenes,duration_manipulation_targetAtFixation,jsons/VE125_randls_22_rotated.json,http://54.235.29.9/FacialAge/BNav_EC2/DepthDuration/v2_depth_duration_MTurk/v2_DepthDuration_HTML.html#36,36,1515,853,1364,768,8-21-2022,7-8-10,21,depth_duration_stimuli/000682_2014-06-08_23-14-58_260595134347_rgbf000041-resize_5/000682_2014-06-08_23-14-58_260595134347_rgbf000041-resize_5-target.png,125,2.7239999999999998,4,3949,122,feet,jsons/VE125_randls_22_rotated.json,1119939,1419621,30,Woman
21,494386,DepthScenes,duration_manipulation_targetAtFixation,jsons/VE125_randls_22_rotated.json,http://54.235.29.9/FacialAge/BNav_EC2/DepthDuration/v2_depth_duration_MTurk/v2_DepthDuration_HTML.html#36,36,1515,853,1364,768,8-21-2022,7-8-10,22,depth_duration_stimuli/000742_2014-06-08_18-48-09_260595134347_rgbf000164-resize_4/000742_2014-06-08_18-48-09_260595134347_rgbf000164-resize_4-target.png,125,4.632,6,7051,124,feet,jsons/VE125_randls_22_rotated.json,1119939,1419621,30,Woman
22,494386,DepthScenes,duration_manipulation_targetAtFixation,jsons/VE125_randls_22_rotated.json,http://54.235.29.9/FacialAge/BNav_EC2/DepthDuration/v2_depth_duration_MTurk/v2_DepthDuration_HTML.html#36,36,1515,853,1364,768,8-21-2022,7-8-10,23,depth_duration_stimuli/001066_2014-06-08_22-03-20_260595134347_rgbf000066-resize_4/001066_2014-06-08_22-03-20_260595134347_rgbf000066-resize_4-target.png,125,4.2330000000000005,1,3056,123,feet,jsons/VE125_randls_22_rotated.json,1119939,1419621,30,Woman
23,494386,DepthScenes,duration_manipulation_targetAtFixation,jsons/VE125_randls_22_rotated.json,http://54.235.29.9/FacialAge/BNav_EC2/DepthDuration/v2_depth_duration_MTurk/v2_DepthDuration_HTML.html#36,36,1515,853,1364,768,8-21-2022,7-8-10,24,depth_duration_stimuli/000549_2014-06-08_22-10-24_260595134347_rgbf000247-resize_3/000549_2014-06-08_22-10-24_260595134347_rgbf000247-resize_3-target.png,125,1.841,2,4664,122,feet,jsons/VE125_randls_22_rotated.json,1119939,1419621,30,Woman
24,494386,DepthScenes,duration_manipulation_targetAtFixation,jsons/VE125_randls_22_rotated.json,http://54.235.29.9/FacialAge/BNav_EC2/DepthDuration/v2_depth_duration_MTurk/v2_DepthDuration_HTML.html#36,36,1515,853,1364,768,8-21-2022,7-8-10,25,depth_duration_stimuli/001055_2014-06-08_18-45-35_260595134347_rgbf000111-resize_4/001055_2014-06-08_18-45-35_260595134347_rgbf000111-resize_4-target.png,125,2.4290000000000003,5,6018,123,feet,jsons/VE125_randls_22_rotated.json,1119939,1419621,30,Woman
25,494386,DepthScenes,duration_manipulation_targetAtFixation,jsons/VE125_randls_22_rotated.json,http://54.235.29.9/FacialAge/BNav_EC2/DepthDuration/v2_depth_duration_MTurk/v2_DepthDuration_HTML.html#36,36,1515,853,1364,768,8-21-2022,7-8-10,26,depth_duration_stimuli/000734_2014-06-08_17-39-11_260595134347_rgbf000128-resize_2/000734_2014-06-08_17-39-11_260595134347_rgbf000128-resize_2-target.png,125,4.098,3,6207,125,feet,jsons/VE125_randls_22_rotated.json,1119939,1419621,30,Woman
26,494386,DepthScenes,duration_manipulation_targetAtFixation,jsons/VE125_randls_22_rotated.json,http://54.235.29.9/FacialAge/BNav_EC2/DepthDuration/v2_depth_duration_MTurk/v2_DepthDuration_HTML.html#36,36,1515,853,1364,768,8-21-2022,7-8-10,27,depth_duration_stimuli/000739_2014-06-08_18-45-58_260595134347_rgbf000068-resize_1/000739_2014-06-08_18-45-58_260595134347_rgbf000068-resize_1-target.png,125,3.534,6,4079,137,feet,jsons/VE125_randls_22_rotated.json,1119939,1419621,30,Woman
27,494386,DepthScenes,duration_manipulation_targetAtFixation,jsons/VE125_randls_22_rotated.json,http://54.235.29.9/FacialAge/BNav_EC2/DepthDuration/v2_depth_duration_MTurk/v2_DepthDuration_HTML.html#36,36,1515,853,1364,768,8-21-2022,7-8-10,28,depth_duration_stimuli/003010_2014-06-15_12-54-35_094959634447_rgbf000112-resize_0/003010_2014-06-15_12-54-35_094959634447_rgbf000112-resize_0-target.png,125,3.1185,7,6945,125,feet,jsons/VE125_randls_22_rotated.json,1119939,1419621,30,Woman
28,494386,DepthScenes,duration_manipulation_targetAtFixation,jsons/VE125_randls_22_rotated.json,http://54.235.29.9/FacialAge/BNav_EC2/DepthDuration/v2_depth_duration_MTurk/v2_DepthDuration_HTML.html#36,36,1515,853,1364,768,8-21-2022,7-8-10,29,depth_duration_stimuli/001810_2014-06-26_20-51-35_260595134347_rgbf000040-resize_3/001810_2014-06-26_20-51-35_260595134347_rgbf000040-resize_3-target.png,125,2.2525,5,3807,112,feet,jsons/VE125_randls_22_rotated.json,1119939,1419621,30,Woman
29,494386,DepthScenes,duration_manipulation_targetAtFixation,jsons/VE125_randls_22_rotated.json,http://54.235.29.9/FacialAge/BNav_EC2/DepthDuration/v2_depth_duration_MTurk/v2_DepthDuration_HTML.html#36,36,1515,853,1364,768,8-21-2022,7-8-10,30,depth_duration_stimuli/002072_2014-06-24_21-48-06_260595134347_rgbf000115-resize_0/002072_2014-06-24_21-48-06_260595134347_rgbf000115-resize-original.jpg,125,4.702,0,5587,124,feet,jsons/VE125_randls_22_rotated.json,1119939,1419621,30,Woman
30,494386,DepthScenes,duration_manipulation_targetAtFixation,jsons/VE125_randls_22_rotated.json,http://54.235.29.9/FacialAge/BNav_EC2/DepthDuration/v2_depth_duration_MTurk/v2_DepthDuration_HTML.html#36,36,1515,853,1364,768,8-21-2022,7-8-10,31,depth_duration_stimuli/002340_2014-06-28_20-05-46_260595134347_rgbf000113-resize_0/002340_2014-06-28_20-05-46_260595134347_rgbf000113-resize_0-target.png,125,2.4735,3,10009,101,feet,jsons/VE125_randls_22_rotated.json,1119939,1419621,30,Woman
31,494386,DepthScenes,duration_manipulation_targetAtFixation,jsons/VE125_randls_22_rotated.json,http://54.235.29.9/FacialAge/BNav_EC2/DepthDuration/v2_depth_duration_MTurk/v2_DepthDuration_HTML.html#36,36,1515,853,1364,768,8-21-2022,7-8-10,32,depth_duration_stimuli/001016_2014-06-09_16-16-10_260595134347_rgbf000112-resize_5/001016_2014-06-09_16-16-10_260595134347_rgbf000112-resize_5-target.png,125,1.6565,3,4238,121,feet,jsons/VE125_randls_22_rotated.json,1119939,1419621,30,Woman
32,494386,DepthScenes,duration_manipulation_targetAtFixation,jsons/VE125_randls_22_rotated.json,http://54.235.29.9/FacialAge/BNav_EC2/DepthDuration/v2_depth_duration_MTurk/v2_DepthDuration_HTML.html#36,36,1515,853,1364,768,8-21-2022,7-8-10,33,depth_duration_stimuli/002209_2014-06-28_18-36-10_260595134347_rgbf000051-resize_1/002209_2014-06-28_18-36-10_260595134347_rgbf000051-resize_1-target.png,125,2.057,3,6560,124,feet,jsons/VE125_randls_22_rotated.json,1119939,1419621,30,Woman
33,494386,DepthScenes,duration_manipulation_targetAtFixation,jsons/VE125_randls_22_rotated.json,http://54.235.29.9/FacialAge/BNav_EC2/DepthDuration/v2_depth_duration_MTurk/v2_DepthDuration_HTML.html#36,36,1515,853,1364,768,8-21-2022,7-8-10,34,depth_duration_stimuli/002763_2014-06-22_19-13-10_094959634447_rgbf000075-resize_4/002763_2014-06-22_19-13-10_094959634447_rgbf000075-resize_4-target.png,125,1.68375,2,8484,121,feet,jsons/VE125_randls_22_rotated.json,1119939,1419621,30,Woman
34,494386,DepthScenes,duration_manipulation_targetAtFixation,jsons/VE125_randls_22_rotated.json,http://54.235.29.9/FacialAge/BNav_EC2/DepthDuration/v2_depth_duration_MTurk/v2_DepthDuration_HTML.html#36,36,1515,853,1364,768,8-21-2022,7-8-10,35,depth_duration_stimuli/002199_2014-06-28_18-33-56_260595134347_rgbf000074-resize_0/002199_2014-06-28_18-33-56_260595134347_rgbf000074-resize_0-target.png,125,1.996,2,5120,125,feet,jsons/VE125_randls_22_rotated.json,1119939,1419621,30,Woman
35,494386,DepthScenes,duration_manipulation_targetAtFixation,jsons/VE125_randls_22_rotated.json,http://54.235.29.9/FacialAge/BNav_EC2/DepthDuration/v2_depth_duration_MTurk/v2_DepthDuration_HTML.html#36,36,1515,853,1364,768,8-21-2022,7-8-10,36,depth_duration_stimuli/001056_2014-06-08_18-46-44_260595134347_rgbf000068-resize_0/001056_2014-06-08_18-46-44_260595134347_rgbf000068-resize_0-target.png,125,2.6625,3,4488,137,feet,jsons/VE125_randls_22_rotated.json,1119939,1419621,30,Woman
36,494386,DepthScenes,duration_manipulation_targetAtFixation,jsons/VE125_randls_22_rotated.json,http://54.235.29.9/FacialAge/BNav_EC2/DepthDuration/v2_depth_duration_MTurk/v2_DepthDuration_HTML.html#36,36,1515,853,1364,768,8-21-2022,7-8-10,37,depth_duration_stimuli/003228_2014-05-14_13-42-35_094959634447_rgbf000101-resize_1/003228_2014-05-14_13-42-35_094959634447_rgbf000101-resize_1-target.png,125,1.9680000000000002,4,5070,113,feet,jsons/VE125_randls_22_rotated.json,1119939,1419621,30,Woman
37,494386,DepthScenes,duration_manipulation_targetAtFixation,jsons/VE125_randls_22_rotated.json,http://54.235.29.9/FacialAge/BNav_EC2/DepthDuration/v2_depth_duration_MTurk/v2_DepthDuration_HTML.html#36,36,1515,853,1364,768,8-21-2022,7-8-10,38,depth_duration_stimuli/002600_2014-06-24_14-27-04_094959634447_rgbf000074-resize_2/002600_2014-06-24_14-27-04_094959634447_rgbf000074-resize_2-target.png,125,2.7575,5,4050,124,feet,jsons/VE125_randls_22_rotated.json,1119939,1419621,30,Woman
38,494386,DepthScenes,duration_manipulation_targetAtFixation,jsons/VE125_randls_22_rotated.json,http://54.235.29.9/FacialAge/BNav_EC2/DepthDuration/v2_depth_duration_MTurk/v2_DepthDuration_HTML.html#36,36,1515,853,1364,768,8-21-2022,7-8-10,39,depth_duration_stimuli/000137_2014-05-20_17-04-49_260595134347_rgbf000120-resize_1/000137_2014-05-20_17-04-49_260595134347_rgbf000120-resize_1-target.png,125,3.786,6,5202,111,feet,jsons/VE125_randls_22_rotated.json,1119939,1419621,30,Woman
39,494386,DepthScenes,duration_manipulation_targetAtFixation,jsons/VE125_randls_22_rotated.json,http://54.235.29.9/FacialAge/BNav_EC2/DepthDuration/v2_depth_duration_MTurk/v2_DepthDuration_HTML.html#36,36,1515,853,1364,768,8-21-2022,7-8-10,40,depth_duration_stimuli/000736_2014-06-08_18-24-15_260595134347_rgbf000206-resize_3/000736_2014-06-08_18-24-15_260595134347_rgbf000206-resize_3-target.png,125,3.515,5,3239,120,feet,jsons/VE125_randls_22_rotated.json,1119939,1419621,30,Woman
40,494386,DepthScenes,duration_manipulation_targetAtFixation,jsons/VE125_randls_22_rotated.json,http://54.235.29.9/FacialAge/BNav_EC2/DepthDuration/v2_depth_duration_MTurk/v2_DepthDuration_HTML.html#36,36,1515,853,1364,768,8-21-2022,7-8-10,41,depth_duration_stimuli/000103_2014-05-14_22-01-17_260595134347_rgbf000152-resize_5/000103_2014-05-14_22-01-17_260595134347_rgbf000152-resize_5-target.png,125,1.993,4,3817,117,feet,jsons/VE125_randls_22_rotated.json,1119939,1419621,30,Woman
41,494386,DepthScenes,duration_manipulation_targetAtFixation,jsons/VE125_randls_22_rotated.json,http://54.235.29.9/FacialAge/BNav_EC2/DepthDuration/v2_depth_duration_MTurk/v2_DepthDuration_HTML.html#36,36,1515,853,1364,768,8-21-2022,7-8-10,42,depth_duration_stimuli/001555_2014-06-20_17-12-10_260595134347_rgbf000065-resize_4/001555_2014-06-20_17-12-10_260595134347_rgbf000065-resize_4-target.png,125,1.633,3,3980,146,feet,jsons/VE125_randls_22_rotated.json,1119939,1419621,30,Woman
42,494386,DepthScenes,duration_manipulation_targetAtFixation,jsons/VE125_randls_22_rotated.json,http://54.235.29.9/FacialAge/BNav_EC2/DepthDuration/v2_depth_duration_MTurk/v2_DepthDuration_HTML.html#36,36,1515,853,1364,768,8-21-2022,7-8-10,43,depth_duration_stimuli/003081_2014-06-15_15-19-16_094959634447_rgbf000150-resize_1/003081_2014-06-15_15-19-16_094959634447_rgbf000150-resize_1-target.png,125,3.9125,5,6220,124,feet,jsons/VE125_randls_22_rotated.json,1119939,1419621,30,Woman
43,494386,DepthScenes,duration_manipulation_targetAtFixation,jsons/VE125_randls_22_rotated.json,http://54.235.29.9/FacialAge/BNav_EC2/DepthDuration/v2_depth_duration_MTurk/v2_DepthDuration_HTML.html#36,36,1515,853,1364,768,8-21-2022,7-8-10,44,depth_duration_stimuli/001417_2014-06-19_16-25-36_260595134347_rgbf000115-resize_5/001417_2014-06-19_16-25-36_260595134347_rgbf000115-resize_5-target.png,125,4.6255,2,4573,136,feet,jsons/VE125_randls_22_rotated.json,1119939,1419621,30,Woman
44,494386,DepthScenes,duration_manipulation_targetAtFixation,jsons/VE125_randls_22_rotated.json,http://54.235.29.9/FacialAge/BNav_EC2/DepthDuration/v2_depth_duration_MTurk/v2_DepthDuration_HTML.html#36,36,1515,853,1364,768,8-21-2022,7-8-10,45,depth_duration_stimuli/000665_2014-06-09_20-42-35_260595134347_rgbf000110-resize_1/000665_2014-06-09_20-42-35_260595134347_rgbf000110-resize_1-target.png,125,3.057,5,7158,135,feet,jsons/VE125_randls_22_rotated.json,1119939,1419621,30,Woman
45,494386,DepthScenes,duration_manipulation_targetAtFixation,jsons/VE125_randls_22_rotated.json,http://54.235.29.9/FacialAge/BNav_EC2/DepthDuration/v2_depth_duration_MTurk/v2_DepthDuration_HTML.html#36,36,1515,853,1364,768,8-21-2022,7-8-10,46,depth_duration_stimuli/001150_2014-06-17_15-27-34_260595134347_rgbf000108-resize_2/001150_2014-06-17_15-27-34_260595134347_rgbf000108-resize_2-target.png,125,4.0325,6,4187,121,feet,jsons/VE125_randls_22_rotated.json,1119939,1419621,30,Woman
46,494386,DepthScenes,duration_manipulation_targetAtFixation,jsons/VE125_randls_22_rotated.json,http://54.235.29.9/FacialAge/BNav_EC2/DepthDuration/v2_depth_duration_MTurk/v2_DepthDuration_HTML.html#36,36,1515,853,1364,768,8-21-2022,7-8-10,47,depth_duration_stimuli/000854_2014-06-09_19-43-13_260595134347_rgbf000066-resize_0/000854_2014-06-09_19-43-13_260595134347_rgbf000066-resize_0-target.png,125,3.068,5,7340,88,feet,jsons/VE125_randls_22_rotated.json,1119939,1419621,30,Woman
47,494386,DepthScenes,duration_manipulation_targetAtFixation,jsons/VE125_randls_22_rotated.json,http://54.235.29.9/FacialAge/BNav_EC2/DepthDuration/v2_depth_duration_MTurk/v2_DepthDuration_HTML.html#36,36,1515,853,1364,768,8-21-2022,7-8-10,48,depth_duration_stimuli/000758_2014-06-08_22-05-08_260595134347_rgbf000085-resize_0/000758_2014-06-08_22-05-08_260595134347_rgbf000085-resize_0-target.png,125,3.3810000000000002,7,4848,120,feet,jsons/VE125_randls_22_rotated.json,1119939,1419621,30,Woman
48,494386,DepthScenes,duration_manipulation_targetAtFixation,jsons/VE125_randls_22_rotated.json,http://54.235.29.9/FacialAge/BNav_EC2/DepthDuration/v2_depth_duration_MTurk/v2_DepthDuration_HTML.html#36,36,1515,853,1364,768,8-21-2022,7-8-10,49,depth_duration_stimuli/001170_2014-06-17_15-43-44_260595134347_rgbf000096-resize_6/001170_2014-06-17_15-43-44_260595134347_rgbf000096-resize-original.jpg,125,1.1909999999999998,0,5980,121,feet,jsons/VE125_randls_22_rotated.json,1119939,1419621,30,Woman
49,494386,DepthScenes,duration_manipulation_targetAtFixation,jsons/VE125_randls_22_rotated.json,http://54.235.29.9/FacialAge/BNav_EC2/DepthDuration/v2_depth_duration_MTurk/v2_DepthDuration_HTML.html#36,36,1515,853,1364,768,8-21-2022,7-8-10,50,depth_duration_stimuli/001516_2014-06-20_16-25-09_260595134347_rgbf000076-resize_2/001516_2014-06-20_16-25-09_260595134347_rgbf000076-resize_2-target.png,125,1.7445,4,3660,120,feet,jsons/VE125_randls_22_rotated.json,1119939,1419621,30,Woman
50,494386,DepthScenes,duration_manipulation_targetAtFixation,jsons/VE125_randls_22_rotated.json,http://54.235.29.9/FacialAge/BNav_EC2/DepthDuration/v2_depth_duration_MTurk/v2_DepthDuration_HTML.html#36,36,1515,853,1364,768,8-21-2022,7-8-10,51,depth_duration_stimuli/002118_2014-06-25_20-32-08_260595134347_rgbf000078-resize_1/002118_2014-06-25_20-32-08_260595134347_rgbf000078-resize_1-target.png,125,2.6460000000000004,5,3588,131,feet,jsons/VE125_randls_22_rotated.json,1119939,1419621,30,Woman
51,494386,DepthScenes,duration_manipulation_targetAtFixation,jsons/VE125_randls_22_rotated.json,http://54.235.29.9/FacialAge/BNav_EC2/DepthDuration/v2_depth_duration_MTurk/v2_DepthDuration_HTML.html#36,36,1515,853,1364,768,8-21-2022,7-8-10,52,depth_duration_stimuli/002995_2014-06-15_12-31-26_094959634447_rgbf000150-resize_1/002995_2014-06-15_12-31-26_094959634447_rgbf000150-resize_1-target.png,125,3.8360000000000003,7,6311,123,feet,jsons/VE125_randls_22_rotated.json,1119939,1419621,30,Woman
52,494386,DepthScenes,duration_manipulation_targetAtFixation,jsons/VE125_randls_22_rotated.json,http://54.235.29.9/FacialAge/BNav_EC2/DepthDuration/v2_depth_duration_MTurk/v2_DepthDuration_HTML.html#36,36,1515,853,1364,768,8-21-2022,7-8-10,53,depth_duration_stimuli/002748_2014-06-22_19-07-22_094959634447_rgbf000078-resize_1/002748_2014-06-22_19-07-22_094959634447_rgbf000078-resize_1-target.png,125,4.6705,0,5363,128,feet,jsons/VE125_randls_22_rotated.json,1119939,1419621,30,Woman
53,494386,DepthScenes,duration_manipulation_targetAtFixation,jsons/VE125_randls_22_rotated.json,http://54.235.29.9/FacialAge/BNav_EC2/DepthDuration/v2_depth_duration_MTurk/v2_DepthDuration_HTML.html#36,36,1515,853,1364,768,8-21-2022,7-8-10,54,depth_duration_stimuli/003048_2014-06-15_13-49-43_094959634447_rgbf000150-resize_1/003048_2014-06-15_13-49-43_094959634447_rgbf000150-resize_1-target.png,125,4.0035,5,7157,122,feet,jsons/VE125_randls_22_rotated.json,1119939,1419621,30,Woman
54,494386,DepthScenes,duration_manipulation_targetAtFixation,jsons/VE125_randls_22_rotated.json,http://54.235.29.9/FacialAge/BNav_EC2/DepthDuration/v2_depth_duration_MTurk/v2_DepthDuration_HTML.html#36,36,1515,853,1364,768,8-21-2022,7-8-10,55,depth_duration_stimuli/002043_2014-06-24_20-29-38_260595134347_rgbf000039-resize_4/002043_2014-06-24_20-29-38_260595134347_rgbf000039-resize_4-target.png,125,2.8435,5,5484,125,feet,jsons/VE125_randls_22_rotated.json,1119939,1419621,30,Woman
55,494386,DepthScenes,duration_manipulation_targetAtFixation,jsons/VE125_randls_22_rotated.json,http://54.235.29.9/FacialAge/BNav_EC2/DepthDuration/v2_depth_duration_MTurk/v2_DepthDuration_HTML.html#36,36,1515,853,1364,768,8-21-2022,7-8-10,56,depth_duration_stimuli/000943_2014-06-09_19-31-07_260595134347_rgbf000128-resize_1/000943_2014-06-09_19-31-07_260595134347_rgbf000128-resize_1-target.png,125,1.9765,4,5967,124,feet,jsons/VE125_randls_22_rotated.json,1119939,1419621,30,Woman
56,494386,DepthScenes,duration_manipulation_targetAtFixation,jsons/VE125_randls_22_rotated.json,http://54.235.29.9/FacialAge/BNav_EC2/DepthDuration/v2_depth_duration_MTurk/v2_DepthDuration_HTML.html#36,36,1515,853,1364,768,8-21-2022,7-8-10,57,depth_duration_stimuli/003070_2014-06-15_14-58-27_094959634447_rgbf000150-resize_3/003070_2014-06-15_14-58-27_094959634447_rgbf000150-resize_3-target.png,125,2.9415,0,3497,121,feet,jsons/VE125_randls_22_rotated.json,1119939,1419621,30,Woman
57,494386,DepthScenes,duration_manipulation_targetAtFixation,jsons/VE125_randls_22_rotated.json,http://54.235.29.9/FacialAge/BNav_EC2/DepthDuration/v2_depth_duration_MTurk/v2_DepthDuration_HTML.html#36,36,1515,853,1364,768,8-21-2022,7-8-10,58,depth_duration_stimuli/003490_2014-05-21_15-50-11_094959634447_rgbf000101-resize_3/003490_2014-05-21_15-50-11_094959634447_rgbf000101-resize_3-target.png,125,3.6445,6,7115,135,feet,jsons/VE125_randls_22_rotated.json,1119939,1419621,30,Woman
58,494386,DepthScenes,duration_manipulation_targetAtFixation,jsons/VE125_randls_22_rotated.json,http://54.235.29.9/FacialAge/BNav_EC2/DepthDuration/v2_depth_duration_MTurk/v2_DepthDuration_HTML.html#36,36,1515,853,1364,768,8-21-2022,7-8-10,59,depth_duration_stimuli/001175_2014-06-17_15-45-55_260595134347_rgbf000129-resize_4/001175_2014-06-17_15-45-55_260595134347_rgbf000129-resize_4-target.png,125,4.255,1,4332,126,feet,jsons/VE125_randls_22_rotated.json,1119939,1419621,30,Woman
59,494386,DepthScenes,duration_manipulation_targetAtFixation,jsons/VE125_randls_22_rotated.json,http://54.235.29.9/FacialAge/BNav_EC2/DepthDuration/v2_depth_duration_MTurk/v2_DepthDuration_HTML.html#36,36,1515,853,1364,768,8-21-2022,7-8-10,60,depth_duration_stimuli/000191_2014-05-12_17-07-38_260595134347_rgbf000199-resize_0/000191_2014-05-12_17-07-38_260595134347_rgbf000199-resize_0-target.png,125,3.7995,6,6801,116,feet,jsons/VE125_randls_22_rotated.json,1119939,1419621,30,Woman
60,494386,DepthScenes,duration_manipulation_targetAtFixation,jsons/VE125_randls_22_rotated.json,http://54.235.29.9/FacialAge/BNav_EC2/DepthDuration/v2_depth_duration_MTurk/v2_DepthDuration_HTML.html#36,36,1515,853,1364,768,8-21-2022,7-8-10,61,depth_duration_stimuli/000493_2014-06-09_21-01-18_260595134347_rgbf000196-resize_3/000493_2014-06-09_21-01-18_260595134347_rgbf000196-resize_3-target.png,125,3.44,5,3311,119,feet,jsons/VE125_randls_22_rotated.json,1119939,1419621,30,Woman
61,494386,DepthScenes,duration_manipulation_targetAtFixation,jsons/VE125_randls_22_rotated.json,http://54.235.29.9/FacialAge/BNav_EC2/DepthDuration/v2_depth_duration_MTurk/v2_DepthDuration_HTML.html#36,36,1515,853,1364,768,8-21-2022,7-8-10,62,depth_duration_stimuli/001450_2014-06-19_17-02-03_260595134347_rgbf000203-resize_4/001450_2014-06-19_17-02-03_260595134347_rgbf000203-resize_4-target.png,125,4.0106666666667,8,4449,124,feet,jsons/VE125_randls_22_rotated.json,1119939,1419621,30,Woman
62,494386,DepthScenes,duration_manipulation_targetAtFixation,jsons/VE125_randls_22_rotated.json,http://54.235.29.9/FacialAge/BNav_EC2/DepthDuration/v2_depth_duration_MTurk/v2_DepthDuration_HTML.html#36,36,1515,853,1364,768,8-21-2022,7-8-10,63,depth_duration_stimuli/001449_2014-06-19_17-01-27_260595134347_rgbf000116-resize_2/001449_2014-06-19_17-01-27_260595134347_rgbf000116-resize_2-target.png,125,3.452,4,4157,123,feet,jsons/VE125_randls_22_rotated.json,1119939,1419621,30,Woman
63,494386,DepthScenes,duration_manipulation_targetAtFixation,jsons/VE125_randls_22_rotated.json,http://54.235.29.9/FacialAge/BNav_EC2/DepthDuration/v2_depth_duration_MTurk/v2_DepthDuration_HTML.html#36,36,1515,853,1364,768,8-21-2022,7-8-10,64,depth_duration_stimuli/001032_2014-06-08_13-23-17_260595134347_rgbf000021-resize_3/001032_2014-06-08_13-23-17_260595134347_rgbf000021-resize_3-target.png,125,3.2725,4,9016,125,feet,jsons/VE125_randls_22_rotated.json,1119939,1419621,30,Woman
64,494386,DepthScenes,duration_manipulation_targetAtFixation,jsons/VE125_randls_22_rotated.json,http://54.235.29.9/FacialAge/BNav_EC2/DepthDuration/v2_depth_duration_MTurk/v2_DepthDuration_HTML.html#36,36,1515,853,1364,768,8-21-2022,7-8-10,65,depth_duration_stimuli/001059_2014-06-08_21-53-27_260595134347_rgbf000061-resize_4/001059_2014-06-08_21-53-27_260595134347_rgbf000061-resize_4-target.png,125,2.4185,3,4645,119,feet,jsons/VE125_randls_22_rotated.json,1119939,1419621,30,Woman
65,494386,DepthScenes,duration_manipulation_targetAtFixation,jsons/VE125_randls_22_rotated.json,http://54.235.29.9/FacialAge/BNav_EC2/DepthDuration/v2_depth_duration_MTurk/v2_DepthDuration_HTML.html#36,36,1515,853,1364,768,8-21-2022,7-8-10,66,depth_duration_stimuli/001540_2014-06-20_17-01-05_260595134347_rgbf000086-resize_2/001540_2014-06-20_17-01-05_260595134347_rgbf000086-resize-original.jpg,125,1.459,0,4729,121,feet,jsons/VE125_randls_22_rotated.json,1119939,1419621,30,Woman
66,494386,DepthScenes,duration_manipulation_targetAtFixation,jsons/VE125_randls_22_rotated.json,http://54.235.29.9/FacialAge/BNav_EC2/DepthDuration/v2_depth_duration_MTurk/v2_DepthDuration_HTML.html#36,36,1515,853,1364,768,8-21-2022,7-8-10,67,depth_duration_stimuli/002103_2014-06-25_20-00-40_260595134347_rgbf000049-resize_0/002103_2014-06-25_20-00-40_260595134347_rgbf000049-resize_0-target.png,125,4.105,4,4421,124,feet,jsons/VE125_randls_22_rotated.json,1119939,1419621,30,Woman
67,494386,DepthScenes,duration_manipulation_targetAtFixation,jsons/VE125_randls_22_rotated.json,http://54.235.29.9/FacialAge/BNav_EC2/DepthDuration/v2_depth_duration_MTurk/v2_DepthDuration_HTML.html#36,36,1515,853,1364,768,8-21-2022,7-8-10,68,depth_duration_stimuli/002039_2014-06-24_20-22-38_260595134347_rgbf000084-resize_1/002039_2014-06-24_20-22-38_260595134347_rgbf000084-resize_1-target.png,125,4.408,6,5421,125,feet,jsons/VE125_randls_22_rotated.json,1119939,1419621,30,Woman
68,494386,DepthScenes,duration_manipulation_targetAtFixation,jsons/VE125_randls_22_rotated.json,http://54.235.29.9/FacialAge/BNav_EC2/DepthDuration/v2_depth_duration_MTurk/v2_DepthDuration_HTML.html#36,36,1515,853,1364,768,8-21-2022,7-8-10,69,depth_duration_stimuli/001392_2014-06-19_16-07-59_260595134347_rgbf000046-resize_1/001392_2014-06-19_16-07-59_260595134347_rgbf000046-resize_1-target.png,125,4.135,5,4931,115,feet,jsons/VE125_randls_22_rotated.json,1119939,1419621,30,Woman
69,494386,DepthScenes,duration_manipulation_targetAtFixation,jsons/VE125_randls_22_rotated.json,http://54.235.29.9/FacialAge/BNav_EC2/DepthDuration/v2_depth_duration_MTurk/v2_DepthDuration_HTML.html#36,36,1515,853,1364,768,8-21-2022,7-8-10,70,depth_duration_stimuli/001570_2014-06-20_17-21-09_260595134347_rgbf000135-resize_4/001570_2014-06-20_17-21-09_260595134347_rgbf000135-resize_4-target.png,125,4.467,4,4059,119,feet,jsons/VE125_randls_22_rotated.json,1119939,1419621,30,Woman
70,494386,DepthScenes,duration_manipulation_targetAtFixation,jsons/VE125_randls_22_rotated.json,http://54.235.29.9/FacialAge/BNav_EC2/DepthDuration/v2_depth_duration_MTurk/v2_DepthDuration_HTML.html#36,36,1515,853,1364,768,8-21-2022,7-8-10,71,depth_duration_stimuli/002136_2014-06-25_21-18-03_260595134347_rgbf000109-resize_3/002136_2014-06-25_21-18-03_260595134347_rgbf000109-resize_3-target.png,125,1.9569999999999999,3,3189,117,feet,jsons/VE125_randls_22_rotated.json,1119939,1419621,30,Woman
71,494386,DepthScenes,duration_manipulation_targetAtFixation,jsons/VE125_randls_22_rotated.json,http://54.235.29.9/FacialAge/BNav_EC2/DepthDuration/v2_depth_duration_MTurk/v2_DepthDuration_HTML.html#36,36,1515,853,1364,768,8-21-2022,7-8-10,72,depth_duration_stimuli/002964_2014-06-08_17-46-11_094959634447_rgbf000091-resize_4/002964_2014-06-08_17-46-11_094959634447_rgbf000091-resize_4-target.png,125,1.6909999999999998,0,3475,126,feet,jsons/VE125_randls_22_rotated.json,1119939,1419621,30,Woman
72,494386,DepthScenes,duration_manipulation_targetAtFixation,jsons/VE125_randls_22_rotated.json,http://54.235.29.9/FacialAge/BNav_EC2/DepthDuration/v2_depth_duration_MTurk/v2_DepthDuration_HTML.html#36,36,1515,853,1364,768,8-21-2022,7-8-10,73,depth_duration_stimuli/000677_2014-06-08_23-10-32_260595134347_rgbf000158-resize_6/000677_2014-06-08_23-10-32_260595134347_rgbf000158-resize_6-target.png,125,3.556,4,3868,129,feet,jsons/VE125_randls_22_rotated.json,1119939,1419621,30,Woman
73,494386,DepthScenes,duration_manipulation_targetAtFixation,jsons/VE125_randls_22_rotated.json,http://54.235.29.9/FacialAge/BNav_EC2/DepthDuration/v2_depth_duration_MTurk/v2_DepthDuration_HTML.html#36,36,1515,853,1364,768,8-21-2022,7-8-10,74,depth_duration_stimuli/001029_2014-06-08_13-17-57_260595134347_rgbf000065-resize_1/001029_2014-06-08_13-17-57_260595134347_rgbf000065-resize_1-target.png,125,3.0835,0,3723,128,feet,jsons/VE125_randls_22_rotated.json,1119939,1419621,30,Woman
74,494386,DepthScenes,duration_manipulation_targetAtFixation,jsons/VE125_randls_22_rotated.json,http://54.235.29.9/FacialAge/BNav_EC2/DepthDuration/v2_depth_duration_MTurk/v2_DepthDuration_HTML.html#36,36,1515,853,1364,768,8-21-2022,7-8-10,75,depth_duration_stimuli/003587_2014-05-23_16-48-02_094959634447_rgbf002384-resize_2/003587_2014-05-23_16-48-02_094959634447_rgbf002384-resize_2-target.png,125,1.357,1,6038,135,feet,jsons/VE125_randls_22_rotated.json,1119939,1419621,30,Woman
75,494386,DepthScenes,duration_manipulation_targetAtFixation,jsons/VE125_randls_22_rotated.json,http://54.235.29.9/FacialAge/BNav_EC2/DepthDuration/v2_depth_duration_MTurk/v2_DepthDuration_HTML.html#36,36,1515,853,1364,768,8-21-2022,7-8-10,76,depth_duration_stimuli/001167_2014-06-17_15-38-07_260595134347_rgbf000108-resize_0/001167_2014-06-17_15-38-07_260595134347_rgbf000108-resize_0-target.png,125,1.8505,3,3937,112,feet,jsons/VE125_randls_22_rotated.json,1119939,1419621,30,Woman
76,494386,DepthScenes,duration_manipulation_targetAtFixation,jsons/VE125_randls_22_rotated.json,http://54.235.29.9/FacialAge/BNav_EC2/DepthDuration/v2_depth_duration_MTurk/v2_DepthDuration_HTML.html#36,36,1515,853,1364,768,8-21-2022,7-8-10,77,depth_duration_stimuli/000866_2014-06-09_20-45-42_260595134347_rgbf000139-resize_1/000866_2014-06-09_20-45-42_260595134347_rgbf000139-resize_1-target.png,125,3.2155,3,4865,113,feet,jsons/VE125_randls_22_rotated.json,1119939,1419621,30,Woman
77,494386,DepthScenes,duration_manipulation_targetAtFixation,jsons/VE125_randls_22_rotated.json,http://54.235.29.9/FacialAge/BNav_EC2/DepthDuration/v2_depth_duration_MTurk/v2_DepthDuration_HTML.html#36,36,1515,853,1364,768,8-21-2022,7-8-10,78,depth_duration_stimuli/002989_2014-06-15_12-25-03_094959634447_rgbf000150-resize_3/002989_2014-06-15_12-25-03_094959634447_rgbf000150-resize_3-target.png,125,4.1975,5,3715,113,feet,jsons/VE125_randls_22_rotated.json,1119939,1419621,30,Woman
78,494386,DepthScenes,duration_manipulation_targetAtFixation,jsons/VE125_randls_22_rotated.json,http://54.235.29.9/FacialAge/BNav_EC2/DepthDuration/v2_depth_duration_MTurk/v2_DepthDuration_HTML.html#36,36,1515,853,1364,768,8-21-2022,7-8-10,79,depth_duration_stimuli/000409_2014-06-04_19-23-33_260595134347_rgbf000067-resize_0/000409_2014-06-04_19-23-33_260595134347_rgbf000067-resize_0-target.png,125,3.7335,3,4489,124,feet,jsons/VE125_randls_22_rotated.json,1119939,1419621,30,Woman
79,494386,DepthScenes,duration_manipulation_targetAtFixation,jsons/VE125_randls_22_rotated.json,http://54.235.29.9/FacialAge/BNav_EC2/DepthDuration/v2_depth_duration_MTurk/v2_DepthDuration_HTML.html#36,36,1515,853,1364,768,8-21-2022,7-8-10,80,depth_duration_stimuli/002663_2014-06-13_15-50-26_094959634447_rgbf000075-resize_1/002663_2014-06-13_15-50-26_094959634447_rgbf000075-resize_1-target.png,125,4.7495,4,2831,119,feet,jsons/VE125_randls_22_rotated.json,1119939,1419621,30,Woman
80,494386,DepthScenes,duration_manipulation_targetAtFixation,jsons/VE125_randls_22_rotated.json,http://54.235.29.9/FacialAge/BNav_EC2/DepthDuration/v2_depth_duration_MTurk/v2_DepthDuration_HTML.html#36,36,1515,853,1364,768,8-21-2022,7-8-10,81,depth_duration_stimuli/002953_2014-06-08_17-32-18_094959634447_rgbf000059-resize_5/002953_2014-06-08_17-32-18_094959634447_rgbf000059-resize_5-target.png,125,1.551,2,3085,124,feet,jsons/VE125_randls_22_rotated.json,1119939,1419621,30,Woman
81,494386,DepthScenes,duration_manipulation_targetAtFixation,jsons/VE125_randls_22_rotated.json,http://54.235.29.9/FacialAge/BNav_EC2/DepthDuration/v2_depth_duration_MTurk/v2_DepthDuration_HTML.html#36,36,1515,853,1364,768,8-21-2022,7-8-10,82,depth_duration_stimuli/000878_2014-06-08_22-52-45_260595134347_rgbf000045-resize_2/000878_2014-06-08_22-52-45_260595134347_rgbf000045-resize_2-target.png,125,2.092,3,3023,121,feet,jsons/VE125_randls_22_rotated.json,1119939,1419621,30,Woman
82,494386,DepthScenes,duration_manipulation_targetAtFixation,jsons/VE125_randls_22_rotated.json,http://54.235.29.9/FacialAge/BNav_EC2/DepthDuration/v2_depth_duration_MTurk/v2_DepthDuration_HTML.html#36,36,1515,853,1364,768,8-21-2022,7-8-10,83,depth_duration_stimuli/001094_2014-06-15_17-36-00_260595134347_rgbf000205-resize_0/001094_2014-06-15_17-36-00_260595134347_rgbf000205-resize_0-target.png,125,4.2175,5,4210,124,feet,jsons/VE125_randls_22_rotated.json,1119939,1419621,30,Woman
83,494386,DepthScenes,duration_manipulation_targetAtFixation,jsons/VE125_randls_22_rotated.json,http://54.235.29.9/FacialAge/BNav_EC2/DepthDuration/v2_depth_duration_MTurk/v2_DepthDuration_HTML.html#36,36,1515,853,1364,768,8-21-2022,7-8-10,84,depth_duration_stimuli/000692_2014-06-08_13-09-42_260595134347_rgbf000199-resize_2/000692_2014-06-08_13-09-42_260595134347_rgbf000199-resize_2-target.png,125,3.661,3,5794,124,feet,jsons/VE125_randls_22_rotated.json,1119939,1419621,30,Woman
84,494386,DepthScenes,duration_manipulation_targetAtFixation,jsons/VE125_randls_22_rotated.json,http://54.235.29.9/FacialAge/BNav_EC2/DepthDuration/v2_depth_duration_MTurk/v2_DepthDuration_HTML.html#36,36,1515,853,1364,768,8-21-2022,7-8-10,85,depth_duration_stimuli/001136_2014-06-17_15-19-41_260595134347_rgbf000076-resize_3/001136_2014-06-17_15-19-41_260595134347_rgbf000076-resize_3-target.png,125,1.8655,3,5197,122,feet,jsons/VE125_randls_22_rotated.json,1119939,1419621,30,Woman
85,494386,DepthScenes,duration_manipulation_targetAtFixation,jsons/VE125_randls_22_rotated.json,http://54.235.29.9/FacialAge/BNav_EC2/DepthDuration/v2_depth_duration_MTurk/v2_DepthDuration_HTML.html#36,36,1515,853,1364,768,8-21-2022,7-8-10,86,depth_duration_stimuli/001164_2014-06-17_15-35-46_260595134347_rgbf000085-resize_3/001164_2014-06-17_15-35-46_260595134347_rgbf000085-resize_3-target.png,125,2.354,0,3915,133,feet,jsons/VE125_randls_22_rotated.json,1119939,1419621,30,Woman
86,494386,DepthScenes,duration_manipulation_targetAtFixation,jsons/VE125_randls_22_rotated.json,http://54.235.29.9/FacialAge/BNav_EC2/DepthDuration/v2_depth_duration_MTurk/v2_DepthDuration_HTML.html#36,36,1515,853,1364,768,8-21-2022,7-8-10,87,depth_duration_stimuli/002657_2014-06-13_15-29-54_094959634447_rgbf000150-resize_1/002657_2014-06-13_15-29-54_094959634447_rgbf000150-resize_1-target.png,125,4.919,4,151255,117,feet,jsons/VE125_randls_22_rotated.json,1119939,1419621,30,Woman
87,494386,DepthScenes,duration_manipulation_targetAtFixation,jsons/VE125_randls_22_rotated.json,http://54.235.29.9/FacialAge/BNav_EC2/DepthDuration/v2_depth_duration_MTurk/v2_DepthDuration_HTML.html#36,36,1515,853,1364,768,8-21-2022,7-8-10,88,depth_duration_stimuli/002375_2014-06-28_20-13-44_260595134347_rgbf000032-resize_1/002375_2014-06-28_20-13-44_260595134347_rgbf000032-resize_1-target.png,125,4.0175,5,3205,111,feet,jsons/VE125_randls_22_rotated.json,1119939,1419621,30,Woman
88,494386,DepthScenes,duration_manipulation_targetAtFixation,jsons/VE125_randls_22_rotated.json,http://54.235.29.9/FacialAge/BNav_EC2/DepthDuration/v2_depth_duration_MTurk/v2_DepthDuration_HTML.html#36,36,1515,853,1364,768,8-21-2022,7-8-10,89,depth_duration_stimuli/002444_2014-06-28_20-32-08_260595134347_rgbf000027-resize_0/002444_2014-06-28_20-32-08_260595134347_rgbf000027-resize_0-target.png,125,4.388999999999999,7,3715,119,feet,jsons/VE125_randls_22_rotated.json,1119939,1419621,30,Woman
89,494386,DepthScenes,duration_manipulation_targetAtFixation,jsons/VE125_randls_22_rotated.json,http://54.235.29.9/FacialAge/BNav_EC2/DepthDuration/v2_depth_duration_MTurk/v2_DepthDuration_HTML.html#36,36,1515,853,1364,768,8-21-2022,7-8-10,90,depth_duration_stimuli/000436_2014-06-09_22-25-11_260595134347_rgbf000137-resize_1/000436_2014-06-09_22-25-11_260595134347_rgbf000137-resize_1-target.png,125,4.0705,0,3615,39,feet,jsons/VE125_randls_22_rotated.json,1119939,1419621,30,Woman
90,494386,DepthScenes,duration_manipulation_targetAtFixation,jsons/VE125_randls_22_rotated.json,http://54.235.29.9/FacialAge/BNav_EC2/DepthDuration/v2_depth_duration_MTurk/v2_DepthDuration_HTML.html#36,36,1515,853,1364,768,8-21-2022,7-8-10,91,depth_duration_stimuli/003079_2014-06-15_15-18-20_094959634447_rgbf000152-resize_8/003079_2014-06-15_15-18-20_094959634447_rgbf000152-resize_8-target.png,125,2.8775,7,5013,132,feet,jsons/VE125_randls_22_rotated.json,1119939,1419621,30,Woman
91,494386,DepthScenes,duration_manipulation_targetAtFixation,jsons/VE125_randls_22_rotated.json,http://54.235.29.9/FacialAge/BNav_EC2/DepthDuration/v2_depth_duration_MTurk/v2_DepthDuration_HTML.html#36,36,1515,853,1364,768,8-21-2022,7-8-10,92,depth_duration_stimuli/000506_2014-06-08_23-21-00_260595134347_rgbf000070-resize_7/000506_2014-06-08_23-21-00_260595134347_rgbf000070-resize_7-target.png,125,4.0585,0,3124,122,feet,jsons/VE125_randls_22_rotated.json,1119939,1419621,30,Woman
92,494386,DepthScenes,duration_manipulation_targetAtFixation,jsons/VE125_randls_22_rotated.json,http://54.235.29.9/FacialAge/BNav_EC2/DepthDuration/v2_depth_duration_MTurk/v2_DepthDuration_HTML.html#36,36,1515,853,1364,768,8-21-2022,7-8-10,93,depth_duration_stimuli/000502_2014-06-08_23-02-32_260595134347_rgbf000063-resize_4/000502_2014-06-08_23-02-32_260595134347_rgbf000063-resize_4-target.png,125,2.431,3,4184,125,feet,jsons/VE125_randls_22_rotated.json,1119939,1419621,30,Woman
93,494386,DepthScenes,duration_manipulation_targetAtFixation,jsons/VE125_randls_22_rotated.json,http://54.235.29.9/FacialAge/BNav_EC2/DepthDuration/v2_depth_duration_MTurk/v2_DepthDuration_HTML.html#36,36,1515,853,1364,768,8-21-2022,7-8-10,94,depth_duration_stimuli/001199_2014-06-17_16-03-48_260595134347_rgbf000077-resize_0/001199_2014-06-17_16-03-48_260595134347_rgbf000077-resize_0-target.png,125,3.4375,5,3214,135,feet,jsons/VE125_randls_22_rotated.json,1119939,1419621,30,Woman
94,494386,DepthScenes,duration_manipulation_targetAtFixation,jsons/VE125_randls_22_rotated.json,http://54.235.29.9/FacialAge/BNav_EC2/DepthDuration/v2_depth_duration_MTurk/v2_DepthDuration_HTML.html#36,36,1515,853,1364,768,8-21-2022,7-8-10,95,depth_duration_stimuli/000780_2014-06-08_22-28-29_260595134347_rgbf000126-resize_1/000780_2014-06-08_22-28-29_260595134347_rgbf000126-resize_1-target.png,125,3.3825,4,4039,121,feet,jsons/VE125_randls_22_rotated.json,1119939,1419621,30,Woman
95,494386,DepthScenes,duration_manipulation_targetAtFixation,jsons/VE125_randls_22_rotated.json,http://54.235.29.9/FacialAge/BNav_EC2/DepthDuration/v2_depth_duration_MTurk/v2_DepthDuration_HTML.html#36,36,1515,853,1364,768,8-21-2022,7-8-10,96,depth_duration_stimuli/002445_2014-06-28_20-32-16_260595134347_rgbf000029-resize_4/002445_2014-06-28_20-32-16_260595134347_rgbf000029-resize_4-target.png,125,2.5315,3,3665,120,feet,jsons/VE125_randls_22_rotated.json,1119939,1419621,30,Woman
96,494386,DepthScenes,duration_manipulation_targetAtFixation,jsons/VE125_randls_22_rotated.json,http://54.235.29.9/FacialAge/BNav_EC2/DepthDuration/v2_depth_duration_MTurk/v2_DepthDuration_HTML.html#36,36,1515,853,1364,768,8-21-2022,7-8-10,97,depth_duration_stimuli/001815_2014-06-26_20-52-55_260595134347_rgbf000020-resize_0/001815_2014-06-26_20-52-55_260595134347_rgbf000020-resize_0-target.png,125,3.3865,5,3703,126,feet,jsons/VE125_randls_22_rotated.json,1119939,1419621,30,Woman
97,494386,DepthScenes,duration_manipulation_targetAtFixation,jsons/VE125_randls_22_rotated.json,http://54.235.29.9/FacialAge/BNav_EC2/DepthDuration/v2_depth_duration_MTurk/v2_DepthDuration_HTML.html#36,36,1515,853,1364,768,8-21-2022,7-8-10,98,depth_duration_stimuli/001808_2014-06-26_20-50-58_260595134347_rgbf000029-resize_1/001808_2014-06-26_20-50-58_260595134347_rgbf000029-resize_1-target.png,125,4.249,5,3915,51,feet,jsons/VE125_randls_22_rotated.json,1119939,1419621,30,Woman
98,494386,DepthScenes,duration_manipulation_targetAtFixation,jsons/VE125_randls_22_rotated.json,http://54.235.29.9/FacialAge/BNav_EC2/DepthDuration/v2_depth_duration_MTurk/v2_DepthDuration_HTML.html#36,36,1515,853,1364,768,8-21-2022,7-8-10,99,depth_duration_stimuli/001222_2014-06-17_16-24-06_260595134347_rgbf000073-resize_0/001222_2014-06-17_16-24-06_260595134347_rgbf000073-resize-original.jpg,125,1.4385,0,4696,125,feet,jsons/VE125_randls_22_rotated.json,1119939,1419621,30,Woman
99,494386,DepthScenes,duration_manipulation_targetAtFixation,jsons/VE125_randls_22_rotated.json,http://54.235.29.9/FacialAge/BNav_EC2/DepthDuration/v2_depth_duration_MTurk/v2_DepthDuration_HTML.html#36,36,1515,853,1364,768,8-21-2022,7-8-10,100,depth_duration_stimuli/002425_2014-06-28_20-27-29_260595134347_rgbf000031-resize_8/002425_2014-06-28_20-27-29_260595134347_rgbf000031-resize_8-target.png,125,3.8960000000000004,4,4255,120,feet,jsons/VE125_randls_22_rotated.json,1119939,1419621,30,Woman
100,494386,DepthScenes,duration_manipulation_targetAtFixation,jsons/VE125_randls_22_rotated.json,http://54.235.29.9/FacialAge/BNav_EC2/DepthDuration/v2_depth_duration_MTurk/v2_DepthDuration_HTML.html#36,36,1515,853,1364,768,8-21-2022,7-8-10,101,depth_duration_stimuli/000642_2014-06-08_16-59-25_260595134347_rgbf000098-resize_2/000642_2014-06-08_16-59-25_260595134347_rgbf000098-resize_2-target.png,125,2.8815,5,3909,118,feet,jsons/VE125_randls_22_rotated.json,1119939,1419621,30,Woman
101,494386,DepthScenes,duration_manipulation_targetAtFixation,jsons/VE125_randls_22_rotated.json,http://54.235.29.9/FacialAge/BNav_EC2/DepthDuration/v2_depth_duration_MTurk/v2_DepthDuration_HTML.html#36,36,1515,853,1364,768,8-21-2022,7-8-10,102,depth_duration_stimuli/002758_2014-06-22_19-11-20_094959634447_rgbf000128-resize_1/002758_2014-06-22_19-11-20_094959634447_rgbf000128-resize_1-target.png,125,2.555,4,4323,136,feet,jsons/VE125_randls_22_rotated.json,1119939,1419621,30,Woman
102,494386,DepthScenes,duration_manipulation_targetAtFixation,jsons/VE125_randls_22_rotated.json,http://54.235.29.9/FacialAge/BNav_EC2/DepthDuration/v2_depth_duration_MTurk/v2_DepthDuration_HTML.html#36,36,1515,853,1364,768,8-21-2022,7-8-10,103,depth_duration_stimuli/002630_2014-06-24_14-47-50_094959634447_rgbf000055-resize_1/002630_2014-06-24_14-47-50_094959634447_rgbf000055-resize_1-target.png,125,3.0095,0,3077,116,feet,jsons/VE125_randls_22_rotated.json,1119939,1419621,30,Woman
103,494386,DepthScenes,duration_manipulation_targetAtFixation,jsons/VE125_randls_22_rotated.json,http://54.235.29.9/FacialAge/BNav_EC2/DepthDuration/v2_depth_duration_MTurk/v2_DepthDuration_HTML.html#36,36,1515,853,1364,768,8-21-2022,7-8-10,104,depth_duration_stimuli/003423_2014-05-21_10-23-26_094959634447_rgbf002665-resize_2/003423_2014-05-21_10-23-26_094959634447_rgbf002665-resize_2-target.png,125,3.2575,5,4328,131,feet,jsons/VE125_randls_22_rotated.json,1119939,1419621,30,Woman
104,494386,DepthScenes,duration_manipulation_targetAtFixation,jsons/VE125_randls_22_rotated.json,http://54.235.29.9/FacialAge/BNav_EC2/DepthDuration/v2_depth_duration_MTurk/v2_DepthDuration_HTML.html#36,36,1515,853,1364,768,8-21-2022,7-8-10,105,depth_duration_stimuli/002905_2014-06-03_18-04-43_094959634447_rgbf000151-resize_2/002905_2014-06-03_18-04-43_094959634447_rgbf000151-resize_2-target.png,125,2.0295,3,3206,123,feet,jsons/VE125_randls_22_rotated.json,1119939,1419621,30,Woman
105,494386,DepthScenes,duration_manipulation_targetAtFixation,jsons/VE125_randls_22_rotated.json,http://54.235.29.9/FacialAge/BNav_EC2/DepthDuration/v2_depth_duration_MTurk/v2_DepthDuration_HTML.html#36,36,1515,853,1364,768,8-21-2022,7-8-10,106,depth_duration_stimuli/003495_2014-05-21_16-01-51_094959634447_rgbf000100-resize_3/003495_2014-05-21_16-01-51_094959634447_rgbf000100-resize_3-target.png,125,1.6255,3,5426,124,feet,jsons/VE125_randls_22_rotated.json,1119939,1419621,30,Woman
106,494386,DepthScenes,duration_manipulation_targetAtFixation,jsons/VE125_randls_22_rotated.json,http://54.235.29.9/FacialAge/BNav_EC2/DepthDuration/v2_depth_duration_MTurk/v2_DepthDuration_HTML.html#36,36,1515,853,1364,768,8-21-2022,7-8-10,107,depth_duration_stimuli/001244_2014-06-17_16-47-45_260595134347_rgbf000030-resize_4/001244_2014-06-17_16-47-45_260595134347_rgbf000030-resize_4-target.png,125,2.0425,0,3092,123,feet,jsons/VE125_randls_22_rotated.json,1119939,1419621,30,Woman
107,494386,DepthScenes,duration_manipulation_targetAtFixation,jsons/VE125_randls_22_rotated.json,http://54.235.29.9/FacialAge/BNav_EC2/DepthDuration/v2_depth_duration_MTurk/v2_DepthDuration_HTML.html#36,36,1515,853,1364,768,8-21-2022,7-8-10,108,depth_duration_stimuli/002660_2014-06-13_15-44-18_094959634447_rgbf001878-resize_2/002660_2014-06-13_15-44-18_094959634447_rgbf001878-resize_2-target.png,125,3.576,5,4806,119,feet,jsons/VE125_randls_22_rotated.json,1119939,1419621,30,Woman
108,494386,DepthScenes,duration_manipulation_targetAtFixation,jsons/VE125_randls_22_rotated.json,http://54.235.29.9/FacialAge/BNav_EC2/DepthDuration/v2_depth_duration_MTurk/v2_DepthDuration_HTML.html#36,36,1515,853,1364,768,8-21-2022,7-8-10,109,depth_duration_stimuli/002153_2014-06-25_21-27-18_260595134347_rgbf000038-resize_5/002153_2014-06-25_21-27-18_260595134347_rgbf000038-resize_5-target.png,125,2.505,0,3099,126,feet,jsons/VE125_randls_22_rotated.json,1119939,1419621,30,Woman
109,494386,DepthScenes,duration_manipulation_targetAtFixation,jsons/VE125_randls_22_rotated.json,http://54.235.29.9/FacialAge/BNav_EC2/DepthDuration/v2_depth_duration_MTurk/v2_DepthDuration_HTML.html#36,36,1515,853,1364,768,8-21-2022,7-8-10,110,depth_duration_stimuli/002323_2014-06-28_20-01-54_260595134347_rgbf000051-resize_4/002323_2014-06-28_20-01-54_260595134347_rgbf000051-resize_4-target.png,125,3.7310000000000003,8,5075,126,feet,jsons/VE125_randls_22_rotated.json,1119939,1419621,30,Woman
110,494386,DepthScenes,duration_manipulation_targetAtFixation,jsons/VE125_randls_22_rotated.json,http://54.235.29.9/FacialAge/BNav_EC2/DepthDuration/v2_depth_duration_MTurk/v2_DepthDuration_HTML.html#36,36,1515,853,1364,768,8-21-2022,7-8-10,111,depth_duration_stimuli/000917_2014-06-09_22-45-29_260595134347_rgbf000149-resize_3/000917_2014-06-09_22-45-29_260595134347_rgbf000149-resize_3-target.png,125,4.1865,4,5040,120,feet,jsons/VE125_randls_22_rotated.json,1119939,1419621,30,Woman
111,494386,DepthScenes,duration_manipulation_targetAtFixation,jsons/VE125_randls_22_rotated.json,http://54.235.29.9/FacialAge/BNav_EC2/DepthDuration/v2_depth_duration_MTurk/v2_DepthDuration_HTML.html#36,36,1515,853,1364,768,8-21-2022,7-8-10,112,depth_duration_stimuli/001214_2014-06-17_16-13-55_260595134347_rgbf000111-resize_0/001214_2014-06-17_16-13-55_260595134347_rgbf000111-resize_0-target.png,125,2.6505,5,4888,111,feet,jsons/VE125_randls_22_rotated.json,1119939,1419621,30,Woman
112,494386,DepthScenes,duration_manipulation_targetAtFixation,jsons/VE125_randls_22_rotated.json,http://54.235.29.9/FacialAge/BNav_EC2/DepthDuration/v2_depth_duration_MTurk/v2_DepthDuration_HTML.html#36,36,1515,853,1364,768,8-21-2022,7-8-10,113,depth_duration_stimuli/000810_2014-06-08_17-20-01_260595134347_rgbf000105-resize_0/000810_2014-06-08_17-20-01_260595134347_rgbf000105-resize_0-target.png,125,1.4865,4,3638,123,feet,jsons/VE125_randls_22_rotated.json,1119939,1419621,30,Woman
113,494386,DepthScenes,duration_manipulation_targetAtFixation,jsons/VE125_randls_22_rotated.json,http://54.235.29.9/FacialAge/BNav_EC2/DepthDuration/v2_depth_duration_MTurk/v2_DepthDuration_HTML.html#36,36,1515,853,1364,768,8-21-2022,7-8-10,114,depth_duration_stimuli/000749_2014-06-08_21-55-06_260595134347_rgbf000070-resize_2/000749_2014-06-08_21-55-06_260595134347_rgbf000070-resize_2-target.png,125,2.331,7,15646,120,feet,jsons/VE125_randls_22_rotated.json,1119939,1419621,30,Woman
114,494386,DepthScenes,duration_manipulation_targetAtFixation,jsons/VE125_randls_22_rotated.json,http://54.235.29.9/FacialAge/BNav_EC2/DepthDuration/v2_depth_duration_MTurk/v2_DepthDuration_HTML.html#36,36,1515,853,1364,768,8-21-2022,7-8-10,115,depth_duration_stimuli/002788_2014-06-22_19-36-03_094959634447_rgbf000088-resize_2/002788_2014-06-22_19-36-03_094959634447_rgbf000088-resize_2-target.png,125,1.6465,3,6621,124,feet,jsons/VE125_randls_22_rotated.json,1119939,1419621,30,Woman
115,494386,DepthScenes,duration_manipulation_targetAtFixation,jsons/VE125_randls_22_rotated.json,http://54.235.29.9/FacialAge/BNav_EC2/DepthDuration/v2_depth_duration_MTurk/v2_DepthDuration_HTML.html#36,36,1515,853,1364,768,8-21-2022,7-8-10,116,depth_duration_stimuli/001584_2014-06-20_11-07-43_260595134347_rgbf000002-resize_1/001584_2014-06-20_11-07-43_260595134347_rgbf000002-resize_1-target.png,125,3.53,3,31280,111,feet,jsons/VE125_randls_22_rotated.json,1119939,1419621,30,Woman
116,494386,DepthScenes,duration_manipulation_targetAtFixation,jsons/VE125_randls_22_rotated.json,http://54.235.29.9/FacialAge/BNav_EC2/DepthDuration/v2_depth_duration_MTurk/v2_DepthDuration_HTML.html#36,36,1515,853,1364,768,8-21-2022,7-8-10,117,depth_duration_stimuli/003621_2014-05-23_18-06-08_094959634447_rgbf000101-resize_1/003621_2014-05-23_18-06-08_094959634447_rgbf000101-resize_1-target.png,125,3.9835,0,3261,0,feet,jsons/VE125_randls_22_rotated.json,1119939,1419621,30,Woman
117,494386,DepthScenes,duration_manipulation_targetAtFixation,jsons/VE125_randls_22_rotated.json,http://54.235.29.9/FacialAge/BNav_EC2/DepthDuration/v2_depth_duration_MTurk/v2_DepthDuration_HTML.html#36,36,1515,853,1364,768,8-21-2022,7-8-10,118,depth_duration_stimuli/000483_2014-06-09_20-41-45_260595134347_rgbf000116-resize_4/000483_2014-06-09_20-41-45_260595134347_rgbf000116-resize_4-target.png,125,1.337,2,8181,137,feet,jsons/VE125_randls_22_rotated.json,1119939,1419621,30,Woman
118,494386,DepthScenes,duration_manipulation_targetAtFixation,jsons/VE125_randls_22_rotated.json,http://54.235.29.9/FacialAge/BNav_EC2/DepthDuration/v2_depth_duration_MTurk/v2_DepthDuration_HTML.html#36,36,1515,853,1364,768,8-21-2022,7-8-10,119,depth_duration_stimuli/000469_2014-06-09_19-42-10_260595134347_rgbf000081-resize_1/000469_2014-06-09_19-42-10_260595134347_rgbf000081-resize_1-target.png,125,1.652,0,13312,166,feet,jsons/VE125_randls_22_rotated.json,1119939,1419621,30,Woman
119,494386,DepthScenes,duration_manipulation_targetAtFixation,jsons/VE125_randls_22_rotated.json,http://54.235.29.9/FacialAge/BNav_EC2/DepthDuration/v2_depth_duration_MTurk/v2_DepthDuration_HTML.html#36,36,1515,853,1364,768,8-21-2022,7-8-10,120,depth_duration_stimuli/000787_2014-06-08_22-33-53_260595134347_rgbf000175-resize_1/000787_2014-06-08_22-33-53_260595134347_rgbf000175-resize-original.jpg,125,4.784,0,3274,133,feet,jsons/VE125_randls_22_rotated.json,1119939,1419621,30,Woman
120,494386,DepthScenes,duration_manipulation_targetAtFixation,jsons/VE125_randls_22_rotated.json,http://54.235.29.9/FacialAge/BNav_EC2/DepthDuration/v2_depth_duration_MTurk/v2_DepthDuration_HTML.html#36,36,1515,853,1364,768,8-21-2022,7-8-10,121,depth_duration_stimuli/001235_2014-06-17_16-37-36_260595134347_rgbf000084-resize_4/001235_2014-06-17_16-37-36_260595134347_rgbf000084-resize_4-target.png,125,3.6605,3,2965,115,feet,jsons/VE125_randls_22_rotated.json,1119939,1419621,30,Woman
121,494386,DepthScenes,duration_manipulation_targetAtFixation,jsons/VE125_randls_22_rotated.json,http://54.235.29.9/FacialAge/BNav_EC2/DepthDuration/v2_depth_duration_MTurk/v2_DepthDuration_HTML.html#36,36,1515,853,1364,768,8-21-2022,7-8-10,122,depth_duration_stimuli/000788_2014-06-08_22-34-36_260595134347_rgbf000131-resize_1/000788_2014-06-08_22-34-36_260595134347_rgbf000131-resize_1-target.png,125,3.359,0,4227,118,feet,jsons/VE125_randls_22_rotated.json,1119939,1419621,30,Woman
122,494386,DepthScenes,duration_manipulation_targetAtFixation,jsons/VE125_randls_22_rotated.json,http://54.235.29.9/FacialAge/BNav_EC2/DepthDuration/v2_depth_duration_MTurk/v2_DepthDuration_HTML.html#36,36,1515,853,1364,768,8-21-2022,7-8-10,123,depth_duration_stimuli/000109_2014-05-14_23-41-52_260595134347_rgbf000035-resize_9/000109_2014-05-14_23-41-52_260595134347_rgbf000035-resize_9-target.png,125,1.3545,1,3762,124,feet,jsons/VE125_randls_22_rotated.json,1119939,1419621,30,Woman
123,494386,DepthScenes,duration_manipulation_targetAtFixation,jsons/VE125_randls_22_rotated.json,http://54.235.29.9/FacialAge/BNav_EC2/DepthDuration/v2_depth_duration_MTurk/v2_DepthDuration_HTML.html#36,36,1515,853,1364,768,8-21-2022,7-8-10,124,depth_duration_stimuli/000470_2014-06-09_19-42-40_260595134347_rgbf000094-resize_1/000470_2014-06-09_19-42-40_260595134347_rgbf000094-resize_1-target.png,125,1.831,0,5048,122,feet,jsons/VE125_randls_22_rotated.json,1119939,1419621,30,Woman
124,494386,DepthScenes,duration_manipulation_targetAtFixation,jsons/VE125_randls_22_rotated.json,http://54.235.29.9/FacialAge/BNav_EC2/DepthDuration/v2_depth_duration_MTurk/v2_DepthDuration_HTML.html#36,36,1515,853,1364,768,8-21-2022,7-8-10,125,depth_duration_stimuli/003338_2014-05-20_11-01-23_094959634447_rgbf000051-resize_6/003338_2014-05-20_11-01-23_094959634447_rgbf000051-resize_6-target.png,125,1.693,4,5251,124,feet,jsons/VE125_randls_22_rotated.json,1119939,1419621,30,Woman
125,494386,DepthScenes,duration_manipulation_targetAtFixation,jsons/VE125_randls_22_rotated.json,http://54.235.29.9/FacialAge/BNav_EC2/DepthDuration/v2_depth_duration_MTurk/v2_DepthDuration_HTML.html#36,36,1515,853,1364,768,8-21-2022,7-8-10,126,depth_duration_stimuli/002509_2014-06-24_13-19-22_094959634447_rgbf000077-resize_0/002509_2014-06-24_13-19-22_094959634447_rgbf000077-resize_0-target.png,125,1.3065,0,3374,161,feet,jsons/VE125_randls_22_rotated.json,1119939,1419621,30,Woman
126,494386,DepthScenes,duration_manipulation_targetAtFixation,jsons/VE125_randls_22_rotated.json,http://54.235.29.9/FacialAge/BNav_EC2/DepthDuration/v2_depth_duration_MTurk/v2_DepthDuration_HTML.html#36,36,1515,853,1364,768,8-21-2022,7-8-10,127,depth_duration_stimuli/000709_2014-06-08_13-51-55_260595134347_rgbf000068-resize_3/000709_2014-06-08_13-51-55_260595134347_rgbf000068-resize_3-target.png,125,1.8030000000000002,3,5555,127,feet,jsons/VE125_randls_22_rotated.json,1119939,1419621,30,Woman
127,494386,DepthScenes,duration_manipulation_targetAtFixation,jsons/VE125_randls_22_rotated.json,http://54.235.29.9/FacialAge/BNav_EC2/DepthDuration/v2_depth_duration_MTurk/v2_DepthDuration_HTML.html#36,36,1515,853,1364,768,8-21-2022,7-8-10,128,depth_duration_stimuli/002057_2014-06-24_21-00-13_260595134347_rgbf000120-resize_1/002057_2014-06-24_21-00-13_260595134347_rgbf000120-resize_1-target.png,125,2.967,2,3555,123,feet,jsons/VE125_randls_22_rotated.json,1119939,1419621,30,Woman
128,494386,DepthScenes,duration_manipulation_targetAtFixation,jsons/VE125_randls_22_rotated.json,http://54.235.29.9/FacialAge/BNav_EC2/DepthDuration/v2_depth_duration_MTurk/v2_DepthDuration_HTML.html#36,36,1515,853,1364,768,8-21-2022,7-8-10,129,depth_duration_stimuli/002637_2014-06-24_14-51-13_094959634447_rgbf000066-resize_4/002637_2014-06-24_14-51-13_094959634447_rgbf000066-resize_4-target.png,125,1.9955,3,4376,110,feet,jsons/VE125_randls_22_rotated.json,1119939,1419621,30,Woman
129,494386,DepthScenes,duration_manipulation_targetAtFixation,jsons/VE125_randls_22_rotated.json,http://54.235.29.9/FacialAge/BNav_EC2/DepthDuration/v2_depth_duration_MTurk/v2_DepthDuration_HTML.html#36,36,1515,853,1364,768,8-21-2022,7-8-10,130,depth_duration_stimuli/003534_2014-05-22_15-06-10_094959634447_rgbf000102-resize_4/003534_2014-05-22_15-06-10_094959634447_rgbf000102-resize_4-target.png,125,1.426,2,3453,132,feet,jsons/VE125_randls_22_rotated.json,1119939,1419621,30,Woman
130,494386,DepthScenes,duration_manipulation_targetAtFixation,jsons/VE125_randls_22_rotated.json,http://54.235.29.9/FacialAge/BNav_EC2/DepthDuration/v2_depth_duration_MTurk/v2_DepthDuration_HTML.html#36,36,1515,853,1364,768,8-21-2022,7-8-10,131,depth_duration_stimuli/002344_2014-06-28_20-06-29_260595134347_rgbf000030-resize_1/002344_2014-06-28_20-06-29_260595134347_rgbf000030-resize_1-target.png,125,1.5795,2,3682,131,feet,jsons/VE125_randls_22_rotated.json,1119939,1419621,30,Woman
131,494386,DepthScenes,duration_manipulation_targetAtFixation,jsons/VE125_randls_22_rotated.json,http://54.235.29.9/FacialAge/BNav_EC2/DepthDuration/v2_depth_duration_MTurk/v2_DepthDuration_HTML.html#36,36,1515,853,1364,768,8-21-2022,7-8-10,132,depth_duration_stimuli/002725_2014-06-22_11-47-51_094959634447_rgbf000070-resize_1/002725_2014-06-22_11-47-51_094959634447_rgbf000070-resize_1-target.png,125,2.195,0,3435,119,feet,jsons/VE125_randls_22_rotated.json,1119939,1419621,30,Woman
132,494386,DepthScenes,duration_manipulation_targetAtFixation,jsons/VE125_randls_22_rotated.json,http://54.235.29.9/FacialAge/BNav_EC2/DepthDuration/v2_depth_duration_MTurk/v2_DepthDuration_HTML.html#36,36,1515,853,1364,768,8-21-2022,7-8-10,133,depth_duration_stimuli/002805_2014-06-22_19-54-03_094959634447_rgbf000079-resize_1/002805_2014-06-22_19-54-03_094959634447_rgbf000079-resize_1-target.png,125,3.1439999999999997,7,6220,122,feet,jsons/VE125_randls_22_rotated.json,1119939,1419621,30,Woman
133,494386,DepthScenes,duration_manipulation_targetAtFixation,jsons/VE125_randls_22_rotated.json,http://54.235.29.9/FacialAge/BNav_EC2/DepthDuration/v2_depth_duration_MTurk/v2_DepthDuration_HTML.html#36,36,1515,853,1364,768,8-21-2022,7-8-10,134,depth_duration_stimuli/000906_2014-06-08_13-35-43_260595134347_rgbf000155-resize_1/000906_2014-06-08_13-35-43_260595134347_rgbf000155-resize_1-target.png,125,2.8489999999999998,2,3119,124,feet,jsons/VE125_randls_22_rotated.json,1119939,1419621,30,Woman
134,494386,DepthScenes,duration_manipulation_targetAtFixation,jsons/VE125_randls_22_rotated.json,http://54.235.29.9/FacialAge/BNav_EC2/DepthDuration/v2_depth_duration_MTurk/v2_DepthDuration_HTML.html#36,36,1515,853,1364,768,8-21-2022,7-8-10,135,depth_duration_stimuli/000375_2014-06-08_11-17-29_260595134347_rgbf000133-resize_2/000375_2014-06-08_11-17-29_260595134347_rgbf000133-resize-original.jpg,125,4.718,0,3543,124,feet,jsons/VE125_randls_22_rotated.json,1119939,1419621,30,Woman
135,494386,DepthScenes,duration_manipulation_targetAtFixation,jsons/VE125_randls_22_rotated.json,http://54.235.29.9/FacialAge/BNav_EC2/DepthDuration/v2_depth_duration_MTurk/v2_DepthDuration_HTML.html#36,36,1515,853,1364,768,8-21-2022,7-8-10,136,depth_duration_stimuli/003083_2014-06-15_15-21-03_094959634447_rgbf000063-resize_1/003083_2014-06-15_15-21-03_094959634447_rgbf000063-resize_1-target.png,125,4.1405,6,5924,123,feet,jsons/VE125_randls_22_rotated.json,1119939,1419621,30,Woman
136,494386,DepthScenes,duration_manipulation_targetAtFixation,jsons/VE125_randls_22_rotated.json,http://54.235.29.9/FacialAge/BNav_EC2/DepthDuration/v2_depth_duration_MTurk/v2_DepthDuration_HTML.html#36,36,1515,853,1364,768,8-21-2022,7-8-10,137,depth_duration_stimuli/000486_2014-06-09_20-47-20_260595134347_rgbf000143-resize_2/000486_2014-06-09_20-47-20_260595134347_rgbf000143-resize_2-target.png,125,4.8325,1,3216,121,feet,jsons/VE125_randls_22_rotated.json,1119939,1419621,30,Woman
137,494386,DepthScenes,duration_manipulation_targetAtFixation,jsons/VE125_randls_22_rotated.json,http://54.235.29.9/FacialAge/BNav_EC2/DepthDuration/v2_depth_duration_MTurk/v2_DepthDuration_HTML.html#36,36,1515,853,1364,768,8-21-2022,7-8-10,138,depth_duration_stimuli/002949_2014-06-26_15-57-42_094959634447_rgbf000079-resize_1/002949_2014-06-26_15-57-42_094959634447_rgbf000079-resize_1-target.png,125,1.8915,2,5602,127,feet,jsons/VE125_randls_22_rotated.json,1119939,1419621,30,Woman
138,494386,DepthScenes,duration_manipulation_targetAtFixation,jsons/VE125_randls_22_rotated.json,http://54.235.29.9/FacialAge/BNav_EC2/DepthDuration/v2_depth_duration_MTurk/v2_DepthDuration_HTML.html#36,36,1515,853,1364,768,8-21-2022,7-8-10,139,depth_duration_stimuli/000522_2014-06-08_13-35-06_260595134347_rgbf000244-resize_1/000522_2014-06-08_13-35-06_260595134347_rgbf000244-resize_1-target.png,125,2.3715,3,4481,107,feet,jsons/VE125_randls_22_rotated.json,1119939,1419621,30,Woman
139,494386,DepthScenes,duration_manipulation_targetAtFixation,jsons/VE125_randls_22_rotated.json,http://54.235.29.9/FacialAge/BNav_EC2/DepthDuration/v2_depth_duration_MTurk/v2_DepthDuration_HTML.html#36,36,1515,853,1364,768,8-21-2022,7-8-10,140,depth_duration_stimuli/001447_2014-06-19_17-00-32_260595134347_rgbf000082-resize_5/001447_2014-06-19_17-00-32_260595134347_rgbf000082-resize_5-target.png,125,4.13775,4,4517,123,feet,jsons/VE125_randls_22_rotated.json,1119939,1419621,30,Woman
140,494386,DepthScenes,duration_manipulation_targetAtFixation,jsons/VE125_randls_22_rotated.json,http://54.235.29.9/FacialAge/BNav_EC2/DepthDuration/v2_depth_duration_MTurk/v2_DepthDuration_HTML.html#36,36,1515,853,1364,768,8-21-2022,7-8-10,141,depth_duration_stimuli/000447_2014-06-08_16-15-46_260595134347_rgbf000130-resize_1/000447_2014-06-08_16-15-46_260595134347_rgbf000130-resize_1-target.png,125,4.479,4,2994,117,feet,jsons/VE125_randls_22_rotated.json,1119939,1419621,30,Woman
141,494386,DepthScenes,duration_manipulation_targetAtFixation,jsons/VE125_randls_22_rotated.json,http://54.235.29.9/FacialAge/BNav_EC2/DepthDuration/v2_depth_duration_MTurk/v2_DepthDuration_HTML.html#36,36,1515,853,1364,768,8-21-2022,7-8-10,142,depth_duration_stimuli/000457_2014-06-08_16-52-43_260595134347_rgbf000199-resize_1/000457_2014-06-08_16-52-43_260595134347_rgbf000199-resize_1-target.png,125,3.6489999999999996,5,4975,120,feet,jsons/VE125_randls_22_rotated.json,1119939,1419621,30,Woman
142,494386,DepthScenes,duration_manipulation_targetAtFixation,jsons/VE125_randls_22_rotated.json,http://54.235.29.9/FacialAge/BNav_EC2/DepthDuration/v2_depth_duration_MTurk/v2_DepthDuration_HTML.html#36,36,1515,853,1364,768,8-21-2022,7-8-10,143,depth_duration_stimuli/000929_2014-06-09_16-33-19_260595134347_rgbf000139-resize_0/000929_2014-06-09_16-33-19_260595134347_rgbf000139-resize_0-target.png,125,2.8680000000000003,4,5386,124,feet,jsons/VE125_randls_22_rotated.json,1119939,1419621,30,Woman
143,494386,DepthScenes,duration_manipulation_targetAtFixation,jsons/VE125_randls_22_rotated.json,http://54.235.29.9/FacialAge/BNav_EC2/DepthDuration/v2_depth_duration_MTurk/v2_DepthDuration_HTML.html#36,36,1515,853,1364,768,8-21-2022,7-8-10,144,depth_duration_stimuli/001828_2014-06-26_21-40-03_260595134347_rgbf000024-resize_0/001828_2014-06-26_21-40-03_260595134347_rgbf000024-resize_0-target.png,125,4.8260000000000005,7,6827,122,feet,jsons/VE125_randls_22_rotated.json,1119939,1419621,30,Woman
144,494386,DepthScenes,duration_manipulation_targetAtFixation,jsons/VE125_randls_22_rotated.json,http://54.235.29.9/FacialAge/BNav_EC2/DepthDuration/v2_depth_duration_MTurk/v2_DepthDuration_HTML.html#36,36,1515,853,1364,768,8-21-2022,7-8-10,145,depth_duration_stimuli/000009_2014-05-26_14-32-05_260595134347_rgbf000034-resize_3/000009_2014-05-26_14-32-05_260595134347_rgbf000034-resize_3-target.png,125,3.8715,4,3308,122,feet,jsons/VE125_randls_22_rotated.json,1119939,1419621,30,Woman
145,494386,DepthScenes,duration_manipulation_targetAtFixation,jsons/VE125_randls_22_rotated.json,http://54.235.29.9/FacialAge/BNav_EC2/DepthDuration/v2_depth_duration_MTurk/v2_DepthDuration_HTML.html#36,36,1515,853,1364,768,8-21-2022,7-8-10,146,depth_duration_stimuli/002639_2014-06-24_14-51-37_094959634447_rgbf000074-resize_4/002639_2014-06-24_14-51-37_094959634447_rgbf000074-resize_4-target.png,125,4.0375,5,4781,124,feet,jsons/VE125_randls_22_rotated.json,1119939,1419621,30,Woman
146,494386,DepthScenes,duration_manipulation_targetAtFixation,jsons/VE125_randls_22_rotated.json,http://54.235.29.9/FacialAge/BNav_EC2/DepthDuration/v2_depth_duration_MTurk/v2_DepthDuration_HTML.html#36,36,1515,853,1364,768,8-21-2022,7-8-10,147,depth_duration_stimuli/003292_2014-05-14_21-53-49_094959634447_rgbf000100-resize_2/003292_2014-05-14_21-53-49_094959634447_rgbf000100-resize_2-target.png,125,3.4815,3,3165,123,feet,jsons/VE125_randls_22_rotated.json,1119939,1419621,30,Woman
147,494386,DepthScenes,duration_manipulation_targetAtFixation,jsons/VE125_randls_22_rotated.json,http://54.235.29.9/FacialAge/BNav_EC2/DepthDuration/v2_depth_duration_MTurk/v2_DepthDuration_HTML.html#36,36,1515,853,1364,768,8-21-2022,7-8-10,148,depth_duration_stimuli/000691_2014-06-08_13-08-50_260595134347_rgbf000132-resize_3/000691_2014-06-08_13-08-50_260595134347_rgbf000132-resize_3-target.png,125,4.1530000000000005,7,3395,123,feet,jsons/VE125_randls_22_rotated.json,1119939,1419621,30,Woman
148,494386,DepthScenes,duration_manipulation_targetAtFixation,jsons/VE125_randls_22_rotated.json,http://54.235.29.9/FacialAge/BNav_EC2/DepthDuration/v2_depth_duration_MTurk/v2_DepthDuration_HTML.html#36,36,1515,853,1364,768,8-21-2022,7-8-10,149,depth_duration_stimuli/002213_2014-06-28_18-37-58_260595134347_rgbf000055-resize_1/002213_2014-06-28_18-37-58_260595134347_rgbf000055-resize_1-target.png,125,3.62,4,3570,171,feet,jsons/VE125_randls_22_rotated.json,1119939,1419621,30,Woman
149,494386,DepthScenes,duration_manipulation_targetAtFixation,jsons/VE125_randls_22_rotated.json,http://54.235.29.9/FacialAge/BNav_EC2/DepthDuration/v2_depth_duration_MTurk/v2_DepthDuration_HTML.html#36,36,1515,853,1364,768,8-21-2022,7-8-10,150,depth_duration_stimuli/002467_2014-06-28_20-38-07_260595134347_rgbf000026-resize_2/002467_2014-06-28_20-38-07_260595134347_rgbf000026-resize_2-target.png,125,4.742,7,3483,114,feet,jsons/VE125_randls_22_rotated.json,1119939,1419621,30,Woman
150,494386,DepthScenes,duration_manipulation_targetAtFixation,jsons/VE125_randls_22_rotated.json,http://54.235.29.9/FacialAge/BNav_EC2/DepthDuration/v2_depth_duration_MTurk/v2_DepthDuration_HTML.html#36,36,1515,853,1364,768,8-21-2022,7-8-10,151,depth_duration_stimuli/002570_2014-06-24_13-59-54_094959634447_rgbf000059-resize_0/002570_2014-06-24_13-59-54_094959634447_rgbf000059-resize_0-target.png,125,4.037,4,3442,132,feet,jsons/VE125_randls_22_rotated.json,1119939,1419621,30,Woman
151,494386,DepthScenes,duration_manipulation_targetAtFixation,jsons/VE125_randls_22_rotated.json,http://54.235.29.9/FacialAge/BNav_EC2/DepthDuration/v2_depth_duration_MTurk/v2_DepthDuration_HTML.html#36,36,1515,853,1364,768,8-21-2022,7-8-10,152,depth_duration_stimuli/000569_2014-06-09_22-51-47_260595134347_rgbf000141-resize_3/000569_2014-06-09_22-51-47_260595134347_rgbf000141-resize-original.jpg,125,4.512,0,5046,134,feet,jsons/VE125_randls_22_rotated.json,1119939,1419621,30,Woman
152,494386,DepthScenes,duration_manipulation_targetAtFixation,jsons/VE125_randls_22_rotated.json,http://54.235.29.9/FacialAge/BNav_EC2/DepthDuration/v2_depth_duration_MTurk/v2_DepthDuration_HTML.html#36,36,1515,853,1364,768,8-21-2022,7-8-10,153,depth_duration_stimuli/003129_2014-05-12_10-48-10_094959634447_rgbf000100-resize_0/003129_2014-05-12_10-48-10_094959634447_rgbf000100-resize_0-target.png,125,4.9305,7,5417,122,feet,jsons/VE125_randls_22_rotated.json,1119939,1419621,30,Woman
153,494386,DepthScenes,duration_manipulation_targetAtFixation,jsons/VE125_randls_22_rotated.json,http://54.235.29.9/FacialAge/BNav_EC2/DepthDuration/v2_depth_duration_MTurk/v2_DepthDuration_HTML.html#36,36,1515,853,1364,768,8-21-2022,7-8-10,154,depth_duration_stimuli/000414_2014-06-04_19-49-13_260595134347_rgbf000044-resize_0/000414_2014-06-04_19-49-13_260595134347_rgbf000044-resize_0-target.png,125,4.329,4,4713,126,feet,jsons/VE125_randls_22_rotated.json,1119939,1419621,30,Woman
154,494386,DepthScenes,duration_manipulation_targetAtFixation,jsons/VE125_randls_22_rotated.json,http://54.235.29.9/FacialAge/BNav_EC2/DepthDuration/v2_depth_duration_MTurk/v2_DepthDuration_HTML.html#36,36,1515,853,1364,768,8-21-2022,7-8-10,155,depth_duration_stimuli/002875_2014-06-01_15-19-00_094959634447_rgbf000151-resize_1/002875_2014-06-01_15-19-00_094959634447_rgbf000151-resize_1-target.png,125,1.9675,3,8117,121,feet,jsons/VE125_randls_22_rotated.json,1119939,1419621,30,Woman
155,494386,DepthScenes,duration_manipulation_targetAtFixation,jsons/VE125_randls_22_rotated.json,http://54.235.29.9/FacialAge/BNav_EC2/DepthDuration/v2_depth_duration_MTurk/v2_DepthDuration_HTML.html#36,36,1515,853,1364,768,8-21-2022,7-8-10,156,depth_duration_stimuli/001011_2014-06-08_23-18-54_260595134347_rgbf000044-resize_4/001011_2014-06-08_23-18-54_260595134347_rgbf000044-resize_4-target.png,125,2.4730000000000003,3,8706,142,feet,jsons/VE125_randls_22_rotated.json,1119939,1419621,30,Woman
156,494386,DepthScenes,duration_manipulation_targetAtFixation,jsons/VE125_randls_22_rotated.json,http://54.235.29.9/FacialAge/BNav_EC2/DepthDuration/v2_depth_duration_MTurk/v2_DepthDuration_HTML.html#36,36,1515,853,1364,768,8-21-2022,7-8-10,157,depth_duration_stimuli/002750_2014-06-22_19-08-03_094959634447_rgbf000094-resize_4/002750_2014-06-22_19-08-03_094959634447_rgbf000094-resize_4-target.png,125,2.354,2,69113,116,feet,jsons/VE125_randls_22_rotated.json,1119939,1419621,30,Woman
157,494386,DepthScenes,duration_manipulation_targetAtFixation,jsons/VE125_randls_22_rotated.json,http://54.235.29.9/FacialAge/BNav_EC2/DepthDuration/v2_depth_duration_MTurk/v2_DepthDuration_HTML.html#36,36,1515,853,1364,768,8-21-2022,7-8-10,158,depth_duration_stimuli/002549_2014-06-24_13-41-39_094959634447_rgbf000022-resize_3/002549_2014-06-24_13-41-39_094959634447_rgbf000022-resize_3-target.png,125,1.476,1,2936,113,feet,jsons/VE125_randls_22_rotated.json,1119939,1419621,30,Woman
158,494386,DepthScenes,duration_manipulation_targetAtFixation,jsons/VE125_randls_22_rotated.json,http://54.235.29.9/FacialAge/BNav_EC2/DepthDuration/v2_depth_duration_MTurk/v2_DepthDuration_HTML.html#36,36,1515,853,1364,768,8-21-2022,7-8-10,159,depth_duration_stimuli/000635_2014-06-08_16-38-42_260595134347_rgbf000106-resize_1/000635_2014-06-08_16-38-42_260595134347_rgbf000106-resize_1-target.png,125,2.074,4,3088,129,feet,jsons/VE125_randls_22_rotated.json,1119939,1419621,30,Woman
159,494386,DepthScenes,duration_manipulation_targetAtFixation,jsons/VE125_randls_22_rotated.json,http://54.235.29.9/FacialAge/BNav_EC2/DepthDuration/v2_depth_duration_MTurk/v2_DepthDuration_HTML.html#36,36,1515,853,1364,768,8-21-2022,7-8-10,160,depth_duration_stimuli/002279_2014-06-28_18-55-32_260595134347_rgbf000040-resize_5/002279_2014-06-28_18-55-32_260595134347_rgbf000040-resize_5-target.png,125,1.5043333333333,1,2798,108,feet,jsons/VE125_randls_22_rotated.json,1119939,1419621,30,Woman
160,494386,DepthScenes,duration_manipulation_targetAtFixation,jsons/VE125_randls_22_rotated.json,http://54.235.29.9/FacialAge/BNav_EC2/DepthDuration/v2_depth_duration_MTurk/v2_DepthDuration_HTML.html#36,36,1515,853,1364,768,8-21-2022,7-8-10,161,depth_duration_stimuli/002568_2014-06-24_13-59-21_094959634447_rgbf000062-resize_4/002568_2014-06-24_13-59-21_094959634447_rgbf000062-resize_4-target.png,125,3.015,5,4781,122,feet,jsons/VE125_randls_22_rotated.json,1119939,1419621,30,Woman
161,494386,DepthScenes,duration_manipulation_targetAtFixation,jsons/VE125_randls_22_rotated.json,http://54.235.29.9/FacialAge/BNav_EC2/DepthDuration/v2_depth_duration_MTurk/v2_DepthDuration_HTML.html#36,36,1515,853,1364,768,8-21-2022,7-8-10,162,depth_duration_stimuli/003492_2014-05-21_15-50-55_094959634447_rgbf000828-resize_1/003492_2014-05-21_15-50-55_094959634447_rgbf000828-resize_1-target.png,125,4.06875,6,2985,124,feet,jsons/VE125_randls_22_rotated.json,1119939,1419621,30,Woman
162,494386,DepthScenes,duration_manipulation_targetAtFixation,jsons/VE125_randls_22_rotated.json,http://54.235.29.9/FacialAge/BNav_EC2/DepthDuration/v2_depth_duration_MTurk/v2_DepthDuration_HTML.html#36,36,1515,853,1364,768,8-21-2022,7-8-10,163,depth_duration_stimuli/001617_2014-06-20_11-35-32_260595134347_rgbf000066-resize_1/001617_2014-06-20_11-35-32_260595134347_rgbf000066-resize_1-target.png,125,3.7910000000000004,7,4693,124,feet,jsons/VE125_randls_22_rotated.json,1119939,1419621,30,Woman
163,494386,DepthScenes,duration_manipulation_targetAtFixation,jsons/VE125_randls_22_rotated.json,http://54.235.29.9/FacialAge/BNav_EC2/DepthDuration/v2_depth_duration_MTurk/v2_DepthDuration_HTML.html#36,36,1515,853,1364,768,8-21-2022,7-8-10,164,depth_duration_stimuli/001806_2014-06-26_20-50-20_260595134347_rgbf000091-resize_1/001806_2014-06-26_20-50-20_260595134347_rgbf000091-resize_1-target.png,125,2.7305,1,2836,129,feet,jsons/VE125_randls_22_rotated.json,1119939,1419621,30,Woman
