,subjID,experimentName,versionName,sequenceName,url,selected_row,windowWidth,windowHeight,screenWidth,screenHeight,startDate,startTime,trial,stimulus,duration,actual_depth,depth_estimate,trial_RT,log_sceneDuration,unitSelection,seq_filepath,experimentTime,totalTime,age,gender
0,494783,DepthScenes,duration_manipulation_targetAtFixation,jsons/VE125_randls_64.json,http://54.235.29.9/FacialAge/BNav_EC2/DepthDuration/v2_depth_duration_MTurk/v2_DepthDuration_HTML.html#122,122,1364,625,1364,768,8-29-2022,10-26-9,1,depth_duration_stimuli/002988_2014-06-15_12-24-20_094959634447_rgbf000150-resize_1/002988_2014-06-15_12-24-20_094959634447_rgbf000150-resize_1-target.png,125,4.7669999999999995,0,4068,125,meters,jsons/VE125_randls_64.json,646731,786770,25,Man
1,494783,DepthScenes,duration_manipulation_targetAtFixation,jsons/VE125_randls_64.json,http://54.235.29.9/FacialAge/BNav_EC2/DepthDuration/v2_depth_duration_MTurk/v2_DepthDuration_HTML.html#122,122,1364,625,1364,768,8-29-2022,10-26-9,2,depth_duration_stimuli/001052_2014-06-08_18-24-54_260595134347_rgbf000130-resize_1/001052_2014-06-08_18-24-54_260595134347_rgbf000130-resize_1-target.png,125,4.1045,0,3353,123,meters,jsons/VE125_randls_64.json,646731,786770,25,Man
2,494783,DepthScenes,duration_manipulation_targetAtFixation,jsons/VE125_randls_64.json,http://54.235.29.9/FacialAge/BNav_EC2/DepthDuration/v2_depth_duration_MTurk/v2_DepthDuration_HTML.html#122,122,1364,625,1364,768,8-29-2022,10-26-9,3,depth_duration_stimuli/002964_2014-06-08_17-46-11_094959634447_rgbf000091-resize_4/002964_2014-06-08_17-46-11_094959634447_rgbf000091-resize_4-target.png,125,1.6909999999999998,1,3915,124,meters,jsons/VE125_randls_64.json,646731,786770,25,Man
3,494783,DepthScenes,duration_manipulation_targetAtFixation,jsons/VE125_randls_64.json,http://54.235.29.9/FacialAge/BNav_EC2/DepthDuration/v2_depth_duration_MTurk/v2_DepthDuration_HTML.html#122,122,1364,625,1364,768,8-29-2022,10-26-9,4,depth_duration_stimuli/002136_2014-06-25_21-18-03_260595134347_rgbf000109-resize_3/002136_2014-06-25_21-18-03_260595134347_rgbf000109-resize_3-target.png,125,1.9569999999999999,0,5831,126,meters,jsons/VE125_randls_64.json,646731,786770,25,Man
4,494783,DepthScenes,duration_manipulation_targetAtFixation,jsons/VE125_randls_64.json,http://54.235.29.9/FacialAge/BNav_EC2/DepthDuration/v2_depth_duration_MTurk/v2_DepthDuration_HTML.html#122,122,1364,625,1364,768,8-29-2022,10-26-9,5,depth_duration_stimuli/000917_2014-06-09_22-45-29_260595134347_rgbf000149-resize_3/000917_2014-06-09_22-45-29_260595134347_rgbf000149-resize_3-target.png,125,4.1865,0,3493,130,meters,jsons/VE125_randls_64.json,646731,786770,25,Man
5,494783,DepthScenes,duration_manipulation_targetAtFixation,jsons/VE125_randls_64.json,http://54.235.29.9/FacialAge/BNav_EC2/DepthDuration/v2_depth_duration_MTurk/v2_DepthDuration_HTML.html#122,122,1364,625,1364,768,8-29-2022,10-26-9,6,depth_duration_stimuli/002323_2014-06-28_20-01-54_260595134347_rgbf000051-resize_4/002323_2014-06-28_20-01-54_260595134347_rgbf000051-resize_4-target.png,125,3.7310000000000003,0,3751,120,meters,jsons/VE125_randls_64.json,646731,786770,25,Man
6,494783,DepthScenes,duration_manipulation_targetAtFixation,jsons/VE125_randls_64.json,http://54.235.29.9/FacialAge/BNav_EC2/DepthDuration/v2_depth_duration_MTurk/v2_DepthDuration_HTML.html#122,122,1364,625,1364,768,8-29-2022,10-26-9,7,depth_duration_stimuli/002279_2014-06-28_18-55-32_260595134347_rgbf000040-resize_5/002279_2014-06-28_18-55-32_260595134347_rgbf000040-resize_5-target.png,125,1.5043333333333,0,2600,125,meters,jsons/VE125_randls_64.json,646731,786770,25,Man
7,494783,DepthScenes,duration_manipulation_targetAtFixation,jsons/VE125_randls_64.json,http://54.235.29.9/FacialAge/BNav_EC2/DepthDuration/v2_depth_duration_MTurk/v2_DepthDuration_HTML.html#122,122,1364,625,1364,768,8-29-2022,10-26-9,8,depth_duration_stimuli/000635_2014-06-08_16-38-42_260595134347_rgbf000106-resize_1/000635_2014-06-08_16-38-42_260595134347_rgbf000106-resize_1-target.png,125,2.074,0,2768,127,meters,jsons/VE125_randls_64.json,646731,786770,25,Man
8,494783,DepthScenes,duration_manipulation_targetAtFixation,jsons/VE125_randls_64.json,http://54.235.29.9/FacialAge/BNav_EC2/DepthDuration/v2_depth_duration_MTurk/v2_DepthDuration_HTML.html#122,122,1364,625,1364,768,8-29-2022,10-26-9,9,depth_duration_stimuli/000506_2014-06-08_23-21-00_260595134347_rgbf000070-resize_7/000506_2014-06-08_23-21-00_260595134347_rgbf000070-resize_7-target.png,125,4.0585,0,2546,130,meters,jsons/VE125_randls_64.json,646731,786770,25,Man
9,494783,DepthScenes,duration_manipulation_targetAtFixation,jsons/VE125_randls_64.json,http://54.235.29.9/FacialAge/BNav_EC2/DepthDuration/v2_depth_duration_MTurk/v2_DepthDuration_HTML.html#122,122,1364,625,1364,768,8-29-2022,10-26-9,10,depth_duration_stimuli/003079_2014-06-15_15-18-20_094959634447_rgbf000152-resize_8/003079_2014-06-15_15-18-20_094959634447_rgbf000152-resize_8-target.png,125,2.8775,0,2555,124,meters,jsons/VE125_randls_64.json,646731,786770,25,Man
10,494783,DepthScenes,duration_manipulation_targetAtFixation,jsons/VE125_randls_64.json,http://54.235.29.9/FacialAge/BNav_EC2/DepthDuration/v2_depth_duration_MTurk/v2_DepthDuration_HTML.html#122,122,1364,625,1364,768,8-29-2022,10-26-9,11,depth_duration_stimuli/000758_2014-06-08_22-05-08_260595134347_rgbf000085-resize_0/000758_2014-06-08_22-05-08_260595134347_rgbf000085-resize_0-target.png,125,3.3810000000000002,0,3002,125,meters,jsons/VE125_randls_64.json,646731,786770,25,Man
11,494783,DepthScenes,duration_manipulation_targetAtFixation,jsons/VE125_randls_64.json,http://54.235.29.9/FacialAge/BNav_EC2/DepthDuration/v2_depth_duration_MTurk/v2_DepthDuration_HTML.html#122,122,1364,625,1364,768,8-29-2022,10-26-9,12,depth_duration_stimuli/000854_2014-06-09_19-43-13_260595134347_rgbf000066-resize_0/000854_2014-06-09_19-43-13_260595134347_rgbf000066-resize_0-target.png,125,3.068,0,2632,121,meters,jsons/VE125_randls_64.json,646731,786770,25,Man
12,494783,DepthScenes,duration_manipulation_targetAtFixation,jsons/VE125_randls_64.json,http://54.235.29.9/FacialAge/BNav_EC2/DepthDuration/v2_depth_duration_MTurk/v2_DepthDuration_HTML.html#122,122,1364,625,1364,768,8-29-2022,10-26-9,13,depth_duration_stimuli/000569_2014-06-09_22-51-47_260595134347_rgbf000141-resize_3/000569_2014-06-09_22-51-47_260595134347_rgbf000141-resize-original.jpg,125,4.512,0,2539,153,meters,jsons/VE125_randls_64.json,646731,786770,25,Man
13,494783,DepthScenes,duration_manipulation_targetAtFixation,jsons/VE125_randls_64.json,http://54.235.29.9/FacialAge/BNav_EC2/DepthDuration/v2_depth_duration_MTurk/v2_DepthDuration_HTML.html#122,122,1364,625,1364,768,8-29-2022,10-26-9,14,depth_duration_stimuli/002788_2014-06-22_19-36-03_094959634447_rgbf000088-resize_2/002788_2014-06-22_19-36-03_094959634447_rgbf000088-resize_2-target.png,125,1.6465,0,2794,188,meters,jsons/VE125_randls_64.json,646731,786770,25,Man
14,494783,DepthScenes,duration_manipulation_targetAtFixation,jsons/VE125_randls_64.json,http://54.235.29.9/FacialAge/BNav_EC2/DepthDuration/v2_depth_duration_MTurk/v2_DepthDuration_HTML.html#122,122,1364,625,1364,768,8-29-2022,10-26-9,15,depth_duration_stimuli/000749_2014-06-08_21-55-06_260595134347_rgbf000070-resize_2/000749_2014-06-08_21-55-06_260595134347_rgbf000070-resize_2-target.png,125,2.331,0,2622,142,meters,jsons/VE125_randls_64.json,646731,786770,25,Man
15,494783,DepthScenes,duration_manipulation_targetAtFixation,jsons/VE125_randls_64.json,http://54.235.29.9/FacialAge/BNav_EC2/DepthDuration/v2_depth_duration_MTurk/v2_DepthDuration_HTML.html#122,122,1364,625,1364,768,8-29-2022,10-26-9,16,depth_duration_stimuli/002989_2014-06-15_12-25-03_094959634447_rgbf000150-resize_3/002989_2014-06-15_12-25-03_094959634447_rgbf000150-resize_3-target.png,125,4.1975,0,3761,126,meters,jsons/VE125_randls_64.json,646731,786770,25,Man
16,494783,DepthScenes,duration_manipulation_targetAtFixation,jsons/VE125_randls_64.json,http://54.235.29.9/FacialAge/BNav_EC2/DepthDuration/v2_depth_duration_MTurk/v2_DepthDuration_HTML.html#122,122,1364,625,1364,768,8-29-2022,10-26-9,17,depth_duration_stimuli/000866_2014-06-09_20-45-42_260595134347_rgbf000139-resize_1/000866_2014-06-09_20-45-42_260595134347_rgbf000139-resize_1-target.png,125,3.2155,0,4023,125,meters,jsons/VE125_randls_64.json,646731,786770,25,Man
17,494783,DepthScenes,duration_manipulation_targetAtFixation,jsons/VE125_randls_64.json,http://54.235.29.9/FacialAge/BNav_EC2/DepthDuration/v2_depth_duration_MTurk/v2_DepthDuration_HTML.html#122,122,1364,625,1364,768,8-29-2022,10-26-9,18,depth_duration_stimuli/002039_2014-06-24_20-22-38_260595134347_rgbf000084-resize_1/002039_2014-06-24_20-22-38_260595134347_rgbf000084-resize_1-target.png,125,4.408,0,3650,124,meters,jsons/VE125_randls_64.json,646731,786770,25,Man
18,494783,DepthScenes,duration_manipulation_targetAtFixation,jsons/VE125_randls_64.json,http://54.235.29.9/FacialAge/BNav_EC2/DepthDuration/v2_depth_duration_MTurk/v2_DepthDuration_HTML.html#122,122,1364,625,1364,768,8-29-2022,10-26-9,19,depth_duration_stimuli/002103_2014-06-25_20-00-40_260595134347_rgbf000049-resize_0/002103_2014-06-25_20-00-40_260595134347_rgbf000049-resize_0-target.png,125,4.105,0,3883,125,meters,jsons/VE125_randls_64.json,646731,786770,25,Man
19,494783,DepthScenes,duration_manipulation_targetAtFixation,jsons/VE125_randls_64.json,http://54.235.29.9/FacialAge/BNav_EC2/DepthDuration/v2_depth_duration_MTurk/v2_DepthDuration_HTML.html#122,122,1364,625,1364,768,8-29-2022,10-26-9,20,depth_duration_stimuli/001244_2014-06-17_16-47-45_260595134347_rgbf000030-resize_4/001244_2014-06-17_16-47-45_260595134347_rgbf000030-resize_4-target.png,125,2.0425,1,4243,138,meters,jsons/VE125_randls_64.json,646731,786770,25,Man
20,494783,DepthScenes,duration_manipulation_targetAtFixation,jsons/VE125_randls_64.json,http://54.235.29.9/FacialAge/BNav_EC2/DepthDuration/v2_depth_duration_MTurk/v2_DepthDuration_HTML.html#122,122,1364,625,1364,768,8-29-2022,10-26-9,21,depth_duration_stimuli/003495_2014-05-21_16-01-51_094959634447_rgbf000100-resize_3/003495_2014-05-21_16-01-51_094959634447_rgbf000100-resize_3-target.png,125,1.6255,0,3792,122,meters,jsons/VE125_randls_64.json,646731,786770,25,Man
21,494783,DepthScenes,duration_manipulation_targetAtFixation,jsons/VE125_randls_64.json,http://54.235.29.9/FacialAge/BNav_EC2/DepthDuration/v2_depth_duration_MTurk/v2_DepthDuration_HTML.html#122,122,1364,625,1364,768,8-29-2022,10-26-9,22,depth_duration_stimuli/001056_2014-06-08_18-46-44_260595134347_rgbf000068-resize_0/001056_2014-06-08_18-46-44_260595134347_rgbf000068-resize_0-target.png,125,2.6625,1,4635,127,meters,jsons/VE125_randls_64.json,646731,786770,25,Man
22,494783,DepthScenes,duration_manipulation_targetAtFixation,jsons/VE125_randls_64.json,http://54.235.29.9/FacialAge/BNav_EC2/DepthDuration/v2_depth_duration_MTurk/v2_DepthDuration_HTML.html#122,122,1364,625,1364,768,8-29-2022,10-26-9,23,depth_duration_stimuli/002199_2014-06-28_18-33-56_260595134347_rgbf000074-resize_0/002199_2014-06-28_18-33-56_260595134347_rgbf000074-resize_0-target.png,125,1.996,0,3356,120,meters,jsons/VE125_randls_64.json,646731,786770,25,Man
23,494783,DepthScenes,duration_manipulation_targetAtFixation,jsons/VE125_randls_64.json,http://54.235.29.9/FacialAge/BNav_EC2/DepthDuration/v2_depth_duration_MTurk/v2_DepthDuration_HTML.html#122,122,1364,625,1364,768,8-29-2022,10-26-9,24,depth_duration_stimuli/002509_2014-06-24_13-19-22_094959634447_rgbf000077-resize_0/002509_2014-06-24_13-19-22_094959634447_rgbf000077-resize_0-target.png,125,1.3065,1,3110,120,meters,jsons/VE125_randls_64.json,646731,786770,25,Man
24,494783,DepthScenes,duration_manipulation_targetAtFixation,jsons/VE125_randls_64.json,http://54.235.29.9/FacialAge/BNav_EC2/DepthDuration/v2_depth_duration_MTurk/v2_DepthDuration_HTML.html#122,122,1364,625,1364,768,8-29-2022,10-26-9,25,depth_duration_stimuli/003338_2014-05-20_11-01-23_094959634447_rgbf000051-resize_6/003338_2014-05-20_11-01-23_094959634447_rgbf000051-resize_6-target.png,125,1.693,0,3236,123,meters,jsons/VE125_randls_64.json,646731,786770,25,Man
25,494783,DepthScenes,duration_manipulation_targetAtFixation,jsons/VE125_randls_64.json,http://54.235.29.9/FacialAge/BNav_EC2/DepthDuration/v2_depth_duration_MTurk/v2_DepthDuration_HTML.html#122,122,1364,625,1364,768,8-29-2022,10-26-9,26,depth_duration_stimuli/000642_2014-06-08_16-59-25_260595134347_rgbf000098-resize_2/000642_2014-06-08_16-59-25_260595134347_rgbf000098-resize_2-target.png,125,2.8815,1,3116,105,meters,jsons/VE125_randls_64.json,646731,786770,25,Man
26,494783,DepthScenes,duration_manipulation_targetAtFixation,jsons/VE125_randls_64.json,http://54.235.29.9/FacialAge/BNav_EC2/DepthDuration/v2_depth_duration_MTurk/v2_DepthDuration_HTML.html#122,122,1364,625,1364,768,8-29-2022,10-26-9,27,depth_duration_stimuli/002425_2014-06-28_20-27-29_260595134347_rgbf000031-resize_8/002425_2014-06-28_20-27-29_260595134347_rgbf000031-resize_8-target.png,125,3.8960000000000004,0,3832,113,meters,jsons/VE125_randls_64.json,646731,786770,25,Man
27,494783,DepthScenes,duration_manipulation_targetAtFixation,jsons/VE125_randls_64.json,http://54.235.29.9/FacialAge/BNav_EC2/DepthDuration/v2_depth_duration_MTurk/v2_DepthDuration_HTML.html#122,122,1364,625,1364,768,8-29-2022,10-26-9,28,depth_duration_stimuli/003070_2014-06-15_14-58-27_094959634447_rgbf000150-resize_3/003070_2014-06-15_14-58-27_094959634447_rgbf000150-resize_3-target.png,125,2.9415,1,3352,123,meters,jsons/VE125_randls_64.json,646731,786770,25,Man
28,494783,DepthScenes,duration_manipulation_targetAtFixation,jsons/VE125_randls_64.json,http://54.235.29.9/FacialAge/BNav_EC2/DepthDuration/v2_depth_duration_MTurk/v2_DepthDuration_HTML.html#122,122,1364,625,1364,768,8-29-2022,10-26-9,29,depth_duration_stimuli/000943_2014-06-09_19-31-07_260595134347_rgbf000128-resize_1/000943_2014-06-09_19-31-07_260595134347_rgbf000128-resize_1-target.png,125,1.9765,0,3393,121,meters,jsons/VE125_randls_64.json,646731,786770,25,Man
29,494783,DepthScenes,duration_manipulation_targetAtFixation,jsons/VE125_randls_64.json,http://54.235.29.9/FacialAge/BNav_EC2/DepthDuration/v2_depth_duration_MTurk/v2_DepthDuration_HTML.html#122,122,1364,625,1364,768,8-29-2022,10-26-9,30,depth_duration_stimuli/000375_2014-06-08_11-17-29_260595134347_rgbf000133-resize_2/000375_2014-06-08_11-17-29_260595134347_rgbf000133-resize-original.jpg,125,4.718,0,2927,120,meters,jsons/VE125_randls_64.json,646731,786770,25,Man
30,494783,DepthScenes,duration_manipulation_targetAtFixation,jsons/VE125_randls_64.json,http://54.235.29.9/FacialAge/BNav_EC2/DepthDuration/v2_depth_duration_MTurk/v2_DepthDuration_HTML.html#122,122,1364,625,1364,768,8-29-2022,10-26-9,31,depth_duration_stimuli/000929_2014-06-09_16-33-19_260595134347_rgbf000139-resize_0/000929_2014-06-09_16-33-19_260595134347_rgbf000139-resize_0-target.png,125,2.8680000000000003,1,3672,125,meters,jsons/VE125_randls_64.json,646731,786770,25,Man
31,494783,DepthScenes,duration_manipulation_targetAtFixation,jsons/VE125_randls_64.json,http://54.235.29.9/FacialAge/BNav_EC2/DepthDuration/v2_depth_duration_MTurk/v2_DepthDuration_HTML.html#122,122,1364,625,1364,768,8-29-2022,10-26-9,32,depth_duration_stimuli/000457_2014-06-08_16-52-43_260595134347_rgbf000199-resize_1/000457_2014-06-08_16-52-43_260595134347_rgbf000199-resize_1-target.png,125,3.6489999999999996,0,3498,124,meters,jsons/VE125_randls_64.json,646731,786770,25,Man
32,494783,DepthScenes,duration_manipulation_targetAtFixation,jsons/VE125_randls_64.json,http://54.235.29.9/FacialAge/BNav_EC2/DepthDuration/v2_depth_duration_MTurk/v2_DepthDuration_HTML.html#122,122,1364,625,1364,768,8-29-2022,10-26-9,33,depth_duration_stimuli/000878_2014-06-08_22-52-45_260595134347_rgbf000045-resize_2/000878_2014-06-08_22-52-45_260595134347_rgbf000045-resize_2-target.png,125,2.092,1,3648,141,meters,jsons/VE125_randls_64.json,646731,786770,25,Man
33,494783,DepthScenes,duration_manipulation_targetAtFixation,jsons/VE125_randls_64.json,http://54.235.29.9/FacialAge/BNav_EC2/DepthDuration/v2_depth_duration_MTurk/v2_DepthDuration_HTML.html#122,122,1364,625,1364,768,8-29-2022,10-26-9,34,depth_duration_stimuli/002953_2014-06-08_17-32-18_094959634447_rgbf000059-resize_5/002953_2014-06-08_17-32-18_094959634447_rgbf000059-resize_5-target.png,125,1.551,1,3797,124,meters,jsons/VE125_randls_64.json,646731,786770,25,Man
34,494783,DepthScenes,duration_manipulation_targetAtFixation,jsons/VE125_randls_64.json,http://54.235.29.9/FacialAge/BNav_EC2/DepthDuration/v2_depth_duration_MTurk/v2_DepthDuration_HTML.html#122,122,1364,625,1364,768,8-29-2022,10-26-9,35,depth_duration_stimuli/000493_2014-06-09_21-01-18_260595134347_rgbf000196-resize_3/000493_2014-06-09_21-01-18_260595134347_rgbf000196-resize_3-target.png,125,3.44,1,4014,123,meters,jsons/VE125_randls_64.json,646731,786770,25,Man
35,494783,DepthScenes,duration_manipulation_targetAtFixation,jsons/VE125_randls_64.json,http://54.235.29.9/FacialAge/BNav_EC2/DepthDuration/v2_depth_duration_MTurk/v2_DepthDuration_HTML.html#122,122,1364,625,1364,768,8-29-2022,10-26-9,36,depth_duration_stimuli/000191_2014-05-12_17-07-38_260595134347_rgbf000199-resize_0/000191_2014-05-12_17-07-38_260595134347_rgbf000199-resize_0-target.png,125,3.7995,0,4266,124,meters,jsons/VE125_randls_64.json,646731,786770,25,Man
36,494783,DepthScenes,duration_manipulation_targetAtFixation,jsons/VE125_randls_64.json,http://54.235.29.9/FacialAge/BNav_EC2/DepthDuration/v2_depth_duration_MTurk/v2_DepthDuration_HTML.html#122,122,1364,625,1364,768,8-29-2022,10-26-9,37,depth_duration_stimuli/001808_2014-06-26_20-50-58_260595134347_rgbf000029-resize_1/001808_2014-06-26_20-50-58_260595134347_rgbf000029-resize_1-target.png,125,4.249,0,3523,124,meters,jsons/VE125_randls_64.json,646731,786770,25,Man
37,494783,DepthScenes,duration_manipulation_targetAtFixation,jsons/VE125_randls_64.json,http://54.235.29.9/FacialAge/BNav_EC2/DepthDuration/v2_depth_duration_MTurk/v2_DepthDuration_HTML.html#122,122,1364,625,1364,768,8-29-2022,10-26-9,38,depth_duration_stimuli/001815_2014-06-26_20-52-55_260595134347_rgbf000020-resize_0/001815_2014-06-26_20-52-55_260595134347_rgbf000020-resize_0-target.png,125,3.3865,0,3701,158,meters,jsons/VE125_randls_64.json,646731,786770,25,Man
38,494783,DepthScenes,duration_manipulation_targetAtFixation,jsons/VE125_randls_64.json,http://54.235.29.9/FacialAge/BNav_EC2/DepthDuration/v2_depth_duration_MTurk/v2_DepthDuration_HTML.html#122,122,1364,625,1364,768,8-29-2022,10-26-9,39,depth_duration_stimuli/003492_2014-05-21_15-50-55_094959634447_rgbf000828-resize_1/003492_2014-05-21_15-50-55_094959634447_rgbf000828-resize_1-target.png,125,4.06875,1,3618,121,meters,jsons/VE125_randls_64.json,646731,786770,25,Man
39,494783,DepthScenes,duration_manipulation_targetAtFixation,jsons/VE125_randls_64.json,http://54.235.29.9/FacialAge/BNav_EC2/DepthDuration/v2_depth_duration_MTurk/v2_DepthDuration_HTML.html#122,122,1364,625,1364,768,8-29-2022,10-26-9,40,depth_duration_stimuli/002568_2014-06-24_13-59-21_094959634447_rgbf000062-resize_4/002568_2014-06-24_13-59-21_094959634447_rgbf000062-resize_4-target.png,125,3.015,1,3470,124,meters,jsons/VE125_randls_64.json,646731,786770,25,Man
40,494783,DepthScenes,duration_manipulation_targetAtFixation,jsons/VE125_randls_64.json,http://54.235.29.9/FacialAge/BNav_EC2/DepthDuration/v2_depth_duration_MTurk/v2_DepthDuration_HTML.html#122,122,1364,625,1364,768,8-29-2022,10-26-9,41,depth_duration_stimuli/001029_2014-06-08_13-17-57_260595134347_rgbf000065-resize_1/001029_2014-06-08_13-17-57_260595134347_rgbf000065-resize_1-target.png,125,3.0835,0,4188,111,meters,jsons/VE125_randls_64.json,646731,786770,25,Man
41,494783,DepthScenes,duration_manipulation_targetAtFixation,jsons/VE125_randls_64.json,http://54.235.29.9/FacialAge/BNav_EC2/DepthDuration/v2_depth_duration_MTurk/v2_DepthDuration_HTML.html#122,122,1364,625,1364,768,8-29-2022,10-26-9,42,depth_duration_stimuli/000677_2014-06-08_23-10-32_260595134347_rgbf000158-resize_6/000677_2014-06-08_23-10-32_260595134347_rgbf000158-resize_6-target.png,125,3.556,0,3620,121,meters,jsons/VE125_randls_64.json,646731,786770,25,Man
42,494783,DepthScenes,duration_manipulation_targetAtFixation,jsons/VE125_randls_64.json,http://54.235.29.9/FacialAge/BNav_EC2/DepthDuration/v2_depth_duration_MTurk/v2_DepthDuration_HTML.html#122,122,1364,625,1364,768,8-29-2022,10-26-9,43,depth_duration_stimuli/002748_2014-06-22_19-07-22_094959634447_rgbf000078-resize_1/002748_2014-06-22_19-07-22_094959634447_rgbf000078-resize_1-target.png,125,4.6705,1,3742,117,meters,jsons/VE125_randls_64.json,646731,786770,25,Man
43,494783,DepthScenes,duration_manipulation_targetAtFixation,jsons/VE125_randls_64.json,http://54.235.29.9/FacialAge/BNav_EC2/DepthDuration/v2_depth_duration_MTurk/v2_DepthDuration_HTML.html#122,122,1364,625,1364,768,8-29-2022,10-26-9,44,depth_duration_stimuli/002995_2014-06-15_12-31-26_094959634447_rgbf000150-resize_1/002995_2014-06-15_12-31-26_094959634447_rgbf000150-resize_1-target.png,125,3.8360000000000003,0,3334,117,meters,jsons/VE125_randls_64.json,646731,786770,25,Man
44,494783,DepthScenes,duration_manipulation_targetAtFixation,jsons/VE125_randls_64.json,http://54.235.29.9/FacialAge/BNav_EC2/DepthDuration/v2_depth_duration_MTurk/v2_DepthDuration_HTML.html#122,122,1364,625,1364,768,8-29-2022,10-26-9,45,depth_duration_stimuli/000787_2014-06-08_22-33-53_260595134347_rgbf000175-resize_1/000787_2014-06-08_22-33-53_260595134347_rgbf000175-resize-original.jpg,125,4.784,0,3413,115,meters,jsons/VE125_randls_64.json,646731,786770,25,Man
45,494783,DepthScenes,duration_manipulation_targetAtFixation,jsons/VE125_randls_64.json,http://54.235.29.9/FacialAge/BNav_EC2/DepthDuration/v2_depth_duration_MTurk/v2_DepthDuration_HTML.html#122,122,1364,625,1364,768,8-29-2022,10-26-9,46,depth_duration_stimuli/001417_2014-06-19_16-25-36_260595134347_rgbf000115-resize_5/001417_2014-06-19_16-25-36_260595134347_rgbf000115-resize_5-target.png,125,4.6255,0,3365,115,meters,jsons/VE125_randls_64.json,646731,786770,25,Man
46,494783,DepthScenes,duration_manipulation_targetAtFixation,jsons/VE125_randls_64.json,http://54.235.29.9/FacialAge/BNav_EC2/DepthDuration/v2_depth_duration_MTurk/v2_DepthDuration_HTML.html#122,122,1364,625,1364,768,8-29-2022,10-26-9,47,depth_duration_stimuli/003081_2014-06-15_15-19-16_094959634447_rgbf000150-resize_1/003081_2014-06-15_15-19-16_094959634447_rgbf000150-resize_1-target.png,125,3.9125,0,3369,137,meters,jsons/VE125_randls_64.json,646731,786770,25,Man
47,494783,DepthScenes,duration_manipulation_targetAtFixation,jsons/VE125_randls_64.json,http://54.235.29.9/FacialAge/BNav_EC2/DepthDuration/v2_depth_duration_MTurk/v2_DepthDuration_HTML.html#122,122,1364,625,1364,768,8-29-2022,10-26-9,48,depth_duration_stimuli/002272_2014-06-28_18-53-56_260595134347_rgbf000067-resize_2/002272_2014-06-28_18-53-56_260595134347_rgbf000067-resize_2-target.png,125,1.138,1,3513,123,meters,jsons/VE125_randls_64.json,646731,786770,25,Man
48,494783,DepthScenes,duration_manipulation_targetAtFixation,jsons/VE125_randls_64.json,http://54.235.29.9/FacialAge/BNav_EC2/DepthDuration/v2_depth_duration_MTurk/v2_DepthDuration_HTML.html#122,122,1364,625,1364,768,8-29-2022,10-26-9,49,depth_duration_stimuli/001571_2014-06-20_17-21-32_260595134347_rgbf000089-resize_1/001571_2014-06-20_17-21-32_260595134347_rgbf000089-resize_1-target.png,125,1.86,0,3505,116,meters,jsons/VE125_randls_64.json,646731,786770,25,Man
49,494783,DepthScenes,duration_manipulation_targetAtFixation,jsons/VE125_randls_64.json,http://54.235.29.9/FacialAge/BNav_EC2/DepthDuration/v2_depth_duration_MTurk/v2_DepthDuration_HTML.html#122,122,1364,625,1364,768,8-29-2022,10-26-9,50,depth_duration_stimuli/001016_2014-06-09_16-16-10_260595134347_rgbf000112-resize_5/001016_2014-06-09_16-16-10_260595134347_rgbf000112-resize_5-target.png,125,1.6565,1,3832,128,meters,jsons/VE125_randls_64.json,646731,786770,25,Man
50,494783,DepthScenes,duration_manipulation_targetAtFixation,jsons/VE125_randls_64.json,http://54.235.29.9/FacialAge/BNav_EC2/DepthDuration/v2_depth_duration_MTurk/v2_DepthDuration_HTML.html#122,122,1364,625,1364,768,8-29-2022,10-26-9,51,depth_duration_stimuli/002340_2014-06-28_20-05-46_260595134347_rgbf000113-resize_0/002340_2014-06-28_20-05-46_260595134347_rgbf000113-resize_0-target.png,125,2.4735,1,4633,140,meters,jsons/VE125_randls_64.json,646731,786770,25,Man
51,494783,DepthScenes,duration_manipulation_targetAtFixation,jsons/VE125_randls_64.json,http://54.235.29.9/FacialAge/BNav_EC2/DepthDuration/v2_depth_duration_MTurk/v2_DepthDuration_HTML.html#122,122,1364,625,1364,768,8-29-2022,10-26-9,52,depth_duration_stimuli/001555_2014-06-20_17-12-10_260595134347_rgbf000065-resize_4/001555_2014-06-20_17-12-10_260595134347_rgbf000065-resize_4-target.png,125,1.633,0,3219,139,meters,jsons/VE125_randls_64.json,646731,786770,25,Man
52,494783,DepthScenes,duration_manipulation_targetAtFixation,jsons/VE125_randls_64.json,http://54.235.29.9/FacialAge/BNav_EC2/DepthDuration/v2_depth_duration_MTurk/v2_DepthDuration_HTML.html#122,122,1364,625,1364,768,8-29-2022,10-26-9,53,depth_duration_stimuli/000103_2014-05-14_22-01-17_260595134347_rgbf000152-resize_5/000103_2014-05-14_22-01-17_260595134347_rgbf000152-resize_5-target.png,125,1.993,0,3478,136,meters,jsons/VE125_randls_64.json,646731,786770,25,Man
53,494783,DepthScenes,duration_manipulation_targetAtFixation,jsons/VE125_randls_64.json,http://54.235.29.9/FacialAge/BNav_EC2/DepthDuration/v2_depth_duration_MTurk/v2_DepthDuration_HTML.html#122,122,1364,625,1364,768,8-29-2022,10-26-9,54,depth_duration_stimuli/001199_2014-06-17_16-03-48_260595134347_rgbf000077-resize_0/001199_2014-06-17_16-03-48_260595134347_rgbf000077-resize_0-target.png,125,3.4375,1,3651,118,meters,jsons/VE125_randls_64.json,646731,786770,25,Man
54,494783,DepthScenes,duration_manipulation_targetAtFixation,jsons/VE125_randls_64.json,http://54.235.29.9/FacialAge/BNav_EC2/DepthDuration/v2_depth_duration_MTurk/v2_DepthDuration_HTML.html#122,122,1364,625,1364,768,8-29-2022,10-26-9,55,depth_duration_stimuli/000502_2014-06-08_23-02-32_260595134347_rgbf000063-resize_4/000502_2014-06-08_23-02-32_260595134347_rgbf000063-resize_4-target.png,125,2.431,0,3332,126,meters,jsons/VE125_randls_64.json,646731,786770,25,Man
55,494783,DepthScenes,duration_manipulation_targetAtFixation,jsons/VE125_randls_64.json,http://54.235.29.9/FacialAge/BNav_EC2/DepthDuration/v2_depth_duration_MTurk/v2_DepthDuration_HTML.html#122,122,1364,625,1364,768,8-29-2022,10-26-9,56,depth_duration_stimuli/001167_2014-06-17_15-38-07_260595134347_rgbf000108-resize_0/001167_2014-06-17_15-38-07_260595134347_rgbf000108-resize_0-target.png,125,1.8505,0,3157,132,meters,jsons/VE125_randls_64.json,646731,786770,25,Man
56,494783,DepthScenes,duration_manipulation_targetAtFixation,jsons/VE125_randls_64.json,http://54.235.29.9/FacialAge/BNav_EC2/DepthDuration/v2_depth_duration_MTurk/v2_DepthDuration_HTML.html#122,122,1364,625,1364,768,8-29-2022,10-26-9,57,depth_duration_stimuli/003587_2014-05-23_16-48-02_094959634447_rgbf002384-resize_2/003587_2014-05-23_16-48-02_094959634447_rgbf002384-resize_2-target.png,125,1.357,1,2991,137,meters,jsons/VE125_randls_64.json,646731,786770,25,Man
57,494783,DepthScenes,duration_manipulation_targetAtFixation,jsons/VE125_randls_64.json,http://54.235.29.9/FacialAge/BNav_EC2/DepthDuration/v2_depth_duration_MTurk/v2_DepthDuration_HTML.html#122,122,1364,625,1364,768,8-29-2022,10-26-9,58,depth_duration_stimuli/002763_2014-06-22_19-13-10_094959634447_rgbf000075-resize_4/002763_2014-06-22_19-13-10_094959634447_rgbf000075-resize_4-target.png,125,1.68375,1,2490,132,meters,jsons/VE125_randls_64.json,646731,786770,25,Man
58,494783,DepthScenes,duration_manipulation_targetAtFixation,jsons/VE125_randls_64.json,http://54.235.29.9/FacialAge/BNav_EC2/DepthDuration/v2_depth_duration_MTurk/v2_DepthDuration_HTML.html#122,122,1364,625,1364,768,8-29-2022,10-26-9,59,depth_duration_stimuli/002209_2014-06-28_18-36-10_260595134347_rgbf000051-resize_1/002209_2014-06-28_18-36-10_260595134347_rgbf000051-resize_1-target.png,125,2.057,1,2138,124,meters,jsons/VE125_randls_64.json,646731,786770,25,Man
59,494783,DepthScenes,duration_manipulation_targetAtFixation,jsons/VE125_randls_64.json,http://54.235.29.9/FacialAge/BNav_EC2/DepthDuration/v2_depth_duration_MTurk/v2_DepthDuration_HTML.html#122,122,1364,625,1364,768,8-29-2022,10-26-9,60,depth_duration_stimuli/002043_2014-06-24_20-29-38_260595134347_rgbf000039-resize_4/002043_2014-06-24_20-29-38_260595134347_rgbf000039-resize_4-target.png,125,2.8435,1,2467,125,meters,jsons/VE125_randls_64.json,646731,786770,25,Man
60,494783,DepthScenes,duration_manipulation_targetAtFixation,jsons/VE125_randls_64.json,http://54.235.29.9/FacialAge/BNav_EC2/DepthDuration/v2_depth_duration_MTurk/v2_DepthDuration_HTML.html#122,122,1364,625,1364,768,8-29-2022,10-26-9,61,depth_duration_stimuli/003048_2014-06-15_13-49-43_094959634447_rgbf000150-resize_1/003048_2014-06-15_13-49-43_094959634447_rgbf000150-resize_1-target.png,125,4.0035,0,3271,125,meters,jsons/VE125_randls_64.json,646731,786770,25,Man
61,494783,DepthScenes,duration_manipulation_targetAtFixation,jsons/VE125_randls_64.json,http://54.235.29.9/FacialAge/BNav_EC2/DepthDuration/v2_depth_duration_MTurk/v2_DepthDuration_HTML.html#122,122,1364,625,1364,768,8-29-2022,10-26-9,62,depth_duration_stimuli/000470_2014-06-09_19-42-40_260595134347_rgbf000094-resize_1/000470_2014-06-09_19-42-40_260595134347_rgbf000094-resize_1-target.png,125,1.831,1,3832,120,meters,jsons/VE125_randls_64.json,646731,786770,25,Man
62,494783,DepthScenes,duration_manipulation_targetAtFixation,jsons/VE125_randls_64.json,http://54.235.29.9/FacialAge/BNav_EC2/DepthDuration/v2_depth_duration_MTurk/v2_DepthDuration_HTML.html#122,122,1364,625,1364,768,8-29-2022,10-26-9,63,depth_duration_stimuli/000109_2014-05-14_23-41-52_260595134347_rgbf000035-resize_9/000109_2014-05-14_23-41-52_260595134347_rgbf000035-resize_9-target.png,125,1.3545,0,3732,127,meters,jsons/VE125_randls_64.json,646731,786770,25,Man
63,494783,DepthScenes,duration_manipulation_targetAtFixation,jsons/VE125_randls_64.json,http://54.235.29.9/FacialAge/BNav_EC2/DepthDuration/v2_depth_duration_MTurk/v2_DepthDuration_HTML.html#122,122,1364,625,1364,768,8-29-2022,10-26-9,64,depth_duration_stimuli/003621_2014-05-23_18-06-08_094959634447_rgbf000101-resize_1/003621_2014-05-23_18-06-08_094959634447_rgbf000101-resize_1-target.png,125,3.9835,0,5723,160,meters,jsons/VE125_randls_64.json,646731,786770,25,Man
64,494783,DepthScenes,duration_manipulation_targetAtFixation,jsons/VE125_randls_64.json,http://54.235.29.9/FacialAge/BNav_EC2/DepthDuration/v2_depth_duration_MTurk/v2_DepthDuration_HTML.html#122,122,1364,625,1364,768,8-29-2022,10-26-9,65,depth_duration_stimuli/001584_2014-06-20_11-07-43_260595134347_rgbf000002-resize_1/001584_2014-06-20_11-07-43_260595134347_rgbf000002-resize_1-target.png,125,3.53,0,3277,125,meters,jsons/VE125_randls_64.json,646731,786770,25,Man
65,494783,DepthScenes,duration_manipulation_targetAtFixation,jsons/VE125_randls_64.json,http://54.235.29.9/FacialAge/BNav_EC2/DepthDuration/v2_depth_duration_MTurk/v2_DepthDuration_HTML.html#122,122,1364,625,1364,768,8-29-2022,10-26-9,66,depth_duration_stimuli/001222_2014-06-17_16-24-06_260595134347_rgbf000073-resize_0/001222_2014-06-17_16-24-06_260595134347_rgbf000073-resize-original.jpg,125,1.4385,0,4980,140,meters,jsons/VE125_randls_64.json,646731,786770,25,Man
66,494783,DepthScenes,duration_manipulation_targetAtFixation,jsons/VE125_randls_64.json,http://54.235.29.9/FacialAge/BNav_EC2/DepthDuration/v2_depth_duration_MTurk/v2_DepthDuration_HTML.html#122,122,1364,625,1364,768,8-29-2022,10-26-9,67,depth_duration_stimuli/001810_2014-06-26_20-51-35_260595134347_rgbf000040-resize_3/001810_2014-06-26_20-51-35_260595134347_rgbf000040-resize_3-target.png,125,2.2525,1,4060,131,meters,jsons/VE125_randls_64.json,646731,786770,25,Man
67,494783,DepthScenes,duration_manipulation_targetAtFixation,jsons/VE125_randls_64.json,http://54.235.29.9/FacialAge/BNav_EC2/DepthDuration/v2_depth_duration_MTurk/v2_DepthDuration_HTML.html#122,122,1364,625,1364,768,8-29-2022,10-26-9,68,depth_duration_stimuli/003010_2014-06-15_12-54-35_094959634447_rgbf000112-resize_0/003010_2014-06-15_12-54-35_094959634447_rgbf000112-resize_0-target.png,125,3.1185,0,3062,126,meters,jsons/VE125_randls_64.json,646731,786770,25,Man
68,494783,DepthScenes,duration_manipulation_targetAtFixation,jsons/VE125_randls_64.json,http://54.235.29.9/FacialAge/BNav_EC2/DepthDuration/v2_depth_duration_MTurk/v2_DepthDuration_HTML.html#122,122,1364,625,1364,768,8-29-2022,10-26-9,69,depth_duration_stimuli/000739_2014-06-08_18-45-58_260595134347_rgbf000068-resize_1/000739_2014-06-08_18-45-58_260595134347_rgbf000068-resize_1-target.png,125,3.534,0,3106,123,meters,jsons/VE125_randls_64.json,646731,786770,25,Man
69,494783,DepthScenes,duration_manipulation_targetAtFixation,jsons/VE125_randls_64.json,http://54.235.29.9/FacialAge/BNav_EC2/DepthDuration/v2_depth_duration_MTurk/v2_DepthDuration_HTML.html#122,122,1364,625,1364,768,8-29-2022,10-26-9,70,depth_duration_stimuli/000734_2014-06-08_17-39-11_260595134347_rgbf000128-resize_2/000734_2014-06-08_17-39-11_260595134347_rgbf000128-resize_2-target.png,125,4.098,1,3818,111,meters,jsons/VE125_randls_64.json,646731,786770,25,Man
70,494783,DepthScenes,duration_manipulation_targetAtFixation,jsons/VE125_randls_64.json,http://54.235.29.9/FacialAge/BNav_EC2/DepthDuration/v2_depth_duration_MTurk/v2_DepthDuration_HTML.html#122,122,1364,625,1364,768,8-29-2022,10-26-9,71,depth_duration_stimuli/000736_2014-06-08_18-24-15_260595134347_rgbf000206-resize_3/000736_2014-06-08_18-24-15_260595134347_rgbf000206-resize_3-target.png,125,3.515,1,2803,114,meters,jsons/VE125_randls_64.json,646731,786770,25,Man
71,494783,DepthScenes,duration_manipulation_targetAtFixation,jsons/VE125_randls_64.json,http://54.235.29.9/FacialAge/BNav_EC2/DepthDuration/v2_depth_duration_MTurk/v2_DepthDuration_HTML.html#122,122,1364,625,1364,768,8-29-2022,10-26-9,72,depth_duration_stimuli/000137_2014-05-20_17-04-49_260595134347_rgbf000120-resize_1/000137_2014-05-20_17-04-49_260595134347_rgbf000120-resize_1-target.png,125,3.786,0,3080,112,meters,jsons/VE125_randls_64.json,646731,786770,25,Man
72,494783,DepthScenes,duration_manipulation_targetAtFixation,jsons/VE125_randls_64.json,http://54.235.29.9/FacialAge/BNav_EC2/DepthDuration/v2_depth_duration_MTurk/v2_DepthDuration_HTML.html#122,122,1364,625,1364,768,8-29-2022,10-26-9,73,depth_duration_stimuli/001066_2014-06-08_22-03-20_260595134347_rgbf000066-resize_4/001066_2014-06-08_22-03-20_260595134347_rgbf000066-resize_4-target.png,125,4.2330000000000005,0,3125,118,meters,jsons/VE125_randls_64.json,646731,786770,25,Man
73,494783,DepthScenes,duration_manipulation_targetAtFixation,jsons/VE125_randls_64.json,http://54.235.29.9/FacialAge/BNav_EC2/DepthDuration/v2_depth_duration_MTurk/v2_DepthDuration_HTML.html#122,122,1364,625,1364,768,8-29-2022,10-26-9,74,depth_duration_stimuli/000742_2014-06-08_18-48-09_260595134347_rgbf000164-resize_4/000742_2014-06-08_18-48-09_260595134347_rgbf000164-resize_4-target.png,125,4.632,0,2815,121,meters,jsons/VE125_randls_64.json,646731,786770,25,Man
74,494783,DepthScenes,duration_manipulation_targetAtFixation,jsons/VE125_randls_64.json,http://54.235.29.9/FacialAge/BNav_EC2/DepthDuration/v2_depth_duration_MTurk/v2_DepthDuration_HTML.html#122,122,1364,625,1364,768,8-29-2022,10-26-9,75,depth_duration_stimuli/001055_2014-06-08_18-45-35_260595134347_rgbf000111-resize_4/001055_2014-06-08_18-45-35_260595134347_rgbf000111-resize_4-target.png,125,2.4290000000000003,0,2745,145,meters,jsons/VE125_randls_64.json,646731,786770,25,Man
75,494783,DepthScenes,duration_manipulation_targetAtFixation,jsons/VE125_randls_64.json,http://54.235.29.9/FacialAge/BNav_EC2/DepthDuration/v2_depth_duration_MTurk/v2_DepthDuration_HTML.html#122,122,1364,625,1364,768,8-29-2022,10-26-9,76,depth_duration_stimuli/000549_2014-06-08_22-10-24_260595134347_rgbf000247-resize_3/000549_2014-06-08_22-10-24_260595134347_rgbf000247-resize_3-target.png,125,1.841,0,2349,127,meters,jsons/VE125_randls_64.json,646731,786770,25,Man
76,494783,DepthScenes,duration_manipulation_targetAtFixation,jsons/VE125_randls_64.json,http://54.235.29.9/FacialAge/BNav_EC2/DepthDuration/v2_depth_duration_MTurk/v2_DepthDuration_HTML.html#122,122,1364,625,1364,768,8-29-2022,10-26-9,77,depth_duration_stimuli/001164_2014-06-17_15-35-46_260595134347_rgbf000085-resize_3/001164_2014-06-17_15-35-46_260595134347_rgbf000085-resize_3-target.png,125,2.354,0,2438,137,meters,jsons/VE125_randls_64.json,646731,786770,25,Man
77,494783,DepthScenes,duration_manipulation_targetAtFixation,jsons/VE125_randls_64.json,http://54.235.29.9/FacialAge/BNav_EC2/DepthDuration/v2_depth_duration_MTurk/v2_DepthDuration_HTML.html#122,122,1364,625,1364,768,8-29-2022,10-26-9,78,depth_duration_stimuli/001136_2014-06-17_15-19-41_260595134347_rgbf000076-resize_3/001136_2014-06-17_15-19-41_260595134347_rgbf000076-resize_3-target.png,125,1.8655,0,2400,125,meters,jsons/VE125_randls_64.json,646731,786770,25,Man
78,494783,DepthScenes,duration_manipulation_targetAtFixation,jsons/VE125_randls_64.json,http://54.235.29.9/FacialAge/BNav_EC2/DepthDuration/v2_depth_duration_MTurk/v2_DepthDuration_HTML.html#122,122,1364,625,1364,768,8-29-2022,10-26-9,79,depth_duration_stimuli/000810_2014-06-08_17-20-01_260595134347_rgbf000105-resize_0/000810_2014-06-08_17-20-01_260595134347_rgbf000105-resize_0-target.png,125,1.4865,1,5414,174,meters,jsons/VE125_randls_64.json,646731,786770,25,Man
79,494783,DepthScenes,duration_manipulation_targetAtFixation,jsons/VE125_randls_64.json,http://54.235.29.9/FacialAge/BNav_EC2/DepthDuration/v2_depth_duration_MTurk/v2_DepthDuration_HTML.html#122,122,1364,625,1364,768,8-29-2022,10-26-9,80,depth_duration_stimuli/001214_2014-06-17_16-13-55_260595134347_rgbf000111-resize_0/001214_2014-06-17_16-13-55_260595134347_rgbf000111-resize_0-target.png,125,2.6505,0,3576,125,meters,jsons/VE125_randls_64.json,646731,786770,25,Man
80,494783,DepthScenes,duration_manipulation_targetAtFixation,jsons/VE125_randls_64.json,http://54.235.29.9/FacialAge/BNav_EC2/DepthDuration/v2_depth_duration_MTurk/v2_DepthDuration_HTML.html#122,122,1364,625,1364,768,8-29-2022,10-26-9,81,depth_duration_stimuli/001092_2014-06-15_17-34-58_260595134347_rgbf000171-resize_3/001092_2014-06-15_17-34-58_260595134347_rgbf000171-resize_3-target.png,125,2.6935,1,2965,125,meters,jsons/VE125_randls_64.json,646731,786770,25,Man
81,494783,DepthScenes,duration_manipulation_targetAtFixation,jsons/VE125_randls_64.json,http://54.235.29.9/FacialAge/BNav_EC2/DepthDuration/v2_depth_duration_MTurk/v2_DepthDuration_HTML.html#122,122,1364,625,1364,768,8-29-2022,10-26-9,82,depth_duration_stimuli/002545_2014-06-24_13-38-53_094959634447_rgbf000080-resize_4/002545_2014-06-24_13-38-53_094959634447_rgbf000080-resize_4-target.png,125,1.9205,0,3555,125,meters,jsons/VE125_randls_64.json,646731,786770,25,Man
82,494783,DepthScenes,duration_manipulation_targetAtFixation,jsons/VE125_randls_64.json,http://54.235.29.9/FacialAge/BNav_EC2/DepthDuration/v2_depth_duration_MTurk/v2_DepthDuration_HTML.html#122,122,1364,625,1364,768,8-29-2022,10-26-9,83,depth_duration_stimuli/000692_2014-06-08_13-09-42_260595134347_rgbf000199-resize_2/000692_2014-06-08_13-09-42_260595134347_rgbf000199-resize_2-target.png,125,3.661,0,3379,114,meters,jsons/VE125_randls_64.json,646731,786770,25,Man
83,494783,DepthScenes,duration_manipulation_targetAtFixation,jsons/VE125_randls_64.json,http://54.235.29.9/FacialAge/BNav_EC2/DepthDuration/v2_depth_duration_MTurk/v2_DepthDuration_HTML.html#122,122,1364,625,1364,768,8-29-2022,10-26-9,84,depth_duration_stimuli/001094_2014-06-15_17-36-00_260595134347_rgbf000205-resize_0/001094_2014-06-15_17-36-00_260595134347_rgbf000205-resize_0-target.png,125,4.2175,0,3375,114,meters,jsons/VE125_randls_64.json,646731,786770,25,Man
84,494783,DepthScenes,duration_manipulation_targetAtFixation,jsons/VE125_randls_64.json,http://54.235.29.9/FacialAge/BNav_EC2/DepthDuration/v2_depth_duration_MTurk/v2_DepthDuration_HTML.html#122,122,1364,625,1364,768,8-29-2022,10-26-9,85,depth_duration_stimuli/002570_2014-06-24_13-59-54_094959634447_rgbf000059-resize_0/002570_2014-06-24_13-59-54_094959634447_rgbf000059-resize_0-target.png,125,4.037,1,2608,124,meters,jsons/VE125_randls_64.json,646731,786770,25,Man
85,494783,DepthScenes,duration_manipulation_targetAtFixation,jsons/VE125_randls_64.json,http://54.235.29.9/FacialAge/BNav_EC2/DepthDuration/v2_depth_duration_MTurk/v2_DepthDuration_HTML.html#122,122,1364,625,1364,768,8-29-2022,10-26-9,86,depth_duration_stimuli/002467_2014-06-28_20-38-07_260595134347_rgbf000026-resize_2/002467_2014-06-28_20-38-07_260595134347_rgbf000026-resize_2-target.png,125,4.742,0,5586,119,meters,jsons/VE125_randls_64.json,646731,786770,25,Man
86,494783,DepthScenes,duration_manipulation_targetAtFixation,jsons/VE125_randls_64.json,http://54.235.29.9/FacialAge/BNav_EC2/DepthDuration/v2_depth_duration_MTurk/v2_DepthDuration_HTML.html#122,122,1364,625,1364,768,8-29-2022,10-26-9,87,depth_duration_stimuli/000682_2014-06-08_23-14-58_260595134347_rgbf000041-resize_5/000682_2014-06-08_23-14-58_260595134347_rgbf000041-resize_5-target.png,125,2.7239999999999998,1,2597,111,meters,jsons/VE125_randls_64.json,646731,786770,25,Man
87,494783,DepthScenes,duration_manipulation_targetAtFixation,jsons/VE125_randls_64.json,http://54.235.29.9/FacialAge/BNav_EC2/DepthDuration/v2_depth_duration_MTurk/v2_DepthDuration_HTML.html#122,122,1364,625,1364,768,8-29-2022,10-26-9,88,depth_duration_stimuli/001650_2014-06-20_12-09-00_260595134347_rgbf000087-resize_3/001650_2014-06-20_12-09-00_260595134347_rgbf000087-resize_3-target.png,125,1.9505,0,3387,124,meters,jsons/VE125_randls_64.json,646731,786770,25,Man
88,494783,DepthScenes,duration_manipulation_targetAtFixation,jsons/VE125_randls_64.json,http://54.235.29.9/FacialAge/BNav_EC2/DepthDuration/v2_depth_duration_MTurk/v2_DepthDuration_HTML.html#122,122,1364,625,1364,768,8-29-2022,10-26-9,89,depth_duration_stimuli/002153_2014-06-25_21-27-18_260595134347_rgbf000038-resize_5/002153_2014-06-25_21-27-18_260595134347_rgbf000038-resize_5-target.png,125,2.505,1,2561,133,meters,jsons/VE125_randls_64.json,646731,786770,25,Man
89,494783,DepthScenes,duration_manipulation_targetAtFixation,jsons/VE125_randls_64.json,http://54.235.29.9/FacialAge/BNav_EC2/DepthDuration/v2_depth_duration_MTurk/v2_DepthDuration_HTML.html#122,122,1364,625,1364,768,8-29-2022,10-26-9,90,depth_duration_stimuli/002660_2014-06-13_15-44-18_094959634447_rgbf001878-resize_2/002660_2014-06-13_15-44-18_094959634447_rgbf001878-resize_2-target.png,125,3.576,1,2372,91,meters,jsons/VE125_randls_64.json,646731,786770,25,Man
90,494783,DepthScenes,duration_manipulation_targetAtFixation,jsons/VE125_randls_64.json,http://54.235.29.9/FacialAge/BNav_EC2/DepthDuration/v2_depth_duration_MTurk/v2_DepthDuration_HTML.html#122,122,1364,625,1364,768,8-29-2022,10-26-9,91,depth_duration_stimuli/000788_2014-06-08_22-34-36_260595134347_rgbf000131-resize_1/000788_2014-06-08_22-34-36_260595134347_rgbf000131-resize_1-target.png,125,3.359,1,2823,132,meters,jsons/VE125_randls_64.json,646731,786770,25,Man
91,494783,DepthScenes,duration_manipulation_targetAtFixation,jsons/VE125_randls_64.json,http://54.235.29.9/FacialAge/BNav_EC2/DepthDuration/v2_depth_duration_MTurk/v2_DepthDuration_HTML.html#122,122,1364,625,1364,768,8-29-2022,10-26-9,92,depth_duration_stimuli/001235_2014-06-17_16-37-36_260595134347_rgbf000084-resize_4/001235_2014-06-17_16-37-36_260595134347_rgbf000084-resize_4-target.png,125,3.6605,0,3400,125,meters,jsons/VE125_randls_64.json,646731,786770,25,Man
92,494783,DepthScenes,duration_manipulation_targetAtFixation,jsons/VE125_randls_64.json,http://54.235.29.9/FacialAge/BNav_EC2/DepthDuration/v2_depth_duration_MTurk/v2_DepthDuration_HTML.html#122,122,1364,625,1364,768,8-29-2022,10-26-9,93,depth_duration_stimuli/002213_2014-06-28_18-37-58_260595134347_rgbf000055-resize_1/002213_2014-06-28_18-37-58_260595134347_rgbf000055-resize_1-target.png,125,3.62,0,3930,119,meters,jsons/VE125_randls_64.json,646731,786770,25,Man
93,494783,DepthScenes,duration_manipulation_targetAtFixation,jsons/VE125_randls_64.json,http://54.235.29.9/FacialAge/BNav_EC2/DepthDuration/v2_depth_duration_MTurk/v2_DepthDuration_HTML.html#122,122,1364,625,1364,768,8-29-2022,10-26-9,94,depth_duration_stimuli/000691_2014-06-08_13-08-50_260595134347_rgbf000132-resize_3/000691_2014-06-08_13-08-50_260595134347_rgbf000132-resize_3-target.png,125,4.1530000000000005,0,4302,124,meters,jsons/VE125_randls_64.json,646731,786770,25,Man
94,494783,DepthScenes,duration_manipulation_targetAtFixation,jsons/VE125_randls_64.json,http://54.235.29.9/FacialAge/BNav_EC2/DepthDuration/v2_depth_duration_MTurk/v2_DepthDuration_HTML.html#122,122,1364,625,1364,768,8-29-2022,10-26-9,95,depth_duration_stimuli/002663_2014-06-13_15-50-26_094959634447_rgbf000075-resize_1/002663_2014-06-13_15-50-26_094959634447_rgbf000075-resize_1-target.png,125,4.7495,1,3791,123,meters,jsons/VE125_randls_64.json,646731,786770,25,Man
95,494783,DepthScenes,duration_manipulation_targetAtFixation,jsons/VE125_randls_64.json,http://54.235.29.9/FacialAge/BNav_EC2/DepthDuration/v2_depth_duration_MTurk/v2_DepthDuration_HTML.html#122,122,1364,625,1364,768,8-29-2022,10-26-9,96,depth_duration_stimuli/000409_2014-06-04_19-23-33_260595134347_rgbf000067-resize_0/000409_2014-06-04_19-23-33_260595134347_rgbf000067-resize_0-target.png,125,3.7335,0,3393,114,meters,jsons/VE125_randls_64.json,646731,786770,25,Man
96,494783,DepthScenes,duration_manipulation_targetAtFixation,jsons/VE125_randls_64.json,http://54.235.29.9/FacialAge/BNav_EC2/DepthDuration/v2_depth_duration_MTurk/v2_DepthDuration_HTML.html#122,122,1364,625,1364,768,8-29-2022,10-26-9,97,depth_duration_stimuli/000486_2014-06-09_20-47-20_260595134347_rgbf000143-resize_2/000486_2014-06-09_20-47-20_260595134347_rgbf000143-resize_2-target.png,125,4.8325,1,3536,125,meters,jsons/VE125_randls_64.json,646731,786770,25,Man
97,494783,DepthScenes,duration_manipulation_targetAtFixation,jsons/VE125_randls_64.json,http://54.235.29.9/FacialAge/BNav_EC2/DepthDuration/v2_depth_duration_MTurk/v2_DepthDuration_HTML.html#122,122,1364,625,1364,768,8-29-2022,10-26-9,98,depth_duration_stimuli/003083_2014-06-15_15-21-03_094959634447_rgbf000063-resize_1/003083_2014-06-15_15-21-03_094959634447_rgbf000063-resize_1-target.png,125,4.1405,0,3354,122,meters,jsons/VE125_randls_64.json,646731,786770,25,Man
98,494783,DepthScenes,duration_manipulation_targetAtFixation,jsons/VE125_randls_64.json,http://54.235.29.9/FacialAge/BNav_EC2/DepthDuration/v2_depth_duration_MTurk/v2_DepthDuration_HTML.html#122,122,1364,625,1364,768,8-29-2022,10-26-9,99,depth_duration_stimuli/001540_2014-06-20_17-01-05_260595134347_rgbf000086-resize_2/001540_2014-06-20_17-01-05_260595134347_rgbf000086-resize-original.jpg,125,1.459,0,3336,120,meters,jsons/VE125_randls_64.json,646731,786770,25,Man
99,494783,DepthScenes,duration_manipulation_targetAtFixation,jsons/VE125_randls_64.json,http://54.235.29.9/FacialAge/BNav_EC2/DepthDuration/v2_depth_duration_MTurk/v2_DepthDuration_HTML.html#122,122,1364,625,1364,768,8-29-2022,10-26-9,100,depth_duration_stimuli/000368_2014-06-09_15-53-01_260595134347_rgbf000155-resize_2/000368_2014-06-09_15-53-01_260595134347_rgbf000155-resize_2-target.png,125,2.4859999999999998,1,2501,139,meters,jsons/VE125_randls_64.json,646731,786770,25,Man
100,494783,DepthScenes,duration_manipulation_targetAtFixation,jsons/VE125_randls_64.json,http://54.235.29.9/FacialAge/BNav_EC2/DepthDuration/v2_depth_duration_MTurk/v2_DepthDuration_HTML.html#122,122,1364,625,1364,768,8-29-2022,10-26-9,101,depth_duration_stimuli/002678_2014-06-13_16-15-32_094959634447_rgbf000151-resize_6/002678_2014-06-13_16-15-32_094959634447_rgbf000151-resize_6-target.png,125,2.1830000000000003,1,2373,128,meters,jsons/VE125_randls_64.json,646731,786770,25,Man
101,494783,DepthScenes,duration_manipulation_targetAtFixation,jsons/VE125_randls_64.json,http://54.235.29.9/FacialAge/BNav_EC2/DepthDuration/v2_depth_duration_MTurk/v2_DepthDuration_HTML.html#122,122,1364,625,1364,768,8-29-2022,10-26-9,102,depth_duration_stimuli/002725_2014-06-22_11-47-51_094959634447_rgbf000070-resize_1/002725_2014-06-22_11-47-51_094959634447_rgbf000070-resize_1-target.png,125,2.195,1,2361,126,meters,jsons/VE125_randls_64.json,646731,786770,25,Man
102,494783,DepthScenes,duration_manipulation_targetAtFixation,jsons/VE125_randls_64.json,http://54.235.29.9/FacialAge/BNav_EC2/DepthDuration/v2_depth_duration_MTurk/v2_DepthDuration_HTML.html#122,122,1364,625,1364,768,8-29-2022,10-26-9,103,depth_duration_stimuli/002344_2014-06-28_20-06-29_260595134347_rgbf000030-resize_1/002344_2014-06-28_20-06-29_260595134347_rgbf000030-resize_1-target.png,125,1.5795,1,2207,131,meters,jsons/VE125_randls_64.json,646731,786770,25,Man
103,494783,DepthScenes,duration_manipulation_targetAtFixation,jsons/VE125_randls_64.json,http://54.235.29.9/FacialAge/BNav_EC2/DepthDuration/v2_depth_duration_MTurk/v2_DepthDuration_HTML.html#122,122,1364,625,1364,768,8-29-2022,10-26-9,104,depth_duration_stimuli/002784_2014-06-22_19-26-30_094959634447_rgbf000083-resize_3/002784_2014-06-22_19-26-30_094959634447_rgbf000083-resize_3-target.png,125,1.8046666666667,1,2364,132,meters,jsons/VE125_randls_64.json,646731,786770,25,Man
104,494783,DepthScenes,duration_manipulation_targetAtFixation,jsons/VE125_randls_64.json,http://54.235.29.9/FacialAge/BNav_EC2/DepthDuration/v2_depth_duration_MTurk/v2_DepthDuration_HTML.html#122,122,1364,625,1364,768,8-29-2022,10-26-9,105,depth_duration_stimuli/001100_2014-06-15_17-46-26_260595134347_rgbf000225-resize_2/001100_2014-06-15_17-46-26_260595134347_rgbf000225-resize_2-target.png,125,2.24,0,3175,132,meters,jsons/VE125_randls_64.json,646731,786770,25,Man
105,494783,DepthScenes,duration_manipulation_targetAtFixation,jsons/VE125_randls_64.json,http://54.235.29.9/FacialAge/BNav_EC2/DepthDuration/v2_depth_duration_MTurk/v2_DepthDuration_HTML.html#122,122,1364,625,1364,768,8-29-2022,10-26-9,106,depth_duration_stimuli/001570_2014-06-20_17-21-09_260595134347_rgbf000135-resize_4/001570_2014-06-20_17-21-09_260595134347_rgbf000135-resize_4-target.png,125,4.467,0,4065,123,meters,jsons/VE125_randls_64.json,646731,786770,25,Man
106,494783,DepthScenes,duration_manipulation_targetAtFixation,jsons/VE125_randls_64.json,http://54.235.29.9/FacialAge/BNav_EC2/DepthDuration/v2_depth_duration_MTurk/v2_DepthDuration_HTML.html#122,122,1364,625,1364,768,8-29-2022,10-26-9,107,depth_duration_stimuli/001392_2014-06-19_16-07-59_260595134347_rgbf000046-resize_1/001392_2014-06-19_16-07-59_260595134347_rgbf000046-resize_1-target.png,125,4.135,0,3164,124,meters,jsons/VE125_randls_64.json,646731,786770,25,Man
107,494783,DepthScenes,duration_manipulation_targetAtFixation,jsons/VE125_randls_64.json,http://54.235.29.9/FacialAge/BNav_EC2/DepthDuration/v2_depth_duration_MTurk/v2_DepthDuration_HTML.html#122,122,1364,625,1364,768,8-29-2022,10-26-9,108,depth_duration_stimuli/002445_2014-06-28_20-32-16_260595134347_rgbf000029-resize_4/002445_2014-06-28_20-32-16_260595134347_rgbf000029-resize_4-target.png,125,2.5315,0,3982,124,meters,jsons/VE125_randls_64.json,646731,786770,25,Man
108,494783,DepthScenes,duration_manipulation_targetAtFixation,jsons/VE125_randls_64.json,http://54.235.29.9/FacialAge/BNav_EC2/DepthDuration/v2_depth_duration_MTurk/v2_DepthDuration_HTML.html#122,122,1364,625,1364,768,8-29-2022,10-26-9,109,depth_duration_stimuli/000780_2014-06-08_22-28-29_260595134347_rgbf000126-resize_1/000780_2014-06-08_22-28-29_260595134347_rgbf000126-resize_1-target.png,125,3.3825,0,3531,118,meters,jsons/VE125_randls_64.json,646731,786770,25,Man
109,494783,DepthScenes,duration_manipulation_targetAtFixation,jsons/VE125_randls_64.json,http://54.235.29.9/FacialAge/BNav_EC2/DepthDuration/v2_depth_duration_MTurk/v2_DepthDuration_HTML.html#122,122,1364,625,1364,768,8-29-2022,10-26-9,110,depth_duration_stimuli/001449_2014-06-19_17-01-27_260595134347_rgbf000116-resize_2/001449_2014-06-19_17-01-27_260595134347_rgbf000116-resize_2-target.png,125,3.452,0,3547,125,meters,jsons/VE125_randls_64.json,646731,786770,25,Man
110,494783,DepthScenes,duration_manipulation_targetAtFixation,jsons/VE125_randls_64.json,http://54.235.29.9/FacialAge/BNav_EC2/DepthDuration/v2_depth_duration_MTurk/v2_DepthDuration_HTML.html#122,122,1364,625,1364,768,8-29-2022,10-26-9,111,depth_duration_stimuli/001450_2014-06-19_17-02-03_260595134347_rgbf000203-resize_4/001450_2014-06-19_17-02-03_260595134347_rgbf000203-resize_4-target.png,125,4.0106666666667,0,3372,119,meters,jsons/VE125_randls_64.json,646731,786770,25,Man
111,494783,DepthScenes,duration_manipulation_targetAtFixation,jsons/VE125_randls_64.json,http://54.235.29.9/FacialAge/BNav_EC2/DepthDuration/v2_depth_duration_MTurk/v2_DepthDuration_HTML.html#122,122,1364,625,1364,768,8-29-2022,10-26-9,112,depth_duration_stimuli/000009_2014-05-26_14-32-05_260595134347_rgbf000034-resize_3/000009_2014-05-26_14-32-05_260595134347_rgbf000034-resize_3-target.png,125,3.8715,0,3274,114,meters,jsons/VE125_randls_64.json,646731,786770,25,Man
112,494783,DepthScenes,duration_manipulation_targetAtFixation,jsons/VE125_randls_64.json,http://54.235.29.9/FacialAge/BNav_EC2/DepthDuration/v2_depth_duration_MTurk/v2_DepthDuration_HTML.html#122,122,1364,625,1364,768,8-29-2022,10-26-9,113,depth_duration_stimuli/001828_2014-06-26_21-40-03_260595134347_rgbf000024-resize_0/001828_2014-06-26_21-40-03_260595134347_rgbf000024-resize_0-target.png,125,4.8260000000000005,0,3358,124,meters,jsons/VE125_randls_64.json,646731,786770,25,Man
113,494783,DepthScenes,duration_manipulation_targetAtFixation,jsons/VE125_randls_64.json,http://54.235.29.9/FacialAge/BNav_EC2/DepthDuration/v2_depth_duration_MTurk/v2_DepthDuration_HTML.html#122,122,1364,625,1364,768,8-29-2022,10-26-9,114,depth_duration_stimuli/000447_2014-06-08_16-15-46_260595134347_rgbf000130-resize_1/000447_2014-06-08_16-15-46_260595134347_rgbf000130-resize_1-target.png,125,4.479,0,3537,124,meters,jsons/VE125_randls_64.json,646731,786770,25,Man
114,494783,DepthScenes,duration_manipulation_targetAtFixation,jsons/VE125_randls_64.json,http://54.235.29.9/FacialAge/BNav_EC2/DepthDuration/v2_depth_duration_MTurk/v2_DepthDuration_HTML.html#122,122,1364,625,1364,768,8-29-2022,10-26-9,115,depth_duration_stimuli/001447_2014-06-19_17-00-32_260595134347_rgbf000082-resize_5/001447_2014-06-19_17-00-32_260595134347_rgbf000082-resize_5-target.png,125,4.13775,0,3386,127,meters,jsons/VE125_randls_64.json,646731,786770,25,Man
115,494783,DepthScenes,duration_manipulation_targetAtFixation,jsons/VE125_randls_64.json,http://54.235.29.9/FacialAge/BNav_EC2/DepthDuration/v2_depth_duration_MTurk/v2_DepthDuration_HTML.html#122,122,1364,625,1364,768,8-29-2022,10-26-9,116,depth_duration_stimuli/001170_2014-06-17_15-43-44_260595134347_rgbf000096-resize_6/001170_2014-06-17_15-43-44_260595134347_rgbf000096-resize-original.jpg,125,1.1909999999999998,0,3414,108,meters,jsons/VE125_randls_64.json,646731,786770,25,Man
116,494783,DepthScenes,duration_manipulation_targetAtFixation,jsons/VE125_randls_64.json,http://54.235.29.9/FacialAge/BNav_EC2/DepthDuration/v2_depth_duration_MTurk/v2_DepthDuration_HTML.html#122,122,1364,625,1364,768,8-29-2022,10-26-9,117,depth_duration_stimuli/002118_2014-06-25_20-32-08_260595134347_rgbf000078-resize_1/002118_2014-06-25_20-32-08_260595134347_rgbf000078-resize_1-target.png,125,2.6460000000000004,0,3455,141,meters,jsons/VE125_randls_64.json,646731,786770,25,Man
117,494783,DepthScenes,duration_manipulation_targetAtFixation,jsons/VE125_randls_64.json,http://54.235.29.9/FacialAge/BNav_EC2/DepthDuration/v2_depth_duration_MTurk/v2_DepthDuration_HTML.html#122,122,1364,625,1364,768,8-29-2022,10-26-9,118,depth_duration_stimuli/001516_2014-06-20_16-25-09_260595134347_rgbf000076-resize_2/001516_2014-06-20_16-25-09_260595134347_rgbf000076-resize_2-target.png,125,1.7445,1,3346,117,meters,jsons/VE125_randls_64.json,646731,786770,25,Man
118,494783,DepthScenes,duration_manipulation_targetAtFixation,jsons/VE125_randls_64.json,http://54.235.29.9/FacialAge/BNav_EC2/DepthDuration/v2_depth_duration_MTurk/v2_DepthDuration_HTML.html#122,122,1364,625,1364,768,8-29-2022,10-26-9,119,depth_duration_stimuli/001110_2014-06-15_17-25-28_260595134347_rgbf000150-resize_1/001110_2014-06-15_17-25-28_260595134347_rgbf000150-resize_1-target.png,125,1.7115,1,2421,120,meters,jsons/VE125_randls_64.json,646731,786770,25,Man
119,494783,DepthScenes,duration_manipulation_targetAtFixation,jsons/VE125_randls_64.json,http://54.235.29.9/FacialAge/BNav_EC2/DepthDuration/v2_depth_duration_MTurk/v2_DepthDuration_HTML.html#122,122,1364,625,1364,768,8-29-2022,10-26-9,120,depth_duration_stimuli/000927_2014-06-09_16-32-30_260595134347_rgbf000123-resize_3/000927_2014-06-09_16-32-30_260595134347_rgbf000123-resize_3-target.png,125,2.6785,0,4040,97,meters,jsons/VE125_randls_64.json,646731,786770,25,Man
120,494783,DepthScenes,duration_manipulation_targetAtFixation,jsons/VE125_randls_64.json,http://54.235.29.9/FacialAge/BNav_EC2/DepthDuration/v2_depth_duration_MTurk/v2_DepthDuration_HTML.html#122,122,1364,625,1364,768,8-29-2022,10-26-9,121,depth_duration_stimuli/003292_2014-05-14_21-53-49_094959634447_rgbf000100-resize_2/003292_2014-05-14_21-53-49_094959634447_rgbf000100-resize_2-target.png,125,3.4815,1,2277,118,meters,jsons/VE125_randls_64.json,646731,786770,25,Man
121,494783,DepthScenes,duration_manipulation_targetAtFixation,jsons/VE125_randls_64.json,http://54.235.29.9/FacialAge/BNav_EC2/DepthDuration/v2_depth_duration_MTurk/v2_DepthDuration_HTML.html#122,122,1364,625,1364,768,8-29-2022,10-26-9,122,depth_duration_stimuli/002639_2014-06-24_14-51-37_094959634447_rgbf000074-resize_4/002639_2014-06-24_14-51-37_094959634447_rgbf000074-resize_4-target.png,125,4.0375,1,2269,124,meters,jsons/VE125_randls_64.json,646731,786770,25,Man
122,494783,DepthScenes,duration_manipulation_targetAtFixation,jsons/VE125_randls_64.json,http://54.235.29.9/FacialAge/BNav_EC2/DepthDuration/v2_depth_duration_MTurk/v2_DepthDuration_HTML.html#122,122,1364,625,1364,768,8-29-2022,10-26-9,123,depth_duration_stimuli/000414_2014-06-04_19-49-13_260595134347_rgbf000044-resize_0/000414_2014-06-04_19-49-13_260595134347_rgbf000044-resize_0-target.png,125,4.329,0,3309,125,meters,jsons/VE125_randls_64.json,646731,786770,25,Man
123,494783,DepthScenes,duration_manipulation_targetAtFixation,jsons/VE125_randls_64.json,http://54.235.29.9/FacialAge/BNav_EC2/DepthDuration/v2_depth_duration_MTurk/v2_DepthDuration_HTML.html#122,122,1364,625,1364,768,8-29-2022,10-26-9,124,depth_duration_stimuli/003129_2014-05-12_10-48-10_094959634447_rgbf000100-resize_0/003129_2014-05-12_10-48-10_094959634447_rgbf000100-resize_0-target.png,125,4.9305,0,4144,122,meters,jsons/VE125_randls_64.json,646731,786770,25,Man
124,494783,DepthScenes,duration_manipulation_targetAtFixation,jsons/VE125_randls_64.json,http://54.235.29.9/FacialAge/BNav_EC2/DepthDuration/v2_depth_duration_MTurk/v2_DepthDuration_HTML.html#122,122,1364,625,1364,768,8-29-2022,10-26-9,125,depth_duration_stimuli/002057_2014-06-24_21-00-13_260595134347_rgbf000120-resize_1/002057_2014-06-24_21-00-13_260595134347_rgbf000120-resize_1-target.png,125,2.967,0,13611,108,meters,jsons/VE125_randls_64.json,646731,786770,25,Man
125,494783,DepthScenes,duration_manipulation_targetAtFixation,jsons/VE125_randls_64.json,http://54.235.29.9/FacialAge/BNav_EC2/DepthDuration/v2_depth_duration_MTurk/v2_DepthDuration_HTML.html#122,122,1364,625,1364,768,8-29-2022,10-26-9,126,depth_duration_stimuli/000709_2014-06-08_13-51-55_260595134347_rgbf000068-resize_3/000709_2014-06-08_13-51-55_260595134347_rgbf000068-resize_3-target.png,125,1.8030000000000002,0,4079,122,meters,jsons/VE125_randls_64.json,646731,786770,25,Man
126,494783,DepthScenes,duration_manipulation_targetAtFixation,jsons/VE125_randls_64.json,http://54.235.29.9/FacialAge/BNav_EC2/DepthDuration/v2_depth_duration_MTurk/v2_DepthDuration_HTML.html#122,122,1364,625,1364,768,8-29-2022,10-26-9,127,depth_duration_stimuli/000906_2014-06-08_13-35-43_260595134347_rgbf000155-resize_1/000906_2014-06-08_13-35-43_260595134347_rgbf000155-resize_1-target.png,125,2.8489999999999998,0,3429,119,meters,jsons/VE125_randls_64.json,646731,786770,25,Man
127,494783,DepthScenes,duration_manipulation_targetAtFixation,jsons/VE125_randls_64.json,http://54.235.29.9/FacialAge/BNav_EC2/DepthDuration/v2_depth_duration_MTurk/v2_DepthDuration_HTML.html#122,122,1364,625,1364,768,8-29-2022,10-26-9,128,depth_duration_stimuli/002805_2014-06-22_19-54-03_094959634447_rgbf000079-resize_1/002805_2014-06-22_19-54-03_094959634447_rgbf000079-resize_1-target.png,125,3.1439999999999997,1,4400,125,meters,jsons/VE125_randls_64.json,646731,786770,25,Man
128,494783,DepthScenes,duration_manipulation_targetAtFixation,jsons/VE125_randls_64.json,http://54.235.29.9/FacialAge/BNav_EC2/DepthDuration/v2_depth_duration_MTurk/v2_DepthDuration_HTML.html#122,122,1364,625,1364,768,8-29-2022,10-26-9,129,depth_duration_stimuli/002600_2014-06-24_14-27-04_094959634447_rgbf000074-resize_2/002600_2014-06-24_14-27-04_094959634447_rgbf000074-resize_2-target.png,125,2.7575,1,4321,123,meters,jsons/VE125_randls_64.json,646731,786770,25,Man
129,494783,DepthScenes,duration_manipulation_targetAtFixation,jsons/VE125_randls_64.json,http://54.235.29.9/FacialAge/BNav_EC2/DepthDuration/v2_depth_duration_MTurk/v2_DepthDuration_HTML.html#122,122,1364,625,1364,768,8-29-2022,10-26-9,130,depth_duration_stimuli/003228_2014-05-14_13-42-35_094959634447_rgbf000101-resize_1/003228_2014-05-14_13-42-35_094959634447_rgbf000101-resize_1-target.png,125,1.9680000000000002,0,4747,100,meters,jsons/VE125_randls_64.json,646731,786770,25,Man
130,494783,DepthScenes,duration_manipulation_targetAtFixation,jsons/VE125_randls_64.json,http://54.235.29.9/FacialAge/BNav_EC2/DepthDuration/v2_depth_duration_MTurk/v2_DepthDuration_HTML.html#122,122,1364,625,1364,768,8-29-2022,10-26-9,131,depth_duration_stimuli/001150_2014-06-17_15-27-34_260595134347_rgbf000108-resize_2/001150_2014-06-17_15-27-34_260595134347_rgbf000108-resize_2-target.png,125,4.0325,0,3221,126,meters,jsons/VE125_randls_64.json,646731,786770,25,Man
131,494783,DepthScenes,duration_manipulation_targetAtFixation,jsons/VE125_randls_64.json,http://54.235.29.9/FacialAge/BNav_EC2/DepthDuration/v2_depth_duration_MTurk/v2_DepthDuration_HTML.html#122,122,1364,625,1364,768,8-29-2022,10-26-9,132,depth_duration_stimuli/000665_2014-06-09_20-42-35_260595134347_rgbf000110-resize_1/000665_2014-06-09_20-42-35_260595134347_rgbf000110-resize_1-target.png,125,3.057,0,3283,124,meters,jsons/VE125_randls_64.json,646731,786770,25,Man
132,494783,DepthScenes,duration_manipulation_targetAtFixation,jsons/VE125_randls_64.json,http://54.235.29.9/FacialAge/BNav_EC2/DepthDuration/v2_depth_duration_MTurk/v2_DepthDuration_HTML.html#122,122,1364,625,1364,768,8-29-2022,10-26-9,133,depth_duration_stimuli/001175_2014-06-17_15-45-55_260595134347_rgbf000129-resize_4/001175_2014-06-17_15-45-55_260595134347_rgbf000129-resize_4-target.png,125,4.255,0,3726,137,meters,jsons/VE125_randls_64.json,646731,786770,25,Man
133,494783,DepthScenes,duration_manipulation_targetAtFixation,jsons/VE125_randls_64.json,http://54.235.29.9/FacialAge/BNav_EC2/DepthDuration/v2_depth_duration_MTurk/v2_DepthDuration_HTML.html#122,122,1364,625,1364,768,8-29-2022,10-26-9,134,depth_duration_stimuli/003490_2014-05-21_15-50-11_094959634447_rgbf000101-resize_3/003490_2014-05-21_15-50-11_094959634447_rgbf000101-resize_3-target.png,125,3.6445,0,5487,128,meters,jsons/VE125_randls_64.json,646731,786770,25,Man
134,494783,DepthScenes,duration_manipulation_targetAtFixation,jsons/VE125_randls_64.json,http://54.235.29.9/FacialAge/BNav_EC2/DepthDuration/v2_depth_duration_MTurk/v2_DepthDuration_HTML.html#122,122,1364,625,1364,768,8-29-2022,10-26-9,135,depth_duration_stimuli/002072_2014-06-24_21-48-06_260595134347_rgbf000115-resize_0/002072_2014-06-24_21-48-06_260595134347_rgbf000115-resize-original.jpg,125,4.702,0,4210,120,meters,jsons/VE125_randls_64.json,646731,786770,25,Man
135,494783,DepthScenes,duration_manipulation_targetAtFixation,jsons/VE125_randls_64.json,http://54.235.29.9/FacialAge/BNav_EC2/DepthDuration/v2_depth_duration_MTurk/v2_DepthDuration_HTML.html#122,122,1364,625,1364,768,8-29-2022,10-26-9,136,depth_duration_stimuli/000773_2014-06-08_22-24-54_260595134347_rgbf000093-resize_1/000773_2014-06-08_22-24-54_260595134347_rgbf000093-resize_1-target.png,125,4.973,0,3300,131,meters,jsons/VE125_randls_64.json,646731,786770,25,Man
136,494783,DepthScenes,duration_manipulation_targetAtFixation,jsons/VE125_randls_64.json,http://54.235.29.9/FacialAge/BNav_EC2/DepthDuration/v2_depth_duration_MTurk/v2_DepthDuration_HTML.html#122,122,1364,625,1364,768,8-29-2022,10-26-9,137,depth_duration_stimuli/002414_2014-06-28_20-24-58_260595134347_rgbf000067-resize_4/002414_2014-06-28_20-24-58_260595134347_rgbf000067-resize_4-target.png,125,4.363,0,3507,110,meters,jsons/VE125_randls_64.json,646731,786770,25,Man
137,494783,DepthScenes,duration_manipulation_targetAtFixation,jsons/VE125_randls_64.json,http://54.235.29.9/FacialAge/BNav_EC2/DepthDuration/v2_depth_duration_MTurk/v2_DepthDuration_HTML.html#122,122,1364,625,1364,768,8-29-2022,10-26-9,138,depth_duration_stimuli/002375_2014-06-28_20-13-44_260595134347_rgbf000032-resize_1/002375_2014-06-28_20-13-44_260595134347_rgbf000032-resize_1-target.png,125,4.0175,1,4836,116,meters,jsons/VE125_randls_64.json,646731,786770,25,Man
138,494783,DepthScenes,duration_manipulation_targetAtFixation,jsons/VE125_randls_64.json,http://54.235.29.9/FacialAge/BNav_EC2/DepthDuration/v2_depth_duration_MTurk/v2_DepthDuration_HTML.html#122,122,1364,625,1364,768,8-29-2022,10-26-9,139,depth_duration_stimuli/002657_2014-06-13_15-29-54_094959634447_rgbf000150-resize_1/002657_2014-06-13_15-29-54_094959634447_rgbf000150-resize_1-target.png,125,4.919,0,3390,125,meters,jsons/VE125_randls_64.json,646731,786770,25,Man
139,494783,DepthScenes,duration_manipulation_targetAtFixation,jsons/VE125_randls_64.json,http://54.235.29.9/FacialAge/BNav_EC2/DepthDuration/v2_depth_duration_MTurk/v2_DepthDuration_HTML.html#122,122,1364,625,1364,768,8-29-2022,10-26-9,140,depth_duration_stimuli/001059_2014-06-08_21-53-27_260595134347_rgbf000061-resize_4/001059_2014-06-08_21-53-27_260595134347_rgbf000061-resize_4-target.png,125,2.4185,1,3183,118,meters,jsons/VE125_randls_64.json,646731,786770,25,Man
140,494783,DepthScenes,duration_manipulation_targetAtFixation,jsons/VE125_randls_64.json,http://54.235.29.9/FacialAge/BNav_EC2/DepthDuration/v2_depth_duration_MTurk/v2_DepthDuration_HTML.html#122,122,1364,625,1364,768,8-29-2022,10-26-9,141,depth_duration_stimuli/001032_2014-06-08_13-23-17_260595134347_rgbf000021-resize_3/001032_2014-06-08_13-23-17_260595134347_rgbf000021-resize_3-target.png,125,3.2725,0,3226,112,meters,jsons/VE125_randls_64.json,646731,786770,25,Man
141,494783,DepthScenes,duration_manipulation_targetAtFixation,jsons/VE125_randls_64.json,http://54.235.29.9/FacialAge/BNav_EC2/DepthDuration/v2_depth_duration_MTurk/v2_DepthDuration_HTML.html#122,122,1364,625,1364,768,8-29-2022,10-26-9,142,depth_duration_stimuli/001011_2014-06-08_23-18-54_260595134347_rgbf000044-resize_4/001011_2014-06-08_23-18-54_260595134347_rgbf000044-resize_4-target.png,125,2.4730000000000003,1,2496,138,meters,jsons/VE125_randls_64.json,646731,786770,25,Man
142,494783,DepthScenes,duration_manipulation_targetAtFixation,jsons/VE125_randls_64.json,http://54.235.29.9/FacialAge/BNav_EC2/DepthDuration/v2_depth_duration_MTurk/v2_DepthDuration_HTML.html#122,122,1364,625,1364,768,8-29-2022,10-26-9,143,depth_duration_stimuli/002875_2014-06-01_15-19-00_094959634447_rgbf000151-resize_1/002875_2014-06-01_15-19-00_094959634447_rgbf000151-resize_1-target.png,125,1.9675,1,2226,124,meters,jsons/VE125_randls_64.json,646731,786770,25,Man
143,494783,DepthScenes,duration_manipulation_targetAtFixation,jsons/VE125_randls_64.json,http://54.235.29.9/FacialAge/BNav_EC2/DepthDuration/v2_depth_duration_MTurk/v2_DepthDuration_HTML.html#122,122,1364,625,1364,768,8-29-2022,10-26-9,144,depth_duration_stimuli/001806_2014-06-26_20-50-20_260595134347_rgbf000091-resize_1/001806_2014-06-26_20-50-20_260595134347_rgbf000091-resize_1-target.png,125,2.7305,1,2333,123,meters,jsons/VE125_randls_64.json,646731,786770,25,Man
144,494783,DepthScenes,duration_manipulation_targetAtFixation,jsons/VE125_randls_64.json,http://54.235.29.9/FacialAge/BNav_EC2/DepthDuration/v2_depth_duration_MTurk/v2_DepthDuration_HTML.html#122,122,1364,625,1364,768,8-29-2022,10-26-9,145,depth_duration_stimuli/001617_2014-06-20_11-35-32_260595134347_rgbf000066-resize_1/001617_2014-06-20_11-35-32_260595134347_rgbf000066-resize_1-target.png,125,3.7910000000000004,1,2543,114,meters,jsons/VE125_randls_64.json,646731,786770,25,Man
145,494783,DepthScenes,duration_manipulation_targetAtFixation,jsons/VE125_randls_64.json,http://54.235.29.9/FacialAge/BNav_EC2/DepthDuration/v2_depth_duration_MTurk/v2_DepthDuration_HTML.html#122,122,1364,625,1364,768,8-29-2022,10-26-9,146,depth_duration_stimuli/001498_2014-06-19_17-45-14_260595134347_rgbf000129-resize_4/001498_2014-06-19_17-45-14_260595134347_rgbf000129-resize-original.jpg,125,1.4075,0,3128,130,meters,jsons/VE125_randls_64.json,646731,786770,25,Man
146,494783,DepthScenes,duration_manipulation_targetAtFixation,jsons/VE125_randls_64.json,http://54.235.29.9/FacialAge/BNav_EC2/DepthDuration/v2_depth_duration_MTurk/v2_DepthDuration_HTML.html#122,122,1364,625,1364,768,8-29-2022,10-26-9,147,depth_duration_stimuli/000469_2014-06-09_19-42-10_260595134347_rgbf000081-resize_1/000469_2014-06-09_19-42-10_260595134347_rgbf000081-resize_1-target.png,125,1.652,1,2406,126,meters,jsons/VE125_randls_64.json,646731,786770,25,Man
147,494783,DepthScenes,duration_manipulation_targetAtFixation,jsons/VE125_randls_64.json,http://54.235.29.9/FacialAge/BNav_EC2/DepthDuration/v2_depth_duration_MTurk/v2_DepthDuration_HTML.html#122,122,1364,625,1364,768,8-29-2022,10-26-9,148,depth_duration_stimuli/000483_2014-06-09_20-41-45_260595134347_rgbf000116-resize_4/000483_2014-06-09_20-41-45_260595134347_rgbf000116-resize_4-target.png,125,1.337,0,3348,144,meters,jsons/VE125_randls_64.json,646731,786770,25,Man
148,494783,DepthScenes,duration_manipulation_targetAtFixation,jsons/VE125_randls_64.json,http://54.235.29.9/FacialAge/BNav_EC2/DepthDuration/v2_depth_duration_MTurk/v2_DepthDuration_HTML.html#122,122,1364,625,1364,768,8-29-2022,10-26-9,149,depth_duration_stimuli/001133_2014-06-17_14-49-16_260595134347_rgbf000100-resize_0/001133_2014-06-17_14-49-16_260595134347_rgbf000100-resize_0-target.png,125,4.2115,1,2612,125,meters,jsons/VE125_randls_64.json,646731,786770,25,Man
149,494783,DepthScenes,duration_manipulation_targetAtFixation,jsons/VE125_randls_64.json,http://54.235.29.9/FacialAge/BNav_EC2/DepthDuration/v2_depth_duration_MTurk/v2_DepthDuration_HTML.html#122,122,1364,625,1364,768,8-29-2022,10-26-9,150,depth_duration_stimuli/001132_2014-06-17_14-48-54_260595134347_rgbf000100-resize_2/001132_2014-06-17_14-48-54_260595134347_rgbf000100-resize_2-target.png,125,3.753,0,3336,128,meters,jsons/VE125_randls_64.json,646731,786770,25,Man
150,494783,DepthScenes,duration_manipulation_targetAtFixation,jsons/VE125_randls_64.json,http://54.235.29.9/FacialAge/BNav_EC2/DepthDuration/v2_depth_duration_MTurk/v2_DepthDuration_HTML.html#122,122,1364,625,1364,768,8-29-2022,10-26-9,151,depth_duration_stimuli/000522_2014-06-08_13-35-06_260595134347_rgbf000244-resize_1/000522_2014-06-08_13-35-06_260595134347_rgbf000244-resize_1-target.png,125,2.3715,1,2465,124,meters,jsons/VE125_randls_64.json,646731,786770,25,Man
151,494783,DepthScenes,duration_manipulation_targetAtFixation,jsons/VE125_randls_64.json,http://54.235.29.9/FacialAge/BNav_EC2/DepthDuration/v2_depth_duration_MTurk/v2_DepthDuration_HTML.html#122,122,1364,625,1364,768,8-29-2022,10-26-9,152,depth_duration_stimuli/002949_2014-06-26_15-57-42_094959634447_rgbf000079-resize_1/002949_2014-06-26_15-57-42_094959634447_rgbf000079-resize_1-target.png,125,1.8915,0,4033,110,meters,jsons/VE125_randls_64.json,646731,786770,25,Man
152,494783,DepthScenes,duration_manipulation_targetAtFixation,jsons/VE125_randls_64.json,http://54.235.29.9/FacialAge/BNav_EC2/DepthDuration/v2_depth_duration_MTurk/v2_DepthDuration_HTML.html#122,122,1364,625,1364,768,8-29-2022,10-26-9,153,depth_duration_stimuli/002549_2014-06-24_13-41-39_094959634447_rgbf000022-resize_3/002549_2014-06-24_13-41-39_094959634447_rgbf000022-resize_3-target.png,125,1.476,1,2430,123,meters,jsons/VE125_randls_64.json,646731,786770,25,Man
153,494783,DepthScenes,duration_manipulation_targetAtFixation,jsons/VE125_randls_64.json,http://54.235.29.9/FacialAge/BNav_EC2/DepthDuration/v2_depth_duration_MTurk/v2_DepthDuration_HTML.html#122,122,1364,625,1364,768,8-29-2022,10-26-9,154,depth_duration_stimuli/002750_2014-06-22_19-08-03_094959634447_rgbf000094-resize_4/002750_2014-06-22_19-08-03_094959634447_rgbf000094-resize_4-target.png,125,2.354,1,2442,133,meters,jsons/VE125_randls_64.json,646731,786770,25,Man
154,494783,DepthScenes,duration_manipulation_targetAtFixation,jsons/VE125_randls_64.json,http://54.235.29.9/FacialAge/BNav_EC2/DepthDuration/v2_depth_duration_MTurk/v2_DepthDuration_HTML.html#122,122,1364,625,1364,768,8-29-2022,10-26-9,155,depth_duration_stimuli/002905_2014-06-03_18-04-43_094959634447_rgbf000151-resize_2/002905_2014-06-03_18-04-43_094959634447_rgbf000151-resize_2-target.png,125,2.0295,1,2525,124,meters,jsons/VE125_randls_64.json,646731,786770,25,Man
155,494783,DepthScenes,duration_manipulation_targetAtFixation,jsons/VE125_randls_64.json,http://54.235.29.9/FacialAge/BNav_EC2/DepthDuration/v2_depth_duration_MTurk/v2_DepthDuration_HTML.html#122,122,1364,625,1364,768,8-29-2022,10-26-9,156,depth_duration_stimuli/003423_2014-05-21_10-23-26_094959634447_rgbf002665-resize_2/003423_2014-05-21_10-23-26_094959634447_rgbf002665-resize_2-target.png,125,3.2575,1,2157,119,meters,jsons/VE125_randls_64.json,646731,786770,25,Man
156,494783,DepthScenes,duration_manipulation_targetAtFixation,jsons/VE125_randls_64.json,http://54.235.29.9/FacialAge/BNav_EC2/DepthDuration/v2_depth_duration_MTurk/v2_DepthDuration_HTML.html#122,122,1364,625,1364,768,8-29-2022,10-26-9,157,depth_duration_stimuli/000436_2014-06-09_22-25-11_260595134347_rgbf000137-resize_1/000436_2014-06-09_22-25-11_260595134347_rgbf000137-resize_1-target.png,125,4.0705,1,2599,116,meters,jsons/VE125_randls_64.json,646731,786770,25,Man
157,494783,DepthScenes,duration_manipulation_targetAtFixation,jsons/VE125_randls_64.json,http://54.235.29.9/FacialAge/BNav_EC2/DepthDuration/v2_depth_duration_MTurk/v2_DepthDuration_HTML.html#122,122,1364,625,1364,768,8-29-2022,10-26-9,158,depth_duration_stimuli/002444_2014-06-28_20-32-08_260595134347_rgbf000027-resize_0/002444_2014-06-28_20-32-08_260595134347_rgbf000027-resize_0-target.png,125,4.388999999999999,0,3812,126,meters,jsons/VE125_randls_64.json,646731,786770,25,Man
158,494783,DepthScenes,duration_manipulation_targetAtFixation,jsons/VE125_randls_64.json,http://54.235.29.9/FacialAge/BNav_EC2/DepthDuration/v2_depth_duration_MTurk/v2_DepthDuration_HTML.html#122,122,1364,625,1364,768,8-29-2022,10-26-9,159,depth_duration_stimuli/003534_2014-05-22_15-06-10_094959634447_rgbf000102-resize_4/003534_2014-05-22_15-06-10_094959634447_rgbf000102-resize_4-target.png,125,1.426,0,3971,122,meters,jsons/VE125_randls_64.json,646731,786770,25,Man
159,494783,DepthScenes,duration_manipulation_targetAtFixation,jsons/VE125_randls_64.json,http://54.235.29.9/FacialAge/BNav_EC2/DepthDuration/v2_depth_duration_MTurk/v2_DepthDuration_HTML.html#122,122,1364,625,1364,768,8-29-2022,10-26-9,160,depth_duration_stimuli/002637_2014-06-24_14-51-13_094959634447_rgbf000066-resize_4/002637_2014-06-24_14-51-13_094959634447_rgbf000066-resize_4-target.png,125,1.9955,0,3269,159,meters,jsons/VE125_randls_64.json,646731,786770,25,Man
160,494783,DepthScenes,duration_manipulation_targetAtFixation,jsons/VE125_randls_64.json,http://54.235.29.9/FacialAge/BNav_EC2/DepthDuration/v2_depth_duration_MTurk/v2_DepthDuration_HTML.html#122,122,1364,625,1364,768,8-29-2022,10-26-9,161,depth_duration_stimuli/001158_2014-06-17_15-32-16_260595134347_rgbf000138-resize_2/001158_2014-06-17_15-32-16_260595134347_rgbf000138-resize_2-target.png,125,4.5315,1,3475,137,meters,jsons/VE125_randls_64.json,646731,786770,25,Man
161,494783,DepthScenes,duration_manipulation_targetAtFixation,jsons/VE125_randls_64.json,http://54.235.29.9/FacialAge/BNav_EC2/DepthDuration/v2_depth_duration_MTurk/v2_DepthDuration_HTML.html#122,122,1364,625,1364,768,8-29-2022,10-26-9,162,depth_duration_stimuli/000556_2014-06-09_22-42-56_260595134347_rgbf000214-resize_1/000556_2014-06-09_22-42-56_260595134347_rgbf000214-resize_1-target.png,125,4.8415,0,3303,125,meters,jsons/VE125_randls_64.json,646731,786770,25,Man
162,494783,DepthScenes,duration_manipulation_targetAtFixation,jsons/VE125_randls_64.json,http://54.235.29.9/FacialAge/BNav_EC2/DepthDuration/v2_depth_duration_MTurk/v2_DepthDuration_HTML.html#122,122,1364,625,1364,768,8-29-2022,10-26-9,163,depth_duration_stimuli/002630_2014-06-24_14-47-50_094959634447_rgbf000055-resize_1/002630_2014-06-24_14-47-50_094959634447_rgbf000055-resize_1-target.png,125,3.0095,0,3232,124,meters,jsons/VE125_randls_64.json,646731,786770,25,Man
163,494783,DepthScenes,duration_manipulation_targetAtFixation,jsons/VE125_randls_64.json,http://54.235.29.9/FacialAge/BNav_EC2/DepthDuration/v2_depth_duration_MTurk/v2_DepthDuration_HTML.html#122,122,1364,625,1364,768,8-29-2022,10-26-9,164,depth_duration_stimuli/002758_2014-06-22_19-11-20_094959634447_rgbf000128-resize_1/002758_2014-06-22_19-11-20_094959634447_rgbf000128-resize_1-target.png,125,2.555,0,3274,125,meters,jsons/VE125_randls_64.json,646731,786770,25,Man
