,subjID,experimentName,versionName,sequenceName,url,selected_row,windowWidth,windowHeight,screenWidth,screenHeight,startDate,startTime,trial,stimulus,duration,actual_depth,depth_estimate,trial_RT,log_sceneDuration,unitSelection,seq_filepath,experimentTime,totalTime,age,gender
0,495166,DepthScenes,duration_manipulation_targetAtFixation,jsons/v1_VE250_randls_29_rotated.json,http://54.235.29.9/FacialAge/BNav_EC2/DepthDuration/v2_depth_duration_MTurk/v2_DepthDuration_HTML.html#230,230,1366,625,1366,768,8-30-2022,7-8-12,1,depth_duration_stimuli/001815_2014-06-26_20-52-55_260595134347_rgbf000020-resize_0/001815_2014-06-26_20-52-55_260595134347_rgbf000020-resize_0-target.png,250,3.3865,0,2065,252,meters,jsons/v1_VE250_randls_29_rotated.json,368602,473628,38,Woman
1,495166,DepthScenes,duration_manipulation_targetAtFixation,jsons/v1_VE250_randls_29_rotated.json,http://54.235.29.9/FacialAge/BNav_EC2/DepthDuration/v2_depth_duration_MTurk/v2_DepthDuration_HTML.html#230,230,1366,625,1366,768,8-30-2022,7-8-12,2,depth_duration_stimuli/001808_2014-06-26_20-50-58_260595134347_rgbf000029-resize_1/001808_2014-06-26_20-50-58_260595134347_rgbf000029-resize_1-target.png,250,4.249,0,1425,244,meters,jsons/v1_VE250_randls_29_rotated.json,368602,473628,38,Woman
2,495166,DepthScenes,duration_manipulation_targetAtFixation,jsons/v1_VE250_randls_29_rotated.json,http://54.235.29.9/FacialAge/BNav_EC2/DepthDuration/v2_depth_duration_MTurk/v2_DepthDuration_HTML.html#230,230,1366,625,1366,768,8-30-2022,7-8-12,3,depth_duration_stimuli/001235_2014-06-17_16-37-36_260595134347_rgbf000084-resize_4/001235_2014-06-17_16-37-36_260595134347_rgbf000084-resize_4-target.png,250,3.6605,0,1442,243,meters,jsons/v1_VE250_randls_29_rotated.json,368602,473628,38,Woman
3,495166,DepthScenes,duration_manipulation_targetAtFixation,jsons/v1_VE250_randls_29_rotated.json,http://54.235.29.9/FacialAge/BNav_EC2/DepthDuration/v2_depth_duration_MTurk/v2_DepthDuration_HTML.html#230,230,1366,625,1366,768,8-30-2022,7-8-12,4,depth_duration_stimuli/000788_2014-06-08_22-34-36_260595134347_rgbf000131-resize_1/000788_2014-06-08_22-34-36_260595134347_rgbf000131-resize_1-target.png,250,3.359,0,3161,244,meters,jsons/v1_VE250_randls_29_rotated.json,368602,473628,38,Woman
4,495166,DepthScenes,duration_manipulation_targetAtFixation,jsons/v1_VE250_randls_29_rotated.json,http://54.235.29.9/FacialAge/BNav_EC2/DepthDuration/v2_depth_duration_MTurk/v2_DepthDuration_HTML.html#230,230,1366,625,1366,768,8-30-2022,7-8-12,5,depth_duration_stimuli/000665_2014-06-09_20-42-35_260595134347_rgbf000110-resize_1/000665_2014-06-09_20-42-35_260595134347_rgbf000110-resize_1-target.png,250,3.057,0,1372,244,meters,jsons/v1_VE250_randls_29_rotated.json,368602,473628,38,Woman
5,495166,DepthScenes,duration_manipulation_targetAtFixation,jsons/v1_VE250_randls_29_rotated.json,http://54.235.29.9/FacialAge/BNav_EC2/DepthDuration/v2_depth_duration_MTurk/v2_DepthDuration_HTML.html#230,230,1366,625,1366,768,8-30-2022,7-8-12,6,depth_duration_stimuli/001150_2014-06-17_15-27-34_260595134347_rgbf000108-resize_2/001150_2014-06-17_15-27-34_260595134347_rgbf000108-resize_2-target.png,250,4.0325,0,1400,250,meters,jsons/v1_VE250_randls_29_rotated.json,368602,473628,38,Woman
6,495166,DepthScenes,duration_manipulation_targetAtFixation,jsons/v1_VE250_randls_29_rotated.json,http://54.235.29.9/FacialAge/BNav_EC2/DepthDuration/v2_depth_duration_MTurk/v2_DepthDuration_HTML.html#230,230,1366,625,1366,768,8-30-2022,7-8-12,7,depth_duration_stimuli/002875_2014-06-01_15-19-00_094959634447_rgbf000151-resize_1/002875_2014-06-01_15-19-00_094959634447_rgbf000151-resize_1-target.png,250,1.9675,0,1468,247,meters,jsons/v1_VE250_randls_29_rotated.json,368602,473628,38,Woman
7,495166,DepthScenes,duration_manipulation_targetAtFixation,jsons/v1_VE250_randls_29_rotated.json,http://54.235.29.9/FacialAge/BNav_EC2/DepthDuration/v2_depth_duration_MTurk/v2_DepthDuration_HTML.html#230,230,1366,625,1366,768,8-30-2022,7-8-12,8,depth_duration_stimuli/001011_2014-06-08_23-18-54_260595134347_rgbf000044-resize_4/001011_2014-06-08_23-18-54_260595134347_rgbf000044-resize_4-target.png,250,2.4730000000000003,0,1452,243,meters,jsons/v1_VE250_randls_29_rotated.json,368602,473628,38,Woman
8,495166,DepthScenes,duration_manipulation_targetAtFixation,jsons/v1_VE250_randls_29_rotated.json,http://54.235.29.9/FacialAge/BNav_EC2/DepthDuration/v2_depth_duration_MTurk/v2_DepthDuration_HTML.html#230,230,1366,625,1366,768,8-30-2022,7-8-12,9,depth_duration_stimuli/002340_2014-06-28_20-05-46_260595134347_rgbf000113-resize_0/002340_2014-06-28_20-05-46_260595134347_rgbf000113-resize_0-target.png,250,2.4735,0,1398,242,meters,jsons/v1_VE250_randls_29_rotated.json,368602,473628,38,Woman
9,495166,DepthScenes,duration_manipulation_targetAtFixation,jsons/v1_VE250_randls_29_rotated.json,http://54.235.29.9/FacialAge/BNav_EC2/DepthDuration/v2_depth_duration_MTurk/v2_DepthDuration_HTML.html#230,230,1366,625,1366,768,8-30-2022,7-8-12,10,depth_duration_stimuli/001016_2014-06-09_16-16-10_260595134347_rgbf000112-resize_5/001016_2014-06-09_16-16-10_260595134347_rgbf000112-resize_5-target.png,250,1.6565,0,1428,242,meters,jsons/v1_VE250_randls_29_rotated.json,368602,473628,38,Woman
10,495166,DepthScenes,duration_manipulation_targetAtFixation,jsons/v1_VE250_randls_29_rotated.json,http://54.235.29.9/FacialAge/BNav_EC2/DepthDuration/v2_depth_duration_MTurk/v2_DepthDuration_HTML.html#230,230,1366,625,1366,768,8-30-2022,7-8-12,11,depth_duration_stimuli/000109_2014-05-14_23-41-52_260595134347_rgbf000035-resize_9/000109_2014-05-14_23-41-52_260595134347_rgbf000035-resize_9-target.png,250,1.3545,0,1458,245,meters,jsons/v1_VE250_randls_29_rotated.json,368602,473628,38,Woman
11,495166,DepthScenes,duration_manipulation_targetAtFixation,jsons/v1_VE250_randls_29_rotated.json,http://54.235.29.9/FacialAge/BNav_EC2/DepthDuration/v2_depth_duration_MTurk/v2_DepthDuration_HTML.html#230,230,1366,625,1366,768,8-30-2022,7-8-12,12,depth_duration_stimuli/000470_2014-06-09_19-42-40_260595134347_rgbf000094-resize_1/000470_2014-06-09_19-42-40_260595134347_rgbf000094-resize_1-target.png,250,1.831,0,1433,242,meters,jsons/v1_VE250_randls_29_rotated.json,368602,473628,38,Woman
12,495166,DepthScenes,duration_manipulation_targetAtFixation,jsons/v1_VE250_randls_29_rotated.json,http://54.235.29.9/FacialAge/BNav_EC2/DepthDuration/v2_depth_duration_MTurk/v2_DepthDuration_HTML.html#230,230,1366,625,1366,768,8-30-2022,7-8-12,13,depth_duration_stimuli/001214_2014-06-17_16-13-55_260595134347_rgbf000111-resize_0/001214_2014-06-17_16-13-55_260595134347_rgbf000111-resize_0-target.png,250,2.6505,0,1408,242,meters,jsons/v1_VE250_randls_29_rotated.json,368602,473628,38,Woman
13,495166,DepthScenes,duration_manipulation_targetAtFixation,jsons/v1_VE250_randls_29_rotated.json,http://54.235.29.9/FacialAge/BNav_EC2/DepthDuration/v2_depth_duration_MTurk/v2_DepthDuration_HTML.html#230,230,1366,625,1366,768,8-30-2022,7-8-12,14,depth_duration_stimuli/000810_2014-06-08_17-20-01_260595134347_rgbf000105-resize_0/000810_2014-06-08_17-20-01_260595134347_rgbf000105-resize_0-target.png,250,1.4865,0,1507,244,meters,jsons/v1_VE250_randls_29_rotated.json,368602,473628,38,Woman
14,495166,DepthScenes,duration_manipulation_targetAtFixation,jsons/v1_VE250_randls_29_rotated.json,http://54.235.29.9/FacialAge/BNav_EC2/DepthDuration/v2_depth_duration_MTurk/v2_DepthDuration_HTML.html#230,230,1366,625,1366,768,8-30-2022,7-8-12,15,depth_duration_stimuli/002209_2014-06-28_18-36-10_260595134347_rgbf000051-resize_1/002209_2014-06-28_18-36-10_260595134347_rgbf000051-resize_1-target.png,250,2.057,0,1467,246,meters,jsons/v1_VE250_randls_29_rotated.json,368602,473628,38,Woman
15,495166,DepthScenes,duration_manipulation_targetAtFixation,jsons/v1_VE250_randls_29_rotated.json,http://54.235.29.9/FacialAge/BNav_EC2/DepthDuration/v2_depth_duration_MTurk/v2_DepthDuration_HTML.html#230,230,1366,625,1366,768,8-30-2022,7-8-12,16,depth_duration_stimuli/002763_2014-06-22_19-13-10_094959634447_rgbf000075-resize_4/002763_2014-06-22_19-13-10_094959634447_rgbf000075-resize_4-target.png,250,1.68375,0,1434,227,meters,jsons/v1_VE250_randls_29_rotated.json,368602,473628,38,Woman
16,495166,DepthScenes,duration_manipulation_targetAtFixation,jsons/v1_VE250_randls_29_rotated.json,http://54.235.29.9/FacialAge/BNav_EC2/DepthDuration/v2_depth_duration_MTurk/v2_DepthDuration_HTML.html#230,230,1366,625,1366,768,8-30-2022,7-8-12,17,depth_duration_stimuli/002660_2014-06-13_15-44-18_094959634447_rgbf001878-resize_2/002660_2014-06-13_15-44-18_094959634447_rgbf001878-resize_2-target.png,250,3.576,0,1405,249,meters,jsons/v1_VE250_randls_29_rotated.json,368602,473628,38,Woman
17,495166,DepthScenes,duration_manipulation_targetAtFixation,jsons/v1_VE250_randls_29_rotated.json,http://54.235.29.9/FacialAge/BNav_EC2/DepthDuration/v2_depth_duration_MTurk/v2_DepthDuration_HTML.html#230,230,1366,625,1366,768,8-30-2022,7-8-12,18,depth_duration_stimuli/002153_2014-06-25_21-27-18_260595134347_rgbf000038-resize_5/002153_2014-06-25_21-27-18_260595134347_rgbf000038-resize_5-target.png,250,2.505,0,1443,253,meters,jsons/v1_VE250_randls_29_rotated.json,368602,473628,38,Woman
18,495166,DepthScenes,duration_manipulation_targetAtFixation,jsons/v1_VE250_randls_29_rotated.json,http://54.235.29.9/FacialAge/BNav_EC2/DepthDuration/v2_depth_duration_MTurk/v2_DepthDuration_HTML.html#230,230,1366,625,1366,768,8-30-2022,7-8-12,19,depth_duration_stimuli/001498_2014-06-19_17-45-14_260595134347_rgbf000129-resize_4/001498_2014-06-19_17-45-14_260595134347_rgbf000129-resize-original.jpg,250,1.4075,0,1359,252,meters,jsons/v1_VE250_randls_29_rotated.json,368602,473628,38,Woman
19,495166,DepthScenes,duration_manipulation_targetAtFixation,jsons/v1_VE250_randls_29_rotated.json,http://54.235.29.9/FacialAge/BNav_EC2/DepthDuration/v2_depth_duration_MTurk/v2_DepthDuration_HTML.html#230,230,1366,625,1366,768,8-30-2022,7-8-12,20,depth_duration_stimuli/001571_2014-06-20_17-21-32_260595134347_rgbf000089-resize_1/001571_2014-06-20_17-21-32_260595134347_rgbf000089-resize_1-target.png,250,1.86,0,1505,241,meters,jsons/v1_VE250_randls_29_rotated.json,368602,473628,38,Woman
20,495166,DepthScenes,duration_manipulation_targetAtFixation,jsons/v1_VE250_randls_29_rotated.json,http://54.235.29.9/FacialAge/BNav_EC2/DepthDuration/v2_depth_duration_MTurk/v2_DepthDuration_HTML.html#230,230,1366,625,1366,768,8-30-2022,7-8-12,21,depth_duration_stimuli/002272_2014-06-28_18-53-56_260595134347_rgbf000067-resize_2/002272_2014-06-28_18-53-56_260595134347_rgbf000067-resize_2-target.png,250,1.138,0,1475,242,meters,jsons/v1_VE250_randls_29_rotated.json,368602,473628,38,Woman
21,495166,DepthScenes,duration_manipulation_targetAtFixation,jsons/v1_VE250_randls_29_rotated.json,http://54.235.29.9/FacialAge/BNav_EC2/DepthDuration/v2_depth_duration_MTurk/v2_DepthDuration_HTML.html#230,230,1366,625,1366,768,8-30-2022,7-8-12,22,depth_duration_stimuli/001828_2014-06-26_21-40-03_260595134347_rgbf000024-resize_0/001828_2014-06-26_21-40-03_260595134347_rgbf000024-resize_0-target.png,250,4.8260000000000005,0,1387,245,meters,jsons/v1_VE250_randls_29_rotated.json,368602,473628,38,Woman
22,495166,DepthScenes,duration_manipulation_targetAtFixation,jsons/v1_VE250_randls_29_rotated.json,http://54.235.29.9/FacialAge/BNav_EC2/DepthDuration/v2_depth_duration_MTurk/v2_DepthDuration_HTML.html#230,230,1366,625,1366,768,8-30-2022,7-8-12,23,depth_duration_stimuli/000009_2014-05-26_14-32-05_260595134347_rgbf000034-resize_3/000009_2014-05-26_14-32-05_260595134347_rgbf000034-resize_3-target.png,250,3.8715,0,1426,244,meters,jsons/v1_VE250_randls_29_rotated.json,368602,473628,38,Woman
23,495166,DepthScenes,duration_manipulation_targetAtFixation,jsons/v1_VE250_randls_29_rotated.json,http://54.235.29.9/FacialAge/BNav_EC2/DepthDuration/v2_depth_duration_MTurk/v2_DepthDuration_HTML.html#230,230,1366,625,1366,768,8-30-2022,7-8-12,24,depth_duration_stimuli/002425_2014-06-28_20-27-29_260595134347_rgbf000031-resize_8/002425_2014-06-28_20-27-29_260595134347_rgbf000031-resize_8-target.png,250,3.8960000000000004,0,1407,224,meters,jsons/v1_VE250_randls_29_rotated.json,368602,473628,38,Woman
24,495166,DepthScenes,duration_manipulation_targetAtFixation,jsons/v1_VE250_randls_29_rotated.json,http://54.235.29.9/FacialAge/BNav_EC2/DepthDuration/v2_depth_duration_MTurk/v2_DepthDuration_HTML.html#230,230,1366,625,1366,768,8-30-2022,7-8-12,25,depth_duration_stimuli/000642_2014-06-08_16-59-25_260595134347_rgbf000098-resize_2/000642_2014-06-08_16-59-25_260595134347_rgbf000098-resize_2-target.png,250,2.8815,0,1377,244,meters,jsons/v1_VE250_randls_29_rotated.json,368602,473628,38,Woman
25,495166,DepthScenes,duration_manipulation_targetAtFixation,jsons/v1_VE250_randls_29_rotated.json,http://54.235.29.9/FacialAge/BNav_EC2/DepthDuration/v2_depth_duration_MTurk/v2_DepthDuration_HTML.html#230,230,1366,625,1366,768,8-30-2022,7-8-12,26,depth_duration_stimuli/000927_2014-06-09_16-32-30_260595134347_rgbf000123-resize_3/000927_2014-06-09_16-32-30_260595134347_rgbf000123-resize_3-target.png,250,2.6785,0,1520,242,meters,jsons/v1_VE250_randls_29_rotated.json,368602,473628,38,Woman
26,495166,DepthScenes,duration_manipulation_targetAtFixation,jsons/v1_VE250_randls_29_rotated.json,http://54.235.29.9/FacialAge/BNav_EC2/DepthDuration/v2_depth_duration_MTurk/v2_DepthDuration_HTML.html#230,230,1366,625,1366,768,8-30-2022,7-8-12,27,depth_duration_stimuli/001110_2014-06-15_17-25-28_260595134347_rgbf000150-resize_1/001110_2014-06-15_17-25-28_260595134347_rgbf000150-resize_1-target.png,250,1.7115,0,1463,254,meters,jsons/v1_VE250_randls_29_rotated.json,368602,473628,38,Woman
27,495166,DepthScenes,duration_manipulation_targetAtFixation,jsons/v1_VE250_randls_29_rotated.json,http://54.235.29.9/FacialAge/BNav_EC2/DepthDuration/v2_depth_duration_MTurk/v2_DepthDuration_HTML.html#230,230,1366,625,1366,768,8-30-2022,7-8-12,28,depth_duration_stimuli/002953_2014-06-08_17-32-18_094959634447_rgbf000059-resize_5/002953_2014-06-08_17-32-18_094959634447_rgbf000059-resize_5-target.png,250,1.551,0,1467,233,meters,jsons/v1_VE250_randls_29_rotated.json,368602,473628,38,Woman
28,495166,DepthScenes,duration_manipulation_targetAtFixation,jsons/v1_VE250_randls_29_rotated.json,http://54.235.29.9/FacialAge/BNav_EC2/DepthDuration/v2_depth_duration_MTurk/v2_DepthDuration_HTML.html#230,230,1366,625,1366,768,8-30-2022,7-8-12,29,depth_duration_stimuli/000878_2014-06-08_22-52-45_260595134347_rgbf000045-resize_2/000878_2014-06-08_22-52-45_260595134347_rgbf000045-resize_2-target.png,250,2.092,0,1489,245,meters,jsons/v1_VE250_randls_29_rotated.json,368602,473628,38,Woman
29,495166,DepthScenes,duration_manipulation_targetAtFixation,jsons/v1_VE250_randls_29_rotated.json,http://54.235.29.9/FacialAge/BNav_EC2/DepthDuration/v2_depth_duration_MTurk/v2_DepthDuration_HTML.html#230,230,1366,625,1366,768,8-30-2022,7-8-12,30,depth_duration_stimuli/002072_2014-06-24_21-48-06_260595134347_rgbf000115-resize_0/002072_2014-06-24_21-48-06_260595134347_rgbf000115-resize-original.jpg,250,4.702,0,1263,244,meters,jsons/v1_VE250_randls_29_rotated.json,368602,473628,38,Woman
30,495166,DepthScenes,duration_manipulation_targetAtFixation,jsons/v1_VE250_randls_29_rotated.json,http://54.235.29.9/FacialAge/BNav_EC2/DepthDuration/v2_depth_duration_MTurk/v2_DepthDuration_HTML.html#230,230,1366,625,1366,768,8-30-2022,7-8-12,31,depth_duration_stimuli/000635_2014-06-08_16-38-42_260595134347_rgbf000106-resize_1/000635_2014-06-08_16-38-42_260595134347_rgbf000106-resize_1-target.png,250,2.074,0,1429,253,meters,jsons/v1_VE250_randls_29_rotated.json,368602,473628,38,Woman
31,495166,DepthScenes,duration_manipulation_targetAtFixation,jsons/v1_VE250_randls_29_rotated.json,http://54.235.29.9/FacialAge/BNav_EC2/DepthDuration/v2_depth_duration_MTurk/v2_DepthDuration_HTML.html#230,230,1366,625,1366,768,8-30-2022,7-8-12,32,depth_duration_stimuli/002279_2014-06-28_18-55-32_260595134347_rgbf000040-resize_5/002279_2014-06-28_18-55-32_260595134347_rgbf000040-resize_5-target.png,250,1.5043333333333,0,1321,242,meters,jsons/v1_VE250_randls_29_rotated.json,368602,473628,38,Woman
32,495166,DepthScenes,duration_manipulation_targetAtFixation,jsons/v1_VE250_randls_29_rotated.json,http://54.235.29.9/FacialAge/BNav_EC2/DepthDuration/v2_depth_duration_MTurk/v2_DepthDuration_HTML.html#230,230,1366,625,1366,768,8-30-2022,7-8-12,33,depth_duration_stimuli/001516_2014-06-20_16-25-09_260595134347_rgbf000076-resize_2/001516_2014-06-20_16-25-09_260595134347_rgbf000076-resize_2-target.png,250,1.7445,0,1376,250,meters,jsons/v1_VE250_randls_29_rotated.json,368602,473628,38,Woman
33,495166,DepthScenes,duration_manipulation_targetAtFixation,jsons/v1_VE250_randls_29_rotated.json,http://54.235.29.9/FacialAge/BNav_EC2/DepthDuration/v2_depth_duration_MTurk/v2_DepthDuration_HTML.html#230,230,1366,625,1366,768,8-30-2022,7-8-12,34,depth_duration_stimuli/002118_2014-06-25_20-32-08_260595134347_rgbf000078-resize_1/002118_2014-06-25_20-32-08_260595134347_rgbf000078-resize_1-target.png,250,2.6460000000000004,0,1363,252,meters,jsons/v1_VE250_randls_29_rotated.json,368602,473628,38,Woman
34,495166,DepthScenes,duration_manipulation_targetAtFixation,jsons/v1_VE250_randls_29_rotated.json,http://54.235.29.9/FacialAge/BNav_EC2/DepthDuration/v2_depth_duration_MTurk/v2_DepthDuration_HTML.html#230,230,1366,625,1366,768,8-30-2022,7-8-12,35,depth_duration_stimuli/001032_2014-06-08_13-23-17_260595134347_rgbf000021-resize_3/001032_2014-06-08_13-23-17_260595134347_rgbf000021-resize_3-target.png,250,3.2725,0,1433,231,meters,jsons/v1_VE250_randls_29_rotated.json,368602,473628,38,Woman
35,495166,DepthScenes,duration_manipulation_targetAtFixation,jsons/v1_VE250_randls_29_rotated.json,http://54.235.29.9/FacialAge/BNav_EC2/DepthDuration/v2_depth_duration_MTurk/v2_DepthDuration_HTML.html#230,230,1366,625,1366,768,8-30-2022,7-8-12,36,depth_duration_stimuli/001059_2014-06-08_21-53-27_260595134347_rgbf000061-resize_4/001059_2014-06-08_21-53-27_260595134347_rgbf000061-resize_4-target.png,250,2.4185,0,1367,255,meters,jsons/v1_VE250_randls_29_rotated.json,368602,473628,38,Woman
36,495166,DepthScenes,duration_manipulation_targetAtFixation,jsons/v1_VE250_randls_29_rotated.json,http://54.235.29.9/FacialAge/BNav_EC2/DepthDuration/v2_depth_duration_MTurk/v2_DepthDuration_HTML.html#230,230,1366,625,1366,768,8-30-2022,7-8-12,37,depth_duration_stimuli/001650_2014-06-20_12-09-00_260595134347_rgbf000087-resize_3/001650_2014-06-20_12-09-00_260595134347_rgbf000087-resize_3-target.png,250,1.9505,0,1477,251,meters,jsons/v1_VE250_randls_29_rotated.json,368602,473628,38,Woman
37,495166,DepthScenes,duration_manipulation_targetAtFixation,jsons/v1_VE250_randls_29_rotated.json,http://54.235.29.9/FacialAge/BNav_EC2/DepthDuration/v2_depth_duration_MTurk/v2_DepthDuration_HTML.html#230,230,1366,625,1366,768,8-30-2022,7-8-12,38,depth_duration_stimuli/000682_2014-06-08_23-14-58_260595134347_rgbf000041-resize_5/000682_2014-06-08_23-14-58_260595134347_rgbf000041-resize_5-target.png,250,2.7239999999999998,0,1653,242,meters,jsons/v1_VE250_randls_29_rotated.json,368602,473628,38,Woman
38,495166,DepthScenes,duration_manipulation_targetAtFixation,jsons/v1_VE250_randls_29_rotated.json,http://54.235.29.9/FacialAge/BNav_EC2/DepthDuration/v2_depth_duration_MTurk/v2_DepthDuration_HTML.html#230,230,1366,625,1366,768,8-30-2022,7-8-12,39,depth_duration_stimuli/002758_2014-06-22_19-11-20_094959634447_rgbf000128-resize_1/002758_2014-06-22_19-11-20_094959634447_rgbf000128-resize_1-target.png,250,2.555,0,12429,244,meters,jsons/v1_VE250_randls_29_rotated.json,368602,473628,38,Woman
39,495166,DepthScenes,duration_manipulation_targetAtFixation,jsons/v1_VE250_randls_29_rotated.json,http://54.235.29.9/FacialAge/BNav_EC2/DepthDuration/v2_depth_duration_MTurk/v2_DepthDuration_HTML.html#230,230,1366,625,1366,768,8-30-2022,7-8-12,40,depth_duration_stimuli/002630_2014-06-24_14-47-50_094959634447_rgbf000055-resize_1/002630_2014-06-24_14-47-50_094959634447_rgbf000055-resize_1-target.png,250,3.0095,0,1381,252,meters,jsons/v1_VE250_randls_29_rotated.json,368602,473628,38,Woman
40,495166,DepthScenes,duration_manipulation_targetAtFixation,jsons/v1_VE250_randls_29_rotated.json,http://54.235.29.9/FacialAge/BNav_EC2/DepthDuration/v2_depth_duration_MTurk/v2_DepthDuration_HTML.html#230,230,1366,625,1366,768,8-30-2022,7-8-12,41,depth_duration_stimuli/001450_2014-06-19_17-02-03_260595134347_rgbf000203-resize_4/001450_2014-06-19_17-02-03_260595134347_rgbf000203-resize_4-target.png,250,4.0106666666667,0,1439,244,meters,jsons/v1_VE250_randls_29_rotated.json,368602,473628,38,Woman
41,495166,DepthScenes,duration_manipulation_targetAtFixation,jsons/v1_VE250_randls_29_rotated.json,http://54.235.29.9/FacialAge/BNav_EC2/DepthDuration/v2_depth_duration_MTurk/v2_DepthDuration_HTML.html#230,230,1366,625,1366,768,8-30-2022,7-8-12,42,depth_duration_stimuli/001449_2014-06-19_17-01-27_260595134347_rgbf000116-resize_2/001449_2014-06-19_17-01-27_260595134347_rgbf000116-resize_2-target.png,250,3.452,0,1300,246,meters,jsons/v1_VE250_randls_29_rotated.json,368602,473628,38,Woman
42,495166,DepthScenes,duration_manipulation_targetAtFixation,jsons/v1_VE250_randls_29_rotated.json,http://54.235.29.9/FacialAge/BNav_EC2/DepthDuration/v2_depth_duration_MTurk/v2_DepthDuration_HTML.html#230,230,1366,625,1366,768,8-30-2022,7-8-12,43,depth_duration_stimuli/003338_2014-05-20_11-01-23_094959634447_rgbf000051-resize_6/003338_2014-05-20_11-01-23_094959634447_rgbf000051-resize_6-target.png,250,1.693,0,1261,254,meters,jsons/v1_VE250_randls_29_rotated.json,368602,473628,38,Woman
43,495166,DepthScenes,duration_manipulation_targetAtFixation,jsons/v1_VE250_randls_29_rotated.json,http://54.235.29.9/FacialAge/BNav_EC2/DepthDuration/v2_depth_duration_MTurk/v2_DepthDuration_HTML.html#230,230,1366,625,1366,768,8-30-2022,7-8-12,44,depth_duration_stimuli/002509_2014-06-24_13-19-22_094959634447_rgbf000077-resize_0/002509_2014-06-24_13-19-22_094959634447_rgbf000077-resize_0-target.png,250,1.3065,0,1233,244,meters,jsons/v1_VE250_randls_29_rotated.json,368602,473628,38,Woman
44,495166,DepthScenes,duration_manipulation_targetAtFixation,jsons/v1_VE250_randls_29_rotated.json,http://54.235.29.9/FacialAge/BNav_EC2/DepthDuration/v2_depth_duration_MTurk/v2_DepthDuration_HTML.html#230,230,1366,625,1366,768,8-30-2022,7-8-12,45,depth_duration_stimuli/002136_2014-06-25_21-18-03_260595134347_rgbf000109-resize_3/002136_2014-06-25_21-18-03_260595134347_rgbf000109-resize_3-target.png,250,1.9569999999999999,0,1318,253,meters,jsons/v1_VE250_randls_29_rotated.json,368602,473628,38,Woman
45,495166,DepthScenes,duration_manipulation_targetAtFixation,jsons/v1_VE250_randls_29_rotated.json,http://54.235.29.9/FacialAge/BNav_EC2/DepthDuration/v2_depth_duration_MTurk/v2_DepthDuration_HTML.html#230,230,1366,625,1366,768,8-30-2022,7-8-12,46,depth_duration_stimuli/002964_2014-06-08_17-46-11_094959634447_rgbf000091-resize_4/002964_2014-06-08_17-46-11_094959634447_rgbf000091-resize_4-target.png,250,1.6909999999999998,0,1243,250,meters,jsons/v1_VE250_randls_29_rotated.json,368602,473628,38,Woman
46,495166,DepthScenes,duration_manipulation_targetAtFixation,jsons/v1_VE250_randls_29_rotated.json,http://54.235.29.9/FacialAge/BNav_EC2/DepthDuration/v2_depth_duration_MTurk/v2_DepthDuration_HTML.html#230,230,1366,625,1366,768,8-30-2022,7-8-12,47,depth_duration_stimuli/002657_2014-06-13_15-29-54_094959634447_rgbf000150-resize_1/002657_2014-06-13_15-29-54_094959634447_rgbf000150-resize_1-target.png,250,4.919,0,40961,246,meters,jsons/v1_VE250_randls_29_rotated.json,368602,473628,38,Woman
47,495166,DepthScenes,duration_manipulation_targetAtFixation,jsons/v1_VE250_randls_29_rotated.json,http://54.235.29.9/FacialAge/BNav_EC2/DepthDuration/v2_depth_duration_MTurk/v2_DepthDuration_HTML.html#230,230,1366,625,1366,768,8-30-2022,7-8-12,48,depth_duration_stimuli/002375_2014-06-28_20-13-44_260595134347_rgbf000032-resize_1/002375_2014-06-28_20-13-44_260595134347_rgbf000032-resize_1-target.png,250,4.0175,0,1667,252,meters,jsons/v1_VE250_randls_29_rotated.json,368602,473628,38,Woman
48,495166,DepthScenes,duration_manipulation_targetAtFixation,jsons/v1_VE250_randls_29_rotated.json,http://54.235.29.9/FacialAge/BNav_EC2/DepthDuration/v2_depth_duration_MTurk/v2_DepthDuration_HTML.html#230,230,1366,625,1366,768,8-30-2022,7-8-12,49,depth_duration_stimuli/001170_2014-06-17_15-43-44_260595134347_rgbf000096-resize_6/001170_2014-06-17_15-43-44_260595134347_rgbf000096-resize-original.jpg,250,1.1909999999999998,0,3456,246,meters,jsons/v1_VE250_randls_29_rotated.json,368602,473628,38,Woman
49,495166,DepthScenes,duration_manipulation_targetAtFixation,jsons/v1_VE250_randls_29_rotated.json,http://54.235.29.9/FacialAge/BNav_EC2/DepthDuration/v2_depth_duration_MTurk/v2_DepthDuration_HTML.html#230,230,1366,625,1366,768,8-30-2022,7-8-12,50,depth_duration_stimuli/001617_2014-06-20_11-35-32_260595134347_rgbf000066-resize_1/001617_2014-06-20_11-35-32_260595134347_rgbf000066-resize_1-target.png,250,3.7910000000000004,0,1372,250,meters,jsons/v1_VE250_randls_29_rotated.json,368602,473628,38,Woman
50,495166,DepthScenes,duration_manipulation_targetAtFixation,jsons/v1_VE250_randls_29_rotated.json,http://54.235.29.9/FacialAge/BNav_EC2/DepthDuration/v2_depth_duration_MTurk/v2_DepthDuration_HTML.html#230,230,1366,625,1366,768,8-30-2022,7-8-12,51,depth_duration_stimuli/001806_2014-06-26_20-50-20_260595134347_rgbf000091-resize_1/001806_2014-06-26_20-50-20_260595134347_rgbf000091-resize_1-target.png,250,2.7305,0,1331,242,meters,jsons/v1_VE250_randls_29_rotated.json,368602,473628,38,Woman
51,495166,DepthScenes,duration_manipulation_targetAtFixation,jsons/v1_VE250_randls_29_rotated.json,http://54.235.29.9/FacialAge/BNav_EC2/DepthDuration/v2_depth_duration_MTurk/v2_DepthDuration_HTML.html#230,230,1366,625,1366,768,8-30-2022,7-8-12,52,depth_duration_stimuli/000854_2014-06-09_19-43-13_260595134347_rgbf000066-resize_0/000854_2014-06-09_19-43-13_260595134347_rgbf000066-resize_0-target.png,250,3.068,0,1299,242,meters,jsons/v1_VE250_randls_29_rotated.json,368602,473628,38,Woman
52,495166,DepthScenes,duration_manipulation_targetAtFixation,jsons/v1_VE250_randls_29_rotated.json,http://54.235.29.9/FacialAge/BNav_EC2/DepthDuration/v2_depth_duration_MTurk/v2_DepthDuration_HTML.html#230,230,1366,625,1366,768,8-30-2022,7-8-12,53,depth_duration_stimuli/000758_2014-06-08_22-05-08_260595134347_rgbf000085-resize_0/000758_2014-06-08_22-05-08_260595134347_rgbf000085-resize_0-target.png,250,3.3810000000000002,0,1282,242,meters,jsons/v1_VE250_randls_29_rotated.json,368602,473628,38,Woman
53,495166,DepthScenes,duration_manipulation_targetAtFixation,jsons/v1_VE250_randls_29_rotated.json,http://54.235.29.9/FacialAge/BNav_EC2/DepthDuration/v2_depth_duration_MTurk/v2_DepthDuration_HTML.html#230,230,1366,625,1366,768,8-30-2022,7-8-12,54,depth_duration_stimuli/003587_2014-05-23_16-48-02_094959634447_rgbf002384-resize_2/003587_2014-05-23_16-48-02_094959634447_rgbf002384-resize_2-target.png,250,1.357,0,1320,304,meters,jsons/v1_VE250_randls_29_rotated.json,368602,473628,38,Woman
54,495166,DepthScenes,duration_manipulation_targetAtFixation,jsons/v1_VE250_randls_29_rotated.json,http://54.235.29.9/FacialAge/BNav_EC2/DepthDuration/v2_depth_duration_MTurk/v2_DepthDuration_HTML.html#230,230,1366,625,1366,768,8-30-2022,7-8-12,55,depth_duration_stimuli/001167_2014-06-17_15-38-07_260595134347_rgbf000108-resize_0/001167_2014-06-17_15-38-07_260595134347_rgbf000108-resize_0-target.png,250,1.8505,0,1188,242,meters,jsons/v1_VE250_randls_29_rotated.json,368602,473628,38,Woman
55,495166,DepthScenes,duration_manipulation_targetAtFixation,jsons/v1_VE250_randls_29_rotated.json,http://54.235.29.9/FacialAge/BNav_EC2/DepthDuration/v2_depth_duration_MTurk/v2_DepthDuration_HTML.html#230,230,1366,625,1366,768,8-30-2022,7-8-12,56,depth_duration_stimuli/000502_2014-06-08_23-02-32_260595134347_rgbf000063-resize_4/000502_2014-06-08_23-02-32_260595134347_rgbf000063-resize_4-target.png,250,2.431,0,1182,245,meters,jsons/v1_VE250_randls_29_rotated.json,368602,473628,38,Woman
56,495166,DepthScenes,duration_manipulation_targetAtFixation,jsons/v1_VE250_randls_29_rotated.json,http://54.235.29.9/FacialAge/BNav_EC2/DepthDuration/v2_depth_duration_MTurk/v2_DepthDuration_HTML.html#230,230,1366,625,1366,768,8-30-2022,7-8-12,57,depth_duration_stimuli/001199_2014-06-17_16-03-48_260595134347_rgbf000077-resize_0/001199_2014-06-17_16-03-48_260595134347_rgbf000077-resize_0-target.png,250,3.4375,0,1116,252,meters,jsons/v1_VE250_randls_29_rotated.json,368602,473628,38,Woman
57,495166,DepthScenes,duration_manipulation_targetAtFixation,jsons/v1_VE250_randls_29_rotated.json,http://54.235.29.9/FacialAge/BNav_EC2/DepthDuration/v2_depth_duration_MTurk/v2_DepthDuration_HTML.html#230,230,1366,625,1366,768,8-30-2022,7-8-12,58,depth_duration_stimuli/000943_2014-06-09_19-31-07_260595134347_rgbf000128-resize_1/000943_2014-06-09_19-31-07_260595134347_rgbf000128-resize_1-target.png,250,1.9765,0,1248,252,meters,jsons/v1_VE250_randls_29_rotated.json,368602,473628,38,Woman
58,495166,DepthScenes,duration_manipulation_targetAtFixation,jsons/v1_VE250_randls_29_rotated.json,http://54.235.29.9/FacialAge/BNav_EC2/DepthDuration/v2_depth_duration_MTurk/v2_DepthDuration_HTML.html#230,230,1366,625,1366,768,8-30-2022,7-8-12,59,depth_duration_stimuli/003070_2014-06-15_14-58-27_094959634447_rgbf000150-resize_3/003070_2014-06-15_14-58-27_094959634447_rgbf000150-resize_3-target.png,250,2.9415,0,1201,250,meters,jsons/v1_VE250_randls_29_rotated.json,368602,473628,38,Woman
59,495166,DepthScenes,duration_manipulation_targetAtFixation,jsons/v1_VE250_randls_29_rotated.json,http://54.235.29.9/FacialAge/BNav_EC2/DepthDuration/v2_depth_duration_MTurk/v2_DepthDuration_HTML.html#230,230,1366,625,1366,768,8-30-2022,7-8-12,60,depth_duration_stimuli/002949_2014-06-26_15-57-42_094959634447_rgbf000079-resize_1/002949_2014-06-26_15-57-42_094959634447_rgbf000079-resize_1-target.png,250,1.8915,0,1218,242,meters,jsons/v1_VE250_randls_29_rotated.json,368602,473628,38,Woman
60,495166,DepthScenes,duration_manipulation_targetAtFixation,jsons/v1_VE250_randls_29_rotated.json,http://54.235.29.9/FacialAge/BNav_EC2/DepthDuration/v2_depth_duration_MTurk/v2_DepthDuration_HTML.html#230,230,1366,625,1366,768,8-30-2022,7-8-12,61,depth_duration_stimuli/000522_2014-06-08_13-35-06_260595134347_rgbf000244-resize_1/000522_2014-06-08_13-35-06_260595134347_rgbf000244-resize_1-target.png,250,2.3715,0,1211,254,meters,jsons/v1_VE250_randls_29_rotated.json,368602,473628,38,Woman
61,495166,DepthScenes,duration_manipulation_targetAtFixation,jsons/v1_VE250_randls_29_rotated.json,http://54.235.29.9/FacialAge/BNav_EC2/DepthDuration/v2_depth_duration_MTurk/v2_DepthDuration_HTML.html#230,230,1366,625,1366,768,8-30-2022,7-8-12,62,depth_duration_stimuli/000457_2014-06-08_16-52-43_260595134347_rgbf000199-resize_1/000457_2014-06-08_16-52-43_260595134347_rgbf000199-resize_1-target.png,250,3.6489999999999996,0,1192,252,meters,jsons/v1_VE250_randls_29_rotated.json,368602,473628,38,Woman
62,495166,DepthScenes,duration_manipulation_targetAtFixation,jsons/v1_VE250_randls_29_rotated.json,http://54.235.29.9/FacialAge/BNav_EC2/DepthDuration/v2_depth_duration_MTurk/v2_DepthDuration_HTML.html#230,230,1366,625,1366,768,8-30-2022,7-8-12,63,depth_duration_stimuli/000929_2014-06-09_16-33-19_260595134347_rgbf000139-resize_0/000929_2014-06-09_16-33-19_260595134347_rgbf000139-resize_0-target.png,250,2.8680000000000003,0,1279,250,meters,jsons/v1_VE250_randls_29_rotated.json,368602,473628,38,Woman
63,495166,DepthScenes,duration_manipulation_targetAtFixation,jsons/v1_VE250_randls_29_rotated.json,http://54.235.29.9/FacialAge/BNav_EC2/DepthDuration/v2_depth_duration_MTurk/v2_DepthDuration_HTML.html#230,230,1366,625,1366,768,8-30-2022,7-8-12,64,depth_duration_stimuli/001392_2014-06-19_16-07-59_260595134347_rgbf000046-resize_1/001392_2014-06-19_16-07-59_260595134347_rgbf000046-resize_1-target.png,250,4.135,0,1169,250,meters,jsons/v1_VE250_randls_29_rotated.json,368602,473628,38,Woman
64,495166,DepthScenes,duration_manipulation_targetAtFixation,jsons/v1_VE250_randls_29_rotated.json,http://54.235.29.9/FacialAge/BNav_EC2/DepthDuration/v2_depth_duration_MTurk/v2_DepthDuration_HTML.html#230,230,1366,625,1366,768,8-30-2022,7-8-12,65,depth_duration_stimuli/001570_2014-06-20_17-21-09_260595134347_rgbf000135-resize_4/001570_2014-06-20_17-21-09_260595134347_rgbf000135-resize_4-target.png,250,4.467,0,1254,250,meters,jsons/v1_VE250_randls_29_rotated.json,368602,473628,38,Woman
65,495166,DepthScenes,duration_manipulation_targetAtFixation,jsons/v1_VE250_randls_29_rotated.json,http://54.235.29.9/FacialAge/BNav_EC2/DepthDuration/v2_depth_duration_MTurk/v2_DepthDuration_HTML.html#230,230,1366,625,1366,768,8-30-2022,7-8-12,66,depth_duration_stimuli/001540_2014-06-20_17-01-05_260595134347_rgbf000086-resize_2/001540_2014-06-20_17-01-05_260595134347_rgbf000086-resize-original.jpg,250,1.459,0,1255,246,meters,jsons/v1_VE250_randls_29_rotated.json,368602,473628,38,Woman
66,495166,DepthScenes,duration_manipulation_targetAtFixation,jsons/v1_VE250_randls_29_rotated.json,http://54.235.29.9/FacialAge/BNav_EC2/DepthDuration/v2_depth_duration_MTurk/v2_DepthDuration_HTML.html#230,230,1366,625,1366,768,8-30-2022,7-8-12,67,depth_duration_stimuli/002199_2014-06-28_18-33-56_260595134347_rgbf000074-resize_0/002199_2014-06-28_18-33-56_260595134347_rgbf000074-resize_0-target.png,250,1.996,0,1229,242,meters,jsons/v1_VE250_randls_29_rotated.json,368602,473628,38,Woman
67,495166,DepthScenes,duration_manipulation_targetAtFixation,jsons/v1_VE250_randls_29_rotated.json,http://54.235.29.9/FacialAge/BNav_EC2/DepthDuration/v2_depth_duration_MTurk/v2_DepthDuration_HTML.html#230,230,1366,625,1366,768,8-30-2022,7-8-12,68,depth_duration_stimuli/001056_2014-06-08_18-46-44_260595134347_rgbf000068-resize_0/001056_2014-06-08_18-46-44_260595134347_rgbf000068-resize_0-target.png,250,2.6625,0,1244,242,meters,jsons/v1_VE250_randls_29_rotated.json,368602,473628,38,Woman
68,495166,DepthScenes,duration_manipulation_targetAtFixation,jsons/v1_VE250_randls_29_rotated.json,http://54.235.29.9/FacialAge/BNav_EC2/DepthDuration/v2_depth_duration_MTurk/v2_DepthDuration_HTML.html#230,230,1366,625,1366,768,8-30-2022,7-8-12,69,depth_duration_stimuli/003495_2014-05-21_16-01-51_094959634447_rgbf000100-resize_3/003495_2014-05-21_16-01-51_094959634447_rgbf000100-resize_3-target.png,250,1.6255,0,3257,254,meters,jsons/v1_VE250_randls_29_rotated.json,368602,473628,38,Woman
69,495166,DepthScenes,duration_manipulation_targetAtFixation,jsons/v1_VE250_randls_29_rotated.json,http://54.235.29.9/FacialAge/BNav_EC2/DepthDuration/v2_depth_duration_MTurk/v2_DepthDuration_HTML.html#230,230,1366,625,1366,768,8-30-2022,7-8-12,70,depth_duration_stimuli/001244_2014-06-17_16-47-45_260595134347_rgbf000030-resize_4/001244_2014-06-17_16-47-45_260595134347_rgbf000030-resize_4-target.png,250,2.0425,0,1422,253,meters,jsons/v1_VE250_randls_29_rotated.json,368602,473628,38,Woman
70,495166,DepthScenes,duration_manipulation_targetAtFixation,jsons/v1_VE250_randls_29_rotated.json,http://54.235.29.9/FacialAge/BNav_EC2/DepthDuration/v2_depth_duration_MTurk/v2_DepthDuration_HTML.html#230,230,1366,625,1366,768,8-30-2022,7-8-12,71,depth_duration_stimuli/001100_2014-06-15_17-46-26_260595134347_rgbf000225-resize_2/001100_2014-06-15_17-46-26_260595134347_rgbf000225-resize_2-target.png,250,2.24,0,1332,245,meters,jsons/v1_VE250_randls_29_rotated.json,368602,473628,38,Woman
71,495166,DepthScenes,duration_manipulation_targetAtFixation,jsons/v1_VE250_randls_29_rotated.json,http://54.235.29.9/FacialAge/BNav_EC2/DepthDuration/v2_depth_duration_MTurk/v2_DepthDuration_HTML.html#230,230,1366,625,1366,768,8-30-2022,7-8-12,72,depth_duration_stimuli/002784_2014-06-22_19-26-30_094959634447_rgbf000083-resize_3/002784_2014-06-22_19-26-30_094959634447_rgbf000083-resize_3-target.png,250,1.8046666666667,0,1459,252,meters,jsons/v1_VE250_randls_29_rotated.json,368602,473628,38,Woman
72,495166,DepthScenes,duration_manipulation_targetAtFixation,jsons/v1_VE250_randls_29_rotated.json,http://54.235.29.9/FacialAge/BNav_EC2/DepthDuration/v2_depth_duration_MTurk/v2_DepthDuration_HTML.html#230,230,1366,625,1366,768,8-30-2022,7-8-12,73,depth_duration_stimuli/003048_2014-06-15_13-49-43_094959634447_rgbf000150-resize_1/003048_2014-06-15_13-49-43_094959634447_rgbf000150-resize_1-target.png,250,4.0035,0,1301,244,meters,jsons/v1_VE250_randls_29_rotated.json,368602,473628,38,Woman
73,495166,DepthScenes,duration_manipulation_targetAtFixation,jsons/v1_VE250_randls_29_rotated.json,http://54.235.29.9/FacialAge/BNav_EC2/DepthDuration/v2_depth_duration_MTurk/v2_DepthDuration_HTML.html#230,230,1366,625,1366,768,8-30-2022,7-8-12,74,depth_duration_stimuli/002043_2014-06-24_20-29-38_260595134347_rgbf000039-resize_4/002043_2014-06-24_20-29-38_260595134347_rgbf000039-resize_4-target.png,250,2.8435,0,1272,252,meters,jsons/v1_VE250_randls_29_rotated.json,368602,473628,38,Woman
74,495166,DepthScenes,duration_manipulation_targetAtFixation,jsons/v1_VE250_randls_29_rotated.json,http://54.235.29.9/FacialAge/BNav_EC2/DepthDuration/v2_depth_duration_MTurk/v2_DepthDuration_HTML.html#230,230,1366,625,1366,768,8-30-2022,7-8-12,75,depth_duration_stimuli/003079_2014-06-15_15-18-20_094959634447_rgbf000152-resize_8/003079_2014-06-15_15-18-20_094959634447_rgbf000152-resize_8-target.png,250,2.8775,0,1955,254,meters,jsons/v1_VE250_randls_29_rotated.json,368602,473628,38,Woman
75,495166,DepthScenes,duration_manipulation_targetAtFixation,jsons/v1_VE250_randls_29_rotated.json,http://54.235.29.9/FacialAge/BNav_EC2/DepthDuration/v2_depth_duration_MTurk/v2_DepthDuration_HTML.html#230,230,1366,625,1366,768,8-30-2022,7-8-12,76,depth_duration_stimuli/000506_2014-06-08_23-21-00_260595134347_rgbf000070-resize_7/000506_2014-06-08_23-21-00_260595134347_rgbf000070-resize_7-target.png,250,4.0585,0,1576,244,meters,jsons/v1_VE250_randls_29_rotated.json,368602,473628,38,Woman
76,495166,DepthScenes,duration_manipulation_targetAtFixation,jsons/v1_VE250_randls_29_rotated.json,http://54.235.29.9/FacialAge/BNav_EC2/DepthDuration/v2_depth_duration_MTurk/v2_DepthDuration_HTML.html#230,230,1366,625,1366,768,8-30-2022,7-8-12,77,depth_duration_stimuli/000483_2014-06-09_20-41-45_260595134347_rgbf000116-resize_4/000483_2014-06-09_20-41-45_260595134347_rgbf000116-resize_4-target.png,250,1.337,0,1424,226,meters,jsons/v1_VE250_randls_29_rotated.json,368602,473628,38,Woman
77,495166,DepthScenes,duration_manipulation_targetAtFixation,jsons/v1_VE250_randls_29_rotated.json,http://54.235.29.9/FacialAge/BNav_EC2/DepthDuration/v2_depth_duration_MTurk/v2_DepthDuration_HTML.html#230,230,1366,625,1366,768,8-30-2022,7-8-12,78,depth_duration_stimuli/000469_2014-06-09_19-42-10_260595134347_rgbf000081-resize_1/000469_2014-06-09_19-42-10_260595134347_rgbf000081-resize_1-target.png,250,1.652,0,1377,256,meters,jsons/v1_VE250_randls_29_rotated.json,368602,473628,38,Woman
78,495166,DepthScenes,duration_manipulation_targetAtFixation,jsons/v1_VE250_randls_29_rotated.json,http://54.235.29.9/FacialAge/BNav_EC2/DepthDuration/v2_depth_duration_MTurk/v2_DepthDuration_HTML.html#230,230,1366,625,1366,768,8-30-2022,7-8-12,79,depth_duration_stimuli/002414_2014-06-28_20-24-58_260595134347_rgbf000067-resize_4/002414_2014-06-28_20-24-58_260595134347_rgbf000067-resize_4-target.png,250,4.363,0,1233,242,meters,jsons/v1_VE250_randls_29_rotated.json,368602,473628,38,Woman
79,495166,DepthScenes,duration_manipulation_targetAtFixation,jsons/v1_VE250_randls_29_rotated.json,http://54.235.29.9/FacialAge/BNav_EC2/DepthDuration/v2_depth_duration_MTurk/v2_DepthDuration_HTML.html#230,230,1366,625,1366,768,8-30-2022,7-8-12,80,depth_duration_stimuli/000773_2014-06-08_22-24-54_260595134347_rgbf000093-resize_1/000773_2014-06-08_22-24-54_260595134347_rgbf000093-resize_1-target.png,250,4.973,0,1311,242,meters,jsons/v1_VE250_randls_29_rotated.json,368602,473628,38,Woman
80,495166,DepthScenes,duration_manipulation_targetAtFixation,jsons/v1_VE250_randls_29_rotated.json,http://54.235.29.9/FacialAge/BNav_EC2/DepthDuration/v2_depth_duration_MTurk/v2_DepthDuration_HTML.html#230,230,1366,625,1366,768,8-30-2022,7-8-12,81,depth_duration_stimuli/002995_2014-06-15_12-31-26_094959634447_rgbf000150-resize_1/002995_2014-06-15_12-31-26_094959634447_rgbf000150-resize_1-target.png,250,3.8360000000000003,0,1306,245,meters,jsons/v1_VE250_randls_29_rotated.json,368602,473628,38,Woman
81,495166,DepthScenes,duration_manipulation_targetAtFixation,jsons/v1_VE250_randls_29_rotated.json,http://54.235.29.9/FacialAge/BNav_EC2/DepthDuration/v2_depth_duration_MTurk/v2_DepthDuration_HTML.html#230,230,1366,625,1366,768,8-30-2022,7-8-12,82,depth_duration_stimuli/002748_2014-06-22_19-07-22_094959634447_rgbf000078-resize_1/002748_2014-06-22_19-07-22_094959634447_rgbf000078-resize_1-target.png,250,4.6705,0,1205,250,meters,jsons/v1_VE250_randls_29_rotated.json,368602,473628,38,Woman
82,495166,DepthScenes,duration_manipulation_targetAtFixation,jsons/v1_VE250_randls_29_rotated.json,http://54.235.29.9/FacialAge/BNav_EC2/DepthDuration/v2_depth_duration_MTurk/v2_DepthDuration_HTML.html#230,230,1366,625,1366,768,8-30-2022,7-8-12,83,depth_duration_stimuli/000137_2014-05-20_17-04-49_260595134347_rgbf000120-resize_1/000137_2014-05-20_17-04-49_260595134347_rgbf000120-resize_1-target.png,250,3.786,0,1272,246,meters,jsons/v1_VE250_randls_29_rotated.json,368602,473628,38,Woman
83,495166,DepthScenes,duration_manipulation_targetAtFixation,jsons/v1_VE250_randls_29_rotated.json,http://54.235.29.9/FacialAge/BNav_EC2/DepthDuration/v2_depth_duration_MTurk/v2_DepthDuration_HTML.html#230,230,1366,625,1366,768,8-30-2022,7-8-12,84,depth_duration_stimuli/000736_2014-06-08_18-24-15_260595134347_rgbf000206-resize_3/000736_2014-06-08_18-24-15_260595134347_rgbf000206-resize_3-target.png,250,3.515,0,5898,254,meters,jsons/v1_VE250_randls_29_rotated.json,368602,473628,38,Woman
84,495166,DepthScenes,duration_manipulation_targetAtFixation,jsons/v1_VE250_randls_29_rotated.json,http://54.235.29.9/FacialAge/BNav_EC2/DepthDuration/v2_depth_duration_MTurk/v2_DepthDuration_HTML.html#230,230,1366,625,1366,768,8-30-2022,7-8-12,85,depth_duration_stimuli/002344_2014-06-28_20-06-29_260595134347_rgbf000030-resize_1/002344_2014-06-28_20-06-29_260595134347_rgbf000030-resize_1-target.png,250,1.5795,0,2405,250,meters,jsons/v1_VE250_randls_29_rotated.json,368602,473628,38,Woman
85,495166,DepthScenes,duration_manipulation_targetAtFixation,jsons/v1_VE250_randls_29_rotated.json,http://54.235.29.9/FacialAge/BNav_EC2/DepthDuration/v2_depth_duration_MTurk/v2_DepthDuration_HTML.html#230,230,1366,625,1366,768,8-30-2022,7-8-12,86,depth_duration_stimuli/002725_2014-06-22_11-47-51_094959634447_rgbf000070-resize_1/002725_2014-06-22_11-47-51_094959634447_rgbf000070-resize_1-target.png,250,2.195,0,1356,250,meters,jsons/v1_VE250_randls_29_rotated.json,368602,473628,38,Woman
86,495166,DepthScenes,duration_manipulation_targetAtFixation,jsons/v1_VE250_randls_29_rotated.json,http://54.235.29.9/FacialAge/BNav_EC2/DepthDuration/v2_depth_duration_MTurk/v2_DepthDuration_HTML.html#230,230,1366,625,1366,768,8-30-2022,7-8-12,87,depth_duration_stimuli/002639_2014-06-24_14-51-37_094959634447_rgbf000074-resize_4/002639_2014-06-24_14-51-37_094959634447_rgbf000074-resize_4-target.png,250,4.0375,0,1382,242,meters,jsons/v1_VE250_randls_29_rotated.json,368602,473628,38,Woman
87,495166,DepthScenes,duration_manipulation_targetAtFixation,jsons/v1_VE250_randls_29_rotated.json,http://54.235.29.9/FacialAge/BNav_EC2/DepthDuration/v2_depth_duration_MTurk/v2_DepthDuration_HTML.html#230,230,1366,625,1366,768,8-30-2022,7-8-12,88,depth_duration_stimuli/003292_2014-05-14_21-53-49_094959634447_rgbf000100-resize_2/003292_2014-05-14_21-53-49_094959634447_rgbf000100-resize_2-target.png,250,3.4815,0,1251,242,meters,jsons/v1_VE250_randls_29_rotated.json,368602,473628,38,Woman
88,495166,DepthScenes,duration_manipulation_targetAtFixation,jsons/v1_VE250_randls_29_rotated.json,http://54.235.29.9/FacialAge/BNav_EC2/DepthDuration/v2_depth_duration_MTurk/v2_DepthDuration_HTML.html#230,230,1366,625,1366,768,8-30-2022,7-8-12,89,depth_duration_stimuli/000866_2014-06-09_20-45-42_260595134347_rgbf000139-resize_1/000866_2014-06-09_20-45-42_260595134347_rgbf000139-resize_1-target.png,250,3.2155,0,1303,250,meters,jsons/v1_VE250_randls_29_rotated.json,368602,473628,38,Woman
89,495166,DepthScenes,duration_manipulation_targetAtFixation,jsons/v1_VE250_randls_29_rotated.json,http://54.235.29.9/FacialAge/BNav_EC2/DepthDuration/v2_depth_duration_MTurk/v2_DepthDuration_HTML.html#230,230,1366,625,1366,768,8-30-2022,7-8-12,90,depth_duration_stimuli/002989_2014-06-15_12-25-03_094959634447_rgbf000150-resize_3/002989_2014-06-15_12-25-03_094959634447_rgbf000150-resize_3-target.png,250,4.1975,0,1239,243,meters,jsons/v1_VE250_randls_29_rotated.json,368602,473628,38,Woman
90,495166,DepthScenes,duration_manipulation_targetAtFixation,jsons/v1_VE250_randls_29_rotated.json,http://54.235.29.9/FacialAge/BNav_EC2/DepthDuration/v2_depth_duration_MTurk/v2_DepthDuration_HTML.html#230,230,1366,625,1366,768,8-30-2022,7-8-12,91,depth_duration_stimuli/002444_2014-06-28_20-32-08_260595134347_rgbf000027-resize_0/002444_2014-06-28_20-32-08_260595134347_rgbf000027-resize_0-target.png,250,4.388999999999999,0,1563,250,meters,jsons/v1_VE250_randls_29_rotated.json,368602,473628,38,Woman
91,495166,DepthScenes,duration_manipulation_targetAtFixation,jsons/v1_VE250_randls_29_rotated.json,http://54.235.29.9/FacialAge/BNav_EC2/DepthDuration/v2_depth_duration_MTurk/v2_DepthDuration_HTML.html#230,230,1366,625,1366,768,8-30-2022,7-8-12,92,depth_duration_stimuli/000436_2014-06-09_22-25-11_260595134347_rgbf000137-resize_1/000436_2014-06-09_22-25-11_260595134347_rgbf000137-resize_1-target.png,250,4.0705,0,1354,231,meters,jsons/v1_VE250_randls_29_rotated.json,368602,473628,38,Woman
92,495166,DepthScenes,duration_manipulation_targetAtFixation,jsons/v1_VE250_randls_29_rotated.json,http://54.235.29.9/FacialAge/BNav_EC2/DepthDuration/v2_depth_duration_MTurk/v2_DepthDuration_HTML.html#230,230,1366,625,1366,768,8-30-2022,7-8-12,93,depth_duration_stimuli/003423_2014-05-21_10-23-26_094959634447_rgbf002665-resize_2/003423_2014-05-21_10-23-26_094959634447_rgbf002665-resize_2-target.png,250,3.2575,0,1301,244,meters,jsons/v1_VE250_randls_29_rotated.json,368602,473628,38,Woman
93,495166,DepthScenes,duration_manipulation_targetAtFixation,jsons/v1_VE250_randls_29_rotated.json,http://54.235.29.9/FacialAge/BNav_EC2/DepthDuration/v2_depth_duration_MTurk/v2_DepthDuration_HTML.html#230,230,1366,625,1366,768,8-30-2022,7-8-12,94,depth_duration_stimuli/002905_2014-06-03_18-04-43_094959634447_rgbf000151-resize_2/002905_2014-06-03_18-04-43_094959634447_rgbf000151-resize_2-target.png,250,2.0295,0,1211,242,meters,jsons/v1_VE250_randls_29_rotated.json,368602,473628,38,Woman
94,495166,DepthScenes,duration_manipulation_targetAtFixation,jsons/v1_VE250_randls_29_rotated.json,http://54.235.29.9/FacialAge/BNav_EC2/DepthDuration/v2_depth_duration_MTurk/v2_DepthDuration_HTML.html#230,230,1366,625,1366,768,8-30-2022,7-8-12,95,depth_duration_stimuli/003081_2014-06-15_15-19-16_094959634447_rgbf000150-resize_1/003081_2014-06-15_15-19-16_094959634447_rgbf000150-resize_1-target.png,250,3.9125,0,1253,244,meters,jsons/v1_VE250_randls_29_rotated.json,368602,473628,38,Woman
95,495166,DepthScenes,duration_manipulation_targetAtFixation,jsons/v1_VE250_randls_29_rotated.json,http://54.235.29.9/FacialAge/BNav_EC2/DepthDuration/v2_depth_duration_MTurk/v2_DepthDuration_HTML.html#230,230,1366,625,1366,768,8-30-2022,7-8-12,96,depth_duration_stimuli/001417_2014-06-19_16-25-36_260595134347_rgbf000115-resize_5/001417_2014-06-19_16-25-36_260595134347_rgbf000115-resize_5-target.png,250,4.6255,0,1240,244,meters,jsons/v1_VE250_randls_29_rotated.json,368602,473628,38,Woman
96,495166,DepthScenes,duration_manipulation_targetAtFixation,jsons/v1_VE250_randls_29_rotated.json,http://54.235.29.9/FacialAge/BNav_EC2/DepthDuration/v2_depth_duration_MTurk/v2_DepthDuration_HTML.html#230,230,1366,625,1366,768,8-30-2022,7-8-12,97,depth_duration_stimuli/003228_2014-05-14_13-42-35_094959634447_rgbf000101-resize_1/003228_2014-05-14_13-42-35_094959634447_rgbf000101-resize_1-target.png,250,1.9680000000000002,0,1193,254,meters,jsons/v1_VE250_randls_29_rotated.json,368602,473628,38,Woman
97,495166,DepthScenes,duration_manipulation_targetAtFixation,jsons/v1_VE250_randls_29_rotated.json,http://54.235.29.9/FacialAge/BNav_EC2/DepthDuration/v2_depth_duration_MTurk/v2_DepthDuration_HTML.html#230,230,1366,625,1366,768,8-30-2022,7-8-12,98,depth_duration_stimuli/002600_2014-06-24_14-27-04_094959634447_rgbf000074-resize_2/002600_2014-06-24_14-27-04_094959634447_rgbf000074-resize_2-target.png,250,2.7575,0,1186,253,meters,jsons/v1_VE250_randls_29_rotated.json,368602,473628,38,Woman
98,495166,DepthScenes,duration_manipulation_targetAtFixation,jsons/v1_VE250_randls_29_rotated.json,http://54.235.29.9/FacialAge/BNav_EC2/DepthDuration/v2_depth_duration_MTurk/v2_DepthDuration_HTML.html#230,230,1366,625,1366,768,8-30-2022,7-8-12,99,depth_duration_stimuli/001222_2014-06-17_16-24-06_260595134347_rgbf000073-resize_0/001222_2014-06-17_16-24-06_260595134347_rgbf000073-resize-original.jpg,250,1.4385,0,1188,248,meters,jsons/v1_VE250_randls_29_rotated.json,368602,473628,38,Woman
99,495166,DepthScenes,duration_manipulation_targetAtFixation,jsons/v1_VE250_randls_29_rotated.json,http://54.235.29.9/FacialAge/BNav_EC2/DepthDuration/v2_depth_duration_MTurk/v2_DepthDuration_HTML.html#230,230,1366,625,1366,768,8-30-2022,7-8-12,100,depth_duration_stimuli/001132_2014-06-17_14-48-54_260595134347_rgbf000100-resize_2/001132_2014-06-17_14-48-54_260595134347_rgbf000100-resize_2-target.png,250,3.753,0,1233,250,meters,jsons/v1_VE250_randls_29_rotated.json,368602,473628,38,Woman
100,495166,DepthScenes,duration_manipulation_targetAtFixation,jsons/v1_VE250_randls_29_rotated.json,http://54.235.29.9/FacialAge/BNav_EC2/DepthDuration/v2_depth_duration_MTurk/v2_DepthDuration_HTML.html#230,230,1366,625,1366,768,8-30-2022,7-8-12,101,depth_duration_stimuli/001133_2014-06-17_14-49-16_260595134347_rgbf000100-resize_0/001133_2014-06-17_14-49-16_260595134347_rgbf000100-resize_0-target.png,250,4.2115,0,1332,251,meters,jsons/v1_VE250_randls_29_rotated.json,368602,473628,38,Woman
101,495166,DepthScenes,duration_manipulation_targetAtFixation,jsons/v1_VE250_randls_29_rotated.json,http://54.235.29.9/FacialAge/BNav_EC2/DepthDuration/v2_depth_duration_MTurk/v2_DepthDuration_HTML.html#230,230,1366,625,1366,768,8-30-2022,7-8-12,102,depth_duration_stimuli/003010_2014-06-15_12-54-35_094959634447_rgbf000112-resize_0/003010_2014-06-15_12-54-35_094959634447_rgbf000112-resize_0-target.png,250,3.1185,0,1208,250,meters,jsons/v1_VE250_randls_29_rotated.json,368602,473628,38,Woman
102,495166,DepthScenes,duration_manipulation_targetAtFixation,jsons/v1_VE250_randls_29_rotated.json,http://54.235.29.9/FacialAge/BNav_EC2/DepthDuration/v2_depth_duration_MTurk/v2_DepthDuration_HTML.html#230,230,1366,625,1366,768,8-30-2022,7-8-12,103,depth_duration_stimuli/001810_2014-06-26_20-51-35_260595134347_rgbf000040-resize_3/001810_2014-06-26_20-51-35_260595134347_rgbf000040-resize_3-target.png,250,2.2525,0,1171,252,meters,jsons/v1_VE250_randls_29_rotated.json,368602,473628,38,Woman
103,495166,DepthScenes,duration_manipulation_targetAtFixation,jsons/v1_VE250_randls_29_rotated.json,http://54.235.29.9/FacialAge/BNav_EC2/DepthDuration/v2_depth_duration_MTurk/v2_DepthDuration_HTML.html#230,230,1366,625,1366,768,8-30-2022,7-8-12,104,depth_duration_stimuli/000409_2014-06-04_19-23-33_260595134347_rgbf000067-resize_0/000409_2014-06-04_19-23-33_260595134347_rgbf000067-resize_0-target.png,250,3.7335,0,1119,223,meters,jsons/v1_VE250_randls_29_rotated.json,368602,473628,38,Woman
104,495166,DepthScenes,duration_manipulation_targetAtFixation,jsons/v1_VE250_randls_29_rotated.json,http://54.235.29.9/FacialAge/BNav_EC2/DepthDuration/v2_depth_duration_MTurk/v2_DepthDuration_HTML.html#230,230,1366,625,1366,768,8-30-2022,7-8-12,105,depth_duration_stimuli/002663_2014-06-13_15-50-26_094959634447_rgbf000075-resize_1/002663_2014-06-13_15-50-26_094959634447_rgbf000075-resize_1-target.png,250,4.7495,0,1173,250,meters,jsons/v1_VE250_randls_29_rotated.json,368602,473628,38,Woman
105,495166,DepthScenes,duration_manipulation_targetAtFixation,jsons/v1_VE250_randls_29_rotated.json,http://54.235.29.9/FacialAge/BNav_EC2/DepthDuration/v2_depth_duration_MTurk/v2_DepthDuration_HTML.html#230,230,1366,625,1366,768,8-30-2022,7-8-12,106,depth_duration_stimuli/000734_2014-06-08_17-39-11_260595134347_rgbf000128-resize_2/000734_2014-06-08_17-39-11_260595134347_rgbf000128-resize_2-target.png,250,4.098,0,1923,234,meters,jsons/v1_VE250_randls_29_rotated.json,368602,473628,38,Woman
106,495166,DepthScenes,duration_manipulation_targetAtFixation,jsons/v1_VE250_randls_29_rotated.json,http://54.235.29.9/FacialAge/BNav_EC2/DepthDuration/v2_depth_duration_MTurk/v2_DepthDuration_HTML.html#230,230,1366,625,1366,768,8-30-2022,7-8-12,107,depth_duration_stimuli/000739_2014-06-08_18-45-58_260595134347_rgbf000068-resize_1/000739_2014-06-08_18-45-58_260595134347_rgbf000068-resize_1-target.png,250,3.534,0,1211,250,meters,jsons/v1_VE250_randls_29_rotated.json,368602,473628,38,Woman
107,495166,DepthScenes,duration_manipulation_targetAtFixation,jsons/v1_VE250_randls_29_rotated.json,http://54.235.29.9/FacialAge/BNav_EC2/DepthDuration/v2_depth_duration_MTurk/v2_DepthDuration_HTML.html#230,230,1366,625,1366,768,8-30-2022,7-8-12,108,depth_duration_stimuli/001447_2014-06-19_17-00-32_260595134347_rgbf000082-resize_5/001447_2014-06-19_17-00-32_260595134347_rgbf000082-resize_5-target.png,250,4.13775,0,1269,254,meters,jsons/v1_VE250_randls_29_rotated.json,368602,473628,38,Woman
108,495166,DepthScenes,duration_manipulation_targetAtFixation,jsons/v1_VE250_randls_29_rotated.json,http://54.235.29.9/FacialAge/BNav_EC2/DepthDuration/v2_depth_duration_MTurk/v2_DepthDuration_HTML.html#230,230,1366,625,1366,768,8-30-2022,7-8-12,109,depth_duration_stimuli/000447_2014-06-08_16-15-46_260595134347_rgbf000130-resize_1/000447_2014-06-08_16-15-46_260595134347_rgbf000130-resize_1-target.png,250,4.479,0,1353,250,meters,jsons/v1_VE250_randls_29_rotated.json,368602,473628,38,Woman
109,495166,DepthScenes,duration_manipulation_targetAtFixation,jsons/v1_VE250_randls_29_rotated.json,http://54.235.29.9/FacialAge/BNav_EC2/DepthDuration/v2_depth_duration_MTurk/v2_DepthDuration_HTML.html#230,230,1366,625,1366,768,8-30-2022,7-8-12,110,depth_duration_stimuli/000749_2014-06-08_21-55-06_260595134347_rgbf000070-resize_2/000749_2014-06-08_21-55-06_260595134347_rgbf000070-resize_2-target.png,250,2.331,0,1175,246,meters,jsons/v1_VE250_randls_29_rotated.json,368602,473628,38,Woman
110,495166,DepthScenes,duration_manipulation_targetAtFixation,jsons/v1_VE250_randls_29_rotated.json,http://54.235.29.9/FacialAge/BNav_EC2/DepthDuration/v2_depth_duration_MTurk/v2_DepthDuration_HTML.html#230,230,1366,625,1366,768,8-30-2022,7-8-12,111,depth_duration_stimuli/002788_2014-06-22_19-36-03_094959634447_rgbf000088-resize_2/002788_2014-06-22_19-36-03_094959634447_rgbf000088-resize_2-target.png,250,1.6465,0,1186,244,meters,jsons/v1_VE250_randls_29_rotated.json,368602,473628,38,Woman
111,495166,DepthScenes,duration_manipulation_targetAtFixation,jsons/v1_VE250_randls_29_rotated.json,http://54.235.29.9/FacialAge/BNav_EC2/DepthDuration/v2_depth_duration_MTurk/v2_DepthDuration_HTML.html#230,230,1366,625,1366,768,8-30-2022,7-8-12,112,depth_duration_stimuli/002805_2014-06-22_19-54-03_094959634447_rgbf000079-resize_1/002805_2014-06-22_19-54-03_094959634447_rgbf000079-resize_1-target.png,250,3.1439999999999997,0,1878,244,meters,jsons/v1_VE250_randls_29_rotated.json,368602,473628,38,Woman
112,495166,DepthScenes,duration_manipulation_targetAtFixation,jsons/v1_VE250_randls_29_rotated.json,http://54.235.29.9/FacialAge/BNav_EC2/DepthDuration/v2_depth_duration_MTurk/v2_DepthDuration_HTML.html#230,230,1366,625,1366,768,8-30-2022,7-8-12,113,depth_duration_stimuli/000906_2014-06-08_13-35-43_260595134347_rgbf000155-resize_1/000906_2014-06-08_13-35-43_260595134347_rgbf000155-resize_1-target.png,250,2.8489999999999998,0,1326,242,meters,jsons/v1_VE250_randls_29_rotated.json,368602,473628,38,Woman
113,495166,DepthScenes,duration_manipulation_targetAtFixation,jsons/v1_VE250_randls_29_rotated.json,http://54.235.29.9/FacialAge/BNav_EC2/DepthDuration/v2_depth_duration_MTurk/v2_DepthDuration_HTML.html#230,230,1366,625,1366,768,8-30-2022,7-8-12,114,depth_duration_stimuli/000103_2014-05-14_22-01-17_260595134347_rgbf000152-resize_5/000103_2014-05-14_22-01-17_260595134347_rgbf000152-resize_5-target.png,250,1.993,0,1261,245,meters,jsons/v1_VE250_randls_29_rotated.json,368602,473628,38,Woman
114,495166,DepthScenes,duration_manipulation_targetAtFixation,jsons/v1_VE250_randls_29_rotated.json,http://54.235.29.9/FacialAge/BNav_EC2/DepthDuration/v2_depth_duration_MTurk/v2_DepthDuration_HTML.html#230,230,1366,625,1366,768,8-30-2022,7-8-12,115,depth_duration_stimuli/001555_2014-06-20_17-12-10_260595134347_rgbf000065-resize_4/001555_2014-06-20_17-12-10_260595134347_rgbf000065-resize_4-target.png,250,1.633,0,1255,252,meters,jsons/v1_VE250_randls_29_rotated.json,368602,473628,38,Woman
115,495166,DepthScenes,duration_manipulation_targetAtFixation,jsons/v1_VE250_randls_29_rotated.json,http://54.235.29.9/FacialAge/BNav_EC2/DepthDuration/v2_depth_duration_MTurk/v2_DepthDuration_HTML.html#230,230,1366,625,1366,768,8-30-2022,7-8-12,116,depth_duration_stimuli/002103_2014-06-25_20-00-40_260595134347_rgbf000049-resize_0/002103_2014-06-25_20-00-40_260595134347_rgbf000049-resize_0-target.png,250,4.105,0,1275,245,meters,jsons/v1_VE250_randls_29_rotated.json,368602,473628,38,Woman
116,495166,DepthScenes,duration_manipulation_targetAtFixation,jsons/v1_VE250_randls_29_rotated.json,http://54.235.29.9/FacialAge/BNav_EC2/DepthDuration/v2_depth_duration_MTurk/v2_DepthDuration_HTML.html#230,230,1366,625,1366,768,8-30-2022,7-8-12,117,depth_duration_stimuli/002039_2014-06-24_20-22-38_260595134347_rgbf000084-resize_1/002039_2014-06-24_20-22-38_260595134347_rgbf000084-resize_1-target.png,250,4.408,0,1218,250,meters,jsons/v1_VE250_randls_29_rotated.json,368602,473628,38,Woman
117,495166,DepthScenes,duration_manipulation_targetAtFixation,jsons/v1_VE250_randls_29_rotated.json,http://54.235.29.9/FacialAge/BNav_EC2/DepthDuration/v2_depth_duration_MTurk/v2_DepthDuration_HTML.html#230,230,1366,625,1366,768,8-30-2022,7-8-12,118,depth_duration_stimuli/003129_2014-05-12_10-48-10_094959634447_rgbf000100-resize_0/003129_2014-05-12_10-48-10_094959634447_rgbf000100-resize_0-target.png,250,4.9305,0,1304,243,meters,jsons/v1_VE250_randls_29_rotated.json,368602,473628,38,Woman
118,495166,DepthScenes,duration_manipulation_targetAtFixation,jsons/v1_VE250_randls_29_rotated.json,http://54.235.29.9/FacialAge/BNav_EC2/DepthDuration/v2_depth_duration_MTurk/v2_DepthDuration_HTML.html#230,230,1366,625,1366,768,8-30-2022,7-8-12,119,depth_duration_stimuli/000414_2014-06-04_19-49-13_260595134347_rgbf000044-resize_0/000414_2014-06-04_19-49-13_260595134347_rgbf000044-resize_0-target.png,250,4.329,0,1198,251,meters,jsons/v1_VE250_randls_29_rotated.json,368602,473628,38,Woman
119,495166,DepthScenes,duration_manipulation_targetAtFixation,jsons/v1_VE250_randls_29_rotated.json,http://54.235.29.9/FacialAge/BNav_EC2/DepthDuration/v2_depth_duration_MTurk/v2_DepthDuration_HTML.html#230,230,1366,625,1366,768,8-30-2022,7-8-12,120,depth_duration_stimuli/000787_2014-06-08_22-33-53_260595134347_rgbf000175-resize_1/000787_2014-06-08_22-33-53_260595134347_rgbf000175-resize-original.jpg,250,4.784,0,1229,249,meters,jsons/v1_VE250_randls_29_rotated.json,368602,473628,38,Woman
120,495166,DepthScenes,duration_manipulation_targetAtFixation,jsons/v1_VE250_randls_29_rotated.json,http://54.235.29.9/FacialAge/BNav_EC2/DepthDuration/v2_depth_duration_MTurk/v2_DepthDuration_HTML.html#230,230,1366,625,1366,768,8-30-2022,7-8-12,121,depth_duration_stimuli/000742_2014-06-08_18-48-09_260595134347_rgbf000164-resize_4/000742_2014-06-08_18-48-09_260595134347_rgbf000164-resize_4-target.png,250,4.632,0,1576,239,meters,jsons/v1_VE250_randls_29_rotated.json,368602,473628,38,Woman
121,495166,DepthScenes,duration_manipulation_targetAtFixation,jsons/v1_VE250_randls_29_rotated.json,http://54.235.29.9/FacialAge/BNav_EC2/DepthDuration/v2_depth_duration_MTurk/v2_DepthDuration_HTML.html#230,230,1366,625,1366,768,8-30-2022,7-8-12,122,depth_duration_stimuli/001066_2014-06-08_22-03-20_260595134347_rgbf000066-resize_4/001066_2014-06-08_22-03-20_260595134347_rgbf000066-resize_4-target.png,250,4.2330000000000005,0,1412,245,meters,jsons/v1_VE250_randls_29_rotated.json,368602,473628,38,Woman
122,495166,DepthScenes,duration_manipulation_targetAtFixation,jsons/v1_VE250_randls_29_rotated.json,http://54.235.29.9/FacialAge/BNav_EC2/DepthDuration/v2_depth_duration_MTurk/v2_DepthDuration_HTML.html#230,230,1366,625,1366,768,8-30-2022,7-8-12,123,depth_duration_stimuli/002323_2014-06-28_20-01-54_260595134347_rgbf000051-resize_4/002323_2014-06-28_20-01-54_260595134347_rgbf000051-resize_4-target.png,250,3.7310000000000003,0,1177,242,meters,jsons/v1_VE250_randls_29_rotated.json,368602,473628,38,Woman
123,495166,DepthScenes,duration_manipulation_targetAtFixation,jsons/v1_VE250_randls_29_rotated.json,http://54.235.29.9/FacialAge/BNav_EC2/DepthDuration/v2_depth_duration_MTurk/v2_DepthDuration_HTML.html#230,230,1366,625,1366,768,8-30-2022,7-8-12,124,depth_duration_stimuli/000917_2014-06-09_22-45-29_260595134347_rgbf000149-resize_3/000917_2014-06-09_22-45-29_260595134347_rgbf000149-resize_3-target.png,250,4.1865,0,1569,250,meters,jsons/v1_VE250_randls_29_rotated.json,368602,473628,38,Woman
124,495166,DepthScenes,duration_manipulation_targetAtFixation,jsons/v1_VE250_randls_29_rotated.json,http://54.235.29.9/FacialAge/BNav_EC2/DepthDuration/v2_depth_duration_MTurk/v2_DepthDuration_HTML.html#230,230,1366,625,1366,768,8-30-2022,7-8-12,125,depth_duration_stimuli/002467_2014-06-28_20-38-07_260595134347_rgbf000026-resize_2/002467_2014-06-28_20-38-07_260595134347_rgbf000026-resize_2-target.png,250,4.742,0,1850,246,meters,jsons/v1_VE250_randls_29_rotated.json,368602,473628,38,Woman
125,495166,DepthScenes,duration_manipulation_targetAtFixation,jsons/v1_VE250_randls_29_rotated.json,http://54.235.29.9/FacialAge/BNav_EC2/DepthDuration/v2_depth_duration_MTurk/v2_DepthDuration_HTML.html#230,230,1366,625,1366,768,8-30-2022,7-8-12,126,depth_duration_stimuli/002570_2014-06-24_13-59-54_094959634447_rgbf000059-resize_0/002570_2014-06-24_13-59-54_094959634447_rgbf000059-resize_0-target.png,250,4.037,0,1172,244,meters,jsons/v1_VE250_randls_29_rotated.json,368602,473628,38,Woman
126,495166,DepthScenes,duration_manipulation_targetAtFixation,jsons/v1_VE250_randls_29_rotated.json,http://54.235.29.9/FacialAge/BNav_EC2/DepthDuration/v2_depth_duration_MTurk/v2_DepthDuration_HTML.html#230,230,1366,625,1366,768,8-30-2022,7-8-12,127,depth_duration_stimuli/000549_2014-06-08_22-10-24_260595134347_rgbf000247-resize_3/000549_2014-06-08_22-10-24_260595134347_rgbf000247-resize_3-target.png,250,1.841,0,1348,242,meters,jsons/v1_VE250_randls_29_rotated.json,368602,473628,38,Woman
127,495166,DepthScenes,duration_manipulation_targetAtFixation,jsons/v1_VE250_randls_29_rotated.json,http://54.235.29.9/FacialAge/BNav_EC2/DepthDuration/v2_depth_duration_MTurk/v2_DepthDuration_HTML.html#230,230,1366,625,1366,768,8-30-2022,7-8-12,128,depth_duration_stimuli/001055_2014-06-08_18-45-35_260595134347_rgbf000111-resize_4/001055_2014-06-08_18-45-35_260595134347_rgbf000111-resize_4-target.png,250,2.4290000000000003,0,1282,242,meters,jsons/v1_VE250_randls_29_rotated.json,368602,473628,38,Woman
128,495166,DepthScenes,duration_manipulation_targetAtFixation,jsons/v1_VE250_randls_29_rotated.json,http://54.235.29.9/FacialAge/BNav_EC2/DepthDuration/v2_depth_duration_MTurk/v2_DepthDuration_HTML.html#230,230,1366,625,1366,768,8-30-2022,7-8-12,129,depth_duration_stimuli/002545_2014-06-24_13-38-53_094959634447_rgbf000080-resize_4/002545_2014-06-24_13-38-53_094959634447_rgbf000080-resize_4-target.png,250,1.9205,0,1327,234,meters,jsons/v1_VE250_randls_29_rotated.json,368602,473628,38,Woman
129,495166,DepthScenes,duration_manipulation_targetAtFixation,jsons/v1_VE250_randls_29_rotated.json,http://54.235.29.9/FacialAge/BNav_EC2/DepthDuration/v2_depth_duration_MTurk/v2_DepthDuration_HTML.html#230,230,1366,625,1366,768,8-30-2022,7-8-12,130,depth_duration_stimuli/001092_2014-06-15_17-34-58_260595134347_rgbf000171-resize_3/001092_2014-06-15_17-34-58_260595134347_rgbf000171-resize_3-target.png,250,2.6935,0,1716,244,meters,jsons/v1_VE250_randls_29_rotated.json,368602,473628,38,Woman
130,495166,DepthScenes,duration_manipulation_targetAtFixation,jsons/v1_VE250_randls_29_rotated.json,http://54.235.29.9/FacialAge/BNav_EC2/DepthDuration/v2_depth_duration_MTurk/v2_DepthDuration_HTML.html#230,230,1366,625,1366,768,8-30-2022,7-8-12,131,depth_duration_stimuli/000709_2014-06-08_13-51-55_260595134347_rgbf000068-resize_3/000709_2014-06-08_13-51-55_260595134347_rgbf000068-resize_3-target.png,250,1.8030000000000002,0,1267,250,meters,jsons/v1_VE250_randls_29_rotated.json,368602,473628,38,Woman
131,495166,DepthScenes,duration_manipulation_targetAtFixation,jsons/v1_VE250_randls_29_rotated.json,http://54.235.29.9/FacialAge/BNav_EC2/DepthDuration/v2_depth_duration_MTurk/v2_DepthDuration_HTML.html#230,230,1366,625,1366,768,8-30-2022,7-8-12,132,depth_duration_stimuli/002057_2014-06-24_21-00-13_260595134347_rgbf000120-resize_1/002057_2014-06-24_21-00-13_260595134347_rgbf000120-resize_1-target.png,250,2.967,0,1248,244,meters,jsons/v1_VE250_randls_29_rotated.json,368602,473628,38,Woman
132,495166,DepthScenes,duration_manipulation_targetAtFixation,jsons/v1_VE250_randls_29_rotated.json,http://54.235.29.9/FacialAge/BNav_EC2/DepthDuration/v2_depth_duration_MTurk/v2_DepthDuration_HTML.html#230,230,1366,625,1366,768,8-30-2022,7-8-12,133,depth_duration_stimuli/001052_2014-06-08_18-24-54_260595134347_rgbf000130-resize_1/001052_2014-06-08_18-24-54_260595134347_rgbf000130-resize_1-target.png,250,4.1045,0,1536,253,meters,jsons/v1_VE250_randls_29_rotated.json,368602,473628,38,Woman
133,495166,DepthScenes,duration_manipulation_targetAtFixation,jsons/v1_VE250_randls_29_rotated.json,http://54.235.29.9/FacialAge/BNav_EC2/DepthDuration/v2_depth_duration_MTurk/v2_DepthDuration_HTML.html#230,230,1366,625,1366,768,8-30-2022,7-8-12,134,depth_duration_stimuli/002988_2014-06-15_12-24-20_094959634447_rgbf000150-resize_1/002988_2014-06-15_12-24-20_094959634447_rgbf000150-resize_1-target.png,250,4.7669999999999995,0,1412,252,meters,jsons/v1_VE250_randls_29_rotated.json,368602,473628,38,Woman
134,495166,DepthScenes,duration_manipulation_targetAtFixation,jsons/v1_VE250_randls_29_rotated.json,http://54.235.29.9/FacialAge/BNav_EC2/DepthDuration/v2_depth_duration_MTurk/v2_DepthDuration_HTML.html#230,230,1366,625,1366,768,8-30-2022,7-8-12,135,depth_duration_stimuli/000375_2014-06-08_11-17-29_260595134347_rgbf000133-resize_2/000375_2014-06-08_11-17-29_260595134347_rgbf000133-resize-original.jpg,250,4.718,0,1256,248,meters,jsons/v1_VE250_randls_29_rotated.json,368602,473628,38,Woman
135,495166,DepthScenes,duration_manipulation_targetAtFixation,jsons/v1_VE250_randls_29_rotated.json,http://54.235.29.9/FacialAge/BNav_EC2/DepthDuration/v2_depth_duration_MTurk/v2_DepthDuration_HTML.html#230,230,1366,625,1366,768,8-30-2022,7-8-12,136,depth_duration_stimuli/001094_2014-06-15_17-36-00_260595134347_rgbf000205-resize_0/001094_2014-06-15_17-36-00_260595134347_rgbf000205-resize_0-target.png,250,4.2175,0,1139,236,meters,jsons/v1_VE250_randls_29_rotated.json,368602,473628,38,Woman
136,495166,DepthScenes,duration_manipulation_targetAtFixation,jsons/v1_VE250_randls_29_rotated.json,http://54.235.29.9/FacialAge/BNav_EC2/DepthDuration/v2_depth_duration_MTurk/v2_DepthDuration_HTML.html#230,230,1366,625,1366,768,8-30-2022,7-8-12,137,depth_duration_stimuli/000692_2014-06-08_13-09-42_260595134347_rgbf000199-resize_2/000692_2014-06-08_13-09-42_260595134347_rgbf000199-resize_2-target.png,250,3.661,0,1177,254,meters,jsons/v1_VE250_randls_29_rotated.json,368602,473628,38,Woman
137,495166,DepthScenes,duration_manipulation_targetAtFixation,jsons/v1_VE250_randls_29_rotated.json,http://54.235.29.9/FacialAge/BNav_EC2/DepthDuration/v2_depth_duration_MTurk/v2_DepthDuration_HTML.html#230,230,1366,625,1366,768,8-30-2022,7-8-12,138,depth_duration_stimuli/000691_2014-06-08_13-08-50_260595134347_rgbf000132-resize_3/000691_2014-06-08_13-08-50_260595134347_rgbf000132-resize_3-target.png,250,4.1530000000000005,0,1135,246,meters,jsons/v1_VE250_randls_29_rotated.json,368602,473628,38,Woman
138,495166,DepthScenes,duration_manipulation_targetAtFixation,jsons/v1_VE250_randls_29_rotated.json,http://54.235.29.9/FacialAge/BNav_EC2/DepthDuration/v2_depth_duration_MTurk/v2_DepthDuration_HTML.html#230,230,1366,625,1366,768,8-30-2022,7-8-12,139,depth_duration_stimuli/002213_2014-06-28_18-37-58_260595134347_rgbf000055-resize_1/002213_2014-06-28_18-37-58_260595134347_rgbf000055-resize_1-target.png,250,3.62,0,1345,252,meters,jsons/v1_VE250_randls_29_rotated.json,368602,473628,38,Woman
139,495166,DepthScenes,duration_manipulation_targetAtFixation,jsons/v1_VE250_randls_29_rotated.json,http://54.235.29.9/FacialAge/BNav_EC2/DepthDuration/v2_depth_duration_MTurk/v2_DepthDuration_HTML.html#230,230,1366,625,1366,768,8-30-2022,7-8-12,140,depth_duration_stimuli/001136_2014-06-17_15-19-41_260595134347_rgbf000076-resize_3/001136_2014-06-17_15-19-41_260595134347_rgbf000076-resize_3-target.png,250,1.8655,0,1191,251,meters,jsons/v1_VE250_randls_29_rotated.json,368602,473628,38,Woman
140,495166,DepthScenes,duration_manipulation_targetAtFixation,jsons/v1_VE250_randls_29_rotated.json,http://54.235.29.9/FacialAge/BNav_EC2/DepthDuration/v2_depth_duration_MTurk/v2_DepthDuration_HTML.html#230,230,1366,625,1366,768,8-30-2022,7-8-12,141,depth_duration_stimuli/001164_2014-06-17_15-35-46_260595134347_rgbf000085-resize_3/001164_2014-06-17_15-35-46_260595134347_rgbf000085-resize_3-target.png,250,2.354,0,1274,247,meters,jsons/v1_VE250_randls_29_rotated.json,368602,473628,38,Woman
141,495166,DepthScenes,duration_manipulation_targetAtFixation,jsons/v1_VE250_randls_29_rotated.json,http://54.235.29.9/FacialAge/BNav_EC2/DepthDuration/v2_depth_duration_MTurk/v2_DepthDuration_HTML.html#230,230,1366,625,1366,768,8-30-2022,7-8-12,142,depth_duration_stimuli/003490_2014-05-21_15-50-11_094959634447_rgbf000101-resize_3/003490_2014-05-21_15-50-11_094959634447_rgbf000101-resize_3-target.png,250,3.6445,0,1323,254,meters,jsons/v1_VE250_randls_29_rotated.json,368602,473628,38,Woman
142,495166,DepthScenes,duration_manipulation_targetAtFixation,jsons/v1_VE250_randls_29_rotated.json,http://54.235.29.9/FacialAge/BNav_EC2/DepthDuration/v2_depth_duration_MTurk/v2_DepthDuration_HTML.html#230,230,1366,625,1366,768,8-30-2022,7-8-12,143,depth_duration_stimuli/001175_2014-06-17_15-45-55_260595134347_rgbf000129-resize_4/001175_2014-06-17_15-45-55_260595134347_rgbf000129-resize_4-target.png,250,4.255,0,1262,232,meters,jsons/v1_VE250_randls_29_rotated.json,368602,473628,38,Woman
143,495166,DepthScenes,duration_manipulation_targetAtFixation,jsons/v1_VE250_randls_29_rotated.json,http://54.235.29.9/FacialAge/BNav_EC2/DepthDuration/v2_depth_duration_MTurk/v2_DepthDuration_HTML.html#230,230,1366,625,1366,768,8-30-2022,7-8-12,144,depth_duration_stimuli/002750_2014-06-22_19-08-03_094959634447_rgbf000094-resize_4/002750_2014-06-22_19-08-03_094959634447_rgbf000094-resize_4-target.png,250,2.354,0,1362,247,meters,jsons/v1_VE250_randls_29_rotated.json,368602,473628,38,Woman
144,495166,DepthScenes,duration_manipulation_targetAtFixation,jsons/v1_VE250_randls_29_rotated.json,http://54.235.29.9/FacialAge/BNav_EC2/DepthDuration/v2_depth_duration_MTurk/v2_DepthDuration_HTML.html#230,230,1366,625,1366,768,8-30-2022,7-8-12,145,depth_duration_stimuli/002549_2014-06-24_13-41-39_094959634447_rgbf000022-resize_3/002549_2014-06-24_13-41-39_094959634447_rgbf000022-resize_3-target.png,250,1.476,0,1278,244,meters,jsons/v1_VE250_randls_29_rotated.json,368602,473628,38,Woman
145,495166,DepthScenes,duration_manipulation_targetAtFixation,jsons/v1_VE250_randls_29_rotated.json,http://54.235.29.9/FacialAge/BNav_EC2/DepthDuration/v2_depth_duration_MTurk/v2_DepthDuration_HTML.html#230,230,1366,625,1366,768,8-30-2022,7-8-12,146,depth_duration_stimuli/002637_2014-06-24_14-51-13_094959634447_rgbf000066-resize_4/002637_2014-06-24_14-51-13_094959634447_rgbf000066-resize_4-target.png,250,1.9955,0,1232,245,meters,jsons/v1_VE250_randls_29_rotated.json,368602,473628,38,Woman
146,495166,DepthScenes,duration_manipulation_targetAtFixation,jsons/v1_VE250_randls_29_rotated.json,http://54.235.29.9/FacialAge/BNav_EC2/DepthDuration/v2_depth_duration_MTurk/v2_DepthDuration_HTML.html#230,230,1366,625,1366,768,8-30-2022,7-8-12,147,depth_duration_stimuli/003534_2014-05-22_15-06-10_094959634447_rgbf000102-resize_4/003534_2014-05-22_15-06-10_094959634447_rgbf000102-resize_4-target.png,250,1.426,0,1174,252,meters,jsons/v1_VE250_randls_29_rotated.json,368602,473628,38,Woman
147,495166,DepthScenes,duration_manipulation_targetAtFixation,jsons/v1_VE250_randls_29_rotated.json,http://54.235.29.9/FacialAge/BNav_EC2/DepthDuration/v2_depth_duration_MTurk/v2_DepthDuration_HTML.html#230,230,1366,625,1366,768,8-30-2022,7-8-12,148,depth_duration_stimuli/001584_2014-06-20_11-07-43_260595134347_rgbf000002-resize_1/001584_2014-06-20_11-07-43_260595134347_rgbf000002-resize_1-target.png,250,3.53,0,1233,218,meters,jsons/v1_VE250_randls_29_rotated.json,368602,473628,38,Woman
148,495166,DepthScenes,duration_manipulation_targetAtFixation,jsons/v1_VE250_randls_29_rotated.json,http://54.235.29.9/FacialAge/BNav_EC2/DepthDuration/v2_depth_duration_MTurk/v2_DepthDuration_HTML.html#230,230,1366,625,1366,768,8-30-2022,7-8-12,149,depth_duration_stimuli/003621_2014-05-23_18-06-08_094959634447_rgbf000101-resize_1/003621_2014-05-23_18-06-08_094959634447_rgbf000101-resize_1-target.png,250,3.9835,0,1383,242,meters,jsons/v1_VE250_randls_29_rotated.json,368602,473628,38,Woman
149,495166,DepthScenes,duration_manipulation_targetAtFixation,jsons/v1_VE250_randls_29_rotated.json,http://54.235.29.9/FacialAge/BNav_EC2/DepthDuration/v2_depth_duration_MTurk/v2_DepthDuration_HTML.html#230,230,1366,625,1366,768,8-30-2022,7-8-12,150,depth_duration_stimuli/000780_2014-06-08_22-28-29_260595134347_rgbf000126-resize_1/000780_2014-06-08_22-28-29_260595134347_rgbf000126-resize_1-target.png,250,3.3825,0,1502,250,meters,jsons/v1_VE250_randls_29_rotated.json,368602,473628,38,Woman
150,495166,DepthScenes,duration_manipulation_targetAtFixation,jsons/v1_VE250_randls_29_rotated.json,http://54.235.29.9/FacialAge/BNav_EC2/DepthDuration/v2_depth_duration_MTurk/v2_DepthDuration_HTML.html#230,230,1366,625,1366,768,8-30-2022,7-8-12,151,depth_duration_stimuli/002445_2014-06-28_20-32-16_260595134347_rgbf000029-resize_4/002445_2014-06-28_20-32-16_260595134347_rgbf000029-resize_4-target.png,250,2.5315,0,1137,242,meters,jsons/v1_VE250_randls_29_rotated.json,368602,473628,38,Woman
151,495166,DepthScenes,duration_manipulation_targetAtFixation,jsons/v1_VE250_randls_29_rotated.json,http://54.235.29.9/FacialAge/BNav_EC2/DepthDuration/v2_depth_duration_MTurk/v2_DepthDuration_HTML.html#230,230,1366,625,1366,768,8-30-2022,7-8-12,152,depth_duration_stimuli/000569_2014-06-09_22-51-47_260595134347_rgbf000141-resize_3/000569_2014-06-09_22-51-47_260595134347_rgbf000141-resize-original.jpg,250,4.512,0,1168,254,meters,jsons/v1_VE250_randls_29_rotated.json,368602,473628,38,Woman
152,495166,DepthScenes,duration_manipulation_targetAtFixation,jsons/v1_VE250_randls_29_rotated.json,http://54.235.29.9/FacialAge/BNav_EC2/DepthDuration/v2_depth_duration_MTurk/v2_DepthDuration_HTML.html#230,230,1366,625,1366,768,8-30-2022,7-8-12,153,depth_duration_stimuli/002678_2014-06-13_16-15-32_094959634447_rgbf000151-resize_6/002678_2014-06-13_16-15-32_094959634447_rgbf000151-resize_6-target.png,250,2.1830000000000003,0,1142,246,meters,jsons/v1_VE250_randls_29_rotated.json,368602,473628,38,Woman
153,495166,DepthScenes,duration_manipulation_targetAtFixation,jsons/v1_VE250_randls_29_rotated.json,http://54.235.29.9/FacialAge/BNav_EC2/DepthDuration/v2_depth_duration_MTurk/v2_DepthDuration_HTML.html#230,230,1366,625,1366,768,8-30-2022,7-8-12,154,depth_duration_stimuli/000368_2014-06-09_15-53-01_260595134347_rgbf000155-resize_2/000368_2014-06-09_15-53-01_260595134347_rgbf000155-resize_2-target.png,250,2.4859999999999998,0,1182,244,meters,jsons/v1_VE250_randls_29_rotated.json,368602,473628,38,Woman
154,495166,DepthScenes,duration_manipulation_targetAtFixation,jsons/v1_VE250_randls_29_rotated.json,http://54.235.29.9/FacialAge/BNav_EC2/DepthDuration/v2_depth_duration_MTurk/v2_DepthDuration_HTML.html#230,230,1366,625,1366,768,8-30-2022,7-8-12,155,depth_duration_stimuli/000191_2014-05-12_17-07-38_260595134347_rgbf000199-resize_0/000191_2014-05-12_17-07-38_260595134347_rgbf000199-resize_0-target.png,250,3.7995,0,1548,252,meters,jsons/v1_VE250_randls_29_rotated.json,368602,473628,38,Woman
155,495166,DepthScenes,duration_manipulation_targetAtFixation,jsons/v1_VE250_randls_29_rotated.json,http://54.235.29.9/FacialAge/BNav_EC2/DepthDuration/v2_depth_duration_MTurk/v2_DepthDuration_HTML.html#230,230,1366,625,1366,768,8-30-2022,7-8-12,156,depth_duration_stimuli/000493_2014-06-09_21-01-18_260595134347_rgbf000196-resize_3/000493_2014-06-09_21-01-18_260595134347_rgbf000196-resize_3-target.png,250,3.44,0,1138,238,meters,jsons/v1_VE250_randls_29_rotated.json,368602,473628,38,Woman
156,495166,DepthScenes,duration_manipulation_targetAtFixation,jsons/v1_VE250_randls_29_rotated.json,http://54.235.29.9/FacialAge/BNav_EC2/DepthDuration/v2_depth_duration_MTurk/v2_DepthDuration_HTML.html#230,230,1366,625,1366,768,8-30-2022,7-8-12,157,depth_duration_stimuli/000677_2014-06-08_23-10-32_260595134347_rgbf000158-resize_6/000677_2014-06-08_23-10-32_260595134347_rgbf000158-resize_6-target.png,250,3.556,0,1228,242,meters,jsons/v1_VE250_randls_29_rotated.json,368602,473628,38,Woman
157,495166,DepthScenes,duration_manipulation_targetAtFixation,jsons/v1_VE250_randls_29_rotated.json,http://54.235.29.9/FacialAge/BNav_EC2/DepthDuration/v2_depth_duration_MTurk/v2_DepthDuration_HTML.html#230,230,1366,625,1366,768,8-30-2022,7-8-12,158,depth_duration_stimuli/001029_2014-06-08_13-17-57_260595134347_rgbf000065-resize_1/001029_2014-06-08_13-17-57_260595134347_rgbf000065-resize_1-target.png,250,3.0835,0,1157,246,meters,jsons/v1_VE250_randls_29_rotated.json,368602,473628,38,Woman
158,495166,DepthScenes,duration_manipulation_targetAtFixation,jsons/v1_VE250_randls_29_rotated.json,http://54.235.29.9/FacialAge/BNav_EC2/DepthDuration/v2_depth_duration_MTurk/v2_DepthDuration_HTML.html#230,230,1366,625,1366,768,8-30-2022,7-8-12,159,depth_duration_stimuli/002568_2014-06-24_13-59-21_094959634447_rgbf000062-resize_4/002568_2014-06-24_13-59-21_094959634447_rgbf000062-resize_4-target.png,250,3.015,0,1312,245,meters,jsons/v1_VE250_randls_29_rotated.json,368602,473628,38,Woman
159,495166,DepthScenes,duration_manipulation_targetAtFixation,jsons/v1_VE250_randls_29_rotated.json,http://54.235.29.9/FacialAge/BNav_EC2/DepthDuration/v2_depth_duration_MTurk/v2_DepthDuration_HTML.html#230,230,1366,625,1366,768,8-30-2022,7-8-12,160,depth_duration_stimuli/003492_2014-05-21_15-50-55_094959634447_rgbf000828-resize_1/003492_2014-05-21_15-50-55_094959634447_rgbf000828-resize_1-target.png,250,4.06875,0,3588,251,meters,jsons/v1_VE250_randls_29_rotated.json,368602,473628,38,Woman
160,495166,DepthScenes,duration_manipulation_targetAtFixation,jsons/v1_VE250_randls_29_rotated.json,http://54.235.29.9/FacialAge/BNav_EC2/DepthDuration/v2_depth_duration_MTurk/v2_DepthDuration_HTML.html#230,230,1366,625,1366,768,8-30-2022,7-8-12,161,depth_duration_stimuli/000556_2014-06-09_22-42-56_260595134347_rgbf000214-resize_1/000556_2014-06-09_22-42-56_260595134347_rgbf000214-resize_1-target.png,250,4.8415,0,1563,250,meters,jsons/v1_VE250_randls_29_rotated.json,368602,473628,38,Woman
161,495166,DepthScenes,duration_manipulation_targetAtFixation,jsons/v1_VE250_randls_29_rotated.json,http://54.235.29.9/FacialAge/BNav_EC2/DepthDuration/v2_depth_duration_MTurk/v2_DepthDuration_HTML.html#230,230,1366,625,1366,768,8-30-2022,7-8-12,162,depth_duration_stimuli/001158_2014-06-17_15-32-16_260595134347_rgbf000138-resize_2/001158_2014-06-17_15-32-16_260595134347_rgbf000138-resize_2-target.png,250,4.5315,0,1222,246,meters,jsons/v1_VE250_randls_29_rotated.json,368602,473628,38,Woman
162,495166,DepthScenes,duration_manipulation_targetAtFixation,jsons/v1_VE250_randls_29_rotated.json,http://54.235.29.9/FacialAge/BNav_EC2/DepthDuration/v2_depth_duration_MTurk/v2_DepthDuration_HTML.html#230,230,1366,625,1366,768,8-30-2022,7-8-12,163,depth_duration_stimuli/003083_2014-06-15_15-21-03_094959634447_rgbf000063-resize_1/003083_2014-06-15_15-21-03_094959634447_rgbf000063-resize_1-target.png,250,4.1405,0,1771,250,meters,jsons/v1_VE250_randls_29_rotated.json,368602,473628,38,Woman
163,495166,DepthScenes,duration_manipulation_targetAtFixation,jsons/v1_VE250_randls_29_rotated.json,http://54.235.29.9/FacialAge/BNav_EC2/DepthDuration/v2_depth_duration_MTurk/v2_DepthDuration_HTML.html#230,230,1366,625,1366,768,8-30-2022,7-8-12,164,depth_duration_stimuli/000486_2014-06-09_20-47-20_260595134347_rgbf000143-resize_2/000486_2014-06-09_20-47-20_260595134347_rgbf000143-resize_2-target.png,250,4.8325,0,1669,242,meters,jsons/v1_VE250_randls_29_rotated.json,368602,473628,38,Woman
