,subjID,experimentName,versionName,sequenceName,url,selected_row,windowWidth,windowHeight,screenWidth,screenHeight,startDate,startTime,trial,stimulus,duration,actual_depth,depth_estimate,trial_RT,log_sceneDuration,unitSelection,seq_filepath,experimentTime,totalTime,age,gender
0,497238,DepthScenes,duration_manipulation_targetAtFixation,jsons/v1_VE1000_randls_21_rotated.json,http://54.235.29.9/FacialAge/BNav_EC2/DepthDuration/v2_depth_duration_MTurk/v2_DepthDuration_HTML.html#87,87,1366,625,1366,768,8-22-2022,6-59-17,1,depth_duration_stimuli/002949_2014-06-26_15-57-42_094959634447_rgbf000079-resize_1/002949_2014-06-26_15-57-42_094959634447_rgbf000079-resize_1-target.png,1000,1.8915,3,5473,996,feet,jsons/v1_VE1000_randls_21_rotated.json,955795,1246577,55,Woman
1,497238,DepthScenes,duration_manipulation_targetAtFixation,jsons/v1_VE1000_randls_21_rotated.json,http://54.235.29.9/FacialAge/BNav_EC2/DepthDuration/v2_depth_duration_MTurk/v2_DepthDuration_HTML.html#87,87,1366,625,1366,768,8-22-2022,6-59-17,2,depth_duration_stimuli/000522_2014-06-08_13-35-06_260595134347_rgbf000244-resize_1/000522_2014-06-08_13-35-06_260595134347_rgbf000244-resize_1-target.png,1000,2.3715,2,4861,992,feet,jsons/v1_VE1000_randls_21_rotated.json,955795,1246577,55,Woman
2,497238,DepthScenes,duration_manipulation_targetAtFixation,jsons/v1_VE1000_randls_21_rotated.json,http://54.235.29.9/FacialAge/BNav_EC2/DepthDuration/v2_depth_duration_MTurk/v2_DepthDuration_HTML.html#87,87,1366,625,1366,768,8-22-2022,6-59-17,3,depth_duration_stimuli/003129_2014-05-12_10-48-10_094959634447_rgbf000100-resize_0/003129_2014-05-12_10-48-10_094959634447_rgbf000100-resize_0-target.png,1000,4.9305,12,6540,953,feet,jsons/v1_VE1000_randls_21_rotated.json,955795,1246577,55,Woman
3,497238,DepthScenes,duration_manipulation_targetAtFixation,jsons/v1_VE1000_randls_21_rotated.json,http://54.235.29.9/FacialAge/BNav_EC2/DepthDuration/v2_depth_duration_MTurk/v2_DepthDuration_HTML.html#87,87,1366,625,1366,768,8-22-2022,6-59-17,4,depth_duration_stimuli/000414_2014-06-04_19-49-13_260595134347_rgbf000044-resize_0/000414_2014-06-04_19-49-13_260595134347_rgbf000044-resize_0-target.png,1000,4.329,11,5848,1000,feet,jsons/v1_VE1000_randls_21_rotated.json,955795,1246577,55,Woman
4,497238,DepthScenes,duration_manipulation_targetAtFixation,jsons/v1_VE1000_randls_21_rotated.json,http://54.235.29.9/FacialAge/BNav_EC2/DepthDuration/v2_depth_duration_MTurk/v2_DepthDuration_HTML.html#87,87,1366,625,1366,768,8-22-2022,6-59-17,5,depth_duration_stimuli/000635_2014-06-08_16-38-42_260595134347_rgbf000106-resize_1/000635_2014-06-08_16-38-42_260595134347_rgbf000106-resize_1-target.png,1000,2.074,4,8477,1010,feet,jsons/v1_VE1000_randls_21_rotated.json,955795,1246577,55,Woman
5,497238,DepthScenes,duration_manipulation_targetAtFixation,jsons/v1_VE1000_randls_21_rotated.json,http://54.235.29.9/FacialAge/BNav_EC2/DepthDuration/v2_depth_duration_MTurk/v2_DepthDuration_HTML.html#87,87,1366,625,1366,768,8-22-2022,6-59-17,6,depth_duration_stimuli/002279_2014-06-28_18-55-32_260595134347_rgbf000040-resize_5/002279_2014-06-28_18-55-32_260595134347_rgbf000040-resize_5-target.png,1000,1.5043333333333,2,4457,1004,feet,jsons/v1_VE1000_randls_21_rotated.json,955795,1246577,55,Woman
6,497238,DepthScenes,duration_manipulation_targetAtFixation,jsons/v1_VE1000_randls_21_rotated.json,http://54.235.29.9/FacialAge/BNav_EC2/DepthDuration/v2_depth_duration_MTurk/v2_DepthDuration_HTML.html#87,87,1366,625,1366,768,8-22-2022,6-59-17,7,depth_duration_stimuli/000457_2014-06-08_16-52-43_260595134347_rgbf000199-resize_1/000457_2014-06-08_16-52-43_260595134347_rgbf000199-resize_1-target.png,1000,3.6489999999999996,7,6496,1025,feet,jsons/v1_VE1000_randls_21_rotated.json,955795,1246577,55,Woman
7,497238,DepthScenes,duration_manipulation_targetAtFixation,jsons/v1_VE1000_randls_21_rotated.json,http://54.235.29.9/FacialAge/BNav_EC2/DepthDuration/v2_depth_duration_MTurk/v2_DepthDuration_HTML.html#87,87,1366,625,1366,768,8-22-2022,6-59-17,8,depth_duration_stimuli/000929_2014-06-09_16-33-19_260595134347_rgbf000139-resize_0/000929_2014-06-09_16-33-19_260595134347_rgbf000139-resize_0-target.png,1000,2.8680000000000003,5,4331,987,feet,jsons/v1_VE1000_randls_21_rotated.json,955795,1246577,55,Woman
8,497238,DepthScenes,duration_manipulation_targetAtFixation,jsons/v1_VE1000_randls_21_rotated.json,http://54.235.29.9/FacialAge/BNav_EC2/DepthDuration/v2_depth_duration_MTurk/v2_DepthDuration_HTML.html#87,87,1366,625,1366,768,8-22-2022,6-59-17,9,depth_duration_stimuli/001214_2014-06-17_16-13-55_260595134347_rgbf000111-resize_0/001214_2014-06-17_16-13-55_260595134347_rgbf000111-resize_0-target.png,1000,2.6505,5,4396,996,feet,jsons/v1_VE1000_randls_21_rotated.json,955795,1246577,55,Woman
9,497238,DepthScenes,duration_manipulation_targetAtFixation,jsons/v1_VE1000_randls_21_rotated.json,http://54.235.29.9/FacialAge/BNav_EC2/DepthDuration/v2_depth_duration_MTurk/v2_DepthDuration_HTML.html#87,87,1366,625,1366,768,8-22-2022,6-59-17,10,depth_duration_stimuli/000810_2014-06-08_17-20-01_260595134347_rgbf000105-resize_0/000810_2014-06-08_17-20-01_260595134347_rgbf000105-resize_0-target.png,1000,1.4865,3,4791,990,feet,jsons/v1_VE1000_randls_21_rotated.json,955795,1246577,55,Woman
10,497238,DepthScenes,duration_manipulation_targetAtFixation,jsons/v1_VE1000_randls_21_rotated.json,http://54.235.29.9/FacialAge/BNav_EC2/DepthDuration/v2_depth_duration_MTurk/v2_DepthDuration_HTML.html#87,87,1366,625,1366,768,8-22-2022,6-59-17,11,depth_duration_stimuli/002758_2014-06-22_19-11-20_094959634447_rgbf000128-resize_1/002758_2014-06-22_19-11-20_094959634447_rgbf000128-resize_1-target.png,1000,2.555,6,7290,997,feet,jsons/v1_VE1000_randls_21_rotated.json,955795,1246577,55,Woman
11,497238,DepthScenes,duration_manipulation_targetAtFixation,jsons/v1_VE1000_randls_21_rotated.json,http://54.235.29.9/FacialAge/BNav_EC2/DepthDuration/v2_depth_duration_MTurk/v2_DepthDuration_HTML.html#87,87,1366,625,1366,768,8-22-2022,6-59-17,12,depth_duration_stimuli/002630_2014-06-24_14-47-50_094959634447_rgbf000055-resize_1/002630_2014-06-24_14-47-50_094959634447_rgbf000055-resize_1-target.png,1000,3.0095,8,5606,987,feet,jsons/v1_VE1000_randls_21_rotated.json,955795,1246577,55,Woman
12,497238,DepthScenes,duration_manipulation_targetAtFixation,jsons/v1_VE1000_randls_21_rotated.json,http://54.235.29.9/FacialAge/BNav_EC2/DepthDuration/v2_depth_duration_MTurk/v2_DepthDuration_HTML.html#87,87,1366,625,1366,768,8-22-2022,6-59-17,13,depth_duration_stimuli/000502_2014-06-08_23-02-32_260595134347_rgbf000063-resize_4/000502_2014-06-08_23-02-32_260595134347_rgbf000063-resize_4-target.png,1000,2.431,4,5899,995,feet,jsons/v1_VE1000_randls_21_rotated.json,955795,1246577,55,Woman
13,497238,DepthScenes,duration_manipulation_targetAtFixation,jsons/v1_VE1000_randls_21_rotated.json,http://54.235.29.9/FacialAge/BNav_EC2/DepthDuration/v2_depth_duration_MTurk/v2_DepthDuration_HTML.html#87,87,1366,625,1366,768,8-22-2022,6-59-17,14,depth_duration_stimuli/001199_2014-06-17_16-03-48_260595134347_rgbf000077-resize_0/001199_2014-06-17_16-03-48_260595134347_rgbf000077-resize_0-target.png,1000,3.4375,9,5607,988,feet,jsons/v1_VE1000_randls_21_rotated.json,955795,1246577,55,Woman
14,497238,DepthScenes,duration_manipulation_targetAtFixation,jsons/v1_VE1000_randls_21_rotated.json,http://54.235.29.9/FacialAge/BNav_EC2/DepthDuration/v2_depth_duration_MTurk/v2_DepthDuration_HTML.html#87,87,1366,625,1366,768,8-22-2022,6-59-17,15,depth_duration_stimuli/001094_2014-06-15_17-36-00_260595134347_rgbf000205-resize_0/001094_2014-06-15_17-36-00_260595134347_rgbf000205-resize_0-target.png,1000,4.2175,6,5149,1021,feet,jsons/v1_VE1000_randls_21_rotated.json,955795,1246577,55,Woman
15,497238,DepthScenes,duration_manipulation_targetAtFixation,jsons/v1_VE1000_randls_21_rotated.json,http://54.235.29.9/FacialAge/BNav_EC2/DepthDuration/v2_depth_duration_MTurk/v2_DepthDuration_HTML.html#87,87,1366,625,1366,768,8-22-2022,6-59-17,16,depth_duration_stimuli/000692_2014-06-08_13-09-42_260595134347_rgbf000199-resize_2/000692_2014-06-08_13-09-42_260595134347_rgbf000199-resize_2-target.png,1000,3.661,19,8632,996,feet,jsons/v1_VE1000_randls_21_rotated.json,955795,1246577,55,Woman
16,497238,DepthScenes,duration_manipulation_targetAtFixation,jsons/v1_VE1000_randls_21_rotated.json,http://54.235.29.9/FacialAge/BNav_EC2/DepthDuration/v2_depth_duration_MTurk/v2_DepthDuration_HTML.html#87,87,1366,625,1366,768,8-22-2022,6-59-17,17,depth_duration_stimuli/001100_2014-06-15_17-46-26_260595134347_rgbf000225-resize_2/001100_2014-06-15_17-46-26_260595134347_rgbf000225-resize_2-target.png,1000,2.24,2,4557,991,feet,jsons/v1_VE1000_randls_21_rotated.json,955795,1246577,55,Woman
17,497238,DepthScenes,duration_manipulation_targetAtFixation,jsons/v1_VE1000_randls_21_rotated.json,http://54.235.29.9/FacialAge/BNav_EC2/DepthDuration/v2_depth_duration_MTurk/v2_DepthDuration_HTML.html#87,87,1366,625,1366,768,8-22-2022,6-59-17,18,depth_duration_stimuli/002784_2014-06-22_19-26-30_094959634447_rgbf000083-resize_3/002784_2014-06-22_19-26-30_094959634447_rgbf000083-resize_3-target.png,1000,1.8046666666667,4,5178,996,feet,jsons/v1_VE1000_randls_21_rotated.json,955795,1246577,55,Woman
18,497238,DepthScenes,duration_manipulation_targetAtFixation,jsons/v1_VE1000_randls_21_rotated.json,http://54.235.29.9/FacialAge/BNav_EC2/DepthDuration/v2_depth_duration_MTurk/v2_DepthDuration_HTML.html#87,87,1366,625,1366,768,8-22-2022,6-59-17,19,depth_duration_stimuli/001498_2014-06-19_17-45-14_260595134347_rgbf000129-resize_4/001498_2014-06-19_17-45-14_260595134347_rgbf000129-resize-original.jpg,1000,1.4075,0,6600,985,feet,jsons/v1_VE1000_randls_21_rotated.json,955795,1246577,55,Woman
19,497238,DepthScenes,duration_manipulation_targetAtFixation,jsons/v1_VE1000_randls_21_rotated.json,http://54.235.29.9/FacialAge/BNav_EC2/DepthDuration/v2_depth_duration_MTurk/v2_DepthDuration_HTML.html#87,87,1366,625,1366,768,8-22-2022,6-59-17,20,depth_duration_stimuli/003079_2014-06-15_15-18-20_094959634447_rgbf000152-resize_8/003079_2014-06-15_15-18-20_094959634447_rgbf000152-resize_8-target.png,1000,2.8775,7,4992,1007,feet,jsons/v1_VE1000_randls_21_rotated.json,955795,1246577,55,Woman
20,497238,DepthScenes,duration_manipulation_targetAtFixation,jsons/v1_VE1000_randls_21_rotated.json,http://54.235.29.9/FacialAge/BNav_EC2/DepthDuration/v2_depth_duration_MTurk/v2_DepthDuration_HTML.html#87,87,1366,625,1366,768,8-22-2022,6-59-17,21,depth_duration_stimuli/000506_2014-06-08_23-21-00_260595134347_rgbf000070-resize_7/000506_2014-06-08_23-21-00_260595134347_rgbf000070-resize_7-target.png,1000,4.0585,5,4899,1001,feet,jsons/v1_VE1000_randls_21_rotated.json,955795,1246577,55,Woman
21,497238,DepthScenes,duration_manipulation_targetAtFixation,jsons/v1_VE1000_randls_21_rotated.json,http://54.235.29.9/FacialAge/BNav_EC2/DepthDuration/v2_depth_duration_MTurk/v2_DepthDuration_HTML.html#87,87,1366,625,1366,768,8-22-2022,6-59-17,22,depth_duration_stimuli/001617_2014-06-20_11-35-32_260595134347_rgbf000066-resize_1/001617_2014-06-20_11-35-32_260595134347_rgbf000066-resize_1-target.png,1000,3.7910000000000004,7,5526,1000,feet,jsons/v1_VE1000_randls_21_rotated.json,955795,1246577,55,Woman
22,497238,DepthScenes,duration_manipulation_targetAtFixation,jsons/v1_VE1000_randls_21_rotated.json,http://54.235.29.9/FacialAge/BNav_EC2/DepthDuration/v2_depth_duration_MTurk/v2_DepthDuration_HTML.html#87,87,1366,625,1366,768,8-22-2022,6-59-17,23,depth_duration_stimuli/001806_2014-06-26_20-50-20_260595134347_rgbf000091-resize_1/001806_2014-06-26_20-50-20_260595134347_rgbf000091-resize_1-target.png,1000,2.7305,3,6636,1003,feet,jsons/v1_VE1000_randls_21_rotated.json,955795,1246577,55,Woman
23,497238,DepthScenes,duration_manipulation_targetAtFixation,jsons/v1_VE1000_randls_21_rotated.json,http://54.235.29.9/FacialAge/BNav_EC2/DepthDuration/v2_depth_duration_MTurk/v2_DepthDuration_HTML.html#87,87,1366,625,1366,768,8-22-2022,6-59-17,24,depth_duration_stimuli/000691_2014-06-08_13-08-50_260595134347_rgbf000132-resize_3/000691_2014-06-08_13-08-50_260595134347_rgbf000132-resize_3-target.png,1000,4.1530000000000005,7,4616,987,feet,jsons/v1_VE1000_randls_21_rotated.json,955795,1246577,55,Woman
24,497238,DepthScenes,duration_manipulation_targetAtFixation,jsons/v1_VE1000_randls_21_rotated.json,http://54.235.29.9/FacialAge/BNav_EC2/DepthDuration/v2_depth_duration_MTurk/v2_DepthDuration_HTML.html#87,87,1366,625,1366,768,8-22-2022,6-59-17,25,depth_duration_stimuli/002213_2014-06-28_18-37-58_260595134347_rgbf000055-resize_1/002213_2014-06-28_18-37-58_260595134347_rgbf000055-resize_1-target.png,1000,3.62,0,7739,994,feet,jsons/v1_VE1000_randls_21_rotated.json,955795,1246577,55,Woman
25,497238,DepthScenes,duration_manipulation_targetAtFixation,jsons/v1_VE1000_randls_21_rotated.json,http://54.235.29.9/FacialAge/BNav_EC2/DepthDuration/v2_depth_duration_MTurk/v2_DepthDuration_HTML.html#87,87,1366,625,1366,768,8-22-2022,6-59-17,26,depth_duration_stimuli/003048_2014-06-15_13-49-43_094959634447_rgbf000150-resize_1/003048_2014-06-15_13-49-43_094959634447_rgbf000150-resize_1-target.png,1000,4.0035,0,8417,995,feet,jsons/v1_VE1000_randls_21_rotated.json,955795,1246577,55,Woman
26,497238,DepthScenes,duration_manipulation_targetAtFixation,jsons/v1_VE1000_randls_21_rotated.json,http://54.235.29.9/FacialAge/BNav_EC2/DepthDuration/v2_depth_duration_MTurk/v2_DepthDuration_HTML.html#87,87,1366,625,1366,768,8-22-2022,6-59-17,27,depth_duration_stimuli/002043_2014-06-24_20-29-38_260595134347_rgbf000039-resize_4/002043_2014-06-24_20-29-38_260595134347_rgbf000039-resize_4-target.png,1000,2.8435,4,6179,1007,feet,jsons/v1_VE1000_randls_21_rotated.json,955795,1246577,55,Woman
27,497238,DepthScenes,duration_manipulation_targetAtFixation,jsons/v1_VE1000_randls_21_rotated.json,http://54.235.29.9/FacialAge/BNav_EC2/DepthDuration/v2_depth_duration_MTurk/v2_DepthDuration_HTML.html#87,87,1366,625,1366,768,8-22-2022,6-59-17,28,depth_duration_stimuli/003083_2014-06-15_15-21-03_094959634447_rgbf000063-resize_1/003083_2014-06-15_15-21-03_094959634447_rgbf000063-resize_1-target.png,1000,4.1405,9,7577,986,feet,jsons/v1_VE1000_randls_21_rotated.json,955795,1246577,55,Woman
28,497238,DepthScenes,duration_manipulation_targetAtFixation,jsons/v1_VE1000_randls_21_rotated.json,http://54.235.29.9/FacialAge/BNav_EC2/DepthDuration/v2_depth_duration_MTurk/v2_DepthDuration_HTML.html#87,87,1366,625,1366,768,8-22-2022,6-59-17,29,depth_duration_stimuli/000486_2014-06-09_20-47-20_260595134347_rgbf000143-resize_2/000486_2014-06-09_20-47-20_260595134347_rgbf000143-resize_2-target.png,1000,4.8325,2,6235,999,feet,jsons/v1_VE1000_randls_21_rotated.json,955795,1246577,55,Woman
29,497238,DepthScenes,duration_manipulation_targetAtFixation,jsons/v1_VE1000_randls_21_rotated.json,http://54.235.29.9/FacialAge/BNav_EC2/DepthDuration/v2_depth_duration_MTurk/v2_DepthDuration_HTML.html#87,87,1366,625,1366,768,8-22-2022,6-59-17,30,depth_duration_stimuli/002072_2014-06-24_21-48-06_260595134347_rgbf000115-resize_0/002072_2014-06-24_21-48-06_260595134347_rgbf000115-resize-original.jpg,1000,4.702,0,4560,1007,feet,jsons/v1_VE1000_randls_21_rotated.json,955795,1246577,55,Woman
30,497238,DepthScenes,duration_manipulation_targetAtFixation,jsons/v1_VE1000_randls_21_rotated.json,http://54.235.29.9/FacialAge/BNav_EC2/DepthDuration/v2_depth_duration_MTurk/v2_DepthDuration_HTML.html#87,87,1366,625,1366,768,8-22-2022,6-59-17,31,depth_duration_stimuli/003081_2014-06-15_15-19-16_094959634447_rgbf000150-resize_1/003081_2014-06-15_15-19-16_094959634447_rgbf000150-resize_1-target.png,1000,3.9125,7,6360,988,feet,jsons/v1_VE1000_randls_21_rotated.json,955795,1246577,55,Woman
31,497238,DepthScenes,duration_manipulation_targetAtFixation,jsons/v1_VE1000_randls_21_rotated.json,http://54.235.29.9/FacialAge/BNav_EC2/DepthDuration/v2_depth_duration_MTurk/v2_DepthDuration_HTML.html#87,87,1366,625,1366,768,8-22-2022,6-59-17,32,depth_duration_stimuli/001417_2014-06-19_16-25-36_260595134347_rgbf000115-resize_5/001417_2014-06-19_16-25-36_260595134347_rgbf000115-resize_5-target.png,1000,4.6255,7,4807,1002,feet,jsons/v1_VE1000_randls_21_rotated.json,955795,1246577,55,Woman
32,497238,DepthScenes,duration_manipulation_targetAtFixation,jsons/v1_VE1000_randls_21_rotated.json,http://54.235.29.9/FacialAge/BNav_EC2/DepthDuration/v2_depth_duration_MTurk/v2_DepthDuration_HTML.html#87,87,1366,625,1366,768,8-22-2022,6-59-17,33,depth_duration_stimuli/002805_2014-06-22_19-54-03_094959634447_rgbf000079-resize_1/002805_2014-06-22_19-54-03_094959634447_rgbf000079-resize_1-target.png,1000,3.1439999999999997,5,6063,993,feet,jsons/v1_VE1000_randls_21_rotated.json,955795,1246577,55,Woman
33,497238,DepthScenes,duration_manipulation_targetAtFixation,jsons/v1_VE1000_randls_21_rotated.json,http://54.235.29.9/FacialAge/BNav_EC2/DepthDuration/v2_depth_duration_MTurk/v2_DepthDuration_HTML.html#87,87,1366,625,1366,768,8-22-2022,6-59-17,34,depth_duration_stimuli/000906_2014-06-08_13-35-43_260595134347_rgbf000155-resize_1/000906_2014-06-08_13-35-43_260595134347_rgbf000155-resize_1-target.png,1000,2.8489999999999998,4,4706,989,feet,jsons/v1_VE1000_randls_21_rotated.json,955795,1246577,55,Woman
34,497238,DepthScenes,duration_manipulation_targetAtFixation,jsons/v1_VE1000_randls_21_rotated.json,http://54.235.29.9/FacialAge/BNav_EC2/DepthDuration/v2_depth_duration_MTurk/v2_DepthDuration_HTML.html#87,87,1366,625,1366,768,8-22-2022,6-59-17,35,depth_duration_stimuli/000677_2014-06-08_23-10-32_260595134347_rgbf000158-resize_6/000677_2014-06-08_23-10-32_260595134347_rgbf000158-resize_6-target.png,1000,3.556,5,4978,997,feet,jsons/v1_VE1000_randls_21_rotated.json,955795,1246577,55,Woman
35,497238,DepthScenes,duration_manipulation_targetAtFixation,jsons/v1_VE1000_randls_21_rotated.json,http://54.235.29.9/FacialAge/BNav_EC2/DepthDuration/v2_depth_duration_MTurk/v2_DepthDuration_HTML.html#87,87,1366,625,1366,768,8-22-2022,6-59-17,36,depth_duration_stimuli/001029_2014-06-08_13-17-57_260595134347_rgbf000065-resize_1/001029_2014-06-08_13-17-57_260595134347_rgbf000065-resize_1-target.png,1000,3.0835,6,4517,1000,feet,jsons/v1_VE1000_randls_21_rotated.json,955795,1246577,55,Woman
36,497238,DepthScenes,duration_manipulation_targetAtFixation,jsons/v1_VE1000_randls_21_rotated.json,http://54.235.29.9/FacialAge/BNav_EC2/DepthDuration/v2_depth_duration_MTurk/v2_DepthDuration_HTML.html#87,87,1366,625,1366,768,8-22-2022,6-59-17,37,depth_duration_stimuli/000866_2014-06-09_20-45-42_260595134347_rgbf000139-resize_1/000866_2014-06-09_20-45-42_260595134347_rgbf000139-resize_1-target.png,1000,3.2155,4,7257,994,feet,jsons/v1_VE1000_randls_21_rotated.json,955795,1246577,55,Woman
37,497238,DepthScenes,duration_manipulation_targetAtFixation,jsons/v1_VE1000_randls_21_rotated.json,http://54.235.29.9/FacialAge/BNav_EC2/DepthDuration/v2_depth_duration_MTurk/v2_DepthDuration_HTML.html#87,87,1366,625,1366,768,8-22-2022,6-59-17,38,depth_duration_stimuli/002989_2014-06-15_12-25-03_094959634447_rgbf000150-resize_3/002989_2014-06-15_12-25-03_094959634447_rgbf000150-resize_3-target.png,1000,4.1975,11,5398,1003,feet,jsons/v1_VE1000_randls_21_rotated.json,955795,1246577,55,Woman
38,497238,DepthScenes,duration_manipulation_targetAtFixation,jsons/v1_VE1000_randls_21_rotated.json,http://54.235.29.9/FacialAge/BNav_EC2/DepthDuration/v2_depth_duration_MTurk/v2_DepthDuration_HTML.html#87,87,1366,625,1366,768,8-22-2022,6-59-17,39,depth_duration_stimuli/002995_2014-06-15_12-31-26_094959634447_rgbf000150-resize_1/002995_2014-06-15_12-31-26_094959634447_rgbf000150-resize_1-target.png,1000,3.8360000000000003,9,5475,987,feet,jsons/v1_VE1000_randls_21_rotated.json,955795,1246577,55,Woman
39,497238,DepthScenes,duration_manipulation_targetAtFixation,jsons/v1_VE1000_randls_21_rotated.json,http://54.235.29.9/FacialAge/BNav_EC2/DepthDuration/v2_depth_duration_MTurk/v2_DepthDuration_HTML.html#87,87,1366,625,1366,768,8-22-2022,6-59-17,40,depth_duration_stimuli/002748_2014-06-22_19-07-22_094959634447_rgbf000078-resize_1/002748_2014-06-22_19-07-22_094959634447_rgbf000078-resize_1-target.png,1000,4.6705,12,6032,1003,feet,jsons/v1_VE1000_randls_21_rotated.json,955795,1246577,55,Woman
40,497238,DepthScenes,duration_manipulation_targetAtFixation,jsons/v1_VE1000_randls_21_rotated.json,http://54.235.29.9/FacialAge/BNav_EC2/DepthDuration/v2_depth_duration_MTurk/v2_DepthDuration_HTML.html#87,87,1366,625,1366,768,8-22-2022,6-59-17,41,depth_duration_stimuli/003587_2014-05-23_16-48-02_094959634447_rgbf002384-resize_2/003587_2014-05-23_16-48-02_094959634447_rgbf002384-resize_2-target.png,1000,1.357,2,5144,986,feet,jsons/v1_VE1000_randls_21_rotated.json,955795,1246577,55,Woman
41,497238,DepthScenes,duration_manipulation_targetAtFixation,jsons/v1_VE1000_randls_21_rotated.json,http://54.235.29.9/FacialAge/BNav_EC2/DepthDuration/v2_depth_duration_MTurk/v2_DepthDuration_HTML.html#87,87,1366,625,1366,768,8-22-2022,6-59-17,42,depth_duration_stimuli/001167_2014-06-17_15-38-07_260595134347_rgbf000108-resize_0/001167_2014-06-17_15-38-07_260595134347_rgbf000108-resize_0-target.png,1000,1.8505,4,4593,1005,feet,jsons/v1_VE1000_randls_21_rotated.json,955795,1246577,55,Woman
42,497238,DepthScenes,duration_manipulation_targetAtFixation,jsons/v1_VE1000_randls_21_rotated.json,http://54.235.29.9/FacialAge/BNav_EC2/DepthDuration/v2_depth_duration_MTurk/v2_DepthDuration_HTML.html#87,87,1366,625,1366,768,8-22-2022,6-59-17,43,depth_duration_stimuli/002323_2014-06-28_20-01-54_260595134347_rgbf000051-resize_4/002323_2014-06-28_20-01-54_260595134347_rgbf000051-resize_4-target.png,1000,3.7310000000000003,6,4546,1005,feet,jsons/v1_VE1000_randls_21_rotated.json,955795,1246577,55,Woman
43,497238,DepthScenes,duration_manipulation_targetAtFixation,jsons/v1_VE1000_randls_21_rotated.json,http://54.235.29.9/FacialAge/BNav_EC2/DepthDuration/v2_depth_duration_MTurk/v2_DepthDuration_HTML.html#87,87,1366,625,1366,768,8-22-2022,6-59-17,44,depth_duration_stimuli/000917_2014-06-09_22-45-29_260595134347_rgbf000149-resize_3/000917_2014-06-09_22-45-29_260595134347_rgbf000149-resize_3-target.png,1000,4.1865,7,4762,976,feet,jsons/v1_VE1000_randls_21_rotated.json,955795,1246577,55,Woman
44,497238,DepthScenes,duration_manipulation_targetAtFixation,jsons/v1_VE1000_randls_21_rotated.json,http://54.235.29.9/FacialAge/BNav_EC2/DepthDuration/v2_depth_duration_MTurk/v2_DepthDuration_HTML.html#87,87,1366,625,1366,768,8-22-2022,6-59-17,45,depth_duration_stimuli/000409_2014-06-04_19-23-33_260595134347_rgbf000067-resize_0/000409_2014-06-04_19-23-33_260595134347_rgbf000067-resize_0-target.png,1000,3.7335,4,5675,975,feet,jsons/v1_VE1000_randls_21_rotated.json,955795,1246577,55,Woman
45,497238,DepthScenes,duration_manipulation_targetAtFixation,jsons/v1_VE1000_randls_21_rotated.json,http://54.235.29.9/FacialAge/BNav_EC2/DepthDuration/v2_depth_duration_MTurk/v2_DepthDuration_HTML.html#87,87,1366,625,1366,768,8-22-2022,6-59-17,46,depth_duration_stimuli/002663_2014-06-13_15-50-26_094959634447_rgbf000075-resize_1/002663_2014-06-13_15-50-26_094959634447_rgbf000075-resize_1-target.png,1000,4.7495,8,4512,1003,feet,jsons/v1_VE1000_randls_21_rotated.json,955795,1246577,55,Woman
46,497238,DepthScenes,duration_manipulation_targetAtFixation,jsons/v1_VE1000_randls_21_rotated.json,http://54.235.29.9/FacialAge/BNav_EC2/DepthDuration/v2_depth_duration_MTurk/v2_DepthDuration_HTML.html#87,87,1366,625,1366,768,8-22-2022,6-59-17,47,depth_duration_stimuli/001584_2014-06-20_11-07-43_260595134347_rgbf000002-resize_1/001584_2014-06-20_11-07-43_260595134347_rgbf000002-resize_1-target.png,1000,3.53,4,4304,1015,feet,jsons/v1_VE1000_randls_21_rotated.json,955795,1246577,55,Woman
47,497238,DepthScenes,duration_manipulation_targetAtFixation,jsons/v1_VE1000_randls_21_rotated.json,http://54.235.29.9/FacialAge/BNav_EC2/DepthDuration/v2_depth_duration_MTurk/v2_DepthDuration_HTML.html#87,87,1366,625,1366,768,8-22-2022,6-59-17,48,depth_duration_stimuli/003621_2014-05-23_18-06-08_094959634447_rgbf000101-resize_1/003621_2014-05-23_18-06-08_094959634447_rgbf000101-resize_1-target.png,1000,3.9835,7,5184,997,feet,jsons/v1_VE1000_randls_21_rotated.json,955795,1246577,55,Woman
48,497238,DepthScenes,duration_manipulation_targetAtFixation,jsons/v1_VE1000_randls_21_rotated.json,http://54.235.29.9/FacialAge/BNav_EC2/DepthDuration/v2_depth_duration_MTurk/v2_DepthDuration_HTML.html#87,87,1366,625,1366,768,8-22-2022,6-59-17,49,depth_duration_stimuli/001170_2014-06-17_15-43-44_260595134347_rgbf000096-resize_6/001170_2014-06-17_15-43-44_260595134347_rgbf000096-resize-original.jpg,1000,1.1909999999999998,0,4739,993,feet,jsons/v1_VE1000_randls_21_rotated.json,955795,1246577,55,Woman
49,497238,DepthScenes,duration_manipulation_targetAtFixation,jsons/v1_VE1000_randls_21_rotated.json,http://54.235.29.9/FacialAge/BNav_EC2/DepthDuration/v2_depth_duration_MTurk/v2_DepthDuration_HTML.html#87,87,1366,625,1366,768,8-22-2022,6-59-17,50,depth_duration_stimuli/003010_2014-06-15_12-54-35_094959634447_rgbf000112-resize_0/003010_2014-06-15_12-54-35_094959634447_rgbf000112-resize_0-target.png,1000,3.1185,9,5121,987,feet,jsons/v1_VE1000_randls_21_rotated.json,955795,1246577,55,Woman
50,497238,DepthScenes,duration_manipulation_targetAtFixation,jsons/v1_VE1000_randls_21_rotated.json,http://54.235.29.9/FacialAge/BNav_EC2/DepthDuration/v2_depth_duration_MTurk/v2_DepthDuration_HTML.html#87,87,1366,625,1366,768,8-22-2022,6-59-17,51,depth_duration_stimuli/001810_2014-06-26_20-51-35_260595134347_rgbf000040-resize_3/001810_2014-06-26_20-51-35_260595134347_rgbf000040-resize_3-target.png,1000,2.2525,4,5027,1005,feet,jsons/v1_VE1000_randls_21_rotated.json,955795,1246577,55,Woman
51,497238,DepthScenes,duration_manipulation_targetAtFixation,jsons/v1_VE1000_randls_21_rotated.json,http://54.235.29.9/FacialAge/BNav_EC2/DepthDuration/v2_depth_duration_MTurk/v2_DepthDuration_HTML.html#87,87,1366,625,1366,768,8-22-2022,6-59-17,52,depth_duration_stimuli/001392_2014-06-19_16-07-59_260595134347_rgbf000046-resize_1/001392_2014-06-19_16-07-59_260595134347_rgbf000046-resize_1-target.png,1000,4.135,11,5055,983,feet,jsons/v1_VE1000_randls_21_rotated.json,955795,1246577,55,Woman
52,497238,DepthScenes,duration_manipulation_targetAtFixation,jsons/v1_VE1000_randls_21_rotated.json,http://54.235.29.9/FacialAge/BNav_EC2/DepthDuration/v2_depth_duration_MTurk/v2_DepthDuration_HTML.html#87,87,1366,625,1366,768,8-22-2022,6-59-17,53,depth_duration_stimuli/001570_2014-06-20_17-21-09_260595134347_rgbf000135-resize_4/001570_2014-06-20_17-21-09_260595134347_rgbf000135-resize_4-target.png,1000,4.467,7,4981,986,feet,jsons/v1_VE1000_randls_21_rotated.json,955795,1246577,55,Woman
53,497238,DepthScenes,duration_manipulation_targetAtFixation,jsons/v1_VE1000_randls_21_rotated.json,http://54.235.29.9/FacialAge/BNav_EC2/DepthDuration/v2_depth_duration_MTurk/v2_DepthDuration_HTML.html#87,87,1366,625,1366,768,8-22-2022,6-59-17,54,depth_duration_stimuli/002750_2014-06-22_19-08-03_094959634447_rgbf000094-resize_4/002750_2014-06-22_19-08-03_094959634447_rgbf000094-resize_4-target.png,1000,2.354,5,4670,988,feet,jsons/v1_VE1000_randls_21_rotated.json,955795,1246577,55,Woman
54,497238,DepthScenes,duration_manipulation_targetAtFixation,jsons/v1_VE1000_randls_21_rotated.json,http://54.235.29.9/FacialAge/BNav_EC2/DepthDuration/v2_depth_duration_MTurk/v2_DepthDuration_HTML.html#87,87,1366,625,1366,768,8-22-2022,6-59-17,55,depth_duration_stimuli/002549_2014-06-24_13-41-39_094959634447_rgbf000022-resize_3/002549_2014-06-24_13-41-39_094959634447_rgbf000022-resize_3-target.png,1000,1.476,3,4391,950,feet,jsons/v1_VE1000_randls_21_rotated.json,955795,1246577,55,Woman
55,497238,DepthScenes,duration_manipulation_targetAtFixation,jsons/v1_VE1000_randls_21_rotated.json,http://54.235.29.9/FacialAge/BNav_EC2/DepthDuration/v2_depth_duration_MTurk/v2_DepthDuration_HTML.html#87,87,1366,625,1366,768,8-22-2022,6-59-17,56,depth_duration_stimuli/000556_2014-06-09_22-42-56_260595134347_rgbf000214-resize_1/000556_2014-06-09_22-42-56_260595134347_rgbf000214-resize_1-target.png,1000,4.8415,8,4741,999,feet,jsons/v1_VE1000_randls_21_rotated.json,955795,1246577,55,Woman
56,497238,DepthScenes,duration_manipulation_targetAtFixation,jsons/v1_VE1000_randls_21_rotated.json,http://54.235.29.9/FacialAge/BNav_EC2/DepthDuration/v2_depth_duration_MTurk/v2_DepthDuration_HTML.html#87,87,1366,625,1366,768,8-22-2022,6-59-17,57,depth_duration_stimuli/001158_2014-06-17_15-32-16_260595134347_rgbf000138-resize_2/001158_2014-06-17_15-32-16_260595134347_rgbf000138-resize_2-target.png,1000,4.5315,6,5445,995,feet,jsons/v1_VE1000_randls_21_rotated.json,955795,1246577,55,Woman
57,497238,DepthScenes,duration_manipulation_targetAtFixation,jsons/v1_VE1000_randls_21_rotated.json,http://54.235.29.9/FacialAge/BNav_EC2/DepthDuration/v2_depth_duration_MTurk/v2_DepthDuration_HTML.html#87,87,1366,625,1366,768,8-22-2022,6-59-17,58,depth_duration_stimuli/002103_2014-06-25_20-00-40_260595134347_rgbf000049-resize_0/002103_2014-06-25_20-00-40_260595134347_rgbf000049-resize_0-target.png,1000,4.105,5,5492,998,feet,jsons/v1_VE1000_randls_21_rotated.json,955795,1246577,55,Woman
58,497238,DepthScenes,duration_manipulation_targetAtFixation,jsons/v1_VE1000_randls_21_rotated.json,http://54.235.29.9/FacialAge/BNav_EC2/DepthDuration/v2_depth_duration_MTurk/v2_DepthDuration_HTML.html#87,87,1366,625,1366,768,8-22-2022,6-59-17,59,depth_duration_stimuli/002039_2014-06-24_20-22-38_260595134347_rgbf000084-resize_1/002039_2014-06-24_20-22-38_260595134347_rgbf000084-resize_1-target.png,1000,4.408,8,5770,992,feet,jsons/v1_VE1000_randls_21_rotated.json,955795,1246577,55,Woman
59,497238,DepthScenes,duration_manipulation_targetAtFixation,jsons/v1_VE1000_randls_21_rotated.json,http://54.235.29.9/FacialAge/BNav_EC2/DepthDuration/v2_depth_duration_MTurk/v2_DepthDuration_HTML.html#87,87,1366,625,1366,768,8-22-2022,6-59-17,60,depth_duration_stimuli/001136_2014-06-17_15-19-41_260595134347_rgbf000076-resize_3/001136_2014-06-17_15-19-41_260595134347_rgbf000076-resize_3-target.png,1000,1.8655,4,4696,996,feet,jsons/v1_VE1000_randls_21_rotated.json,955795,1246577,55,Woman
60,497238,DepthScenes,duration_manipulation_targetAtFixation,jsons/v1_VE1000_randls_21_rotated.json,http://54.235.29.9/FacialAge/BNav_EC2/DepthDuration/v2_depth_duration_MTurk/v2_DepthDuration_HTML.html#87,87,1366,625,1366,768,8-22-2022,6-59-17,61,depth_duration_stimuli/001164_2014-06-17_15-35-46_260595134347_rgbf000085-resize_3/001164_2014-06-17_15-35-46_260595134347_rgbf000085-resize_3-target.png,1000,2.354,4,4175,987,feet,jsons/v1_VE1000_randls_21_rotated.json,955795,1246577,55,Woman
61,497238,DepthScenes,duration_manipulation_targetAtFixation,jsons/v1_VE1000_randls_21_rotated.json,http://54.235.29.9/FacialAge/BNav_EC2/DepthDuration/v2_depth_duration_MTurk/v2_DepthDuration_HTML.html#87,87,1366,625,1366,768,8-22-2022,6-59-17,62,depth_duration_stimuli/001650_2014-06-20_12-09-00_260595134347_rgbf000087-resize_3/001650_2014-06-20_12-09-00_260595134347_rgbf000087-resize_3-target.png,1000,1.9505,2,9557,1001,feet,jsons/v1_VE1000_randls_21_rotated.json,955795,1246577,55,Woman
62,497238,DepthScenes,duration_manipulation_targetAtFixation,jsons/v1_VE1000_randls_21_rotated.json,http://54.235.29.9/FacialAge/BNav_EC2/DepthDuration/v2_depth_duration_MTurk/v2_DepthDuration_HTML.html#87,87,1366,625,1366,768,8-22-2022,6-59-17,63,depth_duration_stimuli/000682_2014-06-08_23-14-58_260595134347_rgbf000041-resize_5/000682_2014-06-08_23-14-58_260595134347_rgbf000041-resize_5-target.png,1000,2.7239999999999998,7,4460,1036,feet,jsons/v1_VE1000_randls_21_rotated.json,955795,1246577,55,Woman
63,497238,DepthScenes,duration_manipulation_targetAtFixation,jsons/v1_VE1000_randls_21_rotated.json,http://54.235.29.9/FacialAge/BNav_EC2/DepthDuration/v2_depth_duration_MTurk/v2_DepthDuration_HTML.html#87,87,1366,625,1366,768,8-22-2022,6-59-17,64,depth_duration_stimuli/002209_2014-06-28_18-36-10_260595134347_rgbf000051-resize_1/002209_2014-06-28_18-36-10_260595134347_rgbf000051-resize_1-target.png,1000,2.057,3,4571,994,feet,jsons/v1_VE1000_randls_21_rotated.json,955795,1246577,55,Woman
64,497238,DepthScenes,duration_manipulation_targetAtFixation,jsons/v1_VE1000_randls_21_rotated.json,http://54.235.29.9/FacialAge/BNav_EC2/DepthDuration/v2_depth_duration_MTurk/v2_DepthDuration_HTML.html#87,87,1366,625,1366,768,8-22-2022,6-59-17,65,depth_duration_stimuli/002763_2014-06-22_19-13-10_094959634447_rgbf000075-resize_4/002763_2014-06-22_19-13-10_094959634447_rgbf000075-resize_4-target.png,1000,1.68375,4,6260,993,feet,jsons/v1_VE1000_randls_21_rotated.json,955795,1246577,55,Woman
65,497238,DepthScenes,duration_manipulation_targetAtFixation,jsons/v1_VE1000_randls_21_rotated.json,http://54.235.29.9/FacialAge/BNav_EC2/DepthDuration/v2_depth_duration_MTurk/v2_DepthDuration_HTML.html#87,87,1366,625,1366,768,8-22-2022,6-59-17,66,depth_duration_stimuli/001540_2014-06-20_17-01-05_260595134347_rgbf000086-resize_2/001540_2014-06-20_17-01-05_260595134347_rgbf000086-resize-original.jpg,1000,1.459,0,4655,1003,feet,jsons/v1_VE1000_randls_21_rotated.json,955795,1246577,55,Woman
66,497238,DepthScenes,duration_manipulation_targetAtFixation,jsons/v1_VE1000_randls_21_rotated.json,http://54.235.29.9/FacialAge/BNav_EC2/DepthDuration/v2_depth_duration_MTurk/v2_DepthDuration_HTML.html#87,87,1366,625,1366,768,8-22-2022,6-59-17,67,depth_duration_stimuli/001815_2014-06-26_20-52-55_260595134347_rgbf000020-resize_0/001815_2014-06-26_20-52-55_260595134347_rgbf000020-resize_0-target.png,1000,3.3865,7,5670,986,feet,jsons/v1_VE1000_randls_21_rotated.json,955795,1246577,55,Woman
67,497238,DepthScenes,duration_manipulation_targetAtFixation,jsons/v1_VE1000_randls_21_rotated.json,http://54.235.29.9/FacialAge/BNav_EC2/DepthDuration/v2_depth_duration_MTurk/v2_DepthDuration_HTML.html#87,87,1366,625,1366,768,8-22-2022,6-59-17,68,depth_duration_stimuli/001808_2014-06-26_20-50-58_260595134347_rgbf000029-resize_1/001808_2014-06-26_20-50-58_260595134347_rgbf000029-resize_1-target.png,1000,4.249,5,5681,998,feet,jsons/v1_VE1000_randls_21_rotated.json,955795,1246577,55,Woman
68,497238,DepthScenes,duration_manipulation_targetAtFixation,jsons/v1_VE1000_randls_21_rotated.json,http://54.235.29.9/FacialAge/BNav_EC2/DepthDuration/v2_depth_duration_MTurk/v2_DepthDuration_HTML.html#87,87,1366,625,1366,768,8-22-2022,6-59-17,69,depth_duration_stimuli/000742_2014-06-08_18-48-09_260595134347_rgbf000164-resize_4/000742_2014-06-08_18-48-09_260595134347_rgbf000164-resize_4-target.png,1000,4.632,4,4019,985,feet,jsons/v1_VE1000_randls_21_rotated.json,955795,1246577,55,Woman
69,497238,DepthScenes,duration_manipulation_targetAtFixation,jsons/v1_VE1000_randls_21_rotated.json,http://54.235.29.9/FacialAge/BNav_EC2/DepthDuration/v2_depth_duration_MTurk/v2_DepthDuration_HTML.html#87,87,1366,625,1366,768,8-22-2022,6-59-17,70,depth_duration_stimuli/001066_2014-06-08_22-03-20_260595134347_rgbf000066-resize_4/001066_2014-06-08_22-03-20_260595134347_rgbf000066-resize_4-target.png,1000,4.2330000000000005,4,4843,991,feet,jsons/v1_VE1000_randls_21_rotated.json,955795,1246577,55,Woman
70,497238,DepthScenes,duration_manipulation_targetAtFixation,jsons/v1_VE1000_randls_21_rotated.json,http://54.235.29.9/FacialAge/BNav_EC2/DepthDuration/v2_depth_duration_MTurk/v2_DepthDuration_HTML.html#87,87,1366,625,1366,768,8-22-2022,6-59-17,71,depth_duration_stimuli/002678_2014-06-13_16-15-32_094959634447_rgbf000151-resize_6/002678_2014-06-13_16-15-32_094959634447_rgbf000151-resize_6-target.png,1000,2.1830000000000003,5,4989,1001,feet,jsons/v1_VE1000_randls_21_rotated.json,955795,1246577,55,Woman
71,497238,DepthScenes,duration_manipulation_targetAtFixation,jsons/v1_VE1000_randls_21_rotated.json,http://54.235.29.9/FacialAge/BNav_EC2/DepthDuration/v2_depth_duration_MTurk/v2_DepthDuration_HTML.html#87,87,1366,625,1366,768,8-22-2022,6-59-17,72,depth_duration_stimuli/000368_2014-06-09_15-53-01_260595134347_rgbf000155-resize_2/000368_2014-06-09_15-53-01_260595134347_rgbf000155-resize_2-target.png,1000,2.4859999999999998,3,8413,1000,feet,jsons/v1_VE1000_randls_21_rotated.json,955795,1246577,55,Woman
72,497238,DepthScenes,duration_manipulation_targetAtFixation,jsons/v1_VE1000_randls_21_rotated.json,http://54.235.29.9/FacialAge/BNav_EC2/DepthDuration/v2_depth_duration_MTurk/v2_DepthDuration_HTML.html#87,87,1366,625,1366,768,8-22-2022,6-59-17,73,depth_duration_stimuli/001052_2014-06-08_18-24-54_260595134347_rgbf000130-resize_1/001052_2014-06-08_18-24-54_260595134347_rgbf000130-resize_1-target.png,1000,4.1045,7,4728,994,feet,jsons/v1_VE1000_randls_21_rotated.json,955795,1246577,55,Woman
73,497238,DepthScenes,duration_manipulation_targetAtFixation,jsons/v1_VE1000_randls_21_rotated.json,http://54.235.29.9/FacialAge/BNav_EC2/DepthDuration/v2_depth_duration_MTurk/v2_DepthDuration_HTML.html#87,87,1366,625,1366,768,8-22-2022,6-59-17,74,depth_duration_stimuli/002988_2014-06-15_12-24-20_094959634447_rgbf000150-resize_1/002988_2014-06-15_12-24-20_094959634447_rgbf000150-resize_1-target.png,1000,4.7669999999999995,9,5085,994,feet,jsons/v1_VE1000_randls_21_rotated.json,955795,1246577,55,Woman
74,497238,DepthScenes,duration_manipulation_targetAtFixation,jsons/v1_VE1000_randls_21_rotated.json,http://54.235.29.9/FacialAge/BNav_EC2/DepthDuration/v2_depth_duration_MTurk/v2_DepthDuration_HTML.html#87,87,1366,625,1366,768,8-22-2022,6-59-17,75,depth_duration_stimuli/000749_2014-06-08_21-55-06_260595134347_rgbf000070-resize_2/000749_2014-06-08_21-55-06_260595134347_rgbf000070-resize_2-target.png,1000,2.331,4,4338,1008,feet,jsons/v1_VE1000_randls_21_rotated.json,955795,1246577,55,Woman
75,497238,DepthScenes,duration_manipulation_targetAtFixation,jsons/v1_VE1000_randls_21_rotated.json,http://54.235.29.9/FacialAge/BNav_EC2/DepthDuration/v2_depth_duration_MTurk/v2_DepthDuration_HTML.html#87,87,1366,625,1366,768,8-22-2022,6-59-17,76,depth_duration_stimuli/002788_2014-06-22_19-36-03_094959634447_rgbf000088-resize_2/002788_2014-06-22_19-36-03_094959634447_rgbf000088-resize_2-target.png,1000,1.6465,6,4360,996,feet,jsons/v1_VE1000_randls_21_rotated.json,955795,1246577,55,Woman
76,497238,DepthScenes,duration_manipulation_targetAtFixation,jsons/v1_VE1000_randls_21_rotated.json,http://54.235.29.9/FacialAge/BNav_EC2/DepthDuration/v2_depth_duration_MTurk/v2_DepthDuration_HTML.html#87,87,1366,625,1366,768,8-22-2022,6-59-17,77,depth_duration_stimuli/001132_2014-06-17_14-48-54_260595134347_rgbf000100-resize_2/001132_2014-06-17_14-48-54_260595134347_rgbf000100-resize_2-target.png,1000,3.753,5,11928,1022,feet,jsons/v1_VE1000_randls_21_rotated.json,955795,1246577,55,Woman
77,497238,DepthScenes,duration_manipulation_targetAtFixation,jsons/v1_VE1000_randls_21_rotated.json,http://54.235.29.9/FacialAge/BNav_EC2/DepthDuration/v2_depth_duration_MTurk/v2_DepthDuration_HTML.html#87,87,1366,625,1366,768,8-22-2022,6-59-17,78,depth_duration_stimuli/001133_2014-06-17_14-49-16_260595134347_rgbf000100-resize_0/001133_2014-06-17_14-49-16_260595134347_rgbf000100-resize_0-target.png,1000,4.2115,5,5786,988,feet,jsons/v1_VE1000_randls_21_rotated.json,955795,1246577,55,Woman
78,497238,DepthScenes,duration_manipulation_targetAtFixation,jsons/v1_VE1000_randls_21_rotated.json,http://54.235.29.9/FacialAge/BNav_EC2/DepthDuration/v2_depth_duration_MTurk/v2_DepthDuration_HTML.html#87,87,1366,625,1366,768,8-22-2022,6-59-17,79,depth_duration_stimuli/002953_2014-06-08_17-32-18_094959634447_rgbf000059-resize_5/002953_2014-06-08_17-32-18_094959634447_rgbf000059-resize_5-target.png,1000,1.551,2,5152,1011,feet,jsons/v1_VE1000_randls_21_rotated.json,955795,1246577,55,Woman
79,497238,DepthScenes,duration_manipulation_targetAtFixation,jsons/v1_VE1000_randls_21_rotated.json,http://54.235.29.9/FacialAge/BNav_EC2/DepthDuration/v2_depth_duration_MTurk/v2_DepthDuration_HTML.html#87,87,1366,625,1366,768,8-22-2022,6-59-17,80,depth_duration_stimuli/000878_2014-06-08_22-52-45_260595134347_rgbf000045-resize_2/000878_2014-06-08_22-52-45_260595134347_rgbf000045-resize_2-target.png,1000,2.092,3,5081,1000,feet,jsons/v1_VE1000_randls_21_rotated.json,955795,1246577,55,Woman
80,497238,DepthScenes,duration_manipulation_targetAtFixation,jsons/v1_VE1000_randls_21_rotated.json,http://54.235.29.9/FacialAge/BNav_EC2/DepthDuration/v2_depth_duration_MTurk/v2_DepthDuration_HTML.html#87,87,1366,625,1366,768,8-22-2022,6-59-17,81,depth_duration_stimuli/002637_2014-06-24_14-51-13_094959634447_rgbf000066-resize_4/002637_2014-06-24_14-51-13_094959634447_rgbf000066-resize_4-target.png,1000,1.9955,5,4275,979,feet,jsons/v1_VE1000_randls_21_rotated.json,955795,1246577,55,Woman
81,497238,DepthScenes,duration_manipulation_targetAtFixation,jsons/v1_VE1000_randls_21_rotated.json,http://54.235.29.9/FacialAge/BNav_EC2/DepthDuration/v2_depth_duration_MTurk/v2_DepthDuration_HTML.html#87,87,1366,625,1366,768,8-22-2022,6-59-17,82,depth_duration_stimuli/003534_2014-05-22_15-06-10_094959634447_rgbf000102-resize_4/003534_2014-05-22_15-06-10_094959634447_rgbf000102-resize_4-target.png,1000,1.426,1,4643,998,feet,jsons/v1_VE1000_randls_21_rotated.json,955795,1246577,55,Woman
82,497238,DepthScenes,duration_manipulation_targetAtFixation,jsons/v1_VE1000_randls_21_rotated.json,http://54.235.29.9/FacialAge/BNav_EC2/DepthDuration/v2_depth_duration_MTurk/v2_DepthDuration_HTML.html#87,87,1366,625,1366,768,8-22-2022,6-59-17,83,depth_duration_stimuli/002344_2014-06-28_20-06-29_260595134347_rgbf000030-resize_1/002344_2014-06-28_20-06-29_260595134347_rgbf000030-resize_1-target.png,1000,1.5795,1,5614,993,feet,jsons/v1_VE1000_randls_21_rotated.json,955795,1246577,55,Woman
83,497238,DepthScenes,duration_manipulation_targetAtFixation,jsons/v1_VE1000_randls_21_rotated.json,http://54.235.29.9/FacialAge/BNav_EC2/DepthDuration/v2_depth_duration_MTurk/v2_DepthDuration_HTML.html#87,87,1366,625,1366,768,8-22-2022,6-59-17,84,depth_duration_stimuli/002725_2014-06-22_11-47-51_094959634447_rgbf000070-resize_1/002725_2014-06-22_11-47-51_094959634447_rgbf000070-resize_1-target.png,1000,2.195,5,4517,991,feet,jsons/v1_VE1000_randls_21_rotated.json,955795,1246577,55,Woman
84,497238,DepthScenes,duration_manipulation_targetAtFixation,jsons/v1_VE1000_randls_21_rotated.json,http://54.235.29.9/FacialAge/BNav_EC2/DepthDuration/v2_depth_duration_MTurk/v2_DepthDuration_HTML.html#87,87,1366,625,1366,768,8-22-2022,6-59-17,85,depth_duration_stimuli/002467_2014-06-28_20-38-07_260595134347_rgbf000026-resize_2/002467_2014-06-28_20-38-07_260595134347_rgbf000026-resize_2-target.png,1000,4.742,4,8709,985,feet,jsons/v1_VE1000_randls_21_rotated.json,955795,1246577,55,Woman
85,497238,DepthScenes,duration_manipulation_targetAtFixation,jsons/v1_VE1000_randls_21_rotated.json,http://54.235.29.9/FacialAge/BNav_EC2/DepthDuration/v2_depth_duration_MTurk/v2_DepthDuration_HTML.html#87,87,1366,625,1366,768,8-22-2022,6-59-17,86,depth_duration_stimuli/002570_2014-06-24_13-59-54_094959634447_rgbf000059-resize_0/002570_2014-06-24_13-59-54_094959634447_rgbf000059-resize_0-target.png,1000,4.037,7,4983,993,feet,jsons/v1_VE1000_randls_21_rotated.json,955795,1246577,55,Woman
86,497238,DepthScenes,duration_manipulation_targetAtFixation,jsons/v1_VE1000_randls_21_rotated.json,http://54.235.29.9/FacialAge/BNav_EC2/DepthDuration/v2_depth_duration_MTurk/v2_DepthDuration_HTML.html#87,87,1366,625,1366,768,8-22-2022,6-59-17,87,depth_duration_stimuli/002444_2014-06-28_20-32-08_260595134347_rgbf000027-resize_0/002444_2014-06-28_20-32-08_260595134347_rgbf000027-resize_0-target.png,1000,4.388999999999999,8,5348,1003,feet,jsons/v1_VE1000_randls_21_rotated.json,955795,1246577,55,Woman
87,497238,DepthScenes,duration_manipulation_targetAtFixation,jsons/v1_VE1000_randls_21_rotated.json,http://54.235.29.9/FacialAge/BNav_EC2/DepthDuration/v2_depth_duration_MTurk/v2_DepthDuration_HTML.html#87,87,1366,625,1366,768,8-22-2022,6-59-17,88,depth_duration_stimuli/000436_2014-06-09_22-25-11_260595134347_rgbf000137-resize_1/000436_2014-06-09_22-25-11_260595134347_rgbf000137-resize_1-target.png,1000,4.0705,11,4771,998,feet,jsons/v1_VE1000_randls_21_rotated.json,955795,1246577,55,Woman
88,497238,DepthScenes,duration_manipulation_targetAtFixation,jsons/v1_VE1000_randls_21_rotated.json,http://54.235.29.9/FacialAge/BNav_EC2/DepthDuration/v2_depth_duration_MTurk/v2_DepthDuration_HTML.html#87,87,1366,625,1366,768,8-22-2022,6-59-17,89,depth_duration_stimuli/002414_2014-06-28_20-24-58_260595134347_rgbf000067-resize_4/002414_2014-06-28_20-24-58_260595134347_rgbf000067-resize_4-target.png,1000,4.363,8,5984,997,feet,jsons/v1_VE1000_randls_21_rotated.json,955795,1246577,55,Woman
89,497238,DepthScenes,duration_manipulation_targetAtFixation,jsons/v1_VE1000_randls_21_rotated.json,http://54.235.29.9/FacialAge/BNav_EC2/DepthDuration/v2_depth_duration_MTurk/v2_DepthDuration_HTML.html#87,87,1366,625,1366,768,8-22-2022,6-59-17,90,depth_duration_stimuli/000773_2014-06-08_22-24-54_260595134347_rgbf000093-resize_1/000773_2014-06-08_22-24-54_260595134347_rgbf000093-resize_1-target.png,1000,4.973,8,5174,1086,feet,jsons/v1_VE1000_randls_21_rotated.json,955795,1246577,55,Woman
90,497238,DepthScenes,duration_manipulation_targetAtFixation,jsons/v1_VE1000_randls_21_rotated.json,http://54.235.29.9/FacialAge/BNav_EC2/DepthDuration/v2_depth_duration_MTurk/v2_DepthDuration_HTML.html#87,87,1366,625,1366,768,8-22-2022,6-59-17,91,depth_duration_stimuli/002657_2014-06-13_15-29-54_094959634447_rgbf000150-resize_1/002657_2014-06-13_15-29-54_094959634447_rgbf000150-resize_1-target.png,1000,4.919,11,4846,985,feet,jsons/v1_VE1000_randls_21_rotated.json,955795,1246577,55,Woman
91,497238,DepthScenes,duration_manipulation_targetAtFixation,jsons/v1_VE1000_randls_21_rotated.json,http://54.235.29.9/FacialAge/BNav_EC2/DepthDuration/v2_depth_duration_MTurk/v2_DepthDuration_HTML.html#87,87,1366,625,1366,768,8-22-2022,6-59-17,92,depth_duration_stimuli/002375_2014-06-28_20-13-44_260595134347_rgbf000032-resize_1/002375_2014-06-28_20-13-44_260595134347_rgbf000032-resize_1-target.png,1000,4.0175,6,4494,994,feet,jsons/v1_VE1000_randls_21_rotated.json,955795,1246577,55,Woman
92,497238,DepthScenes,duration_manipulation_targetAtFixation,jsons/v1_VE1000_randls_21_rotated.json,http://54.235.29.9/FacialAge/BNav_EC2/DepthDuration/v2_depth_duration_MTurk/v2_DepthDuration_HTML.html#87,87,1366,625,1366,768,8-22-2022,6-59-17,93,depth_duration_stimuli/000927_2014-06-09_16-32-30_260595134347_rgbf000123-resize_3/000927_2014-06-09_16-32-30_260595134347_rgbf000123-resize_3-target.png,1000,2.6785,5,4918,993,feet,jsons/v1_VE1000_randls_21_rotated.json,955795,1246577,55,Woman
93,497238,DepthScenes,duration_manipulation_targetAtFixation,jsons/v1_VE1000_randls_21_rotated.json,http://54.235.29.9/FacialAge/BNav_EC2/DepthDuration/v2_depth_duration_MTurk/v2_DepthDuration_HTML.html#87,87,1366,625,1366,768,8-22-2022,6-59-17,94,depth_duration_stimuli/001110_2014-06-15_17-25-28_260595134347_rgbf000150-resize_1/001110_2014-06-15_17-25-28_260595134347_rgbf000150-resize_1-target.png,1000,1.7115,3,4518,999,feet,jsons/v1_VE1000_randls_21_rotated.json,955795,1246577,55,Woman
94,497238,DepthScenes,duration_manipulation_targetAtFixation,jsons/v1_VE1000_randls_21_rotated.json,http://54.235.29.9/FacialAge/BNav_EC2/DepthDuration/v2_depth_duration_MTurk/v2_DepthDuration_HTML.html#87,87,1366,625,1366,768,8-22-2022,6-59-17,95,depth_duration_stimuli/002340_2014-06-28_20-05-46_260595134347_rgbf000113-resize_0/002340_2014-06-28_20-05-46_260595134347_rgbf000113-resize_0-target.png,1000,2.4735,7,4584,998,feet,jsons/v1_VE1000_randls_21_rotated.json,955795,1246577,55,Woman
95,497238,DepthScenes,duration_manipulation_targetAtFixation,jsons/v1_VE1000_randls_21_rotated.json,http://54.235.29.9/FacialAge/BNav_EC2/DepthDuration/v2_depth_duration_MTurk/v2_DepthDuration_HTML.html#87,87,1366,625,1366,768,8-22-2022,6-59-17,96,depth_duration_stimuli/001016_2014-06-09_16-16-10_260595134347_rgbf000112-resize_5/001016_2014-06-09_16-16-10_260595134347_rgbf000112-resize_5-target.png,1000,1.6565,4,4210,992,feet,jsons/v1_VE1000_randls_21_rotated.json,955795,1246577,55,Woman
96,497238,DepthScenes,duration_manipulation_targetAtFixation,jsons/v1_VE1000_randls_21_rotated.json,http://54.235.29.9/FacialAge/BNav_EC2/DepthDuration/v2_depth_duration_MTurk/v2_DepthDuration_HTML.html#87,87,1366,625,1366,768,8-22-2022,6-59-17,97,depth_duration_stimuli/000734_2014-06-08_17-39-11_260595134347_rgbf000128-resize_2/000734_2014-06-08_17-39-11_260595134347_rgbf000128-resize_2-target.png,1000,4.098,5,4253,1008,feet,jsons/v1_VE1000_randls_21_rotated.json,955795,1246577,55,Woman
97,497238,DepthScenes,duration_manipulation_targetAtFixation,jsons/v1_VE1000_randls_21_rotated.json,http://54.235.29.9/FacialAge/BNav_EC2/DepthDuration/v2_depth_duration_MTurk/v2_DepthDuration_HTML.html#87,87,1366,625,1366,768,8-22-2022,6-59-17,98,depth_duration_stimuli/000739_2014-06-08_18-45-58_260595134347_rgbf000068-resize_1/000739_2014-06-08_18-45-58_260595134347_rgbf000068-resize_1-target.png,1000,3.534,7,4398,1005,feet,jsons/v1_VE1000_randls_21_rotated.json,955795,1246577,55,Woman
98,497238,DepthScenes,duration_manipulation_targetAtFixation,jsons/v1_VE1000_randls_21_rotated.json,http://54.235.29.9/FacialAge/BNav_EC2/DepthDuration/v2_depth_duration_MTurk/v2_DepthDuration_HTML.html#87,87,1366,625,1366,768,8-22-2022,6-59-17,99,depth_duration_stimuli/001222_2014-06-17_16-24-06_260595134347_rgbf000073-resize_0/001222_2014-06-17_16-24-06_260595134347_rgbf000073-resize-original.jpg,1000,1.4385,0,4647,989,feet,jsons/v1_VE1000_randls_21_rotated.json,955795,1246577,55,Woman
99,497238,DepthScenes,duration_manipulation_targetAtFixation,jsons/v1_VE1000_randls_21_rotated.json,http://54.235.29.9/FacialAge/BNav_EC2/DepthDuration/v2_depth_duration_MTurk/v2_DepthDuration_HTML.html#87,87,1366,625,1366,768,8-22-2022,6-59-17,100,depth_duration_stimuli/001571_2014-06-20_17-21-32_260595134347_rgbf000089-resize_1/001571_2014-06-20_17-21-32_260595134347_rgbf000089-resize_1-target.png,1000,1.86,3,4282,1000,feet,jsons/v1_VE1000_randls_21_rotated.json,955795,1246577,55,Woman
100,497238,DepthScenes,duration_manipulation_targetAtFixation,jsons/v1_VE1000_randls_21_rotated.json,http://54.235.29.9/FacialAge/BNav_EC2/DepthDuration/v2_depth_duration_MTurk/v2_DepthDuration_HTML.html#87,87,1366,625,1366,768,8-22-2022,6-59-17,101,depth_duration_stimuli/002272_2014-06-28_18-53-56_260595134347_rgbf000067-resize_2/002272_2014-06-28_18-53-56_260595134347_rgbf000067-resize_2-target.png,1000,1.138,2,4136,982,feet,jsons/v1_VE1000_randls_21_rotated.json,955795,1246577,55,Woman
101,497238,DepthScenes,duration_manipulation_targetAtFixation,jsons/v1_VE1000_randls_21_rotated.json,http://54.235.29.9/FacialAge/BNav_EC2/DepthDuration/v2_depth_duration_MTurk/v2_DepthDuration_HTML.html#87,87,1366,625,1366,768,8-22-2022,6-59-17,102,depth_duration_stimuli/001235_2014-06-17_16-37-36_260595134347_rgbf000084-resize_4/001235_2014-06-17_16-37-36_260595134347_rgbf000084-resize_4-target.png,1000,3.6605,7,4244,1010,feet,jsons/v1_VE1000_randls_21_rotated.json,955795,1246577,55,Woman
102,497238,DepthScenes,duration_manipulation_targetAtFixation,jsons/v1_VE1000_randls_21_rotated.json,http://54.235.29.9/FacialAge/BNav_EC2/DepthDuration/v2_depth_duration_MTurk/v2_DepthDuration_HTML.html#87,87,1366,625,1366,768,8-22-2022,6-59-17,103,depth_duration_stimuli/000788_2014-06-08_22-34-36_260595134347_rgbf000131-resize_1/000788_2014-06-08_22-34-36_260595134347_rgbf000131-resize_1-target.png,1000,3.359,8,4488,1001,feet,jsons/v1_VE1000_randls_21_rotated.json,955795,1246577,55,Woman
103,497238,DepthScenes,duration_manipulation_targetAtFixation,jsons/v1_VE1000_randls_21_rotated.json,http://54.235.29.9/FacialAge/BNav_EC2/DepthDuration/v2_depth_duration_MTurk/v2_DepthDuration_HTML.html#87,87,1366,625,1366,768,8-22-2022,6-59-17,104,depth_duration_stimuli/000137_2014-05-20_17-04-49_260595134347_rgbf000120-resize_1/000137_2014-05-20_17-04-49_260595134347_rgbf000120-resize_1-target.png,1000,3.786,8,5093,997,feet,jsons/v1_VE1000_randls_21_rotated.json,955795,1246577,55,Woman
104,497238,DepthScenes,duration_manipulation_targetAtFixation,jsons/v1_VE1000_randls_21_rotated.json,http://54.235.29.9/FacialAge/BNav_EC2/DepthDuration/v2_depth_duration_MTurk/v2_DepthDuration_HTML.html#87,87,1366,625,1366,768,8-22-2022,6-59-17,105,depth_duration_stimuli/000736_2014-06-08_18-24-15_260595134347_rgbf000206-resize_3/000736_2014-06-08_18-24-15_260595134347_rgbf000206-resize_3-target.png,1000,3.515,5,4866,998,feet,jsons/v1_VE1000_randls_21_rotated.json,955795,1246577,55,Woman
105,497238,DepthScenes,duration_manipulation_targetAtFixation,jsons/v1_VE1000_randls_21_rotated.json,http://54.235.29.9/FacialAge/BNav_EC2/DepthDuration/v2_depth_duration_MTurk/v2_DepthDuration_HTML.html#87,87,1366,625,1366,768,8-22-2022,6-59-17,106,depth_duration_stimuli/000709_2014-06-08_13-51-55_260595134347_rgbf000068-resize_3/000709_2014-06-08_13-51-55_260595134347_rgbf000068-resize_3-target.png,1000,1.8030000000000002,3,4672,984,feet,jsons/v1_VE1000_randls_21_rotated.json,955795,1246577,55,Woman
106,497238,DepthScenes,duration_manipulation_targetAtFixation,jsons/v1_VE1000_randls_21_rotated.json,http://54.235.29.9/FacialAge/BNav_EC2/DepthDuration/v2_depth_duration_MTurk/v2_DepthDuration_HTML.html#87,87,1366,625,1366,768,8-22-2022,6-59-17,107,depth_duration_stimuli/002057_2014-06-24_21-00-13_260595134347_rgbf000120-resize_1/002057_2014-06-24_21-00-13_260595134347_rgbf000120-resize_1-target.png,1000,2.967,6,4558,1005,feet,jsons/v1_VE1000_randls_21_rotated.json,955795,1246577,55,Woman
107,497238,DepthScenes,duration_manipulation_targetAtFixation,jsons/v1_VE1000_randls_21_rotated.json,http://54.235.29.9/FacialAge/BNav_EC2/DepthDuration/v2_depth_duration_MTurk/v2_DepthDuration_HTML.html#87,87,1366,625,1366,768,8-22-2022,6-59-17,108,depth_duration_stimuli/002639_2014-06-24_14-51-37_094959634447_rgbf000074-resize_4/002639_2014-06-24_14-51-37_094959634447_rgbf000074-resize_4-target.png,1000,4.0375,11,5224,993,feet,jsons/v1_VE1000_randls_21_rotated.json,955795,1246577,55,Woman
108,497238,DepthScenes,duration_manipulation_targetAtFixation,jsons/v1_VE1000_randls_21_rotated.json,http://54.235.29.9/FacialAge/BNav_EC2/DepthDuration/v2_depth_duration_MTurk/v2_DepthDuration_HTML.html#87,87,1366,625,1366,768,8-22-2022,6-59-17,109,depth_duration_stimuli/003292_2014-05-14_21-53-49_094959634447_rgbf000100-resize_2/003292_2014-05-14_21-53-49_094959634447_rgbf000100-resize_2-target.png,1000,3.4815,5,4226,1003,feet,jsons/v1_VE1000_randls_21_rotated.json,955795,1246577,55,Woman
109,497238,DepthScenes,duration_manipulation_targetAtFixation,jsons/v1_VE1000_randls_21_rotated.json,http://54.235.29.9/FacialAge/BNav_EC2/DepthDuration/v2_depth_duration_MTurk/v2_DepthDuration_HTML.html#87,87,1366,625,1366,768,8-22-2022,6-59-17,110,depth_duration_stimuli/001447_2014-06-19_17-00-32_260595134347_rgbf000082-resize_5/001447_2014-06-19_17-00-32_260595134347_rgbf000082-resize_5-target.png,1000,4.13775,7,5071,1008,feet,jsons/v1_VE1000_randls_21_rotated.json,955795,1246577,55,Woman
110,497238,DepthScenes,duration_manipulation_targetAtFixation,jsons/v1_VE1000_randls_21_rotated.json,http://54.235.29.9/FacialAge/BNav_EC2/DepthDuration/v2_depth_duration_MTurk/v2_DepthDuration_HTML.html#87,87,1366,625,1366,768,8-22-2022,6-59-17,111,depth_duration_stimuli/000447_2014-06-08_16-15-46_260595134347_rgbf000130-resize_1/000447_2014-06-08_16-15-46_260595134347_rgbf000130-resize_1-target.png,1000,4.479,13,4858,986,feet,jsons/v1_VE1000_randls_21_rotated.json,955795,1246577,55,Woman
111,497238,DepthScenes,duration_manipulation_targetAtFixation,jsons/v1_VE1000_randls_21_rotated.json,http://54.235.29.9/FacialAge/BNav_EC2/DepthDuration/v2_depth_duration_MTurk/v2_DepthDuration_HTML.html#87,87,1366,625,1366,768,8-22-2022,6-59-17,112,depth_duration_stimuli/002568_2014-06-24_13-59-21_094959634447_rgbf000062-resize_4/002568_2014-06-24_13-59-21_094959634447_rgbf000062-resize_4-target.png,1000,3.015,7,4746,993,feet,jsons/v1_VE1000_randls_21_rotated.json,955795,1246577,55,Woman
112,497238,DepthScenes,duration_manipulation_targetAtFixation,jsons/v1_VE1000_randls_21_rotated.json,http://54.235.29.9/FacialAge/BNav_EC2/DepthDuration/v2_depth_duration_MTurk/v2_DepthDuration_HTML.html#87,87,1366,625,1366,768,8-22-2022,6-59-17,113,depth_duration_stimuli/003492_2014-05-21_15-50-55_094959634447_rgbf000828-resize_1/003492_2014-05-21_15-50-55_094959634447_rgbf000828-resize_1-target.png,1000,4.06875,18,5261,1009,feet,jsons/v1_VE1000_randls_21_rotated.json,955795,1246577,55,Woman
113,497238,DepthScenes,duration_manipulation_targetAtFixation,jsons/v1_VE1000_randls_21_rotated.json,http://54.235.29.9/FacialAge/BNav_EC2/DepthDuration/v2_depth_duration_MTurk/v2_DepthDuration_HTML.html#87,87,1366,625,1366,768,8-22-2022,6-59-17,114,depth_duration_stimuli/001032_2014-06-08_13-23-17_260595134347_rgbf000021-resize_3/001032_2014-06-08_13-23-17_260595134347_rgbf000021-resize_3-target.png,1000,3.2725,7,4491,1004,feet,jsons/v1_VE1000_randls_21_rotated.json,955795,1246577,55,Woman
114,497238,DepthScenes,duration_manipulation_targetAtFixation,jsons/v1_VE1000_randls_21_rotated.json,http://54.235.29.9/FacialAge/BNav_EC2/DepthDuration/v2_depth_duration_MTurk/v2_DepthDuration_HTML.html#87,87,1366,625,1366,768,8-22-2022,6-59-17,115,depth_duration_stimuli/001059_2014-06-08_21-53-27_260595134347_rgbf000061-resize_4/001059_2014-06-08_21-53-27_260595134347_rgbf000061-resize_4-target.png,1000,2.4185,5,4293,989,feet,jsons/v1_VE1000_randls_21_rotated.json,955795,1246577,55,Woman
115,497238,DepthScenes,duration_manipulation_targetAtFixation,jsons/v1_VE1000_randls_21_rotated.json,http://54.235.29.9/FacialAge/BNav_EC2/DepthDuration/v2_depth_duration_MTurk/v2_DepthDuration_HTML.html#87,87,1366,625,1366,768,8-22-2022,6-59-17,116,depth_duration_stimuli/000780_2014-06-08_22-28-29_260595134347_rgbf000126-resize_1/000780_2014-06-08_22-28-29_260595134347_rgbf000126-resize_1-target.png,1000,3.3825,11,5279,1010,feet,jsons/v1_VE1000_randls_21_rotated.json,955795,1246577,55,Woman
116,497238,DepthScenes,duration_manipulation_targetAtFixation,jsons/v1_VE1000_randls_21_rotated.json,http://54.235.29.9/FacialAge/BNav_EC2/DepthDuration/v2_depth_duration_MTurk/v2_DepthDuration_HTML.html#87,87,1366,625,1366,768,8-22-2022,6-59-17,117,depth_duration_stimuli/002445_2014-06-28_20-32-16_260595134347_rgbf000029-resize_4/002445_2014-06-28_20-32-16_260595134347_rgbf000029-resize_4-target.png,1000,2.5315,4,4380,1005,feet,jsons/v1_VE1000_randls_21_rotated.json,955795,1246577,55,Woman
117,497238,DepthScenes,duration_manipulation_targetAtFixation,jsons/v1_VE1000_randls_21_rotated.json,http://54.235.29.9/FacialAge/BNav_EC2/DepthDuration/v2_depth_duration_MTurk/v2_DepthDuration_HTML.html#87,87,1366,625,1366,768,8-22-2022,6-59-17,118,depth_duration_stimuli/002545_2014-06-24_13-38-53_094959634447_rgbf000080-resize_4/002545_2014-06-24_13-38-53_094959634447_rgbf000080-resize_4-target.png,1000,1.9205,6,4444,989,feet,jsons/v1_VE1000_randls_21_rotated.json,955795,1246577,55,Woman
118,497238,DepthScenes,duration_manipulation_targetAtFixation,jsons/v1_VE1000_randls_21_rotated.json,http://54.235.29.9/FacialAge/BNav_EC2/DepthDuration/v2_depth_duration_MTurk/v2_DepthDuration_HTML.html#87,87,1366,625,1366,768,8-22-2022,6-59-17,119,depth_duration_stimuli/001092_2014-06-15_17-34-58_260595134347_rgbf000171-resize_3/001092_2014-06-15_17-34-58_260595134347_rgbf000171-resize_3-target.png,1000,2.6935,4,5806,1002,feet,jsons/v1_VE1000_randls_21_rotated.json,955795,1246577,55,Woman
119,497238,DepthScenes,duration_manipulation_targetAtFixation,jsons/v1_VE1000_randls_21_rotated.json,http://54.235.29.9/FacialAge/BNav_EC2/DepthDuration/v2_depth_duration_MTurk/v2_DepthDuration_HTML.html#87,87,1366,625,1366,768,8-22-2022,6-59-17,120,depth_duration_stimuli/000787_2014-06-08_22-33-53_260595134347_rgbf000175-resize_1/000787_2014-06-08_22-33-53_260595134347_rgbf000175-resize-original.jpg,1000,4.784,0,4977,998,feet,jsons/v1_VE1000_randls_21_rotated.json,955795,1246577,55,Woman
120,497238,DepthScenes,duration_manipulation_targetAtFixation,jsons/v1_VE1000_randls_21_rotated.json,http://54.235.29.9/FacialAge/BNav_EC2/DepthDuration/v2_depth_duration_MTurk/v2_DepthDuration_HTML.html#87,87,1366,625,1366,768,8-22-2022,6-59-17,121,depth_duration_stimuli/000665_2014-06-09_20-42-35_260595134347_rgbf000110-resize_1/000665_2014-06-09_20-42-35_260595134347_rgbf000110-resize_1-target.png,1000,3.057,7,4837,988,feet,jsons/v1_VE1000_randls_21_rotated.json,955795,1246577,55,Woman
121,497238,DepthScenes,duration_manipulation_targetAtFixation,jsons/v1_VE1000_randls_21_rotated.json,http://54.235.29.9/FacialAge/BNav_EC2/DepthDuration/v2_depth_duration_MTurk/v2_DepthDuration_HTML.html#87,87,1366,625,1366,768,8-22-2022,6-59-17,122,depth_duration_stimuli/001150_2014-06-17_15-27-34_260595134347_rgbf000108-resize_2/001150_2014-06-17_15-27-34_260595134347_rgbf000108-resize_2-target.png,1000,4.0325,8,4869,994,feet,jsons/v1_VE1000_randls_21_rotated.json,955795,1246577,55,Woman
122,497238,DepthScenes,duration_manipulation_targetAtFixation,jsons/v1_VE1000_randls_21_rotated.json,http://54.235.29.9/FacialAge/BNav_EC2/DepthDuration/v2_depth_duration_MTurk/v2_DepthDuration_HTML.html#87,87,1366,625,1366,768,8-22-2022,6-59-17,123,depth_duration_stimuli/000943_2014-06-09_19-31-07_260595134347_rgbf000128-resize_1/000943_2014-06-09_19-31-07_260595134347_rgbf000128-resize_1-target.png,1000,1.9765,3,4493,999,feet,jsons/v1_VE1000_randls_21_rotated.json,955795,1246577,55,Woman
123,497238,DepthScenes,duration_manipulation_targetAtFixation,jsons/v1_VE1000_randls_21_rotated.json,http://54.235.29.9/FacialAge/BNav_EC2/DepthDuration/v2_depth_duration_MTurk/v2_DepthDuration_HTML.html#87,87,1366,625,1366,768,8-22-2022,6-59-17,124,depth_duration_stimuli/003070_2014-06-15_14-58-27_094959634447_rgbf000150-resize_3/003070_2014-06-15_14-58-27_094959634447_rgbf000150-resize_3-target.png,1000,2.9415,7,5206,989,feet,jsons/v1_VE1000_randls_21_rotated.json,955795,1246577,55,Woman
124,497238,DepthScenes,duration_manipulation_targetAtFixation,jsons/v1_VE1000_randls_21_rotated.json,http://54.235.29.9/FacialAge/BNav_EC2/DepthDuration/v2_depth_duration_MTurk/v2_DepthDuration_HTML.html#87,87,1366,625,1366,768,8-22-2022,6-59-17,125,depth_duration_stimuli/002136_2014-06-25_21-18-03_260595134347_rgbf000109-resize_3/002136_2014-06-25_21-18-03_260595134347_rgbf000109-resize_3-target.png,1000,1.9569999999999999,4,4358,990,feet,jsons/v1_VE1000_randls_21_rotated.json,955795,1246577,55,Woman
125,497238,DepthScenes,duration_manipulation_targetAtFixation,jsons/v1_VE1000_randls_21_rotated.json,http://54.235.29.9/FacialAge/BNav_EC2/DepthDuration/v2_depth_duration_MTurk/v2_DepthDuration_HTML.html#87,87,1366,625,1366,768,8-22-2022,6-59-17,126,depth_duration_stimuli/002964_2014-06-08_17-46-11_094959634447_rgbf000091-resize_4/002964_2014-06-08_17-46-11_094959634447_rgbf000091-resize_4-target.png,1000,1.6909999999999998,2,4941,998,feet,jsons/v1_VE1000_randls_21_rotated.json,955795,1246577,55,Woman
126,497238,DepthScenes,duration_manipulation_targetAtFixation,jsons/v1_VE1000_randls_21_rotated.json,http://54.235.29.9/FacialAge/BNav_EC2/DepthDuration/v2_depth_duration_MTurk/v2_DepthDuration_HTML.html#87,87,1366,625,1366,768,8-22-2022,6-59-17,127,depth_duration_stimuli/003228_2014-05-14_13-42-35_094959634447_rgbf000101-resize_1/003228_2014-05-14_13-42-35_094959634447_rgbf000101-resize_1-target.png,1000,1.9680000000000002,3,5275,997,feet,jsons/v1_VE1000_randls_21_rotated.json,955795,1246577,55,Woman
127,497238,DepthScenes,duration_manipulation_targetAtFixation,jsons/v1_VE1000_randls_21_rotated.json,http://54.235.29.9/FacialAge/BNav_EC2/DepthDuration/v2_depth_duration_MTurk/v2_DepthDuration_HTML.html#87,87,1366,625,1366,768,8-22-2022,6-59-17,128,depth_duration_stimuli/002600_2014-06-24_14-27-04_094959634447_rgbf000074-resize_2/002600_2014-06-24_14-27-04_094959634447_rgbf000074-resize_2-target.png,1000,2.7575,7,5253,1005,feet,jsons/v1_VE1000_randls_21_rotated.json,955795,1246577,55,Woman
128,497238,DepthScenes,duration_manipulation_targetAtFixation,jsons/v1_VE1000_randls_21_rotated.json,http://54.235.29.9/FacialAge/BNav_EC2/DepthDuration/v2_depth_duration_MTurk/v2_DepthDuration_HTML.html#87,87,1366,625,1366,768,8-22-2022,6-59-17,129,depth_duration_stimuli/002660_2014-06-13_15-44-18_094959634447_rgbf001878-resize_2/002660_2014-06-13_15-44-18_094959634447_rgbf001878-resize_2-target.png,1000,3.576,12,5356,997,feet,jsons/v1_VE1000_randls_21_rotated.json,955795,1246577,55,Woman
129,497238,DepthScenes,duration_manipulation_targetAtFixation,jsons/v1_VE1000_randls_21_rotated.json,http://54.235.29.9/FacialAge/BNav_EC2/DepthDuration/v2_depth_duration_MTurk/v2_DepthDuration_HTML.html#87,87,1366,625,1366,768,8-22-2022,6-59-17,130,depth_duration_stimuli/002153_2014-06-25_21-27-18_260595134347_rgbf000038-resize_5/002153_2014-06-25_21-27-18_260595134347_rgbf000038-resize_5-target.png,1000,2.505,5,4270,997,feet,jsons/v1_VE1000_randls_21_rotated.json,955795,1246577,55,Woman
130,497238,DepthScenes,duration_manipulation_targetAtFixation,jsons/v1_VE1000_randls_21_rotated.json,http://54.235.29.9/FacialAge/BNav_EC2/DepthDuration/v2_depth_duration_MTurk/v2_DepthDuration_HTML.html#87,87,1366,625,1366,768,8-22-2022,6-59-17,131,depth_duration_stimuli/001516_2014-06-20_16-25-09_260595134347_rgbf000076-resize_2/001516_2014-06-20_16-25-09_260595134347_rgbf000076-resize_2-target.png,1000,1.7445,5,4348,997,feet,jsons/v1_VE1000_randls_21_rotated.json,955795,1246577,55,Woman
131,497238,DepthScenes,duration_manipulation_targetAtFixation,jsons/v1_VE1000_randls_21_rotated.json,http://54.235.29.9/FacialAge/BNav_EC2/DepthDuration/v2_depth_duration_MTurk/v2_DepthDuration_HTML.html#87,87,1366,625,1366,768,8-22-2022,6-59-17,132,depth_duration_stimuli/002118_2014-06-25_20-32-08_260595134347_rgbf000078-resize_1/002118_2014-06-25_20-32-08_260595134347_rgbf000078-resize_1-target.png,1000,2.6460000000000004,5,5120,996,feet,jsons/v1_VE1000_randls_21_rotated.json,955795,1246577,55,Woman
132,497238,DepthScenes,duration_manipulation_targetAtFixation,jsons/v1_VE1000_randls_21_rotated.json,http://54.235.29.9/FacialAge/BNav_EC2/DepthDuration/v2_depth_duration_MTurk/v2_DepthDuration_HTML.html#87,87,1366,625,1366,768,8-22-2022,6-59-17,133,depth_duration_stimuli/003423_2014-05-21_10-23-26_094959634447_rgbf002665-resize_2/003423_2014-05-21_10-23-26_094959634447_rgbf002665-resize_2-target.png,1000,3.2575,11,4590,987,feet,jsons/v1_VE1000_randls_21_rotated.json,955795,1246577,55,Woman
133,497238,DepthScenes,duration_manipulation_targetAtFixation,jsons/v1_VE1000_randls_21_rotated.json,http://54.235.29.9/FacialAge/BNav_EC2/DepthDuration/v2_depth_duration_MTurk/v2_DepthDuration_HTML.html#87,87,1366,625,1366,768,8-22-2022,6-59-17,134,depth_duration_stimuli/002905_2014-06-03_18-04-43_094959634447_rgbf000151-resize_2/002905_2014-06-03_18-04-43_094959634447_rgbf000151-resize_2-target.png,1000,2.0295,5,4359,1007,feet,jsons/v1_VE1000_randls_21_rotated.json,955795,1246577,55,Woman
134,497238,DepthScenes,duration_manipulation_targetAtFixation,jsons/v1_VE1000_randls_21_rotated.json,http://54.235.29.9/FacialAge/BNav_EC2/DepthDuration/v2_depth_duration_MTurk/v2_DepthDuration_HTML.html#87,87,1366,625,1366,768,8-22-2022,6-59-17,135,depth_duration_stimuli/000375_2014-06-08_11-17-29_260595134347_rgbf000133-resize_2/000375_2014-06-08_11-17-29_260595134347_rgbf000133-resize-original.jpg,1000,4.718,0,6290,995,feet,jsons/v1_VE1000_randls_21_rotated.json,955795,1246577,55,Woman
135,497238,DepthScenes,duration_manipulation_targetAtFixation,jsons/v1_VE1000_randls_21_rotated.json,http://54.235.29.9/FacialAge/BNav_EC2/DepthDuration/v2_depth_duration_MTurk/v2_DepthDuration_HTML.html#87,87,1366,625,1366,768,8-22-2022,6-59-17,136,depth_duration_stimuli/003495_2014-05-21_16-01-51_094959634447_rgbf000100-resize_3/003495_2014-05-21_16-01-51_094959634447_rgbf000100-resize_3-target.png,1000,1.6255,3,4986,997,feet,jsons/v1_VE1000_randls_21_rotated.json,955795,1246577,55,Woman
136,497238,DepthScenes,duration_manipulation_targetAtFixation,jsons/v1_VE1000_randls_21_rotated.json,http://54.235.29.9/FacialAge/BNav_EC2/DepthDuration/v2_depth_duration_MTurk/v2_DepthDuration_HTML.html#87,87,1366,625,1366,768,8-22-2022,6-59-17,137,depth_duration_stimuli/001244_2014-06-17_16-47-45_260595134347_rgbf000030-resize_4/001244_2014-06-17_16-47-45_260595134347_rgbf000030-resize_4-target.png,1000,2.0425,5,4910,1000,feet,jsons/v1_VE1000_randls_21_rotated.json,955795,1246577,55,Woman
137,497238,DepthScenes,duration_manipulation_targetAtFixation,jsons/v1_VE1000_randls_21_rotated.json,http://54.235.29.9/FacialAge/BNav_EC2/DepthDuration/v2_depth_duration_MTurk/v2_DepthDuration_HTML.html#87,87,1366,625,1366,768,8-22-2022,6-59-17,138,depth_duration_stimuli/000109_2014-05-14_23-41-52_260595134347_rgbf000035-resize_9/000109_2014-05-14_23-41-52_260595134347_rgbf000035-resize_9-target.png,1000,1.3545,2,5387,1005,feet,jsons/v1_VE1000_randls_21_rotated.json,955795,1246577,55,Woman
138,497238,DepthScenes,duration_manipulation_targetAtFixation,jsons/v1_VE1000_randls_21_rotated.json,http://54.235.29.9/FacialAge/BNav_EC2/DepthDuration/v2_depth_duration_MTurk/v2_DepthDuration_HTML.html#87,87,1366,625,1366,768,8-22-2022,6-59-17,139,depth_duration_stimuli/000470_2014-06-09_19-42-40_260595134347_rgbf000094-resize_1/000470_2014-06-09_19-42-40_260595134347_rgbf000094-resize_1-target.png,1000,1.831,3,4484,1004,feet,jsons/v1_VE1000_randls_21_rotated.json,955795,1246577,55,Woman
139,497238,DepthScenes,duration_manipulation_targetAtFixation,jsons/v1_VE1000_randls_21_rotated.json,http://54.235.29.9/FacialAge/BNav_EC2/DepthDuration/v2_depth_duration_MTurk/v2_DepthDuration_HTML.html#87,87,1366,625,1366,768,8-22-2022,6-59-17,140,depth_duration_stimuli/000854_2014-06-09_19-43-13_260595134347_rgbf000066-resize_0/000854_2014-06-09_19-43-13_260595134347_rgbf000066-resize_0-target.png,1000,3.068,4,4436,1000,feet,jsons/v1_VE1000_randls_21_rotated.json,955795,1246577,55,Woman
140,497238,DepthScenes,duration_manipulation_targetAtFixation,jsons/v1_VE1000_randls_21_rotated.json,http://54.235.29.9/FacialAge/BNav_EC2/DepthDuration/v2_depth_duration_MTurk/v2_DepthDuration_HTML.html#87,87,1366,625,1366,768,8-22-2022,6-59-17,141,depth_duration_stimuli/000758_2014-06-08_22-05-08_260595134347_rgbf000085-resize_0/000758_2014-06-08_22-05-08_260595134347_rgbf000085-resize_0-target.png,1000,3.3810000000000002,6,11561,985,feet,jsons/v1_VE1000_randls_21_rotated.json,955795,1246577,55,Woman
141,497238,DepthScenes,duration_manipulation_targetAtFixation,jsons/v1_VE1000_randls_21_rotated.json,http://54.235.29.9/FacialAge/BNav_EC2/DepthDuration/v2_depth_duration_MTurk/v2_DepthDuration_HTML.html#87,87,1366,625,1366,768,8-22-2022,6-59-17,142,depth_duration_stimuli/002875_2014-06-01_15-19-00_094959634447_rgbf000151-resize_1/002875_2014-06-01_15-19-00_094959634447_rgbf000151-resize_1-target.png,1000,1.9675,3,4298,999,feet,jsons/v1_VE1000_randls_21_rotated.json,955795,1246577,55,Woman
142,497238,DepthScenes,duration_manipulation_targetAtFixation,jsons/v1_VE1000_randls_21_rotated.json,http://54.235.29.9/FacialAge/BNav_EC2/DepthDuration/v2_depth_duration_MTurk/v2_DepthDuration_HTML.html#87,87,1366,625,1366,768,8-22-2022,6-59-17,143,depth_duration_stimuli/001011_2014-06-08_23-18-54_260595134347_rgbf000044-resize_4/001011_2014-06-08_23-18-54_260595134347_rgbf000044-resize_4-target.png,1000,2.4730000000000003,7,7907,992,feet,jsons/v1_VE1000_randls_21_rotated.json,955795,1246577,55,Woman
143,497238,DepthScenes,duration_manipulation_targetAtFixation,jsons/v1_VE1000_randls_21_rotated.json,http://54.235.29.9/FacialAge/BNav_EC2/DepthDuration/v2_depth_duration_MTurk/v2_DepthDuration_HTML.html#87,87,1366,625,1366,768,8-22-2022,6-59-17,144,depth_duration_stimuli/000549_2014-06-08_22-10-24_260595134347_rgbf000247-resize_3/000549_2014-06-08_22-10-24_260595134347_rgbf000247-resize_3-target.png,1000,1.841,2,4344,998,feet,jsons/v1_VE1000_randls_21_rotated.json,955795,1246577,55,Woman
144,497238,DepthScenes,duration_manipulation_targetAtFixation,jsons/v1_VE1000_randls_21_rotated.json,http://54.235.29.9/FacialAge/BNav_EC2/DepthDuration/v2_depth_duration_MTurk/v2_DepthDuration_HTML.html#87,87,1366,625,1366,768,8-22-2022,6-59-17,145,depth_duration_stimuli/001055_2014-06-08_18-45-35_260595134347_rgbf000111-resize_4/001055_2014-06-08_18-45-35_260595134347_rgbf000111-resize_4-target.png,1000,2.4290000000000003,7,4366,984,feet,jsons/v1_VE1000_randls_21_rotated.json,955795,1246577,55,Woman
145,497238,DepthScenes,duration_manipulation_targetAtFixation,jsons/v1_VE1000_randls_21_rotated.json,http://54.235.29.9/FacialAge/BNav_EC2/DepthDuration/v2_depth_duration_MTurk/v2_DepthDuration_HTML.html#87,87,1366,625,1366,768,8-22-2022,6-59-17,146,depth_duration_stimuli/001450_2014-06-19_17-02-03_260595134347_rgbf000203-resize_4/001450_2014-06-19_17-02-03_260595134347_rgbf000203-resize_4-target.png,1000,4.0106666666667,9,5405,1010,feet,jsons/v1_VE1000_randls_21_rotated.json,955795,1246577,55,Woman
146,497238,DepthScenes,duration_manipulation_targetAtFixation,jsons/v1_VE1000_randls_21_rotated.json,http://54.235.29.9/FacialAge/BNav_EC2/DepthDuration/v2_depth_duration_MTurk/v2_DepthDuration_HTML.html#87,87,1366,625,1366,768,8-22-2022,6-59-17,147,depth_duration_stimuli/001449_2014-06-19_17-01-27_260595134347_rgbf000116-resize_2/001449_2014-06-19_17-01-27_260595134347_rgbf000116-resize_2-target.png,1000,3.452,5,4905,999,feet,jsons/v1_VE1000_randls_21_rotated.json,955795,1246577,55,Woman
147,497238,DepthScenes,duration_manipulation_targetAtFixation,jsons/v1_VE1000_randls_21_rotated.json,http://54.235.29.9/FacialAge/BNav_EC2/DepthDuration/v2_depth_duration_MTurk/v2_DepthDuration_HTML.html#87,87,1366,625,1366,768,8-22-2022,6-59-17,148,depth_duration_stimuli/002425_2014-06-28_20-27-29_260595134347_rgbf000031-resize_8/002425_2014-06-28_20-27-29_260595134347_rgbf000031-resize_8-target.png,1000,3.8960000000000004,6,4808,983,feet,jsons/v1_VE1000_randls_21_rotated.json,955795,1246577,55,Woman
148,497238,DepthScenes,duration_manipulation_targetAtFixation,jsons/v1_VE1000_randls_21_rotated.json,http://54.235.29.9/FacialAge/BNav_EC2/DepthDuration/v2_depth_duration_MTurk/v2_DepthDuration_HTML.html#87,87,1366,625,1366,768,8-22-2022,6-59-17,149,depth_duration_stimuli/000642_2014-06-08_16-59-25_260595134347_rgbf000098-resize_2/000642_2014-06-08_16-59-25_260595134347_rgbf000098-resize_2-target.png,1000,2.8815,4,4400,988,feet,jsons/v1_VE1000_randls_21_rotated.json,955795,1246577,55,Woman
149,497238,DepthScenes,duration_manipulation_targetAtFixation,jsons/v1_VE1000_randls_21_rotated.json,http://54.235.29.9/FacialAge/BNav_EC2/DepthDuration/v2_depth_duration_MTurk/v2_DepthDuration_HTML.html#87,87,1366,625,1366,768,8-22-2022,6-59-17,150,depth_duration_stimuli/000103_2014-05-14_22-01-17_260595134347_rgbf000152-resize_5/000103_2014-05-14_22-01-17_260595134347_rgbf000152-resize_5-target.png,1000,1.993,6,4321,1009,feet,jsons/v1_VE1000_randls_21_rotated.json,955795,1246577,55,Woman
150,497238,DepthScenes,duration_manipulation_targetAtFixation,jsons/v1_VE1000_randls_21_rotated.json,http://54.235.29.9/FacialAge/BNav_EC2/DepthDuration/v2_depth_duration_MTurk/v2_DepthDuration_HTML.html#87,87,1366,625,1366,768,8-22-2022,6-59-17,151,depth_duration_stimuli/001555_2014-06-20_17-12-10_260595134347_rgbf000065-resize_4/001555_2014-06-20_17-12-10_260595134347_rgbf000065-resize_4-target.png,1000,1.633,3,4789,984,feet,jsons/v1_VE1000_randls_21_rotated.json,955795,1246577,55,Woman
151,497238,DepthScenes,duration_manipulation_targetAtFixation,jsons/v1_VE1000_randls_21_rotated.json,http://54.235.29.9/FacialAge/BNav_EC2/DepthDuration/v2_depth_duration_MTurk/v2_DepthDuration_HTML.html#87,87,1366,625,1366,768,8-22-2022,6-59-17,152,depth_duration_stimuli/000569_2014-06-09_22-51-47_260595134347_rgbf000141-resize_3/000569_2014-06-09_22-51-47_260595134347_rgbf000141-resize-original.jpg,1000,4.512,0,5285,985,feet,jsons/v1_VE1000_randls_21_rotated.json,955795,1246577,55,Woman
152,497238,DepthScenes,duration_manipulation_targetAtFixation,jsons/v1_VE1000_randls_21_rotated.json,http://54.235.29.9/FacialAge/BNav_EC2/DepthDuration/v2_depth_duration_MTurk/v2_DepthDuration_HTML.html#87,87,1366,625,1366,768,8-22-2022,6-59-17,153,depth_duration_stimuli/000191_2014-05-12_17-07-38_260595134347_rgbf000199-resize_0/000191_2014-05-12_17-07-38_260595134347_rgbf000199-resize_0-target.png,1000,3.7995,11,5223,989,feet,jsons/v1_VE1000_randls_21_rotated.json,955795,1246577,55,Woman
153,497238,DepthScenes,duration_manipulation_targetAtFixation,jsons/v1_VE1000_randls_21_rotated.json,http://54.235.29.9/FacialAge/BNav_EC2/DepthDuration/v2_depth_duration_MTurk/v2_DepthDuration_HTML.html#87,87,1366,625,1366,768,8-22-2022,6-59-17,154,depth_duration_stimuli/000493_2014-06-09_21-01-18_260595134347_rgbf000196-resize_3/000493_2014-06-09_21-01-18_260595134347_rgbf000196-resize_3-target.png,1000,3.44,6,5346,1001,feet,jsons/v1_VE1000_randls_21_rotated.json,955795,1246577,55,Woman
154,497238,DepthScenes,duration_manipulation_targetAtFixation,jsons/v1_VE1000_randls_21_rotated.json,http://54.235.29.9/FacialAge/BNav_EC2/DepthDuration/v2_depth_duration_MTurk/v2_DepthDuration_HTML.html#87,87,1366,625,1366,768,8-22-2022,6-59-17,155,depth_duration_stimuli/003338_2014-05-20_11-01-23_094959634447_rgbf000051-resize_6/003338_2014-05-20_11-01-23_094959634447_rgbf000051-resize_6-target.png,1000,1.693,2,4483,941,feet,jsons/v1_VE1000_randls_21_rotated.json,955795,1246577,55,Woman
155,497238,DepthScenes,duration_manipulation_targetAtFixation,jsons/v1_VE1000_randls_21_rotated.json,http://54.235.29.9/FacialAge/BNav_EC2/DepthDuration/v2_depth_duration_MTurk/v2_DepthDuration_HTML.html#87,87,1366,625,1366,768,8-22-2022,6-59-17,156,depth_duration_stimuli/002509_2014-06-24_13-19-22_094959634447_rgbf000077-resize_0/002509_2014-06-24_13-19-22_094959634447_rgbf000077-resize_0-target.png,1000,1.3065,2,4702,990,feet,jsons/v1_VE1000_randls_21_rotated.json,955795,1246577,55,Woman
156,497238,DepthScenes,duration_manipulation_targetAtFixation,jsons/v1_VE1000_randls_21_rotated.json,http://54.235.29.9/FacialAge/BNav_EC2/DepthDuration/v2_depth_duration_MTurk/v2_DepthDuration_HTML.html#87,87,1366,625,1366,768,8-22-2022,6-59-17,157,depth_duration_stimuli/003490_2014-05-21_15-50-11_094959634447_rgbf000101-resize_3/003490_2014-05-21_15-50-11_094959634447_rgbf000101-resize_3-target.png,1000,3.6445,10,8762,995,feet,jsons/v1_VE1000_randls_21_rotated.json,955795,1246577,55,Woman
157,497238,DepthScenes,duration_manipulation_targetAtFixation,jsons/v1_VE1000_randls_21_rotated.json,http://54.235.29.9/FacialAge/BNav_EC2/DepthDuration/v2_depth_duration_MTurk/v2_DepthDuration_HTML.html#87,87,1366,625,1366,768,8-22-2022,6-59-17,158,depth_duration_stimuli/001175_2014-06-17_15-45-55_260595134347_rgbf000129-resize_4/001175_2014-06-17_15-45-55_260595134347_rgbf000129-resize_4-target.png,1000,4.255,13,6278,1008,feet,jsons/v1_VE1000_randls_21_rotated.json,955795,1246577,55,Woman
158,497238,DepthScenes,duration_manipulation_targetAtFixation,jsons/v1_VE1000_randls_21_rotated.json,http://54.235.29.9/FacialAge/BNav_EC2/DepthDuration/v2_depth_duration_MTurk/v2_DepthDuration_HTML.html#87,87,1366,625,1366,768,8-22-2022,6-59-17,159,depth_duration_stimuli/000483_2014-06-09_20-41-45_260595134347_rgbf000116-resize_4/000483_2014-06-09_20-41-45_260595134347_rgbf000116-resize_4-target.png,1000,1.337,4,7782,994,feet,jsons/v1_VE1000_randls_21_rotated.json,955795,1246577,55,Woman
159,497238,DepthScenes,duration_manipulation_targetAtFixation,jsons/v1_VE1000_randls_21_rotated.json,http://54.235.29.9/FacialAge/BNav_EC2/DepthDuration/v2_depth_duration_MTurk/v2_DepthDuration_HTML.html#87,87,1366,625,1366,768,8-22-2022,6-59-17,160,depth_duration_stimuli/000469_2014-06-09_19-42-10_260595134347_rgbf000081-resize_1/000469_2014-06-09_19-42-10_260595134347_rgbf000081-resize_1-target.png,1000,1.652,4,4602,1000,feet,jsons/v1_VE1000_randls_21_rotated.json,955795,1246577,55,Woman
160,497238,DepthScenes,duration_manipulation_targetAtFixation,jsons/v1_VE1000_randls_21_rotated.json,http://54.235.29.9/FacialAge/BNav_EC2/DepthDuration/v2_depth_duration_MTurk/v2_DepthDuration_HTML.html#87,87,1366,625,1366,768,8-22-2022,6-59-17,161,depth_duration_stimuli/002199_2014-06-28_18-33-56_260595134347_rgbf000074-resize_0/002199_2014-06-28_18-33-56_260595134347_rgbf000074-resize_0-target.png,1000,1.996,3,4595,1001,feet,jsons/v1_VE1000_randls_21_rotated.json,955795,1246577,55,Woman
161,497238,DepthScenes,duration_manipulation_targetAtFixation,jsons/v1_VE1000_randls_21_rotated.json,http://54.235.29.9/FacialAge/BNav_EC2/DepthDuration/v2_depth_duration_MTurk/v2_DepthDuration_HTML.html#87,87,1366,625,1366,768,8-22-2022,6-59-17,162,depth_duration_stimuli/001056_2014-06-08_18-46-44_260595134347_rgbf000068-resize_0/001056_2014-06-08_18-46-44_260595134347_rgbf000068-resize_0-target.png,1000,2.6625,7,4809,1000,feet,jsons/v1_VE1000_randls_21_rotated.json,955795,1246577,55,Woman
162,497238,DepthScenes,duration_manipulation_targetAtFixation,jsons/v1_VE1000_randls_21_rotated.json,http://54.235.29.9/FacialAge/BNav_EC2/DepthDuration/v2_depth_duration_MTurk/v2_DepthDuration_HTML.html#87,87,1366,625,1366,768,8-22-2022,6-59-17,163,depth_duration_stimuli/001828_2014-06-26_21-40-03_260595134347_rgbf000024-resize_0/001828_2014-06-26_21-40-03_260595134347_rgbf000024-resize_0-target.png,1000,4.8260000000000005,9,5814,994,feet,jsons/v1_VE1000_randls_21_rotated.json,955795,1246577,55,Woman
163,497238,DepthScenes,duration_manipulation_targetAtFixation,jsons/v1_VE1000_randls_21_rotated.json,http://54.235.29.9/FacialAge/BNav_EC2/DepthDuration/v2_depth_duration_MTurk/v2_DepthDuration_HTML.html#87,87,1366,625,1366,768,8-22-2022,6-59-17,164,depth_duration_stimuli/000009_2014-05-26_14-32-05_260595134347_rgbf000034-resize_3/000009_2014-05-26_14-32-05_260595134347_rgbf000034-resize_3-target.png,1000,3.8715,14,5121,989,feet,jsons/v1_VE1000_randls_21_rotated.json,955795,1246577,55,Woman
