,subjID,experimentName,versionName,sequenceName,url,selected_row,windowWidth,windowHeight,screenWidth,screenHeight,startDate,startTime,trial,stimulus,duration,actual_depth,depth_estimate,trial_RT,log_sceneDuration,unitSelection,seq_filepath,experimentTime,totalTime,age,gender
0,498105,DepthScenes,duration_manipulation_targetAtFixation,jsons/v1_VE1000_randls_18.json,http://54.235.29.9/FacialAge/BNav_EC2/DepthDuration/v2_depth_duration_MTurk/v2_DepthDuration_HTML.html#436,436,1536,754,1536,864,8-30-2022,11-22-44,1,depth_duration_stimuli/002509_2014-06-24_13-19-22_094959634447_rgbf000077-resize_0/002509_2014-06-24_13-19-22_094959634447_rgbf000077-resize_0-target.png,1000,1.3065,1.0,5540,995,meters,jsons/v1_VE1000_randls_18.json,1632330,2812895,48,Woman
1,498105,DepthScenes,duration_manipulation_targetAtFixation,jsons/v1_VE1000_randls_18.json,http://54.235.29.9/FacialAge/BNav_EC2/DepthDuration/v2_depth_duration_MTurk/v2_DepthDuration_HTML.html#436,436,1536,754,1536,864,8-30-2022,11-22-44,2,depth_duration_stimuli/003338_2014-05-20_11-01-23_094959634447_rgbf000051-resize_6/003338_2014-05-20_11-01-23_094959634447_rgbf000051-resize_6-target.png,1000,1.693,1.0,6019,983,meters,jsons/v1_VE1000_randls_18.json,1632330,2812895,48,Woman
2,498105,DepthScenes,duration_manipulation_targetAtFixation,jsons/v1_VE1000_randls_18.json,http://54.235.29.9/FacialAge/BNav_EC2/DepthDuration/v2_depth_duration_MTurk/v2_DepthDuration_HTML.html#436,436,1536,754,1536,864,8-30-2022,11-22-44,3,depth_duration_stimuli/002375_2014-06-28_20-13-44_260595134347_rgbf000032-resize_1/002375_2014-06-28_20-13-44_260595134347_rgbf000032-resize_1-target.png,1000,4.0175,2.0,6001,977,meters,jsons/v1_VE1000_randls_18.json,1632330,2812895,48,Woman
3,498105,DepthScenes,duration_manipulation_targetAtFixation,jsons/v1_VE1000_randls_18.json,http://54.235.29.9/FacialAge/BNav_EC2/DepthDuration/v2_depth_duration_MTurk/v2_DepthDuration_HTML.html#436,436,1536,754,1536,864,8-30-2022,11-22-44,4,depth_duration_stimuli/002657_2014-06-13_15-29-54_094959634447_rgbf000150-resize_1/002657_2014-06-13_15-29-54_094959634447_rgbf000150-resize_1-target.png,1000,4.919,4.0,7473,1003,meters,jsons/v1_VE1000_randls_18.json,1632330,2812895,48,Woman
4,498105,DepthScenes,duration_manipulation_targetAtFixation,jsons/v1_VE1000_randls_18.json,http://54.235.29.9/FacialAge/BNav_EC2/DepthDuration/v2_depth_duration_MTurk/v2_DepthDuration_HTML.html#436,436,1536,754,1536,864,8-30-2022,11-22-44,5,depth_duration_stimuli/001110_2014-06-15_17-25-28_260595134347_rgbf000150-resize_1/001110_2014-06-15_17-25-28_260595134347_rgbf000150-resize_1-target.png,1000,1.7115,3.0,6090,998,meters,jsons/v1_VE1000_randls_18.json,1632330,2812895,48,Woman
5,498105,DepthScenes,duration_manipulation_targetAtFixation,jsons/v1_VE1000_randls_18.json,http://54.235.29.9/FacialAge/BNav_EC2/DepthDuration/v2_depth_duration_MTurk/v2_DepthDuration_HTML.html#436,436,1536,754,1536,864,8-30-2022,11-22-44,6,depth_duration_stimuli/000927_2014-06-09_16-32-30_260595134347_rgbf000123-resize_3/000927_2014-06-09_16-32-30_260595134347_rgbf000123-resize_3-target.png,1000,2.6785,4.0,8897,986,meters,jsons/v1_VE1000_randls_18.json,1632330,2812895,48,Woman
6,498105,DepthScenes,duration_manipulation_targetAtFixation,jsons/v1_VE1000_randls_18.json,http://54.235.29.9/FacialAge/BNav_EC2/DepthDuration/v2_depth_duration_MTurk/v2_DepthDuration_HTML.html#436,436,1536,754,1536,864,8-30-2022,11-22-44,7,depth_duration_stimuli/000692_2014-06-08_13-09-42_260595134347_rgbf000199-resize_2/000692_2014-06-08_13-09-42_260595134347_rgbf000199-resize_2-target.png,1000,3.661,6.0,6963,1030,meters,jsons/v1_VE1000_randls_18.json,1632330,2812895,48,Woman
7,498105,DepthScenes,duration_manipulation_targetAtFixation,jsons/v1_VE1000_randls_18.json,http://54.235.29.9/FacialAge/BNav_EC2/DepthDuration/v2_depth_duration_MTurk/v2_DepthDuration_HTML.html#436,436,1536,754,1536,864,8-30-2022,11-22-44,8,depth_duration_stimuli/001094_2014-06-15_17-36-00_260595134347_rgbf000205-resize_0/001094_2014-06-15_17-36-00_260595134347_rgbf000205-resize_0-target.png,1000,4.2175,6.0,6317,781,meters,jsons/v1_VE1000_randls_18.json,1632330,2812895,48,Woman
8,498105,DepthScenes,duration_manipulation_targetAtFixation,jsons/v1_VE1000_randls_18.json,http://54.235.29.9/FacialAge/BNav_EC2/DepthDuration/v2_depth_duration_MTurk/v2_DepthDuration_HTML.html#436,436,1536,754,1536,864,8-30-2022,11-22-44,9,depth_duration_stimuli/001417_2014-06-19_16-25-36_260595134347_rgbf000115-resize_5/001417_2014-06-19_16-25-36_260595134347_rgbf000115-resize_5-target.png,1000,4.6255,5.0,7175,1014,meters,jsons/v1_VE1000_randls_18.json,1632330,2812895,48,Woman
9,498105,DepthScenes,duration_manipulation_targetAtFixation,jsons/v1_VE1000_randls_18.json,http://54.235.29.9/FacialAge/BNav_EC2/DepthDuration/v2_depth_duration_MTurk/v2_DepthDuration_HTML.html#436,436,1536,754,1536,864,8-30-2022,11-22-44,10,depth_duration_stimuli/003081_2014-06-15_15-19-16_094959634447_rgbf000150-resize_1/003081_2014-06-15_15-19-16_094959634447_rgbf000150-resize_1-target.png,1000,3.9125,5.0,4967,995,meters,jsons/v1_VE1000_randls_18.json,1632330,2812895,48,Woman
10,498105,DepthScenes,duration_manipulation_targetAtFixation,jsons/v1_VE1000_randls_18.json,http://54.235.29.9/FacialAge/BNav_EC2/DepthDuration/v2_depth_duration_MTurk/v2_DepthDuration_HTML.html#436,436,1536,754,1536,864,8-30-2022,11-22-44,11,depth_duration_stimuli/001055_2014-06-08_18-45-35_260595134347_rgbf000111-resize_4/001055_2014-06-08_18-45-35_260595134347_rgbf000111-resize_4-target.png,1000,2.4290000000000003,6.0,6905,985,meters,jsons/v1_VE1000_randls_18.json,1632330,2812895,48,Woman
11,498105,DepthScenes,duration_manipulation_targetAtFixation,jsons/v1_VE1000_randls_18.json,http://54.235.29.9/FacialAge/BNav_EC2/DepthDuration/v2_depth_duration_MTurk/v2_DepthDuration_HTML.html#436,436,1536,754,1536,864,8-30-2022,11-22-44,12,depth_duration_stimuli/000549_2014-06-08_22-10-24_260595134347_rgbf000247-resize_3/000549_2014-06-08_22-10-24_260595134347_rgbf000247-resize_3-target.png,1000,1.841,1.0,7115,998,meters,jsons/v1_VE1000_randls_18.json,1632330,2812895,48,Woman
12,498105,DepthScenes,duration_manipulation_targetAtFixation,jsons/v1_VE1000_randls_18.json,http://54.235.29.9/FacialAge/BNav_EC2/DepthDuration/v2_depth_duration_MTurk/v2_DepthDuration_HTML.html#436,436,1536,754,1536,864,8-30-2022,11-22-44,13,depth_duration_stimuli/000569_2014-06-09_22-51-47_260595134347_rgbf000141-resize_3/000569_2014-06-09_22-51-47_260595134347_rgbf000141-resize-original.jpg,1000,4.512,0.0,5027,1022,meters,jsons/v1_VE1000_randls_18.json,1632330,2812895,48,Woman
13,498105,DepthScenes,duration_manipulation_targetAtFixation,jsons/v1_VE1000_randls_18.json,http://54.235.29.9/FacialAge/BNav_EC2/DepthDuration/v2_depth_duration_MTurk/v2_DepthDuration_HTML.html#436,436,1536,754,1536,864,8-30-2022,11-22-44,14,depth_duration_stimuli/001175_2014-06-17_15-45-55_260595134347_rgbf000129-resize_4/001175_2014-06-17_15-45-55_260595134347_rgbf000129-resize_4-target.png,1000,4.255,6.0,6231,997,meters,jsons/v1_VE1000_randls_18.json,1632330,2812895,48,Woman
14,498105,DepthScenes,duration_manipulation_targetAtFixation,jsons/v1_VE1000_randls_18.json,http://54.235.29.9/FacialAge/BNav_EC2/DepthDuration/v2_depth_duration_MTurk/v2_DepthDuration_HTML.html#436,436,1536,754,1536,864,8-30-2022,11-22-44,15,depth_duration_stimuli/003490_2014-05-21_15-50-11_094959634447_rgbf000101-resize_3/003490_2014-05-21_15-50-11_094959634447_rgbf000101-resize_3-target.png,1000,3.6445,4.0,5091,883,meters,jsons/v1_VE1000_randls_18.json,1632330,2812895,48,Woman
15,498105,DepthScenes,duration_manipulation_targetAtFixation,jsons/v1_VE1000_randls_18.json,http://54.235.29.9/FacialAge/BNav_EC2/DepthDuration/v2_depth_duration_MTurk/v2_DepthDuration_HTML.html#436,436,1536,754,1536,864,8-30-2022,11-22-44,16,depth_duration_stimuli/000788_2014-06-08_22-34-36_260595134347_rgbf000131-resize_1/000788_2014-06-08_22-34-36_260595134347_rgbf000131-resize_1-target.png,1000,3.359,3.0,6059,967,meters,jsons/v1_VE1000_randls_18.json,1632330,2812895,48,Woman
16,498105,DepthScenes,duration_manipulation_targetAtFixation,jsons/v1_VE1000_randls_18.json,http://54.235.29.9/FacialAge/BNav_EC2/DepthDuration/v2_depth_duration_MTurk/v2_DepthDuration_HTML.html#436,436,1536,754,1536,864,8-30-2022,11-22-44,17,depth_duration_stimuli/001235_2014-06-17_16-37-36_260595134347_rgbf000084-resize_4/001235_2014-06-17_16-37-36_260595134347_rgbf000084-resize_4-target.png,1000,3.6605,4.0,7174,975,meters,jsons/v1_VE1000_randls_18.json,1632330,2812895,48,Woman
17,498105,DepthScenes,duration_manipulation_targetAtFixation,jsons/v1_VE1000_randls_18.json,http://54.235.29.9/FacialAge/BNav_EC2/DepthDuration/v2_depth_duration_MTurk/v2_DepthDuration_HTML.html#436,436,1536,754,1536,864,8-30-2022,11-22-44,18,depth_duration_stimuli/000436_2014-06-09_22-25-11_260595134347_rgbf000137-resize_1/000436_2014-06-09_22-25-11_260595134347_rgbf000137-resize_1-target.png,1000,4.0705,5.0,5780,1009,meters,jsons/v1_VE1000_randls_18.json,1632330,2812895,48,Woman
18,498105,DepthScenes,duration_manipulation_targetAtFixation,jsons/v1_VE1000_randls_18.json,http://54.235.29.9/FacialAge/BNav_EC2/DepthDuration/v2_depth_duration_MTurk/v2_DepthDuration_HTML.html#436,436,1536,754,1536,864,8-30-2022,11-22-44,19,depth_duration_stimuli/002444_2014-06-28_20-32-08_260595134347_rgbf000027-resize_0/002444_2014-06-28_20-32-08_260595134347_rgbf000027-resize_0-target.png,1000,4.388999999999999,6.0,7542,1001,meters,jsons/v1_VE1000_randls_18.json,1632330,2812895,48,Woman
19,498105,DepthScenes,duration_manipulation_targetAtFixation,jsons/v1_VE1000_randls_18.json,http://54.235.29.9/FacialAge/BNav_EC2/DepthDuration/v2_depth_duration_MTurk/v2_DepthDuration_HTML.html#436,436,1536,754,1536,864,8-30-2022,11-22-44,20,depth_duration_stimuli/002570_2014-06-24_13-59-54_094959634447_rgbf000059-resize_0/002570_2014-06-24_13-59-54_094959634447_rgbf000059-resize_0-target.png,1000,4.037,5.0,7077,998,meters,jsons/v1_VE1000_randls_18.json,1632330,2812895,48,Woman
20,498105,DepthScenes,duration_manipulation_targetAtFixation,jsons/v1_VE1000_randls_18.json,http://54.235.29.9/FacialAge/BNav_EC2/DepthDuration/v2_depth_duration_MTurk/v2_DepthDuration_HTML.html#436,436,1536,754,1536,864,8-30-2022,11-22-44,21,depth_duration_stimuli/002467_2014-06-28_20-38-07_260595134347_rgbf000026-resize_2/002467_2014-06-28_20-38-07_260595134347_rgbf000026-resize_2-target.png,1000,4.742,5.0,17903,996,meters,jsons/v1_VE1000_randls_18.json,1632330,2812895,48,Woman
21,498105,DepthScenes,duration_manipulation_targetAtFixation,jsons/v1_VE1000_randls_18.json,http://54.235.29.9/FacialAge/BNav_EC2/DepthDuration/v2_depth_duration_MTurk/v2_DepthDuration_HTML.html#436,436,1536,754,1536,864,8-30-2022,11-22-44,22,depth_duration_stimuli/002988_2014-06-15_12-24-20_094959634447_rgbf000150-resize_1/002988_2014-06-15_12-24-20_094959634447_rgbf000150-resize_1-target.png,1000,4.7669999999999995,7.0,23623,995,meters,jsons/v1_VE1000_randls_18.json,1632330,2812895,48,Woman
22,498105,DepthScenes,duration_manipulation_targetAtFixation,jsons/v1_VE1000_randls_18.json,http://54.235.29.9/FacialAge/BNav_EC2/DepthDuration/v2_depth_duration_MTurk/v2_DepthDuration_HTML.html#436,436,1536,754,1536,864,8-30-2022,11-22-44,23,depth_duration_stimuli/001052_2014-06-08_18-24-54_260595134347_rgbf000130-resize_1/001052_2014-06-08_18-24-54_260595134347_rgbf000130-resize_1-target.png,1000,4.1045,5.0,8283,969,meters,jsons/v1_VE1000_randls_18.json,1632330,2812895,48,Woman
23,498105,DepthScenes,duration_manipulation_targetAtFixation,jsons/v1_VE1000_randls_18.json,http://54.235.29.9/FacialAge/BNav_EC2/DepthDuration/v2_depth_duration_MTurk/v2_DepthDuration_HTML.html#436,436,1536,754,1536,864,8-30-2022,11-22-44,24,depth_duration_stimuli/000739_2014-06-08_18-45-58_260595134347_rgbf000068-resize_1/000739_2014-06-08_18-45-58_260595134347_rgbf000068-resize_1-target.png,1000,3.534,4.0,6836,999,meters,jsons/v1_VE1000_randls_18.json,1632330,2812895,48,Woman
24,498105,DepthScenes,duration_manipulation_targetAtFixation,jsons/v1_VE1000_randls_18.json,http://54.235.29.9/FacialAge/BNav_EC2/DepthDuration/v2_depth_duration_MTurk/v2_DepthDuration_HTML.html#436,436,1536,754,1536,864,8-30-2022,11-22-44,25,depth_duration_stimuli/000734_2014-06-08_17-39-11_260595134347_rgbf000128-resize_2/000734_2014-06-08_17-39-11_260595134347_rgbf000128-resize_2-target.png,1000,4.098,5.0,21745,1016,meters,jsons/v1_VE1000_randls_18.json,1632330,2812895,48,Woman
25,498105,DepthScenes,duration_manipulation_targetAtFixation,jsons/v1_VE1000_randls_18.json,http://54.235.29.9/FacialAge/BNav_EC2/DepthDuration/v2_depth_duration_MTurk/v2_DepthDuration_HTML.html#436,436,1536,754,1536,864,8-30-2022,11-22-44,26,depth_duration_stimuli/002279_2014-06-28_18-55-32_260595134347_rgbf000040-resize_5/002279_2014-06-28_18-55-32_260595134347_rgbf000040-resize_5-target.png,1000,1.5043333333333,2.0,10075,994,meters,jsons/v1_VE1000_randls_18.json,1632330,2812895,48,Woman
26,498105,DepthScenes,duration_manipulation_targetAtFixation,jsons/v1_VE1000_randls_18.json,http://54.235.29.9/FacialAge/BNav_EC2/DepthDuration/v2_depth_duration_MTurk/v2_DepthDuration_HTML.html#436,436,1536,754,1536,864,8-30-2022,11-22-44,27,depth_duration_stimuli/000635_2014-06-08_16-38-42_260595134347_rgbf000106-resize_1/000635_2014-06-08_16-38-42_260595134347_rgbf000106-resize_1-target.png,1000,2.074,4.0,6104,999,meters,jsons/v1_VE1000_randls_18.json,1632330,2812895,48,Woman
27,498105,DepthScenes,duration_manipulation_targetAtFixation,jsons/v1_VE1000_randls_18.json,http://54.235.29.9/FacialAge/BNav_EC2/DepthDuration/v2_depth_duration_MTurk/v2_DepthDuration_HTML.html#436,436,1536,754,1536,864,8-30-2022,11-22-44,28,depth_duration_stimuli/001133_2014-06-17_14-49-16_260595134347_rgbf000100-resize_0/001133_2014-06-17_14-49-16_260595134347_rgbf000100-resize_0-target.png,1000,4.2115,5.0,5250,1009,meters,jsons/v1_VE1000_randls_18.json,1632330,2812895,48,Woman
28,498105,DepthScenes,duration_manipulation_targetAtFixation,jsons/v1_VE1000_randls_18.json,http://54.235.29.9/FacialAge/BNav_EC2/DepthDuration/v2_depth_duration_MTurk/v2_DepthDuration_HTML.html#436,436,1536,754,1536,864,8-30-2022,11-22-44,29,depth_duration_stimuli/001132_2014-06-17_14-48-54_260595134347_rgbf000100-resize_2/001132_2014-06-17_14-48-54_260595134347_rgbf000100-resize_2-target.png,1000,3.753,6.0,10591,998,meters,jsons/v1_VE1000_randls_18.json,1632330,2812895,48,Woman
29,498105,DepthScenes,duration_manipulation_targetAtFixation,jsons/v1_VE1000_randls_18.json,http://54.235.29.9/FacialAge/BNav_EC2/DepthDuration/v2_depth_duration_MTurk/v2_DepthDuration_HTML.html#436,436,1536,754,1536,864,8-30-2022,11-22-44,30,depth_duration_stimuli/000375_2014-06-08_11-17-29_260595134347_rgbf000133-resize_2/000375_2014-06-08_11-17-29_260595134347_rgbf000133-resize-original.jpg,1000,4.718,0.0,6064,937,meters,jsons/v1_VE1000_randls_18.json,1632330,2812895,48,Woman
30,498105,DepthScenes,duration_manipulation_targetAtFixation,jsons/v1_VE1000_randls_18.json,http://54.235.29.9/FacialAge/BNav_EC2/DepthDuration/v2_depth_duration_MTurk/v2_DepthDuration_HTML.html#436,436,1536,754,1536,864,8-30-2022,11-22-44,31,depth_duration_stimuli/001029_2014-06-08_13-17-57_260595134347_rgbf000065-resize_1/001029_2014-06-08_13-17-57_260595134347_rgbf000065-resize_1-target.png,1000,3.0835,4.0,8195,1007,meters,jsons/v1_VE1000_randls_18.json,1632330,2812895,48,Woman
31,498105,DepthScenes,duration_manipulation_targetAtFixation,jsons/v1_VE1000_randls_18.json,http://54.235.29.9/FacialAge/BNav_EC2/DepthDuration/v2_depth_duration_MTurk/v2_DepthDuration_HTML.html#436,436,1536,754,1536,864,8-30-2022,11-22-44,32,depth_duration_stimuli/000677_2014-06-08_23-10-32_260595134347_rgbf000158-resize_6/000677_2014-06-08_23-10-32_260595134347_rgbf000158-resize_6-target.png,1000,3.556,4.0,5326,1026,meters,jsons/v1_VE1000_randls_18.json,1632330,2812895,48,Woman
32,498105,DepthScenes,duration_manipulation_targetAtFixation,jsons/v1_VE1000_randls_18.json,http://54.235.29.9/FacialAge/BNav_EC2/DepthDuration/v2_depth_duration_MTurk/v2_DepthDuration_HTML.html#436,436,1536,754,1536,864,8-30-2022,11-22-44,33,depth_duration_stimuli/001066_2014-06-08_22-03-20_260595134347_rgbf000066-resize_4/001066_2014-06-08_22-03-20_260595134347_rgbf000066-resize_4-target.png,1000,4.2330000000000005,7.0,7222,996,meters,jsons/v1_VE1000_randls_18.json,1632330,2812895,48,Woman
33,498105,DepthScenes,duration_manipulation_targetAtFixation,jsons/v1_VE1000_randls_18.json,http://54.235.29.9/FacialAge/BNav_EC2/DepthDuration/v2_depth_duration_MTurk/v2_DepthDuration_HTML.html#436,436,1536,754,1536,864,8-30-2022,11-22-44,34,depth_duration_stimuli/000742_2014-06-08_18-48-09_260595134347_rgbf000164-resize_4/000742_2014-06-08_18-48-09_260595134347_rgbf000164-resize_4-target.png,1000,4.632,6.0,6373,993,meters,jsons/v1_VE1000_randls_18.json,1632330,2812895,48,Woman
34,498105,DepthScenes,duration_manipulation_targetAtFixation,jsons/v1_VE1000_randls_18.json,http://54.235.29.9/FacialAge/BNav_EC2/DepthDuration/v2_depth_duration_MTurk/v2_DepthDuration_HTML.html#436,436,1536,754,1536,864,8-30-2022,11-22-44,35,depth_duration_stimuli/001059_2014-06-08_21-53-27_260595134347_rgbf000061-resize_4/001059_2014-06-08_21-53-27_260595134347_rgbf000061-resize_4-target.png,1000,2.4185,3.0,10618,991,meters,jsons/v1_VE1000_randls_18.json,1632330,2812895,48,Woman
35,498105,DepthScenes,duration_manipulation_targetAtFixation,jsons/v1_VE1000_randls_18.json,http://54.235.29.9/FacialAge/BNav_EC2/DepthDuration/v2_depth_duration_MTurk/v2_DepthDuration_HTML.html#436,436,1536,754,1536,864,8-30-2022,11-22-44,36,depth_duration_stimuli/001032_2014-06-08_13-23-17_260595134347_rgbf000021-resize_3/001032_2014-06-08_13-23-17_260595134347_rgbf000021-resize_3-target.png,1000,3.2725,4.0,6322,1003,meters,jsons/v1_VE1000_randls_18.json,1632330,2812895,48,Woman
36,498105,DepthScenes,duration_manipulation_targetAtFixation,jsons/v1_VE1000_randls_18.json,http://54.235.29.9/FacialAge/BNav_EC2/DepthDuration/v2_depth_duration_MTurk/v2_DepthDuration_HTML.html#436,436,1536,754,1536,864,8-30-2022,11-22-44,37,depth_duration_stimuli/000506_2014-06-08_23-21-00_260595134347_rgbf000070-resize_7/000506_2014-06-08_23-21-00_260595134347_rgbf000070-resize_7-target.png,1000,4.0585,5.0,5532,971,meters,jsons/v1_VE1000_randls_18.json,1632330,2812895,48,Woman
37,498105,DepthScenes,duration_manipulation_targetAtFixation,jsons/v1_VE1000_randls_18.json,http://54.235.29.9/FacialAge/BNav_EC2/DepthDuration/v2_depth_duration_MTurk/v2_DepthDuration_HTML.html#436,436,1536,754,1536,864,8-30-2022,11-22-44,38,depth_duration_stimuli/003079_2014-06-15_15-18-20_094959634447_rgbf000152-resize_8/003079_2014-06-15_15-18-20_094959634447_rgbf000152-resize_8-target.png,1000,2.8775,6.0,16439,999,meters,jsons/v1_VE1000_randls_18.json,1632330,2812895,48,Woman
38,498105,DepthScenes,duration_manipulation_targetAtFixation,jsons/v1_VE1000_randls_18.json,http://54.235.29.9/FacialAge/BNav_EC2/DepthDuration/v2_depth_duration_MTurk/v2_DepthDuration_HTML.html#436,436,1536,754,1536,864,8-30-2022,11-22-44,39,depth_duration_stimuli/001056_2014-06-08_18-46-44_260595134347_rgbf000068-resize_0/001056_2014-06-08_18-46-44_260595134347_rgbf000068-resize_0-target.png,1000,2.6625,4.0,5191,997,meters,jsons/v1_VE1000_randls_18.json,1632330,2812895,48,Woman
39,498105,DepthScenes,duration_manipulation_targetAtFixation,jsons/v1_VE1000_randls_18.json,http://54.235.29.9/FacialAge/BNav_EC2/DepthDuration/v2_depth_duration_MTurk/v2_DepthDuration_HTML.html#436,436,1536,754,1536,864,8-30-2022,11-22-44,40,depth_duration_stimuli/002199_2014-06-28_18-33-56_260595134347_rgbf000074-resize_0/002199_2014-06-28_18-33-56_260595134347_rgbf000074-resize_0-target.png,1000,1.996,1.0,7700,1040,meters,jsons/v1_VE1000_randls_18.json,1632330,2812895,48,Woman
40,498105,DepthScenes,duration_manipulation_targetAtFixation,jsons/v1_VE1000_randls_18.json,http://54.235.29.9/FacialAge/BNav_EC2/DepthDuration/v2_depth_duration_MTurk/v2_DepthDuration_HTML.html#436,436,1536,754,1536,864,8-30-2022,11-22-44,41,depth_duration_stimuli/000368_2014-06-09_15-53-01_260595134347_rgbf000155-resize_2/000368_2014-06-09_15-53-01_260595134347_rgbf000155-resize_2-target.png,1000,2.4859999999999998,2.0,6348,951,meters,jsons/v1_VE1000_randls_18.json,1632330,2812895,48,Woman
41,498105,DepthScenes,duration_manipulation_targetAtFixation,jsons/v1_VE1000_randls_18.json,http://54.235.29.9/FacialAge/BNav_EC2/DepthDuration/v2_depth_duration_MTurk/v2_DepthDuration_HTML.html#436,436,1536,754,1536,864,8-30-2022,11-22-44,42,depth_duration_stimuli/002678_2014-06-13_16-15-32_094959634447_rgbf000151-resize_6/002678_2014-06-13_16-15-32_094959634447_rgbf000151-resize_6-target.png,1000,2.1830000000000003,3.0,4888,992,meters,jsons/v1_VE1000_randls_18.json,1632330,2812895,48,Woman
42,498105,DepthScenes,duration_manipulation_targetAtFixation,jsons/v1_VE1000_randls_18.json,http://54.235.29.9/FacialAge/BNav_EC2/DepthDuration/v2_depth_duration_MTurk/v2_DepthDuration_HTML.html#436,436,1536,754,1536,864,8-30-2022,11-22-44,43,depth_duration_stimuli/001016_2014-06-09_16-16-10_260595134347_rgbf000112-resize_5/001016_2014-06-09_16-16-10_260595134347_rgbf000112-resize_5-target.png,1000,1.6565,3.0,8959,1040,meters,jsons/v1_VE1000_randls_18.json,1632330,2812895,48,Woman
43,498105,DepthScenes,duration_manipulation_targetAtFixation,jsons/v1_VE1000_randls_18.json,http://54.235.29.9/FacialAge/BNav_EC2/DepthDuration/v2_depth_duration_MTurk/v2_DepthDuration_HTML.html#436,436,1536,754,1536,864,8-30-2022,11-22-44,44,depth_duration_stimuli/002340_2014-06-28_20-05-46_260595134347_rgbf000113-resize_0/002340_2014-06-28_20-05-46_260595134347_rgbf000113-resize_0-target.png,1000,2.4735,4.0,6062,995,meters,jsons/v1_VE1000_randls_18.json,1632330,2812895,48,Woman
44,498105,DepthScenes,duration_manipulation_targetAtFixation,jsons/v1_VE1000_randls_18.json,http://54.235.29.9/FacialAge/BNav_EC2/DepthDuration/v2_depth_duration_MTurk/v2_DepthDuration_HTML.html#436,436,1536,754,1536,864,8-30-2022,11-22-44,45,depth_duration_stimuli/000787_2014-06-08_22-33-53_260595134347_rgbf000175-resize_1/000787_2014-06-08_22-33-53_260595134347_rgbf000175-resize-original.jpg,1000,4.784,0.0,5875,995,meters,jsons/v1_VE1000_randls_18.json,1632330,2812895,48,Woman
45,498105,DepthScenes,duration_manipulation_targetAtFixation,jsons/v1_VE1000_randls_18.json,http://54.235.29.9/FacialAge/BNav_EC2/DepthDuration/v2_depth_duration_MTurk/v2_DepthDuration_HTML.html#436,436,1536,754,1536,864,8-30-2022,11-22-44,46,depth_duration_stimuli/000929_2014-06-09_16-33-19_260595134347_rgbf000139-resize_0/000929_2014-06-09_16-33-19_260595134347_rgbf000139-resize_0-target.png,1000,2.8680000000000003,3.0,9597,984,meters,jsons/v1_VE1000_randls_18.json,1632330,2812895,48,Woman
46,498105,DepthScenes,duration_manipulation_targetAtFixation,jsons/v1_VE1000_randls_18.json,http://54.235.29.9/FacialAge/BNav_EC2/DepthDuration/v2_depth_duration_MTurk/v2_DepthDuration_HTML.html#436,436,1536,754,1536,864,8-30-2022,11-22-44,47,depth_duration_stimuli/000457_2014-06-08_16-52-43_260595134347_rgbf000199-resize_1/000457_2014-06-08_16-52-43_260595134347_rgbf000199-resize_1-target.png,1000,3.6489999999999996,3.0,23823,1007,meters,jsons/v1_VE1000_randls_18.json,1632330,2812895,48,Woman
47,498105,DepthScenes,duration_manipulation_targetAtFixation,jsons/v1_VE1000_randls_18.json,http://54.235.29.9/FacialAge/BNav_EC2/DepthDuration/v2_depth_duration_MTurk/v2_DepthDuration_HTML.html#436,436,1536,754,1536,864,8-30-2022,11-22-44,48,depth_duration_stimuli/000522_2014-06-08_13-35-06_260595134347_rgbf000244-resize_1/000522_2014-06-08_13-35-06_260595134347_rgbf000244-resize_1-target.png,1000,2.3715,2.0,9112,1000,meters,jsons/v1_VE1000_randls_18.json,1632330,2812895,48,Woman
48,498105,DepthScenes,duration_manipulation_targetAtFixation,jsons/v1_VE1000_randls_18.json,http://54.235.29.9/FacialAge/BNav_EC2/DepthDuration/v2_depth_duration_MTurk/v2_DepthDuration_HTML.html#436,436,1536,754,1536,864,8-30-2022,11-22-44,49,depth_duration_stimuli/002949_2014-06-26_15-57-42_094959634447_rgbf000079-resize_1/002949_2014-06-26_15-57-42_094959634447_rgbf000079-resize_1-target.png,1000,1.8915,2.0,5265,997,meters,jsons/v1_VE1000_randls_18.json,1632330,2812895,48,Woman
49,498105,DepthScenes,duration_manipulation_targetAtFixation,jsons/v1_VE1000_randls_18.json,http://54.235.29.9/FacialAge/BNav_EC2/DepthDuration/v2_depth_duration_MTurk/v2_DepthDuration_HTML.html#436,436,1536,754,1536,864,8-30-2022,11-22-44,50,depth_duration_stimuli/000414_2014-06-04_19-49-13_260595134347_rgbf000044-resize_0/000414_2014-06-04_19-49-13_260595134347_rgbf000044-resize_0-target.png,1000,4.329,4.0,5113,1008,meters,jsons/v1_VE1000_randls_18.json,1632330,2812895,48,Woman
50,498105,DepthScenes,duration_manipulation_targetAtFixation,jsons/v1_VE1000_randls_18.json,http://54.235.29.9/FacialAge/BNav_EC2/DepthDuration/v2_depth_duration_MTurk/v2_DepthDuration_HTML.html#436,436,1536,754,1536,864,8-30-2022,11-22-44,51,depth_duration_stimuli/003129_2014-05-12_10-48-10_094959634447_rgbf000100-resize_0/003129_2014-05-12_10-48-10_094959634447_rgbf000100-resize_0-target.png,1000,4.9305,2.0,9817,1002,meters,jsons/v1_VE1000_randls_18.json,1632330,2812895,48,Woman
51,498105,DepthScenes,duration_manipulation_targetAtFixation,jsons/v1_VE1000_randls_18.json,http://54.235.29.9/FacialAge/BNav_EC2/DepthDuration/v2_depth_duration_MTurk/v2_DepthDuration_HTML.html#436,436,1536,754,1536,864,8-30-2022,11-22-44,52,depth_duration_stimuli/000758_2014-06-08_22-05-08_260595134347_rgbf000085-resize_0/000758_2014-06-08_22-05-08_260595134347_rgbf000085-resize_0-target.png,1000,3.3810000000000002,3.0,8839,958,meters,jsons/v1_VE1000_randls_18.json,1632330,2812895,48,Woman
52,498105,DepthScenes,duration_manipulation_targetAtFixation,jsons/v1_VE1000_randls_18.json,http://54.235.29.9/FacialAge/BNav_EC2/DepthDuration/v2_depth_duration_MTurk/v2_DepthDuration_HTML.html#436,436,1536,754,1536,864,8-30-2022,11-22-44,53,depth_duration_stimuli/000854_2014-06-09_19-43-13_260595134347_rgbf000066-resize_0/000854_2014-06-09_19-43-13_260595134347_rgbf000066-resize_0-target.png,1000,3.068,2.0,10199,997,meters,jsons/v1_VE1000_randls_18.json,1632330,2812895,48,Woman
53,498105,DepthScenes,duration_manipulation_targetAtFixation,jsons/v1_VE1000_randls_18.json,http://54.235.29.9/FacialAge/BNav_EC2/DepthDuration/v2_depth_duration_MTurk/v2_DepthDuration_HTML.html#436,436,1536,754,1536,864,8-30-2022,11-22-44,54,depth_duration_stimuli/000486_2014-06-09_20-47-20_260595134347_rgbf000143-resize_2/000486_2014-06-09_20-47-20_260595134347_rgbf000143-resize_2-target.png,1000,4.8325,3.0,8411,995,meters,jsons/v1_VE1000_randls_18.json,1632330,2812895,48,Woman
54,498105,DepthScenes,duration_manipulation_targetAtFixation,jsons/v1_VE1000_randls_18.json,http://54.235.29.9/FacialAge/BNav_EC2/DepthDuration/v2_depth_duration_MTurk/v2_DepthDuration_HTML.html#436,436,1536,754,1536,864,8-30-2022,11-22-44,55,depth_duration_stimuli/003083_2014-06-15_15-21-03_094959634447_rgbf000063-resize_1/003083_2014-06-15_15-21-03_094959634447_rgbf000063-resize_1-target.png,1000,4.1405,4.0,7526,998,meters,jsons/v1_VE1000_randls_18.json,1632330,2812895,48,Woman
55,498105,DepthScenes,duration_manipulation_targetAtFixation,jsons/v1_VE1000_randls_18.json,http://54.235.29.9/FacialAge/BNav_EC2/DepthDuration/v2_depth_duration_MTurk/v2_DepthDuration_HTML.html#436,436,1536,754,1536,864,8-30-2022,11-22-44,56,depth_duration_stimuli/000773_2014-06-08_22-24-54_260595134347_rgbf000093-resize_1/000773_2014-06-08_22-24-54_260595134347_rgbf000093-resize_1-target.png,1000,4.973,3.0,5583,1024,meters,jsons/v1_VE1000_randls_18.json,1632330,2812895,48,Woman
56,498105,DepthScenes,duration_manipulation_targetAtFixation,jsons/v1_VE1000_randls_18.json,http://54.235.29.9/FacialAge/BNav_EC2/DepthDuration/v2_depth_duration_MTurk/v2_DepthDuration_HTML.html#436,436,1536,754,1536,864,8-30-2022,11-22-44,57,depth_duration_stimuli/002414_2014-06-28_20-24-58_260595134347_rgbf000067-resize_4/002414_2014-06-28_20-24-58_260595134347_rgbf000067-resize_4-target.png,1000,4.363,3.0,6149,1000,meters,jsons/v1_VE1000_randls_18.json,1632330,2812895,48,Woman
57,498105,DepthScenes,duration_manipulation_targetAtFixation,jsons/v1_VE1000_randls_18.json,http://54.235.29.9/FacialAge/BNav_EC2/DepthDuration/v2_depth_duration_MTurk/v2_DepthDuration_HTML.html#436,436,1536,754,1536,864,8-30-2022,11-22-44,58,depth_duration_stimuli/000493_2014-06-09_21-01-18_260595134347_rgbf000196-resize_3/000493_2014-06-09_21-01-18_260595134347_rgbf000196-resize_3-target.png,1000,3.44,2.0,8605,826,meters,jsons/v1_VE1000_randls_18.json,1632330,2812895,48,Woman
58,498105,DepthScenes,duration_manipulation_targetAtFixation,jsons/v1_VE1000_randls_18.json,http://54.235.29.9/FacialAge/BNav_EC2/DepthDuration/v2_depth_duration_MTurk/v2_DepthDuration_HTML.html#436,436,1536,754,1536,864,8-30-2022,11-22-44,59,depth_duration_stimuli/000191_2014-05-12_17-07-38_260595134347_rgbf000199-resize_0/000191_2014-05-12_17-07-38_260595134347_rgbf000199-resize_0-target.png,1000,3.7995,6.0,5554,1001,meters,jsons/v1_VE1000_randls_18.json,1632330,2812895,48,Woman
59,498105,DepthScenes,duration_manipulation_targetAtFixation,jsons/v1_VE1000_randls_18.json,http://54.235.29.9/FacialAge/BNav_EC2/DepthDuration/v2_depth_duration_MTurk/v2_DepthDuration_HTML.html#436,436,1536,754,1536,864,8-30-2022,11-22-44,60,depth_duration_stimuli/002153_2014-06-25_21-27-18_260595134347_rgbf000038-resize_5/002153_2014-06-25_21-27-18_260595134347_rgbf000038-resize_5-target.png,1000,2.505,1.0,7392,1001,meters,jsons/v1_VE1000_randls_18.json,1632330,2812895,48,Woman
60,498105,DepthScenes,duration_manipulation_targetAtFixation,jsons/v1_VE1000_randls_18.json,http://54.235.29.9/FacialAge/BNav_EC2/DepthDuration/v2_depth_duration_MTurk/v2_DepthDuration_HTML.html#436,436,1536,754,1536,864,8-30-2022,11-22-44,61,depth_duration_stimuli/002660_2014-06-13_15-44-18_094959634447_rgbf001878-resize_2/002660_2014-06-13_15-44-18_094959634447_rgbf001878-resize_2-target.png,1000,3.576,2.0,4771,998,meters,jsons/v1_VE1000_randls_18.json,1632330,2812895,48,Woman
61,498105,DepthScenes,duration_manipulation_targetAtFixation,jsons/v1_VE1000_randls_18.json,http://54.235.29.9/FacialAge/BNav_EC2/DepthDuration/v2_depth_duration_MTurk/v2_DepthDuration_HTML.html#436,436,1536,754,1536,864,8-30-2022,11-22-44,62,depth_duration_stimuli/002748_2014-06-22_19-07-22_094959634447_rgbf000078-resize_1/002748_2014-06-22_19-07-22_094959634447_rgbf000078-resize_1-target.png,1000,4.6705,3.0,6885,1000,meters,jsons/v1_VE1000_randls_18.json,1632330,2812895,48,Woman
62,498105,DepthScenes,duration_manipulation_targetAtFixation,jsons/v1_VE1000_randls_18.json,http://54.235.29.9/FacialAge/BNav_EC2/DepthDuration/v2_depth_duration_MTurk/v2_DepthDuration_HTML.html#436,436,1536,754,1536,864,8-30-2022,11-22-44,63,depth_duration_stimuli/002995_2014-06-15_12-31-26_094959634447_rgbf000150-resize_1/002995_2014-06-15_12-31-26_094959634447_rgbf000150-resize_1-target.png,1000,3.8360000000000003,3.0,4796,1000,meters,jsons/v1_VE1000_randls_18.json,1632330,2812895,48,Woman
63,498105,DepthScenes,duration_manipulation_targetAtFixation,jsons/v1_VE1000_randls_18.json,http://54.235.29.9/FacialAge/BNav_EC2/DepthDuration/v2_depth_duration_MTurk/v2_DepthDuration_HTML.html#436,436,1536,754,1536,864,8-30-2022,11-22-44,64,depth_duration_stimuli/001092_2014-06-15_17-34-58_260595134347_rgbf000171-resize_3/001092_2014-06-15_17-34-58_260595134347_rgbf000171-resize_3-target.png,1000,2.6935,2.0,6509,999,meters,jsons/v1_VE1000_randls_18.json,1632330,2812895,48,Woman
64,498105,DepthScenes,duration_manipulation_targetAtFixation,jsons/v1_VE1000_randls_18.json,http://54.235.29.9/FacialAge/BNav_EC2/DepthDuration/v2_depth_duration_MTurk/v2_DepthDuration_HTML.html#436,436,1536,754,1536,864,8-30-2022,11-22-44,65,depth_duration_stimuli/002545_2014-06-24_13-38-53_094959634447_rgbf000080-resize_4/002545_2014-06-24_13-38-53_094959634447_rgbf000080-resize_4-target.png,1000,1.9205,3.0,6545,1001,meters,jsons/v1_VE1000_randls_18.json,1632330,2812895,48,Woman
65,498105,DepthScenes,duration_manipulation_targetAtFixation,jsons/v1_VE1000_randls_18.json,http://54.235.29.9/FacialAge/BNav_EC2/DepthDuration/v2_depth_duration_MTurk/v2_DepthDuration_HTML.html#436,436,1536,754,1536,864,8-30-2022,11-22-44,66,depth_duration_stimuli/001222_2014-06-17_16-24-06_260595134347_rgbf000073-resize_0/001222_2014-06-17_16-24-06_260595134347_rgbf000073-resize-original.jpg,1000,1.4385,0.0,6513,980,meters,jsons/v1_VE1000_randls_18.json,1632330,2812895,48,Woman
66,498105,DepthScenes,duration_manipulation_targetAtFixation,jsons/v1_VE1000_randls_18.json,http://54.235.29.9/FacialAge/BNav_EC2/DepthDuration/v2_depth_duration_MTurk/v2_DepthDuration_HTML.html#436,436,1536,754,1536,864,8-30-2022,11-22-44,67,depth_duration_stimuli/001555_2014-06-20_17-12-10_260595134347_rgbf000065-resize_4/001555_2014-06-20_17-12-10_260595134347_rgbf000065-resize_4-target.png,1000,1.633,2.0,7843,1000,meters,jsons/v1_VE1000_randls_18.json,1632330,2812895,48,Woman
67,498105,DepthScenes,duration_manipulation_targetAtFixation,jsons/v1_VE1000_randls_18.json,http://54.235.29.9/FacialAge/BNav_EC2/DepthDuration/v2_depth_duration_MTurk/v2_DepthDuration_HTML.html#436,436,1536,754,1536,864,8-30-2022,11-22-44,68,depth_duration_stimuli/000103_2014-05-14_22-01-17_260595134347_rgbf000152-resize_5/000103_2014-05-14_22-01-17_260595134347_rgbf000152-resize_5-target.png,1000,1.993,3.0,30949,1009,meters,jsons/v1_VE1000_randls_18.json,1632330,2812895,48,Woman
68,498105,DepthScenes,duration_manipulation_targetAtFixation,jsons/v1_VE1000_randls_18.json,http://54.235.29.9/FacialAge/BNav_EC2/DepthDuration/v2_depth_duration_MTurk/v2_DepthDuration_HTML.html#436,436,1536,754,1536,864,8-30-2022,11-22-44,69,depth_duration_stimuli/000447_2014-06-08_16-15-46_260595134347_rgbf000130-resize_1/000447_2014-06-08_16-15-46_260595134347_rgbf000130-resize_1-target.png,1000,4.479,2.0,5429,987,meters,jsons/v1_VE1000_randls_18.json,1632330,2812895,48,Woman
69,498105,DepthScenes,duration_manipulation_targetAtFixation,jsons/v1_VE1000_randls_18.json,http://54.235.29.9/FacialAge/BNav_EC2/DepthDuration/v2_depth_duration_MTurk/v2_DepthDuration_HTML.html#436,436,1536,754,1536,864,8-30-2022,11-22-44,70,depth_duration_stimuli/001447_2014-06-19_17-00-32_260595134347_rgbf000082-resize_5/001447_2014-06-19_17-00-32_260595134347_rgbf000082-resize_5-target.png,1000,4.13775,2.0,18516,1022,meters,jsons/v1_VE1000_randls_18.json,1632330,2812895,48,Woman
70,498105,DepthScenes,duration_manipulation_targetAtFixation,jsons/v1_VE1000_randls_18.json,http://54.235.29.9/FacialAge/BNav_EC2/DepthDuration/v2_depth_duration_MTurk/v2_DepthDuration_HTML.html#436,436,1536,754,1536,864,8-30-2022,11-22-44,71,depth_duration_stimuli/001808_2014-06-26_20-50-58_260595134347_rgbf000029-resize_1/001808_2014-06-26_20-50-58_260595134347_rgbf000029-resize_1-target.png,1000,4.249,3.0,10457,1000,meters,jsons/v1_VE1000_randls_18.json,1632330,2812895,48,Woman
71,498105,DepthScenes,duration_manipulation_targetAtFixation,jsons/v1_VE1000_randls_18.json,http://54.235.29.9/FacialAge/BNav_EC2/DepthDuration/v2_depth_duration_MTurk/v2_DepthDuration_HTML.html#436,436,1536,754,1536,864,8-30-2022,11-22-44,72,depth_duration_stimuli/001815_2014-06-26_20-52-55_260595134347_rgbf000020-resize_0/001815_2014-06-26_20-52-55_260595134347_rgbf000020-resize_0-target.png,1000,3.3865,4.0,6729,944,meters,jsons/v1_VE1000_randls_18.json,1632330,2812895,48,Woman
72,498105,DepthScenes,duration_manipulation_targetAtFixation,jsons/v1_VE1000_randls_18.json,http://54.235.29.9/FacialAge/BNav_EC2/DepthDuration/v2_depth_duration_MTurk/v2_DepthDuration_HTML.html#436,436,1536,754,1536,864,8-30-2022,11-22-44,73,depth_duration_stimuli/000469_2014-06-09_19-42-10_260595134347_rgbf000081-resize_1/000469_2014-06-09_19-42-10_260595134347_rgbf000081-resize_1-target.png,1000,1.652,1.0,57940,975,meters,jsons/v1_VE1000_randls_18.json,1632330,2812895,48,Woman
73,498105,DepthScenes,duration_manipulation_targetAtFixation,jsons/v1_VE1000_randls_18.json,http://54.235.29.9/FacialAge/BNav_EC2/DepthDuration/v2_depth_duration_MTurk/v2_DepthDuration_HTML.html#436,436,1536,754,1536,864,8-30-2022,11-22-44,74,depth_duration_stimuli/000483_2014-06-09_20-41-45_260595134347_rgbf000116-resize_4/000483_2014-06-09_20-41-45_260595134347_rgbf000116-resize_4-target.png,1000,1.337,1.0,8521,988,meters,jsons/v1_VE1000_randls_18.json,1632330,2812895,48,Woman
74,498105,DepthScenes,duration_manipulation_targetAtFixation,jsons/v1_VE1000_randls_18.json,http://54.235.29.9/FacialAge/BNav_EC2/DepthDuration/v2_depth_duration_MTurk/v2_DepthDuration_HTML.html#436,436,1536,754,1536,864,8-30-2022,11-22-44,75,depth_duration_stimuli/002600_2014-06-24_14-27-04_094959634447_rgbf000074-resize_2/002600_2014-06-24_14-27-04_094959634447_rgbf000074-resize_2-target.png,1000,2.7575,1.0,4956,1006,meters,jsons/v1_VE1000_randls_18.json,1632330,2812895,48,Woman
75,498105,DepthScenes,duration_manipulation_targetAtFixation,jsons/v1_VE1000_randls_18.json,http://54.235.29.9/FacialAge/BNav_EC2/DepthDuration/v2_depth_duration_MTurk/v2_DepthDuration_HTML.html#436,436,1536,754,1536,864,8-30-2022,11-22-44,76,depth_duration_stimuli/003228_2014-05-14_13-42-35_094959634447_rgbf000101-resize_1/003228_2014-05-14_13-42-35_094959634447_rgbf000101-resize_1-target.png,1000,1.9680000000000002,1.0,23557,988,meters,jsons/v1_VE1000_randls_18.json,1632330,2812895,48,Woman
76,498105,DepthScenes,duration_manipulation_targetAtFixation,jsons/v1_VE1000_randls_18.json,http://54.235.29.9/FacialAge/BNav_EC2/DepthDuration/v2_depth_duration_MTurk/v2_DepthDuration_HTML.html#436,436,1536,754,1536,864,8-30-2022,11-22-44,77,depth_duration_stimuli/002989_2014-06-15_12-25-03_094959634447_rgbf000150-resize_3/002989_2014-06-15_12-25-03_094959634447_rgbf000150-resize_3-target.png,1000,4.1975,4.0,7317,998,meters,jsons/v1_VE1000_randls_18.json,1632330,2812895,48,Woman
77,498105,DepthScenes,duration_manipulation_targetAtFixation,jsons/v1_VE1000_randls_18.json,http://54.235.29.9/FacialAge/BNav_EC2/DepthDuration/v2_depth_duration_MTurk/v2_DepthDuration_HTML.html#436,436,1536,754,1536,864,8-30-2022,11-22-44,78,depth_duration_stimuli/000866_2014-06-09_20-45-42_260595134347_rgbf000139-resize_1/000866_2014-06-09_20-45-42_260595134347_rgbf000139-resize_1-target.png,1000,3.2155,3.0,6235,981,meters,jsons/v1_VE1000_randls_18.json,1632330,2812895,48,Woman
78,498105,DepthScenes,duration_manipulation_targetAtFixation,jsons/v1_VE1000_randls_18.json,http://54.235.29.9/FacialAge/BNav_EC2/DepthDuration/v2_depth_duration_MTurk/v2_DepthDuration_HTML.html#436,436,1536,754,1536,864,8-30-2022,11-22-44,79,depth_duration_stimuli/001810_2014-06-26_20-51-35_260595134347_rgbf000040-resize_3/001810_2014-06-26_20-51-35_260595134347_rgbf000040-resize_3-target.png,1000,2.2525,2.0,17927,998,meters,jsons/v1_VE1000_randls_18.json,1632330,2812895,48,Woman
79,498105,DepthScenes,duration_manipulation_targetAtFixation,jsons/v1_VE1000_randls_18.json,http://54.235.29.9/FacialAge/BNav_EC2/DepthDuration/v2_depth_duration_MTurk/v2_DepthDuration_HTML.html#436,436,1536,754,1536,864,8-30-2022,11-22-44,80,depth_duration_stimuli/003010_2014-06-15_12-54-35_094959634447_rgbf000112-resize_0/003010_2014-06-15_12-54-35_094959634447_rgbf000112-resize_0-target.png,1000,3.1185,5.0,6101,1025,meters,jsons/v1_VE1000_randls_18.json,1632330,2812895,48,Woman
80,498105,DepthScenes,duration_manipulation_targetAtFixation,jsons/v1_VE1000_randls_18.json,http://54.235.29.9/FacialAge/BNav_EC2/DepthDuration/v2_depth_duration_MTurk/v2_DepthDuration_HTML.html#436,436,1536,754,1536,864,8-30-2022,11-22-44,81,depth_duration_stimuli/000642_2014-06-08_16-59-25_260595134347_rgbf000098-resize_2/000642_2014-06-08_16-59-25_260595134347_rgbf000098-resize_2-target.png,1000,2.8815,1.0,7062,1059,meters,jsons/v1_VE1000_randls_18.json,1632330,2812895,48,Woman
81,498105,DepthScenes,duration_manipulation_targetAtFixation,jsons/v1_VE1000_randls_18.json,http://54.235.29.9/FacialAge/BNav_EC2/DepthDuration/v2_depth_duration_MTurk/v2_DepthDuration_HTML.html#436,436,1536,754,1536,864,8-30-2022,11-22-44,82,depth_duration_stimuli/002425_2014-06-28_20-27-29_260595134347_rgbf000031-resize_8/002425_2014-06-28_20-27-29_260595134347_rgbf000031-resize_8-target.png,1000,3.8960000000000004,2.0,5961,1003,meters,jsons/v1_VE1000_randls_18.json,1632330,2812895,48,Woman
82,498105,DepthScenes,duration_manipulation_targetAtFixation,jsons/v1_VE1000_randls_18.json,http://54.235.29.9/FacialAge/BNav_EC2/DepthDuration/v2_depth_duration_MTurk/v2_DepthDuration_HTML.html#436,436,1536,754,1536,864,8-30-2022,11-22-44,83,depth_duration_stimuli/002057_2014-06-24_21-00-13_260595134347_rgbf000120-resize_1/002057_2014-06-24_21-00-13_260595134347_rgbf000120-resize_1-target.png,1000,2.967,4.0,5836,985,meters,jsons/v1_VE1000_randls_18.json,1632330,2812895,48,Woman
83,498105,DepthScenes,duration_manipulation_targetAtFixation,jsons/v1_VE1000_randls_18.json,http://54.235.29.9/FacialAge/BNav_EC2/DepthDuration/v2_depth_duration_MTurk/v2_DepthDuration_HTML.html#436,436,1536,754,1536,864,8-30-2022,11-22-44,84,depth_duration_stimuli/000709_2014-06-08_13-51-55_260595134347_rgbf000068-resize_3/000709_2014-06-08_13-51-55_260595134347_rgbf000068-resize_3-target.png,1000,1.8030000000000002,4.0,5913,994,meters,jsons/v1_VE1000_randls_18.json,1632330,2812895,48,Woman
84,498105,DepthScenes,duration_manipulation_targetAtFixation,jsons/v1_VE1000_randls_18.json,http://54.235.29.9/FacialAge/BNav_EC2/DepthDuration/v2_depth_duration_MTurk/v2_DepthDuration_HTML.html#436,436,1536,754,1536,864,8-30-2022,11-22-44,85,depth_duration_stimuli/001449_2014-06-19_17-01-27_260595134347_rgbf000116-resize_2/001449_2014-06-19_17-01-27_260595134347_rgbf000116-resize_2-target.png,1000,3.452,2.0,9605,1003,meters,jsons/v1_VE1000_randls_18.json,1632330,2812895,48,Woman
85,498105,DepthScenes,duration_manipulation_targetAtFixation,jsons/v1_VE1000_randls_18.json,http://54.235.29.9/FacialAge/BNav_EC2/DepthDuration/v2_depth_duration_MTurk/v2_DepthDuration_HTML.html#436,436,1536,754,1536,864,8-30-2022,11-22-44,86,depth_duration_stimuli/001450_2014-06-19_17-02-03_260595134347_rgbf000203-resize_4/001450_2014-06-19_17-02-03_260595134347_rgbf000203-resize_4-target.png,1000,4.0106666666667,3.0,8731,1016,meters,jsons/v1_VE1000_randls_18.json,1632330,2812895,48,Woman
86,498105,DepthScenes,duration_manipulation_targetAtFixation,jsons/v1_VE1000_randls_18.json,http://54.235.29.9/FacialAge/BNav_EC2/DepthDuration/v2_depth_duration_MTurk/v2_DepthDuration_HTML.html#436,436,1536,754,1536,864,8-30-2022,11-22-44,87,depth_duration_stimuli/000878_2014-06-08_22-52-45_260595134347_rgbf000045-resize_2/000878_2014-06-08_22-52-45_260595134347_rgbf000045-resize_2-target.png,1000,2.092,3.0,4707,996,meters,jsons/v1_VE1000_randls_18.json,1632330,2812895,48,Woman
87,498105,DepthScenes,duration_manipulation_targetAtFixation,jsons/v1_VE1000_randls_18.json,http://54.235.29.9/FacialAge/BNav_EC2/DepthDuration/v2_depth_duration_MTurk/v2_DepthDuration_HTML.html#436,436,1536,754,1536,864,8-30-2022,11-22-44,88,depth_duration_stimuli/002953_2014-06-08_17-32-18_094959634447_rgbf000059-resize_5/002953_2014-06-08_17-32-18_094959634447_rgbf000059-resize_5-target.png,1000,1.551,1.0,6312,997,meters,jsons/v1_VE1000_randls_18.json,1632330,2812895,48,Woman
88,498105,DepthScenes,duration_manipulation_targetAtFixation,jsons/v1_VE1000_randls_18.json,http://54.235.29.9/FacialAge/BNav_EC2/DepthDuration/v2_depth_duration_MTurk/v2_DepthDuration_HTML.html#436,436,1536,754,1536,864,8-30-2022,11-22-44,89,depth_duration_stimuli/002118_2014-06-25_20-32-08_260595134347_rgbf000078-resize_1/002118_2014-06-25_20-32-08_260595134347_rgbf000078-resize_1-target.png,1000,2.6460000000000004,1.0,6060,1008,meters,jsons/v1_VE1000_randls_18.json,1632330,2812895,48,Woman
89,498105,DepthScenes,duration_manipulation_targetAtFixation,jsons/v1_VE1000_randls_18.json,http://54.235.29.9/FacialAge/BNav_EC2/DepthDuration/v2_depth_duration_MTurk/v2_DepthDuration_HTML.html#436,436,1536,754,1536,864,8-30-2022,11-22-44,90,depth_duration_stimuli/001516_2014-06-20_16-25-09_260595134347_rgbf000076-resize_2/001516_2014-06-20_16-25-09_260595134347_rgbf000076-resize_2-target.png,1000,1.7445,2.0,5724,907,meters,jsons/v1_VE1000_randls_18.json,1632330,2812895,48,Woman
90,498105,DepthScenes,duration_manipulation_targetAtFixation,jsons/v1_VE1000_randls_18.json,http://54.235.29.9/FacialAge/BNav_EC2/DepthDuration/v2_depth_duration_MTurk/v2_DepthDuration_HTML.html#436,436,1536,754,1536,864,8-30-2022,11-22-44,91,depth_duration_stimuli/002549_2014-06-24_13-41-39_094959634447_rgbf000022-resize_3/002549_2014-06-24_13-41-39_094959634447_rgbf000022-resize_3-target.png,1000,1.476,2.0,7691,941,meters,jsons/v1_VE1000_randls_18.json,1632330,2812895,48,Woman
91,498105,DepthScenes,duration_manipulation_targetAtFixation,jsons/v1_VE1000_randls_18.json,http://54.235.29.9/FacialAge/BNav_EC2/DepthDuration/v2_depth_duration_MTurk/v2_DepthDuration_HTML.html#436,436,1536,754,1536,864,8-30-2022,11-22-44,92,depth_duration_stimuli/002750_2014-06-22_19-08-03_094959634447_rgbf000094-resize_4/002750_2014-06-22_19-08-03_094959634447_rgbf000094-resize_4-target.png,1000,2.354,33.0,9610,998,meters,jsons/v1_VE1000_randls_18.json,1632330,2812895,48,Woman
92,498105,DepthScenes,duration_manipulation_targetAtFixation,jsons/v1_VE1000_randls_18.json,http://54.235.29.9/FacialAge/BNav_EC2/DepthDuration/v2_depth_duration_MTurk/v2_DepthDuration_HTML.html#436,436,1536,754,1536,864,8-30-2022,11-22-44,93,depth_duration_stimuli/002663_2014-06-13_15-50-26_094959634447_rgbf000075-resize_1/002663_2014-06-13_15-50-26_094959634447_rgbf000075-resize_1-target.png,1000,4.7495,4.0,5816,991,meters,jsons/v1_VE1000_randls_18.json,1632330,2812895,48,Woman
93,498105,DepthScenes,duration_manipulation_targetAtFixation,jsons/v1_VE1000_randls_18.json,http://54.235.29.9/FacialAge/BNav_EC2/DepthDuration/v2_depth_duration_MTurk/v2_DepthDuration_HTML.html#436,436,1536,754,1536,864,8-30-2022,11-22-44,94,depth_duration_stimuli/000409_2014-06-04_19-23-33_260595134347_rgbf000067-resize_0/000409_2014-06-04_19-23-33_260595134347_rgbf000067-resize_0-target.png,1000,3.7335,2.0,5024,1005,meters,jsons/v1_VE1000_randls_18.json,1632330,2812895,48,Woman
94,498105,DepthScenes,duration_manipulation_targetAtFixation,jsons/v1_VE1000_randls_18.json,http://54.235.29.9/FacialAge/BNav_EC2/DepthDuration/v2_depth_duration_MTurk/v2_DepthDuration_HTML.html#436,436,1536,754,1536,864,8-30-2022,11-22-44,95,depth_duration_stimuli/002272_2014-06-28_18-53-56_260595134347_rgbf000067-resize_2/002272_2014-06-28_18-53-56_260595134347_rgbf000067-resize_2-target.png,1000,1.138,1.0,5454,992,meters,jsons/v1_VE1000_randls_18.json,1632330,2812895,48,Woman
95,498105,DepthScenes,duration_manipulation_targetAtFixation,jsons/v1_VE1000_randls_18.json,http://54.235.29.9/FacialAge/BNav_EC2/DepthDuration/v2_depth_duration_MTurk/v2_DepthDuration_HTML.html#436,436,1536,754,1536,864,8-30-2022,11-22-44,96,depth_duration_stimuli/001571_2014-06-20_17-21-32_260595134347_rgbf000089-resize_1/001571_2014-06-20_17-21-32_260595134347_rgbf000089-resize_1-target.png,1000,1.86,1.0,8808,1013,meters,jsons/v1_VE1000_randls_18.json,1632330,2812895,48,Woman
96,498105,DepthScenes,duration_manipulation_targetAtFixation,jsons/v1_VE1000_randls_18.json,http://54.235.29.9/FacialAge/BNav_EC2/DepthDuration/v2_depth_duration_MTurk/v2_DepthDuration_HTML.html#436,436,1536,754,1536,864,8-30-2022,11-22-44,97,depth_duration_stimuli/002630_2014-06-24_14-47-50_094959634447_rgbf000055-resize_1/002630_2014-06-24_14-47-50_094959634447_rgbf000055-resize_1-target.png,1000,3.0095,3.0,5295,995,meters,jsons/v1_VE1000_randls_18.json,1632330,2812895,48,Woman
97,498105,DepthScenes,duration_manipulation_targetAtFixation,jsons/v1_VE1000_randls_18.json,http://54.235.29.9/FacialAge/BNav_EC2/DepthDuration/v2_depth_duration_MTurk/v2_DepthDuration_HTML.html#436,436,1536,754,1536,864,8-30-2022,11-22-44,98,depth_duration_stimuli/002758_2014-06-22_19-11-20_094959634447_rgbf000128-resize_1/002758_2014-06-22_19-11-20_094959634447_rgbf000128-resize_1-target.png,1000,2.555,2.0,5533,995,meters,jsons/v1_VE1000_randls_18.json,1632330,2812895,48,Woman
98,498105,DepthScenes,duration_manipulation_targetAtFixation,jsons/v1_VE1000_randls_18.json,http://54.235.29.9/FacialAge/BNav_EC2/DepthDuration/v2_depth_duration_MTurk/v2_DepthDuration_HTML.html#436,436,1536,754,1536,864,8-30-2022,11-22-44,99,depth_duration_stimuli/001540_2014-06-20_17-01-05_260595134347_rgbf000086-resize_2/001540_2014-06-20_17-01-05_260595134347_rgbf000086-resize-original.jpg,1000,1.459,0.0,5172,1001,meters,jsons/v1_VE1000_randls_18.json,1632330,2812895,48,Woman
99,498105,DepthScenes,duration_manipulation_targetAtFixation,jsons/v1_VE1000_randls_18.json,http://54.235.29.9/FacialAge/BNav_EC2/DepthDuration/v2_depth_duration_MTurk/v2_DepthDuration_HTML.html#436,436,1536,754,1536,864,8-30-2022,11-22-44,100,depth_duration_stimuli/002788_2014-06-22_19-36-03_094959634447_rgbf000088-resize_2/002788_2014-06-22_19-36-03_094959634447_rgbf000088-resize_2-target.png,1000,1.6465,2.0,9746,1117,meters,jsons/v1_VE1000_randls_18.json,1632330,2812895,48,Woman
100,498105,DepthScenes,duration_manipulation_targetAtFixation,jsons/v1_VE1000_randls_18.json,http://54.235.29.9/FacialAge/BNav_EC2/DepthDuration/v2_depth_duration_MTurk/v2_DepthDuration_HTML.html#436,436,1536,754,1536,864,8-30-2022,11-22-44,101,depth_duration_stimuli/000749_2014-06-08_21-55-06_260595134347_rgbf000070-resize_2/000749_2014-06-08_21-55-06_260595134347_rgbf000070-resize_2-target.png,1000,2.331,2.0,50248,1000,meters,jsons/v1_VE1000_randls_18.json,1632330,2812895,48,Woman
101,498105,DepthScenes,duration_manipulation_targetAtFixation,jsons/v1_VE1000_randls_18.json,http://54.235.29.9/FacialAge/BNav_EC2/DepthDuration/v2_depth_duration_MTurk/v2_DepthDuration_HTML.html#436,436,1536,754,1536,864,8-30-2022,11-22-44,102,depth_duration_stimuli/000906_2014-06-08_13-35-43_260595134347_rgbf000155-resize_1/000906_2014-06-08_13-35-43_260595134347_rgbf000155-resize_1-target.png,1000,2.8489999999999998,3.0,7458,999,meters,jsons/v1_VE1000_randls_18.json,1632330,2812895,48,Woman
102,498105,DepthScenes,duration_manipulation_targetAtFixation,jsons/v1_VE1000_randls_18.json,http://54.235.29.9/FacialAge/BNav_EC2/DepthDuration/v2_depth_duration_MTurk/v2_DepthDuration_HTML.html#436,436,1536,754,1536,864,8-30-2022,11-22-44,103,depth_duration_stimuli/002805_2014-06-22_19-54-03_094959634447_rgbf000079-resize_1/002805_2014-06-22_19-54-03_094959634447_rgbf000079-resize_1-target.png,1000,3.1439999999999997,2.5,5746,1008,meters,jsons/v1_VE1000_randls_18.json,1632330,2812895,48,Woman
103,498105,DepthScenes,duration_manipulation_targetAtFixation,jsons/v1_VE1000_randls_18.json,http://54.235.29.9/FacialAge/BNav_EC2/DepthDuration/v2_depth_duration_MTurk/v2_DepthDuration_HTML.html#436,436,1536,754,1536,864,8-30-2022,11-22-44,104,depth_duration_stimuli/001570_2014-06-20_17-21-09_260595134347_rgbf000135-resize_4/001570_2014-06-20_17-21-09_260595134347_rgbf000135-resize_4-target.png,1000,4.467,3.0,5327,1048,meters,jsons/v1_VE1000_randls_18.json,1632330,2812895,48,Woman
104,498105,DepthScenes,duration_manipulation_targetAtFixation,jsons/v1_VE1000_randls_18.json,http://54.235.29.9/FacialAge/BNav_EC2/DepthDuration/v2_depth_duration_MTurk/v2_DepthDuration_HTML.html#436,436,1536,754,1536,864,8-30-2022,11-22-44,105,depth_duration_stimuli/001392_2014-06-19_16-07-59_260595134347_rgbf000046-resize_1/001392_2014-06-19_16-07-59_260595134347_rgbf000046-resize_1-target.png,1000,4.135,3.5,6015,909,meters,jsons/v1_VE1000_randls_18.json,1632330,2812895,48,Woman
105,498105,DepthScenes,duration_manipulation_targetAtFixation,jsons/v1_VE1000_randls_18.json,http://54.235.29.9/FacialAge/BNav_EC2/DepthDuration/v2_depth_duration_MTurk/v2_DepthDuration_HTML.html#436,436,1536,754,1536,864,8-30-2022,11-22-44,106,depth_duration_stimuli/002905_2014-06-03_18-04-43_094959634447_rgbf000151-resize_2/002905_2014-06-03_18-04-43_094959634447_rgbf000151-resize_2-target.png,1000,2.0295,1.0,5700,983,meters,jsons/v1_VE1000_randls_18.json,1632330,2812895,48,Woman
106,498105,DepthScenes,duration_manipulation_targetAtFixation,jsons/v1_VE1000_randls_18.json,http://54.235.29.9/FacialAge/BNav_EC2/DepthDuration/v2_depth_duration_MTurk/v2_DepthDuration_HTML.html#436,436,1536,754,1536,864,8-30-2022,11-22-44,107,depth_duration_stimuli/003423_2014-05-21_10-23-26_094959634447_rgbf002665-resize_2/003423_2014-05-21_10-23-26_094959634447_rgbf002665-resize_2-target.png,1000,3.2575,0.5,5080,994,meters,jsons/v1_VE1000_randls_18.json,1632330,2812895,48,Woman
107,498105,DepthScenes,duration_manipulation_targetAtFixation,jsons/v1_VE1000_randls_18.json,http://54.235.29.9/FacialAge/BNav_EC2/DepthDuration/v2_depth_duration_MTurk/v2_DepthDuration_HTML.html#436,436,1536,754,1536,864,8-30-2022,11-22-44,108,depth_duration_stimuli/002725_2014-06-22_11-47-51_094959634447_rgbf000070-resize_1/002725_2014-06-22_11-47-51_094959634447_rgbf000070-resize_1-target.png,1000,2.195,2.5,7191,1005,meters,jsons/v1_VE1000_randls_18.json,1632330,2812895,48,Woman
108,498105,DepthScenes,duration_manipulation_targetAtFixation,jsons/v1_VE1000_randls_18.json,http://54.235.29.9/FacialAge/BNav_EC2/DepthDuration/v2_depth_duration_MTurk/v2_DepthDuration_HTML.html#436,436,1536,754,1536,864,8-30-2022,11-22-44,109,depth_duration_stimuli/002344_2014-06-28_20-06-29_260595134347_rgbf000030-resize_1/002344_2014-06-28_20-06-29_260595134347_rgbf000030-resize_1-target.png,1000,1.5795,1.5,5358,990,meters,jsons/v1_VE1000_randls_18.json,1632330,2812895,48,Woman
109,498105,DepthScenes,duration_manipulation_targetAtFixation,jsons/v1_VE1000_randls_18.json,http://54.235.29.9/FacialAge/BNav_EC2/DepthDuration/v2_depth_duration_MTurk/v2_DepthDuration_HTML.html#436,436,1536,754,1536,864,8-30-2022,11-22-44,110,depth_duration_stimuli/003621_2014-05-23_18-06-08_094959634447_rgbf000101-resize_1/003621_2014-05-23_18-06-08_094959634447_rgbf000101-resize_1-target.png,1000,3.9835,3.5,5454,991,meters,jsons/v1_VE1000_randls_18.json,1632330,2812895,48,Woman
110,498105,DepthScenes,duration_manipulation_targetAtFixation,jsons/v1_VE1000_randls_18.json,http://54.235.29.9/FacialAge/BNav_EC2/DepthDuration/v2_depth_duration_MTurk/v2_DepthDuration_HTML.html#436,436,1536,754,1536,864,8-30-2022,11-22-44,111,depth_duration_stimuli/001584_2014-06-20_11-07-43_260595134347_rgbf000002-resize_1/001584_2014-06-20_11-07-43_260595134347_rgbf000002-resize_1-target.png,1000,3.53,2.5,5126,987,meters,jsons/v1_VE1000_randls_18.json,1632330,2812895,48,Woman
111,498105,DepthScenes,duration_manipulation_targetAtFixation,jsons/v1_VE1000_randls_18.json,http://54.235.29.9/FacialAge/BNav_EC2/DepthDuration/v2_depth_duration_MTurk/v2_DepthDuration_HTML.html#436,436,1536,754,1536,864,8-30-2022,11-22-44,112,depth_duration_stimuli/002213_2014-06-28_18-37-58_260595134347_rgbf000055-resize_1/002213_2014-06-28_18-37-58_260595134347_rgbf000055-resize_1-target.png,1000,3.62,4.0,4767,1008,meters,jsons/v1_VE1000_randls_18.json,1632330,2812895,48,Woman
112,498105,DepthScenes,duration_manipulation_targetAtFixation,jsons/v1_VE1000_randls_18.json,http://54.235.29.9/FacialAge/BNav_EC2/DepthDuration/v2_depth_duration_MTurk/v2_DepthDuration_HTML.html#436,436,1536,754,1536,864,8-30-2022,11-22-44,113,depth_duration_stimuli/000691_2014-06-08_13-08-50_260595134347_rgbf000132-resize_3/000691_2014-06-08_13-08-50_260595134347_rgbf000132-resize_3-target.png,1000,4.1530000000000005,2.0,4570,979,meters,jsons/v1_VE1000_randls_18.json,1632330,2812895,48,Woman
113,498105,DepthScenes,duration_manipulation_targetAtFixation,jsons/v1_VE1000_randls_18.json,http://54.235.29.9/FacialAge/BNav_EC2/DepthDuration/v2_depth_duration_MTurk/v2_DepthDuration_HTML.html#436,436,1536,754,1536,864,8-30-2022,11-22-44,114,depth_duration_stimuli/001199_2014-06-17_16-03-48_260595134347_rgbf000077-resize_0/001199_2014-06-17_16-03-48_260595134347_rgbf000077-resize_0-target.png,1000,3.4375,3.0,7501,993,meters,jsons/v1_VE1000_randls_18.json,1632330,2812895,48,Woman
114,498105,DepthScenes,duration_manipulation_targetAtFixation,jsons/v1_VE1000_randls_18.json,http://54.235.29.9/FacialAge/BNav_EC2/DepthDuration/v2_depth_duration_MTurk/v2_DepthDuration_HTML.html#436,436,1536,754,1536,864,8-30-2022,11-22-44,115,depth_duration_stimuli/000502_2014-06-08_23-02-32_260595134347_rgbf000063-resize_4/000502_2014-06-08_23-02-32_260595134347_rgbf000063-resize_4-target.png,1000,2.431,1.5,6010,1001,meters,jsons/v1_VE1000_randls_18.json,1632330,2812895,48,Woman
115,498105,DepthScenes,duration_manipulation_targetAtFixation,jsons/v1_VE1000_randls_18.json,http://54.235.29.9/FacialAge/BNav_EC2/DepthDuration/v2_depth_duration_MTurk/v2_DepthDuration_HTML.html#436,436,1536,754,1536,864,8-30-2022,11-22-44,116,depth_duration_stimuli/001170_2014-06-17_15-43-44_260595134347_rgbf000096-resize_6/001170_2014-06-17_15-43-44_260595134347_rgbf000096-resize-original.jpg,1000,1.1909999999999998,0.0,6620,988,meters,jsons/v1_VE1000_randls_18.json,1632330,2812895,48,Woman
116,498105,DepthScenes,duration_manipulation_targetAtFixation,jsons/v1_VE1000_randls_18.json,http://54.235.29.9/FacialAge/BNav_EC2/DepthDuration/v2_depth_duration_MTurk/v2_DepthDuration_HTML.html#436,436,1536,754,1536,864,8-30-2022,11-22-44,117,depth_duration_stimuli/003492_2014-05-21_15-50-55_094959634447_rgbf000828-resize_1/003492_2014-05-21_15-50-55_094959634447_rgbf000828-resize_1-target.png,1000,4.06875,2.0,8237,999,meters,jsons/v1_VE1000_randls_18.json,1632330,2812895,48,Woman
117,498105,DepthScenes,duration_manipulation_targetAtFixation,jsons/v1_VE1000_randls_18.json,http://54.235.29.9/FacialAge/BNav_EC2/DepthDuration/v2_depth_duration_MTurk/v2_DepthDuration_HTML.html#436,436,1536,754,1536,864,8-30-2022,11-22-44,118,depth_duration_stimuli/002568_2014-06-24_13-59-21_094959634447_rgbf000062-resize_4/002568_2014-06-24_13-59-21_094959634447_rgbf000062-resize_4-target.png,1000,3.015,2.0,7434,979,meters,jsons/v1_VE1000_randls_18.json,1632330,2812895,48,Woman
118,498105,DepthScenes,duration_manipulation_targetAtFixation,jsons/v1_VE1000_randls_18.json,http://54.235.29.9/FacialAge/BNav_EC2/DepthDuration/v2_depth_duration_MTurk/v2_DepthDuration_HTML.html#436,436,1536,754,1536,864,8-30-2022,11-22-44,119,depth_duration_stimuli/001158_2014-06-17_15-32-16_260595134347_rgbf000138-resize_2/001158_2014-06-17_15-32-16_260595134347_rgbf000138-resize_2-target.png,1000,4.5315,2.0,4911,988,meters,jsons/v1_VE1000_randls_18.json,1632330,2812895,48,Woman
119,498105,DepthScenes,duration_manipulation_targetAtFixation,jsons/v1_VE1000_randls_18.json,http://54.235.29.9/FacialAge/BNav_EC2/DepthDuration/v2_depth_duration_MTurk/v2_DepthDuration_HTML.html#436,436,1536,754,1536,864,8-30-2022,11-22-44,120,depth_duration_stimuli/000556_2014-06-09_22-42-56_260595134347_rgbf000214-resize_1/000556_2014-06-09_22-42-56_260595134347_rgbf000214-resize_1-target.png,1000,4.8415,1.5,5285,1012,meters,jsons/v1_VE1000_randls_18.json,1632330,2812895,48,Woman
120,498105,DepthScenes,duration_manipulation_targetAtFixation,jsons/v1_VE1000_randls_18.json,http://54.235.29.9/FacialAge/BNav_EC2/DepthDuration/v2_depth_duration_MTurk/v2_DepthDuration_HTML.html#436,436,1536,754,1536,864,8-30-2022,11-22-44,121,depth_duration_stimuli/002784_2014-06-22_19-26-30_094959634447_rgbf000083-resize_3/002784_2014-06-22_19-26-30_094959634447_rgbf000083-resize_3-target.png,1000,1.8046666666667,1.0,6796,1006,meters,jsons/v1_VE1000_randls_18.json,1632330,2812895,48,Woman
121,498105,DepthScenes,duration_manipulation_targetAtFixation,jsons/v1_VE1000_randls_18.json,http://54.235.29.9/FacialAge/BNav_EC2/DepthDuration/v2_depth_duration_MTurk/v2_DepthDuration_HTML.html#436,436,1536,754,1536,864,8-30-2022,11-22-44,122,depth_duration_stimuli/001100_2014-06-15_17-46-26_260595134347_rgbf000225-resize_2/001100_2014-06-15_17-46-26_260595134347_rgbf000225-resize_2-target.png,1000,2.24,1.5,5957,1002,meters,jsons/v1_VE1000_randls_18.json,1632330,2812895,48,Woman
122,498105,DepthScenes,duration_manipulation_targetAtFixation,jsons/v1_VE1000_randls_18.json,http://54.235.29.9/FacialAge/BNav_EC2/DepthDuration/v2_depth_duration_MTurk/v2_DepthDuration_HTML.html#436,436,1536,754,1536,864,8-30-2022,11-22-44,123,depth_duration_stimuli/003070_2014-06-15_14-58-27_094959634447_rgbf000150-resize_3/003070_2014-06-15_14-58-27_094959634447_rgbf000150-resize_3-target.png,1000,2.9415,2.0,6239,993,meters,jsons/v1_VE1000_randls_18.json,1632330,2812895,48,Woman
123,498105,DepthScenes,duration_manipulation_targetAtFixation,jsons/v1_VE1000_randls_18.json,http://54.235.29.9/FacialAge/BNav_EC2/DepthDuration/v2_depth_duration_MTurk/v2_DepthDuration_HTML.html#436,436,1536,754,1536,864,8-30-2022,11-22-44,124,depth_duration_stimuli/000943_2014-06-09_19-31-07_260595134347_rgbf000128-resize_1/000943_2014-06-09_19-31-07_260595134347_rgbf000128-resize_1-target.png,1000,1.9765,2.0,6754,996,meters,jsons/v1_VE1000_randls_18.json,1632330,2812895,48,Woman
124,498105,DepthScenes,duration_manipulation_targetAtFixation,jsons/v1_VE1000_randls_18.json,http://54.235.29.9/FacialAge/BNav_EC2/DepthDuration/v2_depth_duration_MTurk/v2_DepthDuration_HTML.html#436,436,1536,754,1536,864,8-30-2022,11-22-44,125,depth_duration_stimuli/003534_2014-05-22_15-06-10_094959634447_rgbf000102-resize_4/003534_2014-05-22_15-06-10_094959634447_rgbf000102-resize_4-target.png,1000,1.426,0.5,9003,991,meters,jsons/v1_VE1000_randls_18.json,1632330,2812895,48,Woman
125,498105,DepthScenes,duration_manipulation_targetAtFixation,jsons/v1_VE1000_randls_18.json,http://54.235.29.9/FacialAge/BNav_EC2/DepthDuration/v2_depth_duration_MTurk/v2_DepthDuration_HTML.html#436,436,1536,754,1536,864,8-30-2022,11-22-44,126,depth_duration_stimuli/002637_2014-06-24_14-51-13_094959634447_rgbf000066-resize_4/002637_2014-06-24_14-51-13_094959634447_rgbf000066-resize_4-target.png,1000,1.9955,2.0,5257,932,meters,jsons/v1_VE1000_randls_18.json,1632330,2812895,48,Woman
126,498105,DepthScenes,duration_manipulation_targetAtFixation,jsons/v1_VE1000_randls_18.json,http://54.235.29.9/FacialAge/BNav_EC2/DepthDuration/v2_depth_duration_MTurk/v2_DepthDuration_HTML.html#436,436,1536,754,1536,864,8-30-2022,11-22-44,127,depth_duration_stimuli/000009_2014-05-26_14-32-05_260595134347_rgbf000034-resize_3/000009_2014-05-26_14-32-05_260595134347_rgbf000034-resize_3-target.png,1000,3.8715,4.0,4924,1084,meters,jsons/v1_VE1000_randls_18.json,1632330,2812895,48,Woman
127,498105,DepthScenes,duration_manipulation_targetAtFixation,jsons/v1_VE1000_randls_18.json,http://54.235.29.9/FacialAge/BNav_EC2/DepthDuration/v2_depth_duration_MTurk/v2_DepthDuration_HTML.html#436,436,1536,754,1536,864,8-30-2022,11-22-44,128,depth_duration_stimuli/001828_2014-06-26_21-40-03_260595134347_rgbf000024-resize_0/001828_2014-06-26_21-40-03_260595134347_rgbf000024-resize_0-target.png,1000,4.8260000000000005,2.0,52645,964,meters,jsons/v1_VE1000_randls_18.json,1632330,2812895,48,Woman
128,498105,DepthScenes,duration_manipulation_targetAtFixation,jsons/v1_VE1000_randls_18.json,http://54.235.29.9/FacialAge/BNav_EC2/DepthDuration/v2_depth_duration_MTurk/v2_DepthDuration_HTML.html#436,436,1536,754,1536,864,8-30-2022,11-22-44,129,depth_duration_stimuli/001806_2014-06-26_20-50-20_260595134347_rgbf000091-resize_1/001806_2014-06-26_20-50-20_260595134347_rgbf000091-resize_1-target.png,1000,2.7305,1.5,5990,1006,meters,jsons/v1_VE1000_randls_18.json,1632330,2812895,48,Woman
129,498105,DepthScenes,duration_manipulation_targetAtFixation,jsons/v1_VE1000_randls_18.json,http://54.235.29.9/FacialAge/BNav_EC2/DepthDuration/v2_depth_duration_MTurk/v2_DepthDuration_HTML.html#436,436,1536,754,1536,864,8-30-2022,11-22-44,130,depth_duration_stimuli/001617_2014-06-20_11-35-32_260595134347_rgbf000066-resize_1/001617_2014-06-20_11-35-32_260595134347_rgbf000066-resize_1-target.png,1000,3.7910000000000004,1.5,5880,1145,meters,jsons/v1_VE1000_randls_18.json,1632330,2812895,48,Woman
130,498105,DepthScenes,duration_manipulation_targetAtFixation,jsons/v1_VE1000_randls_18.json,http://54.235.29.9/FacialAge/BNav_EC2/DepthDuration/v2_depth_duration_MTurk/v2_DepthDuration_HTML.html#436,436,1536,754,1536,864,8-30-2022,11-22-44,131,depth_duration_stimuli/002445_2014-06-28_20-32-16_260595134347_rgbf000029-resize_4/002445_2014-06-28_20-32-16_260595134347_rgbf000029-resize_4-target.png,1000,2.5315,1.0,6000,996,meters,jsons/v1_VE1000_randls_18.json,1632330,2812895,48,Woman
131,498105,DepthScenes,duration_manipulation_targetAtFixation,jsons/v1_VE1000_randls_18.json,http://54.235.29.9/FacialAge/BNav_EC2/DepthDuration/v2_depth_duration_MTurk/v2_DepthDuration_HTML.html#436,436,1536,754,1536,864,8-30-2022,11-22-44,132,depth_duration_stimuli/000780_2014-06-08_22-28-29_260595134347_rgbf000126-resize_1/000780_2014-06-08_22-28-29_260595134347_rgbf000126-resize_1-target.png,1000,3.3825,2.5,5434,987,meters,jsons/v1_VE1000_randls_18.json,1632330,2812895,48,Woman
132,498105,DepthScenes,duration_manipulation_targetAtFixation,jsons/v1_VE1000_randls_18.json,http://54.235.29.9/FacialAge/BNav_EC2/DepthDuration/v2_depth_duration_MTurk/v2_DepthDuration_HTML.html#436,436,1536,754,1536,864,8-30-2022,11-22-44,133,depth_duration_stimuli/000917_2014-06-09_22-45-29_260595134347_rgbf000149-resize_3/000917_2014-06-09_22-45-29_260595134347_rgbf000149-resize_3-target.png,1000,4.1865,3.0,6122,946,meters,jsons/v1_VE1000_randls_18.json,1632330,2812895,48,Woman
133,498105,DepthScenes,duration_manipulation_targetAtFixation,jsons/v1_VE1000_randls_18.json,http://54.235.29.9/FacialAge/BNav_EC2/DepthDuration/v2_depth_duration_MTurk/v2_DepthDuration_HTML.html#436,436,1536,754,1536,864,8-30-2022,11-22-44,134,depth_duration_stimuli/002323_2014-06-28_20-01-54_260595134347_rgbf000051-resize_4/002323_2014-06-28_20-01-54_260595134347_rgbf000051-resize_4-target.png,1000,3.7310000000000003,2.0,7951,1000,meters,jsons/v1_VE1000_randls_18.json,1632330,2812895,48,Woman
134,498105,DepthScenes,duration_manipulation_targetAtFixation,jsons/v1_VE1000_randls_18.json,http://54.235.29.9/FacialAge/BNav_EC2/DepthDuration/v2_depth_duration_MTurk/v2_DepthDuration_HTML.html#436,436,1536,754,1536,864,8-30-2022,11-22-44,135,depth_duration_stimuli/002072_2014-06-24_21-48-06_260595134347_rgbf000115-resize_0/002072_2014-06-24_21-48-06_260595134347_rgbf000115-resize-original.jpg,1000,4.702,2.0,19437,1004,meters,jsons/v1_VE1000_randls_18.json,1632330,2812895,48,Woman
135,498105,DepthScenes,duration_manipulation_targetAtFixation,jsons/v1_VE1000_randls_18.json,http://54.235.29.9/FacialAge/BNav_EC2/DepthDuration/v2_depth_duration_MTurk/v2_DepthDuration_HTML.html#436,436,1536,754,1536,864,8-30-2022,11-22-44,136,depth_duration_stimuli/002043_2014-06-24_20-29-38_260595134347_rgbf000039-resize_4/002043_2014-06-24_20-29-38_260595134347_rgbf000039-resize_4-target.png,1000,2.8435,2.5,5160,1018,meters,jsons/v1_VE1000_randls_18.json,1632330,2812895,48,Woman
136,498105,DepthScenes,duration_manipulation_targetAtFixation,jsons/v1_VE1000_randls_18.json,http://54.235.29.9/FacialAge/BNav_EC2/DepthDuration/v2_depth_duration_MTurk/v2_DepthDuration_HTML.html#436,436,1536,754,1536,864,8-30-2022,11-22-44,137,depth_duration_stimuli/003048_2014-06-15_13-49-43_094959634447_rgbf000150-resize_1/003048_2014-06-15_13-49-43_094959634447_rgbf000150-resize_1-target.png,1000,4.0035,3.0,125128,1000,meters,jsons/v1_VE1000_randls_18.json,1632330,2812895,48,Woman
137,498105,DepthScenes,duration_manipulation_targetAtFixation,jsons/v1_VE1000_randls_18.json,http://54.235.29.9/FacialAge/BNav_EC2/DepthDuration/v2_depth_duration_MTurk/v2_DepthDuration_HTML.html#436,436,1536,754,1536,864,8-30-2022,11-22-44,138,depth_duration_stimuli/000682_2014-06-08_23-14-58_260595134347_rgbf000041-resize_5/000682_2014-06-08_23-14-58_260595134347_rgbf000041-resize_5-target.png,1000,2.7239999999999998,1.5,9878,999,meters,jsons/v1_VE1000_randls_18.json,1632330,2812895,48,Woman
138,498105,DepthScenes,duration_manipulation_targetAtFixation,jsons/v1_VE1000_randls_18.json,http://54.235.29.9/FacialAge/BNav_EC2/DepthDuration/v2_depth_duration_MTurk/v2_DepthDuration_HTML.html#436,436,1536,754,1536,864,8-30-2022,11-22-44,139,depth_duration_stimuli/001650_2014-06-20_12-09-00_260595134347_rgbf000087-resize_3/001650_2014-06-20_12-09-00_260595134347_rgbf000087-resize_3-target.png,1000,1.9505,0.0,7764,985,meters,jsons/v1_VE1000_randls_18.json,1632330,2812895,48,Woman
139,498105,DepthScenes,duration_manipulation_targetAtFixation,jsons/v1_VE1000_randls_18.json,http://54.235.29.9/FacialAge/BNav_EC2/DepthDuration/v2_depth_duration_MTurk/v2_DepthDuration_HTML.html#436,436,1536,754,1536,864,8-30-2022,11-22-44,140,depth_duration_stimuli/000736_2014-06-08_18-24-15_260595134347_rgbf000206-resize_3/000736_2014-06-08_18-24-15_260595134347_rgbf000206-resize_3-target.png,1000,3.515,1.0,17427,945,meters,jsons/v1_VE1000_randls_18.json,1632330,2812895,48,Woman
140,498105,DepthScenes,duration_manipulation_targetAtFixation,jsons/v1_VE1000_randls_18.json,http://54.235.29.9/FacialAge/BNav_EC2/DepthDuration/v2_depth_duration_MTurk/v2_DepthDuration_HTML.html#436,436,1536,754,1536,864,8-30-2022,11-22-44,141,depth_duration_stimuli/000137_2014-05-20_17-04-49_260595134347_rgbf000120-resize_1/000137_2014-05-20_17-04-49_260595134347_rgbf000120-resize_1-target.png,1000,3.786,3.0,4662,992,meters,jsons/v1_VE1000_randls_18.json,1632330,2812895,48,Woman
141,498105,DepthScenes,duration_manipulation_targetAtFixation,jsons/v1_VE1000_randls_18.json,http://54.235.29.9/FacialAge/BNav_EC2/DepthDuration/v2_depth_duration_MTurk/v2_DepthDuration_HTML.html#436,436,1536,754,1536,864,8-30-2022,11-22-44,142,depth_duration_stimuli/000810_2014-06-08_17-20-01_260595134347_rgbf000105-resize_0/000810_2014-06-08_17-20-01_260595134347_rgbf000105-resize_0-target.png,1000,1.4865,2.0,4769,995,meters,jsons/v1_VE1000_randls_18.json,1632330,2812895,48,Woman
142,498105,DepthScenes,duration_manipulation_targetAtFixation,jsons/v1_VE1000_randls_18.json,http://54.235.29.9/FacialAge/BNav_EC2/DepthDuration/v2_depth_duration_MTurk/v2_DepthDuration_HTML.html#436,436,1536,754,1536,864,8-30-2022,11-22-44,143,depth_duration_stimuli/001214_2014-06-17_16-13-55_260595134347_rgbf000111-resize_0/001214_2014-06-17_16-13-55_260595134347_rgbf000111-resize_0-target.png,1000,2.6505,1.0,6225,987,meters,jsons/v1_VE1000_randls_18.json,1632330,2812895,48,Woman
143,498105,DepthScenes,duration_manipulation_targetAtFixation,jsons/v1_VE1000_randls_18.json,http://54.235.29.9/FacialAge/BNav_EC2/DepthDuration/v2_depth_duration_MTurk/v2_DepthDuration_HTML.html#436,436,1536,754,1536,864,8-30-2022,11-22-44,144,depth_duration_stimuli/002964_2014-06-08_17-46-11_094959634447_rgbf000091-resize_4/002964_2014-06-08_17-46-11_094959634447_rgbf000091-resize_4-target.png,1000,1.6909999999999998,1.0,4835,999,meters,jsons/v1_VE1000_randls_18.json,1632330,2812895,48,Woman
144,498105,DepthScenes,duration_manipulation_targetAtFixation,jsons/v1_VE1000_randls_18.json,http://54.235.29.9/FacialAge/BNav_EC2/DepthDuration/v2_depth_duration_MTurk/v2_DepthDuration_HTML.html#436,436,1536,754,1536,864,8-30-2022,11-22-44,145,depth_duration_stimuli/002136_2014-06-25_21-18-03_260595134347_rgbf000109-resize_3/002136_2014-06-25_21-18-03_260595134347_rgbf000109-resize_3-target.png,1000,1.9569999999999999,1.0,9789,1008,meters,jsons/v1_VE1000_randls_18.json,1632330,2812895,48,Woman
145,498105,DepthScenes,duration_manipulation_targetAtFixation,jsons/v1_VE1000_randls_18.json,http://54.235.29.9/FacialAge/BNav_EC2/DepthDuration/v2_depth_duration_MTurk/v2_DepthDuration_HTML.html#436,436,1536,754,1536,864,8-30-2022,11-22-44,146,depth_duration_stimuli/001498_2014-06-19_17-45-14_260595134347_rgbf000129-resize_4/001498_2014-06-19_17-45-14_260595134347_rgbf000129-resize-original.jpg,1000,1.4075,0.0,7258,998,meters,jsons/v1_VE1000_randls_18.json,1632330,2812895,48,Woman
146,498105,DepthScenes,duration_manipulation_targetAtFixation,jsons/v1_VE1000_randls_18.json,http://54.235.29.9/FacialAge/BNav_EC2/DepthDuration/v2_depth_duration_MTurk/v2_DepthDuration_HTML.html#436,436,1536,754,1536,864,8-30-2022,11-22-44,147,depth_duration_stimuli/001244_2014-06-17_16-47-45_260595134347_rgbf000030-resize_4/001244_2014-06-17_16-47-45_260595134347_rgbf000030-resize_4-target.png,1000,2.0425,2.0,4280,1016,meters,jsons/v1_VE1000_randls_18.json,1632330,2812895,48,Woman
147,498105,DepthScenes,duration_manipulation_targetAtFixation,jsons/v1_VE1000_randls_18.json,http://54.235.29.9/FacialAge/BNav_EC2/DepthDuration/v2_depth_duration_MTurk/v2_DepthDuration_HTML.html#436,436,1536,754,1536,864,8-30-2022,11-22-44,148,depth_duration_stimuli/003495_2014-05-21_16-01-51_094959634447_rgbf000100-resize_3/003495_2014-05-21_16-01-51_094959634447_rgbf000100-resize_3-target.png,1000,1.6255,1.0,8692,952,meters,jsons/v1_VE1000_randls_18.json,1632330,2812895,48,Woman
148,498105,DepthScenes,duration_manipulation_targetAtFixation,jsons/v1_VE1000_randls_18.json,http://54.235.29.9/FacialAge/BNav_EC2/DepthDuration/v2_depth_duration_MTurk/v2_DepthDuration_HTML.html#436,436,1536,754,1536,864,8-30-2022,11-22-44,149,depth_duration_stimuli/001167_2014-06-17_15-38-07_260595134347_rgbf000108-resize_0/001167_2014-06-17_15-38-07_260595134347_rgbf000108-resize_0-target.png,1000,1.8505,1.0,15470,972,meters,jsons/v1_VE1000_randls_18.json,1632330,2812895,48,Woman
149,498105,DepthScenes,duration_manipulation_targetAtFixation,jsons/v1_VE1000_randls_18.json,http://54.235.29.9/FacialAge/BNav_EC2/DepthDuration/v2_depth_duration_MTurk/v2_DepthDuration_HTML.html#436,436,1536,754,1536,864,8-30-2022,11-22-44,150,depth_duration_stimuli/003587_2014-05-23_16-48-02_094959634447_rgbf002384-resize_2/003587_2014-05-23_16-48-02_094959634447_rgbf002384-resize_2-target.png,1000,1.357,1.0,8408,997,meters,jsons/v1_VE1000_randls_18.json,1632330,2812895,48,Woman
150,498105,DepthScenes,duration_manipulation_targetAtFixation,jsons/v1_VE1000_randls_18.json,http://54.235.29.9/FacialAge/BNav_EC2/DepthDuration/v2_depth_duration_MTurk/v2_DepthDuration_HTML.html#436,436,1536,754,1536,864,8-30-2022,11-22-44,151,depth_duration_stimuli/001164_2014-06-17_15-35-46_260595134347_rgbf000085-resize_3/001164_2014-06-17_15-35-46_260595134347_rgbf000085-resize_3-target.png,1000,2.354,3.0,16311,995,meters,jsons/v1_VE1000_randls_18.json,1632330,2812895,48,Woman
151,498105,DepthScenes,duration_manipulation_targetAtFixation,jsons/v1_VE1000_randls_18.json,http://54.235.29.9/FacialAge/BNav_EC2/DepthDuration/v2_depth_duration_MTurk/v2_DepthDuration_HTML.html#436,436,1536,754,1536,864,8-30-2022,11-22-44,152,depth_duration_stimuli/001136_2014-06-17_15-19-41_260595134347_rgbf000076-resize_3/001136_2014-06-17_15-19-41_260595134347_rgbf000076-resize_3-target.png,1000,1.8655,3.0,7986,1000,meters,jsons/v1_VE1000_randls_18.json,1632330,2812895,48,Woman
152,498105,DepthScenes,duration_manipulation_targetAtFixation,jsons/v1_VE1000_randls_18.json,http://54.235.29.9/FacialAge/BNav_EC2/DepthDuration/v2_depth_duration_MTurk/v2_DepthDuration_HTML.html#436,436,1536,754,1536,864,8-30-2022,11-22-44,153,depth_duration_stimuli/002039_2014-06-24_20-22-38_260595134347_rgbf000084-resize_1/002039_2014-06-24_20-22-38_260595134347_rgbf000084-resize_1-target.png,1000,4.408,2.0,6725,997,meters,jsons/v1_VE1000_randls_18.json,1632330,2812895,48,Woman
153,498105,DepthScenes,duration_manipulation_targetAtFixation,jsons/v1_VE1000_randls_18.json,http://54.235.29.9/FacialAge/BNav_EC2/DepthDuration/v2_depth_duration_MTurk/v2_DepthDuration_HTML.html#436,436,1536,754,1536,864,8-30-2022,11-22-44,154,depth_duration_stimuli/002103_2014-06-25_20-00-40_260595134347_rgbf000049-resize_0/002103_2014-06-25_20-00-40_260595134347_rgbf000049-resize_0-target.png,1000,4.105,3.5,6136,1009,meters,jsons/v1_VE1000_randls_18.json,1632330,2812895,48,Woman
154,498105,DepthScenes,duration_manipulation_targetAtFixation,jsons/v1_VE1000_randls_18.json,http://54.235.29.9/FacialAge/BNav_EC2/DepthDuration/v2_depth_duration_MTurk/v2_DepthDuration_HTML.html#436,436,1536,754,1536,864,8-30-2022,11-22-44,155,depth_duration_stimuli/001011_2014-06-08_23-18-54_260595134347_rgbf000044-resize_4/001011_2014-06-08_23-18-54_260595134347_rgbf000044-resize_4-target.png,1000,2.4730000000000003,2.5,6367,1000,meters,jsons/v1_VE1000_randls_18.json,1632330,2812895,48,Woman
155,498105,DepthScenes,duration_manipulation_targetAtFixation,jsons/v1_VE1000_randls_18.json,http://54.235.29.9/FacialAge/BNav_EC2/DepthDuration/v2_depth_duration_MTurk/v2_DepthDuration_HTML.html#436,436,1536,754,1536,864,8-30-2022,11-22-44,156,depth_duration_stimuli/002875_2014-06-01_15-19-00_094959634447_rgbf000151-resize_1/002875_2014-06-01_15-19-00_094959634447_rgbf000151-resize_1-target.png,1000,1.9675,2.35,6728,1002,meters,jsons/v1_VE1000_randls_18.json,1632330,2812895,48,Woman
156,498105,DepthScenes,duration_manipulation_targetAtFixation,jsons/v1_VE1000_randls_18.json,http://54.235.29.9/FacialAge/BNav_EC2/DepthDuration/v2_depth_duration_MTurk/v2_DepthDuration_HTML.html#436,436,1536,754,1536,864,8-30-2022,11-22-44,157,depth_duration_stimuli/001150_2014-06-17_15-27-34_260595134347_rgbf000108-resize_2/001150_2014-06-17_15-27-34_260595134347_rgbf000108-resize_2-target.png,1000,4.0325,3.0,8252,997,meters,jsons/v1_VE1000_randls_18.json,1632330,2812895,48,Woman
157,498105,DepthScenes,duration_manipulation_targetAtFixation,jsons/v1_VE1000_randls_18.json,http://54.235.29.9/FacialAge/BNav_EC2/DepthDuration/v2_depth_duration_MTurk/v2_DepthDuration_HTML.html#436,436,1536,754,1536,864,8-30-2022,11-22-44,158,depth_duration_stimuli/000665_2014-06-09_20-42-35_260595134347_rgbf000110-resize_1/000665_2014-06-09_20-42-35_260595134347_rgbf000110-resize_1-target.png,1000,3.057,1.0,4625,979,meters,jsons/v1_VE1000_randls_18.json,1632330,2812895,48,Woman
158,498105,DepthScenes,duration_manipulation_targetAtFixation,jsons/v1_VE1000_randls_18.json,http://54.235.29.9/FacialAge/BNav_EC2/DepthDuration/v2_depth_duration_MTurk/v2_DepthDuration_HTML.html#436,436,1536,754,1536,864,8-30-2022,11-22-44,159,depth_duration_stimuli/002763_2014-06-22_19-13-10_094959634447_rgbf000075-resize_4/002763_2014-06-22_19-13-10_094959634447_rgbf000075-resize_4-target.png,1000,1.68375,2.0,7395,1001,meters,jsons/v1_VE1000_randls_18.json,1632330,2812895,48,Woman
159,498105,DepthScenes,duration_manipulation_targetAtFixation,jsons/v1_VE1000_randls_18.json,http://54.235.29.9/FacialAge/BNav_EC2/DepthDuration/v2_depth_duration_MTurk/v2_DepthDuration_HTML.html#436,436,1536,754,1536,864,8-30-2022,11-22-44,160,depth_duration_stimuli/002209_2014-06-28_18-36-10_260595134347_rgbf000051-resize_1/002209_2014-06-28_18-36-10_260595134347_rgbf000051-resize_1-target.png,1000,2.057,1.5,6843,1010,meters,jsons/v1_VE1000_randls_18.json,1632330,2812895,48,Woman
160,498105,DepthScenes,duration_manipulation_targetAtFixation,jsons/v1_VE1000_randls_18.json,http://54.235.29.9/FacialAge/BNav_EC2/DepthDuration/v2_depth_duration_MTurk/v2_DepthDuration_HTML.html#436,436,1536,754,1536,864,8-30-2022,11-22-44,161,depth_duration_stimuli/003292_2014-05-14_21-53-49_094959634447_rgbf000100-resize_2/003292_2014-05-14_21-53-49_094959634447_rgbf000100-resize_2-target.png,1000,3.4815,2.0,4703,998,meters,jsons/v1_VE1000_randls_18.json,1632330,2812895,48,Woman
161,498105,DepthScenes,duration_manipulation_targetAtFixation,jsons/v1_VE1000_randls_18.json,http://54.235.29.9/FacialAge/BNav_EC2/DepthDuration/v2_depth_duration_MTurk/v2_DepthDuration_HTML.html#436,436,1536,754,1536,864,8-30-2022,11-22-44,162,depth_duration_stimuli/002639_2014-06-24_14-51-37_094959634447_rgbf000074-resize_4/002639_2014-06-24_14-51-37_094959634447_rgbf000074-resize_4-target.png,1000,4.0375,1.5,22062,1006,meters,jsons/v1_VE1000_randls_18.json,1632330,2812895,48,Woman
162,498105,DepthScenes,duration_manipulation_targetAtFixation,jsons/v1_VE1000_randls_18.json,http://54.235.29.9/FacialAge/BNav_EC2/DepthDuration/v2_depth_duration_MTurk/v2_DepthDuration_HTML.html#436,436,1536,754,1536,864,8-30-2022,11-22-44,163,depth_duration_stimuli/000470_2014-06-09_19-42-40_260595134347_rgbf000094-resize_1/000470_2014-06-09_19-42-40_260595134347_rgbf000094-resize_1-target.png,1000,1.831,1.5,9072,989,meters,jsons/v1_VE1000_randls_18.json,1632330,2812895,48,Woman
163,498105,DepthScenes,duration_manipulation_targetAtFixation,jsons/v1_VE1000_randls_18.json,http://54.235.29.9/FacialAge/BNav_EC2/DepthDuration/v2_depth_duration_MTurk/v2_DepthDuration_HTML.html#436,436,1536,754,1536,864,8-30-2022,11-22-44,164,depth_duration_stimuli/000109_2014-05-14_23-41-52_260595134347_rgbf000035-resize_9/000109_2014-05-14_23-41-52_260595134347_rgbf000035-resize_9-target.png,1000,1.3545,0.5,5966,988,meters,jsons/v1_VE1000_randls_18.json,1632330,2812895,48,Woman
