,subjID,experimentName,versionName,sequenceName,url,selected_row,windowWidth,windowHeight,screenWidth,screenHeight,startDate,startTime,trial,stimulus,duration,actual_depth,depth_estimate,trial_RT,log_sceneDuration,unitSelection,seq_filepath,experimentTime,totalTime,age,gender
0,500788,DepthScenes,duration_manipulation_targetAtFixation,jsons/v1_VE250_randls_61.json,http://54.235.29.9/FacialAge/BNav_EC2/DepthDuration/v2_depth_duration_MTurk/v2_DepthDuration_HTML.html#381,381,1364,768,1364,768,8-30-2022,10-26-46,1,depth_duration_stimuli/000447_2014-06-08_16-15-46_260595134347_rgbf000130-resize_1/000447_2014-06-08_16-15-46_260595134347_rgbf000130-resize_1-target.png,250,4.479,1,2857,250,feet,jsons/v1_VE250_randls_61.json,760903,918176,32,Woman
1,500788,DepthScenes,duration_manipulation_targetAtFixation,jsons/v1_VE250_randls_61.json,http://54.235.29.9/FacialAge/BNav_EC2/DepthDuration/v2_depth_duration_MTurk/v2_DepthDuration_HTML.html#381,381,1364,768,1364,768,8-30-2022,10-26-46,2,depth_duration_stimuli/001447_2014-06-19_17-00-32_260595134347_rgbf000082-resize_5/001447_2014-06-19_17-00-32_260595134347_rgbf000082-resize_5-target.png,250,4.13775,1,4007,255,feet,jsons/v1_VE250_randls_61.json,760903,918176,32,Woman
2,500788,DepthScenes,duration_manipulation_targetAtFixation,jsons/v1_VE250_randls_61.json,http://54.235.29.9/FacialAge/BNav_EC2/DepthDuration/v2_depth_duration_MTurk/v2_DepthDuration_HTML.html#381,381,1364,768,1364,768,8-30-2022,10-26-46,3,depth_duration_stimuli/001244_2014-06-17_16-47-45_260595134347_rgbf000030-resize_4/001244_2014-06-17_16-47-45_260595134347_rgbf000030-resize_4-target.png,250,2.0425,1,2422,249,feet,jsons/v1_VE250_randls_61.json,760903,918176,32,Woman
3,500788,DepthScenes,duration_manipulation_targetAtFixation,jsons/v1_VE250_randls_61.json,http://54.235.29.9/FacialAge/BNav_EC2/DepthDuration/v2_depth_duration_MTurk/v2_DepthDuration_HTML.html#381,381,1364,768,1364,768,8-30-2022,10-26-46,4,depth_duration_stimuli/003495_2014-05-21_16-01-51_094959634447_rgbf000100-resize_3/003495_2014-05-21_16-01-51_094959634447_rgbf000100-resize_3-target.png,250,1.6255,1,2789,249,feet,jsons/v1_VE250_randls_61.json,760903,918176,32,Woman
4,500788,DepthScenes,duration_manipulation_targetAtFixation,jsons/v1_VE250_randls_61.json,http://54.235.29.9/FacialAge/BNav_EC2/DepthDuration/v2_depth_duration_MTurk/v2_DepthDuration_HTML.html#381,381,1364,768,1364,768,8-30-2022,10-26-46,5,depth_duration_stimuli/001066_2014-06-08_22-03-20_260595134347_rgbf000066-resize_4/001066_2014-06-08_22-03-20_260595134347_rgbf000066-resize_4-target.png,250,4.2330000000000005,1,2292,247,feet,jsons/v1_VE250_randls_61.json,760903,918176,32,Woman
5,500788,DepthScenes,duration_manipulation_targetAtFixation,jsons/v1_VE250_randls_61.json,http://54.235.29.9/FacialAge/BNav_EC2/DepthDuration/v2_depth_duration_MTurk/v2_DepthDuration_HTML.html#381,381,1364,768,1364,768,8-30-2022,10-26-46,6,depth_duration_stimuli/000742_2014-06-08_18-48-09_260595134347_rgbf000164-resize_4/000742_2014-06-08_18-48-09_260595134347_rgbf000164-resize_4-target.png,250,4.632,1,3704,249,feet,jsons/v1_VE250_randls_61.json,760903,918176,32,Woman
6,500788,DepthScenes,duration_manipulation_targetAtFixation,jsons/v1_VE250_randls_61.json,http://54.235.29.9/FacialAge/BNav_EC2/DepthDuration/v2_depth_duration_MTurk/v2_DepthDuration_HTML.html#381,381,1364,768,1364,768,8-30-2022,10-26-46,7,depth_duration_stimuli/002905_2014-06-03_18-04-43_094959634447_rgbf000151-resize_2/002905_2014-06-03_18-04-43_094959634447_rgbf000151-resize_2-target.png,250,2.0295,1,2397,251,feet,jsons/v1_VE250_randls_61.json,760903,918176,32,Woman
7,500788,DepthScenes,duration_manipulation_targetAtFixation,jsons/v1_VE250_randls_61.json,http://54.235.29.9/FacialAge/BNav_EC2/DepthDuration/v2_depth_duration_MTurk/v2_DepthDuration_HTML.html#381,381,1364,768,1364,768,8-30-2022,10-26-46,8,depth_duration_stimuli/003423_2014-05-21_10-23-26_094959634447_rgbf002665-resize_2/003423_2014-05-21_10-23-26_094959634447_rgbf002665-resize_2-target.png,250,3.2575,1,2276,248,feet,jsons/v1_VE250_randls_61.json,760903,918176,32,Woman
8,500788,DepthScenes,duration_manipulation_targetAtFixation,jsons/v1_VE250_randls_61.json,http://54.235.29.9/FacialAge/BNav_EC2/DepthDuration/v2_depth_duration_MTurk/v2_DepthDuration_HTML.html#381,381,1364,768,1364,768,8-30-2022,10-26-46,9,depth_duration_stimuli/000692_2014-06-08_13-09-42_260595134347_rgbf000199-resize_2/000692_2014-06-08_13-09-42_260595134347_rgbf000199-resize_2-target.png,250,3.661,1,2221,249,feet,jsons/v1_VE250_randls_61.json,760903,918176,32,Woman
9,500788,DepthScenes,duration_manipulation_targetAtFixation,jsons/v1_VE250_randls_61.json,http://54.235.29.9/FacialAge/BNav_EC2/DepthDuration/v2_depth_duration_MTurk/v2_DepthDuration_HTML.html#381,381,1364,768,1364,768,8-30-2022,10-26-46,10,depth_duration_stimuli/001094_2014-06-15_17-36-00_260595134347_rgbf000205-resize_0/001094_2014-06-15_17-36-00_260595134347_rgbf000205-resize_0-target.png,250,4.2175,1,2172,252,feet,jsons/v1_VE250_randls_61.json,760903,918176,32,Woman
10,500788,DepthScenes,duration_manipulation_targetAtFixation,jsons/v1_VE250_randls_61.json,http://54.235.29.9/FacialAge/BNav_EC2/DepthDuration/v2_depth_duration_MTurk/v2_DepthDuration_HTML.html#381,381,1364,768,1364,768,8-30-2022,10-26-46,11,depth_duration_stimuli/002600_2014-06-24_14-27-04_094959634447_rgbf000074-resize_2/002600_2014-06-24_14-27-04_094959634447_rgbf000074-resize_2-target.png,250,2.7575,1,2191,250,feet,jsons/v1_VE250_randls_61.json,760903,918176,32,Woman
11,500788,DepthScenes,duration_manipulation_targetAtFixation,jsons/v1_VE250_randls_61.json,http://54.235.29.9/FacialAge/BNav_EC2/DepthDuration/v2_depth_duration_MTurk/v2_DepthDuration_HTML.html#381,381,1364,768,1364,768,8-30-2022,10-26-46,12,depth_duration_stimuli/003228_2014-05-14_13-42-35_094959634447_rgbf000101-resize_1/003228_2014-05-14_13-42-35_094959634447_rgbf000101-resize_1-target.png,250,1.9680000000000002,1,12135,245,feet,jsons/v1_VE250_randls_61.json,760903,918176,32,Woman
12,500788,DepthScenes,duration_manipulation_targetAtFixation,jsons/v1_VE250_randls_61.json,http://54.235.29.9/FacialAge/BNav_EC2/DepthDuration/v2_depth_duration_MTurk/v2_DepthDuration_HTML.html#381,381,1364,768,1364,768,8-30-2022,10-26-46,13,depth_duration_stimuli/000569_2014-06-09_22-51-47_260595134347_rgbf000141-resize_3/000569_2014-06-09_22-51-47_260595134347_rgbf000141-resize-original.jpg,250,4.512,1,2814,251,feet,jsons/v1_VE250_randls_61.json,760903,918176,32,Woman
13,500788,DepthScenes,duration_manipulation_targetAtFixation,jsons/v1_VE250_randls_61.json,http://54.235.29.9/FacialAge/BNav_EC2/DepthDuration/v2_depth_duration_MTurk/v2_DepthDuration_HTML.html#381,381,1364,768,1364,768,8-30-2022,10-26-46,14,depth_duration_stimuli/001449_2014-06-19_17-01-27_260595134347_rgbf000116-resize_2/001449_2014-06-19_17-01-27_260595134347_rgbf000116-resize_2-target.png,250,3.452,1,2540,259,feet,jsons/v1_VE250_randls_61.json,760903,918176,32,Woman
14,500788,DepthScenes,duration_manipulation_targetAtFixation,jsons/v1_VE250_randls_61.json,http://54.235.29.9/FacialAge/BNav_EC2/DepthDuration/v2_depth_duration_MTurk/v2_DepthDuration_HTML.html#381,381,1364,768,1364,768,8-30-2022,10-26-46,15,depth_duration_stimuli/001450_2014-06-19_17-02-03_260595134347_rgbf000203-resize_4/001450_2014-06-19_17-02-03_260595134347_rgbf000203-resize_4-target.png,250,4.0106666666667,1,2364,254,feet,jsons/v1_VE250_randls_61.json,760903,918176,32,Woman
15,500788,DepthScenes,duration_manipulation_targetAtFixation,jsons/v1_VE250_randls_61.json,http://54.235.29.9/FacialAge/BNav_EC2/DepthDuration/v2_depth_duration_MTurk/v2_DepthDuration_HTML.html#381,381,1364,768,1364,768,8-30-2022,10-26-46,16,depth_duration_stimuli/002725_2014-06-22_11-47-51_094959634447_rgbf000070-resize_1/002725_2014-06-22_11-47-51_094959634447_rgbf000070-resize_1-target.png,250,2.195,1,2239,246,feet,jsons/v1_VE250_randls_61.json,760903,918176,32,Woman
16,500788,DepthScenes,duration_manipulation_targetAtFixation,jsons/v1_VE250_randls_61.json,http://54.235.29.9/FacialAge/BNav_EC2/DepthDuration/v2_depth_duration_MTurk/v2_DepthDuration_HTML.html#381,381,1364,768,1364,768,8-30-2022,10-26-46,17,depth_duration_stimuli/002344_2014-06-28_20-06-29_260595134347_rgbf000030-resize_1/002344_2014-06-28_20-06-29_260595134347_rgbf000030-resize_1-target.png,250,1.5795,1,1867,251,feet,jsons/v1_VE250_randls_61.json,760903,918176,32,Woman
17,500788,DepthScenes,duration_manipulation_targetAtFixation,jsons/v1_VE250_randls_61.json,http://54.235.29.9/FacialAge/BNav_EC2/DepthDuration/v2_depth_duration_MTurk/v2_DepthDuration_HTML.html#381,381,1364,768,1364,768,8-30-2022,10-26-46,18,depth_duration_stimuli/002213_2014-06-28_18-37-58_260595134347_rgbf000055-resize_1/002213_2014-06-28_18-37-58_260595134347_rgbf000055-resize_1-target.png,250,3.62,1,134511,267,feet,jsons/v1_VE250_randls_61.json,760903,918176,32,Woman
18,500788,DepthScenes,duration_manipulation_targetAtFixation,jsons/v1_VE250_randls_61.json,http://54.235.29.9/FacialAge/BNav_EC2/DepthDuration/v2_depth_duration_MTurk/v2_DepthDuration_HTML.html#381,381,1364,768,1364,768,8-30-2022,10-26-46,19,depth_duration_stimuli/000691_2014-06-08_13-08-50_260595134347_rgbf000132-resize_3/000691_2014-06-08_13-08-50_260595134347_rgbf000132-resize_3-target.png,250,4.1530000000000005,1,7316,252,feet,jsons/v1_VE250_randls_61.json,760903,918176,32,Woman
19,500788,DepthScenes,duration_manipulation_targetAtFixation,jsons/v1_VE250_randls_61.json,http://54.235.29.9/FacialAge/BNav_EC2/DepthDuration/v2_depth_duration_MTurk/v2_DepthDuration_HTML.html#381,381,1364,768,1364,768,8-30-2022,10-26-46,20,depth_duration_stimuli/000436_2014-06-09_22-25-11_260595134347_rgbf000137-resize_1/000436_2014-06-09_22-25-11_260595134347_rgbf000137-resize_1-target.png,250,4.0705,1,2535,251,feet,jsons/v1_VE250_randls_61.json,760903,918176,32,Woman
20,500788,DepthScenes,duration_manipulation_targetAtFixation,jsons/v1_VE250_randls_61.json,http://54.235.29.9/FacialAge/BNav_EC2/DepthDuration/v2_depth_duration_MTurk/v2_DepthDuration_HTML.html#381,381,1364,768,1364,768,8-30-2022,10-26-46,21,depth_duration_stimuli/002444_2014-06-28_20-32-08_260595134347_rgbf000027-resize_0/002444_2014-06-28_20-32-08_260595134347_rgbf000027-resize_0-target.png,250,4.388999999999999,1,2139,259,feet,jsons/v1_VE250_randls_61.json,760903,918176,32,Woman
21,500788,DepthScenes,duration_manipulation_targetAtFixation,jsons/v1_VE250_randls_61.json,http://54.235.29.9/FacialAge/BNav_EC2/DepthDuration/v2_depth_duration_MTurk/v2_DepthDuration_HTML.html#381,381,1364,768,1364,768,8-30-2022,10-26-46,22,depth_duration_stimuli/000758_2014-06-08_22-05-08_260595134347_rgbf000085-resize_0/000758_2014-06-08_22-05-08_260595134347_rgbf000085-resize_0-target.png,250,3.3810000000000002,1,2190,248,feet,jsons/v1_VE250_randls_61.json,760903,918176,32,Woman
22,500788,DepthScenes,duration_manipulation_targetAtFixation,jsons/v1_VE250_randls_61.json,http://54.235.29.9/FacialAge/BNav_EC2/DepthDuration/v2_depth_duration_MTurk/v2_DepthDuration_HTML.html#381,381,1364,768,1364,768,8-30-2022,10-26-46,23,depth_duration_stimuli/000854_2014-06-09_19-43-13_260595134347_rgbf000066-resize_0/000854_2014-06-09_19-43-13_260595134347_rgbf000066-resize_0-target.png,250,3.068,1,2757,249,feet,jsons/v1_VE250_randls_61.json,760903,918176,32,Woman
23,500788,DepthScenes,duration_manipulation_targetAtFixation,jsons/v1_VE250_randls_61.json,http://54.235.29.9/FacialAge/BNav_EC2/DepthDuration/v2_depth_duration_MTurk/v2_DepthDuration_HTML.html#381,381,1364,768,1364,768,8-30-2022,10-26-46,24,depth_duration_stimuli/001570_2014-06-20_17-21-09_260595134347_rgbf000135-resize_4/001570_2014-06-20_17-21-09_260595134347_rgbf000135-resize_4-target.png,250,4.467,1,4419,259,feet,jsons/v1_VE250_randls_61.json,760903,918176,32,Woman
24,500788,DepthScenes,duration_manipulation_targetAtFixation,jsons/v1_VE250_randls_61.json,http://54.235.29.9/FacialAge/BNav_EC2/DepthDuration/v2_depth_duration_MTurk/v2_DepthDuration_HTML.html#381,381,1364,768,1364,768,8-30-2022,10-26-46,25,depth_duration_stimuli/001392_2014-06-19_16-07-59_260595134347_rgbf000046-resize_1/001392_2014-06-19_16-07-59_260595134347_rgbf000046-resize_1-target.png,250,4.135,1,1977,210,feet,jsons/v1_VE250_randls_61.json,760903,918176,32,Woman
25,500788,DepthScenes,duration_manipulation_targetAtFixation,jsons/v1_VE250_randls_61.json,http://54.235.29.9/FacialAge/BNav_EC2/DepthDuration/v2_depth_duration_MTurk/v2_DepthDuration_HTML.html#381,381,1364,768,1364,768,8-30-2022,10-26-46,26,depth_duration_stimuli/000682_2014-06-08_23-14-58_260595134347_rgbf000041-resize_5/000682_2014-06-08_23-14-58_260595134347_rgbf000041-resize_5-target.png,250,2.7239999999999998,1,2346,257,feet,jsons/v1_VE250_randls_61.json,760903,918176,32,Woman
26,500788,DepthScenes,duration_manipulation_targetAtFixation,jsons/v1_VE250_randls_61.json,http://54.235.29.9/FacialAge/BNav_EC2/DepthDuration/v2_depth_duration_MTurk/v2_DepthDuration_HTML.html#381,381,1364,768,1364,768,8-30-2022,10-26-46,27,depth_duration_stimuli/001650_2014-06-20_12-09-00_260595134347_rgbf000087-resize_3/001650_2014-06-20_12-09-00_260595134347_rgbf000087-resize_3-target.png,250,1.9505,1,2366,245,feet,jsons/v1_VE250_randls_61.json,760903,918176,32,Woman
27,500788,DepthScenes,duration_manipulation_targetAtFixation,jsons/v1_VE250_randls_61.json,http://54.235.29.9/FacialAge/BNav_EC2/DepthDuration/v2_depth_duration_MTurk/v2_DepthDuration_HTML.html#381,381,1364,768,1364,768,8-30-2022,10-26-46,28,depth_duration_stimuli/001175_2014-06-17_15-45-55_260595134347_rgbf000129-resize_4/001175_2014-06-17_15-45-55_260595134347_rgbf000129-resize_4-target.png,250,4.255,1,3039,242,feet,jsons/v1_VE250_randls_61.json,760903,918176,32,Woman
28,500788,DepthScenes,duration_manipulation_targetAtFixation,jsons/v1_VE250_randls_61.json,http://54.235.29.9/FacialAge/BNav_EC2/DepthDuration/v2_depth_duration_MTurk/v2_DepthDuration_HTML.html#381,381,1364,768,1364,768,8-30-2022,10-26-46,29,depth_duration_stimuli/003490_2014-05-21_15-50-11_094959634447_rgbf000101-resize_3/003490_2014-05-21_15-50-11_094959634447_rgbf000101-resize_3-target.png,250,3.6445,1,2120,266,feet,jsons/v1_VE250_randls_61.json,760903,918176,32,Woman
29,500788,DepthScenes,duration_manipulation_targetAtFixation,jsons/v1_VE250_randls_61.json,http://54.235.29.9/FacialAge/BNav_EC2/DepthDuration/v2_depth_duration_MTurk/v2_DepthDuration_HTML.html#381,381,1364,768,1364,768,8-30-2022,10-26-46,30,depth_duration_stimuli/000375_2014-06-08_11-17-29_260595134347_rgbf000133-resize_2/000375_2014-06-08_11-17-29_260595134347_rgbf000133-resize-original.jpg,250,4.718,1,1940,253,feet,jsons/v1_VE250_randls_61.json,760903,918176,32,Woman
30,500788,DepthScenes,duration_manipulation_targetAtFixation,jsons/v1_VE250_randls_61.json,http://54.235.29.9/FacialAge/BNav_EC2/DepthDuration/v2_depth_duration_MTurk/v2_DepthDuration_HTML.html#381,381,1364,768,1364,768,8-30-2022,10-26-46,31,depth_duration_stimuli/001011_2014-06-08_23-18-54_260595134347_rgbf000044-resize_4/001011_2014-06-08_23-18-54_260595134347_rgbf000044-resize_4-target.png,250,2.4730000000000003,1,2093,227,feet,jsons/v1_VE250_randls_61.json,760903,918176,32,Woman
31,500788,DepthScenes,duration_manipulation_targetAtFixation,jsons/v1_VE250_randls_61.json,http://54.235.29.9/FacialAge/BNav_EC2/DepthDuration/v2_depth_duration_MTurk/v2_DepthDuration_HTML.html#381,381,1364,768,1364,768,8-30-2022,10-26-46,32,depth_duration_stimuli/002875_2014-06-01_15-19-00_094959634447_rgbf000151-resize_1/002875_2014-06-01_15-19-00_094959634447_rgbf000151-resize_1-target.png,250,1.9675,1,2072,246,feet,jsons/v1_VE250_randls_61.json,760903,918176,32,Woman
32,500788,DepthScenes,duration_manipulation_targetAtFixation,jsons/v1_VE250_randls_61.json,http://54.235.29.9/FacialAge/BNav_EC2/DepthDuration/v2_depth_duration_MTurk/v2_DepthDuration_HTML.html#381,381,1364,768,1364,768,8-30-2022,10-26-46,33,depth_duration_stimuli/002988_2014-06-15_12-24-20_094959634447_rgbf000150-resize_1/002988_2014-06-15_12-24-20_094959634447_rgbf000150-resize_1-target.png,250,4.7669999999999995,1,2177,250,feet,jsons/v1_VE250_randls_61.json,760903,918176,32,Woman
33,500788,DepthScenes,duration_manipulation_targetAtFixation,jsons/v1_VE250_randls_61.json,http://54.235.29.9/FacialAge/BNav_EC2/DepthDuration/v2_depth_duration_MTurk/v2_DepthDuration_HTML.html#381,381,1364,768,1364,768,8-30-2022,10-26-46,34,depth_duration_stimuli/001052_2014-06-08_18-24-54_260595134347_rgbf000130-resize_1/001052_2014-06-08_18-24-54_260595134347_rgbf000130-resize_1-target.png,250,4.1045,1,2189,256,feet,jsons/v1_VE250_randls_61.json,760903,918176,32,Woman
34,500788,DepthScenes,duration_manipulation_targetAtFixation,jsons/v1_VE250_randls_61.json,http://54.235.29.9/FacialAge/BNav_EC2/DepthDuration/v2_depth_duration_MTurk/v2_DepthDuration_HTML.html#381,381,1364,768,1364,768,8-30-2022,10-26-46,35,depth_duration_stimuli/002549_2014-06-24_13-41-39_094959634447_rgbf000022-resize_3/002549_2014-06-24_13-41-39_094959634447_rgbf000022-resize_3-target.png,250,1.476,1,2396,253,feet,jsons/v1_VE250_randls_61.json,760903,918176,32,Woman
35,500788,DepthScenes,duration_manipulation_targetAtFixation,jsons/v1_VE250_randls_61.json,http://54.235.29.9/FacialAge/BNav_EC2/DepthDuration/v2_depth_duration_MTurk/v2_DepthDuration_HTML.html#381,381,1364,768,1364,768,8-30-2022,10-26-46,36,depth_duration_stimuli/002750_2014-06-22_19-08-03_094959634447_rgbf000094-resize_4/002750_2014-06-22_19-08-03_094959634447_rgbf000094-resize_4-target.png,250,2.354,1,18823,245,feet,jsons/v1_VE250_randls_61.json,760903,918176,32,Woman
36,500788,DepthScenes,duration_manipulation_targetAtFixation,jsons/v1_VE250_randls_61.json,http://54.235.29.9/FacialAge/BNav_EC2/DepthDuration/v2_depth_duration_MTurk/v2_DepthDuration_HTML.html#381,381,1364,768,1364,768,8-30-2022,10-26-46,37,depth_duration_stimuli/002118_2014-06-25_20-32-08_260595134347_rgbf000078-resize_1/002118_2014-06-25_20-32-08_260595134347_rgbf000078-resize_1-target.png,250,2.6460000000000004,1,2288,251,feet,jsons/v1_VE250_randls_61.json,760903,918176,32,Woman
37,500788,DepthScenes,duration_manipulation_targetAtFixation,jsons/v1_VE250_randls_61.json,http://54.235.29.9/FacialAge/BNav_EC2/DepthDuration/v2_depth_duration_MTurk/v2_DepthDuration_HTML.html#381,381,1364,768,1364,768,8-30-2022,10-26-46,38,depth_duration_stimuli/001516_2014-06-20_16-25-09_260595134347_rgbf000076-resize_2/001516_2014-06-20_16-25-09_260595134347_rgbf000076-resize_2-target.png,250,1.7445,1,2065,251,feet,jsons/v1_VE250_randls_61.json,760903,918176,32,Woman
38,500788,DepthScenes,duration_manipulation_targetAtFixation,jsons/v1_VE250_randls_61.json,http://54.235.29.9/FacialAge/BNav_EC2/DepthDuration/v2_depth_duration_MTurk/v2_DepthDuration_HTML.html#381,381,1364,768,1364,768,8-30-2022,10-26-46,39,depth_duration_stimuli/002788_2014-06-22_19-36-03_094959634447_rgbf000088-resize_2/002788_2014-06-22_19-36-03_094959634447_rgbf000088-resize_2-target.png,250,1.6465,1,2321,252,feet,jsons/v1_VE250_randls_61.json,760903,918176,32,Woman
39,500788,DepthScenes,duration_manipulation_targetAtFixation,jsons/v1_VE250_randls_61.json,http://54.235.29.9/FacialAge/BNav_EC2/DepthDuration/v2_depth_duration_MTurk/v2_DepthDuration_HTML.html#381,381,1364,768,1364,768,8-30-2022,10-26-46,40,depth_duration_stimuli/000749_2014-06-08_21-55-06_260595134347_rgbf000070-resize_2/000749_2014-06-08_21-55-06_260595134347_rgbf000070-resize_2-target.png,250,2.331,1,1945,247,feet,jsons/v1_VE250_randls_61.json,760903,918176,32,Woman
40,500788,DepthScenes,duration_manipulation_targetAtFixation,jsons/v1_VE250_randls_61.json,http://54.235.29.9/FacialAge/BNav_EC2/DepthDuration/v2_depth_duration_MTurk/v2_DepthDuration_HTML.html#381,381,1364,768,1364,768,8-30-2022,10-26-46,41,depth_duration_stimuli/002445_2014-06-28_20-32-16_260595134347_rgbf000029-resize_4/002445_2014-06-28_20-32-16_260595134347_rgbf000029-resize_4-target.png,250,2.5315,1,2306,254,feet,jsons/v1_VE250_randls_61.json,760903,918176,32,Woman
41,500788,DepthScenes,duration_manipulation_targetAtFixation,jsons/v1_VE250_randls_61.json,http://54.235.29.9/FacialAge/BNav_EC2/DepthDuration/v2_depth_duration_MTurk/v2_DepthDuration_HTML.html#381,381,1364,768,1364,768,8-30-2022,10-26-46,42,depth_duration_stimuli/000780_2014-06-08_22-28-29_260595134347_rgbf000126-resize_1/000780_2014-06-08_22-28-29_260595134347_rgbf000126-resize_1-target.png,250,3.3825,1,6116,249,feet,jsons/v1_VE250_randls_61.json,760903,918176,32,Woman
42,500788,DepthScenes,duration_manipulation_targetAtFixation,jsons/v1_VE250_randls_61.json,http://54.235.29.9/FacialAge/BNav_EC2/DepthDuration/v2_depth_duration_MTurk/v2_DepthDuration_HTML.html#381,381,1364,768,1364,768,8-30-2022,10-26-46,43,depth_duration_stimuli/001055_2014-06-08_18-45-35_260595134347_rgbf000111-resize_4/001055_2014-06-08_18-45-35_260595134347_rgbf000111-resize_4-target.png,250,2.4290000000000003,1,4904,249,feet,jsons/v1_VE250_randls_61.json,760903,918176,32,Woman
43,500788,DepthScenes,duration_manipulation_targetAtFixation,jsons/v1_VE250_randls_61.json,http://54.235.29.9/FacialAge/BNav_EC2/DepthDuration/v2_depth_duration_MTurk/v2_DepthDuration_HTML.html#381,381,1364,768,1364,768,8-30-2022,10-26-46,44,depth_duration_stimuli/000549_2014-06-08_22-10-24_260595134347_rgbf000247-resize_3/000549_2014-06-08_22-10-24_260595134347_rgbf000247-resize_3-target.png,250,1.841,1,2254,260,feet,jsons/v1_VE250_randls_61.json,760903,918176,32,Woman
44,500788,DepthScenes,duration_manipulation_targetAtFixation,jsons/v1_VE250_randls_61.json,http://54.235.29.9/FacialAge/BNav_EC2/DepthDuration/v2_depth_duration_MTurk/v2_DepthDuration_HTML.html#381,381,1364,768,1364,768,8-30-2022,10-26-46,45,depth_duration_stimuli/000787_2014-06-08_22-33-53_260595134347_rgbf000175-resize_1/000787_2014-06-08_22-33-53_260595134347_rgbf000175-resize-original.jpg,250,4.784,1,2099,267,feet,jsons/v1_VE250_randls_61.json,760903,918176,32,Woman
45,500788,DepthScenes,duration_manipulation_targetAtFixation,jsons/v1_VE250_randls_61.json,http://54.235.29.9/FacialAge/BNav_EC2/DepthDuration/v2_depth_duration_MTurk/v2_DepthDuration_HTML.html#381,381,1364,768,1364,768,8-30-2022,10-26-46,46,depth_duration_stimuli/002570_2014-06-24_13-59-54_094959634447_rgbf000059-resize_0/002570_2014-06-24_13-59-54_094959634447_rgbf000059-resize_0-target.png,250,4.037,1,3180,250,feet,jsons/v1_VE250_randls_61.json,760903,918176,32,Woman
46,500788,DepthScenes,duration_manipulation_targetAtFixation,jsons/v1_VE250_randls_61.json,http://54.235.29.9/FacialAge/BNav_EC2/DepthDuration/v2_depth_duration_MTurk/v2_DepthDuration_HTML.html#381,381,1364,768,1364,768,8-30-2022,10-26-46,47,depth_duration_stimuli/002467_2014-06-28_20-38-07_260595134347_rgbf000026-resize_2/002467_2014-06-28_20-38-07_260595134347_rgbf000026-resize_2-target.png,250,4.742,1,2099,244,feet,jsons/v1_VE250_randls_61.json,760903,918176,32,Woman
47,500788,DepthScenes,duration_manipulation_targetAtFixation,jsons/v1_VE250_randls_61.json,http://54.235.29.9/FacialAge/BNav_EC2/DepthDuration/v2_depth_duration_MTurk/v2_DepthDuration_HTML.html#381,381,1364,768,1364,768,8-30-2022,10-26-46,48,depth_duration_stimuli/003534_2014-05-22_15-06-10_094959634447_rgbf000102-resize_4/003534_2014-05-22_15-06-10_094959634447_rgbf000102-resize_4-target.png,250,1.426,1,6284,249,feet,jsons/v1_VE250_randls_61.json,760903,918176,32,Woman
48,500788,DepthScenes,duration_manipulation_targetAtFixation,jsons/v1_VE250_randls_61.json,http://54.235.29.9/FacialAge/BNav_EC2/DepthDuration/v2_depth_duration_MTurk/v2_DepthDuration_HTML.html#381,381,1364,768,1364,768,8-30-2022,10-26-46,49,depth_duration_stimuli/002637_2014-06-24_14-51-13_094959634447_rgbf000066-resize_4/002637_2014-06-24_14-51-13_094959634447_rgbf000066-resize_4-target.png,250,1.9955,1,2409,243,feet,jsons/v1_VE250_randls_61.json,760903,918176,32,Woman
49,500788,DepthScenes,duration_manipulation_targetAtFixation,jsons/v1_VE250_randls_61.json,http://54.235.29.9/FacialAge/BNav_EC2/DepthDuration/v2_depth_duration_MTurk/v2_DepthDuration_HTML.html#381,381,1364,768,1364,768,8-30-2022,10-26-46,50,depth_duration_stimuli/000486_2014-06-09_20-47-20_260595134347_rgbf000143-resize_2/000486_2014-06-09_20-47-20_260595134347_rgbf000143-resize_2-target.png,250,4.8325,1,2339,253,feet,jsons/v1_VE250_randls_61.json,760903,918176,32,Woman
50,500788,DepthScenes,duration_manipulation_targetAtFixation,jsons/v1_VE250_randls_61.json,http://54.235.29.9/FacialAge/BNav_EC2/DepthDuration/v2_depth_duration_MTurk/v2_DepthDuration_HTML.html#381,381,1364,768,1364,768,8-30-2022,10-26-46,51,depth_duration_stimuli/003083_2014-06-15_15-21-03_094959634447_rgbf000063-resize_1/003083_2014-06-15_15-21-03_094959634447_rgbf000063-resize_1-target.png,250,4.1405,1,4400,252,feet,jsons/v1_VE250_randls_61.json,760903,918176,32,Woman
51,500788,DepthScenes,duration_manipulation_targetAtFixation,jsons/v1_VE250_randls_61.json,http://54.235.29.9/FacialAge/BNav_EC2/DepthDuration/v2_depth_duration_MTurk/v2_DepthDuration_HTML.html#381,381,1364,768,1364,768,8-30-2022,10-26-46,52,depth_duration_stimuli/000773_2014-06-08_22-24-54_260595134347_rgbf000093-resize_1/000773_2014-06-08_22-24-54_260595134347_rgbf000093-resize_1-target.png,250,4.973,1,5100,250,feet,jsons/v1_VE250_randls_61.json,760903,918176,32,Woman
52,500788,DepthScenes,duration_manipulation_targetAtFixation,jsons/v1_VE250_randls_61.json,http://54.235.29.9/FacialAge/BNav_EC2/DepthDuration/v2_depth_duration_MTurk/v2_DepthDuration_HTML.html#381,381,1364,768,1364,768,8-30-2022,10-26-46,53,depth_duration_stimuli/002414_2014-06-28_20-24-58_260595134347_rgbf000067-resize_4/002414_2014-06-28_20-24-58_260595134347_rgbf000067-resize_4-target.png,250,4.363,1,7870,10,feet,jsons/v1_VE250_randls_61.json,760903,918176,32,Woman
53,500788,DepthScenes,duration_manipulation_targetAtFixation,jsons/v1_VE250_randls_61.json,http://54.235.29.9/FacialAge/BNav_EC2/DepthDuration/v2_depth_duration_MTurk/v2_DepthDuration_HTML.html#381,381,1364,768,1364,768,8-30-2022,10-26-46,54,depth_duration_stimuli/000506_2014-06-08_23-21-00_260595134347_rgbf000070-resize_7/000506_2014-06-08_23-21-00_260595134347_rgbf000070-resize_7-target.png,250,4.0585,1,5944,248,feet,jsons/v1_VE250_randls_61.json,760903,918176,32,Woman
54,500788,DepthScenes,duration_manipulation_targetAtFixation,jsons/v1_VE250_randls_61.json,http://54.235.29.9/FacialAge/BNav_EC2/DepthDuration/v2_depth_duration_MTurk/v2_DepthDuration_HTML.html#381,381,1364,768,1364,768,8-30-2022,10-26-46,55,depth_duration_stimuli/003079_2014-06-15_15-18-20_094959634447_rgbf000152-resize_8/003079_2014-06-15_15-18-20_094959634447_rgbf000152-resize_8-target.png,250,2.8775,1,3345,170,feet,jsons/v1_VE250_randls_61.json,760903,918176,32,Woman
55,500788,DepthScenes,duration_manipulation_targetAtFixation,jsons/v1_VE250_randls_61.json,http://54.235.29.9/FacialAge/BNav_EC2/DepthDuration/v2_depth_duration_MTurk/v2_DepthDuration_HTML.html#381,381,1364,768,1364,768,8-30-2022,10-26-46,56,depth_duration_stimuli/000642_2014-06-08_16-59-25_260595134347_rgbf000098-resize_2/000642_2014-06-08_16-59-25_260595134347_rgbf000098-resize_2-target.png,250,2.8815,1,3114,250,feet,jsons/v1_VE250_randls_61.json,760903,918176,32,Woman
56,500788,DepthScenes,duration_manipulation_targetAtFixation,jsons/v1_VE250_randls_61.json,http://54.235.29.9/FacialAge/BNav_EC2/DepthDuration/v2_depth_duration_MTurk/v2_DepthDuration_HTML.html#381,381,1364,768,1364,768,8-30-2022,10-26-46,57,depth_duration_stimuli/002425_2014-06-28_20-27-29_260595134347_rgbf000031-resize_8/002425_2014-06-28_20-27-29_260595134347_rgbf000031-resize_8-target.png,250,3.8960000000000004,1,13229,253,feet,jsons/v1_VE250_randls_61.json,760903,918176,32,Woman
57,500788,DepthScenes,duration_manipulation_targetAtFixation,jsons/v1_VE250_randls_61.json,http://54.235.29.9/FacialAge/BNav_EC2/DepthDuration/v2_depth_duration_MTurk/v2_DepthDuration_HTML.html#381,381,1364,768,1364,768,8-30-2022,10-26-46,58,depth_duration_stimuli/001110_2014-06-15_17-25-28_260595134347_rgbf000150-resize_1/001110_2014-06-15_17-25-28_260595134347_rgbf000150-resize_1-target.png,250,1.7115,1,8110,246,feet,jsons/v1_VE250_randls_61.json,760903,918176,32,Woman
58,500788,DepthScenes,duration_manipulation_targetAtFixation,jsons/v1_VE250_randls_61.json,http://54.235.29.9/FacialAge/BNav_EC2/DepthDuration/v2_depth_duration_MTurk/v2_DepthDuration_HTML.html#381,381,1364,768,1364,768,8-30-2022,10-26-46,59,depth_duration_stimuli/000927_2014-06-09_16-32-30_260595134347_rgbf000123-resize_3/000927_2014-06-09_16-32-30_260595134347_rgbf000123-resize_3-target.png,250,2.6785,1,2995,259,feet,jsons/v1_VE250_randls_61.json,760903,918176,32,Woman
59,500788,DepthScenes,duration_manipulation_targetAtFixation,jsons/v1_VE250_randls_61.json,http://54.235.29.9/FacialAge/BNav_EC2/DepthDuration/v2_depth_duration_MTurk/v2_DepthDuration_HTML.html#381,381,1364,768,1364,768,8-30-2022,10-26-46,60,depth_duration_stimuli/001056_2014-06-08_18-46-44_260595134347_rgbf000068-resize_0/001056_2014-06-08_18-46-44_260595134347_rgbf000068-resize_0-target.png,250,2.6625,1,3728,220,feet,jsons/v1_VE250_randls_61.json,760903,918176,32,Woman
60,500788,DepthScenes,duration_manipulation_targetAtFixation,jsons/v1_VE250_randls_61.json,http://54.235.29.9/FacialAge/BNav_EC2/DepthDuration/v2_depth_duration_MTurk/v2_DepthDuration_HTML.html#381,381,1364,768,1364,768,8-30-2022,10-26-46,61,depth_duration_stimuli/002199_2014-06-28_18-33-56_260595134347_rgbf000074-resize_0/002199_2014-06-28_18-33-56_260595134347_rgbf000074-resize_0-target.png,250,1.996,1,2339,250,feet,jsons/v1_VE250_randls_61.json,760903,918176,32,Woman
61,500788,DepthScenes,duration_manipulation_targetAtFixation,jsons/v1_VE250_randls_61.json,http://54.235.29.9/FacialAge/BNav_EC2/DepthDuration/v2_depth_duration_MTurk/v2_DepthDuration_HTML.html#381,381,1364,768,1364,768,8-30-2022,10-26-46,62,depth_duration_stimuli/002057_2014-06-24_21-00-13_260595134347_rgbf000120-resize_1/002057_2014-06-24_21-00-13_260595134347_rgbf000120-resize_1-target.png,250,2.967,1,2056,246,feet,jsons/v1_VE250_randls_61.json,760903,918176,32,Woman
62,500788,DepthScenes,duration_manipulation_targetAtFixation,jsons/v1_VE250_randls_61.json,http://54.235.29.9/FacialAge/BNav_EC2/DepthDuration/v2_depth_duration_MTurk/v2_DepthDuration_HTML.html#381,381,1364,768,1364,768,8-30-2022,10-26-46,63,depth_duration_stimuli/000709_2014-06-08_13-51-55_260595134347_rgbf000068-resize_3/000709_2014-06-08_13-51-55_260595134347_rgbf000068-resize_3-target.png,250,1.8030000000000002,1,2266,234,feet,jsons/v1_VE250_randls_61.json,760903,918176,32,Woman
63,500788,DepthScenes,duration_manipulation_targetAtFixation,jsons/v1_VE250_randls_61.json,http://54.235.29.9/FacialAge/BNav_EC2/DepthDuration/v2_depth_duration_MTurk/v2_DepthDuration_HTML.html#381,381,1364,768,1364,768,8-30-2022,10-26-46,64,depth_duration_stimuli/002784_2014-06-22_19-26-30_094959634447_rgbf000083-resize_3/002784_2014-06-22_19-26-30_094959634447_rgbf000083-resize_3-target.png,250,1.8046666666667,1,2260,251,feet,jsons/v1_VE250_randls_61.json,760903,918176,32,Woman
64,500788,DepthScenes,duration_manipulation_targetAtFixation,jsons/v1_VE250_randls_61.json,http://54.235.29.9/FacialAge/BNav_EC2/DepthDuration/v2_depth_duration_MTurk/v2_DepthDuration_HTML.html#381,381,1364,768,1364,768,8-30-2022,10-26-46,65,depth_duration_stimuli/001100_2014-06-15_17-46-26_260595134347_rgbf000225-resize_2/001100_2014-06-15_17-46-26_260595134347_rgbf000225-resize_2-target.png,250,2.24,1,2356,180,feet,jsons/v1_VE250_randls_61.json,760903,918176,32,Woman
65,500788,DepthScenes,duration_manipulation_targetAtFixation,jsons/v1_VE250_randls_61.json,http://54.235.29.9/FacialAge/BNav_EC2/DepthDuration/v2_depth_duration_MTurk/v2_DepthDuration_HTML.html#381,381,1364,768,1364,768,8-30-2022,10-26-46,66,depth_duration_stimuli/001222_2014-06-17_16-24-06_260595134347_rgbf000073-resize_0/001222_2014-06-17_16-24-06_260595134347_rgbf000073-resize-original.jpg,250,1.4385,1,2071,246,feet,jsons/v1_VE250_randls_61.json,760903,918176,32,Woman
66,500788,DepthScenes,duration_manipulation_targetAtFixation,jsons/v1_VE250_randls_61.json,http://54.235.29.9/FacialAge/BNav_EC2/DepthDuration/v2_depth_duration_MTurk/v2_DepthDuration_HTML.html#381,381,1364,768,1364,768,8-30-2022,10-26-46,67,depth_duration_stimuli/002630_2014-06-24_14-47-50_094959634447_rgbf000055-resize_1/002630_2014-06-24_14-47-50_094959634447_rgbf000055-resize_1-target.png,250,3.0095,1,2875,268,feet,jsons/v1_VE250_randls_61.json,760903,918176,32,Woman
67,500788,DepthScenes,duration_manipulation_targetAtFixation,jsons/v1_VE250_randls_61.json,http://54.235.29.9/FacialAge/BNav_EC2/DepthDuration/v2_depth_duration_MTurk/v2_DepthDuration_HTML.html#381,381,1364,768,1364,768,8-30-2022,10-26-46,68,depth_duration_stimuli/002758_2014-06-22_19-11-20_094959634447_rgbf000128-resize_1/002758_2014-06-22_19-11-20_094959634447_rgbf000128-resize_1-target.png,250,2.555,1,2247,269,feet,jsons/v1_VE250_randls_61.json,760903,918176,32,Woman
68,500788,DepthScenes,duration_manipulation_targetAtFixation,jsons/v1_VE250_randls_61.json,http://54.235.29.9/FacialAge/BNav_EC2/DepthDuration/v2_depth_duration_MTurk/v2_DepthDuration_HTML.html#381,381,1364,768,1364,768,8-30-2022,10-26-46,69,depth_duration_stimuli/002375_2014-06-28_20-13-44_260595134347_rgbf000032-resize_1/002375_2014-06-28_20-13-44_260595134347_rgbf000032-resize_1-target.png,250,4.0175,1,3134,250,feet,jsons/v1_VE250_randls_61.json,760903,918176,32,Woman
69,500788,DepthScenes,duration_manipulation_targetAtFixation,jsons/v1_VE250_randls_61.json,http://54.235.29.9/FacialAge/BNav_EC2/DepthDuration/v2_depth_duration_MTurk/v2_DepthDuration_HTML.html#381,381,1364,768,1364,768,8-30-2022,10-26-46,70,depth_duration_stimuli/002657_2014-06-13_15-29-54_094959634447_rgbf000150-resize_1/002657_2014-06-13_15-29-54_094959634447_rgbf000150-resize_1-target.png,250,4.919,1,3424,266,feet,jsons/v1_VE250_randls_61.json,760903,918176,32,Woman
70,500788,DepthScenes,duration_manipulation_targetAtFixation,jsons/v1_VE250_randls_61.json,http://54.235.29.9/FacialAge/BNav_EC2/DepthDuration/v2_depth_duration_MTurk/v2_DepthDuration_HTML.html#381,381,1364,768,1364,768,8-30-2022,10-26-46,71,depth_duration_stimuli/003492_2014-05-21_15-50-55_094959634447_rgbf000828-resize_1/003492_2014-05-21_15-50-55_094959634447_rgbf000828-resize_1-target.png,250,4.06875,1,2317,258,feet,jsons/v1_VE250_randls_61.json,760903,918176,32,Woman
71,500788,DepthScenes,duration_manipulation_targetAtFixation,jsons/v1_VE250_randls_61.json,http://54.235.29.9/FacialAge/BNav_EC2/DepthDuration/v2_depth_duration_MTurk/v2_DepthDuration_HTML.html#381,381,1364,768,1364,768,8-30-2022,10-26-46,72,depth_duration_stimuli/002568_2014-06-24_13-59-21_094959634447_rgbf000062-resize_4/002568_2014-06-24_13-59-21_094959634447_rgbf000062-resize_4-target.png,250,3.015,1,2158,252,feet,jsons/v1_VE250_randls_61.json,760903,918176,32,Woman
72,500788,DepthScenes,duration_manipulation_targetAtFixation,jsons/v1_VE250_randls_61.json,http://54.235.29.9/FacialAge/BNav_EC2/DepthDuration/v2_depth_duration_MTurk/v2_DepthDuration_HTML.html#381,381,1364,768,1364,768,8-30-2022,10-26-46,73,depth_duration_stimuli/002763_2014-06-22_19-13-10_094959634447_rgbf000075-resize_4/002763_2014-06-22_19-13-10_094959634447_rgbf000075-resize_4-target.png,250,1.68375,1,2034,249,feet,jsons/v1_VE250_randls_61.json,760903,918176,32,Woman
73,500788,DepthScenes,duration_manipulation_targetAtFixation,jsons/v1_VE250_randls_61.json,http://54.235.29.9/FacialAge/BNav_EC2/DepthDuration/v2_depth_duration_MTurk/v2_DepthDuration_HTML.html#381,381,1364,768,1364,768,8-30-2022,10-26-46,74,depth_duration_stimuli/002209_2014-06-28_18-36-10_260595134347_rgbf000051-resize_1/002209_2014-06-28_18-36-10_260595134347_rgbf000051-resize_1-target.png,250,2.057,1,1897,245,feet,jsons/v1_VE250_randls_61.json,760903,918176,32,Woman
74,500788,DepthScenes,duration_manipulation_targetAtFixation,jsons/v1_VE250_randls_61.json,http://54.235.29.9/FacialAge/BNav_EC2/DepthDuration/v2_depth_duration_MTurk/v2_DepthDuration_HTML.html#381,381,1364,768,1364,768,8-30-2022,10-26-46,75,depth_duration_stimuli/001808_2014-06-26_20-50-58_260595134347_rgbf000029-resize_1/001808_2014-06-26_20-50-58_260595134347_rgbf000029-resize_1-target.png,250,4.249,1,2349,252,feet,jsons/v1_VE250_randls_61.json,760903,918176,32,Woman
75,500788,DepthScenes,duration_manipulation_targetAtFixation,jsons/v1_VE250_randls_61.json,http://54.235.29.9/FacialAge/BNav_EC2/DepthDuration/v2_depth_duration_MTurk/v2_DepthDuration_HTML.html#381,381,1364,768,1364,768,8-30-2022,10-26-46,76,depth_duration_stimuli/001815_2014-06-26_20-52-55_260595134347_rgbf000020-resize_0/001815_2014-06-26_20-52-55_260595134347_rgbf000020-resize_0-target.png,250,3.3865,1,1909,250,feet,jsons/v1_VE250_randls_61.json,760903,918176,32,Woman
76,500788,DepthScenes,duration_manipulation_targetAtFixation,jsons/v1_VE250_randls_61.json,http://54.235.29.9/FacialAge/BNav_EC2/DepthDuration/v2_depth_duration_MTurk/v2_DepthDuration_HTML.html#381,381,1364,768,1364,768,8-30-2022,10-26-46,77,depth_duration_stimuli/000788_2014-06-08_22-34-36_260595134347_rgbf000131-resize_1/000788_2014-06-08_22-34-36_260595134347_rgbf000131-resize_1-target.png,250,3.359,1,2370,214,feet,jsons/v1_VE250_randls_61.json,760903,918176,32,Woman
77,500788,DepthScenes,duration_manipulation_targetAtFixation,jsons/v1_VE250_randls_61.json,http://54.235.29.9/FacialAge/BNav_EC2/DepthDuration/v2_depth_duration_MTurk/v2_DepthDuration_HTML.html#381,381,1364,768,1364,768,8-30-2022,10-26-46,78,depth_duration_stimuli/001235_2014-06-17_16-37-36_260595134347_rgbf000084-resize_4/001235_2014-06-17_16-37-36_260595134347_rgbf000084-resize_4-target.png,250,3.6605,1,2035,248,feet,jsons/v1_VE250_randls_61.json,760903,918176,32,Woman
78,500788,DepthScenes,duration_manipulation_targetAtFixation,jsons/v1_VE250_randls_61.json,http://54.235.29.9/FacialAge/BNav_EC2/DepthDuration/v2_depth_duration_MTurk/v2_DepthDuration_HTML.html#381,381,1364,768,1364,768,8-30-2022,10-26-46,79,depth_duration_stimuli/000470_2014-06-09_19-42-40_260595134347_rgbf000094-resize_1/000470_2014-06-09_19-42-40_260595134347_rgbf000094-resize_1-target.png,250,1.831,1,2135,251,feet,jsons/v1_VE250_randls_61.json,760903,918176,32,Woman
79,500788,DepthScenes,duration_manipulation_targetAtFixation,jsons/v1_VE250_randls_61.json,http://54.235.29.9/FacialAge/BNav_EC2/DepthDuration/v2_depth_duration_MTurk/v2_DepthDuration_HTML.html#381,381,1364,768,1364,768,8-30-2022,10-26-46,80,depth_duration_stimuli/000109_2014-05-14_23-41-52_260595134347_rgbf000035-resize_9/000109_2014-05-14_23-41-52_260595134347_rgbf000035-resize_9-target.png,250,1.3545,1,1981,249,feet,jsons/v1_VE250_randls_61.json,760903,918176,32,Woman
80,500788,DepthScenes,duration_manipulation_targetAtFixation,jsons/v1_VE250_randls_61.json,http://54.235.29.9/FacialAge/BNav_EC2/DepthDuration/v2_depth_duration_MTurk/v2_DepthDuration_HTML.html#381,381,1364,768,1364,768,8-30-2022,10-26-46,81,depth_duration_stimuli/001150_2014-06-17_15-27-34_260595134347_rgbf000108-resize_2/001150_2014-06-17_15-27-34_260595134347_rgbf000108-resize_2-target.png,250,4.0325,1,2444,243,feet,jsons/v1_VE250_randls_61.json,760903,918176,32,Woman
81,500788,DepthScenes,duration_manipulation_targetAtFixation,jsons/v1_VE250_randls_61.json,http://54.235.29.9/FacialAge/BNav_EC2/DepthDuration/v2_depth_duration_MTurk/v2_DepthDuration_HTML.html#381,381,1364,768,1364,768,8-30-2022,10-26-46,82,depth_duration_stimuli/000665_2014-06-09_20-42-35_260595134347_rgbf000110-resize_1/000665_2014-06-09_20-42-35_260595134347_rgbf000110-resize_1-target.png,250,3.057,1,2094,269,feet,jsons/v1_VE250_randls_61.json,760903,918176,32,Woman
82,500788,DepthScenes,duration_manipulation_targetAtFixation,jsons/v1_VE250_randls_61.json,http://54.235.29.9/FacialAge/BNav_EC2/DepthDuration/v2_depth_duration_MTurk/v2_DepthDuration_HTML.html#381,381,1364,768,1364,768,8-30-2022,10-26-46,83,depth_duration_stimuli/000522_2014-06-08_13-35-06_260595134347_rgbf000244-resize_1/000522_2014-06-08_13-35-06_260595134347_rgbf000244-resize_1-target.png,250,2.3715,1,2120,237,feet,jsons/v1_VE250_randls_61.json,760903,918176,32,Woman
83,500788,DepthScenes,duration_manipulation_targetAtFixation,jsons/v1_VE250_randls_61.json,http://54.235.29.9/FacialAge/BNav_EC2/DepthDuration/v2_depth_duration_MTurk/v2_DepthDuration_HTML.html#381,381,1364,768,1364,768,8-30-2022,10-26-46,84,depth_duration_stimuli/002949_2014-06-26_15-57-42_094959634447_rgbf000079-resize_1/002949_2014-06-26_15-57-42_094959634447_rgbf000079-resize_1-target.png,250,1.8915,1,2173,251,feet,jsons/v1_VE250_randls_61.json,760903,918176,32,Woman
84,500788,DepthScenes,duration_manipulation_targetAtFixation,jsons/v1_VE250_randls_61.json,http://54.235.29.9/FacialAge/BNav_EC2/DepthDuration/v2_depth_duration_MTurk/v2_DepthDuration_HTML.html#381,381,1364,768,1364,768,8-30-2022,10-26-46,85,depth_duration_stimuli/000929_2014-06-09_16-33-19_260595134347_rgbf000139-resize_0/000929_2014-06-09_16-33-19_260595134347_rgbf000139-resize_0-target.png,250,2.8680000000000003,1,2677,260,feet,jsons/v1_VE250_randls_61.json,760903,918176,32,Woman
85,500788,DepthScenes,duration_manipulation_targetAtFixation,jsons/v1_VE250_randls_61.json,http://54.235.29.9/FacialAge/BNav_EC2/DepthDuration/v2_depth_duration_MTurk/v2_DepthDuration_HTML.html#381,381,1364,768,1364,768,8-30-2022,10-26-46,86,depth_duration_stimuli/000457_2014-06-08_16-52-43_260595134347_rgbf000199-resize_1/000457_2014-06-08_16-52-43_260595134347_rgbf000199-resize_1-target.png,250,3.6489999999999996,1,4768,249,feet,jsons/v1_VE250_randls_61.json,760903,918176,32,Woman
86,500788,DepthScenes,duration_manipulation_targetAtFixation,jsons/v1_VE250_randls_61.json,http://54.235.29.9/FacialAge/BNav_EC2/DepthDuration/v2_depth_duration_MTurk/v2_DepthDuration_HTML.html#381,381,1364,768,1364,768,8-30-2022,10-26-46,87,depth_duration_stimuli/001555_2014-06-20_17-12-10_260595134347_rgbf000065-resize_4/001555_2014-06-20_17-12-10_260595134347_rgbf000065-resize_4-target.png,250,1.633,1,10298,251,feet,jsons/v1_VE250_randls_61.json,760903,918176,32,Woman
87,500788,DepthScenes,duration_manipulation_targetAtFixation,jsons/v1_VE250_randls_61.json,http://54.235.29.9/FacialAge/BNav_EC2/DepthDuration/v2_depth_duration_MTurk/v2_DepthDuration_HTML.html#381,381,1364,768,1364,768,8-30-2022,10-26-46,88,depth_duration_stimuli/000103_2014-05-14_22-01-17_260595134347_rgbf000152-resize_5/000103_2014-05-14_22-01-17_260595134347_rgbf000152-resize_5-target.png,250,1.993,1,5990,245,feet,jsons/v1_VE250_randls_61.json,760903,918176,32,Woman
88,500788,DepthScenes,duration_manipulation_targetAtFixation,jsons/v1_VE250_randls_61.json,http://54.235.29.9/FacialAge/BNav_EC2/DepthDuration/v2_depth_duration_MTurk/v2_DepthDuration_HTML.html#381,381,1364,768,1364,768,8-30-2022,10-26-46,89,depth_duration_stimuli/002989_2014-06-15_12-25-03_094959634447_rgbf000150-resize_3/002989_2014-06-15_12-25-03_094959634447_rgbf000150-resize_3-target.png,250,4.1975,1,17714,250,feet,jsons/v1_VE250_randls_61.json,760903,918176,32,Woman
89,500788,DepthScenes,duration_manipulation_targetAtFixation,jsons/v1_VE250_randls_61.json,http://54.235.29.9/FacialAge/BNav_EC2/DepthDuration/v2_depth_duration_MTurk/v2_DepthDuration_HTML.html#381,381,1364,768,1364,768,8-30-2022,10-26-46,90,depth_duration_stimuli/000866_2014-06-09_20-45-42_260595134347_rgbf000139-resize_1/000866_2014-06-09_20-45-42_260595134347_rgbf000139-resize_1-target.png,250,3.2155,1,2498,250,feet,jsons/v1_VE250_randls_61.json,760903,918176,32,Woman
90,500788,DepthScenes,duration_manipulation_targetAtFixation,jsons/v1_VE250_randls_61.json,http://54.235.29.9/FacialAge/BNav_EC2/DepthDuration/v2_depth_duration_MTurk/v2_DepthDuration_HTML.html#381,381,1364,768,1364,768,8-30-2022,10-26-46,91,depth_duration_stimuli/001806_2014-06-26_20-50-20_260595134347_rgbf000091-resize_1/001806_2014-06-26_20-50-20_260595134347_rgbf000091-resize_1-target.png,250,2.7305,1,2607,247,feet,jsons/v1_VE250_randls_61.json,760903,918176,32,Woman
91,500788,DepthScenes,duration_manipulation_targetAtFixation,jsons/v1_VE250_randls_61.json,http://54.235.29.9/FacialAge/BNav_EC2/DepthDuration/v2_depth_duration_MTurk/v2_DepthDuration_HTML.html#381,381,1364,768,1364,768,8-30-2022,10-26-46,92,depth_duration_stimuli/001617_2014-06-20_11-35-32_260595134347_rgbf000066-resize_1/001617_2014-06-20_11-35-32_260595134347_rgbf000066-resize_1-target.png,250,3.7910000000000004,1,2288,252,feet,jsons/v1_VE250_randls_61.json,760903,918176,32,Woman
92,500788,DepthScenes,duration_manipulation_targetAtFixation,jsons/v1_VE250_randls_61.json,http://54.235.29.9/FacialAge/BNav_EC2/DepthDuration/v2_depth_duration_MTurk/v2_DepthDuration_HTML.html#381,381,1364,768,1364,768,8-30-2022,10-26-46,93,depth_duration_stimuli/000736_2014-06-08_18-24-15_260595134347_rgbf000206-resize_3/000736_2014-06-08_18-24-15_260595134347_rgbf000206-resize_3-target.png,250,3.515,1,2240,251,feet,jsons/v1_VE250_randls_61.json,760903,918176,32,Woman
93,500788,DepthScenes,duration_manipulation_targetAtFixation,jsons/v1_VE250_randls_61.json,http://54.235.29.9/FacialAge/BNav_EC2/DepthDuration/v2_depth_duration_MTurk/v2_DepthDuration_HTML.html#381,381,1364,768,1364,768,8-30-2022,10-26-46,94,depth_duration_stimuli/000137_2014-05-20_17-04-49_260595134347_rgbf000120-resize_1/000137_2014-05-20_17-04-49_260595134347_rgbf000120-resize_1-target.png,250,3.786,1,2183,247,feet,jsons/v1_VE250_randls_61.json,760903,918176,32,Woman
94,500788,DepthScenes,duration_manipulation_targetAtFixation,jsons/v1_VE250_randls_61.json,http://54.235.29.9/FacialAge/BNav_EC2/DepthDuration/v2_depth_duration_MTurk/v2_DepthDuration_HTML.html#381,381,1364,768,1364,768,8-30-2022,10-26-46,95,depth_duration_stimuli/002509_2014-06-24_13-19-22_094959634447_rgbf000077-resize_0/002509_2014-06-24_13-19-22_094959634447_rgbf000077-resize_0-target.png,250,1.3065,1,3031,251,feet,jsons/v1_VE250_randls_61.json,760903,918176,32,Woman
95,500788,DepthScenes,duration_manipulation_targetAtFixation,jsons/v1_VE250_randls_61.json,http://54.235.29.9/FacialAge/BNav_EC2/DepthDuration/v2_depth_duration_MTurk/v2_DepthDuration_HTML.html#381,381,1364,768,1364,768,8-30-2022,10-26-46,96,depth_duration_stimuli/003338_2014-05-20_11-01-23_094959634447_rgbf000051-resize_6/003338_2014-05-20_11-01-23_094959634447_rgbf000051-resize_6-target.png,250,1.693,1,3201,187,feet,jsons/v1_VE250_randls_61.json,760903,918176,32,Woman
96,500788,DepthScenes,duration_manipulation_targetAtFixation,jsons/v1_VE250_randls_61.json,http://54.235.29.9/FacialAge/BNav_EC2/DepthDuration/v2_depth_duration_MTurk/v2_DepthDuration_HTML.html#381,381,1364,768,1364,768,8-30-2022,10-26-46,97,depth_duration_stimuli/001417_2014-06-19_16-25-36_260595134347_rgbf000115-resize_5/001417_2014-06-19_16-25-36_260595134347_rgbf000115-resize_5-target.png,250,4.6255,1,2101,251,feet,jsons/v1_VE250_randls_61.json,760903,918176,32,Woman
97,500788,DepthScenes,duration_manipulation_targetAtFixation,jsons/v1_VE250_randls_61.json,http://54.235.29.9/FacialAge/BNav_EC2/DepthDuration/v2_depth_duration_MTurk/v2_DepthDuration_HTML.html#381,381,1364,768,1364,768,8-30-2022,10-26-46,98,depth_duration_stimuli/003081_2014-06-15_15-19-16_094959634447_rgbf000150-resize_1/003081_2014-06-15_15-19-16_094959634447_rgbf000150-resize_1-target.png,250,3.9125,1,2264,246,feet,jsons/v1_VE250_randls_61.json,760903,918176,32,Woman
98,500788,DepthScenes,duration_manipulation_targetAtFixation,jsons/v1_VE250_randls_61.json,http://54.235.29.9/FacialAge/BNav_EC2/DepthDuration/v2_depth_duration_MTurk/v2_DepthDuration_HTML.html#381,381,1364,768,1364,768,8-30-2022,10-26-46,99,depth_duration_stimuli/001540_2014-06-20_17-01-05_260595134347_rgbf000086-resize_2/001540_2014-06-20_17-01-05_260595134347_rgbf000086-resize-original.jpg,250,1.459,1,2680,273,feet,jsons/v1_VE250_randls_61.json,760903,918176,32,Woman
99,500788,DepthScenes,duration_manipulation_targetAtFixation,jsons/v1_VE250_randls_61.json,http://54.235.29.9/FacialAge/BNav_EC2/DepthDuration/v2_depth_duration_MTurk/v2_DepthDuration_HTML.html#381,381,1364,768,1364,768,8-30-2022,10-26-46,100,depth_duration_stimuli/002663_2014-06-13_15-50-26_094959634447_rgbf000075-resize_1/002663_2014-06-13_15-50-26_094959634447_rgbf000075-resize_1-target.png,250,4.7495,1,2116,254,feet,jsons/v1_VE250_randls_61.json,760903,918176,32,Woman
100,500788,DepthScenes,duration_manipulation_targetAtFixation,jsons/v1_VE250_randls_61.json,http://54.235.29.9/FacialAge/BNav_EC2/DepthDuration/v2_depth_duration_MTurk/v2_DepthDuration_HTML.html#381,381,1364,768,1364,768,8-30-2022,10-26-46,101,depth_duration_stimuli/000409_2014-06-04_19-23-33_260595134347_rgbf000067-resize_0/000409_2014-06-04_19-23-33_260595134347_rgbf000067-resize_0-target.png,250,3.7335,1,2130,251,feet,jsons/v1_VE250_randls_61.json,760903,918176,32,Woman
101,500788,DepthScenes,duration_manipulation_targetAtFixation,jsons/v1_VE250_randls_61.json,http://54.235.29.9/FacialAge/BNav_EC2/DepthDuration/v2_depth_duration_MTurk/v2_DepthDuration_HTML.html#381,381,1364,768,1364,768,8-30-2022,10-26-46,102,depth_duration_stimuli/002043_2014-06-24_20-29-38_260595134347_rgbf000039-resize_4/002043_2014-06-24_20-29-38_260595134347_rgbf000039-resize_4-target.png,250,2.8435,1,2306,279,feet,jsons/v1_VE250_randls_61.json,760903,918176,32,Woman
102,500788,DepthScenes,duration_manipulation_targetAtFixation,jsons/v1_VE250_randls_61.json,http://54.235.29.9/FacialAge/BNav_EC2/DepthDuration/v2_depth_duration_MTurk/v2_DepthDuration_HTML.html#381,381,1364,768,1364,768,8-30-2022,10-26-46,103,depth_duration_stimuli/003048_2014-06-15_13-49-43_094959634447_rgbf000150-resize_1/003048_2014-06-15_13-49-43_094959634447_rgbf000150-resize_1-target.png,250,4.0035,1,2062,252,feet,jsons/v1_VE250_randls_61.json,760903,918176,32,Woman
103,500788,DepthScenes,duration_manipulation_targetAtFixation,jsons/v1_VE250_randls_61.json,http://54.235.29.9/FacialAge/BNav_EC2/DepthDuration/v2_depth_duration_MTurk/v2_DepthDuration_HTML.html#381,381,1364,768,1364,768,8-30-2022,10-26-46,104,depth_duration_stimuli/000414_2014-06-04_19-49-13_260595134347_rgbf000044-resize_0/000414_2014-06-04_19-49-13_260595134347_rgbf000044-resize_0-target.png,250,4.329,1,2259,259,feet,jsons/v1_VE250_randls_61.json,760903,918176,32,Woman
104,500788,DepthScenes,duration_manipulation_targetAtFixation,jsons/v1_VE250_randls_61.json,http://54.235.29.9/FacialAge/BNav_EC2/DepthDuration/v2_depth_duration_MTurk/v2_DepthDuration_HTML.html#381,381,1364,768,1364,768,8-30-2022,10-26-46,105,depth_duration_stimuli/003129_2014-05-12_10-48-10_094959634447_rgbf000100-resize_0/003129_2014-05-12_10-48-10_094959634447_rgbf000100-resize_0-target.png,250,4.9305,1,2010,245,feet,jsons/v1_VE250_randls_61.json,760903,918176,32,Woman
105,500788,DepthScenes,duration_manipulation_targetAtFixation,jsons/v1_VE250_randls_61.json,http://54.235.29.9/FacialAge/BNav_EC2/DepthDuration/v2_depth_duration_MTurk/v2_DepthDuration_HTML.html#381,381,1364,768,1364,768,8-30-2022,10-26-46,106,depth_duration_stimuli/002748_2014-06-22_19-07-22_094959634447_rgbf000078-resize_1/002748_2014-06-22_19-07-22_094959634447_rgbf000078-resize_1-target.png,250,4.6705,1,2428,239,feet,jsons/v1_VE250_randls_61.json,760903,918176,32,Woman
106,500788,DepthScenes,duration_manipulation_targetAtFixation,jsons/v1_VE250_randls_61.json,http://54.235.29.9/FacialAge/BNav_EC2/DepthDuration/v2_depth_duration_MTurk/v2_DepthDuration_HTML.html#381,381,1364,768,1364,768,8-30-2022,10-26-46,107,depth_duration_stimuli/002995_2014-06-15_12-31-26_094959634447_rgbf000150-resize_1/002995_2014-06-15_12-31-26_094959634447_rgbf000150-resize_1-target.png,250,3.8360000000000003,1,1970,253,feet,jsons/v1_VE250_randls_61.json,760903,918176,32,Woman
107,500788,DepthScenes,duration_manipulation_targetAtFixation,jsons/v1_VE250_randls_61.json,http://54.235.29.9/FacialAge/BNav_EC2/DepthDuration/v2_depth_duration_MTurk/v2_DepthDuration_HTML.html#381,381,1364,768,1364,768,8-30-2022,10-26-46,108,depth_duration_stimuli/000917_2014-06-09_22-45-29_260595134347_rgbf000149-resize_3/000917_2014-06-09_22-45-29_260595134347_rgbf000149-resize_3-target.png,250,4.1865,1,2135,251,feet,jsons/v1_VE250_randls_61.json,760903,918176,32,Woman
108,500788,DepthScenes,duration_manipulation_targetAtFixation,jsons/v1_VE250_randls_61.json,http://54.235.29.9/FacialAge/BNav_EC2/DepthDuration/v2_depth_duration_MTurk/v2_DepthDuration_HTML.html#381,381,1364,768,1364,768,8-30-2022,10-26-46,109,depth_duration_stimuli/002323_2014-06-28_20-01-54_260595134347_rgbf000051-resize_4/002323_2014-06-28_20-01-54_260595134347_rgbf000051-resize_4-target.png,250,3.7310000000000003,1,2340,252,feet,jsons/v1_VE250_randls_61.json,760903,918176,32,Woman
109,500788,DepthScenes,duration_manipulation_targetAtFixation,jsons/v1_VE250_randls_61.json,http://54.235.29.9/FacialAge/BNav_EC2/DepthDuration/v2_depth_duration_MTurk/v2_DepthDuration_HTML.html#381,381,1364,768,1364,768,8-30-2022,10-26-46,110,depth_duration_stimuli/000368_2014-06-09_15-53-01_260595134347_rgbf000155-resize_2/000368_2014-06-09_15-53-01_260595134347_rgbf000155-resize_2-target.png,250,2.4859999999999998,1,1996,250,feet,jsons/v1_VE250_randls_61.json,760903,918176,32,Woman
110,500788,DepthScenes,duration_manipulation_targetAtFixation,jsons/v1_VE250_randls_61.json,http://54.235.29.9/FacialAge/BNav_EC2/DepthDuration/v2_depth_duration_MTurk/v2_DepthDuration_HTML.html#381,381,1364,768,1364,768,8-30-2022,10-26-46,111,depth_duration_stimuli/002678_2014-06-13_16-15-32_094959634447_rgbf000151-resize_6/002678_2014-06-13_16-15-32_094959634447_rgbf000151-resize_6-target.png,250,2.1830000000000003,1,2200,302,feet,jsons/v1_VE250_randls_61.json,760903,918176,32,Woman
111,500788,DepthScenes,duration_manipulation_targetAtFixation,jsons/v1_VE250_randls_61.json,http://54.235.29.9/FacialAge/BNav_EC2/DepthDuration/v2_depth_duration_MTurk/v2_DepthDuration_HTML.html#381,381,1364,768,1364,768,8-30-2022,10-26-46,112,depth_duration_stimuli/003621_2014-05-23_18-06-08_094959634447_rgbf000101-resize_1/003621_2014-05-23_18-06-08_094959634447_rgbf000101-resize_1-target.png,250,3.9835,1,2051,250,feet,jsons/v1_VE250_randls_61.json,760903,918176,32,Woman
112,500788,DepthScenes,duration_manipulation_targetAtFixation,jsons/v1_VE250_randls_61.json,http://54.235.29.9/FacialAge/BNav_EC2/DepthDuration/v2_depth_duration_MTurk/v2_DepthDuration_HTML.html#381,381,1364,768,1364,768,8-30-2022,10-26-46,113,depth_duration_stimuli/001584_2014-06-20_11-07-43_260595134347_rgbf000002-resize_1/001584_2014-06-20_11-07-43_260595134347_rgbf000002-resize_1-target.png,250,3.53,1,1942,249,feet,jsons/v1_VE250_randls_61.json,760903,918176,32,Woman
113,500788,DepthScenes,duration_manipulation_targetAtFixation,jsons/v1_VE250_randls_61.json,http://54.235.29.9/FacialAge/BNav_EC2/DepthDuration/v2_depth_duration_MTurk/v2_DepthDuration_HTML.html#381,381,1364,768,1364,768,8-30-2022,10-26-46,114,depth_duration_stimuli/000878_2014-06-08_22-52-45_260595134347_rgbf000045-resize_2/000878_2014-06-08_22-52-45_260595134347_rgbf000045-resize_2-target.png,250,2.092,1,2054,248,feet,jsons/v1_VE250_randls_61.json,760903,918176,32,Woman
114,500788,DepthScenes,duration_manipulation_targetAtFixation,jsons/v1_VE250_randls_61.json,http://54.235.29.9/FacialAge/BNav_EC2/DepthDuration/v2_depth_duration_MTurk/v2_DepthDuration_HTML.html#381,381,1364,768,1364,768,8-30-2022,10-26-46,115,depth_duration_stimuli/002953_2014-06-08_17-32-18_094959634447_rgbf000059-resize_5/002953_2014-06-08_17-32-18_094959634447_rgbf000059-resize_5-target.png,250,1.551,1,2176,250,feet,jsons/v1_VE250_randls_61.json,760903,918176,32,Woman
115,500788,DepthScenes,duration_manipulation_targetAtFixation,jsons/v1_VE250_randls_61.json,http://54.235.29.9/FacialAge/BNav_EC2/DepthDuration/v2_depth_duration_MTurk/v2_DepthDuration_HTML.html#381,381,1364,768,1364,768,8-30-2022,10-26-46,116,depth_duration_stimuli/001170_2014-06-17_15-43-44_260595134347_rgbf000096-resize_6/001170_2014-06-17_15-43-44_260595134347_rgbf000096-resize-original.jpg,250,1.1909999999999998,1,2207,251,feet,jsons/v1_VE250_randls_61.json,760903,918176,32,Woman
116,500788,DepthScenes,duration_manipulation_targetAtFixation,jsons/v1_VE250_randls_61.json,http://54.235.29.9/FacialAge/BNav_EC2/DepthDuration/v2_depth_duration_MTurk/v2_DepthDuration_HTML.html#381,381,1364,768,1364,768,8-30-2022,10-26-46,117,depth_duration_stimuli/001164_2014-06-17_15-35-46_260595134347_rgbf000085-resize_3/001164_2014-06-17_15-35-46_260595134347_rgbf000085-resize_3-target.png,250,2.354,1,2098,269,feet,jsons/v1_VE250_randls_61.json,760903,918176,32,Woman
117,500788,DepthScenes,duration_manipulation_targetAtFixation,jsons/v1_VE250_randls_61.json,http://54.235.29.9/FacialAge/BNav_EC2/DepthDuration/v2_depth_duration_MTurk/v2_DepthDuration_HTML.html#381,381,1364,768,1364,768,8-30-2022,10-26-46,118,depth_duration_stimuli/001136_2014-06-17_15-19-41_260595134347_rgbf000076-resize_3/001136_2014-06-17_15-19-41_260595134347_rgbf000076-resize_3-target.png,250,1.8655,1,2077,261,feet,jsons/v1_VE250_randls_61.json,760903,918176,32,Woman
118,500788,DepthScenes,duration_manipulation_targetAtFixation,jsons/v1_VE250_randls_61.json,http://54.235.29.9/FacialAge/BNav_EC2/DepthDuration/v2_depth_duration_MTurk/v2_DepthDuration_HTML.html#381,381,1364,768,1364,768,8-30-2022,10-26-46,119,depth_duration_stimuli/000009_2014-05-26_14-32-05_260595134347_rgbf000034-resize_3/000009_2014-05-26_14-32-05_260595134347_rgbf000034-resize_3-target.png,250,3.8715,1,2086,253,feet,jsons/v1_VE250_randls_61.json,760903,918176,32,Woman
119,500788,DepthScenes,duration_manipulation_targetAtFixation,jsons/v1_VE250_randls_61.json,http://54.235.29.9/FacialAge/BNav_EC2/DepthDuration/v2_depth_duration_MTurk/v2_DepthDuration_HTML.html#381,381,1364,768,1364,768,8-30-2022,10-26-46,120,depth_duration_stimuli/001828_2014-06-26_21-40-03_260595134347_rgbf000024-resize_0/001828_2014-06-26_21-40-03_260595134347_rgbf000024-resize_0-target.png,250,4.8260000000000005,11,2379,250,feet,jsons/v1_VE250_randls_61.json,760903,918176,32,Woman
120,500788,DepthScenes,duration_manipulation_targetAtFixation,jsons/v1_VE250_randls_61.json,http://54.235.29.9/FacialAge/BNav_EC2/DepthDuration/v2_depth_duration_MTurk/v2_DepthDuration_HTML.html#381,381,1364,768,1364,768,8-30-2022,10-26-46,121,depth_duration_stimuli/001133_2014-06-17_14-49-16_260595134347_rgbf000100-resize_0/001133_2014-06-17_14-49-16_260595134347_rgbf000100-resize_0-target.png,250,4.2115,1,1992,250,feet,jsons/v1_VE250_randls_61.json,760903,918176,32,Woman
121,500788,DepthScenes,duration_manipulation_targetAtFixation,jsons/v1_VE250_randls_61.json,http://54.235.29.9/FacialAge/BNav_EC2/DepthDuration/v2_depth_duration_MTurk/v2_DepthDuration_HTML.html#381,381,1364,768,1364,768,8-30-2022,10-26-46,122,depth_duration_stimuli/001132_2014-06-17_14-48-54_260595134347_rgbf000100-resize_2/001132_2014-06-17_14-48-54_260595134347_rgbf000100-resize_2-target.png,250,3.753,1,2391,251,feet,jsons/v1_VE250_randls_61.json,760903,918176,32,Woman
122,500788,DepthScenes,duration_manipulation_targetAtFixation,jsons/v1_VE250_randls_61.json,http://54.235.29.9/FacialAge/BNav_EC2/DepthDuration/v2_depth_duration_MTurk/v2_DepthDuration_HTML.html#381,381,1364,768,1364,768,8-30-2022,10-26-46,123,depth_duration_stimuli/003292_2014-05-14_21-53-49_094959634447_rgbf000100-resize_2/003292_2014-05-14_21-53-49_094959634447_rgbf000100-resize_2-target.png,250,3.4815,2,3227,230,feet,jsons/v1_VE250_randls_61.json,760903,918176,32,Woman
123,500788,DepthScenes,duration_manipulation_targetAtFixation,jsons/v1_VE250_randls_61.json,http://54.235.29.9/FacialAge/BNav_EC2/DepthDuration/v2_depth_duration_MTurk/v2_DepthDuration_HTML.html#381,381,1364,768,1364,768,8-30-2022,10-26-46,124,depth_duration_stimuli/002639_2014-06-24_14-51-37_094959634447_rgbf000074-resize_4/002639_2014-06-24_14-51-37_094959634447_rgbf000074-resize_4-target.png,250,4.0375,2,4040,247,feet,jsons/v1_VE250_randls_61.json,760903,918176,32,Woman
124,500788,DepthScenes,duration_manipulation_targetAtFixation,jsons/v1_VE250_randls_61.json,http://54.235.29.9/FacialAge/BNav_EC2/DepthDuration/v2_depth_duration_MTurk/v2_DepthDuration_HTML.html#381,381,1364,768,1364,768,8-30-2022,10-26-46,125,depth_duration_stimuli/001167_2014-06-17_15-38-07_260595134347_rgbf000108-resize_0/001167_2014-06-17_15-38-07_260595134347_rgbf000108-resize_0-target.png,250,1.8505,2,3157,250,feet,jsons/v1_VE250_randls_61.json,760903,918176,32,Woman
125,500788,DepthScenes,duration_manipulation_targetAtFixation,jsons/v1_VE250_randls_61.json,http://54.235.29.9/FacialAge/BNav_EC2/DepthDuration/v2_depth_duration_MTurk/v2_DepthDuration_HTML.html#381,381,1364,768,1364,768,8-30-2022,10-26-46,126,depth_duration_stimuli/003587_2014-05-23_16-48-02_094959634447_rgbf002384-resize_2/003587_2014-05-23_16-48-02_094959634447_rgbf002384-resize_2-target.png,250,1.357,1,2485,251,feet,jsons/v1_VE250_randls_61.json,760903,918176,32,Woman
126,500788,DepthScenes,duration_manipulation_targetAtFixation,jsons/v1_VE250_randls_61.json,http://54.235.29.9/FacialAge/BNav_EC2/DepthDuration/v2_depth_duration_MTurk/v2_DepthDuration_HTML.html#381,381,1364,768,1364,768,8-30-2022,10-26-46,127,depth_duration_stimuli/001158_2014-06-17_15-32-16_260595134347_rgbf000138-resize_2/001158_2014-06-17_15-32-16_260595134347_rgbf000138-resize_2-target.png,250,4.5315,1,3762,248,feet,jsons/v1_VE250_randls_61.json,760903,918176,32,Woman
127,500788,DepthScenes,duration_manipulation_targetAtFixation,jsons/v1_VE250_randls_61.json,http://54.235.29.9/FacialAge/BNav_EC2/DepthDuration/v2_depth_duration_MTurk/v2_DepthDuration_HTML.html#381,381,1364,768,1364,768,8-30-2022,10-26-46,128,depth_duration_stimuli/000556_2014-06-09_22-42-56_260595134347_rgbf000214-resize_1/000556_2014-06-09_22-42-56_260595134347_rgbf000214-resize_1-target.png,250,4.8415,1,2506,245,feet,jsons/v1_VE250_randls_61.json,760903,918176,32,Woman
128,500788,DepthScenes,duration_manipulation_targetAtFixation,jsons/v1_VE250_randls_61.json,http://54.235.29.9/FacialAge/BNav_EC2/DepthDuration/v2_depth_duration_MTurk/v2_DepthDuration_HTML.html#381,381,1364,768,1364,768,8-30-2022,10-26-46,129,depth_duration_stimuli/000469_2014-06-09_19-42-10_260595134347_rgbf000081-resize_1/000469_2014-06-09_19-42-10_260595134347_rgbf000081-resize_1-target.png,250,1.652,1,2377,237,feet,jsons/v1_VE250_randls_61.json,760903,918176,32,Woman
129,500788,DepthScenes,duration_manipulation_targetAtFixation,jsons/v1_VE250_randls_61.json,http://54.235.29.9/FacialAge/BNav_EC2/DepthDuration/v2_depth_duration_MTurk/v2_DepthDuration_HTML.html#381,381,1364,768,1364,768,8-30-2022,10-26-46,130,depth_duration_stimuli/000483_2014-06-09_20-41-45_260595134347_rgbf000116-resize_4/000483_2014-06-09_20-41-45_260595134347_rgbf000116-resize_4-target.png,250,1.337,1,2076,250,feet,jsons/v1_VE250_randls_61.json,760903,918176,32,Woman
130,500788,DepthScenes,duration_manipulation_targetAtFixation,jsons/v1_VE250_randls_61.json,http://54.235.29.9/FacialAge/BNav_EC2/DepthDuration/v2_depth_duration_MTurk/v2_DepthDuration_HTML.html#381,381,1364,768,1364,768,8-30-2022,10-26-46,131,depth_duration_stimuli/002272_2014-06-28_18-53-56_260595134347_rgbf000067-resize_2/002272_2014-06-28_18-53-56_260595134347_rgbf000067-resize_2-target.png,250,1.138,1,2216,253,feet,jsons/v1_VE250_randls_61.json,760903,918176,32,Woman
131,500788,DepthScenes,duration_manipulation_targetAtFixation,jsons/v1_VE250_randls_61.json,http://54.235.29.9/FacialAge/BNav_EC2/DepthDuration/v2_depth_duration_MTurk/v2_DepthDuration_HTML.html#381,381,1364,768,1364,768,8-30-2022,10-26-46,132,depth_duration_stimuli/001571_2014-06-20_17-21-32_260595134347_rgbf000089-resize_1/001571_2014-06-20_17-21-32_260595134347_rgbf000089-resize_1-target.png,250,1.86,1,2518,250,feet,jsons/v1_VE250_randls_61.json,760903,918176,32,Woman
132,500788,DepthScenes,duration_manipulation_targetAtFixation,jsons/v1_VE250_randls_61.json,http://54.235.29.9/FacialAge/BNav_EC2/DepthDuration/v2_depth_duration_MTurk/v2_DepthDuration_HTML.html#381,381,1364,768,1364,768,8-30-2022,10-26-46,133,depth_duration_stimuli/000906_2014-06-08_13-35-43_260595134347_rgbf000155-resize_1/000906_2014-06-08_13-35-43_260595134347_rgbf000155-resize_1-target.png,250,2.8489999999999998,1,2171,226,feet,jsons/v1_VE250_randls_61.json,760903,918176,32,Woman
133,500788,DepthScenes,duration_manipulation_targetAtFixation,jsons/v1_VE250_randls_61.json,http://54.235.29.9/FacialAge/BNav_EC2/DepthDuration/v2_depth_duration_MTurk/v2_DepthDuration_HTML.html#381,381,1364,768,1364,768,8-30-2022,10-26-46,134,depth_duration_stimuli/002805_2014-06-22_19-54-03_094959634447_rgbf000079-resize_1/002805_2014-06-22_19-54-03_094959634447_rgbf000079-resize_1-target.png,250,3.1439999999999997,1,3421,251,feet,jsons/v1_VE250_randls_61.json,760903,918176,32,Woman
134,500788,DepthScenes,duration_manipulation_targetAtFixation,jsons/v1_VE250_randls_61.json,http://54.235.29.9/FacialAge/BNav_EC2/DepthDuration/v2_depth_duration_MTurk/v2_DepthDuration_HTML.html#381,381,1364,768,1364,768,8-30-2022,10-26-46,135,depth_duration_stimuli/002072_2014-06-24_21-48-06_260595134347_rgbf000115-resize_0/002072_2014-06-24_21-48-06_260595134347_rgbf000115-resize-original.jpg,250,4.702,1,2475,250,feet,jsons/v1_VE250_randls_61.json,760903,918176,32,Woman
135,500788,DepthScenes,duration_manipulation_targetAtFixation,jsons/v1_VE250_randls_61.json,http://54.235.29.9/FacialAge/BNav_EC2/DepthDuration/v2_depth_duration_MTurk/v2_DepthDuration_HTML.html#381,381,1364,768,1364,768,8-30-2022,10-26-46,136,depth_duration_stimuli/001016_2014-06-09_16-16-10_260595134347_rgbf000112-resize_5/001016_2014-06-09_16-16-10_260595134347_rgbf000112-resize_5-target.png,250,1.6565,1,2827,245,feet,jsons/v1_VE250_randls_61.json,760903,918176,32,Woman
136,500788,DepthScenes,duration_manipulation_targetAtFixation,jsons/v1_VE250_randls_61.json,http://54.235.29.9/FacialAge/BNav_EC2/DepthDuration/v2_depth_duration_MTurk/v2_DepthDuration_HTML.html#381,381,1364,768,1364,768,8-30-2022,10-26-46,137,depth_duration_stimuli/002340_2014-06-28_20-05-46_260595134347_rgbf000113-resize_0/002340_2014-06-28_20-05-46_260595134347_rgbf000113-resize_0-target.png,250,2.4735,1,2168,251,feet,jsons/v1_VE250_randls_61.json,760903,918176,32,Woman
137,500788,DepthScenes,duration_manipulation_targetAtFixation,jsons/v1_VE250_randls_61.json,http://54.235.29.9/FacialAge/BNav_EC2/DepthDuration/v2_depth_duration_MTurk/v2_DepthDuration_HTML.html#381,381,1364,768,1364,768,8-30-2022,10-26-46,138,depth_duration_stimuli/000810_2014-06-08_17-20-01_260595134347_rgbf000105-resize_0/000810_2014-06-08_17-20-01_260595134347_rgbf000105-resize_0-target.png,250,1.4865,1,3914,248,feet,jsons/v1_VE250_randls_61.json,760903,918176,32,Woman
138,500788,DepthScenes,duration_manipulation_targetAtFixation,jsons/v1_VE250_randls_61.json,http://54.235.29.9/FacialAge/BNav_EC2/DepthDuration/v2_depth_duration_MTurk/v2_DepthDuration_HTML.html#381,381,1364,768,1364,768,8-30-2022,10-26-46,139,depth_duration_stimuli/001214_2014-06-17_16-13-55_260595134347_rgbf000111-resize_0/001214_2014-06-17_16-13-55_260595134347_rgbf000111-resize_0-target.png,250,2.6505,1,2563,233,feet,jsons/v1_VE250_randls_61.json,760903,918176,32,Woman
139,500788,DepthScenes,duration_manipulation_targetAtFixation,jsons/v1_VE250_randls_61.json,http://54.235.29.9/FacialAge/BNav_EC2/DepthDuration/v2_depth_duration_MTurk/v2_DepthDuration_HTML.html#381,381,1364,768,1364,768,8-30-2022,10-26-46,140,depth_duration_stimuli/001810_2014-06-26_20-51-35_260595134347_rgbf000040-resize_3/001810_2014-06-26_20-51-35_260595134347_rgbf000040-resize_3-target.png,250,2.2525,1,2193,234,feet,jsons/v1_VE250_randls_61.json,760903,918176,32,Woman
140,500788,DepthScenes,duration_manipulation_targetAtFixation,jsons/v1_VE250_randls_61.json,http://54.235.29.9/FacialAge/BNav_EC2/DepthDuration/v2_depth_duration_MTurk/v2_DepthDuration_HTML.html#381,381,1364,768,1364,768,8-30-2022,10-26-46,141,depth_duration_stimuli/003010_2014-06-15_12-54-35_094959634447_rgbf000112-resize_0/003010_2014-06-15_12-54-35_094959634447_rgbf000112-resize_0-target.png,250,3.1185,1,2041,242,feet,jsons/v1_VE250_randls_61.json,760903,918176,32,Woman
141,500788,DepthScenes,duration_manipulation_targetAtFixation,jsons/v1_VE250_randls_61.json,http://54.235.29.9/FacialAge/BNav_EC2/DepthDuration/v2_depth_duration_MTurk/v2_DepthDuration_HTML.html#381,381,1364,768,1364,768,8-30-2022,10-26-46,142,depth_duration_stimuli/001059_2014-06-08_21-53-27_260595134347_rgbf000061-resize_4/001059_2014-06-08_21-53-27_260595134347_rgbf000061-resize_4-target.png,250,2.4185,1,2982,294,feet,jsons/v1_VE250_randls_61.json,760903,918176,32,Woman
142,500788,DepthScenes,duration_manipulation_targetAtFixation,jsons/v1_VE250_randls_61.json,http://54.235.29.9/FacialAge/BNav_EC2/DepthDuration/v2_depth_duration_MTurk/v2_DepthDuration_HTML.html#381,381,1364,768,1364,768,8-30-2022,10-26-46,143,depth_duration_stimuli/001032_2014-06-08_13-23-17_260595134347_rgbf000021-resize_3/001032_2014-06-08_13-23-17_260595134347_rgbf000021-resize_3-target.png,250,3.2725,1,9346,182,feet,jsons/v1_VE250_randls_61.json,760903,918176,32,Woman
143,500788,DepthScenes,duration_manipulation_targetAtFixation,jsons/v1_VE250_randls_61.json,http://54.235.29.9/FacialAge/BNav_EC2/DepthDuration/v2_depth_duration_MTurk/v2_DepthDuration_HTML.html#381,381,1364,768,1364,768,8-30-2022,10-26-46,144,depth_duration_stimuli/003070_2014-06-15_14-58-27_094959634447_rgbf000150-resize_3/003070_2014-06-15_14-58-27_094959634447_rgbf000150-resize_3-target.png,250,2.9415,1,10758,241,feet,jsons/v1_VE250_randls_61.json,760903,918176,32,Woman
144,500788,DepthScenes,duration_manipulation_targetAtFixation,jsons/v1_VE250_randls_61.json,http://54.235.29.9/FacialAge/BNav_EC2/DepthDuration/v2_depth_duration_MTurk/v2_DepthDuration_HTML.html#381,381,1364,768,1364,768,8-30-2022,10-26-46,145,depth_duration_stimuli/000943_2014-06-09_19-31-07_260595134347_rgbf000128-resize_1/000943_2014-06-09_19-31-07_260595134347_rgbf000128-resize_1-target.png,250,1.9765,1,8699,249,feet,jsons/v1_VE250_randls_61.json,760903,918176,32,Woman
145,500788,DepthScenes,duration_manipulation_targetAtFixation,jsons/v1_VE250_randls_61.json,http://54.235.29.9/FacialAge/BNav_EC2/DepthDuration/v2_depth_duration_MTurk/v2_DepthDuration_HTML.html#381,381,1364,768,1364,768,8-30-2022,10-26-46,146,depth_duration_stimuli/001498_2014-06-19_17-45-14_260595134347_rgbf000129-resize_4/001498_2014-06-19_17-45-14_260595134347_rgbf000129-resize-original.jpg,250,1.4075,1,5254,331,feet,jsons/v1_VE250_randls_61.json,760903,918176,32,Woman
146,500788,DepthScenes,duration_manipulation_targetAtFixation,jsons/v1_VE250_randls_61.json,http://54.235.29.9/FacialAge/BNav_EC2/DepthDuration/v2_depth_duration_MTurk/v2_DepthDuration_HTML.html#381,381,1364,768,1364,768,8-30-2022,10-26-46,147,depth_duration_stimuli/002964_2014-06-08_17-46-11_094959634447_rgbf000091-resize_4/002964_2014-06-08_17-46-11_094959634447_rgbf000091-resize_4-target.png,250,1.6909999999999998,11,10357,74,feet,jsons/v1_VE250_randls_61.json,760903,918176,32,Woman
147,500788,DepthScenes,duration_manipulation_targetAtFixation,jsons/v1_VE250_randls_61.json,http://54.235.29.9/FacialAge/BNav_EC2/DepthDuration/v2_depth_duration_MTurk/v2_DepthDuration_HTML.html#381,381,1364,768,1364,768,8-30-2022,10-26-46,148,depth_duration_stimuli/002136_2014-06-25_21-18-03_260595134347_rgbf000109-resize_3/002136_2014-06-25_21-18-03_260595134347_rgbf000109-resize_3-target.png,250,1.9569999999999999,1,7583,247,feet,jsons/v1_VE250_randls_61.json,760903,918176,32,Woman
148,500788,DepthScenes,duration_manipulation_targetAtFixation,jsons/v1_VE250_randls_61.json,http://54.235.29.9/FacialAge/BNav_EC2/DepthDuration/v2_depth_duration_MTurk/v2_DepthDuration_HTML.html#381,381,1364,768,1364,768,8-30-2022,10-26-46,149,depth_duration_stimuli/002039_2014-06-24_20-22-38_260595134347_rgbf000084-resize_1/002039_2014-06-24_20-22-38_260595134347_rgbf000084-resize_1-target.png,250,4.408,1,2461,255,feet,jsons/v1_VE250_randls_61.json,760903,918176,32,Woman
149,500788,DepthScenes,duration_manipulation_targetAtFixation,jsons/v1_VE250_randls_61.json,http://54.235.29.9/FacialAge/BNav_EC2/DepthDuration/v2_depth_duration_MTurk/v2_DepthDuration_HTML.html#381,381,1364,768,1364,768,8-30-2022,10-26-46,150,depth_duration_stimuli/002103_2014-06-25_20-00-40_260595134347_rgbf000049-resize_0/002103_2014-06-25_20-00-40_260595134347_rgbf000049-resize_0-target.png,250,4.105,1,4532,251,feet,jsons/v1_VE250_randls_61.json,760903,918176,32,Woman
150,500788,DepthScenes,duration_manipulation_targetAtFixation,jsons/v1_VE250_randls_61.json,http://54.235.29.9/FacialAge/BNav_EC2/DepthDuration/v2_depth_duration_MTurk/v2_DepthDuration_HTML.html#381,381,1364,768,1364,768,8-30-2022,10-26-46,151,depth_duration_stimuli/001029_2014-06-08_13-17-57_260595134347_rgbf000065-resize_1/001029_2014-06-08_13-17-57_260595134347_rgbf000065-resize_1-target.png,250,3.0835,1,2561,246,feet,jsons/v1_VE250_randls_61.json,760903,918176,32,Woman
151,500788,DepthScenes,duration_manipulation_targetAtFixation,jsons/v1_VE250_randls_61.json,http://54.235.29.9/FacialAge/BNav_EC2/DepthDuration/v2_depth_duration_MTurk/v2_DepthDuration_HTML.html#381,381,1364,768,1364,768,8-30-2022,10-26-46,152,depth_duration_stimuli/000677_2014-06-08_23-10-32_260595134347_rgbf000158-resize_6/000677_2014-06-08_23-10-32_260595134347_rgbf000158-resize_6-target.png,250,3.556,1,2599,227,feet,jsons/v1_VE250_randls_61.json,760903,918176,32,Woman
152,500788,DepthScenes,duration_manipulation_targetAtFixation,jsons/v1_VE250_randls_61.json,http://54.235.29.9/FacialAge/BNav_EC2/DepthDuration/v2_depth_duration_MTurk/v2_DepthDuration_HTML.html#381,381,1364,768,1364,768,8-30-2022,10-26-46,153,depth_duration_stimuli/001199_2014-06-17_16-03-48_260595134347_rgbf000077-resize_0/001199_2014-06-17_16-03-48_260595134347_rgbf000077-resize_0-target.png,250,3.4375,1,2635,234,feet,jsons/v1_VE250_randls_61.json,760903,918176,32,Woman
153,500788,DepthScenes,duration_manipulation_targetAtFixation,jsons/v1_VE250_randls_61.json,http://54.235.29.9/FacialAge/BNav_EC2/DepthDuration/v2_depth_duration_MTurk/v2_DepthDuration_HTML.html#381,381,1364,768,1364,768,8-30-2022,10-26-46,154,depth_duration_stimuli/000502_2014-06-08_23-02-32_260595134347_rgbf000063-resize_4/000502_2014-06-08_23-02-32_260595134347_rgbf000063-resize_4-target.png,250,2.431,1,6205,246,feet,jsons/v1_VE250_randls_61.json,760903,918176,32,Woman
154,500788,DepthScenes,duration_manipulation_targetAtFixation,jsons/v1_VE250_randls_61.json,http://54.235.29.9/FacialAge/BNav_EC2/DepthDuration/v2_depth_duration_MTurk/v2_DepthDuration_HTML.html#381,381,1364,768,1364,768,8-30-2022,10-26-46,155,depth_duration_stimuli/001092_2014-06-15_17-34-58_260595134347_rgbf000171-resize_3/001092_2014-06-15_17-34-58_260595134347_rgbf000171-resize_3-target.png,250,2.6935,1,2280,244,feet,jsons/v1_VE250_randls_61.json,760903,918176,32,Woman
155,500788,DepthScenes,duration_manipulation_targetAtFixation,jsons/v1_VE250_randls_61.json,http://54.235.29.9/FacialAge/BNav_EC2/DepthDuration/v2_depth_duration_MTurk/v2_DepthDuration_HTML.html#381,381,1364,768,1364,768,8-30-2022,10-26-46,156,depth_duration_stimuli/002545_2014-06-24_13-38-53_094959634447_rgbf000080-resize_4/002545_2014-06-24_13-38-53_094959634447_rgbf000080-resize_4-target.png,250,1.9205,1,2116,252,feet,jsons/v1_VE250_randls_61.json,760903,918176,32,Woman
156,500788,DepthScenes,duration_manipulation_targetAtFixation,jsons/v1_VE250_randls_61.json,http://54.235.29.9/FacialAge/BNav_EC2/DepthDuration/v2_depth_duration_MTurk/v2_DepthDuration_HTML.html#381,381,1364,768,1364,768,8-30-2022,10-26-46,157,depth_duration_stimuli/002279_2014-06-28_18-55-32_260595134347_rgbf000040-resize_5/002279_2014-06-28_18-55-32_260595134347_rgbf000040-resize_5-target.png,250,1.5043333333333,1,3534,244,feet,jsons/v1_VE250_randls_61.json,760903,918176,32,Woman
157,500788,DepthScenes,duration_manipulation_targetAtFixation,jsons/v1_VE250_randls_61.json,http://54.235.29.9/FacialAge/BNav_EC2/DepthDuration/v2_depth_duration_MTurk/v2_DepthDuration_HTML.html#381,381,1364,768,1364,768,8-30-2022,10-26-46,158,depth_duration_stimuli/000635_2014-06-08_16-38-42_260595134347_rgbf000106-resize_1/000635_2014-06-08_16-38-42_260595134347_rgbf000106-resize_1-target.png,250,2.074,1,2311,249,feet,jsons/v1_VE250_randls_61.json,760903,918176,32,Woman
158,500788,DepthScenes,duration_manipulation_targetAtFixation,jsons/v1_VE250_randls_61.json,http://54.235.29.9/FacialAge/BNav_EC2/DepthDuration/v2_depth_duration_MTurk/v2_DepthDuration_HTML.html#381,381,1364,768,1364,768,8-30-2022,10-26-46,159,depth_duration_stimuli/002153_2014-06-25_21-27-18_260595134347_rgbf000038-resize_5/002153_2014-06-25_21-27-18_260595134347_rgbf000038-resize_5-target.png,250,2.505,1,2671,252,feet,jsons/v1_VE250_randls_61.json,760903,918176,32,Woman
159,500788,DepthScenes,duration_manipulation_targetAtFixation,jsons/v1_VE250_randls_61.json,http://54.235.29.9/FacialAge/BNav_EC2/DepthDuration/v2_depth_duration_MTurk/v2_DepthDuration_HTML.html#381,381,1364,768,1364,768,8-30-2022,10-26-46,160,depth_duration_stimuli/002660_2014-06-13_15-44-18_094959634447_rgbf001878-resize_2/002660_2014-06-13_15-44-18_094959634447_rgbf001878-resize_2-target.png,250,3.576,1,2832,243,feet,jsons/v1_VE250_randls_61.json,760903,918176,32,Woman
160,500788,DepthScenes,duration_manipulation_targetAtFixation,jsons/v1_VE250_randls_61.json,http://54.235.29.9/FacialAge/BNav_EC2/DepthDuration/v2_depth_duration_MTurk/v2_DepthDuration_HTML.html#381,381,1364,768,1364,768,8-30-2022,10-26-46,161,depth_duration_stimuli/000493_2014-06-09_21-01-18_260595134347_rgbf000196-resize_3/000493_2014-06-09_21-01-18_260595134347_rgbf000196-resize_3-target.png,250,3.44,1,2321,259,feet,jsons/v1_VE250_randls_61.json,760903,918176,32,Woman
161,500788,DepthScenes,duration_manipulation_targetAtFixation,jsons/v1_VE250_randls_61.json,http://54.235.29.9/FacialAge/BNav_EC2/DepthDuration/v2_depth_duration_MTurk/v2_DepthDuration_HTML.html#381,381,1364,768,1364,768,8-30-2022,10-26-46,162,depth_duration_stimuli/000191_2014-05-12_17-07-38_260595134347_rgbf000199-resize_0/000191_2014-05-12_17-07-38_260595134347_rgbf000199-resize_0-target.png,250,3.7995,1,2870,258,feet,jsons/v1_VE250_randls_61.json,760903,918176,32,Woman
162,500788,DepthScenes,duration_manipulation_targetAtFixation,jsons/v1_VE250_randls_61.json,http://54.235.29.9/FacialAge/BNav_EC2/DepthDuration/v2_depth_duration_MTurk/v2_DepthDuration_HTML.html#381,381,1364,768,1364,768,8-30-2022,10-26-46,163,depth_duration_stimuli/000739_2014-06-08_18-45-58_260595134347_rgbf000068-resize_1/000739_2014-06-08_18-45-58_260595134347_rgbf000068-resize_1-target.png,250,3.534,1,2400,253,feet,jsons/v1_VE250_randls_61.json,760903,918176,32,Woman
163,500788,DepthScenes,duration_manipulation_targetAtFixation,jsons/v1_VE250_randls_61.json,http://54.235.29.9/FacialAge/BNav_EC2/DepthDuration/v2_depth_duration_MTurk/v2_DepthDuration_HTML.html#381,381,1364,768,1364,768,8-30-2022,10-26-46,164,depth_duration_stimuli/000734_2014-06-08_17-39-11_260595134347_rgbf000128-resize_2/000734_2014-06-08_17-39-11_260595134347_rgbf000128-resize_2-target.png,250,4.098,1,2530,247,feet,jsons/v1_VE250_randls_61.json,760903,918176,32,Woman
