,subjID,experimentName,versionName,sequenceName,url,selected_row,windowWidth,windowHeight,screenWidth,screenHeight,startDate,startTime,trial,stimulus,duration,actual_depth,depth_estimate,trial_RT,log_sceneDuration,unitSelection,seq_filepath,experimentTime,totalTime,age,gender
0,502526,DepthScenes,duration_manipulation_targetAtFixation,jsons/v1_VE1000_randls_19.json,http://54.235.29.9/FacialAge/BNav_EC2/DepthDuration/v2_depth_duration_MTurk/v2_DepthDuration_HTML.html#139,139,1364,625,1364,768,8-22-2022,5-59-29,1,depth_duration_stimuli/002039_2014-06-24_20-22-38_260595134347_rgbf000084-resize_1/002039_2014-06-24_20-22-38_260595134347_rgbf000084-resize_1-target.png,1000,4.408,2,218349,971,feet,jsons/v1_VE1000_randls_19.json,1479527,1653865,30,Woman
1,502526,DepthScenes,duration_manipulation_targetAtFixation,jsons/v1_VE1000_randls_19.json,http://54.235.29.9/FacialAge/BNav_EC2/DepthDuration/v2_depth_duration_MTurk/v2_DepthDuration_HTML.html#139,139,1364,625,1364,768,8-22-2022,5-59-29,2,depth_duration_stimuli/002103_2014-06-25_20-00-40_260595134347_rgbf000049-resize_0/002103_2014-06-25_20-00-40_260595134347_rgbf000049-resize_0-target.png,1000,4.105,2,24748,1012,feet,jsons/v1_VE1000_randls_19.json,1479527,1653865,30,Woman
2,502526,DepthScenes,duration_manipulation_targetAtFixation,jsons/v1_VE1000_randls_19.json,http://54.235.29.9/FacialAge/BNav_EC2/DepthDuration/v2_depth_duration_MTurk/v2_DepthDuration_HTML.html#139,139,1364,625,1364,768,8-22-2022,5-59-29,3,depth_duration_stimuli/003292_2014-05-14_21-53-49_094959634447_rgbf000100-resize_2/003292_2014-05-14_21-53-49_094959634447_rgbf000100-resize_2-target.png,1000,3.4815,3,5907,945,feet,jsons/v1_VE1000_randls_19.json,1479527,1653865,30,Woman
3,502526,DepthScenes,duration_manipulation_targetAtFixation,jsons/v1_VE1000_randls_19.json,http://54.235.29.9/FacialAge/BNav_EC2/DepthDuration/v2_depth_duration_MTurk/v2_DepthDuration_HTML.html#139,139,1364,625,1364,768,8-22-2022,5-59-29,4,depth_duration_stimuli/002639_2014-06-24_14-51-37_094959634447_rgbf000074-resize_4/002639_2014-06-24_14-51-37_094959634447_rgbf000074-resize_4-target.png,1000,4.0375,2,4938,984,feet,jsons/v1_VE1000_randls_19.json,1479527,1653865,30,Woman
4,502526,DepthScenes,duration_manipulation_targetAtFixation,jsons/v1_VE1000_randls_19.json,http://54.235.29.9/FacialAge/BNav_EC2/DepthDuration/v2_depth_duration_MTurk/v2_DepthDuration_HTML.html#139,139,1364,625,1364,768,8-22-2022,5-59-29,5,depth_duration_stimuli/002153_2014-06-25_21-27-18_260595134347_rgbf000038-resize_5/002153_2014-06-25_21-27-18_260595134347_rgbf000038-resize_5-target.png,1000,2.505,3,22641,1000,feet,jsons/v1_VE1000_randls_19.json,1479527,1653865,30,Woman
5,502526,DepthScenes,duration_manipulation_targetAtFixation,jsons/v1_VE1000_randls_19.json,http://54.235.29.9/FacialAge/BNav_EC2/DepthDuration/v2_depth_duration_MTurk/v2_DepthDuration_HTML.html#139,139,1364,625,1364,768,8-22-2022,5-59-29,6,depth_duration_stimuli/002660_2014-06-13_15-44-18_094959634447_rgbf001878-resize_2/002660_2014-06-13_15-44-18_094959634447_rgbf001878-resize_2-target.png,1000,3.576,2,3941,945,feet,jsons/v1_VE1000_randls_19.json,1479527,1653865,30,Woman
6,502526,DepthScenes,duration_manipulation_targetAtFixation,jsons/v1_VE1000_randls_19.json,http://54.235.29.9/FacialAge/BNav_EC2/DepthDuration/v2_depth_duration_MTurk/v2_DepthDuration_HTML.html#139,139,1364,625,1364,768,8-22-2022,5-59-29,7,depth_duration_stimuli/000493_2014-06-09_21-01-18_260595134347_rgbf000196-resize_3/000493_2014-06-09_21-01-18_260595134347_rgbf000196-resize_3-target.png,1000,3.44,3,4141,997,feet,jsons/v1_VE1000_randls_19.json,1479527,1653865,30,Woman
7,502526,DepthScenes,duration_manipulation_targetAtFixation,jsons/v1_VE1000_randls_19.json,http://54.235.29.9/FacialAge/BNav_EC2/DepthDuration/v2_depth_duration_MTurk/v2_DepthDuration_HTML.html#139,139,1364,625,1364,768,8-22-2022,5-59-29,8,depth_duration_stimuli/000191_2014-05-12_17-07-38_260595134347_rgbf000199-resize_0/000191_2014-05-12_17-07-38_260595134347_rgbf000199-resize_0-target.png,1000,3.7995,3,6393,985,feet,jsons/v1_VE1000_randls_19.json,1479527,1653865,30,Woman
8,502526,DepthScenes,duration_manipulation_targetAtFixation,jsons/v1_VE1000_randls_19.json,http://54.235.29.9/FacialAge/BNav_EC2/DepthDuration/v2_depth_duration_MTurk/v2_DepthDuration_HTML.html#139,139,1364,625,1364,768,8-22-2022,5-59-29,9,depth_duration_stimuli/000470_2014-06-09_19-42-40_260595134347_rgbf000094-resize_1/000470_2014-06-09_19-42-40_260595134347_rgbf000094-resize_1-target.png,1000,1.831,2,4986,1008,feet,jsons/v1_VE1000_randls_19.json,1479527,1653865,30,Woman
9,502526,DepthScenes,duration_manipulation_targetAtFixation,jsons/v1_VE1000_randls_19.json,http://54.235.29.9/FacialAge/BNav_EC2/DepthDuration/v2_depth_duration_MTurk/v2_DepthDuration_HTML.html#139,139,1364,625,1364,768,8-22-2022,5-59-29,10,depth_duration_stimuli/000109_2014-05-14_23-41-52_260595134347_rgbf000035-resize_9/000109_2014-05-14_23-41-52_260595134347_rgbf000035-resize_9-target.png,1000,1.3545,3,6379,996,feet,jsons/v1_VE1000_randls_19.json,1479527,1653865,30,Woman
10,502526,DepthScenes,duration_manipulation_targetAtFixation,jsons/v1_VE1000_randls_19.json,http://54.235.29.9/FacialAge/BNav_EC2/DepthDuration/v2_depth_duration_MTurk/v2_DepthDuration_HTML.html#139,139,1364,625,1364,768,8-22-2022,5-59-29,11,depth_duration_stimuli/001029_2014-06-08_13-17-57_260595134347_rgbf000065-resize_1/001029_2014-06-08_13-17-57_260595134347_rgbf000065-resize_1-target.png,1000,3.0835,3,8245,1000,feet,jsons/v1_VE1000_randls_19.json,1479527,1653865,30,Woman
11,502526,DepthScenes,duration_manipulation_targetAtFixation,jsons/v1_VE1000_randls_19.json,http://54.235.29.9/FacialAge/BNav_EC2/DepthDuration/v2_depth_duration_MTurk/v2_DepthDuration_HTML.html#139,139,1364,625,1364,768,8-22-2022,5-59-29,12,depth_duration_stimuli/000677_2014-06-08_23-10-32_260595134347_rgbf000158-resize_6/000677_2014-06-08_23-10-32_260595134347_rgbf000158-resize_6-target.png,1000,3.556,3,18980,988,feet,jsons/v1_VE1000_randls_19.json,1479527,1653865,30,Woman
12,502526,DepthScenes,duration_manipulation_targetAtFixation,jsons/v1_VE1000_randls_19.json,http://54.235.29.9/FacialAge/BNav_EC2/DepthDuration/v2_depth_duration_MTurk/v2_DepthDuration_HTML.html#139,139,1364,625,1364,768,8-22-2022,5-59-29,13,depth_duration_stimuli/000569_2014-06-09_22-51-47_260595134347_rgbf000141-resize_3/000569_2014-06-09_22-51-47_260595134347_rgbf000141-resize-original.jpg,1000,4.512,2,5646,1011,feet,jsons/v1_VE1000_randls_19.json,1479527,1653865,30,Woman
13,502526,DepthScenes,duration_manipulation_targetAtFixation,jsons/v1_VE1000_randls_19.json,http://54.235.29.9/FacialAge/BNav_EC2/DepthDuration/v2_depth_duration_MTurk/v2_DepthDuration_HTML.html#139,139,1364,625,1364,768,8-22-2022,5-59-29,14,depth_duration_stimuli/002630_2014-06-24_14-47-50_094959634447_rgbf000055-resize_1/002630_2014-06-24_14-47-50_094959634447_rgbf000055-resize_1-target.png,1000,3.0095,2,17847,1000,feet,jsons/v1_VE1000_randls_19.json,1479527,1653865,30,Woman
14,502526,DepthScenes,duration_manipulation_targetAtFixation,jsons/v1_VE1000_randls_19.json,http://54.235.29.9/FacialAge/BNav_EC2/DepthDuration/v2_depth_duration_MTurk/v2_DepthDuration_HTML.html#139,139,1364,625,1364,768,8-22-2022,5-59-29,15,depth_duration_stimuli/002758_2014-06-22_19-11-20_094959634447_rgbf000128-resize_1/002758_2014-06-22_19-11-20_094959634447_rgbf000128-resize_1-target.png,1000,2.555,3,4033,1038,feet,jsons/v1_VE1000_randls_19.json,1479527,1653865,30,Woman
15,502526,DepthScenes,duration_manipulation_targetAtFixation,jsons/v1_VE1000_randls_19.json,http://54.235.29.9/FacialAge/BNav_EC2/DepthDuration/v2_depth_duration_MTurk/v2_DepthDuration_HTML.html#139,139,1364,625,1364,768,8-22-2022,5-59-29,16,depth_duration_stimuli/001808_2014-06-26_20-50-58_260595134347_rgbf000029-resize_1/001808_2014-06-26_20-50-58_260595134347_rgbf000029-resize_1-target.png,1000,4.249,3,4661,999,feet,jsons/v1_VE1000_randls_19.json,1479527,1653865,30,Woman
16,502526,DepthScenes,duration_manipulation_targetAtFixation,jsons/v1_VE1000_randls_19.json,http://54.235.29.9/FacialAge/BNav_EC2/DepthDuration/v2_depth_duration_MTurk/v2_DepthDuration_HTML.html#139,139,1364,625,1364,768,8-22-2022,5-59-29,17,depth_duration_stimuli/001815_2014-06-26_20-52-55_260595134347_rgbf000020-resize_0/001815_2014-06-26_20-52-55_260595134347_rgbf000020-resize_0-target.png,1000,3.3865,2,5848,1039,feet,jsons/v1_VE1000_randls_19.json,1479527,1653865,30,Woman
17,502526,DepthScenes,duration_manipulation_targetAtFixation,jsons/v1_VE1000_randls_19.json,http://54.235.29.9/FacialAge/BNav_EC2/DepthDuration/v2_depth_duration_MTurk/v2_DepthDuration_HTML.html#139,139,1364,625,1364,768,8-22-2022,5-59-29,18,depth_duration_stimuli/002272_2014-06-28_18-53-56_260595134347_rgbf000067-resize_2/002272_2014-06-28_18-53-56_260595134347_rgbf000067-resize_2-target.png,1000,1.138,3,4324,1037,feet,jsons/v1_VE1000_randls_19.json,1479527,1653865,30,Woman
18,502526,DepthScenes,duration_manipulation_targetAtFixation,jsons/v1_VE1000_randls_19.json,http://54.235.29.9/FacialAge/BNav_EC2/DepthDuration/v2_depth_duration_MTurk/v2_DepthDuration_HTML.html#139,139,1364,625,1364,768,8-22-2022,5-59-29,19,depth_duration_stimuli/001571_2014-06-20_17-21-32_260595134347_rgbf000089-resize_1/001571_2014-06-20_17-21-32_260595134347_rgbf000089-resize_1-target.png,1000,1.86,2,3889,992,feet,jsons/v1_VE1000_randls_19.json,1479527,1653865,30,Woman
19,502526,DepthScenes,duration_manipulation_targetAtFixation,jsons/v1_VE1000_randls_19.json,http://54.235.29.9/FacialAge/BNav_EC2/DepthDuration/v2_depth_duration_MTurk/v2_DepthDuration_HTML.html#139,139,1364,625,1364,768,8-22-2022,5-59-29,20,depth_duration_stimuli/001150_2014-06-17_15-27-34_260595134347_rgbf000108-resize_2/001150_2014-06-17_15-27-34_260595134347_rgbf000108-resize_2-target.png,1000,4.0325,2,4917,987,feet,jsons/v1_VE1000_randls_19.json,1479527,1653865,30,Woman
20,502526,DepthScenes,duration_manipulation_targetAtFixation,jsons/v1_VE1000_randls_19.json,http://54.235.29.9/FacialAge/BNav_EC2/DepthDuration/v2_depth_duration_MTurk/v2_DepthDuration_HTML.html#139,139,1364,625,1364,768,8-22-2022,5-59-29,21,depth_duration_stimuli/000665_2014-06-09_20-42-35_260595134347_rgbf000110-resize_1/000665_2014-06-09_20-42-35_260595134347_rgbf000110-resize_1-target.png,1000,3.057,3,5392,987,feet,jsons/v1_VE1000_randls_19.json,1479527,1653865,30,Woman
21,502526,DepthScenes,duration_manipulation_targetAtFixation,jsons/v1_VE1000_randls_19.json,http://54.235.29.9/FacialAge/BNav_EC2/DepthDuration/v2_depth_duration_MTurk/v2_DepthDuration_HTML.html#139,139,1364,625,1364,768,8-22-2022,5-59-29,22,depth_duration_stimuli/000906_2014-06-08_13-35-43_260595134347_rgbf000155-resize_1/000906_2014-06-08_13-35-43_260595134347_rgbf000155-resize_1-target.png,1000,2.8489999999999998,2,4814,975,feet,jsons/v1_VE1000_randls_19.json,1479527,1653865,30,Woman
22,502526,DepthScenes,duration_manipulation_targetAtFixation,jsons/v1_VE1000_randls_19.json,http://54.235.29.9/FacialAge/BNav_EC2/DepthDuration/v2_depth_duration_MTurk/v2_DepthDuration_HTML.html#139,139,1364,625,1364,768,8-22-2022,5-59-29,23,depth_duration_stimuli/002805_2014-06-22_19-54-03_094959634447_rgbf000079-resize_1/002805_2014-06-22_19-54-03_094959634447_rgbf000079-resize_1-target.png,1000,3.1439999999999997,3,4320,1010,feet,jsons/v1_VE1000_randls_19.json,1479527,1653865,30,Woman
23,502526,DepthScenes,duration_manipulation_targetAtFixation,jsons/v1_VE1000_randls_19.json,http://54.235.29.9/FacialAge/BNav_EC2/DepthDuration/v2_depth_duration_MTurk/v2_DepthDuration_HTML.html#139,139,1364,625,1364,768,8-22-2022,5-59-29,24,depth_duration_stimuli/001810_2014-06-26_20-51-35_260595134347_rgbf000040-resize_3/001810_2014-06-26_20-51-35_260595134347_rgbf000040-resize_3-target.png,1000,2.2525,3,3935,995,feet,jsons/v1_VE1000_randls_19.json,1479527,1653865,30,Woman
24,502526,DepthScenes,duration_manipulation_targetAtFixation,jsons/v1_VE1000_randls_19.json,http://54.235.29.9/FacialAge/BNav_EC2/DepthDuration/v2_depth_duration_MTurk/v2_DepthDuration_HTML.html#139,139,1364,625,1364,768,8-22-2022,5-59-29,25,depth_duration_stimuli/003010_2014-06-15_12-54-35_094959634447_rgbf000112-resize_0/003010_2014-06-15_12-54-35_094959634447_rgbf000112-resize_0-target.png,1000,3.1185,3,13252,968,feet,jsons/v1_VE1000_randls_19.json,1479527,1653865,30,Woman
25,502526,DepthScenes,duration_manipulation_targetAtFixation,jsons/v1_VE1000_randls_19.json,http://54.235.29.9/FacialAge/BNav_EC2/DepthDuration/v2_depth_duration_MTurk/v2_DepthDuration_HTML.html#139,139,1364,625,1364,768,8-22-2022,5-59-29,26,depth_duration_stimuli/003534_2014-05-22_15-06-10_094959634447_rgbf000102-resize_4/003534_2014-05-22_15-06-10_094959634447_rgbf000102-resize_4-target.png,1000,1.426,2,3794,986,feet,jsons/v1_VE1000_randls_19.json,1479527,1653865,30,Woman
26,502526,DepthScenes,duration_manipulation_targetAtFixation,jsons/v1_VE1000_randls_19.json,http://54.235.29.9/FacialAge/BNav_EC2/DepthDuration/v2_depth_duration_MTurk/v2_DepthDuration_HTML.html#139,139,1364,625,1364,768,8-22-2022,5-59-29,27,depth_duration_stimuli/002637_2014-06-24_14-51-13_094959634447_rgbf000066-resize_4/002637_2014-06-24_14-51-13_094959634447_rgbf000066-resize_4-target.png,1000,1.9955,1,5960,1037,feet,jsons/v1_VE1000_randls_19.json,1479527,1653865,30,Woman
27,502526,DepthScenes,duration_manipulation_targetAtFixation,jsons/v1_VE1000_randls_19.json,http://54.235.29.9/FacialAge/BNav_EC2/DepthDuration/v2_depth_duration_MTurk/v2_DepthDuration_HTML.html#139,139,1364,768,1364,768,8-22-2022,5-59-29,28,depth_duration_stimuli/002905_2014-06-03_18-04-43_094959634447_rgbf000151-resize_2/002905_2014-06-03_18-04-43_094959634447_rgbf000151-resize_2-target.png,1000,2.0295,3,5614,996,feet,jsons/v1_VE1000_randls_19.json,1479527,1653865,30,Woman
28,502526,DepthScenes,duration_manipulation_targetAtFixation,jsons/v1_VE1000_randls_19.json,http://54.235.29.9/FacialAge/BNav_EC2/DepthDuration/v2_depth_duration_MTurk/v2_DepthDuration_HTML.html#139,139,1364,768,1364,768,8-22-2022,5-59-29,29,depth_duration_stimuli/003423_2014-05-21_10-23-26_094959634447_rgbf002665-resize_2/003423_2014-05-21_10-23-26_094959634447_rgbf002665-resize_2-target.png,1000,3.2575,2,4981,991,feet,jsons/v1_VE1000_randls_19.json,1479527,1653865,30,Woman
29,502526,DepthScenes,duration_manipulation_targetAtFixation,jsons/v1_VE1000_randls_19.json,http://54.235.29.9/FacialAge/BNav_EC2/DepthDuration/v2_depth_duration_MTurk/v2_DepthDuration_HTML.html#139,139,1364,768,1364,768,8-22-2022,5-59-29,30,depth_duration_stimuli/000375_2014-06-08_11-17-29_260595134347_rgbf000133-resize_2/000375_2014-06-08_11-17-29_260595134347_rgbf000133-resize-original.jpg,1000,4.718,2,6453,995,feet,jsons/v1_VE1000_randls_19.json,1479527,1653865,30,Woman
30,502526,DepthScenes,duration_manipulation_targetAtFixation,jsons/v1_VE1000_randls_19.json,http://54.235.29.9/FacialAge/BNav_EC2/DepthDuration/v2_depth_duration_MTurk/v2_DepthDuration_HTML.html#139,139,1364,768,1364,768,8-22-2022,5-59-29,31,depth_duration_stimuli/001092_2014-06-15_17-34-58_260595134347_rgbf000171-resize_3/001092_2014-06-15_17-34-58_260595134347_rgbf000171-resize_3-target.png,1000,2.6935,3,14924,996,feet,jsons/v1_VE1000_randls_19.json,1479527,1653865,30,Woman
31,502526,DepthScenes,duration_manipulation_targetAtFixation,jsons/v1_VE1000_randls_19.json,http://54.235.29.9/FacialAge/BNav_EC2/DepthDuration/v2_depth_duration_MTurk/v2_DepthDuration_HTML.html#139,139,1364,768,1364,768,8-22-2022,5-59-29,32,depth_duration_stimuli/002545_2014-06-24_13-38-53_094959634447_rgbf000080-resize_4/002545_2014-06-24_13-38-53_094959634447_rgbf000080-resize_4-target.png,1000,1.9205,2,4083,1009,feet,jsons/v1_VE1000_randls_19.json,1479527,1653865,30,Woman
32,502526,DepthScenes,duration_manipulation_targetAtFixation,jsons/v1_VE1000_randls_19.json,http://54.235.29.9/FacialAge/BNav_EC2/DepthDuration/v2_depth_duration_MTurk/v2_DepthDuration_HTML.html#139,139,1364,768,1364,768,8-22-2022,5-59-29,33,depth_duration_stimuli/000469_2014-06-09_19-42-10_260595134347_rgbf000081-resize_1/000469_2014-06-09_19-42-10_260595134347_rgbf000081-resize_1-target.png,1000,1.652,2,4933,998,feet,jsons/v1_VE1000_randls_19.json,1479527,1653865,30,Woman
33,502526,DepthScenes,duration_manipulation_targetAtFixation,jsons/v1_VE1000_randls_19.json,http://54.235.29.9/FacialAge/BNav_EC2/DepthDuration/v2_depth_duration_MTurk/v2_DepthDuration_HTML.html#139,139,1364,768,1364,768,8-22-2022,5-59-29,34,depth_duration_stimuli/000483_2014-06-09_20-41-45_260595134347_rgbf000116-resize_4/000483_2014-06-09_20-41-45_260595134347_rgbf000116-resize_4-target.png,1000,1.337,3,7518,1000,feet,jsons/v1_VE1000_randls_19.json,1479527,1653865,30,Woman
34,502526,DepthScenes,duration_manipulation_targetAtFixation,jsons/v1_VE1000_randls_19.json,http://54.235.29.9/FacialAge/BNav_EC2/DepthDuration/v2_depth_duration_MTurk/v2_DepthDuration_HTML.html#139,139,1364,768,1364,768,8-22-2022,5-59-29,35,depth_duration_stimuli/001806_2014-06-26_20-50-20_260595134347_rgbf000091-resize_1/001806_2014-06-26_20-50-20_260595134347_rgbf000091-resize_1-target.png,1000,2.7305,2,11839,1002,feet,jsons/v1_VE1000_randls_19.json,1479527,1653865,30,Woman
35,502526,DepthScenes,duration_manipulation_targetAtFixation,jsons/v1_VE1000_randls_19.json,http://54.235.29.9/FacialAge/BNav_EC2/DepthDuration/v2_depth_duration_MTurk/v2_DepthDuration_HTML.html#139,139,1364,768,1364,768,8-22-2022,5-59-29,36,depth_duration_stimuli/001617_2014-06-20_11-35-32_260595134347_rgbf000066-resize_1/001617_2014-06-20_11-35-32_260595134347_rgbf000066-resize_1-target.png,1000,3.7910000000000004,3,4040,1004,feet,jsons/v1_VE1000_randls_19.json,1479527,1653865,30,Woman
36,502526,DepthScenes,duration_manipulation_targetAtFixation,jsons/v1_VE1000_randls_19.json,http://54.235.29.9/FacialAge/BNav_EC2/DepthDuration/v2_depth_duration_MTurk/v2_DepthDuration_HTML.html#139,139,1364,768,1364,768,8-22-2022,5-59-29,37,depth_duration_stimuli/000642_2014-06-08_16-59-25_260595134347_rgbf000098-resize_2/000642_2014-06-08_16-59-25_260595134347_rgbf000098-resize_2-target.png,1000,2.8815,2,19784,999,feet,jsons/v1_VE1000_randls_19.json,1479527,1653865,30,Woman
37,502526,DepthScenes,duration_manipulation_targetAtFixation,jsons/v1_VE1000_randls_19.json,http://54.235.29.9/FacialAge/BNav_EC2/DepthDuration/v2_depth_duration_MTurk/v2_DepthDuration_HTML.html#139,139,1364,768,1364,768,8-22-2022,5-59-29,38,depth_duration_stimuli/002425_2014-06-28_20-27-29_260595134347_rgbf000031-resize_8/002425_2014-06-28_20-27-29_260595134347_rgbf000031-resize_8-target.png,1000,3.8960000000000004,3,3637,987,feet,jsons/v1_VE1000_randls_19.json,1479527,1653865,30,Woman
38,502526,DepthScenes,duration_manipulation_targetAtFixation,jsons/v1_VE1000_randls_19.json,http://54.235.29.9/FacialAge/BNav_EC2/DepthDuration/v2_depth_duration_MTurk/v2_DepthDuration_HTML.html#139,139,1364,768,1364,768,8-22-2022,5-59-29,39,depth_duration_stimuli/002375_2014-06-28_20-13-44_260595134347_rgbf000032-resize_1/002375_2014-06-28_20-13-44_260595134347_rgbf000032-resize_1-target.png,1000,4.0175,3,11954,1001,feet,jsons/v1_VE1000_randls_19.json,1479527,1653865,30,Woman
39,502526,DepthScenes,duration_manipulation_targetAtFixation,jsons/v1_VE1000_randls_19.json,http://54.235.29.9/FacialAge/BNav_EC2/DepthDuration/v2_depth_duration_MTurk/v2_DepthDuration_HTML.html#139,139,1364,768,1364,768,8-22-2022,5-59-29,40,depth_duration_stimuli/002657_2014-06-13_15-29-54_094959634447_rgbf000150-resize_1/002657_2014-06-13_15-29-54_094959634447_rgbf000150-resize_1-target.png,1000,4.919,2,9424,988,feet,jsons/v1_VE1000_randls_19.json,1479527,1653865,30,Woman
40,502526,DepthScenes,duration_manipulation_targetAtFixation,jsons/v1_VE1000_randls_19.json,http://54.235.29.9/FacialAge/BNav_EC2/DepthDuration/v2_depth_duration_MTurk/v2_DepthDuration_HTML.html#139,139,1364,768,1364,768,8-22-2022,5-59-29,41,depth_duration_stimuli/002725_2014-06-22_11-47-51_094959634447_rgbf000070-resize_1/002725_2014-06-22_11-47-51_094959634447_rgbf000070-resize_1-target.png,1000,2.195,3,4323,998,feet,jsons/v1_VE1000_randls_19.json,1479527,1653865,30,Woman
41,502526,DepthScenes,duration_manipulation_targetAtFixation,jsons/v1_VE1000_randls_19.json,http://54.235.29.9/FacialAge/BNav_EC2/DepthDuration/v2_depth_duration_MTurk/v2_DepthDuration_HTML.html#139,139,1364,768,1364,768,8-22-2022,5-59-29,42,depth_duration_stimuli/002344_2014-06-28_20-06-29_260595134347_rgbf000030-resize_1/002344_2014-06-28_20-06-29_260595134347_rgbf000030-resize_1-target.png,1000,1.5795,3,11939,1001,feet,jsons/v1_VE1000_randls_19.json,1479527,1653865,30,Woman
42,502526,DepthScenes,duration_manipulation_targetAtFixation,jsons/v1_VE1000_randls_19.json,http://54.235.29.9/FacialAge/BNav_EC2/DepthDuration/v2_depth_duration_MTurk/v2_DepthDuration_HTML.html#139,139,1364,768,1364,768,8-22-2022,5-59-29,43,depth_duration_stimuli/000917_2014-06-09_22-45-29_260595134347_rgbf000149-resize_3/000917_2014-06-09_22-45-29_260595134347_rgbf000149-resize_3-target.png,1000,4.1865,2,4620,1006,feet,jsons/v1_VE1000_randls_19.json,1479527,1653865,30,Woman
43,502526,DepthScenes,duration_manipulation_targetAtFixation,jsons/v1_VE1000_randls_19.json,http://54.235.29.9/FacialAge/BNav_EC2/DepthDuration/v2_depth_duration_MTurk/v2_DepthDuration_HTML.html#139,139,1364,768,1364,768,8-22-2022,5-59-29,44,depth_duration_stimuli/002323_2014-06-28_20-01-54_260595134347_rgbf000051-resize_4/002323_2014-06-28_20-01-54_260595134347_rgbf000051-resize_4-target.png,1000,3.7310000000000003,3,3523,987,feet,jsons/v1_VE1000_randls_19.json,1479527,1653865,30,Woman
44,502526,DepthScenes,duration_manipulation_targetAtFixation,jsons/v1_VE1000_randls_19.json,http://54.235.29.9/FacialAge/BNav_EC2/DepthDuration/v2_depth_duration_MTurk/v2_DepthDuration_HTML.html#139,139,1364,768,1364,768,8-22-2022,5-59-29,45,depth_duration_stimuli/000787_2014-06-08_22-33-53_260595134347_rgbf000175-resize_1/000787_2014-06-08_22-33-53_260595134347_rgbf000175-resize-original.jpg,1000,4.784,2,7189,999,feet,jsons/v1_VE1000_randls_19.json,1479527,1653865,30,Woman
45,502526,DepthScenes,duration_manipulation_targetAtFixation,jsons/v1_VE1000_randls_19.json,http://54.235.29.9/FacialAge/BNav_EC2/DepthDuration/v2_depth_duration_MTurk/v2_DepthDuration_HTML.html#139,139,1364,768,1364,768,8-22-2022,5-59-29,46,depth_duration_stimuli/002445_2014-06-28_20-32-16_260595134347_rgbf000029-resize_4/002445_2014-06-28_20-32-16_260595134347_rgbf000029-resize_4-target.png,1000,2.5315,2,4669,1002,feet,jsons/v1_VE1000_randls_19.json,1479527,1653865,30,Woman
46,502526,DepthScenes,duration_manipulation_targetAtFixation,jsons/v1_VE1000_randls_19.json,http://54.235.29.9/FacialAge/BNav_EC2/DepthDuration/v2_depth_duration_MTurk/v2_DepthDuration_HTML.html#139,139,1364,768,1364,768,8-22-2022,5-59-29,47,depth_duration_stimuli/000780_2014-06-08_22-28-29_260595134347_rgbf000126-resize_1/000780_2014-06-08_22-28-29_260595134347_rgbf000126-resize_1-target.png,1000,3.3825,3,3754,1012,feet,jsons/v1_VE1000_randls_19.json,1479527,1653865,30,Woman
47,502526,DepthScenes,duration_manipulation_targetAtFixation,jsons/v1_VE1000_randls_19.json,http://54.235.29.9/FacialAge/BNav_EC2/DepthDuration/v2_depth_duration_MTurk/v2_DepthDuration_HTML.html#139,139,1364,768,1364,768,8-22-2022,5-59-29,48,depth_duration_stimuli/002988_2014-06-15_12-24-20_094959634447_rgbf000150-resize_1/002988_2014-06-15_12-24-20_094959634447_rgbf000150-resize_1-target.png,1000,4.7669999999999995,3,4172,999,feet,jsons/v1_VE1000_randls_19.json,1479527,1653865,30,Woman
48,502526,DepthScenes,duration_manipulation_targetAtFixation,jsons/v1_VE1000_randls_19.json,http://54.235.29.9/FacialAge/BNav_EC2/DepthDuration/v2_depth_duration_MTurk/v2_DepthDuration_HTML.html#139,139,1364,768,1364,768,8-22-2022,5-59-29,49,depth_duration_stimuli/001052_2014-06-08_18-24-54_260595134347_rgbf000130-resize_1/001052_2014-06-08_18-24-54_260595134347_rgbf000130-resize_1-target.png,1000,4.1045,2,3554,995,feet,jsons/v1_VE1000_randls_19.json,1479527,1653865,30,Woman
49,502526,DepthScenes,duration_manipulation_targetAtFixation,jsons/v1_VE1000_randls_19.json,http://54.235.29.9/FacialAge/BNav_EC2/DepthDuration/v2_depth_duration_MTurk/v2_DepthDuration_HTML.html#139,139,1364,768,1364,768,8-22-2022,5-59-29,50,depth_duration_stimuli/001110_2014-06-15_17-25-28_260595134347_rgbf000150-resize_1/001110_2014-06-15_17-25-28_260595134347_rgbf000150-resize_1-target.png,1000,1.7115,3,4482,1000,feet,jsons/v1_VE1000_randls_19.json,1479527,1653865,30,Woman
50,502526,DepthScenes,duration_manipulation_targetAtFixation,jsons/v1_VE1000_randls_19.json,http://54.235.29.9/FacialAge/BNav_EC2/DepthDuration/v2_depth_duration_MTurk/v2_DepthDuration_HTML.html#139,139,1364,768,1364,768,8-22-2022,5-59-29,51,depth_duration_stimuli/000927_2014-06-09_16-32-30_260595134347_rgbf000123-resize_3/000927_2014-06-09_16-32-30_260595134347_rgbf000123-resize_3-target.png,1000,2.6785,2,26127,1002,feet,jsons/v1_VE1000_randls_19.json,1479527,1653865,30,Woman
51,502526,DepthScenes,duration_manipulation_targetAtFixation,jsons/v1_VE1000_randls_19.json,http://54.235.29.9/FacialAge/BNav_EC2/DepthDuration/v2_depth_duration_MTurk/v2_DepthDuration_HTML.html#139,139,1364,768,1364,768,8-22-2022,5-59-29,52,depth_duration_stimuli/002118_2014-06-25_20-32-08_260595134347_rgbf000078-resize_1/002118_2014-06-25_20-32-08_260595134347_rgbf000078-resize_1-target.png,1000,2.6460000000000004,3,4580,993,feet,jsons/v1_VE1000_randls_19.json,1479527,1653865,30,Woman
52,502526,DepthScenes,duration_manipulation_targetAtFixation,jsons/v1_VE1000_randls_19.json,http://54.235.29.9/FacialAge/BNav_EC2/DepthDuration/v2_depth_duration_MTurk/v2_DepthDuration_HTML.html#139,139,1364,768,1364,768,8-22-2022,5-59-29,53,depth_duration_stimuli/001516_2014-06-20_16-25-09_260595134347_rgbf000076-resize_2/001516_2014-06-20_16-25-09_260595134347_rgbf000076-resize_2-target.png,1000,1.7445,3,5892,999,feet,jsons/v1_VE1000_randls_19.json,1479527,1653865,30,Woman
53,502526,DepthScenes,duration_manipulation_targetAtFixation,jsons/v1_VE1000_randls_19.json,http://54.235.29.9/FacialAge/BNav_EC2/DepthDuration/v2_depth_duration_MTurk/v2_DepthDuration_HTML.html#139,139,1364,768,1364,768,8-22-2022,5-59-29,54,depth_duration_stimuli/000692_2014-06-08_13-09-42_260595134347_rgbf000199-resize_2/000692_2014-06-08_13-09-42_260595134347_rgbf000199-resize_2-target.png,1000,3.661,2,22362,997,feet,jsons/v1_VE1000_randls_19.json,1479527,1653865,30,Woman
54,502526,DepthScenes,duration_manipulation_targetAtFixation,jsons/v1_VE1000_randls_19.json,http://54.235.29.9/FacialAge/BNav_EC2/DepthDuration/v2_depth_duration_MTurk/v2_DepthDuration_HTML.html#139,139,1364,768,1364,768,8-22-2022,5-59-29,55,depth_duration_stimuli/001094_2014-06-15_17-36-00_260595134347_rgbf000205-resize_0/001094_2014-06-15_17-36-00_260595134347_rgbf000205-resize_0-target.png,1000,4.2175,3,4119,989,feet,jsons/v1_VE1000_randls_19.json,1479527,1653865,30,Woman
55,502526,DepthScenes,duration_manipulation_targetAtFixation,jsons/v1_VE1000_randls_19.json,http://54.235.29.9/FacialAge/BNav_EC2/DepthDuration/v2_depth_duration_MTurk/v2_DepthDuration_HTML.html#139,139,1364,768,1364,768,8-22-2022,5-59-29,56,depth_duration_stimuli/002213_2014-06-28_18-37-58_260595134347_rgbf000055-resize_1/002213_2014-06-28_18-37-58_260595134347_rgbf000055-resize_1-target.png,1000,3.62,3,7656,988,feet,jsons/v1_VE1000_randls_19.json,1479527,1653865,30,Woman
56,502526,DepthScenes,duration_manipulation_targetAtFixation,jsons/v1_VE1000_randls_19.json,http://54.235.29.9/FacialAge/BNav_EC2/DepthDuration/v2_depth_duration_MTurk/v2_DepthDuration_HTML.html#139,139,1364,768,1364,768,8-22-2022,5-59-29,57,depth_duration_stimuli/000691_2014-06-08_13-08-50_260595134347_rgbf000132-resize_3/000691_2014-06-08_13-08-50_260595134347_rgbf000132-resize_3-target.png,1000,4.1530000000000005,2,5705,999,feet,jsons/v1_VE1000_randls_19.json,1479527,1653865,30,Woman
57,502526,DepthScenes,duration_manipulation_targetAtFixation,jsons/v1_VE1000_randls_19.json,http://54.235.29.9/FacialAge/BNav_EC2/DepthDuration/v2_depth_duration_MTurk/v2_DepthDuration_HTML.html#139,139,1364,768,1364,768,8-22-2022,5-59-29,58,depth_duration_stimuli/000929_2014-06-09_16-33-19_260595134347_rgbf000139-resize_0/000929_2014-06-09_16-33-19_260595134347_rgbf000139-resize_0-target.png,1000,2.8680000000000003,3,8410,995,feet,jsons/v1_VE1000_randls_19.json,1479527,1653865,30,Woman
58,502526,DepthScenes,duration_manipulation_targetAtFixation,jsons/v1_VE1000_randls_19.json,http://54.235.29.9/FacialAge/BNav_EC2/DepthDuration/v2_depth_duration_MTurk/v2_DepthDuration_HTML.html#139,139,1364,768,1364,768,8-22-2022,5-59-29,59,depth_duration_stimuli/000457_2014-06-08_16-52-43_260595134347_rgbf000199-resize_1/000457_2014-06-08_16-52-43_260595134347_rgbf000199-resize_1-target.png,1000,3.6489999999999996,2,4171,993,feet,jsons/v1_VE1000_randls_19.json,1479527,1653865,30,Woman
59,502526,DepthScenes,duration_manipulation_targetAtFixation,jsons/v1_VE1000_randls_19.json,http://54.235.29.9/FacialAge/BNav_EC2/DepthDuration/v2_depth_duration_MTurk/v2_DepthDuration_HTML.html#139,139,1364,768,1364,768,8-22-2022,5-59-29,60,depth_duration_stimuli/002570_2014-06-24_13-59-54_094959634447_rgbf000059-resize_0/002570_2014-06-24_13-59-54_094959634447_rgbf000059-resize_0-target.png,1000,4.037,3,4470,1000,feet,jsons/v1_VE1000_randls_19.json,1479527,1653865,30,Woman
60,502526,DepthScenes,duration_manipulation_targetAtFixation,jsons/v1_VE1000_randls_19.json,http://54.235.29.9/FacialAge/BNav_EC2/DepthDuration/v2_depth_duration_MTurk/v2_DepthDuration_HTML.html#139,139,1364,768,1364,768,8-22-2022,5-59-29,61,depth_duration_stimuli/002467_2014-06-28_20-38-07_260595134347_rgbf000026-resize_2/002467_2014-06-28_20-38-07_260595134347_rgbf000026-resize_2-target.png,1000,4.742,2,3777,1002,feet,jsons/v1_VE1000_randls_19.json,1479527,1653865,30,Woman
61,502526,DepthScenes,duration_manipulation_targetAtFixation,jsons/v1_VE1000_randls_19.json,http://54.235.29.9/FacialAge/BNav_EC2/DepthDuration/v2_depth_duration_MTurk/v2_DepthDuration_HTML.html#139,139,1364,768,1364,768,8-22-2022,5-59-29,62,depth_duration_stimuli/001244_2014-06-17_16-47-45_260595134347_rgbf000030-resize_4/001244_2014-06-17_16-47-45_260595134347_rgbf000030-resize_4-target.png,1000,2.0425,3,4089,999,feet,jsons/v1_VE1000_randls_19.json,1479527,1653865,30,Woman
62,502526,DepthScenes,duration_manipulation_targetAtFixation,jsons/v1_VE1000_randls_19.json,http://54.235.29.9/FacialAge/BNav_EC2/DepthDuration/v2_depth_duration_MTurk/v2_DepthDuration_HTML.html#139,139,1364,768,1364,768,8-22-2022,5-59-29,63,depth_duration_stimuli/003495_2014-05-21_16-01-51_094959634447_rgbf000100-resize_3/003495_2014-05-21_16-01-51_094959634447_rgbf000100-resize_3-target.png,1000,1.6255,2,3921,1001,feet,jsons/v1_VE1000_randls_19.json,1479527,1653865,30,Woman
63,502526,DepthScenes,duration_manipulation_targetAtFixation,jsons/v1_VE1000_randls_19.json,http://54.235.29.9/FacialAge/BNav_EC2/DepthDuration/v2_depth_duration_MTurk/v2_DepthDuration_HTML.html#139,139,1364,768,1364,768,8-22-2022,5-59-29,64,depth_duration_stimuli/000878_2014-06-08_22-52-45_260595134347_rgbf000045-resize_2/000878_2014-06-08_22-52-45_260595134347_rgbf000045-resize_2-target.png,1000,2.092,2,16870,982,feet,jsons/v1_VE1000_randls_19.json,1479527,1653865,30,Woman
64,502526,DepthScenes,duration_manipulation_targetAtFixation,jsons/v1_VE1000_randls_19.json,http://54.235.29.9/FacialAge/BNav_EC2/DepthDuration/v2_depth_duration_MTurk/v2_DepthDuration_HTML.html#139,139,1364,768,1364,768,8-22-2022,5-59-29,65,depth_duration_stimuli/002953_2014-06-08_17-32-18_094959634447_rgbf000059-resize_5/002953_2014-06-08_17-32-18_094959634447_rgbf000059-resize_5-target.png,1000,1.551,3,6299,1082,feet,jsons/v1_VE1000_randls_19.json,1479527,1653865,30,Woman
65,502526,DepthScenes,duration_manipulation_targetAtFixation,jsons/v1_VE1000_randls_19.json,http://54.235.29.9/FacialAge/BNav_EC2/DepthDuration/v2_depth_duration_MTurk/v2_DepthDuration_HTML.html#139,139,1364,768,1364,768,8-22-2022,5-59-29,66,depth_duration_stimuli/001222_2014-06-17_16-24-06_260595134347_rgbf000073-resize_0/001222_2014-06-17_16-24-06_260595134347_rgbf000073-resize-original.jpg,1000,1.4385,2,25062,995,feet,jsons/v1_VE1000_randls_19.json,1479527,1653865,30,Woman
66,502526,DepthScenes,duration_manipulation_targetAtFixation,jsons/v1_VE1000_randls_19.json,http://54.235.29.9/FacialAge/BNav_EC2/DepthDuration/v2_depth_duration_MTurk/v2_DepthDuration_HTML.html#139,139,1364,768,1364,768,8-22-2022,5-59-29,67,depth_duration_stimuli/001175_2014-06-17_15-45-55_260595134347_rgbf000129-resize_4/001175_2014-06-17_15-45-55_260595134347_rgbf000129-resize_4-target.png,1000,4.255,3,4160,1108,feet,jsons/v1_VE1000_randls_19.json,1479527,1653865,30,Woman
67,502526,DepthScenes,duration_manipulation_targetAtFixation,jsons/v1_VE1000_randls_19.json,http://54.235.29.9/FacialAge/BNav_EC2/DepthDuration/v2_depth_duration_MTurk/v2_DepthDuration_HTML.html#139,139,1364,768,1364,768,8-22-2022,5-59-29,68,depth_duration_stimuli/003490_2014-05-21_15-50-11_094959634447_rgbf000101-resize_3/003490_2014-05-21_15-50-11_094959634447_rgbf000101-resize_3-target.png,1000,3.6445,2,4022,1000,feet,jsons/v1_VE1000_randls_19.json,1479527,1653865,30,Woman
68,502526,DepthScenes,duration_manipulation_targetAtFixation,jsons/v1_VE1000_randls_19.json,http://54.235.29.9/FacialAge/BNav_EC2/DepthDuration/v2_depth_duration_MTurk/v2_DepthDuration_HTML.html#139,139,1364,768,1364,768,8-22-2022,5-59-29,69,depth_duration_stimuli/003492_2014-05-21_15-50-55_094959634447_rgbf000828-resize_1/003492_2014-05-21_15-50-55_094959634447_rgbf000828-resize_1-target.png,1000,4.06875,3,5866,986,feet,jsons/v1_VE1000_randls_19.json,1479527,1653865,30,Woman
69,502526,DepthScenes,duration_manipulation_targetAtFixation,jsons/v1_VE1000_randls_19.json,http://54.235.29.9/FacialAge/BNav_EC2/DepthDuration/v2_depth_duration_MTurk/v2_DepthDuration_HTML.html#139,139,1364,768,1364,768,8-22-2022,5-59-29,70,depth_duration_stimuli/002568_2014-06-24_13-59-21_094959634447_rgbf000062-resize_4/002568_2014-06-24_13-59-21_094959634447_rgbf000062-resize_4-target.png,1000,3.015,3,3743,993,feet,jsons/v1_VE1000_randls_19.json,1479527,1653865,30,Woman
70,502526,DepthScenes,duration_manipulation_targetAtFixation,jsons/v1_VE1000_randls_19.json,http://54.235.29.9/FacialAge/BNav_EC2/DepthDuration/v2_depth_duration_MTurk/v2_DepthDuration_HTML.html#139,139,1364,768,1364,768,8-22-2022,5-59-29,71,depth_duration_stimuli/000486_2014-06-09_20-47-20_260595134347_rgbf000143-resize_2/000486_2014-06-09_20-47-20_260595134347_rgbf000143-resize_2-target.png,1000,4.8325,2,4141,998,feet,jsons/v1_VE1000_randls_19.json,1479527,1653865,30,Woman
71,502526,DepthScenes,duration_manipulation_targetAtFixation,jsons/v1_VE1000_randls_19.json,http://54.235.29.9/FacialAge/BNav_EC2/DepthDuration/v2_depth_duration_MTurk/v2_DepthDuration_HTML.html#139,139,1364,768,1364,768,8-22-2022,5-59-29,72,depth_duration_stimuli/003083_2014-06-15_15-21-03_094959634447_rgbf000063-resize_1/003083_2014-06-15_15-21-03_094959634447_rgbf000063-resize_1-target.png,1000,4.1405,3,4378,983,feet,jsons/v1_VE1000_randls_19.json,1479527,1653865,30,Woman
72,502526,DepthScenes,duration_manipulation_targetAtFixation,jsons/v1_VE1000_randls_19.json,http://54.235.29.9/FacialAge/BNav_EC2/DepthDuration/v2_depth_duration_MTurk/v2_DepthDuration_HTML.html#139,139,1364,768,1364,768,8-22-2022,5-59-29,73,depth_duration_stimuli/002057_2014-06-24_21-00-13_260595134347_rgbf000120-resize_1/002057_2014-06-24_21-00-13_260595134347_rgbf000120-resize_1-target.png,1000,2.967,2,6315,1002,feet,jsons/v1_VE1000_randls_19.json,1479527,1653865,30,Woman
73,502526,DepthScenes,duration_manipulation_targetAtFixation,jsons/v1_VE1000_randls_19.json,http://54.235.29.9/FacialAge/BNav_EC2/DepthDuration/v2_depth_duration_MTurk/v2_DepthDuration_HTML.html#139,139,1364,768,1364,768,8-22-2022,5-59-29,74,depth_duration_stimuli/000709_2014-06-08_13-51-55_260595134347_rgbf000068-resize_3/000709_2014-06-08_13-51-55_260595134347_rgbf000068-resize_3-target.png,1000,1.8030000000000002,3,10465,791,feet,jsons/v1_VE1000_randls_19.json,1479527,1653865,30,Woman
74,502526,DepthScenes,duration_manipulation_targetAtFixation,jsons/v1_VE1000_randls_19.json,http://54.235.29.9/FacialAge/BNav_EC2/DepthDuration/v2_depth_duration_MTurk/v2_DepthDuration_HTML.html#139,139,1364,768,1364,768,8-22-2022,5-59-29,75,depth_duration_stimuli/001570_2014-06-20_17-21-09_260595134347_rgbf000135-resize_4/001570_2014-06-20_17-21-09_260595134347_rgbf000135-resize_4-target.png,1000,4.467,3,11119,1000,feet,jsons/v1_VE1000_randls_19.json,1479527,1653865,30,Woman
75,502526,DepthScenes,duration_manipulation_targetAtFixation,jsons/v1_VE1000_randls_19.json,http://54.235.29.9/FacialAge/BNav_EC2/DepthDuration/v2_depth_duration_MTurk/v2_DepthDuration_HTML.html#139,139,1364,768,1364,768,8-22-2022,5-59-29,76,depth_duration_stimuli/001392_2014-06-19_16-07-59_260595134347_rgbf000046-resize_1/001392_2014-06-19_16-07-59_260595134347_rgbf000046-resize_1-target.png,1000,4.135,2,5359,994,feet,jsons/v1_VE1000_randls_19.json,1479527,1653865,30,Woman
76,502526,DepthScenes,duration_manipulation_targetAtFixation,jsons/v1_VE1000_randls_19.json,http://54.235.29.9/FacialAge/BNav_EC2/DepthDuration/v2_depth_duration_MTurk/v2_DepthDuration_HTML.html#139,139,1364,768,1364,768,8-22-2022,5-59-29,77,depth_duration_stimuli/002663_2014-06-13_15-50-26_094959634447_rgbf000075-resize_1/002663_2014-06-13_15-50-26_094959634447_rgbf000075-resize_1-target.png,1000,4.7495,2,4790,999,feet,jsons/v1_VE1000_randls_19.json,1479527,1653865,30,Woman
77,502526,DepthScenes,duration_manipulation_targetAtFixation,jsons/v1_VE1000_randls_19.json,http://54.235.29.9/FacialAge/BNav_EC2/DepthDuration/v2_depth_duration_MTurk/v2_DepthDuration_HTML.html#139,139,1364,768,1364,768,8-22-2022,5-59-29,78,depth_duration_stimuli/000409_2014-06-04_19-23-33_260595134347_rgbf000067-resize_0/000409_2014-06-04_19-23-33_260595134347_rgbf000067-resize_0-target.png,1000,3.7335,3,3581,994,feet,jsons/v1_VE1000_randls_19.json,1479527,1653865,30,Woman
78,502526,DepthScenes,duration_manipulation_targetAtFixation,jsons/v1_VE1000_randls_19.json,http://54.235.29.9/FacialAge/BNav_EC2/DepthDuration/v2_depth_duration_MTurk/v2_DepthDuration_HTML.html#139,139,1364,768,1364,768,8-22-2022,5-59-29,79,depth_duration_stimuli/003070_2014-06-15_14-58-27_094959634447_rgbf000150-resize_3/003070_2014-06-15_14-58-27_094959634447_rgbf000150-resize_3-target.png,1000,2.9415,1,4942,998,feet,jsons/v1_VE1000_randls_19.json,1479527,1653865,30,Woman
79,502526,DepthScenes,duration_manipulation_targetAtFixation,jsons/v1_VE1000_randls_19.json,http://54.235.29.9/FacialAge/BNav_EC2/DepthDuration/v2_depth_duration_MTurk/v2_DepthDuration_HTML.html#139,139,1364,768,1364,768,8-22-2022,5-59-29,80,depth_duration_stimuli/000943_2014-06-09_19-31-07_260595134347_rgbf000128-resize_1/000943_2014-06-09_19-31-07_260595134347_rgbf000128-resize_1-target.png,1000,1.9765,2,3916,996,feet,jsons/v1_VE1000_randls_19.json,1479527,1653865,30,Woman
80,502526,DepthScenes,duration_manipulation_targetAtFixation,jsons/v1_VE1000_randls_19.json,http://54.235.29.9/FacialAge/BNav_EC2/DepthDuration/v2_depth_duration_MTurk/v2_DepthDuration_HTML.html#139,139,1364,768,1364,768,8-22-2022,5-59-29,81,depth_duration_stimuli/002600_2014-06-24_14-27-04_094959634447_rgbf000074-resize_2/002600_2014-06-24_14-27-04_094959634447_rgbf000074-resize_2-target.png,1000,2.7575,2,4625,998,feet,jsons/v1_VE1000_randls_19.json,1479527,1653865,30,Woman
81,502526,DepthScenes,duration_manipulation_targetAtFixation,jsons/v1_VE1000_randls_19.json,http://54.235.29.9/FacialAge/BNav_EC2/DepthDuration/v2_depth_duration_MTurk/v2_DepthDuration_HTML.html#139,139,1364,768,1364,768,8-22-2022,5-59-29,82,depth_duration_stimuli/003228_2014-05-14_13-42-35_094959634447_rgbf000101-resize_1/003228_2014-05-14_13-42-35_094959634447_rgbf000101-resize_1-target.png,1000,1.9680000000000002,3,4760,994,feet,jsons/v1_VE1000_randls_19.json,1479527,1653865,30,Woman
82,502526,DepthScenes,duration_manipulation_targetAtFixation,jsons/v1_VE1000_randls_19.json,http://54.235.29.9/FacialAge/BNav_EC2/DepthDuration/v2_depth_duration_MTurk/v2_DepthDuration_HTML.html#139,139,1364,768,1364,768,8-22-2022,5-59-29,83,depth_duration_stimuli/000788_2014-06-08_22-34-36_260595134347_rgbf000131-resize_1/000788_2014-06-08_22-34-36_260595134347_rgbf000131-resize_1-target.png,1000,3.359,2,4491,998,feet,jsons/v1_VE1000_randls_19.json,1479527,1653865,30,Woman
83,502526,DepthScenes,duration_manipulation_targetAtFixation,jsons/v1_VE1000_randls_19.json,http://54.235.29.9/FacialAge/BNav_EC2/DepthDuration/v2_depth_duration_MTurk/v2_DepthDuration_HTML.html#139,139,1364,768,1364,768,8-22-2022,5-59-29,84,depth_duration_stimuli/001235_2014-06-17_16-37-36_260595134347_rgbf000084-resize_4/001235_2014-06-17_16-37-36_260595134347_rgbf000084-resize_4-target.png,1000,3.6605,3,3885,1001,feet,jsons/v1_VE1000_randls_19.json,1479527,1653865,30,Woman
84,502526,DepthScenes,duration_manipulation_targetAtFixation,jsons/v1_VE1000_randls_19.json,http://54.235.29.9/FacialAge/BNav_EC2/DepthDuration/v2_depth_duration_MTurk/v2_DepthDuration_HTML.html#139,139,1364,768,1364,768,8-22-2022,5-59-29,85,depth_duration_stimuli/000436_2014-06-09_22-25-11_260595134347_rgbf000137-resize_1/000436_2014-06-09_22-25-11_260595134347_rgbf000137-resize_1-target.png,1000,4.0705,2,5538,1013,feet,jsons/v1_VE1000_randls_19.json,1479527,1653865,30,Woman
85,502526,DepthScenes,duration_manipulation_targetAtFixation,jsons/v1_VE1000_randls_19.json,http://54.235.29.9/FacialAge/BNav_EC2/DepthDuration/v2_depth_duration_MTurk/v2_DepthDuration_HTML.html#139,139,1364,768,1364,768,8-22-2022,5-59-29,86,depth_duration_stimuli/002444_2014-06-28_20-32-08_260595134347_rgbf000027-resize_0/002444_2014-06-28_20-32-08_260595134347_rgbf000027-resize_0-target.png,1000,4.388999999999999,3,3958,989,feet,jsons/v1_VE1000_randls_19.json,1479527,1653865,30,Woman
86,502526,DepthScenes,duration_manipulation_targetAtFixation,jsons/v1_VE1000_randls_19.json,http://54.235.29.9/FacialAge/BNav_EC2/DepthDuration/v2_depth_duration_MTurk/v2_DepthDuration_HTML.html#139,139,1364,768,1364,768,8-22-2022,5-59-29,87,depth_duration_stimuli/000773_2014-06-08_22-24-54_260595134347_rgbf000093-resize_1/000773_2014-06-08_22-24-54_260595134347_rgbf000093-resize_1-target.png,1000,4.973,2,3995,996,feet,jsons/v1_VE1000_randls_19.json,1479527,1653865,30,Woman
87,502526,DepthScenes,duration_manipulation_targetAtFixation,jsons/v1_VE1000_randls_19.json,http://54.235.29.9/FacialAge/BNav_EC2/DepthDuration/v2_depth_duration_MTurk/v2_DepthDuration_HTML.html#139,139,1364,768,1364,768,8-22-2022,5-59-29,88,depth_duration_stimuli/002414_2014-06-28_20-24-58_260595134347_rgbf000067-resize_4/002414_2014-06-28_20-24-58_260595134347_rgbf000067-resize_4-target.png,1000,4.363,3,10139,987,feet,jsons/v1_VE1000_randls_19.json,1479527,1653865,30,Woman
88,502526,DepthScenes,duration_manipulation_targetAtFixation,jsons/v1_VE1000_randls_19.json,http://54.235.29.9/FacialAge/BNav_EC2/DepthDuration/v2_depth_duration_MTurk/v2_DepthDuration_HTML.html#139,139,1364,768,1364,768,8-22-2022,5-59-29,89,depth_duration_stimuli/001133_2014-06-17_14-49-16_260595134347_rgbf000100-resize_0/001133_2014-06-17_14-49-16_260595134347_rgbf000100-resize_0-target.png,1000,4.2115,2,20475,1003,feet,jsons/v1_VE1000_randls_19.json,1479527,1653865,30,Woman
89,502526,DepthScenes,duration_manipulation_targetAtFixation,jsons/v1_VE1000_randls_19.json,http://54.235.29.9/FacialAge/BNav_EC2/DepthDuration/v2_depth_duration_MTurk/v2_DepthDuration_HTML.html#139,139,1364,768,1364,768,8-22-2022,5-59-29,90,depth_duration_stimuli/001132_2014-06-17_14-48-54_260595134347_rgbf000100-resize_2/001132_2014-06-17_14-48-54_260595134347_rgbf000100-resize_2-target.png,1000,3.753,3,6407,997,feet,jsons/v1_VE1000_randls_19.json,1479527,1653865,30,Woman
90,502526,DepthScenes,duration_manipulation_targetAtFixation,jsons/v1_VE1000_randls_19.json,http://54.235.29.9/FacialAge/BNav_EC2/DepthDuration/v2_depth_duration_MTurk/v2_DepthDuration_HTML.html#139,139,1364,768,1364,768,8-22-2022,5-59-29,91,depth_duration_stimuli/001011_2014-06-08_23-18-54_260595134347_rgbf000044-resize_4/001011_2014-06-08_23-18-54_260595134347_rgbf000044-resize_4-target.png,1000,2.4730000000000003,2,9280,996,feet,jsons/v1_VE1000_randls_19.json,1479527,1653865,30,Woman
91,502526,DepthScenes,duration_manipulation_targetAtFixation,jsons/v1_VE1000_randls_19.json,http://54.235.29.9/FacialAge/BNav_EC2/DepthDuration/v2_depth_duration_MTurk/v2_DepthDuration_HTML.html#139,139,1364,768,1364,768,8-22-2022,5-59-29,92,depth_duration_stimuli/002875_2014-06-01_15-19-00_094959634447_rgbf000151-resize_1/002875_2014-06-01_15-19-00_094959634447_rgbf000151-resize_1-target.png,1000,1.9675,3,5542,995,feet,jsons/v1_VE1000_randls_19.json,1479527,1653865,30,Woman
92,502526,DepthScenes,duration_manipulation_targetAtFixation,jsons/v1_VE1000_randls_19.json,http://54.235.29.9/FacialAge/BNav_EC2/DepthDuration/v2_depth_duration_MTurk/v2_DepthDuration_HTML.html#139,139,1364,768,1364,768,8-22-2022,5-59-29,93,depth_duration_stimuli/002043_2014-06-24_20-29-38_260595134347_rgbf000039-resize_4/002043_2014-06-24_20-29-38_260595134347_rgbf000039-resize_4-target.png,1000,2.8435,2,4636,993,feet,jsons/v1_VE1000_randls_19.json,1479527,1653865,30,Woman
93,502526,DepthScenes,duration_manipulation_targetAtFixation,jsons/v1_VE1000_randls_19.json,http://54.235.29.9/FacialAge/BNav_EC2/DepthDuration/v2_depth_duration_MTurk/v2_DepthDuration_HTML.html#139,139,1364,768,1364,768,8-22-2022,5-59-29,94,depth_duration_stimuli/003048_2014-06-15_13-49-43_094959634447_rgbf000150-resize_1/003048_2014-06-15_13-49-43_094959634447_rgbf000150-resize_1-target.png,1000,4.0035,3,4241,986,feet,jsons/v1_VE1000_randls_19.json,1479527,1653865,30,Woman
94,502526,DepthScenes,duration_manipulation_targetAtFixation,jsons/v1_VE1000_randls_19.json,http://54.235.29.9/FacialAge/BNav_EC2/DepthDuration/v2_depth_duration_MTurk/v2_DepthDuration_HTML.html#139,139,1364,768,1364,768,8-22-2022,5-59-29,95,depth_duration_stimuli/001555_2014-06-20_17-12-10_260595134347_rgbf000065-resize_4/001555_2014-06-20_17-12-10_260595134347_rgbf000065-resize_4-target.png,1000,1.633,2,8829,993,feet,jsons/v1_VE1000_randls_19.json,1479527,1653865,30,Woman
95,502526,DepthScenes,duration_manipulation_targetAtFixation,jsons/v1_VE1000_randls_19.json,http://54.235.29.9/FacialAge/BNav_EC2/DepthDuration/v2_depth_duration_MTurk/v2_DepthDuration_HTML.html#139,139,1364,768,1364,768,8-22-2022,5-59-29,96,depth_duration_stimuli/000103_2014-05-14_22-01-17_260595134347_rgbf000152-resize_5/000103_2014-05-14_22-01-17_260595134347_rgbf000152-resize_5-target.png,1000,1.993,3,3915,1004,feet,jsons/v1_VE1000_randls_19.json,1479527,1653865,30,Woman
96,502526,DepthScenes,duration_manipulation_targetAtFixation,jsons/v1_VE1000_randls_19.json,http://54.235.29.9/FacialAge/BNav_EC2/DepthDuration/v2_depth_duration_MTurk/v2_DepthDuration_HTML.html#139,139,1364,768,1364,768,8-22-2022,5-59-29,97,depth_duration_stimuli/003621_2014-05-23_18-06-08_094959634447_rgbf000101-resize_1/003621_2014-05-23_18-06-08_094959634447_rgbf000101-resize_1-target.png,1000,3.9835,3,5204,1012,feet,jsons/v1_VE1000_randls_19.json,1479527,1653865,30,Woman
97,502526,DepthScenes,duration_manipulation_targetAtFixation,jsons/v1_VE1000_randls_19.json,http://54.235.29.9/FacialAge/BNav_EC2/DepthDuration/v2_depth_duration_MTurk/v2_DepthDuration_HTML.html#139,139,1364,768,1364,768,8-22-2022,5-59-29,98,depth_duration_stimuli/001584_2014-06-20_11-07-43_260595134347_rgbf000002-resize_1/001584_2014-06-20_11-07-43_260595134347_rgbf000002-resize_1-target.png,1000,3.53,2,3793,997,feet,jsons/v1_VE1000_randls_19.json,1479527,1653865,30,Woman
98,502526,DepthScenes,duration_manipulation_targetAtFixation,jsons/v1_VE1000_randls_19.json,http://54.235.29.9/FacialAge/BNav_EC2/DepthDuration/v2_depth_duration_MTurk/v2_DepthDuration_HTML.html#139,139,1364,768,1364,768,8-22-2022,5-59-29,99,depth_duration_stimuli/001540_2014-06-20_17-01-05_260595134347_rgbf000086-resize_2/001540_2014-06-20_17-01-05_260595134347_rgbf000086-resize-original.jpg,1000,1.459,2,23605,1008,feet,jsons/v1_VE1000_randls_19.json,1479527,1653865,30,Woman
99,502526,DepthScenes,duration_manipulation_targetAtFixation,jsons/v1_VE1000_randls_19.json,http://54.235.29.9/FacialAge/BNav_EC2/DepthDuration/v2_depth_duration_MTurk/v2_DepthDuration_HTML.html#139,139,1364,768,1364,768,8-22-2022,5-59-29,100,depth_duration_stimuli/001066_2014-06-08_22-03-20_260595134347_rgbf000066-resize_4/001066_2014-06-08_22-03-20_260595134347_rgbf000066-resize_4-target.png,1000,4.2330000000000005,2,16915,900,feet,jsons/v1_VE1000_randls_19.json,1479527,1653865,30,Woman
100,502526,DepthScenes,duration_manipulation_targetAtFixation,jsons/v1_VE1000_randls_19.json,http://54.235.29.9/FacialAge/BNav_EC2/DepthDuration/v2_depth_duration_MTurk/v2_DepthDuration_HTML.html#139,139,1364,768,1364,768,8-22-2022,5-59-29,101,depth_duration_stimuli/000742_2014-06-08_18-48-09_260595134347_rgbf000164-resize_4/000742_2014-06-08_18-48-09_260595134347_rgbf000164-resize_4-target.png,1000,4.632,3,4010,999,feet,jsons/v1_VE1000_randls_19.json,1479527,1653865,30,Woman
101,502526,DepthScenes,duration_manipulation_targetAtFixation,jsons/v1_VE1000_randls_19.json,http://54.235.29.9/FacialAge/BNav_EC2/DepthDuration/v2_depth_duration_MTurk/v2_DepthDuration_HTML.html#139,139,1364,768,1364,768,8-22-2022,5-59-29,102,depth_duration_stimuli/000414_2014-06-04_19-49-13_260595134347_rgbf000044-resize_0/000414_2014-06-04_19-49-13_260595134347_rgbf000044-resize_0-target.png,1000,4.329,3,10022,947,feet,jsons/v1_VE1000_randls_19.json,1479527,1653865,30,Woman
102,502526,DepthScenes,duration_manipulation_targetAtFixation,jsons/v1_VE1000_randls_19.json,http://54.235.29.9/FacialAge/BNav_EC2/DepthDuration/v2_depth_duration_MTurk/v2_DepthDuration_HTML.html#139,139,1364,768,1364,768,8-22-2022,5-59-29,103,depth_duration_stimuli/003129_2014-05-12_10-48-10_094959634447_rgbf000100-resize_0/003129_2014-05-12_10-48-10_094959634447_rgbf000100-resize_0-target.png,1000,4.9305,3,3833,990,feet,jsons/v1_VE1000_randls_19.json,1479527,1653865,30,Woman
103,502526,DepthScenes,duration_manipulation_targetAtFixation,jsons/v1_VE1000_randls_19.json,http://54.235.29.9/FacialAge/BNav_EC2/DepthDuration/v2_depth_duration_MTurk/v2_DepthDuration_HTML.html#139,139,1364,768,1364,768,8-22-2022,5-59-29,104,depth_duration_stimuli/001056_2014-06-08_18-46-44_260595134347_rgbf000068-resize_0/001056_2014-06-08_18-46-44_260595134347_rgbf000068-resize_0-target.png,1000,2.6625,3,3817,997,feet,jsons/v1_VE1000_randls_19.json,1479527,1653865,30,Woman
104,502526,DepthScenes,duration_manipulation_targetAtFixation,jsons/v1_VE1000_randls_19.json,http://54.235.29.9/FacialAge/BNav_EC2/DepthDuration/v2_depth_duration_MTurk/v2_DepthDuration_HTML.html#139,139,1364,768,1364,768,8-22-2022,5-59-29,105,depth_duration_stimuli/002199_2014-06-28_18-33-56_260595134347_rgbf000074-resize_0/002199_2014-06-28_18-33-56_260595134347_rgbf000074-resize_0-target.png,1000,1.996,3,3993,999,feet,jsons/v1_VE1000_randls_19.json,1479527,1653865,30,Woman
105,502526,DepthScenes,duration_manipulation_targetAtFixation,jsons/v1_VE1000_randls_19.json,http://54.235.29.9/FacialAge/BNav_EC2/DepthDuration/v2_depth_duration_MTurk/v2_DepthDuration_HTML.html#139,139,1364,768,1364,768,8-22-2022,5-59-29,106,depth_duration_stimuli/000758_2014-06-08_22-05-08_260595134347_rgbf000085-resize_0/000758_2014-06-08_22-05-08_260595134347_rgbf000085-resize_0-target.png,1000,3.3810000000000002,2,4753,997,feet,jsons/v1_VE1000_randls_19.json,1479527,1653865,30,Woman
106,502526,DepthScenes,duration_manipulation_targetAtFixation,jsons/v1_VE1000_randls_19.json,http://54.235.29.9/FacialAge/BNav_EC2/DepthDuration/v2_depth_duration_MTurk/v2_DepthDuration_HTML.html#139,139,1364,768,1364,768,8-22-2022,5-59-29,107,depth_duration_stimuli/000854_2014-06-09_19-43-13_260595134347_rgbf000066-resize_0/000854_2014-06-09_19-43-13_260595134347_rgbf000066-resize_0-target.png,1000,3.068,3,3702,990,feet,jsons/v1_VE1000_randls_19.json,1479527,1653865,30,Woman
107,502526,DepthScenes,duration_manipulation_targetAtFixation,jsons/v1_VE1000_randls_19.json,http://54.235.29.9/FacialAge/BNav_EC2/DepthDuration/v2_depth_duration_MTurk/v2_DepthDuration_HTML.html#139,139,1364,768,1364,768,8-22-2022,5-59-29,108,depth_duration_stimuli/000506_2014-06-08_23-21-00_260595134347_rgbf000070-resize_7/000506_2014-06-08_23-21-00_260595134347_rgbf000070-resize_7-target.png,1000,4.0585,2,4526,997,feet,jsons/v1_VE1000_randls_19.json,1479527,1653865,30,Woman
108,502526,DepthScenes,duration_manipulation_targetAtFixation,jsons/v1_VE1000_randls_19.json,http://54.235.29.9/FacialAge/BNav_EC2/DepthDuration/v2_depth_duration_MTurk/v2_DepthDuration_HTML.html#139,139,1364,768,1364,768,8-22-2022,5-59-29,109,depth_duration_stimuli/003079_2014-06-15_15-18-20_094959634447_rgbf000152-resize_8/003079_2014-06-15_15-18-20_094959634447_rgbf000152-resize_8-target.png,1000,2.8775,3,12973,1000,feet,jsons/v1_VE1000_randls_19.json,1479527,1653865,30,Woman
109,502526,DepthScenes,duration_manipulation_targetAtFixation,jsons/v1_VE1000_randls_19.json,http://54.235.29.9/FacialAge/BNav_EC2/DepthDuration/v2_depth_duration_MTurk/v2_DepthDuration_HTML.html#139,139,1364,768,1364,768,8-22-2022,5-59-29,110,depth_duration_stimuli/000810_2014-06-08_17-20-01_260595134347_rgbf000105-resize_0/000810_2014-06-08_17-20-01_260595134347_rgbf000105-resize_0-target.png,1000,1.4865,3,9406,1012,feet,jsons/v1_VE1000_randls_19.json,1479527,1653865,30,Woman
110,502526,DepthScenes,duration_manipulation_targetAtFixation,jsons/v1_VE1000_randls_19.json,http://54.235.29.9/FacialAge/BNav_EC2/DepthDuration/v2_depth_duration_MTurk/v2_DepthDuration_HTML.html#139,139,1364,768,1364,768,8-22-2022,5-59-29,111,depth_duration_stimuli/001214_2014-06-17_16-13-55_260595134347_rgbf000111-resize_0/001214_2014-06-17_16-13-55_260595134347_rgbf000111-resize_0-target.png,1000,2.6505,3,5396,1000,feet,jsons/v1_VE1000_randls_19.json,1479527,1653865,30,Woman
111,502526,DepthScenes,duration_manipulation_targetAtFixation,jsons/v1_VE1000_randls_19.json,http://54.235.29.9/FacialAge/BNav_EC2/DepthDuration/v2_depth_duration_MTurk/v2_DepthDuration_HTML.html#139,139,1364,768,1364,768,8-22-2022,5-59-29,112,depth_duration_stimuli/002549_2014-06-24_13-41-39_094959634447_rgbf000022-resize_3/002549_2014-06-24_13-41-39_094959634447_rgbf000022-resize_3-target.png,1000,1.476,2,5592,1042,feet,jsons/v1_VE1000_randls_19.json,1479527,1653865,30,Woman
112,502526,DepthScenes,duration_manipulation_targetAtFixation,jsons/v1_VE1000_randls_19.json,http://54.235.29.9/FacialAge/BNav_EC2/DepthDuration/v2_depth_duration_MTurk/v2_DepthDuration_HTML.html#139,139,1364,768,1364,768,8-22-2022,5-59-29,113,depth_duration_stimuli/002750_2014-06-22_19-08-03_094959634447_rgbf000094-resize_4/002750_2014-06-22_19-08-03_094959634447_rgbf000094-resize_4-target.png,1000,2.354,3,3881,994,feet,jsons/v1_VE1000_randls_19.json,1479527,1653865,30,Woman
113,502526,DepthScenes,duration_manipulation_targetAtFixation,jsons/v1_VE1000_randls_19.json,http://54.235.29.9/FacialAge/BNav_EC2/DepthDuration/v2_depth_duration_MTurk/v2_DepthDuration_HTML.html#139,139,1364,768,1364,768,8-22-2022,5-59-29,114,depth_duration_stimuli/002784_2014-06-22_19-26-30_094959634447_rgbf000083-resize_3/002784_2014-06-22_19-26-30_094959634447_rgbf000083-resize_3-target.png,1000,1.8046666666667,3,6801,975,feet,jsons/v1_VE1000_randls_19.json,1479527,1653865,30,Woman
114,502526,DepthScenes,duration_manipulation_targetAtFixation,jsons/v1_VE1000_randls_19.json,http://54.235.29.9/FacialAge/BNav_EC2/DepthDuration/v2_depth_duration_MTurk/v2_DepthDuration_HTML.html#139,139,1364,768,1364,768,8-22-2022,5-59-29,115,depth_duration_stimuli/001100_2014-06-15_17-46-26_260595134347_rgbf000225-resize_2/001100_2014-06-15_17-46-26_260595134347_rgbf000225-resize_2-target.png,1000,2.24,3,11741,999,feet,jsons/v1_VE1000_randls_19.json,1479527,1653865,30,Woman
115,502526,DepthScenes,duration_manipulation_targetAtFixation,jsons/v1_VE1000_randls_19.json,http://54.235.29.9/FacialAge/BNav_EC2/DepthDuration/v2_depth_duration_MTurk/v2_DepthDuration_HTML.html#139,139,1364,768,1364,768,8-22-2022,5-59-29,116,depth_duration_stimuli/001170_2014-06-17_15-43-44_260595134347_rgbf000096-resize_6/001170_2014-06-17_15-43-44_260595134347_rgbf000096-resize-original.jpg,1000,1.1909999999999998,2,4855,1009,feet,jsons/v1_VE1000_randls_19.json,1479527,1653865,30,Woman
116,502526,DepthScenes,duration_manipulation_targetAtFixation,jsons/v1_VE1000_randls_19.json,http://54.235.29.9/FacialAge/BNav_EC2/DepthDuration/v2_depth_duration_MTurk/v2_DepthDuration_HTML.html#139,139,1364,768,1364,768,8-22-2022,5-59-29,117,depth_duration_stimuli/000368_2014-06-09_15-53-01_260595134347_rgbf000155-resize_2/000368_2014-06-09_15-53-01_260595134347_rgbf000155-resize_2-target.png,1000,2.4859999999999998,3,4443,1000,feet,jsons/v1_VE1000_randls_19.json,1479527,1653865,30,Woman
117,502526,DepthScenes,duration_manipulation_targetAtFixation,jsons/v1_VE1000_randls_19.json,http://54.235.29.9/FacialAge/BNav_EC2/DepthDuration/v2_depth_duration_MTurk/v2_DepthDuration_HTML.html#139,139,1364,768,1364,768,8-22-2022,5-59-29,118,depth_duration_stimuli/002678_2014-06-13_16-15-32_094959634447_rgbf000151-resize_6/002678_2014-06-13_16-15-32_094959634447_rgbf000151-resize_6-target.png,1000,2.1830000000000003,3,3880,999,feet,jsons/v1_VE1000_randls_19.json,1479527,1653865,30,Woman
118,502526,DepthScenes,duration_manipulation_targetAtFixation,jsons/v1_VE1000_randls_19.json,http://54.235.29.9/FacialAge/BNav_EC2/DepthDuration/v2_depth_duration_MTurk/v2_DepthDuration_HTML.html#139,139,1364,768,1364,768,8-22-2022,5-59-29,119,depth_duration_stimuli/002989_2014-06-15_12-25-03_094959634447_rgbf000150-resize_3/002989_2014-06-15_12-25-03_094959634447_rgbf000150-resize_3-target.png,1000,4.1975,2,4516,986,feet,jsons/v1_VE1000_randls_19.json,1479527,1653865,30,Woman
119,502526,DepthScenes,duration_manipulation_targetAtFixation,jsons/v1_VE1000_randls_19.json,http://54.235.29.9/FacialAge/BNav_EC2/DepthDuration/v2_depth_duration_MTurk/v2_DepthDuration_HTML.html#139,139,1364,768,1364,768,8-22-2022,5-59-29,120,depth_duration_stimuli/000866_2014-06-09_20-45-42_260595134347_rgbf000139-resize_1/000866_2014-06-09_20-45-42_260595134347_rgbf000139-resize_1-target.png,1000,3.2155,3,3821,998,feet,jsons/v1_VE1000_randls_19.json,1479527,1653865,30,Woman
120,502526,DepthScenes,duration_manipulation_targetAtFixation,jsons/v1_VE1000_randls_19.json,http://54.235.29.9/FacialAge/BNav_EC2/DepthDuration/v2_depth_duration_MTurk/v2_DepthDuration_HTML.html#139,139,1364,768,1364,768,8-22-2022,5-59-29,121,depth_duration_stimuli/001055_2014-06-08_18-45-35_260595134347_rgbf000111-resize_4/001055_2014-06-08_18-45-35_260595134347_rgbf000111-resize_4-target.png,1000,2.4290000000000003,2,4530,998,feet,jsons/v1_VE1000_randls_19.json,1479527,1653865,30,Woman
121,502526,DepthScenes,duration_manipulation_targetAtFixation,jsons/v1_VE1000_randls_19.json,http://54.235.29.9/FacialAge/BNav_EC2/DepthDuration/v2_depth_duration_MTurk/v2_DepthDuration_HTML.html#139,139,1364,768,1364,768,8-22-2022,5-59-29,122,depth_duration_stimuli/000549_2014-06-08_22-10-24_260595134347_rgbf000247-resize_3/000549_2014-06-08_22-10-24_260595134347_rgbf000247-resize_3-target.png,1000,1.841,3,3802,988,feet,jsons/v1_VE1000_randls_19.json,1479527,1653865,30,Woman
122,502526,DepthScenes,duration_manipulation_targetAtFixation,jsons/v1_VE1000_randls_19.json,http://54.235.29.9/FacialAge/BNav_EC2/DepthDuration/v2_depth_duration_MTurk/v2_DepthDuration_HTML.html#139,139,1364,768,1364,768,8-22-2022,5-59-29,123,depth_duration_stimuli/001016_2014-06-09_16-16-10_260595134347_rgbf000112-resize_5/001016_2014-06-09_16-16-10_260595134347_rgbf000112-resize_5-target.png,1000,1.6565,3,10197,926,feet,jsons/v1_VE1000_randls_19.json,1479527,1653865,30,Woman
123,502526,DepthScenes,duration_manipulation_targetAtFixation,jsons/v1_VE1000_randls_19.json,http://54.235.29.9/FacialAge/BNav_EC2/DepthDuration/v2_depth_duration_MTurk/v2_DepthDuration_HTML.html#139,139,1364,768,1364,768,8-22-2022,5-59-29,124,depth_duration_stimuli/002340_2014-06-28_20-05-46_260595134347_rgbf000113-resize_0/002340_2014-06-28_20-05-46_260595134347_rgbf000113-resize_0-target.png,1000,2.4735,2,7529,1004,feet,jsons/v1_VE1000_randls_19.json,1479527,1653865,30,Woman
124,502526,DepthScenes,duration_manipulation_targetAtFixation,jsons/v1_VE1000_randls_19.json,http://54.235.29.9/FacialAge/BNav_EC2/DepthDuration/v2_depth_duration_MTurk/v2_DepthDuration_HTML.html#139,139,1364,768,1364,768,8-22-2022,5-59-29,125,depth_duration_stimuli/000009_2014-05-26_14-32-05_260595134347_rgbf000034-resize_3/000009_2014-05-26_14-32-05_260595134347_rgbf000034-resize_3-target.png,1000,3.8715,3,5544,989,feet,jsons/v1_VE1000_randls_19.json,1479527,1653865,30,Woman
125,502526,DepthScenes,duration_manipulation_targetAtFixation,jsons/v1_VE1000_randls_19.json,http://54.235.29.9/FacialAge/BNav_EC2/DepthDuration/v2_depth_duration_MTurk/v2_DepthDuration_HTML.html#139,139,1364,768,1364,768,8-22-2022,5-59-29,126,depth_duration_stimuli/001828_2014-06-26_21-40-03_260595134347_rgbf000024-resize_0/001828_2014-06-26_21-40-03_260595134347_rgbf000024-resize_0-target.png,1000,4.8260000000000005,3,4234,1008,feet,jsons/v1_VE1000_randls_19.json,1479527,1653865,30,Woman
126,502526,DepthScenes,duration_manipulation_targetAtFixation,jsons/v1_VE1000_randls_19.json,http://54.235.29.9/FacialAge/BNav_EC2/DepthDuration/v2_depth_duration_MTurk/v2_DepthDuration_HTML.html#139,139,1364,768,1364,768,8-22-2022,5-59-29,127,depth_duration_stimuli/002279_2014-06-28_18-55-32_260595134347_rgbf000040-resize_5/002279_2014-06-28_18-55-32_260595134347_rgbf000040-resize_5-target.png,1000,1.5043333333333,2,4828,995,feet,jsons/v1_VE1000_randls_19.json,1479527,1653865,30,Woman
127,502526,DepthScenes,duration_manipulation_targetAtFixation,jsons/v1_VE1000_randls_19.json,http://54.235.29.9/FacialAge/BNav_EC2/DepthDuration/v2_depth_duration_MTurk/v2_DepthDuration_HTML.html#139,139,1364,768,1364,768,8-22-2022,5-59-29,128,depth_duration_stimuli/000635_2014-06-08_16-38-42_260595134347_rgbf000106-resize_1/000635_2014-06-08_16-38-42_260595134347_rgbf000106-resize_1-target.png,1000,2.074,3,4624,1008,feet,jsons/v1_VE1000_randls_19.json,1479527,1653865,30,Woman
128,502526,DepthScenes,duration_manipulation_targetAtFixation,jsons/v1_VE1000_randls_19.json,http://54.235.29.9/FacialAge/BNav_EC2/DepthDuration/v2_depth_duration_MTurk/v2_DepthDuration_HTML.html#139,139,1364,768,1364,768,8-22-2022,5-59-29,129,depth_duration_stimuli/001164_2014-06-17_15-35-46_260595134347_rgbf000085-resize_3/001164_2014-06-17_15-35-46_260595134347_rgbf000085-resize_3-target.png,1000,2.354,2,4995,979,feet,jsons/v1_VE1000_randls_19.json,1479527,1653865,30,Woman
129,502526,DepthScenes,duration_manipulation_targetAtFixation,jsons/v1_VE1000_randls_19.json,http://54.235.29.9/FacialAge/BNav_EC2/DepthDuration/v2_depth_duration_MTurk/v2_DepthDuration_HTML.html#139,139,1364,768,1364,768,8-22-2022,5-59-29,130,depth_duration_stimuli/001136_2014-06-17_15-19-41_260595134347_rgbf000076-resize_3/001136_2014-06-17_15-19-41_260595134347_rgbf000076-resize_3-target.png,1000,1.8655,3,4898,1274,feet,jsons/v1_VE1000_randls_19.json,1479527,1653865,30,Woman
130,502526,DepthScenes,duration_manipulation_targetAtFixation,jsons/v1_VE1000_randls_19.json,http://54.235.29.9/FacialAge/BNav_EC2/DepthDuration/v2_depth_duration_MTurk/v2_DepthDuration_HTML.html#139,139,1364,768,1364,768,8-22-2022,5-59-29,131,depth_duration_stimuli/000739_2014-06-08_18-45-58_260595134347_rgbf000068-resize_1/000739_2014-06-08_18-45-58_260595134347_rgbf000068-resize_1-target.png,1000,3.534,2,32580,1002,feet,jsons/v1_VE1000_randls_19.json,1479527,1653865,30,Woman
131,502526,DepthScenes,duration_manipulation_targetAtFixation,jsons/v1_VE1000_randls_19.json,http://54.235.29.9/FacialAge/BNav_EC2/DepthDuration/v2_depth_duration_MTurk/v2_DepthDuration_HTML.html#139,139,1364,768,1364,768,8-22-2022,5-59-29,132,depth_duration_stimuli/000734_2014-06-08_17-39-11_260595134347_rgbf000128-resize_2/000734_2014-06-08_17-39-11_260595134347_rgbf000128-resize_2-target.png,1000,4.098,3,3656,1008,feet,jsons/v1_VE1000_randls_19.json,1479527,1653865,30,Woman
132,502526,DepthScenes,duration_manipulation_targetAtFixation,jsons/v1_VE1000_randls_19.json,http://54.235.29.9/FacialAge/BNav_EC2/DepthDuration/v2_depth_duration_MTurk/v2_DepthDuration_HTML.html#139,139,1364,768,1364,768,8-22-2022,5-59-29,133,depth_duration_stimuli/001158_2014-06-17_15-32-16_260595134347_rgbf000138-resize_2/001158_2014-06-17_15-32-16_260595134347_rgbf000138-resize_2-target.png,1000,4.5315,2,4097,1000,feet,jsons/v1_VE1000_randls_19.json,1479527,1653865,30,Woman
133,502526,DepthScenes,duration_manipulation_targetAtFixation,jsons/v1_VE1000_randls_19.json,http://54.235.29.9/FacialAge/BNav_EC2/DepthDuration/v2_depth_duration_MTurk/v2_DepthDuration_HTML.html#139,139,1364,768,1364,768,8-22-2022,5-59-29,134,depth_duration_stimuli/000556_2014-06-09_22-42-56_260595134347_rgbf000214-resize_1/000556_2014-06-09_22-42-56_260595134347_rgbf000214-resize_1-target.png,1000,4.8415,3,4090,999,feet,jsons/v1_VE1000_randls_19.json,1479527,1653865,30,Woman
134,502526,DepthScenes,duration_manipulation_targetAtFixation,jsons/v1_VE1000_randls_19.json,http://54.235.29.9/FacialAge/BNav_EC2/DepthDuration/v2_depth_duration_MTurk/v2_DepthDuration_HTML.html#139,139,1364,768,1364,768,8-22-2022,5-59-29,135,depth_duration_stimuli/002072_2014-06-24_21-48-06_260595134347_rgbf000115-resize_0/002072_2014-06-24_21-48-06_260595134347_rgbf000115-resize-original.jpg,1000,4.702,2,4946,997,feet,jsons/v1_VE1000_randls_19.json,1479527,1653865,30,Woman
135,502526,DepthScenes,duration_manipulation_targetAtFixation,jsons/v1_VE1000_randls_19.json,http://54.235.29.9/FacialAge/BNav_EC2/DepthDuration/v2_depth_duration_MTurk/v2_DepthDuration_HTML.html#139,139,1364,768,1364,768,8-22-2022,5-59-29,136,depth_duration_stimuli/001059_2014-06-08_21-53-27_260595134347_rgbf000061-resize_4/001059_2014-06-08_21-53-27_260595134347_rgbf000061-resize_4-target.png,1000,2.4185,3,4945,958,feet,jsons/v1_VE1000_randls_19.json,1479527,1653865,30,Woman
136,502526,DepthScenes,duration_manipulation_targetAtFixation,jsons/v1_VE1000_randls_19.json,http://54.235.29.9/FacialAge/BNav_EC2/DepthDuration/v2_depth_duration_MTurk/v2_DepthDuration_HTML.html#139,139,1364,768,1364,768,8-22-2022,5-59-29,137,depth_duration_stimuli/001032_2014-06-08_13-23-17_260595134347_rgbf000021-resize_3/001032_2014-06-08_13-23-17_260595134347_rgbf000021-resize_3-target.png,1000,3.2725,3,4063,1002,feet,jsons/v1_VE1000_randls_19.json,1479527,1653865,30,Woman
137,502526,DepthScenes,duration_manipulation_targetAtFixation,jsons/v1_VE1000_randls_19.json,http://54.235.29.9/FacialAge/BNav_EC2/DepthDuration/v2_depth_duration_MTurk/v2_DepthDuration_HTML.html#139,139,1364,768,1364,768,8-22-2022,5-59-29,138,depth_duration_stimuli/001417_2014-06-19_16-25-36_260595134347_rgbf000115-resize_5/001417_2014-06-19_16-25-36_260595134347_rgbf000115-resize_5-target.png,1000,4.6255,3,4487,1004,feet,jsons/v1_VE1000_randls_19.json,1479527,1653865,30,Woman
138,502526,DepthScenes,duration_manipulation_targetAtFixation,jsons/v1_VE1000_randls_19.json,http://54.235.29.9/FacialAge/BNav_EC2/DepthDuration/v2_depth_duration_MTurk/v2_DepthDuration_HTML.html#139,139,1364,768,1364,768,8-22-2022,5-59-29,139,depth_duration_stimuli/003081_2014-06-15_15-19-16_094959634447_rgbf000150-resize_1/003081_2014-06-15_15-19-16_094959634447_rgbf000150-resize_1-target.png,1000,3.9125,3,3722,850,feet,jsons/v1_VE1000_randls_19.json,1479527,1653865,30,Woman
139,502526,DepthScenes,duration_manipulation_targetAtFixation,jsons/v1_VE1000_randls_19.json,http://54.235.29.9/FacialAge/BNav_EC2/DepthDuration/v2_depth_duration_MTurk/v2_DepthDuration_HTML.html#139,139,1364,768,1364,768,8-22-2022,5-59-29,140,depth_duration_stimuli/001199_2014-06-17_16-03-48_260595134347_rgbf000077-resize_0/001199_2014-06-17_16-03-48_260595134347_rgbf000077-resize_0-target.png,1000,3.4375,3,4074,999,feet,jsons/v1_VE1000_randls_19.json,1479527,1653865,30,Woman
140,502526,DepthScenes,duration_manipulation_targetAtFixation,jsons/v1_VE1000_randls_19.json,http://54.235.29.9/FacialAge/BNav_EC2/DepthDuration/v2_depth_duration_MTurk/v2_DepthDuration_HTML.html#139,139,1364,768,1364,768,8-22-2022,5-59-29,141,depth_duration_stimuli/000502_2014-06-08_23-02-32_260595134347_rgbf000063-resize_4/000502_2014-06-08_23-02-32_260595134347_rgbf000063-resize_4-target.png,1000,2.431,2,33231,969,feet,jsons/v1_VE1000_randls_19.json,1479527,1653865,30,Woman
141,502526,DepthScenes,duration_manipulation_targetAtFixation,jsons/v1_VE1000_randls_19.json,http://54.235.29.9/FacialAge/BNav_EC2/DepthDuration/v2_depth_duration_MTurk/v2_DepthDuration_HTML.html#139,139,1364,768,1364,768,8-22-2022,5-59-29,142,depth_duration_stimuli/000447_2014-06-08_16-15-46_260595134347_rgbf000130-resize_1/000447_2014-06-08_16-15-46_260595134347_rgbf000130-resize_1-target.png,1000,4.479,3,4421,998,feet,jsons/v1_VE1000_randls_19.json,1479527,1653865,30,Woman
142,502526,DepthScenes,duration_manipulation_targetAtFixation,jsons/v1_VE1000_randls_19.json,http://54.235.29.9/FacialAge/BNav_EC2/DepthDuration/v2_depth_duration_MTurk/v2_DepthDuration_HTML.html#139,139,1364,768,1364,768,8-22-2022,5-59-29,143,depth_duration_stimuli/001447_2014-06-19_17-00-32_260595134347_rgbf000082-resize_5/001447_2014-06-19_17-00-32_260595134347_rgbf000082-resize_5-target.png,1000,4.13775,2,4947,997,feet,jsons/v1_VE1000_randls_19.json,1479527,1653865,30,Woman
143,502526,DepthScenes,duration_manipulation_targetAtFixation,jsons/v1_VE1000_randls_19.json,http://54.235.29.9/FacialAge/BNav_EC2/DepthDuration/v2_depth_duration_MTurk/v2_DepthDuration_HTML.html#139,139,1364,768,1364,768,8-22-2022,5-59-29,144,depth_duration_stimuli/001449_2014-06-19_17-01-27_260595134347_rgbf000116-resize_2/001449_2014-06-19_17-01-27_260595134347_rgbf000116-resize_2-target.png,1000,3.452,2,4751,905,feet,jsons/v1_VE1000_randls_19.json,1479527,1653865,30,Woman
144,502526,DepthScenes,duration_manipulation_targetAtFixation,jsons/v1_VE1000_randls_19.json,http://54.235.29.9/FacialAge/BNav_EC2/DepthDuration/v2_depth_duration_MTurk/v2_DepthDuration_HTML.html#139,139,1364,768,1364,768,8-22-2022,5-59-29,145,depth_duration_stimuli/001450_2014-06-19_17-02-03_260595134347_rgbf000203-resize_4/001450_2014-06-19_17-02-03_260595134347_rgbf000203-resize_4-target.png,1000,4.0106666666667,3,3638,994,feet,jsons/v1_VE1000_randls_19.json,1479527,1653865,30,Woman
145,502526,DepthScenes,duration_manipulation_targetAtFixation,jsons/v1_VE1000_randls_19.json,http://54.235.29.9/FacialAge/BNav_EC2/DepthDuration/v2_depth_duration_MTurk/v2_DepthDuration_HTML.html#139,139,1364,768,1364,768,8-22-2022,5-59-29,146,depth_duration_stimuli/001498_2014-06-19_17-45-14_260595134347_rgbf000129-resize_4/001498_2014-06-19_17-45-14_260595134347_rgbf000129-resize-original.jpg,1000,1.4075,2,23858,1010,feet,jsons/v1_VE1000_randls_19.json,1479527,1653865,30,Woman
146,502526,DepthScenes,duration_manipulation_targetAtFixation,jsons/v1_VE1000_randls_19.json,http://54.235.29.9/FacialAge/BNav_EC2/DepthDuration/v2_depth_duration_MTurk/v2_DepthDuration_HTML.html#139,139,1364,768,1364,768,8-22-2022,5-59-29,147,depth_duration_stimuli/000522_2014-06-08_13-35-06_260595134347_rgbf000244-resize_1/000522_2014-06-08_13-35-06_260595134347_rgbf000244-resize_1-target.png,1000,2.3715,3,4545,999,feet,jsons/v1_VE1000_randls_19.json,1479527,1653865,30,Woman
147,502526,DepthScenes,duration_manipulation_targetAtFixation,jsons/v1_VE1000_randls_19.json,http://54.235.29.9/FacialAge/BNav_EC2/DepthDuration/v2_depth_duration_MTurk/v2_DepthDuration_HTML.html#139,139,1364,768,1364,768,8-22-2022,5-59-29,148,depth_duration_stimuli/002949_2014-06-26_15-57-42_094959634447_rgbf000079-resize_1/002949_2014-06-26_15-57-42_094959634447_rgbf000079-resize_1-target.png,1000,1.8915,2,5690,999,feet,jsons/v1_VE1000_randls_19.json,1479527,1653865,30,Woman
148,502526,DepthScenes,duration_manipulation_targetAtFixation,jsons/v1_VE1000_randls_19.json,http://54.235.29.9/FacialAge/BNav_EC2/DepthDuration/v2_depth_duration_MTurk/v2_DepthDuration_HTML.html#139,139,1364,768,1364,768,8-22-2022,5-59-29,149,depth_duration_stimuli/000682_2014-06-08_23-14-58_260595134347_rgbf000041-resize_5/000682_2014-06-08_23-14-58_260595134347_rgbf000041-resize_5-target.png,1000,2.7239999999999998,3,23382,1059,feet,jsons/v1_VE1000_randls_19.json,1479527,1653865,30,Woman
149,502526,DepthScenes,duration_manipulation_targetAtFixation,jsons/v1_VE1000_randls_19.json,http://54.235.29.9/FacialAge/BNav_EC2/DepthDuration/v2_depth_duration_MTurk/v2_DepthDuration_HTML.html#139,139,1364,768,1364,768,8-22-2022,5-59-29,150,depth_duration_stimuli/001650_2014-06-20_12-09-00_260595134347_rgbf000087-resize_3/001650_2014-06-20_12-09-00_260595134347_rgbf000087-resize_3-target.png,1000,1.9505,3,3663,1008,feet,jsons/v1_VE1000_randls_19.json,1479527,1653865,30,Woman
150,502526,DepthScenes,duration_manipulation_targetAtFixation,jsons/v1_VE1000_randls_19.json,http://54.235.29.9/FacialAge/BNav_EC2/DepthDuration/v2_depth_duration_MTurk/v2_DepthDuration_HTML.html#139,139,1364,768,1364,768,8-22-2022,5-59-29,151,depth_duration_stimuli/002788_2014-06-22_19-36-03_094959634447_rgbf000088-resize_2/002788_2014-06-22_19-36-03_094959634447_rgbf000088-resize_2-target.png,1000,1.6465,3,3459,996,feet,jsons/v1_VE1000_randls_19.json,1479527,1653865,30,Woman
151,502526,DepthScenes,duration_manipulation_targetAtFixation,jsons/v1_VE1000_randls_19.json,http://54.235.29.9/FacialAge/BNav_EC2/DepthDuration/v2_depth_duration_MTurk/v2_DepthDuration_HTML.html#139,139,1364,768,1364,768,8-22-2022,5-59-29,152,depth_duration_stimuli/000749_2014-06-08_21-55-06_260595134347_rgbf000070-resize_2/000749_2014-06-08_21-55-06_260595134347_rgbf000070-resize_2-target.png,1000,2.331,2,8834,994,feet,jsons/v1_VE1000_randls_19.json,1479527,1653865,30,Woman
152,502526,DepthScenes,duration_manipulation_targetAtFixation,jsons/v1_VE1000_randls_19.json,http://54.235.29.9/FacialAge/BNav_EC2/DepthDuration/v2_depth_duration_MTurk/v2_DepthDuration_HTML.html#139,139,1364,768,1364,768,8-22-2022,5-59-29,153,depth_duration_stimuli/002964_2014-06-08_17-46-11_094959634447_rgbf000091-resize_4/002964_2014-06-08_17-46-11_094959634447_rgbf000091-resize_4-target.png,1000,1.6909999999999998,3,4200,999,feet,jsons/v1_VE1000_randls_19.json,1479527,1653865,30,Woman
153,502526,DepthScenes,duration_manipulation_targetAtFixation,jsons/v1_VE1000_randls_19.json,http://54.235.29.9/FacialAge/BNav_EC2/DepthDuration/v2_depth_duration_MTurk/v2_DepthDuration_HTML.html#139,139,1364,768,1364,768,8-22-2022,5-59-29,154,depth_duration_stimuli/002136_2014-06-25_21-18-03_260595134347_rgbf000109-resize_3/002136_2014-06-25_21-18-03_260595134347_rgbf000109-resize_3-target.png,1000,1.9569999999999999,3,4076,1119,feet,jsons/v1_VE1000_randls_19.json,1479527,1653865,30,Woman
154,502526,DepthScenes,duration_manipulation_targetAtFixation,jsons/v1_VE1000_randls_19.json,http://54.235.29.9/FacialAge/BNav_EC2/DepthDuration/v2_depth_duration_MTurk/v2_DepthDuration_HTML.html#139,139,1364,768,1364,768,8-22-2022,5-59-29,155,depth_duration_stimuli/002509_2014-06-24_13-19-22_094959634447_rgbf000077-resize_0/002509_2014-06-24_13-19-22_094959634447_rgbf000077-resize_0-target.png,1000,1.3065,2,4031,999,feet,jsons/v1_VE1000_randls_19.json,1479527,1653865,30,Woman
155,502526,DepthScenes,duration_manipulation_targetAtFixation,jsons/v1_VE1000_randls_19.json,http://54.235.29.9/FacialAge/BNav_EC2/DepthDuration/v2_depth_duration_MTurk/v2_DepthDuration_HTML.html#139,139,1364,768,1364,768,8-22-2022,5-59-29,156,depth_duration_stimuli/003338_2014-05-20_11-01-23_094959634447_rgbf000051-resize_6/003338_2014-05-20_11-01-23_094959634447_rgbf000051-resize_6-target.png,1000,1.693,3,4115,993,feet,jsons/v1_VE1000_randls_19.json,1479527,1653865,30,Woman
156,502526,DepthScenes,duration_manipulation_targetAtFixation,jsons/v1_VE1000_randls_19.json,http://54.235.29.9/FacialAge/BNav_EC2/DepthDuration/v2_depth_duration_MTurk/v2_DepthDuration_HTML.html#139,139,1364,768,1364,768,8-22-2022,5-59-29,157,depth_duration_stimuli/000736_2014-06-08_18-24-15_260595134347_rgbf000206-resize_3/000736_2014-06-08_18-24-15_260595134347_rgbf000206-resize_3-target.png,1000,3.515,3,11507,1012,feet,jsons/v1_VE1000_randls_19.json,1479527,1653865,30,Woman
157,502526,DepthScenes,duration_manipulation_targetAtFixation,jsons/v1_VE1000_randls_19.json,http://54.235.29.9/FacialAge/BNav_EC2/DepthDuration/v2_depth_duration_MTurk/v2_DepthDuration_HTML.html#139,139,1364,768,1364,768,8-22-2022,5-59-29,158,depth_duration_stimuli/000137_2014-05-20_17-04-49_260595134347_rgbf000120-resize_1/000137_2014-05-20_17-04-49_260595134347_rgbf000120-resize_1-target.png,1000,3.786,3,4082,993,feet,jsons/v1_VE1000_randls_19.json,1479527,1653865,30,Woman
158,502526,DepthScenes,duration_manipulation_targetAtFixation,jsons/v1_VE1000_randls_19.json,http://54.235.29.9/FacialAge/BNav_EC2/DepthDuration/v2_depth_duration_MTurk/v2_DepthDuration_HTML.html#139,139,1364,768,1364,768,8-22-2022,5-59-29,159,depth_duration_stimuli/001167_2014-06-17_15-38-07_260595134347_rgbf000108-resize_0/001167_2014-06-17_15-38-07_260595134347_rgbf000108-resize_0-target.png,1000,1.8505,2,4368,1000,feet,jsons/v1_VE1000_randls_19.json,1479527,1653865,30,Woman
159,502526,DepthScenes,duration_manipulation_targetAtFixation,jsons/v1_VE1000_randls_19.json,http://54.235.29.9/FacialAge/BNav_EC2/DepthDuration/v2_depth_duration_MTurk/v2_DepthDuration_HTML.html#139,139,1364,768,1364,768,8-22-2022,5-59-29,160,depth_duration_stimuli/003587_2014-05-23_16-48-02_094959634447_rgbf002384-resize_2/003587_2014-05-23_16-48-02_094959634447_rgbf002384-resize_2-target.png,1000,1.357,3,3995,1008,feet,jsons/v1_VE1000_randls_19.json,1479527,1653865,30,Woman
160,502526,DepthScenes,duration_manipulation_targetAtFixation,jsons/v1_VE1000_randls_19.json,http://54.235.29.9/FacialAge/BNav_EC2/DepthDuration/v2_depth_duration_MTurk/v2_DepthDuration_HTML.html#139,139,1364,768,1364,768,8-22-2022,5-59-29,161,depth_duration_stimuli/002763_2014-06-22_19-13-10_094959634447_rgbf000075-resize_4/002763_2014-06-22_19-13-10_094959634447_rgbf000075-resize_4-target.png,1000,1.68375,3,5077,995,feet,jsons/v1_VE1000_randls_19.json,1479527,1653865,30,Woman
161,502526,DepthScenes,duration_manipulation_targetAtFixation,jsons/v1_VE1000_randls_19.json,http://54.235.29.9/FacialAge/BNav_EC2/DepthDuration/v2_depth_duration_MTurk/v2_DepthDuration_HTML.html#139,139,1364,768,1364,768,8-22-2022,5-59-29,162,depth_duration_stimuli/002209_2014-06-28_18-36-10_260595134347_rgbf000051-resize_1/002209_2014-06-28_18-36-10_260595134347_rgbf000051-resize_1-target.png,1000,2.057,3,5616,990,feet,jsons/v1_VE1000_randls_19.json,1479527,1653865,30,Woman
162,502526,DepthScenes,duration_manipulation_targetAtFixation,jsons/v1_VE1000_randls_19.json,http://54.235.29.9/FacialAge/BNav_EC2/DepthDuration/v2_depth_duration_MTurk/v2_DepthDuration_HTML.html#139,139,1364,768,1364,768,8-22-2022,5-59-29,163,depth_duration_stimuli/002748_2014-06-22_19-07-22_094959634447_rgbf000078-resize_1/002748_2014-06-22_19-07-22_094959634447_rgbf000078-resize_1-target.png,1000,4.6705,3,5300,974,feet,jsons/v1_VE1000_randls_19.json,1479527,1653865,30,Woman
163,502526,DepthScenes,duration_manipulation_targetAtFixation,jsons/v1_VE1000_randls_19.json,http://54.235.29.9/FacialAge/BNav_EC2/DepthDuration/v2_depth_duration_MTurk/v2_DepthDuration_HTML.html#139,139,1364,768,1364,768,8-22-2022,5-59-29,164,depth_duration_stimuli/002995_2014-06-15_12-31-26_094959634447_rgbf000150-resize_1/002995_2014-06-15_12-31-26_094959634447_rgbf000150-resize_1-target.png,1000,3.8360000000000003,2,4245,981,feet,jsons/v1_VE1000_randls_19.json,1479527,1653865,30,Woman
