,subjID,experimentName,versionName,sequenceName,url,selected_row,windowWidth,windowHeight,screenWidth,screenHeight,startDate,startTime,trial,stimulus,duration,actual_depth,depth_estimate,trial_RT,log_sceneDuration,unitSelection,seq_filepath,experimentTime,totalTime,age,gender
0,503582,DepthScenes,duration_manipulation_targetAtFixation,jsons/VE125_randls_28_rotated.json,http://54.235.29.9/FacialAge/BNav_EC2/DepthDuration/v2_depth_duration_MTurk/v2_DepthDuration_HTML.html#106,106,1768,920,1768,992,9-18-2022,10-25-35,1,depth_duration_stimuli/002136_2014-06-25_21-18-03_260595134347_rgbf000109-resize_3/002136_2014-06-25_21-18-03_260595134347_rgbf000109-resize_3-target.png,125,1.9569999999999999,1,2627,136,feet,jsons/VE125_randls_28_rotated.json,657694,871540,36,Man
1,503582,DepthScenes,duration_manipulation_targetAtFixation,jsons/VE125_randls_28_rotated.json,http://54.235.29.9/FacialAge/BNav_EC2/DepthDuration/v2_depth_duration_MTurk/v2_DepthDuration_HTML.html#106,106,1768,920,1768,992,9-18-2022,10-25-35,2,depth_duration_stimuli/002964_2014-06-08_17-46-11_094959634447_rgbf000091-resize_4/002964_2014-06-08_17-46-11_094959634447_rgbf000091-resize_4-target.png,125,1.6909999999999998,1,2746,124,feet,jsons/VE125_randls_28_rotated.json,657694,871540,36,Man
2,503582,DepthScenes,duration_manipulation_targetAtFixation,jsons/VE125_randls_28_rotated.json,http://54.235.29.9/FacialAge/BNav_EC2/DepthDuration/v2_depth_duration_MTurk/v2_DepthDuration_HTML.html#106,106,1768,920,1768,992,9-18-2022,10-25-35,3,depth_duration_stimuli/000866_2014-06-09_20-45-42_260595134347_rgbf000139-resize_1/000866_2014-06-09_20-45-42_260595134347_rgbf000139-resize_1-target.png,125,3.2155,3,2875,127,feet,jsons/VE125_randls_28_rotated.json,657694,871540,36,Man
3,503582,DepthScenes,duration_manipulation_targetAtFixation,jsons/VE125_randls_28_rotated.json,http://54.235.29.9/FacialAge/BNav_EC2/DepthDuration/v2_depth_duration_MTurk/v2_DepthDuration_HTML.html#106,106,1768,920,1768,992,9-18-2022,10-25-35,4,depth_duration_stimuli/002989_2014-06-15_12-25-03_094959634447_rgbf000150-resize_3/002989_2014-06-15_12-25-03_094959634447_rgbf000150-resize_3-target.png,125,4.1975,6,3651,125,feet,jsons/VE125_randls_28_rotated.json,657694,871540,36,Man
4,503582,DepthScenes,duration_manipulation_targetAtFixation,jsons/VE125_randls_28_rotated.json,http://54.235.29.9/FacialAge/BNav_EC2/DepthDuration/v2_depth_duration_MTurk/v2_DepthDuration_HTML.html#106,106,1768,920,1768,992,9-18-2022,10-25-35,5,depth_duration_stimuli/000409_2014-06-04_19-23-33_260595134347_rgbf000067-resize_0/000409_2014-06-04_19-23-33_260595134347_rgbf000067-resize_0-target.png,125,3.7335,4,3099,125,feet,jsons/VE125_randls_28_rotated.json,657694,871540,36,Man
5,503582,DepthScenes,duration_manipulation_targetAtFixation,jsons/VE125_randls_28_rotated.json,http://54.235.29.9/FacialAge/BNav_EC2/DepthDuration/v2_depth_duration_MTurk/v2_DepthDuration_HTML.html#106,106,1768,920,1768,992,9-18-2022,10-25-35,6,depth_duration_stimuli/002663_2014-06-13_15-50-26_094959634447_rgbf000075-resize_1/002663_2014-06-13_15-50-26_094959634447_rgbf000075-resize_1-target.png,125,4.7495,8,3325,124,feet,jsons/VE125_randls_28_rotated.json,657694,871540,36,Man
6,503582,DepthScenes,duration_manipulation_targetAtFixation,jsons/VE125_randls_28_rotated.json,http://54.235.29.9/FacialAge/BNav_EC2/DepthDuration/v2_depth_duration_MTurk/v2_DepthDuration_HTML.html#106,106,1768,920,1768,992,9-18-2022,10-25-35,7,depth_duration_stimuli/003495_2014-05-21_16-01-51_094959634447_rgbf000100-resize_3/003495_2014-05-21_16-01-51_094959634447_rgbf000100-resize_3-target.png,125,1.6255,2,2097,124,feet,jsons/VE125_randls_28_rotated.json,657694,871540,36,Man
7,503582,DepthScenes,duration_manipulation_targetAtFixation,jsons/VE125_randls_28_rotated.json,http://54.235.29.9/FacialAge/BNav_EC2/DepthDuration/v2_depth_duration_MTurk/v2_DepthDuration_HTML.html#106,106,1768,920,1768,992,9-18-2022,10-25-35,8,depth_duration_stimuli/001244_2014-06-17_16-47-45_260595134347_rgbf000030-resize_4/001244_2014-06-17_16-47-45_260595134347_rgbf000030-resize_4-target.png,125,2.0425,2,2891,129,feet,jsons/VE125_randls_28_rotated.json,657694,871540,36,Man
8,503582,DepthScenes,duration_manipulation_targetAtFixation,jsons/VE125_randls_28_rotated.json,http://54.235.29.9/FacialAge/BNav_EC2/DepthDuration/v2_depth_duration_MTurk/v2_DepthDuration_HTML.html#106,106,1768,920,1768,992,9-18-2022,10-25-35,9,depth_duration_stimuli/000854_2014-06-09_19-43-13_260595134347_rgbf000066-resize_0/000854_2014-06-09_19-43-13_260595134347_rgbf000066-resize_0-target.png,125,3.068,3,3155,127,feet,jsons/VE125_randls_28_rotated.json,657694,871540,36,Man
9,503582,DepthScenes,duration_manipulation_targetAtFixation,jsons/VE125_randls_28_rotated.json,http://54.235.29.9/FacialAge/BNav_EC2/DepthDuration/v2_depth_duration_MTurk/v2_DepthDuration_HTML.html#106,106,1768,920,1768,992,9-18-2022,10-25-35,10,depth_duration_stimuli/000758_2014-06-08_22-05-08_260595134347_rgbf000085-resize_0/000758_2014-06-08_22-05-08_260595134347_rgbf000085-resize_0-target.png,125,3.3810000000000002,6,4795,124,feet,jsons/VE125_randls_28_rotated.json,657694,871540,36,Man
10,503582,DepthScenes,duration_manipulation_targetAtFixation,jsons/VE125_randls_28_rotated.json,http://54.235.29.9/FacialAge/BNav_EC2/DepthDuration/v2_depth_duration_MTurk/v2_DepthDuration_HTML.html#106,106,1768,920,1768,992,9-18-2022,10-25-35,11,depth_duration_stimuli/001450_2014-06-19_17-02-03_260595134347_rgbf000203-resize_4/001450_2014-06-19_17-02-03_260595134347_rgbf000203-resize_4-target.png,125,4.0106666666667,6,3692,127,feet,jsons/VE125_randls_28_rotated.json,657694,871540,36,Man
11,503582,DepthScenes,duration_manipulation_targetAtFixation,jsons/VE125_randls_28_rotated.json,http://54.235.29.9/FacialAge/BNav_EC2/DepthDuration/v2_depth_duration_MTurk/v2_DepthDuration_HTML.html#106,106,1768,920,1768,992,9-18-2022,10-25-35,12,depth_duration_stimuli/001449_2014-06-19_17-01-27_260595134347_rgbf000116-resize_2/001449_2014-06-19_17-01-27_260595134347_rgbf000116-resize_2-target.png,125,3.452,1,3905,123,feet,jsons/VE125_randls_28_rotated.json,657694,871540,36,Man
12,503582,DepthScenes,duration_manipulation_targetAtFixation,jsons/VE125_randls_28_rotated.json,http://54.235.29.9/FacialAge/BNav_EC2/DepthDuration/v2_depth_duration_MTurk/v2_DepthDuration_HTML.html#106,106,1768,920,1768,992,9-18-2022,10-25-35,13,depth_duration_stimuli/001617_2014-06-20_11-35-32_260595134347_rgbf000066-resize_1/001617_2014-06-20_11-35-32_260595134347_rgbf000066-resize_1-target.png,125,3.7910000000000004,6,2675,125,feet,jsons/VE125_randls_28_rotated.json,657694,871540,36,Man
13,503582,DepthScenes,duration_manipulation_targetAtFixation,jsons/VE125_randls_28_rotated.json,http://54.235.29.9/FacialAge/BNav_EC2/DepthDuration/v2_depth_duration_MTurk/v2_DepthDuration_HTML.html#106,106,1768,920,1768,992,9-18-2022,10-25-35,14,depth_duration_stimuli/001806_2014-06-26_20-50-20_260595134347_rgbf000091-resize_1/001806_2014-06-26_20-50-20_260595134347_rgbf000091-resize_1-target.png,125,2.7305,2,2243,123,feet,jsons/VE125_randls_28_rotated.json,657694,871540,36,Man
14,503582,DepthScenes,duration_manipulation_targetAtFixation,jsons/VE125_randls_28_rotated.json,http://54.235.29.9/FacialAge/BNav_EC2/DepthDuration/v2_depth_duration_MTurk/v2_DepthDuration_HTML.html#106,106,1768,920,1768,992,9-18-2022,10-25-35,15,depth_duration_stimuli/002750_2014-06-22_19-08-03_094959634447_rgbf000094-resize_4/002750_2014-06-22_19-08-03_094959634447_rgbf000094-resize_4-target.png,125,2.354,4,2201,125,feet,jsons/VE125_randls_28_rotated.json,657694,871540,36,Man
15,503582,DepthScenes,duration_manipulation_targetAtFixation,jsons/VE125_randls_28_rotated.json,http://54.235.29.9/FacialAge/BNav_EC2/DepthDuration/v2_depth_duration_MTurk/v2_DepthDuration_HTML.html#106,106,1768,920,1768,992,9-18-2022,10-25-35,16,depth_duration_stimuli/002549_2014-06-24_13-41-39_094959634447_rgbf000022-resize_3/002549_2014-06-24_13-41-39_094959634447_rgbf000022-resize_3-target.png,125,1.476,1,2300,137,feet,jsons/VE125_randls_28_rotated.json,657694,871540,36,Man
16,503582,DepthScenes,duration_manipulation_targetAtFixation,jsons/VE125_randls_28_rotated.json,http://54.235.29.9/FacialAge/BNav_EC2/DepthDuration/v2_depth_duration_MTurk/v2_DepthDuration_HTML.html#106,106,1768,920,1768,992,9-18-2022,10-25-35,17,depth_duration_stimuli/003423_2014-05-21_10-23-26_094959634447_rgbf002665-resize_2/003423_2014-05-21_10-23-26_094959634447_rgbf002665-resize_2-target.png,125,3.2575,5,3706,125,feet,jsons/VE125_randls_28_rotated.json,657694,871540,36,Man
17,503582,DepthScenes,duration_manipulation_targetAtFixation,jsons/VE125_randls_28_rotated.json,http://54.235.29.9/FacialAge/BNav_EC2/DepthDuration/v2_depth_duration_MTurk/v2_DepthDuration_HTML.html#106,106,1768,920,1768,992,9-18-2022,10-25-35,18,depth_duration_stimuli/002905_2014-06-03_18-04-43_094959634447_rgbf000151-resize_2/002905_2014-06-03_18-04-43_094959634447_rgbf000151-resize_2-target.png,125,2.0295,2,3075,125,feet,jsons/VE125_randls_28_rotated.json,657694,871540,36,Man
18,503582,DepthScenes,duration_manipulation_targetAtFixation,jsons/VE125_randls_28_rotated.json,http://54.235.29.9/FacialAge/BNav_EC2/DepthDuration/v2_depth_duration_MTurk/v2_DepthDuration_HTML.html#106,106,1768,920,1768,992,9-18-2022,10-25-35,19,depth_duration_stimuli/001498_2014-06-19_17-45-14_260595134347_rgbf000129-resize_4/001498_2014-06-19_17-45-14_260595134347_rgbf000129-resize-original.jpg,125,1.4075,0,3251,125,feet,jsons/VE125_randls_28_rotated.json,657694,871540,36,Man
19,503582,DepthScenes,duration_manipulation_targetAtFixation,jsons/VE125_randls_28_rotated.json,http://54.235.29.9/FacialAge/BNav_EC2/DepthDuration/v2_depth_duration_MTurk/v2_DepthDuration_HTML.html#106,106,1768,920,1768,992,9-18-2022,10-25-35,20,depth_duration_stimuli/000137_2014-05-20_17-04-49_260595134347_rgbf000120-resize_1/000137_2014-05-20_17-04-49_260595134347_rgbf000120-resize_1-target.png,125,3.786,3,3130,125,feet,jsons/VE125_randls_28_rotated.json,657694,871540,36,Man
20,503582,DepthScenes,duration_manipulation_targetAtFixation,jsons/VE125_randls_28_rotated.json,http://54.235.29.9/FacialAge/BNav_EC2/DepthDuration/v2_depth_duration_MTurk/v2_DepthDuration_HTML.html#106,106,1768,920,1768,992,9-18-2022,10-25-35,21,depth_duration_stimuli/000736_2014-06-08_18-24-15_260595134347_rgbf000206-resize_3/000736_2014-06-08_18-24-15_260595134347_rgbf000206-resize_3-target.png,125,3.515,3,3332,130,feet,jsons/VE125_randls_28_rotated.json,657694,871540,36,Man
21,503582,DepthScenes,duration_manipulation_targetAtFixation,jsons/VE125_randls_28_rotated.json,http://54.235.29.9/FacialAge/BNav_EC2/DepthDuration/v2_depth_duration_MTurk/v2_DepthDuration_HTML.html#106,106,1768,920,1768,992,9-18-2022,10-25-35,22,depth_duration_stimuli/000709_2014-06-08_13-51-55_260595134347_rgbf000068-resize_3/000709_2014-06-08_13-51-55_260595134347_rgbf000068-resize_3-target.png,125,1.8030000000000002,3,4702,122,feet,jsons/VE125_randls_28_rotated.json,657694,871540,36,Man
22,503582,DepthScenes,duration_manipulation_targetAtFixation,jsons/VE125_randls_28_rotated.json,http://54.235.29.9/FacialAge/BNav_EC2/DepthDuration/v2_depth_duration_MTurk/v2_DepthDuration_HTML.html#106,106,1768,920,1768,992,9-18-2022,10-25-35,23,depth_duration_stimuli/002057_2014-06-24_21-00-13_260595134347_rgbf000120-resize_1/002057_2014-06-24_21-00-13_260595134347_rgbf000120-resize_1-target.png,125,2.967,6,2705,115,feet,jsons/VE125_randls_28_rotated.json,657694,871540,36,Man
23,503582,DepthScenes,duration_manipulation_targetAtFixation,jsons/VE125_randls_28_rotated.json,http://54.235.29.9/FacialAge/BNav_EC2/DepthDuration/v2_depth_duration_MTurk/v2_DepthDuration_HTML.html#106,106,1768,920,1768,992,9-18-2022,10-25-35,24,depth_duration_stimuli/002209_2014-06-28_18-36-10_260595134347_rgbf000051-resize_1/002209_2014-06-28_18-36-10_260595134347_rgbf000051-resize_1-target.png,125,2.057,1,3363,137,feet,jsons/VE125_randls_28_rotated.json,657694,871540,36,Man
24,503582,DepthScenes,duration_manipulation_targetAtFixation,jsons/VE125_randls_28_rotated.json,http://54.235.29.9/FacialAge/BNav_EC2/DepthDuration/v2_depth_duration_MTurk/v2_DepthDuration_HTML.html#106,106,1768,920,1768,992,9-18-2022,10-25-35,25,depth_duration_stimuli/002763_2014-06-22_19-13-10_094959634447_rgbf000075-resize_4/002763_2014-06-22_19-13-10_094959634447_rgbf000075-resize_4-target.png,125,1.68375,3,5732,125,feet,jsons/VE125_randls_28_rotated.json,657694,871540,36,Man
25,503582,DepthScenes,duration_manipulation_targetAtFixation,jsons/VE125_randls_28_rotated.json,http://54.235.29.9/FacialAge/BNav_EC2/DepthDuration/v2_depth_duration_MTurk/v2_DepthDuration_HTML.html#106,106,1768,920,1768,992,9-18-2022,10-25-35,26,depth_duration_stimuli/000191_2014-05-12_17-07-38_260595134347_rgbf000199-resize_0/000191_2014-05-12_17-07-38_260595134347_rgbf000199-resize_0-target.png,125,3.7995,7,5045,123,feet,jsons/VE125_randls_28_rotated.json,657694,871540,36,Man
26,503582,DepthScenes,duration_manipulation_targetAtFixation,jsons/VE125_randls_28_rotated.json,http://54.235.29.9/FacialAge/BNav_EC2/DepthDuration/v2_depth_duration_MTurk/v2_DepthDuration_HTML.html#106,106,1768,920,1768,992,9-18-2022,10-25-35,27,depth_duration_stimuli/000493_2014-06-09_21-01-18_260595134347_rgbf000196-resize_3/000493_2014-06-09_21-01-18_260595134347_rgbf000196-resize_3-target.png,125,3.44,3,3428,127,feet,jsons/VE125_randls_28_rotated.json,657694,871540,36,Man
27,503582,DepthScenes,duration_manipulation_targetAtFixation,jsons/VE125_randls_28_rotated.json,http://54.235.29.9/FacialAge/BNav_EC2/DepthDuration/v2_depth_duration_MTurk/v2_DepthDuration_HTML.html#106,106,1768,920,1768,992,9-18-2022,10-25-35,28,depth_duration_stimuli/001650_2014-06-20_12-09-00_260595134347_rgbf000087-resize_3/001650_2014-06-20_12-09-00_260595134347_rgbf000087-resize_3-target.png,125,1.9505,2,4017,124,feet,jsons/VE125_randls_28_rotated.json,657694,871540,36,Man
28,503582,DepthScenes,duration_manipulation_targetAtFixation,jsons/VE125_randls_28_rotated.json,http://54.235.29.9/FacialAge/BNav_EC2/DepthDuration/v2_depth_duration_MTurk/v2_DepthDuration_HTML.html#106,106,1768,920,1768,992,9-18-2022,10-25-35,29,depth_duration_stimuli/000682_2014-06-08_23-14-58_260595134347_rgbf000041-resize_5/000682_2014-06-08_23-14-58_260595134347_rgbf000041-resize_5-target.png,125,2.7239999999999998,3,3622,124,feet,jsons/VE125_randls_28_rotated.json,657694,871540,36,Man
29,503582,DepthScenes,duration_manipulation_targetAtFixation,jsons/VE125_randls_28_rotated.json,http://54.235.29.9/FacialAge/BNav_EC2/DepthDuration/v2_depth_duration_MTurk/v2_DepthDuration_HTML.html#106,106,1768,920,1768,992,9-18-2022,10-25-35,30,depth_duration_stimuli/002072_2014-06-24_21-48-06_260595134347_rgbf000115-resize_0/002072_2014-06-24_21-48-06_260595134347_rgbf000115-resize-original.jpg,125,4.702,0,3039,122,feet,jsons/VE125_randls_28_rotated.json,657694,871540,36,Man
30,503582,DepthScenes,duration_manipulation_targetAtFixation,jsons/VE125_randls_28_rotated.json,http://54.235.29.9/FacialAge/BNav_EC2/DepthDuration/v2_depth_duration_MTurk/v2_DepthDuration_HTML.html#106,106,1768,920,1768,992,9-18-2022,10-25-35,31,depth_duration_stimuli/000943_2014-06-09_19-31-07_260595134347_rgbf000128-resize_1/000943_2014-06-09_19-31-07_260595134347_rgbf000128-resize_1-target.png,125,1.9765,2,2572,137,feet,jsons/VE125_randls_28_rotated.json,657694,871540,36,Man
31,503582,DepthScenes,duration_manipulation_targetAtFixation,jsons/VE125_randls_28_rotated.json,http://54.235.29.9/FacialAge/BNav_EC2/DepthDuration/v2_depth_duration_MTurk/v2_DepthDuration_HTML.html#106,106,1768,920,1768,992,9-18-2022,10-25-35,32,depth_duration_stimuli/003070_2014-06-15_14-58-27_094959634447_rgbf000150-resize_3/003070_2014-06-15_14-58-27_094959634447_rgbf000150-resize_3-target.png,125,2.9415,4,3315,124,feet,jsons/VE125_randls_28_rotated.json,657694,871540,36,Man
32,503582,DepthScenes,duration_manipulation_targetAtFixation,jsons/VE125_randls_28_rotated.json,http://54.235.29.9/FacialAge/BNav_EC2/DepthDuration/v2_depth_duration_MTurk/v2_DepthDuration_HTML.html#106,106,1768,920,1768,992,9-18-2022,10-25-35,33,depth_duration_stimuli/000635_2014-06-08_16-38-42_260595134347_rgbf000106-resize_1/000635_2014-06-08_16-38-42_260595134347_rgbf000106-resize_1-target.png,125,2.074,3,3986,123,feet,jsons/VE125_randls_28_rotated.json,657694,871540,36,Man
33,503582,DepthScenes,duration_manipulation_targetAtFixation,jsons/VE125_randls_28_rotated.json,http://54.235.29.9/FacialAge/BNav_EC2/DepthDuration/v2_depth_duration_MTurk/v2_DepthDuration_HTML.html#106,106,1768,920,1768,992,9-18-2022,10-25-35,34,depth_duration_stimuli/002279_2014-06-28_18-55-32_260595134347_rgbf000040-resize_5/002279_2014-06-28_18-55-32_260595134347_rgbf000040-resize_5-target.png,125,1.5043333333333,2,2629,122,feet,jsons/VE125_randls_28_rotated.json,657694,871540,36,Man
34,503582,DepthScenes,duration_manipulation_targetAtFixation,jsons/VE125_randls_28_rotated.json,http://54.235.29.9/FacialAge/BNav_EC2/DepthDuration/v2_depth_duration_MTurk/v2_DepthDuration_HTML.html#106,106,1768,920,1768,992,9-18-2022,10-25-35,35,depth_duration_stimuli/002340_2014-06-28_20-05-46_260595134347_rgbf000113-resize_0/002340_2014-06-28_20-05-46_260595134347_rgbf000113-resize_0-target.png,125,2.4735,6,2922,124,feet,jsons/VE125_randls_28_rotated.json,657694,871540,36,Man
35,503582,DepthScenes,duration_manipulation_targetAtFixation,jsons/VE125_randls_28_rotated.json,http://54.235.29.9/FacialAge/BNav_EC2/DepthDuration/v2_depth_duration_MTurk/v2_DepthDuration_HTML.html#106,106,1768,920,1768,992,9-18-2022,10-25-35,36,depth_duration_stimuli/001016_2014-06-09_16-16-10_260595134347_rgbf000112-resize_5/001016_2014-06-09_16-16-10_260595134347_rgbf000112-resize_5-target.png,125,1.6565,4,3822,122,feet,jsons/VE125_randls_28_rotated.json,657694,871540,36,Man
36,503582,DepthScenes,duration_manipulation_targetAtFixation,jsons/VE125_randls_28_rotated.json,http://54.235.29.9/FacialAge/BNav_EC2/DepthDuration/v2_depth_duration_MTurk/v2_DepthDuration_HTML.html#106,106,1768,920,1768,992,9-18-2022,10-25-35,37,depth_duration_stimuli/003587_2014-05-23_16-48-02_094959634447_rgbf002384-resize_2/003587_2014-05-23_16-48-02_094959634447_rgbf002384-resize_2-target.png,125,1.357,1,2972,128,feet,jsons/VE125_randls_28_rotated.json,657694,871540,36,Man
37,503582,DepthScenes,duration_manipulation_targetAtFixation,jsons/VE125_randls_28_rotated.json,http://54.235.29.9/FacialAge/BNav_EC2/DepthDuration/v2_depth_duration_MTurk/v2_DepthDuration_HTML.html#106,106,1768,920,1768,992,9-18-2022,10-25-35,38,depth_duration_stimuli/001167_2014-06-17_15-38-07_260595134347_rgbf000108-resize_0/001167_2014-06-17_15-38-07_260595134347_rgbf000108-resize_0-target.png,125,1.8505,1,4492,124,feet,jsons/VE125_randls_28_rotated.json,657694,871540,36,Man
38,503582,DepthScenes,duration_manipulation_targetAtFixation,jsons/VE125_randls_28_rotated.json,http://54.235.29.9/FacialAge/BNav_EC2/DepthDuration/v2_depth_duration_MTurk/v2_DepthDuration_HTML.html#106,106,1768,920,1768,992,9-18-2022,10-25-35,39,depth_duration_stimuli/002657_2014-06-13_15-29-54_094959634447_rgbf000150-resize_1/002657_2014-06-13_15-29-54_094959634447_rgbf000150-resize_1-target.png,125,4.919,3,3530,129,feet,jsons/VE125_randls_28_rotated.json,657694,871540,36,Man
39,503582,DepthScenes,duration_manipulation_targetAtFixation,jsons/VE125_randls_28_rotated.json,http://54.235.29.9/FacialAge/BNav_EC2/DepthDuration/v2_depth_duration_MTurk/v2_DepthDuration_HTML.html#106,106,1768,920,1768,992,9-18-2022,10-25-35,40,depth_duration_stimuli/002375_2014-06-28_20-13-44_260595134347_rgbf000032-resize_1/002375_2014-06-28_20-13-44_260595134347_rgbf000032-resize_1-target.png,125,4.0175,3,3024,124,feet,jsons/VE125_randls_28_rotated.json,657694,871540,36,Man
40,503582,DepthScenes,duration_manipulation_targetAtFixation,jsons/VE125_randls_28_rotated.json,http://54.235.29.9/FacialAge/BNav_EC2/DepthDuration/v2_depth_duration_MTurk/v2_DepthDuration_HTML.html#106,106,1768,920,1768,992,9-18-2022,10-25-35,41,depth_duration_stimuli/000665_2014-06-09_20-42-35_260595134347_rgbf000110-resize_1/000665_2014-06-09_20-42-35_260595134347_rgbf000110-resize_1-target.png,125,3.057,3,2404,136,feet,jsons/VE125_randls_28_rotated.json,657694,871540,36,Man
41,503582,DepthScenes,duration_manipulation_targetAtFixation,jsons/VE125_randls_28_rotated.json,http://54.235.29.9/FacialAge/BNav_EC2/DepthDuration/v2_depth_duration_MTurk/v2_DepthDuration_HTML.html#106,106,1768,920,1768,992,9-18-2022,10-25-35,42,depth_duration_stimuli/001150_2014-06-17_15-27-34_260595134347_rgbf000108-resize_2/001150_2014-06-17_15-27-34_260595134347_rgbf000108-resize_2-target.png,125,4.0325,5,3072,124,feet,jsons/VE125_randls_28_rotated.json,657694,871540,36,Man
42,503582,DepthScenes,duration_manipulation_targetAtFixation,jsons/VE125_randls_28_rotated.json,http://54.235.29.9/FacialAge/BNav_EC2/DepthDuration/v2_depth_duration_MTurk/v2_DepthDuration_HTML.html#106,106,1768,920,1768,992,9-18-2022,10-25-35,43,depth_duration_stimuli/002199_2014-06-28_18-33-56_260595134347_rgbf000074-resize_0/002199_2014-06-28_18-33-56_260595134347_rgbf000074-resize_0-target.png,125,1.996,2,3092,124,feet,jsons/VE125_randls_28_rotated.json,657694,871540,36,Man
43,503582,DepthScenes,duration_manipulation_targetAtFixation,jsons/VE125_randls_28_rotated.json,http://54.235.29.9/FacialAge/BNav_EC2/DepthDuration/v2_depth_duration_MTurk/v2_DepthDuration_HTML.html#106,106,1768,920,1768,992,9-18-2022,10-25-35,44,depth_duration_stimuli/001056_2014-06-08_18-46-44_260595134347_rgbf000068-resize_0/001056_2014-06-08_18-46-44_260595134347_rgbf000068-resize_0-target.png,125,2.6625,4,3154,124,feet,jsons/VE125_randls_28_rotated.json,657694,871540,36,Man
44,503582,DepthScenes,duration_manipulation_targetAtFixation,jsons/VE125_randls_28_rotated.json,http://54.235.29.9/FacialAge/BNav_EC2/DepthDuration/v2_depth_duration_MTurk/v2_DepthDuration_HTML.html#106,106,1768,920,1768,992,9-18-2022,10-25-35,45,depth_duration_stimuli/002660_2014-06-13_15-44-18_094959634447_rgbf001878-resize_2/002660_2014-06-13_15-44-18_094959634447_rgbf001878-resize_2-target.png,125,3.576,4,3092,124,feet,jsons/VE125_randls_28_rotated.json,657694,871540,36,Man
45,503582,DepthScenes,duration_manipulation_targetAtFixation,jsons/VE125_randls_28_rotated.json,http://54.235.29.9/FacialAge/BNav_EC2/DepthDuration/v2_depth_duration_MTurk/v2_DepthDuration_HTML.html#106,106,1768,920,1768,992,9-18-2022,10-25-35,46,depth_duration_stimuli/002153_2014-06-25_21-27-18_260595134347_rgbf000038-resize_5/002153_2014-06-25_21-27-18_260595134347_rgbf000038-resize_5-target.png,125,2.505,3,2604,126,feet,jsons/VE125_randls_28_rotated.json,657694,871540,36,Man
46,503582,DepthScenes,duration_manipulation_targetAtFixation,jsons/VE125_randls_28_rotated.json,http://54.235.29.9/FacialAge/BNav_EC2/DepthDuration/v2_depth_duration_MTurk/v2_DepthDuration_HTML.html#106,106,1768,920,1768,992,9-18-2022,10-25-35,47,depth_duration_stimuli/002323_2014-06-28_20-01-54_260595134347_rgbf000051-resize_4/002323_2014-06-28_20-01-54_260595134347_rgbf000051-resize_4-target.png,125,3.7310000000000003,5,3049,125,feet,jsons/VE125_randls_28_rotated.json,657694,871540,36,Man
47,503582,DepthScenes,duration_manipulation_targetAtFixation,jsons/VE125_randls_28_rotated.json,http://54.235.29.9/FacialAge/BNav_EC2/DepthDuration/v2_depth_duration_MTurk/v2_DepthDuration_HTML.html#106,106,1768,920,1768,992,9-18-2022,10-25-35,48,depth_duration_stimuli/000917_2014-06-09_22-45-29_260595134347_rgbf000149-resize_3/000917_2014-06-09_22-45-29_260595134347_rgbf000149-resize_3-target.png,125,4.1865,6,3691,124,feet,jsons/VE125_randls_28_rotated.json,657694,871540,36,Man
48,503582,DepthScenes,duration_manipulation_targetAtFixation,jsons/VE125_randls_28_rotated.json,http://54.235.29.9/FacialAge/BNav_EC2/DepthDuration/v2_depth_duration_MTurk/v2_DepthDuration_HTML.html#106,106,1768,920,1768,992,9-18-2022,10-25-35,49,depth_duration_stimuli/001170_2014-06-17_15-43-44_260595134347_rgbf000096-resize_6/001170_2014-06-17_15-43-44_260595134347_rgbf000096-resize-original.jpg,125,1.1909999999999998,0,3044,127,feet,jsons/VE125_randls_28_rotated.json,657694,871540,36,Man
49,503582,DepthScenes,duration_manipulation_targetAtFixation,jsons/VE125_randls_28_rotated.json,http://54.235.29.9/FacialAge/BNav_EC2/DepthDuration/v2_depth_duration_MTurk/v2_DepthDuration_HTML.html#106,106,1768,920,1768,992,9-18-2022,10-25-35,50,depth_duration_stimuli/003081_2014-06-15_15-19-16_094959634447_rgbf000150-resize_1/003081_2014-06-15_15-19-16_094959634447_rgbf000150-resize_1-target.png,125,3.9125,6,3417,121,feet,jsons/VE125_randls_28_rotated.json,657694,871540,36,Man
50,503582,DepthScenes,duration_manipulation_targetAtFixation,jsons/VE125_randls_28_rotated.json,http://54.235.29.9/FacialAge/BNav_EC2/DepthDuration/v2_depth_duration_MTurk/v2_DepthDuration_HTML.html#106,106,1768,920,1768,992,9-18-2022,10-25-35,51,depth_duration_stimuli/001417_2014-06-19_16-25-36_260595134347_rgbf000115-resize_5/001417_2014-06-19_16-25-36_260595134347_rgbf000115-resize_5-target.png,125,4.6255,5,3121,125,feet,jsons/VE125_randls_28_rotated.json,657694,871540,36,Man
51,503582,DepthScenes,duration_manipulation_targetAtFixation,jsons/VE125_randls_28_rotated.json,http://54.235.29.9/FacialAge/BNav_EC2/DepthDuration/v2_depth_duration_MTurk/v2_DepthDuration_HTML.html#106,106,1768,920,1768,992,9-18-2022,10-25-35,52,depth_duration_stimuli/000927_2014-06-09_16-32-30_260595134347_rgbf000123-resize_3/000927_2014-06-09_16-32-30_260595134347_rgbf000123-resize_3-target.png,125,2.6785,6,3035,136,feet,jsons/VE125_randls_28_rotated.json,657694,871540,36,Man
52,503582,DepthScenes,duration_manipulation_targetAtFixation,jsons/VE125_randls_28_rotated.json,http://54.235.29.9/FacialAge/BNav_EC2/DepthDuration/v2_depth_duration_MTurk/v2_DepthDuration_HTML.html#106,106,1768,920,1768,992,9-18-2022,10-25-35,53,depth_duration_stimuli/001110_2014-06-15_17-25-28_260595134347_rgbf000150-resize_1/001110_2014-06-15_17-25-28_260595134347_rgbf000150-resize_1-target.png,125,1.7115,3,3069,123,feet,jsons/VE125_randls_28_rotated.json,657694,871540,36,Man
53,503582,DepthScenes,duration_manipulation_targetAtFixation,jsons/VE125_randls_28_rotated.json,http://54.235.29.9/FacialAge/BNav_EC2/DepthDuration/v2_depth_duration_MTurk/v2_DepthDuration_HTML.html#106,106,1768,920,1768,992,9-18-2022,10-25-35,54,depth_duration_stimuli/001136_2014-06-17_15-19-41_260595134347_rgbf000076-resize_3/001136_2014-06-17_15-19-41_260595134347_rgbf000076-resize_3-target.png,125,1.8655,4,2739,128,feet,jsons/VE125_randls_28_rotated.json,657694,871540,36,Man
54,503582,DepthScenes,duration_manipulation_targetAtFixation,jsons/VE125_randls_28_rotated.json,http://54.235.29.9/FacialAge/BNav_EC2/DepthDuration/v2_depth_duration_MTurk/v2_DepthDuration_HTML.html#106,106,1768,920,1768,992,9-18-2022,10-25-35,55,depth_duration_stimuli/001164_2014-06-17_15-35-46_260595134347_rgbf000085-resize_3/001164_2014-06-17_15-35-46_260595134347_rgbf000085-resize_3-target.png,125,2.354,3,3372,124,feet,jsons/VE125_randls_28_rotated.json,657694,871540,36,Man
55,503582,DepthScenes,duration_manipulation_targetAtFixation,jsons/VE125_randls_28_rotated.json,http://54.235.29.9/FacialAge/BNav_EC2/DepthDuration/v2_depth_duration_MTurk/v2_DepthDuration_HTML.html#106,106,1768,920,1768,992,9-18-2022,10-25-35,56,depth_duration_stimuli/001132_2014-06-17_14-48-54_260595134347_rgbf000100-resize_2/001132_2014-06-17_14-48-54_260595134347_rgbf000100-resize_2-target.png,125,3.753,5,2977,128,feet,jsons/VE125_randls_28_rotated.json,657694,871540,36,Man
56,503582,DepthScenes,duration_manipulation_targetAtFixation,jsons/VE125_randls_28_rotated.json,http://54.235.29.9/FacialAge/BNav_EC2/DepthDuration/v2_depth_duration_MTurk/v2_DepthDuration_HTML.html#106,106,1768,920,1768,992,9-18-2022,10-25-35,57,depth_duration_stimuli/001133_2014-06-17_14-49-16_260595134347_rgbf000100-resize_0/001133_2014-06-17_14-49-16_260595134347_rgbf000100-resize_0-target.png,125,4.2115,4,2520,123,feet,jsons/VE125_randls_28_rotated.json,657694,871540,36,Man
57,503582,DepthScenes,duration_manipulation_targetAtFixation,jsons/VE125_randls_28_rotated.json,http://54.235.29.9/FacialAge/BNav_EC2/DepthDuration/v2_depth_duration_MTurk/v2_DepthDuration_HTML.html#106,106,1768,920,1768,992,9-18-2022,10-25-35,58,depth_duration_stimuli/002425_2014-06-28_20-27-29_260595134347_rgbf000031-resize_8/002425_2014-06-28_20-27-29_260595134347_rgbf000031-resize_8-target.png,125,3.8960000000000004,6,3079,125,feet,jsons/VE125_randls_28_rotated.json,657694,871540,36,Man
58,503582,DepthScenes,duration_manipulation_targetAtFixation,jsons/VE125_randls_28_rotated.json,http://54.235.29.9/FacialAge/BNav_EC2/DepthDuration/v2_depth_duration_MTurk/v2_DepthDuration_HTML.html#106,106,1768,920,1768,992,9-18-2022,10-25-35,59,depth_duration_stimuli/000642_2014-06-08_16-59-25_260595134347_rgbf000098-resize_2/000642_2014-06-08_16-59-25_260595134347_rgbf000098-resize_2-target.png,125,2.8815,3,2891,134,feet,jsons/VE125_randls_28_rotated.json,657694,871540,36,Man
59,503582,DepthScenes,duration_manipulation_targetAtFixation,jsons/VE125_randls_28_rotated.json,http://54.235.29.9/FacialAge/BNav_EC2/DepthDuration/v2_depth_duration_MTurk/v2_DepthDuration_HTML.html#106,106,1768,920,1768,992,9-18-2022,10-25-35,60,depth_duration_stimuli/000780_2014-06-08_22-28-29_260595134347_rgbf000126-resize_1/000780_2014-06-08_22-28-29_260595134347_rgbf000126-resize_1-target.png,125,3.3825,5,3995,139,feet,jsons/VE125_randls_28_rotated.json,657694,871540,36,Man
60,503582,DepthScenes,duration_manipulation_targetAtFixation,jsons/VE125_randls_28_rotated.json,http://54.235.29.9/FacialAge/BNav_EC2/DepthDuration/v2_depth_duration_MTurk/v2_DepthDuration_HTML.html#106,106,1768,920,1768,992,9-18-2022,10-25-35,61,depth_duration_stimuli/002445_2014-06-28_20-32-16_260595134347_rgbf000029-resize_4/002445_2014-06-28_20-32-16_260595134347_rgbf000029-resize_4-target.png,125,2.5315,2,3196,124,feet,jsons/VE125_randls_28_rotated.json,657694,871540,36,Man
61,503582,DepthScenes,duration_manipulation_targetAtFixation,jsons/VE125_randls_28_rotated.json,http://54.235.29.9/FacialAge/BNav_EC2/DepthDuration/v2_depth_duration_MTurk/v2_DepthDuration_HTML.html#106,106,1768,920,1768,992,9-18-2022,10-25-35,62,depth_duration_stimuli/002758_2014-06-22_19-11-20_094959634447_rgbf000128-resize_1/002758_2014-06-22_19-11-20_094959634447_rgbf000128-resize_1-target.png,125,2.555,3,2559,124,feet,jsons/VE125_randls_28_rotated.json,657694,871540,36,Man
62,503582,DepthScenes,duration_manipulation_targetAtFixation,jsons/VE125_randls_28_rotated.json,http://54.235.29.9/FacialAge/BNav_EC2/DepthDuration/v2_depth_duration_MTurk/v2_DepthDuration_HTML.html#106,106,1768,920,1768,992,9-18-2022,10-25-35,63,depth_duration_stimuli/002630_2014-06-24_14-47-50_094959634447_rgbf000055-resize_1/002630_2014-06-24_14-47-50_094959634447_rgbf000055-resize_1-target.png,125,3.0095,6,2724,132,feet,jsons/VE125_randls_28_rotated.json,657694,871540,36,Man
63,503582,DepthScenes,duration_manipulation_targetAtFixation,jsons/VE125_randls_28_rotated.json,http://54.235.29.9/FacialAge/BNav_EC2/DepthDuration/v2_depth_duration_MTurk/v2_DepthDuration_HTML.html#106,106,1768,920,1768,992,9-18-2022,10-25-35,64,depth_duration_stimuli/002953_2014-06-08_17-32-18_094959634447_rgbf000059-resize_5/002953_2014-06-08_17-32-18_094959634447_rgbf000059-resize_5-target.png,125,1.551,1,4059,123,feet,jsons/VE125_randls_28_rotated.json,657694,871540,36,Man
64,503582,DepthScenes,duration_manipulation_targetAtFixation,jsons/VE125_randls_28_rotated.json,http://54.235.29.9/FacialAge/BNav_EC2/DepthDuration/v2_depth_duration_MTurk/v2_DepthDuration_HTML.html#106,106,1768,920,1768,992,9-18-2022,10-25-35,65,depth_duration_stimuli/000878_2014-06-08_22-52-45_260595134347_rgbf000045-resize_2/000878_2014-06-08_22-52-45_260595134347_rgbf000045-resize_2-target.png,125,2.092,4,4172,125,feet,jsons/VE125_randls_28_rotated.json,657694,871540,36,Man
65,503582,DepthScenes,duration_manipulation_targetAtFixation,jsons/VE125_randls_28_rotated.json,http://54.235.29.9/FacialAge/BNav_EC2/DepthDuration/v2_depth_duration_MTurk/v2_DepthDuration_HTML.html#106,106,1768,920,1768,992,9-18-2022,10-25-35,66,depth_duration_stimuli/001540_2014-06-20_17-01-05_260595134347_rgbf000086-resize_2/001540_2014-06-20_17-01-05_260595134347_rgbf000086-resize-original.jpg,125,1.459,0,3076,125,feet,jsons/VE125_randls_28_rotated.json,657694,871540,36,Man
66,503582,DepthScenes,duration_manipulation_targetAtFixation,jsons/VE125_randls_28_rotated.json,http://54.235.29.9/FacialAge/BNav_EC2/DepthDuration/v2_depth_duration_MTurk/v2_DepthDuration_HTML.html#106,106,1768,920,1768,992,9-18-2022,10-25-35,67,depth_duration_stimuli/002344_2014-06-28_20-06-29_260595134347_rgbf000030-resize_1/002344_2014-06-28_20-06-29_260595134347_rgbf000030-resize_1-target.png,125,1.5795,2,2557,110,feet,jsons/VE125_randls_28_rotated.json,657694,871540,36,Man
67,503582,DepthScenes,duration_manipulation_targetAtFixation,jsons/VE125_randls_28_rotated.json,http://54.235.29.9/FacialAge/BNav_EC2/DepthDuration/v2_depth_duration_MTurk/v2_DepthDuration_HTML.html#106,106,1768,920,1768,992,9-18-2022,10-25-35,68,depth_duration_stimuli/002725_2014-06-22_11-47-51_094959634447_rgbf000070-resize_1/002725_2014-06-22_11-47-51_094959634447_rgbf000070-resize_1-target.png,125,2.195,4,2475,137,feet,jsons/VE125_randls_28_rotated.json,657694,871540,36,Man
68,503582,DepthScenes,duration_manipulation_targetAtFixation,jsons/VE125_randls_28_rotated.json,http://54.235.29.9/FacialAge/BNav_EC2/DepthDuration/v2_depth_duration_MTurk/v2_DepthDuration_HTML.html#106,106,1768,920,1768,992,9-18-2022,10-25-35,69,depth_duration_stimuli/000549_2014-06-08_22-10-24_260595134347_rgbf000247-resize_3/000549_2014-06-08_22-10-24_260595134347_rgbf000247-resize_3-target.png,125,1.841,1,2452,141,feet,jsons/VE125_randls_28_rotated.json,657694,871540,36,Man
69,503582,DepthScenes,duration_manipulation_targetAtFixation,jsons/VE125_randls_28_rotated.json,http://54.235.29.9/FacialAge/BNav_EC2/DepthDuration/v2_depth_duration_MTurk/v2_DepthDuration_HTML.html#106,106,1768,920,1768,992,9-18-2022,10-25-35,70,depth_duration_stimuli/001055_2014-06-08_18-45-35_260595134347_rgbf000111-resize_4/001055_2014-06-08_18-45-35_260595134347_rgbf000111-resize_4-target.png,125,2.4290000000000003,8,4426,123,feet,jsons/VE125_randls_28_rotated.json,657694,871540,36,Man
70,503582,DepthScenes,duration_manipulation_targetAtFixation,jsons/VE125_randls_28_rotated.json,http://54.235.29.9/FacialAge/BNav_EC2/DepthDuration/v2_depth_duration_MTurk/v2_DepthDuration_HTML.html#106,106,1768,920,1768,992,9-18-2022,10-25-35,71,depth_duration_stimuli/001516_2014-06-20_16-25-09_260595134347_rgbf000076-resize_2/001516_2014-06-20_16-25-09_260595134347_rgbf000076-resize_2-target.png,125,1.7445,3,3214,125,feet,jsons/VE125_randls_28_rotated.json,657694,871540,36,Man
71,503582,DepthScenes,duration_manipulation_targetAtFixation,jsons/VE125_randls_28_rotated.json,http://54.235.29.9/FacialAge/BNav_EC2/DepthDuration/v2_depth_duration_MTurk/v2_DepthDuration_HTML.html#106,106,1768,920,1768,992,9-18-2022,10-25-35,72,depth_duration_stimuli/002118_2014-06-25_20-32-08_260595134347_rgbf000078-resize_1/002118_2014-06-25_20-32-08_260595134347_rgbf000078-resize_1-target.png,125,2.6460000000000004,2,4063,125,feet,jsons/VE125_randls_28_rotated.json,657694,871540,36,Man
72,503582,DepthScenes,duration_manipulation_targetAtFixation,jsons/VE125_randls_28_rotated.json,http://54.235.29.9/FacialAge/BNav_EC2/DepthDuration/v2_depth_duration_MTurk/v2_DepthDuration_HTML.html#106,106,1768,920,1768,992,9-18-2022,10-25-35,73,depth_duration_stimuli/001828_2014-06-26_21-40-03_260595134347_rgbf000024-resize_0/001828_2014-06-26_21-40-03_260595134347_rgbf000024-resize_0-target.png,125,4.8260000000000005,7,3931,128,feet,jsons/VE125_randls_28_rotated.json,657694,871540,36,Man
73,503582,DepthScenes,duration_manipulation_targetAtFixation,jsons/VE125_randls_28_rotated.json,http://54.235.29.9/FacialAge/BNav_EC2/DepthDuration/v2_depth_duration_MTurk/v2_DepthDuration_HTML.html#106,106,1768,920,1768,992,9-18-2022,10-25-35,74,depth_duration_stimuli/000009_2014-05-26_14-32-05_260595134347_rgbf000034-resize_3/000009_2014-05-26_14-32-05_260595134347_rgbf000034-resize_3-target.png,125,3.8715,7,4604,125,feet,jsons/VE125_randls_28_rotated.json,657694,871540,36,Man
74,503582,DepthScenes,duration_manipulation_targetAtFixation,jsons/VE125_randls_28_rotated.json,http://54.235.29.9/FacialAge/BNav_EC2/DepthDuration/v2_depth_duration_MTurk/v2_DepthDuration_HTML.html#106,106,1768,920,1768,992,9-18-2022,10-25-35,75,depth_duration_stimuli/000109_2014-05-14_23-41-52_260595134347_rgbf000035-resize_9/000109_2014-05-14_23-41-52_260595134347_rgbf000035-resize_9-target.png,125,1.3545,2,4522,124,feet,jsons/VE125_randls_28_rotated.json,657694,871540,36,Man
75,503582,DepthScenes,duration_manipulation_targetAtFixation,jsons/VE125_randls_28_rotated.json,http://54.235.29.9/FacialAge/BNav_EC2/DepthDuration/v2_depth_duration_MTurk/v2_DepthDuration_HTML.html#106,106,1768,920,1768,992,9-18-2022,10-25-35,76,depth_duration_stimuli/000470_2014-06-09_19-42-40_260595134347_rgbf000094-resize_1/000470_2014-06-09_19-42-40_260595134347_rgbf000094-resize_1-target.png,125,1.831,2,2735,123,feet,jsons/VE125_randls_28_rotated.json,657694,871540,36,Man
76,503582,DepthScenes,duration_manipulation_targetAtFixation,jsons/VE125_randls_28_rotated.json,http://54.235.29.9/FacialAge/BNav_EC2/DepthDuration/v2_depth_duration_MTurk/v2_DepthDuration_HTML.html#106,106,1768,920,1768,992,9-18-2022,10-25-35,77,depth_duration_stimuli/001815_2014-06-26_20-52-55_260595134347_rgbf000020-resize_0/001815_2014-06-26_20-52-55_260595134347_rgbf000020-resize_0-target.png,125,3.3865,6,2802,138,feet,jsons/VE125_randls_28_rotated.json,657694,871540,36,Man
77,503582,DepthScenes,duration_manipulation_targetAtFixation,jsons/VE125_randls_28_rotated.json,http://54.235.29.9/FacialAge/BNav_EC2/DepthDuration/v2_depth_duration_MTurk/v2_DepthDuration_HTML.html#106,106,1768,920,1768,992,9-18-2022,10-25-35,78,depth_duration_stimuli/001808_2014-06-26_20-50-58_260595134347_rgbf000029-resize_1/001808_2014-06-26_20-50-58_260595134347_rgbf000029-resize_1-target.png,125,4.249,6,3645,139,feet,jsons/VE125_randls_28_rotated.json,657694,871540,36,Man
78,503582,DepthScenes,duration_manipulation_targetAtFixation,jsons/VE125_randls_28_rotated.json,http://54.235.29.9/FacialAge/BNav_EC2/DepthDuration/v2_depth_duration_MTurk/v2_DepthDuration_HTML.html#106,106,1768,920,1768,992,9-18-2022,10-25-35,79,depth_duration_stimuli/000502_2014-06-08_23-02-32_260595134347_rgbf000063-resize_4/000502_2014-06-08_23-02-32_260595134347_rgbf000063-resize_4-target.png,125,2.431,4,4194,139,feet,jsons/VE125_randls_28_rotated.json,657694,871540,36,Man
79,503582,DepthScenes,duration_manipulation_targetAtFixation,jsons/VE125_randls_28_rotated.json,http://54.235.29.9/FacialAge/BNav_EC2/DepthDuration/v2_depth_duration_MTurk/v2_DepthDuration_HTML.html#106,106,1768,920,1768,992,9-18-2022,10-25-35,80,depth_duration_stimuli/001199_2014-06-17_16-03-48_260595134347_rgbf000077-resize_0/001199_2014-06-17_16-03-48_260595134347_rgbf000077-resize_0-target.png,125,3.4375,6,3147,135,feet,jsons/VE125_randls_28_rotated.json,657694,871540,36,Man
80,503582,DepthScenes,duration_manipulation_targetAtFixation,jsons/VE125_randls_28_rotated.json,http://54.235.29.9/FacialAge/BNav_EC2/DepthDuration/v2_depth_duration_MTurk/v2_DepthDuration_HTML.html#106,106,1768,920,1768,992,9-18-2022,10-25-35,81,depth_duration_stimuli/003048_2014-06-15_13-49-43_094959634447_rgbf000150-resize_1/003048_2014-06-15_13-49-43_094959634447_rgbf000150-resize_1-target.png,125,4.0035,7,3315,136,feet,jsons/VE125_randls_28_rotated.json,657694,871540,36,Man
81,503582,DepthScenes,duration_manipulation_targetAtFixation,jsons/VE125_randls_28_rotated.json,http://54.235.29.9/FacialAge/BNav_EC2/DepthDuration/v2_depth_duration_MTurk/v2_DepthDuration_HTML.html#106,106,1768,920,1768,992,9-18-2022,10-25-35,82,depth_duration_stimuli/002043_2014-06-24_20-29-38_260595134347_rgbf000039-resize_4/002043_2014-06-24_20-29-38_260595134347_rgbf000039-resize_4-target.png,125,2.8435,4,3288,124,feet,jsons/VE125_randls_28_rotated.json,657694,871540,36,Man
82,503582,DepthScenes,duration_manipulation_targetAtFixation,jsons/VE125_randls_28_rotated.json,http://54.235.29.9/FacialAge/BNav_EC2/DepthDuration/v2_depth_duration_MTurk/v2_DepthDuration_HTML.html#106,106,1768,920,1768,992,9-18-2022,10-25-35,83,depth_duration_stimuli/000691_2014-06-08_13-08-50_260595134347_rgbf000132-resize_3/000691_2014-06-08_13-08-50_260595134347_rgbf000132-resize_3-target.png,125,4.1530000000000005,6,3011,125,feet,jsons/VE125_randls_28_rotated.json,657694,871540,36,Man
83,503582,DepthScenes,duration_manipulation_targetAtFixation,jsons/VE125_randls_28_rotated.json,http://54.235.29.9/FacialAge/BNav_EC2/DepthDuration/v2_depth_duration_MTurk/v2_DepthDuration_HTML.html#106,106,1768,920,1768,992,9-18-2022,10-25-35,84,depth_duration_stimuli/002213_2014-06-28_18-37-58_260595134347_rgbf000055-resize_1/002213_2014-06-28_18-37-58_260595134347_rgbf000055-resize_1-target.png,125,3.62,8,4092,136,feet,jsons/VE125_randls_28_rotated.json,657694,871540,36,Man
84,503582,DepthScenes,duration_manipulation_targetAtFixation,jsons/VE125_randls_28_rotated.json,http://54.235.29.9/FacialAge/BNav_EC2/DepthDuration/v2_depth_duration_MTurk/v2_DepthDuration_HTML.html#106,106,1768,920,1768,992,9-18-2022,10-25-35,85,depth_duration_stimuli/001235_2014-06-17_16-37-36_260595134347_rgbf000084-resize_4/001235_2014-06-17_16-37-36_260595134347_rgbf000084-resize_4-target.png,125,3.6605,4,2942,124,feet,jsons/VE125_randls_28_rotated.json,657694,871540,36,Man
85,503582,DepthScenes,duration_manipulation_targetAtFixation,jsons/VE125_randls_28_rotated.json,http://54.235.29.9/FacialAge/BNav_EC2/DepthDuration/v2_depth_duration_MTurk/v2_DepthDuration_HTML.html#106,106,1768,920,1768,992,9-18-2022,10-25-35,86,depth_duration_stimuli/000788_2014-06-08_22-34-36_260595134347_rgbf000131-resize_1/000788_2014-06-08_22-34-36_260595134347_rgbf000131-resize_1-target.png,125,3.359,4,4252,132,feet,jsons/VE125_randls_28_rotated.json,657694,871540,36,Man
86,503582,DepthScenes,duration_manipulation_targetAtFixation,jsons/VE125_randls_28_rotated.json,http://54.235.29.9/FacialAge/BNav_EC2/DepthDuration/v2_depth_duration_MTurk/v2_DepthDuration_HTML.html#106,106,1768,920,1768,992,9-18-2022,10-25-35,87,depth_duration_stimuli/002875_2014-06-01_15-19-00_094959634447_rgbf000151-resize_1/002875_2014-06-01_15-19-00_094959634447_rgbf000151-resize_1-target.png,125,1.9675,3,3159,125,feet,jsons/VE125_randls_28_rotated.json,657694,871540,36,Man
87,503582,DepthScenes,duration_manipulation_targetAtFixation,jsons/VE125_randls_28_rotated.json,http://54.235.29.9/FacialAge/BNav_EC2/DepthDuration/v2_depth_duration_MTurk/v2_DepthDuration_HTML.html#106,106,1768,920,1768,992,9-18-2022,10-25-35,88,depth_duration_stimuli/001011_2014-06-08_23-18-54_260595134347_rgbf000044-resize_4/001011_2014-06-08_23-18-54_260595134347_rgbf000044-resize_4-target.png,125,2.4730000000000003,3,2740,125,feet,jsons/VE125_randls_28_rotated.json,657694,871540,36,Man
88,503582,DepthScenes,duration_manipulation_targetAtFixation,jsons/VE125_randls_28_rotated.json,http://54.235.29.9/FacialAge/BNav_EC2/DepthDuration/v2_depth_duration_MTurk/v2_DepthDuration_HTML.html#106,106,1768,920,1768,992,9-18-2022,10-25-35,89,depth_duration_stimuli/002637_2014-06-24_14-51-13_094959634447_rgbf000066-resize_4/002637_2014-06-24_14-51-13_094959634447_rgbf000066-resize_4-target.png,125,1.9955,3,6116,137,feet,jsons/VE125_randls_28_rotated.json,657694,871540,36,Man
89,503582,DepthScenes,duration_manipulation_targetAtFixation,jsons/VE125_randls_28_rotated.json,http://54.235.29.9/FacialAge/BNav_EC2/DepthDuration/v2_depth_duration_MTurk/v2_DepthDuration_HTML.html#106,106,1768,920,1768,992,9-18-2022,10-25-35,90,depth_duration_stimuli/003534_2014-05-22_15-06-10_094959634447_rgbf000102-resize_4/003534_2014-05-22_15-06-10_094959634447_rgbf000102-resize_4-target.png,125,1.426,2,4827,125,feet,jsons/VE125_randls_28_rotated.json,657694,871540,36,Man
90,503582,DepthScenes,duration_manipulation_targetAtFixation,jsons/VE125_randls_28_rotated.json,http://54.235.29.9/FacialAge/BNav_EC2/DepthDuration/v2_depth_duration_MTurk/v2_DepthDuration_HTML.html#106,106,1768,920,1768,992,9-18-2022,10-25-35,91,depth_duration_stimuli/002805_2014-06-22_19-54-03_094959634447_rgbf000079-resize_1/002805_2014-06-22_19-54-03_094959634447_rgbf000079-resize_1-target.png,125,3.1439999999999997,5,3690,125,feet,jsons/VE125_randls_28_rotated.json,657694,871540,36,Man
91,503582,DepthScenes,duration_manipulation_targetAtFixation,jsons/VE125_randls_28_rotated.json,http://54.235.29.9/FacialAge/BNav_EC2/DepthDuration/v2_depth_duration_MTurk/v2_DepthDuration_HTML.html#106,106,1768,920,1768,992,9-18-2022,10-25-35,92,depth_duration_stimuli/000906_2014-06-08_13-35-43_260595134347_rgbf000155-resize_1/000906_2014-06-08_13-35-43_260595134347_rgbf000155-resize_1-target.png,125,2.8489999999999998,5,3714,125,feet,jsons/VE125_randls_28_rotated.json,657694,871540,36,Man
92,503582,DepthScenes,duration_manipulation_targetAtFixation,jsons/VE125_randls_28_rotated.json,http://54.235.29.9/FacialAge/BNav_EC2/DepthDuration/v2_depth_duration_MTurk/v2_DepthDuration_HTML.html#106,106,1768,920,1768,992,9-18-2022,10-25-35,93,depth_duration_stimuli/000103_2014-05-14_22-01-17_260595134347_rgbf000152-resize_5/000103_2014-05-14_22-01-17_260595134347_rgbf000152-resize_5-target.png,125,1.993,4,4380,135,feet,jsons/VE125_randls_28_rotated.json,657694,871540,36,Man
93,503582,DepthScenes,duration_manipulation_targetAtFixation,jsons/VE125_randls_28_rotated.json,http://54.235.29.9/FacialAge/BNav_EC2/DepthDuration/v2_depth_duration_MTurk/v2_DepthDuration_HTML.html#106,106,1768,920,1768,992,9-18-2022,10-25-35,94,depth_duration_stimuli/001555_2014-06-20_17-12-10_260595134347_rgbf000065-resize_4/001555_2014-06-20_17-12-10_260595134347_rgbf000065-resize_4-target.png,125,1.633,2,2858,123,feet,jsons/VE125_randls_28_rotated.json,657694,871540,36,Man
94,503582,DepthScenes,duration_manipulation_targetAtFixation,jsons/VE125_randls_28_rotated.json,http://54.235.29.9/FacialAge/BNav_EC2/DepthDuration/v2_depth_duration_MTurk/v2_DepthDuration_HTML.html#106,106,1768,920,1768,992,9-18-2022,10-25-35,95,depth_duration_stimuli/002678_2014-06-13_16-15-32_094959634447_rgbf000151-resize_6/002678_2014-06-13_16-15-32_094959634447_rgbf000151-resize_6-target.png,125,2.1830000000000003,6,3755,126,feet,jsons/VE125_randls_28_rotated.json,657694,871540,36,Man
95,503582,DepthScenes,duration_manipulation_targetAtFixation,jsons/VE125_randls_28_rotated.json,http://54.235.29.9/FacialAge/BNav_EC2/DepthDuration/v2_depth_duration_MTurk/v2_DepthDuration_HTML.html#106,106,1768,920,1768,992,9-18-2022,10-25-35,96,depth_duration_stimuli/000368_2014-06-09_15-53-01_260595134347_rgbf000155-resize_2/000368_2014-06-09_15-53-01_260595134347_rgbf000155-resize_2-target.png,125,2.4859999999999998,3,3011,125,feet,jsons/VE125_randls_28_rotated.json,657694,871540,36,Man
96,503582,DepthScenes,duration_manipulation_targetAtFixation,jsons/VE125_randls_28_rotated.json,http://54.235.29.9/FacialAge/BNav_EC2/DepthDuration/v2_depth_duration_MTurk/v2_DepthDuration_HTML.html#106,106,1768,920,1768,992,9-18-2022,10-25-35,97,depth_duration_stimuli/002568_2014-06-24_13-59-21_094959634447_rgbf000062-resize_4/002568_2014-06-24_13-59-21_094959634447_rgbf000062-resize_4-target.png,125,3.015,5,2684,137,feet,jsons/VE125_randls_28_rotated.json,657694,871540,36,Man
97,503582,DepthScenes,duration_manipulation_targetAtFixation,jsons/VE125_randls_28_rotated.json,http://54.235.29.9/FacialAge/BNav_EC2/DepthDuration/v2_depth_duration_MTurk/v2_DepthDuration_HTML.html#106,106,1768,920,1768,992,9-18-2022,10-25-35,98,depth_duration_stimuli/003492_2014-05-21_15-50-55_094959634447_rgbf000828-resize_1/003492_2014-05-21_15-50-55_094959634447_rgbf000828-resize_1-target.png,125,4.06875,6,3114,137,feet,jsons/VE125_randls_28_rotated.json,657694,871540,36,Man
98,503582,DepthScenes,duration_manipulation_targetAtFixation,jsons/VE125_randls_28_rotated.json,http://54.235.29.9/FacialAge/BNav_EC2/DepthDuration/v2_depth_duration_MTurk/v2_DepthDuration_HTML.html#106,106,1768,920,1768,992,9-18-2022,10-25-35,99,depth_duration_stimuli/001222_2014-06-17_16-24-06_260595134347_rgbf000073-resize_0/001222_2014-06-17_16-24-06_260595134347_rgbf000073-resize-original.jpg,125,1.4385,0,2939,132,feet,jsons/VE125_randls_28_rotated.json,657694,871540,36,Man
99,503582,DepthScenes,duration_manipulation_targetAtFixation,jsons/VE125_randls_28_rotated.json,http://54.235.29.9/FacialAge/BNav_EC2/DepthDuration/v2_depth_duration_MTurk/v2_DepthDuration_HTML.html#106,106,1768,920,1768,992,9-18-2022,10-25-35,100,depth_duration_stimuli/000457_2014-06-08_16-52-43_260595134347_rgbf000199-resize_1/000457_2014-06-08_16-52-43_260595134347_rgbf000199-resize_1-target.png,125,3.6489999999999996,4,2625,124,feet,jsons/VE125_randls_28_rotated.json,657694,871540,36,Man
100,503582,DepthScenes,duration_manipulation_targetAtFixation,jsons/VE125_randls_28_rotated.json,http://54.235.29.9/FacialAge/BNav_EC2/DepthDuration/v2_depth_duration_MTurk/v2_DepthDuration_HTML.html#106,106,1768,920,1768,992,9-18-2022,10-25-35,101,depth_duration_stimuli/000929_2014-06-09_16-33-19_260595134347_rgbf000139-resize_0/000929_2014-06-09_16-33-19_260595134347_rgbf000139-resize_0-target.png,125,2.8680000000000003,3,4140,125,feet,jsons/VE125_randls_28_rotated.json,657694,871540,36,Man
101,503582,DepthScenes,duration_manipulation_targetAtFixation,jsons/VE125_randls_28_rotated.json,http://54.235.29.9/FacialAge/BNav_EC2/DepthDuration/v2_depth_duration_MTurk/v2_DepthDuration_HTML.html#106,106,1768,920,1768,992,9-18-2022,10-25-35,102,depth_duration_stimuli/001100_2014-06-15_17-46-26_260595134347_rgbf000225-resize_2/001100_2014-06-15_17-46-26_260595134347_rgbf000225-resize_2-target.png,125,2.24,2,5356,124,feet,jsons/VE125_randls_28_rotated.json,657694,871540,36,Man
102,503582,DepthScenes,duration_manipulation_targetAtFixation,jsons/VE125_randls_28_rotated.json,http://54.235.29.9/FacialAge/BNav_EC2/DepthDuration/v2_depth_duration_MTurk/v2_DepthDuration_HTML.html#106,106,1768,920,1768,992,9-18-2022,10-25-35,103,depth_duration_stimuli/002784_2014-06-22_19-26-30_094959634447_rgbf000083-resize_3/002784_2014-06-22_19-26-30_094959634447_rgbf000083-resize_3-target.png,125,1.8046666666667,3,2787,125,feet,jsons/VE125_randls_28_rotated.json,657694,871540,36,Man
103,503582,DepthScenes,duration_manipulation_targetAtFixation,jsons/VE125_randls_28_rotated.json,http://54.235.29.9/FacialAge/BNav_EC2/DepthDuration/v2_depth_duration_MTurk/v2_DepthDuration_HTML.html#106,106,1768,920,1768,992,9-18-2022,10-25-35,104,depth_duration_stimuli/000677_2014-06-08_23-10-32_260595134347_rgbf000158-resize_6/000677_2014-06-08_23-10-32_260595134347_rgbf000158-resize_6-target.png,125,3.556,4,2979,136,feet,jsons/VE125_randls_28_rotated.json,657694,871540,36,Man
104,503582,DepthScenes,duration_manipulation_targetAtFixation,jsons/VE125_randls_28_rotated.json,http://54.235.29.9/FacialAge/BNav_EC2/DepthDuration/v2_depth_duration_MTurk/v2_DepthDuration_HTML.html#106,106,1768,920,1768,992,9-18-2022,10-25-35,105,depth_duration_stimuli/001029_2014-06-08_13-17-57_260595134347_rgbf000065-resize_1/001029_2014-06-08_13-17-57_260595134347_rgbf000065-resize_1-target.png,125,3.0835,3,2908,135,feet,jsons/VE125_randls_28_rotated.json,657694,871540,36,Man
105,503582,DepthScenes,duration_manipulation_targetAtFixation,jsons/VE125_randls_28_rotated.json,http://54.235.29.9/FacialAge/BNav_EC2/DepthDuration/v2_depth_duration_MTurk/v2_DepthDuration_HTML.html#106,106,1768,920,1768,992,9-18-2022,10-25-35,106,depth_duration_stimuli/003129_2014-05-12_10-48-10_094959634447_rgbf000100-resize_0/003129_2014-05-12_10-48-10_094959634447_rgbf000100-resize_0-target.png,125,4.9305,5,3347,124,feet,jsons/VE125_randls_28_rotated.json,657694,871540,36,Man
106,503582,DepthScenes,duration_manipulation_targetAtFixation,jsons/VE125_randls_28_rotated.json,http://54.235.29.9/FacialAge/BNav_EC2/DepthDuration/v2_depth_duration_MTurk/v2_DepthDuration_HTML.html#106,106,1768,920,1768,992,9-18-2022,10-25-35,107,depth_duration_stimuli/000414_2014-06-04_19-49-13_260595134347_rgbf000044-resize_0/000414_2014-06-04_19-49-13_260595134347_rgbf000044-resize_0-target.png,125,4.329,7,3770,124,feet,jsons/VE125_randls_28_rotated.json,657694,871540,36,Man
107,503582,DepthScenes,duration_manipulation_targetAtFixation,jsons/VE125_randls_28_rotated.json,http://54.235.29.9/FacialAge/BNav_EC2/DepthDuration/v2_depth_duration_MTurk/v2_DepthDuration_HTML.html#106,106,1768,920,1768,992,9-18-2022,10-25-35,108,depth_duration_stimuli/003083_2014-06-15_15-21-03_094959634447_rgbf000063-resize_1/003083_2014-06-15_15-21-03_094959634447_rgbf000063-resize_1-target.png,125,4.1405,7,3436,129,feet,jsons/VE125_randls_28_rotated.json,657694,871540,36,Man
108,503582,DepthScenes,duration_manipulation_targetAtFixation,jsons/VE125_randls_28_rotated.json,http://54.235.29.9/FacialAge/BNav_EC2/DepthDuration/v2_depth_duration_MTurk/v2_DepthDuration_HTML.html#106,106,1768,920,1768,992,9-18-2022,10-25-35,109,depth_duration_stimuli/000486_2014-06-09_20-47-20_260595134347_rgbf000143-resize_2/000486_2014-06-09_20-47-20_260595134347_rgbf000143-resize_2-target.png,125,4.8325,4,2388,125,feet,jsons/VE125_randls_28_rotated.json,657694,871540,36,Man
109,503582,DepthScenes,duration_manipulation_targetAtFixation,jsons/VE125_randls_28_rotated.json,http://54.235.29.9/FacialAge/BNav_EC2/DepthDuration/v2_depth_duration_MTurk/v2_DepthDuration_HTML.html#106,106,1768,920,1768,992,9-18-2022,10-25-35,110,depth_duration_stimuli/002639_2014-06-24_14-51-37_094959634447_rgbf000074-resize_4/002639_2014-06-24_14-51-37_094959634447_rgbf000074-resize_4-target.png,125,4.0375,3,3010,138,feet,jsons/VE125_randls_28_rotated.json,657694,871540,36,Man
110,503582,DepthScenes,duration_manipulation_targetAtFixation,jsons/VE125_randls_28_rotated.json,http://54.235.29.9/FacialAge/BNav_EC2/DepthDuration/v2_depth_duration_MTurk/v2_DepthDuration_HTML.html#106,106,1768,920,1768,992,9-18-2022,10-25-35,111,depth_duration_stimuli/003292_2014-05-14_21-53-49_094959634447_rgbf000100-resize_2/003292_2014-05-14_21-53-49_094959634447_rgbf000100-resize_2-target.png,125,3.4815,4,3340,124,feet,jsons/VE125_randls_28_rotated.json,657694,871540,36,Man
111,503582,DepthScenes,duration_manipulation_targetAtFixation,jsons/VE125_randls_28_rotated.json,http://54.235.29.9/FacialAge/BNav_EC2/DepthDuration/v2_depth_duration_MTurk/v2_DepthDuration_HTML.html#106,106,1768,920,1768,992,9-18-2022,10-25-35,112,depth_duration_stimuli/003228_2014-05-14_13-42-35_094959634447_rgbf000101-resize_1/003228_2014-05-14_13-42-35_094959634447_rgbf000101-resize_1-target.png,125,1.9680000000000002,3,3827,122,feet,jsons/VE125_randls_28_rotated.json,657694,871540,36,Man
112,503582,DepthScenes,duration_manipulation_targetAtFixation,jsons/VE125_randls_28_rotated.json,http://54.235.29.9/FacialAge/BNav_EC2/DepthDuration/v2_depth_duration_MTurk/v2_DepthDuration_HTML.html#106,106,1768,920,1768,992,9-18-2022,10-25-35,113,depth_duration_stimuli/002600_2014-06-24_14-27-04_094959634447_rgbf000074-resize_2/002600_2014-06-24_14-27-04_094959634447_rgbf000074-resize_2-target.png,125,2.7575,5,3546,125,feet,jsons/VE125_randls_28_rotated.json,657694,871540,36,Man
113,503582,DepthScenes,duration_manipulation_targetAtFixation,jsons/VE125_randls_28_rotated.json,http://54.235.29.9/FacialAge/BNav_EC2/DepthDuration/v2_depth_duration_MTurk/v2_DepthDuration_HTML.html#106,106,1768,920,1768,992,9-18-2022,10-25-35,114,depth_duration_stimuli/002103_2014-06-25_20-00-40_260595134347_rgbf000049-resize_0/002103_2014-06-25_20-00-40_260595134347_rgbf000049-resize_0-target.png,125,4.105,4,3150,119,feet,jsons/VE125_randls_28_rotated.json,657694,871540,36,Man
114,503582,DepthScenes,duration_manipulation_targetAtFixation,jsons/VE125_randls_28_rotated.json,http://54.235.29.9/FacialAge/BNav_EC2/DepthDuration/v2_depth_duration_MTurk/v2_DepthDuration_HTML.html#106,106,1768,920,1768,992,9-18-2022,10-25-35,115,depth_duration_stimuli/002039_2014-06-24_20-22-38_260595134347_rgbf000084-resize_1/002039_2014-06-24_20-22-38_260595134347_rgbf000084-resize_1-target.png,125,4.408,6,3939,133,feet,jsons/VE125_randls_28_rotated.json,657694,871540,36,Man
115,503582,DepthScenes,duration_manipulation_targetAtFixation,jsons/VE125_randls_28_rotated.json,http://54.235.29.9/FacialAge/BNav_EC2/DepthDuration/v2_depth_duration_MTurk/v2_DepthDuration_HTML.html#106,106,1768,920,1768,992,9-18-2022,10-25-35,116,depth_duration_stimuli/002995_2014-06-15_12-31-26_094959634447_rgbf000150-resize_1/002995_2014-06-15_12-31-26_094959634447_rgbf000150-resize_1-target.png,125,3.8360000000000003,6,4764,124,feet,jsons/VE125_randls_28_rotated.json,657694,871540,36,Man
116,503582,DepthScenes,duration_manipulation_targetAtFixation,jsons/VE125_randls_28_rotated.json,http://54.235.29.9/FacialAge/BNav_EC2/DepthDuration/v2_depth_duration_MTurk/v2_DepthDuration_HTML.html#106,106,1768,920,1768,992,9-18-2022,10-25-35,117,depth_duration_stimuli/002748_2014-06-22_19-07-22_094959634447_rgbf000078-resize_1/002748_2014-06-22_19-07-22_094959634447_rgbf000078-resize_1-target.png,125,4.6705,9,6724,124,feet,jsons/VE125_randls_28_rotated.json,657694,871540,36,Man
117,503582,DepthScenes,duration_manipulation_targetAtFixation,jsons/VE125_randls_28_rotated.json,http://54.235.29.9/FacialAge/BNav_EC2/DepthDuration/v2_depth_duration_MTurk/v2_DepthDuration_HTML.html#106,106,1768,920,1768,992,9-18-2022,10-25-35,118,depth_duration_stimuli/001052_2014-06-08_18-24-54_260595134347_rgbf000130-resize_1/001052_2014-06-08_18-24-54_260595134347_rgbf000130-resize_1-target.png,125,4.1045,4,3075,125,feet,jsons/VE125_randls_28_rotated.json,657694,871540,36,Man
118,503582,DepthScenes,duration_manipulation_targetAtFixation,jsons/VE125_randls_28_rotated.json,http://54.235.29.9/FacialAge/BNav_EC2/DepthDuration/v2_depth_duration_MTurk/v2_DepthDuration_HTML.html#106,106,1768,920,1768,992,9-18-2022,10-25-35,119,depth_duration_stimuli/002988_2014-06-15_12-24-20_094959634447_rgbf000150-resize_1/002988_2014-06-15_12-24-20_094959634447_rgbf000150-resize_1-target.png,125,4.7669999999999995,6,3332,125,feet,jsons/VE125_randls_28_rotated.json,657694,871540,36,Man
119,503582,DepthScenes,duration_manipulation_targetAtFixation,jsons/VE125_randls_28_rotated.json,http://54.235.29.9/FacialAge/BNav_EC2/DepthDuration/v2_depth_duration_MTurk/v2_DepthDuration_HTML.html#106,106,1768,920,1768,992,9-18-2022,10-25-35,120,depth_duration_stimuli/000787_2014-06-08_22-33-53_260595134347_rgbf000175-resize_1/000787_2014-06-08_22-33-53_260595134347_rgbf000175-resize-original.jpg,125,4.784,0,3675,125,feet,jsons/VE125_randls_28_rotated.json,657694,871540,36,Man
120,503582,DepthScenes,duration_manipulation_targetAtFixation,jsons/VE125_randls_28_rotated.json,http://54.235.29.9/FacialAge/BNav_EC2/DepthDuration/v2_depth_duration_MTurk/v2_DepthDuration_HTML.html#106,106,1768,920,1768,992,9-18-2022,10-25-35,121,depth_duration_stimuli/001571_2014-06-20_17-21-32_260595134347_rgbf000089-resize_1/001571_2014-06-20_17-21-32_260595134347_rgbf000089-resize_1-target.png,125,1.86,2,2539,125,feet,jsons/VE125_randls_28_rotated.json,657694,871540,36,Man
121,503582,DepthScenes,duration_manipulation_targetAtFixation,jsons/VE125_randls_28_rotated.json,http://54.235.29.9/FacialAge/BNav_EC2/DepthDuration/v2_depth_duration_MTurk/v2_DepthDuration_HTML.html#106,106,1768,920,1768,992,9-18-2022,10-25-35,122,depth_duration_stimuli/002272_2014-06-28_18-53-56_260595134347_rgbf000067-resize_2/002272_2014-06-28_18-53-56_260595134347_rgbf000067-resize_2-target.png,125,1.138,2,4300,124,feet,jsons/VE125_randls_28_rotated.json,657694,871540,36,Man
122,503582,DepthScenes,duration_manipulation_targetAtFixation,jsons/VE125_randls_28_rotated.json,http://54.235.29.9/FacialAge/BNav_EC2/DepthDuration/v2_depth_duration_MTurk/v2_DepthDuration_HTML.html#106,106,1768,920,1768,992,9-18-2022,10-25-35,123,depth_duration_stimuli/002545_2014-06-24_13-38-53_094959634447_rgbf000080-resize_4/002545_2014-06-24_13-38-53_094959634447_rgbf000080-resize_4-target.png,125,1.9205,4,2780,126,feet,jsons/VE125_randls_28_rotated.json,657694,871540,36,Man
123,503582,DepthScenes,duration_manipulation_targetAtFixation,jsons/VE125_randls_28_rotated.json,http://54.235.29.9/FacialAge/BNav_EC2/DepthDuration/v2_depth_duration_MTurk/v2_DepthDuration_HTML.html#106,106,1768,920,1768,992,9-18-2022,10-25-35,124,depth_duration_stimuli/001092_2014-06-15_17-34-58_260595134347_rgbf000171-resize_3/001092_2014-06-15_17-34-58_260595134347_rgbf000171-resize_3-target.png,125,2.6935,3,4939,124,feet,jsons/VE125_randls_28_rotated.json,657694,871540,36,Man
124,503582,DepthScenes,duration_manipulation_targetAtFixation,jsons/VE125_randls_28_rotated.json,http://54.235.29.9/FacialAge/BNav_EC2/DepthDuration/v2_depth_duration_MTurk/v2_DepthDuration_HTML.html#106,106,1768,920,1768,992,9-18-2022,10-25-35,125,depth_duration_stimuli/003079_2014-06-15_15-18-20_094959634447_rgbf000152-resize_8/003079_2014-06-15_15-18-20_094959634447_rgbf000152-resize_8-target.png,125,2.8775,5,3259,124,feet,jsons/VE125_randls_28_rotated.json,657694,871540,36,Man
125,503582,DepthScenes,duration_manipulation_targetAtFixation,jsons/VE125_randls_28_rotated.json,http://54.235.29.9/FacialAge/BNav_EC2/DepthDuration/v2_depth_duration_MTurk/v2_DepthDuration_HTML.html#106,106,1768,920,1768,992,9-18-2022,10-25-35,126,depth_duration_stimuli/000506_2014-06-08_23-21-00_260595134347_rgbf000070-resize_7/000506_2014-06-08_23-21-00_260595134347_rgbf000070-resize_7-target.png,125,4.0585,6,2995,124,feet,jsons/VE125_randls_28_rotated.json,657694,871540,36,Man
126,503582,DepthScenes,duration_manipulation_targetAtFixation,jsons/VE125_randls_28_rotated.json,http://54.235.29.9/FacialAge/BNav_EC2/DepthDuration/v2_depth_duration_MTurk/v2_DepthDuration_HTML.html#106,106,1768,920,1768,992,9-18-2022,10-25-35,127,depth_duration_stimuli/000556_2014-06-09_22-42-56_260595134347_rgbf000214-resize_1/000556_2014-06-09_22-42-56_260595134347_rgbf000214-resize_1-target.png,125,4.8415,5,3923,124,feet,jsons/VE125_randls_28_rotated.json,657694,871540,36,Man
127,503582,DepthScenes,duration_manipulation_targetAtFixation,jsons/VE125_randls_28_rotated.json,http://54.235.29.9/FacialAge/BNav_EC2/DepthDuration/v2_depth_duration_MTurk/v2_DepthDuration_HTML.html#106,106,1768,920,1768,992,9-18-2022,10-25-35,128,depth_duration_stimuli/001158_2014-06-17_15-32-16_260595134347_rgbf000138-resize_2/001158_2014-06-17_15-32-16_260595134347_rgbf000138-resize_2-target.png,125,4.5315,8,3979,125,feet,jsons/VE125_randls_28_rotated.json,657694,871540,36,Man
128,503582,DepthScenes,duration_manipulation_targetAtFixation,jsons/VE125_randls_28_rotated.json,http://54.235.29.9/FacialAge/BNav_EC2/DepthDuration/v2_depth_duration_MTurk/v2_DepthDuration_HTML.html#106,106,1768,920,1768,992,9-18-2022,10-25-35,129,depth_duration_stimuli/001214_2014-06-17_16-13-55_260595134347_rgbf000111-resize_0/001214_2014-06-17_16-13-55_260595134347_rgbf000111-resize_0-target.png,125,2.6505,4,4367,125,feet,jsons/VE125_randls_28_rotated.json,657694,871540,36,Man
129,503582,DepthScenes,duration_manipulation_targetAtFixation,jsons/VE125_randls_28_rotated.json,http://54.235.29.9/FacialAge/BNav_EC2/DepthDuration/v2_depth_duration_MTurk/v2_DepthDuration_HTML.html#106,106,1768,920,1768,992,9-18-2022,10-25-35,130,depth_duration_stimuli/000810_2014-06-08_17-20-01_260595134347_rgbf000105-resize_0/000810_2014-06-08_17-20-01_260595134347_rgbf000105-resize_0-target.png,125,1.4865,3,2943,124,feet,jsons/VE125_randls_28_rotated.json,657694,871540,36,Man
130,503582,DepthScenes,duration_manipulation_targetAtFixation,jsons/VE125_randls_28_rotated.json,http://54.235.29.9/FacialAge/BNav_EC2/DepthDuration/v2_depth_duration_MTurk/v2_DepthDuration_HTML.html#106,106,1768,920,1768,992,9-18-2022,10-25-35,131,depth_duration_stimuli/003490_2014-05-21_15-50-11_094959634447_rgbf000101-resize_3/003490_2014-05-21_15-50-11_094959634447_rgbf000101-resize_3-target.png,125,3.6445,6,3799,125,feet,jsons/VE125_randls_28_rotated.json,657694,871540,36,Man
131,503582,DepthScenes,duration_manipulation_targetAtFixation,jsons/VE125_randls_28_rotated.json,http://54.235.29.9/FacialAge/BNav_EC2/DepthDuration/v2_depth_duration_MTurk/v2_DepthDuration_HTML.html#106,106,1768,920,1768,992,9-18-2022,10-25-35,132,depth_duration_stimuli/001175_2014-06-17_15-45-55_260595134347_rgbf000129-resize_4/001175_2014-06-17_15-45-55_260595134347_rgbf000129-resize_4-target.png,125,4.255,8,4268,135,feet,jsons/VE125_randls_28_rotated.json,657694,871540,36,Man
132,503582,DepthScenes,duration_manipulation_targetAtFixation,jsons/VE125_randls_28_rotated.json,http://54.235.29.9/FacialAge/BNav_EC2/DepthDuration/v2_depth_duration_MTurk/v2_DepthDuration_HTML.html#106,106,1768,920,1768,992,9-18-2022,10-25-35,133,depth_duration_stimuli/002444_2014-06-28_20-32-08_260595134347_rgbf000027-resize_0/002444_2014-06-28_20-32-08_260595134347_rgbf000027-resize_0-target.png,125,4.388999999999999,6,4924,125,feet,jsons/VE125_randls_28_rotated.json,657694,871540,36,Man
133,503582,DepthScenes,duration_manipulation_targetAtFixation,jsons/VE125_randls_28_rotated.json,http://54.235.29.9/FacialAge/BNav_EC2/DepthDuration/v2_depth_duration_MTurk/v2_DepthDuration_HTML.html#106,106,1768,920,1768,992,9-18-2022,10-25-35,134,depth_duration_stimuli/000436_2014-06-09_22-25-11_260595134347_rgbf000137-resize_1/000436_2014-06-09_22-25-11_260595134347_rgbf000137-resize_1-target.png,125,4.0705,6,4228,125,feet,jsons/VE125_randls_28_rotated.json,657694,871540,36,Man
134,503582,DepthScenes,duration_manipulation_targetAtFixation,jsons/VE125_randls_28_rotated.json,http://54.235.29.9/FacialAge/BNav_EC2/DepthDuration/v2_depth_duration_MTurk/v2_DepthDuration_HTML.html#106,106,1768,920,1768,992,9-18-2022,10-25-35,135,depth_duration_stimuli/000375_2014-06-08_11-17-29_260595134347_rgbf000133-resize_2/000375_2014-06-08_11-17-29_260595134347_rgbf000133-resize-original.jpg,125,4.718,0,3196,125,feet,jsons/VE125_randls_28_rotated.json,657694,871540,36,Man
135,503582,DepthScenes,duration_manipulation_targetAtFixation,jsons/VE125_randls_28_rotated.json,http://54.235.29.9/FacialAge/BNav_EC2/DepthDuration/v2_depth_duration_MTurk/v2_DepthDuration_HTML.html#106,106,1768,920,1768,992,9-18-2022,10-25-35,136,depth_duration_stimuli/001032_2014-06-08_13-23-17_260595134347_rgbf000021-resize_3/001032_2014-06-08_13-23-17_260595134347_rgbf000021-resize_3-target.png,125,3.2725,3,2587,124,feet,jsons/VE125_randls_28_rotated.json,657694,871540,36,Man
136,503582,DepthScenes,duration_manipulation_targetAtFixation,jsons/VE125_randls_28_rotated.json,http://54.235.29.9/FacialAge/BNav_EC2/DepthDuration/v2_depth_duration_MTurk/v2_DepthDuration_HTML.html#106,106,1768,920,1768,992,9-18-2022,10-25-35,137,depth_duration_stimuli/001059_2014-06-08_21-53-27_260595134347_rgbf000061-resize_4/001059_2014-06-08_21-53-27_260595134347_rgbf000061-resize_4-target.png,125,2.4185,4,2745,123,feet,jsons/VE125_randls_28_rotated.json,657694,871540,36,Man
137,503582,DepthScenes,duration_manipulation_targetAtFixation,jsons/VE125_randls_28_rotated.json,http://54.235.29.9/FacialAge/BNav_EC2/DepthDuration/v2_depth_duration_MTurk/v2_DepthDuration_HTML.html#106,106,1768,920,1768,992,9-18-2022,10-25-35,138,depth_duration_stimuli/003010_2014-06-15_12-54-35_094959634447_rgbf000112-resize_0/003010_2014-06-15_12-54-35_094959634447_rgbf000112-resize_0-target.png,125,3.1185,5,4073,125,feet,jsons/VE125_randls_28_rotated.json,657694,871540,36,Man
138,503582,DepthScenes,duration_manipulation_targetAtFixation,jsons/VE125_randls_28_rotated.json,http://54.235.29.9/FacialAge/BNav_EC2/DepthDuration/v2_depth_duration_MTurk/v2_DepthDuration_HTML.html#106,106,1768,920,1768,992,9-18-2022,10-25-35,139,depth_duration_stimuli/001810_2014-06-26_20-51-35_260595134347_rgbf000040-resize_3/001810_2014-06-26_20-51-35_260595134347_rgbf000040-resize_3-target.png,125,2.2525,3,3015,123,feet,jsons/VE125_randls_28_rotated.json,657694,871540,36,Man
139,503582,DepthScenes,duration_manipulation_targetAtFixation,jsons/VE125_randls_28_rotated.json,http://54.235.29.9/FacialAge/BNav_EC2/DepthDuration/v2_depth_duration_MTurk/v2_DepthDuration_HTML.html#106,106,1768,920,1768,992,9-18-2022,10-25-35,140,depth_duration_stimuli/000483_2014-06-09_20-41-45_260595134347_rgbf000116-resize_4/000483_2014-06-09_20-41-45_260595134347_rgbf000116-resize_4-target.png,125,1.337,2,5028,123,feet,jsons/VE125_randls_28_rotated.json,657694,871540,36,Man
140,503582,DepthScenes,duration_manipulation_targetAtFixation,jsons/VE125_randls_28_rotated.json,http://54.235.29.9/FacialAge/BNav_EC2/DepthDuration/v2_depth_duration_MTurk/v2_DepthDuration_HTML.html#106,106,1768,920,1768,992,9-18-2022,10-25-35,141,depth_duration_stimuli/000469_2014-06-09_19-42-10_260595134347_rgbf000081-resize_1/000469_2014-06-09_19-42-10_260595134347_rgbf000081-resize_1-target.png,125,1.652,1,3747,125,feet,jsons/VE125_randls_28_rotated.json,657694,871540,36,Man
141,503582,DepthScenes,duration_manipulation_targetAtFixation,jsons/VE125_randls_28_rotated.json,http://54.235.29.9/FacialAge/BNav_EC2/DepthDuration/v2_depth_duration_MTurk/v2_DepthDuration_HTML.html#106,106,1768,920,1768,992,9-18-2022,10-25-35,142,depth_duration_stimuli/000742_2014-06-08_18-48-09_260595134347_rgbf000164-resize_4/000742_2014-06-08_18-48-09_260595134347_rgbf000164-resize_4-target.png,125,4.632,5,3660,127,feet,jsons/VE125_randls_28_rotated.json,657694,871540,36,Man
142,503582,DepthScenes,duration_manipulation_targetAtFixation,jsons/VE125_randls_28_rotated.json,http://54.235.29.9/FacialAge/BNav_EC2/DepthDuration/v2_depth_duration_MTurk/v2_DepthDuration_HTML.html#106,106,1768,920,1768,992,9-18-2022,10-25-35,143,depth_duration_stimuli/001066_2014-06-08_22-03-20_260595134347_rgbf000066-resize_4/001066_2014-06-08_22-03-20_260595134347_rgbf000066-resize_4-target.png,125,4.2330000000000005,5,4092,132,feet,jsons/VE125_randls_28_rotated.json,657694,871540,36,Man
143,503582,DepthScenes,duration_manipulation_targetAtFixation,jsons/VE125_randls_28_rotated.json,http://54.235.29.9/FacialAge/BNav_EC2/DepthDuration/v2_depth_duration_MTurk/v2_DepthDuration_HTML.html#106,106,1768,920,1768,992,9-18-2022,10-25-35,144,depth_duration_stimuli/001447_2014-06-19_17-00-32_260595134347_rgbf000082-resize_5/001447_2014-06-19_17-00-32_260595134347_rgbf000082-resize_5-target.png,125,4.13775,2,4956,124,feet,jsons/VE125_randls_28_rotated.json,657694,871540,36,Man
144,503582,DepthScenes,duration_manipulation_targetAtFixation,jsons/VE125_randls_28_rotated.json,http://54.235.29.9/FacialAge/BNav_EC2/DepthDuration/v2_depth_duration_MTurk/v2_DepthDuration_HTML.html#106,106,1768,920,1768,992,9-18-2022,10-25-35,145,depth_duration_stimuli/000447_2014-06-08_16-15-46_260595134347_rgbf000130-resize_1/000447_2014-06-08_16-15-46_260595134347_rgbf000130-resize_1-target.png,125,4.479,6,4379,125,feet,jsons/VE125_randls_28_rotated.json,657694,871540,36,Man
145,503582,DepthScenes,duration_manipulation_targetAtFixation,jsons/VE125_randls_28_rotated.json,http://54.235.29.9/FacialAge/BNav_EC2/DepthDuration/v2_depth_duration_MTurk/v2_DepthDuration_HTML.html#106,106,1768,920,1768,992,9-18-2022,10-25-35,146,depth_duration_stimuli/000734_2014-06-08_17-39-11_260595134347_rgbf000128-resize_2/000734_2014-06-08_17-39-11_260595134347_rgbf000128-resize_2-target.png,125,4.098,6,4164,124,feet,jsons/VE125_randls_28_rotated.json,657694,871540,36,Man
146,503582,DepthScenes,duration_manipulation_targetAtFixation,jsons/VE125_randls_28_rotated.json,http://54.235.29.9/FacialAge/BNav_EC2/DepthDuration/v2_depth_duration_MTurk/v2_DepthDuration_HTML.html#106,106,1768,920,1768,992,9-18-2022,10-25-35,147,depth_duration_stimuli/000739_2014-06-08_18-45-58_260595134347_rgbf000068-resize_1/000739_2014-06-08_18-45-58_260595134347_rgbf000068-resize_1-target.png,125,3.534,4,2763,125,feet,jsons/VE125_randls_28_rotated.json,657694,871540,36,Man
147,503582,DepthScenes,duration_manipulation_targetAtFixation,jsons/VE125_randls_28_rotated.json,http://54.235.29.9/FacialAge/BNav_EC2/DepthDuration/v2_depth_duration_MTurk/v2_DepthDuration_HTML.html#106,106,1768,920,1768,992,9-18-2022,10-25-35,148,depth_duration_stimuli/000749_2014-06-08_21-55-06_260595134347_rgbf000070-resize_2/000749_2014-06-08_21-55-06_260595134347_rgbf000070-resize_2-target.png,125,2.331,2,4779,123,feet,jsons/VE125_randls_28_rotated.json,657694,871540,36,Man
148,503582,DepthScenes,duration_manipulation_targetAtFixation,jsons/VE125_randls_28_rotated.json,http://54.235.29.9/FacialAge/BNav_EC2/DepthDuration/v2_depth_duration_MTurk/v2_DepthDuration_HTML.html#106,106,1768,920,1768,992,9-18-2022,10-25-35,149,depth_duration_stimuli/002788_2014-06-22_19-36-03_094959634447_rgbf000088-resize_2/002788_2014-06-22_19-36-03_094959634447_rgbf000088-resize_2-target.png,125,1.6465,4,2579,124,feet,jsons/VE125_randls_28_rotated.json,657694,871540,36,Man
149,503582,DepthScenes,duration_manipulation_targetAtFixation,jsons/VE125_randls_28_rotated.json,http://54.235.29.9/FacialAge/BNav_EC2/DepthDuration/v2_depth_duration_MTurk/v2_DepthDuration_HTML.html#106,106,1768,920,1768,992,9-18-2022,10-25-35,150,depth_duration_stimuli/001584_2014-06-20_11-07-43_260595134347_rgbf000002-resize_1/001584_2014-06-20_11-07-43_260595134347_rgbf000002-resize_1-target.png,125,3.53,4,3067,128,feet,jsons/VE125_randls_28_rotated.json,657694,871540,36,Man
150,503582,DepthScenes,duration_manipulation_targetAtFixation,jsons/VE125_randls_28_rotated.json,http://54.235.29.9/FacialAge/BNav_EC2/DepthDuration/v2_depth_duration_MTurk/v2_DepthDuration_HTML.html#106,106,1768,920,1768,992,9-18-2022,10-25-35,151,depth_duration_stimuli/003621_2014-05-23_18-06-08_094959634447_rgbf000101-resize_1/003621_2014-05-23_18-06-08_094959634447_rgbf000101-resize_1-target.png,125,3.9835,6,7082,124,feet,jsons/VE125_randls_28_rotated.json,657694,871540,36,Man
151,503582,DepthScenes,duration_manipulation_targetAtFixation,jsons/VE125_randls_28_rotated.json,http://54.235.29.9/FacialAge/BNav_EC2/DepthDuration/v2_depth_duration_MTurk/v2_DepthDuration_HTML.html#106,106,1768,920,1768,992,9-18-2022,10-25-35,152,depth_duration_stimuli/000569_2014-06-09_22-51-47_260595134347_rgbf000141-resize_3/000569_2014-06-09_22-51-47_260595134347_rgbf000141-resize-original.jpg,125,4.512,0,2891,124,feet,jsons/VE125_randls_28_rotated.json,657694,871540,36,Man
152,503582,DepthScenes,duration_manipulation_targetAtFixation,jsons/VE125_randls_28_rotated.json,http://54.235.29.9/FacialAge/BNav_EC2/DepthDuration/v2_depth_duration_MTurk/v2_DepthDuration_HTML.html#106,106,1768,920,1768,992,9-18-2022,10-25-35,153,depth_duration_stimuli/001094_2014-06-15_17-36-00_260595134347_rgbf000205-resize_0/001094_2014-06-15_17-36-00_260595134347_rgbf000205-resize_0-target.png,125,4.2175,6,4060,124,feet,jsons/VE125_randls_28_rotated.json,657694,871540,36,Man
153,503582,DepthScenes,duration_manipulation_targetAtFixation,jsons/VE125_randls_28_rotated.json,http://54.235.29.9/FacialAge/BNav_EC2/DepthDuration/v2_depth_duration_MTurk/v2_DepthDuration_HTML.html#106,106,1768,920,1768,992,9-18-2022,10-25-35,154,depth_duration_stimuli/000692_2014-06-08_13-09-42_260595134347_rgbf000199-resize_2/000692_2014-06-08_13-09-42_260595134347_rgbf000199-resize_2-target.png,125,3.661,7,4867,123,feet,jsons/VE125_randls_28_rotated.json,657694,871540,36,Man
154,503582,DepthScenes,duration_manipulation_targetAtFixation,jsons/VE125_randls_28_rotated.json,http://54.235.29.9/FacialAge/BNav_EC2/DepthDuration/v2_depth_duration_MTurk/v2_DepthDuration_HTML.html#106,106,1768,920,1768,992,9-18-2022,10-25-35,155,depth_duration_stimuli/002949_2014-06-26_15-57-42_094959634447_rgbf000079-resize_1/002949_2014-06-26_15-57-42_094959634447_rgbf000079-resize_1-target.png,125,1.8915,2,4708,124,feet,jsons/VE125_randls_28_rotated.json,657694,871540,36,Man
155,503582,DepthScenes,duration_manipulation_targetAtFixation,jsons/VE125_randls_28_rotated.json,http://54.235.29.9/FacialAge/BNav_EC2/DepthDuration/v2_depth_duration_MTurk/v2_DepthDuration_HTML.html#106,106,1768,920,1768,992,9-18-2022,10-25-35,156,depth_duration_stimuli/000522_2014-06-08_13-35-06_260595134347_rgbf000244-resize_1/000522_2014-06-08_13-35-06_260595134347_rgbf000244-resize_1-target.png,125,2.3715,1,2570,124,feet,jsons/VE125_randls_28_rotated.json,657694,871540,36,Man
156,503582,DepthScenes,duration_manipulation_targetAtFixation,jsons/VE125_randls_28_rotated.json,http://54.235.29.9/FacialAge/BNav_EC2/DepthDuration/v2_depth_duration_MTurk/v2_DepthDuration_HTML.html#106,106,1768,920,1768,992,9-18-2022,10-25-35,157,depth_duration_stimuli/003338_2014-05-20_11-01-23_094959634447_rgbf000051-resize_6/003338_2014-05-20_11-01-23_094959634447_rgbf000051-resize_6-target.png,125,1.693,2,2528,124,feet,jsons/VE125_randls_28_rotated.json,657694,871540,36,Man
157,503582,DepthScenes,duration_manipulation_targetAtFixation,jsons/VE125_randls_28_rotated.json,http://54.235.29.9/FacialAge/BNav_EC2/DepthDuration/v2_depth_duration_MTurk/v2_DepthDuration_HTML.html#106,106,1768,920,1768,992,9-18-2022,10-25-35,158,depth_duration_stimuli/002509_2014-06-24_13-19-22_094959634447_rgbf000077-resize_0/002509_2014-06-24_13-19-22_094959634447_rgbf000077-resize_0-target.png,125,1.3065,2,2172,133,feet,jsons/VE125_randls_28_rotated.json,657694,871540,36,Man
158,503582,DepthScenes,duration_manipulation_targetAtFixation,jsons/VE125_randls_28_rotated.json,http://54.235.29.9/FacialAge/BNav_EC2/DepthDuration/v2_depth_duration_MTurk/v2_DepthDuration_HTML.html#106,106,1768,920,1768,992,9-18-2022,10-25-35,159,depth_duration_stimuli/002414_2014-06-28_20-24-58_260595134347_rgbf000067-resize_4/002414_2014-06-28_20-24-58_260595134347_rgbf000067-resize_4-target.png,125,4.363,6,4659,131,feet,jsons/VE125_randls_28_rotated.json,657694,871540,36,Man
159,503582,DepthScenes,duration_manipulation_targetAtFixation,jsons/VE125_randls_28_rotated.json,http://54.235.29.9/FacialAge/BNav_EC2/DepthDuration/v2_depth_duration_MTurk/v2_DepthDuration_HTML.html#106,106,1768,920,1768,992,9-18-2022,10-25-35,160,depth_duration_stimuli/000773_2014-06-08_22-24-54_260595134347_rgbf000093-resize_1/000773_2014-06-08_22-24-54_260595134347_rgbf000093-resize_1-target.png,125,4.973,6,4779,124,feet,jsons/VE125_randls_28_rotated.json,657694,871540,36,Man
160,503582,DepthScenes,duration_manipulation_targetAtFixation,jsons/VE125_randls_28_rotated.json,http://54.235.29.9/FacialAge/BNav_EC2/DepthDuration/v2_depth_duration_MTurk/v2_DepthDuration_HTML.html#106,106,1768,920,1768,992,9-18-2022,10-25-35,161,depth_duration_stimuli/002467_2014-06-28_20-38-07_260595134347_rgbf000026-resize_2/002467_2014-06-28_20-38-07_260595134347_rgbf000026-resize_2-target.png,125,4.742,7,3939,125,feet,jsons/VE125_randls_28_rotated.json,657694,871540,36,Man
161,503582,DepthScenes,duration_manipulation_targetAtFixation,jsons/VE125_randls_28_rotated.json,http://54.235.29.9/FacialAge/BNav_EC2/DepthDuration/v2_depth_duration_MTurk/v2_DepthDuration_HTML.html#106,106,1768,920,1768,992,9-18-2022,10-25-35,162,depth_duration_stimuli/002570_2014-06-24_13-59-54_094959634447_rgbf000059-resize_0/002570_2014-06-24_13-59-54_094959634447_rgbf000059-resize_0-target.png,125,4.037,3,2508,127,feet,jsons/VE125_randls_28_rotated.json,657694,871540,36,Man
162,503582,DepthScenes,duration_manipulation_targetAtFixation,jsons/VE125_randls_28_rotated.json,http://54.235.29.9/FacialAge/BNav_EC2/DepthDuration/v2_depth_duration_MTurk/v2_DepthDuration_HTML.html#106,106,1768,920,1768,992,9-18-2022,10-25-35,163,depth_duration_stimuli/001392_2014-06-19_16-07-59_260595134347_rgbf000046-resize_1/001392_2014-06-19_16-07-59_260595134347_rgbf000046-resize_1-target.png,125,4.135,6,4844,131,feet,jsons/VE125_randls_28_rotated.json,657694,871540,36,Man
163,503582,DepthScenes,duration_manipulation_targetAtFixation,jsons/VE125_randls_28_rotated.json,http://54.235.29.9/FacialAge/BNav_EC2/DepthDuration/v2_depth_duration_MTurk/v2_DepthDuration_HTML.html#106,106,1768,920,1768,992,9-18-2022,10-25-35,164,depth_duration_stimuli/001570_2014-06-20_17-21-09_260595134347_rgbf000135-resize_4/001570_2014-06-20_17-21-09_260595134347_rgbf000135-resize_4-target.png,125,4.467,8,3803,123,feet,jsons/VE125_randls_28_rotated.json,657694,871540,36,Man
