,subjID,experimentName,versionName,sequenceName,url,selected_row,windowWidth,windowHeight,screenWidth,screenHeight,startDate,startTime,trial,stimulus,duration,actual_depth,depth_estimate,trial_RT,log_sceneDuration,unitSelection,seq_filepath,experimentTime,totalTime,age,gender
0,503827,DepthScenes,duration_manipulation_targetAtFixation,jsons/v1_VE1000_randls_58_rotated.json,http://54.235.29.9/FacialAge/BNav_EC2/DepthDuration/v2_depth_duration_MTurk/v2_DepthDuration_HTML.html#7,7,1366,625,1366,768,8-30-2022,10-17-12,1,depth_duration_stimuli/000742_2014-06-08_18-48-09_260595134347_rgbf000164-resize_4/000742_2014-06-08_18-48-09_260595134347_rgbf000164-resize_4-target.png,1000,4.632,0,8533,1000,meters,jsons/v1_VE1000_randls_58_rotated.json,1865634,2523368,52,Man
1,503827,DepthScenes,duration_manipulation_targetAtFixation,jsons/v1_VE1000_randls_58_rotated.json,http://54.235.29.9/FacialAge/BNav_EC2/DepthDuration/v2_depth_duration_MTurk/v2_DepthDuration_HTML.html#7,7,1366,625,1366,768,8-30-2022,10-17-12,2,depth_duration_stimuli/001066_2014-06-08_22-03-20_260595134347_rgbf000066-resize_4/001066_2014-06-08_22-03-20_260595134347_rgbf000066-resize_4-target.png,1000,4.2330000000000005,0,18947,1001,meters,jsons/v1_VE1000_randls_58_rotated.json,1865634,2523368,52,Man
2,503827,DepthScenes,duration_manipulation_targetAtFixation,jsons/v1_VE1000_randls_58_rotated.json,http://54.235.29.9/FacialAge/BNav_EC2/DepthDuration/v2_depth_duration_MTurk/v2_DepthDuration_HTML.html#7,7,1366,625,1366,768,8-30-2022,10-17-12,3,depth_duration_stimuli/001392_2014-06-19_16-07-59_260595134347_rgbf000046-resize_1/001392_2014-06-19_16-07-59_260595134347_rgbf000046-resize_1-target.png,1000,4.135,0,6531,993,meters,jsons/v1_VE1000_randls_58_rotated.json,1865634,2523368,52,Man
3,503827,DepthScenes,duration_manipulation_targetAtFixation,jsons/v1_VE1000_randls_58_rotated.json,http://54.235.29.9/FacialAge/BNav_EC2/DepthDuration/v2_depth_duration_MTurk/v2_DepthDuration_HTML.html#7,7,1366,625,1366,768,8-30-2022,10-17-12,4,depth_duration_stimuli/001570_2014-06-20_17-21-09_260595134347_rgbf000135-resize_4/001570_2014-06-20_17-21-09_260595134347_rgbf000135-resize_4-target.png,1000,4.467,0,6439,999,meters,jsons/v1_VE1000_randls_58_rotated.json,1865634,2523368,52,Man
4,503827,DepthScenes,duration_manipulation_targetAtFixation,jsons/v1_VE1000_randls_58_rotated.json,http://54.235.29.9/FacialAge/BNav_EC2/DepthDuration/v2_depth_duration_MTurk/v2_DepthDuration_HTML.html#7,7,1366,625,1366,768,8-30-2022,10-17-12,5,depth_duration_stimuli/001815_2014-06-26_20-52-55_260595134347_rgbf000020-resize_0/001815_2014-06-26_20-52-55_260595134347_rgbf000020-resize_0-target.png,1000,3.3865,0,8533,1014,meters,jsons/v1_VE1000_randls_58_rotated.json,1865634,2523368,52,Man
5,503827,DepthScenes,duration_manipulation_targetAtFixation,jsons/v1_VE1000_randls_58_rotated.json,http://54.235.29.9/FacialAge/BNav_EC2/DepthDuration/v2_depth_duration_MTurk/v2_DepthDuration_HTML.html#7,7,1366,625,1366,768,8-30-2022,10-17-12,6,depth_duration_stimuli/001808_2014-06-26_20-50-58_260595134347_rgbf000029-resize_1/001808_2014-06-26_20-50-58_260595134347_rgbf000029-resize_1-target.png,1000,4.249,0,5101,1001,meters,jsons/v1_VE1000_randls_58_rotated.json,1865634,2523368,52,Man
6,503827,DepthScenes,duration_manipulation_targetAtFixation,jsons/v1_VE1000_randls_58_rotated.json,http://54.235.29.9/FacialAge/BNav_EC2/DepthDuration/v2_depth_duration_MTurk/v2_DepthDuration_HTML.html#7,7,1366,625,1366,768,8-30-2022,10-17-12,7,depth_duration_stimuli/002660_2014-06-13_15-44-18_094959634447_rgbf001878-resize_2/002660_2014-06-13_15-44-18_094959634447_rgbf001878-resize_2-target.png,1000,3.576,0,6744,998,meters,jsons/v1_VE1000_randls_58_rotated.json,1865634,2523368,52,Man
7,503827,DepthScenes,duration_manipulation_targetAtFixation,jsons/v1_VE1000_randls_58_rotated.json,http://54.235.29.9/FacialAge/BNav_EC2/DepthDuration/v2_depth_duration_MTurk/v2_DepthDuration_HTML.html#7,7,1366,625,1366,768,8-30-2022,10-17-12,8,depth_duration_stimuli/002153_2014-06-25_21-27-18_260595134347_rgbf000038-resize_5/002153_2014-06-25_21-27-18_260595134347_rgbf000038-resize_5-target.png,1000,2.505,0,5437,999,meters,jsons/v1_VE1000_randls_58_rotated.json,1865634,2523368,52,Man
8,503827,DepthScenes,duration_manipulation_targetAtFixation,jsons/v1_VE1000_randls_58_rotated.json,http://54.235.29.9/FacialAge/BNav_EC2/DepthDuration/v2_depth_duration_MTurk/v2_DepthDuration_HTML.html#7,7,1366,625,1366,768,8-30-2022,10-17-12,9,depth_duration_stimuli/000749_2014-06-08_21-55-06_260595134347_rgbf000070-resize_2/000749_2014-06-08_21-55-06_260595134347_rgbf000070-resize_2-target.png,1000,2.331,0,13704,1000,meters,jsons/v1_VE1000_randls_58_rotated.json,1865634,2523368,52,Man
9,503827,DepthScenes,duration_manipulation_targetAtFixation,jsons/v1_VE1000_randls_58_rotated.json,http://54.235.29.9/FacialAge/BNav_EC2/DepthDuration/v2_depth_duration_MTurk/v2_DepthDuration_HTML.html#7,7,1366,625,1366,768,8-30-2022,10-17-12,10,depth_duration_stimuli/002788_2014-06-22_19-36-03_094959634447_rgbf000088-resize_2/002788_2014-06-22_19-36-03_094959634447_rgbf000088-resize_2-target.png,1000,1.6465,0,6661,1000,meters,jsons/v1_VE1000_randls_58_rotated.json,1865634,2523368,52,Man
10,503827,DepthScenes,duration_manipulation_targetAtFixation,jsons/v1_VE1000_randls_58_rotated.json,http://54.235.29.9/FacialAge/BNav_EC2/DepthDuration/v2_depth_duration_MTurk/v2_DepthDuration_HTML.html#7,7,1366,625,1366,768,8-30-2022,10-17-12,11,depth_duration_stimuli/002323_2014-06-28_20-01-54_260595134347_rgbf000051-resize_4/002323_2014-06-28_20-01-54_260595134347_rgbf000051-resize_4-target.png,1000,3.7310000000000003,0,7737,988,meters,jsons/v1_VE1000_randls_58_rotated.json,1865634,2523368,52,Man
11,503827,DepthScenes,duration_manipulation_targetAtFixation,jsons/v1_VE1000_randls_58_rotated.json,http://54.235.29.9/FacialAge/BNav_EC2/DepthDuration/v2_depth_duration_MTurk/v2_DepthDuration_HTML.html#7,7,1366,625,1366,768,8-30-2022,10-17-12,12,depth_duration_stimuli/000917_2014-06-09_22-45-29_260595134347_rgbf000149-resize_3/000917_2014-06-09_22-45-29_260595134347_rgbf000149-resize_3-target.png,1000,4.1865,0,9334,1242,meters,jsons/v1_VE1000_randls_58_rotated.json,1865634,2523368,52,Man
12,503827,DepthScenes,duration_manipulation_targetAtFixation,jsons/v1_VE1000_randls_58_rotated.json,http://54.235.29.9/FacialAge/BNav_EC2/DepthDuration/v2_depth_duration_MTurk/v2_DepthDuration_HTML.html#7,7,1366,625,1366,768,8-30-2022,10-17-12,13,depth_duration_stimuli/002136_2014-06-25_21-18-03_260595134347_rgbf000109-resize_3/002136_2014-06-25_21-18-03_260595134347_rgbf000109-resize_3-target.png,1000,1.9569999999999999,0,6640,987,meters,jsons/v1_VE1000_randls_58_rotated.json,1865634,2523368,52,Man
13,503827,DepthScenes,duration_manipulation_targetAtFixation,jsons/v1_VE1000_randls_58_rotated.json,http://54.235.29.9/FacialAge/BNav_EC2/DepthDuration/v2_depth_duration_MTurk/v2_DepthDuration_HTML.html#7,7,1366,625,1366,768,8-30-2022,10-17-12,14,depth_duration_stimuli/002964_2014-06-08_17-46-11_094959634447_rgbf000091-resize_4/002964_2014-06-08_17-46-11_094959634447_rgbf000091-resize_4-target.png,1000,1.6909999999999998,0,5978,976,meters,jsons/v1_VE1000_randls_58_rotated.json,1865634,2523368,52,Man
14,503827,DepthScenes,duration_manipulation_targetAtFixation,jsons/v1_VE1000_randls_58_rotated.json,http://54.235.29.9/FacialAge/BNav_EC2/DepthDuration/v2_depth_duration_MTurk/v2_DepthDuration_HTML.html#7,7,1366,625,1366,768,8-30-2022,10-17-12,15,depth_duration_stimuli/000635_2014-06-08_16-38-42_260595134347_rgbf000106-resize_1/000635_2014-06-08_16-38-42_260595134347_rgbf000106-resize_1-target.png,1000,2.074,0,5028,989,meters,jsons/v1_VE1000_randls_58_rotated.json,1865634,2523368,52,Man
15,503827,DepthScenes,duration_manipulation_targetAtFixation,jsons/v1_VE1000_randls_58_rotated.json,http://54.235.29.9/FacialAge/BNav_EC2/DepthDuration/v2_depth_duration_MTurk/v2_DepthDuration_HTML.html#7,7,1366,625,1366,768,8-30-2022,10-17-12,16,depth_duration_stimuli/002279_2014-06-28_18-55-32_260595134347_rgbf000040-resize_5/002279_2014-06-28_18-55-32_260595134347_rgbf000040-resize_5-target.png,1000,1.5043333333333,0,5288,1009,meters,jsons/v1_VE1000_randls_58_rotated.json,1865634,2523368,52,Man
16,503827,DepthScenes,duration_manipulation_targetAtFixation,jsons/v1_VE1000_randls_58_rotated.json,http://54.235.29.9/FacialAge/BNav_EC2/DepthDuration/v2_depth_duration_MTurk/v2_DepthDuration_HTML.html#7,7,1366,625,1366,768,8-30-2022,10-17-12,17,depth_duration_stimuli/000709_2014-06-08_13-51-55_260595134347_rgbf000068-resize_3/000709_2014-06-08_13-51-55_260595134347_rgbf000068-resize_3-target.png,1000,1.8030000000000002,0,4217,998,meters,jsons/v1_VE1000_randls_58_rotated.json,1865634,2523368,52,Man
17,503827,DepthScenes,duration_manipulation_targetAtFixation,jsons/v1_VE1000_randls_58_rotated.json,http://54.235.29.9/FacialAge/BNav_EC2/DepthDuration/v2_depth_duration_MTurk/v2_DepthDuration_HTML.html#7,7,1366,625,1366,768,8-30-2022,10-17-12,18,depth_duration_stimuli/002057_2014-06-24_21-00-13_260595134347_rgbf000120-resize_1/002057_2014-06-24_21-00-13_260595134347_rgbf000120-resize_1-target.png,1000,2.967,0,6072,1026,meters,jsons/v1_VE1000_randls_58_rotated.json,1865634,2523368,52,Man
18,503827,DepthScenes,duration_manipulation_targetAtFixation,jsons/v1_VE1000_randls_58_rotated.json,http://54.235.29.9/FacialAge/BNav_EC2/DepthDuration/v2_depth_duration_MTurk/v2_DepthDuration_HTML.html#7,7,1366,625,1366,768,8-30-2022,10-17-12,19,depth_duration_stimuli/001498_2014-06-19_17-45-14_260595134347_rgbf000129-resize_4/001498_2014-06-19_17-45-14_260595134347_rgbf000129-resize-original.jpg,1000,1.4075,0,11449,997,meters,jsons/v1_VE1000_randls_58_rotated.json,1865634,2523368,52,Man
19,503827,DepthScenes,duration_manipulation_targetAtFixation,jsons/v1_VE1000_randls_58_rotated.json,http://54.235.29.9/FacialAge/BNav_EC2/DepthDuration/v2_depth_duration_MTurk/v2_DepthDuration_HTML.html#7,7,1366,625,1366,768,8-30-2022,10-17-12,20,depth_duration_stimuli/002875_2014-06-01_15-19-00_094959634447_rgbf000151-resize_1/002875_2014-06-01_15-19-00_094959634447_rgbf000151-resize_1-target.png,1000,1.9675,0,496357,1153,meters,jsons/v1_VE1000_randls_58_rotated.json,1865634,2523368,52,Man
20,503827,DepthScenes,duration_manipulation_targetAtFixation,jsons/v1_VE1000_randls_58_rotated.json,http://54.235.29.9/FacialAge/BNav_EC2/DepthDuration/v2_depth_duration_MTurk/v2_DepthDuration_HTML.html#7,7,1366,625,1366,768,8-30-2022,10-17-12,21,depth_duration_stimuli/001011_2014-06-08_23-18-54_260595134347_rgbf000044-resize_4/001011_2014-06-08_23-18-54_260595134347_rgbf000044-resize_4-target.png,1000,2.4730000000000003,0,5118,1000,meters,jsons/v1_VE1000_randls_58_rotated.json,1865634,2523368,52,Man
21,503827,DepthScenes,duration_manipulation_targetAtFixation,jsons/v1_VE1000_randls_58_rotated.json,http://54.235.29.9/FacialAge/BNav_EC2/DepthDuration/v2_depth_duration_MTurk/v2_DepthDuration_HTML.html#7,7,1366,625,1366,768,8-30-2022,10-17-12,22,depth_duration_stimuli/000866_2014-06-09_20-45-42_260595134347_rgbf000139-resize_1/000866_2014-06-09_20-45-42_260595134347_rgbf000139-resize_1-target.png,1000,3.2155,0,4362,982,meters,jsons/v1_VE1000_randls_58_rotated.json,1865634,2523368,52,Man
22,503827,DepthScenes,duration_manipulation_targetAtFixation,jsons/v1_VE1000_randls_58_rotated.json,http://54.235.29.9/FacialAge/BNav_EC2/DepthDuration/v2_depth_duration_MTurk/v2_DepthDuration_HTML.html#7,7,1366,625,1366,768,8-30-2022,10-17-12,23,depth_duration_stimuli/002989_2014-06-15_12-25-03_094959634447_rgbf000150-resize_3/002989_2014-06-15_12-25-03_094959634447_rgbf000150-resize_3-target.png,1000,4.1975,0,4030,998,meters,jsons/v1_VE1000_randls_58_rotated.json,1865634,2523368,52,Man
23,503827,DepthScenes,duration_manipulation_targetAtFixation,jsons/v1_VE1000_randls_58_rotated.json,http://54.235.29.9/FacialAge/BNav_EC2/DepthDuration/v2_depth_duration_MTurk/v2_DepthDuration_HTML.html#7,7,1366,625,1366,768,8-30-2022,10-17-12,24,depth_duration_stimuli/000109_2014-05-14_23-41-52_260595134347_rgbf000035-resize_9/000109_2014-05-14_23-41-52_260595134347_rgbf000035-resize_9-target.png,1000,1.3545,0,3867,999,meters,jsons/v1_VE1000_randls_58_rotated.json,1865634,2523368,52,Man
24,503827,DepthScenes,duration_manipulation_targetAtFixation,jsons/v1_VE1000_randls_58_rotated.json,http://54.235.29.9/FacialAge/BNav_EC2/DepthDuration/v2_depth_duration_MTurk/v2_DepthDuration_HTML.html#7,7,1366,625,1366,768,8-30-2022,10-17-12,25,depth_duration_stimuli/000470_2014-06-09_19-42-40_260595134347_rgbf000094-resize_1/000470_2014-06-09_19-42-40_260595134347_rgbf000094-resize_1-target.png,1000,1.831,0,3755,999,meters,jsons/v1_VE1000_randls_58_rotated.json,1865634,2523368,52,Man
25,503827,DepthScenes,duration_manipulation_targetAtFixation,jsons/v1_VE1000_randls_58_rotated.json,http://54.235.29.9/FacialAge/BNav_EC2/DepthDuration/v2_depth_duration_MTurk/v2_DepthDuration_HTML.html#7,7,1366,625,1366,768,8-30-2022,10-17-12,26,depth_duration_stimuli/003587_2014-05-23_16-48-02_094959634447_rgbf002384-resize_2/003587_2014-05-23_16-48-02_094959634447_rgbf002384-resize_2-target.png,1000,1.357,0,4185,1000,meters,jsons/v1_VE1000_randls_58_rotated.json,1865634,2523368,52,Man
26,503827,DepthScenes,duration_manipulation_targetAtFixation,jsons/v1_VE1000_randls_58_rotated.json,http://54.235.29.9/FacialAge/BNav_EC2/DepthDuration/v2_depth_duration_MTurk/v2_DepthDuration_HTML.html#7,7,1366,625,1366,768,8-30-2022,10-17-12,27,depth_duration_stimuli/001167_2014-06-17_15-38-07_260595134347_rgbf000108-resize_0/001167_2014-06-17_15-38-07_260595134347_rgbf000108-resize_0-target.png,1000,1.8505,0,5074,999,meters,jsons/v1_VE1000_randls_58_rotated.json,1865634,2523368,52,Man
27,503827,DepthScenes,duration_manipulation_targetAtFixation,jsons/v1_VE1000_randls_58_rotated.json,http://54.235.29.9/FacialAge/BNav_EC2/DepthDuration/v2_depth_duration_MTurk/v2_DepthDuration_HTML.html#7,7,1366,625,1366,768,8-30-2022,10-17-12,28,depth_duration_stimuli/002103_2014-06-25_20-00-40_260595134347_rgbf000049-resize_0/002103_2014-06-25_20-00-40_260595134347_rgbf000049-resize_0-target.png,1000,4.105,0,4246,1006,meters,jsons/v1_VE1000_randls_58_rotated.json,1865634,2523368,52,Man
28,503827,DepthScenes,duration_manipulation_targetAtFixation,jsons/v1_VE1000_randls_58_rotated.json,http://54.235.29.9/FacialAge/BNav_EC2/DepthDuration/v2_depth_duration_MTurk/v2_DepthDuration_HTML.html#7,7,1366,625,1366,768,8-30-2022,10-17-12,29,depth_duration_stimuli/002039_2014-06-24_20-22-38_260595134347_rgbf000084-resize_1/002039_2014-06-24_20-22-38_260595134347_rgbf000084-resize_1-target.png,1000,4.408,0,34914,1632,meters,jsons/v1_VE1000_randls_58_rotated.json,1865634,2523368,52,Man
29,503827,DepthScenes,duration_manipulation_targetAtFixation,jsons/v1_VE1000_randls_58_rotated.json,http://54.235.29.9/FacialAge/BNav_EC2/DepthDuration/v2_depth_duration_MTurk/v2_DepthDuration_HTML.html#7,7,1366,625,1366,768,8-30-2022,10-17-12,30,depth_duration_stimuli/002072_2014-06-24_21-48-06_260595134347_rgbf000115-resize_0/002072_2014-06-24_21-48-06_260595134347_rgbf000115-resize-original.jpg,1000,4.702,0,9571,1008,meters,jsons/v1_VE1000_randls_58_rotated.json,1865634,2523368,52,Man
30,503827,DepthScenes,duration_manipulation_targetAtFixation,jsons/v1_VE1000_randls_58_rotated.json,http://54.235.29.9/FacialAge/BNav_EC2/DepthDuration/v2_depth_duration_MTurk/v2_DepthDuration_HTML.html#7,7,1366,625,1366,768,8-30-2022,10-17-12,31,depth_duration_stimuli/003129_2014-05-12_10-48-10_094959634447_rgbf000100-resize_0/003129_2014-05-12_10-48-10_094959634447_rgbf000100-resize_0-target.png,1000,4.9305,0,8932,1046,meters,jsons/v1_VE1000_randls_58_rotated.json,1865634,2523368,52,Man
31,503827,DepthScenes,duration_manipulation_targetAtFixation,jsons/v1_VE1000_randls_58_rotated.json,http://54.235.29.9/FacialAge/BNav_EC2/DepthDuration/v2_depth_duration_MTurk/v2_DepthDuration_HTML.html#7,7,1366,625,1366,768,8-30-2022,10-17-12,32,depth_duration_stimuli/000414_2014-06-04_19-49-13_260595134347_rgbf000044-resize_0/000414_2014-06-04_19-49-13_260595134347_rgbf000044-resize_0-target.png,1000,4.329,0,6812,1000,meters,jsons/v1_VE1000_randls_58_rotated.json,1865634,2523368,52,Man
32,503827,DepthScenes,duration_manipulation_targetAtFixation,jsons/v1_VE1000_randls_58_rotated.json,http://54.235.29.9/FacialAge/BNav_EC2/DepthDuration/v2_depth_duration_MTurk/v2_DepthDuration_HTML.html#7,7,1366,625,1366,768,8-30-2022,10-17-12,33,depth_duration_stimuli/002637_2014-06-24_14-51-13_094959634447_rgbf000066-resize_4/002637_2014-06-24_14-51-13_094959634447_rgbf000066-resize_4-target.png,1000,1.9955,0,5290,1014,meters,jsons/v1_VE1000_randls_58_rotated.json,1865634,2523368,52,Man
33,503827,DepthScenes,duration_manipulation_targetAtFixation,jsons/v1_VE1000_randls_58_rotated.json,http://54.235.29.9/FacialAge/BNav_EC2/DepthDuration/v2_depth_duration_MTurk/v2_DepthDuration_HTML.html#7,7,1366,625,1366,768,8-30-2022,10-17-12,34,depth_duration_stimuli/003534_2014-05-22_15-06-10_094959634447_rgbf000102-resize_4/003534_2014-05-22_15-06-10_094959634447_rgbf000102-resize_4-target.png,1000,1.426,0,7243,998,meters,jsons/v1_VE1000_randls_58_rotated.json,1865634,2523368,52,Man
34,503827,DepthScenes,duration_manipulation_targetAtFixation,jsons/v1_VE1000_randls_58_rotated.json,http://54.235.29.9/FacialAge/BNav_EC2/DepthDuration/v2_depth_duration_MTurk/v2_DepthDuration_HTML.html#7,7,1366,625,1366,768,8-30-2022,10-17-12,35,depth_duration_stimuli/002953_2014-06-08_17-32-18_094959634447_rgbf000059-resize_5/002953_2014-06-08_17-32-18_094959634447_rgbf000059-resize_5-target.png,1000,1.551,0,17819,998,meters,jsons/v1_VE1000_randls_58_rotated.json,1865634,2523368,52,Man
35,503827,DepthScenes,duration_manipulation_targetAtFixation,jsons/v1_VE1000_randls_58_rotated.json,http://54.235.29.9/FacialAge/BNav_EC2/DepthDuration/v2_depth_duration_MTurk/v2_DepthDuration_HTML.html#7,7,1366,625,1366,768,8-30-2022,10-17-12,36,depth_duration_stimuli/000878_2014-06-08_22-52-45_260595134347_rgbf000045-resize_2/000878_2014-06-08_22-52-45_260595134347_rgbf000045-resize_2-target.png,1000,2.092,0,6293,986,meters,jsons/v1_VE1000_randls_58_rotated.json,1865634,2523368,52,Man
36,503827,DepthScenes,duration_manipulation_targetAtFixation,jsons/v1_VE1000_randls_58_rotated.json,http://54.235.29.9/FacialAge/BNav_EC2/DepthDuration/v2_depth_duration_MTurk/v2_DepthDuration_HTML.html#7,7,1366,625,1366,768,8-30-2022,10-17-12,37,depth_duration_stimuli/002750_2014-06-22_19-08-03_094959634447_rgbf000094-resize_4/002750_2014-06-22_19-08-03_094959634447_rgbf000094-resize_4-target.png,1000,2.354,0,6982,999,meters,jsons/v1_VE1000_randls_58_rotated.json,1865634,2523368,52,Man
37,503827,DepthScenes,duration_manipulation_targetAtFixation,jsons/v1_VE1000_randls_58_rotated.json,http://54.235.29.9/FacialAge/BNav_EC2/DepthDuration/v2_depth_duration_MTurk/v2_DepthDuration_HTML.html#7,7,1366,625,1366,768,8-30-2022,10-17-12,38,depth_duration_stimuli/002549_2014-06-24_13-41-39_094959634447_rgbf000022-resize_3/002549_2014-06-24_13-41-39_094959634447_rgbf000022-resize_3-target.png,1000,1.476,0,5768,1012,meters,jsons/v1_VE1000_randls_58_rotated.json,1865634,2523368,52,Man
38,503827,DepthScenes,duration_manipulation_targetAtFixation,jsons/v1_VE1000_randls_58_rotated.json,http://54.235.29.9/FacialAge/BNav_EC2/DepthDuration/v2_depth_duration_MTurk/v2_DepthDuration_HTML.html#7,7,1366,625,1366,768,8-30-2022,10-17-12,39,depth_duration_stimuli/003010_2014-06-15_12-54-35_094959634447_rgbf000112-resize_0/003010_2014-06-15_12-54-35_094959634447_rgbf000112-resize_0-target.png,1000,3.1185,0,6608,969,meters,jsons/v1_VE1000_randls_58_rotated.json,1865634,2523368,52,Man
39,503827,DepthScenes,duration_manipulation_targetAtFixation,jsons/v1_VE1000_randls_58_rotated.json,http://54.235.29.9/FacialAge/BNav_EC2/DepthDuration/v2_depth_duration_MTurk/v2_DepthDuration_HTML.html#7,7,1366,625,1366,768,8-30-2022,10-17-12,40,depth_duration_stimuli/001810_2014-06-26_20-51-35_260595134347_rgbf000040-resize_3/001810_2014-06-26_20-51-35_260595134347_rgbf000040-resize_3-target.png,1000,2.2525,0,44282,1090,meters,jsons/v1_VE1000_randls_58_rotated.json,1865634,2523368,52,Man
40,503827,DepthScenes,duration_manipulation_targetAtFixation,jsons/v1_VE1000_randls_58_rotated.json,http://54.235.29.9/FacialAge/BNav_EC2/DepthDuration/v2_depth_duration_MTurk/v2_DepthDuration_HTML.html#7,7,1366,625,1366,768,8-30-2022,10-17-12,41,depth_duration_stimuli/000927_2014-06-09_16-32-30_260595134347_rgbf000123-resize_3/000927_2014-06-09_16-32-30_260595134347_rgbf000123-resize_3-target.png,1000,2.6785,0,6169,1007,meters,jsons/v1_VE1000_randls_58_rotated.json,1865634,2523368,52,Man
41,503827,DepthScenes,duration_manipulation_targetAtFixation,jsons/v1_VE1000_randls_58_rotated.json,http://54.235.29.9/FacialAge/BNav_EC2/DepthDuration/v2_depth_duration_MTurk/v2_DepthDuration_HTML.html#7,7,1366,625,1366,768,8-30-2022,10-17-12,42,depth_duration_stimuli/001110_2014-06-15_17-25-28_260595134347_rgbf000150-resize_1/001110_2014-06-15_17-25-28_260595134347_rgbf000150-resize_1-target.png,1000,1.7115,0,6399,993,meters,jsons/v1_VE1000_randls_58_rotated.json,1865634,2523368,52,Man
42,503827,DepthScenes,duration_manipulation_targetAtFixation,jsons/v1_VE1000_randls_58_rotated.json,http://54.235.29.9/FacialAge/BNav_EC2/DepthDuration/v2_depth_duration_MTurk/v2_DepthDuration_HTML.html#7,7,1366,625,1366,768,8-30-2022,10-17-12,43,depth_duration_stimuli/000137_2014-05-20_17-04-49_260595134347_rgbf000120-resize_1/000137_2014-05-20_17-04-49_260595134347_rgbf000120-resize_1-target.png,1000,3.786,0,8180,991,meters,jsons/v1_VE1000_randls_58_rotated.json,1865634,2523368,52,Man
43,503827,DepthScenes,duration_manipulation_targetAtFixation,jsons/v1_VE1000_randls_58_rotated.json,http://54.235.29.9/FacialAge/BNav_EC2/DepthDuration/v2_depth_duration_MTurk/v2_DepthDuration_HTML.html#7,7,1366,625,1366,768,8-30-2022,10-17-12,44,depth_duration_stimuli/000736_2014-06-08_18-24-15_260595134347_rgbf000206-resize_3/000736_2014-06-08_18-24-15_260595134347_rgbf000206-resize_3-target.png,1000,3.515,0,5717,1003,meters,jsons/v1_VE1000_randls_58_rotated.json,1865634,2523368,52,Man
44,503827,DepthScenes,duration_manipulation_targetAtFixation,jsons/v1_VE1000_randls_58_rotated.json,http://54.235.29.9/FacialAge/BNav_EC2/DepthDuration/v2_depth_duration_MTurk/v2_DepthDuration_HTML.html#7,7,1366,625,1366,768,8-30-2022,10-17-12,45,depth_duration_stimuli/001136_2014-06-17_15-19-41_260595134347_rgbf000076-resize_3/001136_2014-06-17_15-19-41_260595134347_rgbf000076-resize_3-target.png,1000,1.8655,0,6398,1008,meters,jsons/v1_VE1000_randls_58_rotated.json,1865634,2523368,52,Man
45,503827,DepthScenes,duration_manipulation_targetAtFixation,jsons/v1_VE1000_randls_58_rotated.json,http://54.235.29.9/FacialAge/BNav_EC2/DepthDuration/v2_depth_duration_MTurk/v2_DepthDuration_HTML.html#7,7,1366,625,1366,768,8-30-2022,10-17-12,46,depth_duration_stimuli/001164_2014-06-17_15-35-46_260595134347_rgbf000085-resize_3/001164_2014-06-17_15-35-46_260595134347_rgbf000085-resize_3-target.png,1000,2.354,0,4719,1000,meters,jsons/v1_VE1000_randls_58_rotated.json,1865634,2523368,52,Man
46,503827,DepthScenes,duration_manipulation_targetAtFixation,jsons/v1_VE1000_randls_58_rotated.json,http://54.235.29.9/FacialAge/BNav_EC2/DepthDuration/v2_depth_duration_MTurk/v2_DepthDuration_HTML.html#7,7,1366,625,1366,768,8-30-2022,10-17-12,47,depth_duration_stimuli/002639_2014-06-24_14-51-37_094959634447_rgbf000074-resize_4/002639_2014-06-24_14-51-37_094959634447_rgbf000074-resize_4-target.png,1000,4.0375,0,5682,1003,meters,jsons/v1_VE1000_randls_58_rotated.json,1865634,2523368,52,Man
47,503827,DepthScenes,duration_manipulation_targetAtFixation,jsons/v1_VE1000_randls_58_rotated.json,http://54.235.29.9/FacialAge/BNav_EC2/DepthDuration/v2_depth_duration_MTurk/v2_DepthDuration_HTML.html#7,7,1366,625,1366,768,8-30-2022,10-17-12,48,depth_duration_stimuli/003292_2014-05-14_21-53-49_094959634447_rgbf000100-resize_2/003292_2014-05-14_21-53-49_094959634447_rgbf000100-resize_2-target.png,1000,3.4815,0,5557,1005,meters,jsons/v1_VE1000_randls_58_rotated.json,1865634,2523368,52,Man
48,503827,DepthScenes,duration_manipulation_targetAtFixation,jsons/v1_VE1000_randls_58_rotated.json,http://54.235.29.9/FacialAge/BNav_EC2/DepthDuration/v2_depth_duration_MTurk/v2_DepthDuration_HTML.html#7,7,1366,625,1366,768,8-30-2022,10-17-12,49,depth_duration_stimuli/001170_2014-06-17_15-43-44_260595134347_rgbf000096-resize_6/001170_2014-06-17_15-43-44_260595134347_rgbf000096-resize-original.jpg,1000,1.1909999999999998,0,5920,994,meters,jsons/v1_VE1000_randls_58_rotated.json,1865634,2523368,52,Man
49,503827,DepthScenes,duration_manipulation_targetAtFixation,jsons/v1_VE1000_randls_58_rotated.json,http://54.235.29.9/FacialAge/BNav_EC2/DepthDuration/v2_depth_duration_MTurk/v2_DepthDuration_HTML.html#7,7,1366,625,1366,768,8-30-2022,10-17-12,50,depth_duration_stimuli/000409_2014-06-04_19-23-33_260595134347_rgbf000067-resize_0/000409_2014-06-04_19-23-33_260595134347_rgbf000067-resize_0-target.png,1000,3.7335,0,5050,1044,meters,jsons/v1_VE1000_randls_58_rotated.json,1865634,2523368,52,Man
50,503827,DepthScenes,duration_manipulation_targetAtFixation,jsons/v1_VE1000_randls_58_rotated.json,http://54.235.29.9/FacialAge/BNav_EC2/DepthDuration/v2_depth_duration_MTurk/v2_DepthDuration_HTML.html#7,7,1366,625,1366,768,8-30-2022,10-17-12,51,depth_duration_stimuli/002663_2014-06-13_15-50-26_094959634447_rgbf000075-resize_1/002663_2014-06-13_15-50-26_094959634447_rgbf000075-resize_1-target.png,1000,4.7495,0,5895,1004,meters,jsons/v1_VE1000_randls_58_rotated.json,1865634,2523368,52,Man
51,503827,DepthScenes,duration_manipulation_targetAtFixation,jsons/v1_VE1000_randls_58_rotated.json,http://54.235.29.9/FacialAge/BNav_EC2/DepthDuration/v2_depth_duration_MTurk/v2_DepthDuration_HTML.html#7,7,1366,625,1366,768,8-30-2022,10-17-12,52,depth_duration_stimuli/000556_2014-06-09_22-42-56_260595134347_rgbf000214-resize_1/000556_2014-06-09_22-42-56_260595134347_rgbf000214-resize_1-target.png,1000,4.8415,0,4001,998,meters,jsons/v1_VE1000_randls_58_rotated.json,1865634,2523368,52,Man
52,503827,DepthScenes,duration_manipulation_targetAtFixation,jsons/v1_VE1000_randls_58_rotated.json,http://54.235.29.9/FacialAge/BNav_EC2/DepthDuration/v2_depth_duration_MTurk/v2_DepthDuration_HTML.html#7,7,1366,625,1366,768,8-30-2022,10-17-12,53,depth_duration_stimuli/001158_2014-06-17_15-32-16_260595134347_rgbf000138-resize_2/001158_2014-06-17_15-32-16_260595134347_rgbf000138-resize_2-target.png,1000,4.5315,0,6698,998,meters,jsons/v1_VE1000_randls_58_rotated.json,1865634,2523368,52,Man
53,503827,DepthScenes,duration_manipulation_targetAtFixation,jsons/v1_VE1000_randls_58_rotated.json,http://54.235.29.9/FacialAge/BNav_EC2/DepthDuration/v2_depth_duration_MTurk/v2_DepthDuration_HTML.html#7,7,1366,625,1366,768,8-30-2022,10-17-12,54,depth_duration_stimuli/001032_2014-06-08_13-23-17_260595134347_rgbf000021-resize_3/001032_2014-06-08_13-23-17_260595134347_rgbf000021-resize_3-target.png,1000,3.2725,0,102824,998,meters,jsons/v1_VE1000_randls_58_rotated.json,1865634,2523368,52,Man
54,503827,DepthScenes,duration_manipulation_targetAtFixation,jsons/v1_VE1000_randls_58_rotated.json,http://54.235.29.9/FacialAge/BNav_EC2/DepthDuration/v2_depth_duration_MTurk/v2_DepthDuration_HTML.html#7,7,1366,625,1366,768,8-30-2022,10-17-12,55,depth_duration_stimuli/001059_2014-06-08_21-53-27_260595134347_rgbf000061-resize_4/001059_2014-06-08_21-53-27_260595134347_rgbf000061-resize_4-target.png,1000,2.4185,0,7354,998,meters,jsons/v1_VE1000_randls_58_rotated.json,1865634,2523368,52,Man
55,503827,DepthScenes,duration_manipulation_targetAtFixation,jsons/v1_VE1000_randls_58_rotated.json,http://54.235.29.9/FacialAge/BNav_EC2/DepthDuration/v2_depth_duration_MTurk/v2_DepthDuration_HTML.html#7,7,1366,625,1366,768,8-30-2022,10-17-12,56,depth_duration_stimuli/002209_2014-06-28_18-36-10_260595134347_rgbf000051-resize_1/002209_2014-06-28_18-36-10_260595134347_rgbf000051-resize_1-target.png,1000,2.057,0,5132,1007,meters,jsons/v1_VE1000_randls_58_rotated.json,1865634,2523368,52,Man
56,503827,DepthScenes,duration_manipulation_targetAtFixation,jsons/v1_VE1000_randls_58_rotated.json,http://54.235.29.9/FacialAge/BNav_EC2/DepthDuration/v2_depth_duration_MTurk/v2_DepthDuration_HTML.html#7,7,1366,625,1366,768,8-30-2022,10-17-12,57,depth_duration_stimuli/002763_2014-06-22_19-13-10_094959634447_rgbf000075-resize_4/002763_2014-06-22_19-13-10_094959634447_rgbf000075-resize_4-target.png,1000,1.68375,0,5657,975,meters,jsons/v1_VE1000_randls_58_rotated.json,1865634,2523368,52,Man
57,503827,DepthScenes,duration_manipulation_targetAtFixation,jsons/v1_VE1000_randls_58_rotated.json,http://54.235.29.9/FacialAge/BNav_EC2/DepthDuration/v2_depth_duration_MTurk/v2_DepthDuration_HTML.html#7,7,1366,625,1366,768,8-30-2022,10-17-12,58,depth_duration_stimuli/000549_2014-06-08_22-10-24_260595134347_rgbf000247-resize_3/000549_2014-06-08_22-10-24_260595134347_rgbf000247-resize_3-target.png,1000,1.841,0,6231,998,meters,jsons/v1_VE1000_randls_58_rotated.json,1865634,2523368,52,Man
58,503827,DepthScenes,duration_manipulation_targetAtFixation,jsons/v1_VE1000_randls_58_rotated.json,http://54.235.29.9/FacialAge/BNav_EC2/DepthDuration/v2_depth_duration_MTurk/v2_DepthDuration_HTML.html#7,7,1366,625,1366,768,8-30-2022,10-17-12,59,depth_duration_stimuli/001055_2014-06-08_18-45-35_260595134347_rgbf000111-resize_4/001055_2014-06-08_18-45-35_260595134347_rgbf000111-resize_4-target.png,1000,2.4290000000000003,0,15840,989,meters,jsons/v1_VE1000_randls_58_rotated.json,1865634,2523368,52,Man
59,503827,DepthScenes,duration_manipulation_targetAtFixation,jsons/v1_VE1000_randls_58_rotated.json,http://54.235.29.9/FacialAge/BNav_EC2/DepthDuration/v2_depth_duration_MTurk/v2_DepthDuration_HTML.html#7,7,1366,625,1366,768,8-30-2022,10-17-12,60,depth_duration_stimuli/002758_2014-06-22_19-11-20_094959634447_rgbf000128-resize_1/002758_2014-06-22_19-11-20_094959634447_rgbf000128-resize_1-target.png,1000,2.555,0,5542,990,meters,jsons/v1_VE1000_randls_58_rotated.json,1865634,2523368,52,Man
60,503827,DepthScenes,duration_manipulation_targetAtFixation,jsons/v1_VE1000_randls_58_rotated.json,http://54.235.29.9/FacialAge/BNav_EC2/DepthDuration/v2_depth_duration_MTurk/v2_DepthDuration_HTML.html#7,7,1366,625,1366,768,8-30-2022,10-17-12,61,depth_duration_stimuli/002630_2014-06-24_14-47-50_094959634447_rgbf000055-resize_1/002630_2014-06-24_14-47-50_094959634447_rgbf000055-resize_1-target.png,1000,3.0095,0,5404,1002,meters,jsons/v1_VE1000_randls_58_rotated.json,1865634,2523368,52,Man
61,503827,DepthScenes,duration_manipulation_targetAtFixation,jsons/v1_VE1000_randls_58_rotated.json,http://54.235.29.9/FacialAge/BNav_EC2/DepthDuration/v2_depth_duration_MTurk/v2_DepthDuration_HTML.html#7,7,1366,625,1366,768,8-30-2022,10-17-12,62,depth_duration_stimuli/001828_2014-06-26_21-40-03_260595134347_rgbf000024-resize_0/001828_2014-06-26_21-40-03_260595134347_rgbf000024-resize_0-target.png,1000,4.8260000000000005,0,10199,991,meters,jsons/v1_VE1000_randls_58_rotated.json,1865634,2523368,52,Man
62,503827,DepthScenes,duration_manipulation_targetAtFixation,jsons/v1_VE1000_randls_58_rotated.json,http://54.235.29.9/FacialAge/BNav_EC2/DepthDuration/v2_depth_duration_MTurk/v2_DepthDuration_HTML.html#7,7,1366,625,1366,768,8-30-2022,10-17-12,63,depth_duration_stimuli/000009_2014-05-26_14-32-05_260595134347_rgbf000034-resize_3/000009_2014-05-26_14-32-05_260595134347_rgbf000034-resize_3-target.png,1000,3.8715,0,7384,1003,meters,jsons/v1_VE1000_randls_58_rotated.json,1865634,2523368,52,Man
63,503827,DepthScenes,duration_manipulation_targetAtFixation,jsons/v1_VE1000_randls_58_rotated.json,http://54.235.29.9/FacialAge/BNav_EC2/DepthDuration/v2_depth_duration_MTurk/v2_DepthDuration_HTML.html#7,7,1366,625,1366,768,8-30-2022,10-17-12,64,depth_duration_stimuli/003079_2014-06-15_15-18-20_094959634447_rgbf000152-resize_8/003079_2014-06-15_15-18-20_094959634447_rgbf000152-resize_8-target.png,1000,2.8775,0,5384,999,meters,jsons/v1_VE1000_randls_58_rotated.json,1865634,2523368,52,Man
64,503827,DepthScenes,duration_manipulation_targetAtFixation,jsons/v1_VE1000_randls_58_rotated.json,http://54.235.29.9/FacialAge/BNav_EC2/DepthDuration/v2_depth_duration_MTurk/v2_DepthDuration_HTML.html#7,7,1366,625,1366,768,8-30-2022,10-17-12,65,depth_duration_stimuli/000506_2014-06-08_23-21-00_260595134347_rgbf000070-resize_7/000506_2014-06-08_23-21-00_260595134347_rgbf000070-resize_7-target.png,1000,4.0585,0,4408,1004,meters,jsons/v1_VE1000_randls_58_rotated.json,1865634,2523368,52,Man
65,503827,DepthScenes,duration_manipulation_targetAtFixation,jsons/v1_VE1000_randls_58_rotated.json,http://54.235.29.9/FacialAge/BNav_EC2/DepthDuration/v2_depth_duration_MTurk/v2_DepthDuration_HTML.html#7,7,1366,625,1366,768,8-30-2022,10-17-12,66,depth_duration_stimuli/001540_2014-06-20_17-01-05_260595134347_rgbf000086-resize_2/001540_2014-06-20_17-01-05_260595134347_rgbf000086-resize-original.jpg,1000,1.459,0,4378,998,meters,jsons/v1_VE1000_randls_58_rotated.json,1865634,2523368,52,Man
66,503827,DepthScenes,duration_manipulation_targetAtFixation,jsons/v1_VE1000_randls_58_rotated.json,http://54.235.29.9/FacialAge/BNav_EC2/DepthDuration/v2_depth_duration_MTurk/v2_DepthDuration_HTML.html#7,7,1366,625,1366,768,8-30-2022,10-17-12,67,depth_duration_stimuli/003423_2014-05-21_10-23-26_094959634447_rgbf002665-resize_2/003423_2014-05-21_10-23-26_094959634447_rgbf002665-resize_2-target.png,1000,3.2575,0,14849,990,meters,jsons/v1_VE1000_randls_58_rotated.json,1865634,2523368,52,Man
67,503827,DepthScenes,duration_manipulation_targetAtFixation,jsons/v1_VE1000_randls_58_rotated.json,http://54.235.29.9/FacialAge/BNav_EC2/DepthDuration/v2_depth_duration_MTurk/v2_DepthDuration_HTML.html#7,7,1366,625,1366,768,8-30-2022,10-17-12,68,depth_duration_stimuli/002905_2014-06-03_18-04-43_094959634447_rgbf000151-resize_2/002905_2014-06-03_18-04-43_094959634447_rgbf000151-resize_2-target.png,1000,2.0295,0,6728,999,meters,jsons/v1_VE1000_randls_58_rotated.json,1865634,2523368,52,Man
68,503827,DepthScenes,duration_manipulation_targetAtFixation,jsons/v1_VE1000_randls_58_rotated.json,http://54.235.29.9/FacialAge/BNav_EC2/DepthDuration/v2_depth_duration_MTurk/v2_DepthDuration_HTML.html#7,7,1366,625,1366,768,8-30-2022,10-17-12,69,depth_duration_stimuli/000854_2014-06-09_19-43-13_260595134347_rgbf000066-resize_0/000854_2014-06-09_19-43-13_260595134347_rgbf000066-resize_0-target.png,1000,3.068,0,4616,1013,meters,jsons/v1_VE1000_randls_58_rotated.json,1865634,2523368,52,Man
69,503827,DepthScenes,duration_manipulation_targetAtFixation,jsons/v1_VE1000_randls_58_rotated.json,http://54.235.29.9/FacialAge/BNav_EC2/DepthDuration/v2_depth_duration_MTurk/v2_DepthDuration_HTML.html#7,7,1366,625,1366,768,8-30-2022,10-17-12,70,depth_duration_stimuli/000758_2014-06-08_22-05-08_260595134347_rgbf000085-resize_0/000758_2014-06-08_22-05-08_260595134347_rgbf000085-resize_0-target.png,1000,3.3810000000000002,0,4558,998,meters,jsons/v1_VE1000_randls_58_rotated.json,1865634,2523368,52,Man
70,503827,DepthScenes,duration_manipulation_targetAtFixation,jsons/v1_VE1000_randls_58_rotated.json,http://54.235.29.9/FacialAge/BNav_EC2/DepthDuration/v2_depth_duration_MTurk/v2_DepthDuration_HTML.html#7,7,1366,625,1366,768,8-30-2022,10-17-12,71,depth_duration_stimuli/000502_2014-06-08_23-02-32_260595134347_rgbf000063-resize_4/000502_2014-06-08_23-02-32_260595134347_rgbf000063-resize_4-target.png,1000,2.431,0,4284,1003,meters,jsons/v1_VE1000_randls_58_rotated.json,1865634,2523368,52,Man
71,503827,DepthScenes,duration_manipulation_targetAtFixation,jsons/v1_VE1000_randls_58_rotated.json,http://54.235.29.9/FacialAge/BNav_EC2/DepthDuration/v2_depth_duration_MTurk/v2_DepthDuration_HTML.html#7,7,1366,625,1366,768,8-30-2022,10-17-12,72,depth_duration_stimuli/001199_2014-06-17_16-03-48_260595134347_rgbf000077-resize_0/001199_2014-06-17_16-03-48_260595134347_rgbf000077-resize_0-target.png,1000,3.4375,0,11431,1000,meters,jsons/v1_VE1000_randls_58_rotated.json,1865634,2523368,52,Man
72,503827,DepthScenes,duration_manipulation_targetAtFixation,jsons/v1_VE1000_randls_58_rotated.json,http://54.235.29.9/FacialAge/BNav_EC2/DepthDuration/v2_depth_duration_MTurk/v2_DepthDuration_HTML.html#7,7,1366,625,1366,768,8-30-2022,10-17-12,73,depth_duration_stimuli/001571_2014-06-20_17-21-32_260595134347_rgbf000089-resize_1/001571_2014-06-20_17-21-32_260595134347_rgbf000089-resize_1-target.png,1000,1.86,0,3821,999,meters,jsons/v1_VE1000_randls_58_rotated.json,1865634,2523368,52,Man
73,503827,DepthScenes,duration_manipulation_targetAtFixation,jsons/v1_VE1000_randls_58_rotated.json,http://54.235.29.9/FacialAge/BNav_EC2/DepthDuration/v2_depth_duration_MTurk/v2_DepthDuration_HTML.html#7,7,1366,625,1366,768,8-30-2022,10-17-12,74,depth_duration_stimuli/002272_2014-06-28_18-53-56_260595134347_rgbf000067-resize_2/002272_2014-06-28_18-53-56_260595134347_rgbf000067-resize_2-target.png,1000,1.138,0,4029,1033,meters,jsons/v1_VE1000_randls_58_rotated.json,1865634,2523368,52,Man
74,503827,DepthScenes,duration_manipulation_targetAtFixation,jsons/v1_VE1000_randls_58_rotated.json,http://54.235.29.9/FacialAge/BNav_EC2/DepthDuration/v2_depth_duration_MTurk/v2_DepthDuration_HTML.html#7,7,1366,625,1366,768,8-30-2022,10-17-12,75,depth_duration_stimuli/002995_2014-06-15_12-31-26_094959634447_rgbf000150-resize_1/002995_2014-06-15_12-31-26_094959634447_rgbf000150-resize_1-target.png,1000,3.8360000000000003,0,4014,994,meters,jsons/v1_VE1000_randls_58_rotated.json,1865634,2523368,52,Man
75,503827,DepthScenes,duration_manipulation_targetAtFixation,jsons/v1_VE1000_randls_58_rotated.json,http://54.235.29.9/FacialAge/BNav_EC2/DepthDuration/v2_depth_duration_MTurk/v2_DepthDuration_HTML.html#7,7,1366,625,1366,768,8-30-2022,10-17-12,76,depth_duration_stimuli/002748_2014-06-22_19-07-22_094959634447_rgbf000078-resize_1/002748_2014-06-22_19-07-22_094959634447_rgbf000078-resize_1-target.png,1000,4.6705,0,6513,996,meters,jsons/v1_VE1000_randls_58_rotated.json,1865634,2523368,52,Man
76,503827,DepthScenes,duration_manipulation_targetAtFixation,jsons/v1_VE1000_randls_58_rotated.json,http://54.235.29.9/FacialAge/BNav_EC2/DepthDuration/v2_depth_duration_MTurk/v2_DepthDuration_HTML.html#7,7,1366,625,1366,768,8-30-2022,10-17-12,77,depth_duration_stimuli/002467_2014-06-28_20-38-07_260595134347_rgbf000026-resize_2/002467_2014-06-28_20-38-07_260595134347_rgbf000026-resize_2-target.png,1000,4.742,0,4465,992,meters,jsons/v1_VE1000_randls_58_rotated.json,1865634,2523368,52,Man
77,503827,DepthScenes,duration_manipulation_targetAtFixation,jsons/v1_VE1000_randls_58_rotated.json,http://54.235.29.9/FacialAge/BNav_EC2/DepthDuration/v2_depth_duration_MTurk/v2_DepthDuration_HTML.html#7,7,1366,625,1366,768,8-30-2022,10-17-12,78,depth_duration_stimuli/002570_2014-06-24_13-59-54_094959634447_rgbf000059-resize_0/002570_2014-06-24_13-59-54_094959634447_rgbf000059-resize_0-target.png,1000,4.037,0,4329,1002,meters,jsons/v1_VE1000_randls_58_rotated.json,1865634,2523368,52,Man
78,503827,DepthScenes,duration_manipulation_targetAtFixation,jsons/v1_VE1000_randls_58_rotated.json,http://54.235.29.9/FacialAge/BNav_EC2/DepthDuration/v2_depth_duration_MTurk/v2_DepthDuration_HTML.html#7,7,1366,625,1366,768,8-30-2022,10-17-12,79,depth_duration_stimuli/002805_2014-06-22_19-54-03_094959634447_rgbf000079-resize_1/002805_2014-06-22_19-54-03_094959634447_rgbf000079-resize_1-target.png,1000,3.1439999999999997,0,3998,1008,meters,jsons/v1_VE1000_randls_58_rotated.json,1865634,2523368,52,Man
79,503827,DepthScenes,duration_manipulation_targetAtFixation,jsons/v1_VE1000_randls_58_rotated.json,http://54.235.29.9/FacialAge/BNav_EC2/DepthDuration/v2_depth_duration_MTurk/v2_DepthDuration_HTML.html#7,7,1366,625,1366,768,8-30-2022,10-17-12,80,depth_duration_stimuli/000906_2014-06-08_13-35-43_260595134347_rgbf000155-resize_1/000906_2014-06-08_13-35-43_260595134347_rgbf000155-resize_1-target.png,1000,2.8489999999999998,0,4373,993,meters,jsons/v1_VE1000_randls_58_rotated.json,1865634,2523368,52,Man
80,503827,DepthScenes,duration_manipulation_targetAtFixation,jsons/v1_VE1000_randls_58_rotated.json,http://54.235.29.9/FacialAge/BNav_EC2/DepthDuration/v2_depth_duration_MTurk/v2_DepthDuration_HTML.html#7,7,1366,625,1366,768,8-30-2022,10-17-12,81,depth_duration_stimuli/001584_2014-06-20_11-07-43_260595134347_rgbf000002-resize_1/001584_2014-06-20_11-07-43_260595134347_rgbf000002-resize_1-target.png,1000,3.53,0,4370,1000,meters,jsons/v1_VE1000_randls_58_rotated.json,1865634,2523368,52,Man
81,503827,DepthScenes,duration_manipulation_targetAtFixation,jsons/v1_VE1000_randls_58_rotated.json,http://54.235.29.9/FacialAge/BNav_EC2/DepthDuration/v2_depth_duration_MTurk/v2_DepthDuration_HTML.html#7,7,1366,625,1366,768,8-30-2022,10-17-12,82,depth_duration_stimuli/003621_2014-05-23_18-06-08_094959634447_rgbf000101-resize_1/003621_2014-05-23_18-06-08_094959634447_rgbf000101-resize_1-target.png,1000,3.9835,0,4098,1001,meters,jsons/v1_VE1000_randls_58_rotated.json,1865634,2523368,52,Man
82,503827,DepthScenes,duration_manipulation_targetAtFixation,jsons/v1_VE1000_randls_58_rotated.json,http://54.235.29.9/FacialAge/BNav_EC2/DepthDuration/v2_depth_duration_MTurk/v2_DepthDuration_HTML.html#7,7,1366,625,1366,768,8-30-2022,10-17-12,83,depth_duration_stimuli/002340_2014-06-28_20-05-46_260595134347_rgbf000113-resize_0/002340_2014-06-28_20-05-46_260595134347_rgbf000113-resize_0-target.png,1000,2.4735,0,3920,1000,meters,jsons/v1_VE1000_randls_58_rotated.json,1865634,2523368,52,Man
83,503827,DepthScenes,duration_manipulation_targetAtFixation,jsons/v1_VE1000_randls_58_rotated.json,http://54.235.29.9/FacialAge/BNav_EC2/DepthDuration/v2_depth_duration_MTurk/v2_DepthDuration_HTML.html#7,7,1366,625,1366,768,8-30-2022,10-17-12,84,depth_duration_stimuli/001016_2014-06-09_16-16-10_260595134347_rgbf000112-resize_5/001016_2014-06-09_16-16-10_260595134347_rgbf000112-resize_5-target.png,1000,1.6565,0,4773,1001,meters,jsons/v1_VE1000_randls_58_rotated.json,1865634,2523368,52,Man
84,503827,DepthScenes,duration_manipulation_targetAtFixation,jsons/v1_VE1000_randls_58_rotated.json,http://54.235.29.9/FacialAge/BNav_EC2/DepthDuration/v2_depth_duration_MTurk/v2_DepthDuration_HTML.html#7,7,1366,625,1366,768,8-30-2022,10-17-12,85,depth_duration_stimuli/001132_2014-06-17_14-48-54_260595134347_rgbf000100-resize_2/001132_2014-06-17_14-48-54_260595134347_rgbf000100-resize_2-target.png,1000,3.753,0,4066,1025,meters,jsons/v1_VE1000_randls_58_rotated.json,1865634,2523368,52,Man
85,503827,DepthScenes,duration_manipulation_targetAtFixation,jsons/v1_VE1000_randls_58_rotated.json,http://54.235.29.9/FacialAge/BNav_EC2/DepthDuration/v2_depth_duration_MTurk/v2_DepthDuration_HTML.html#7,7,1366,625,1366,768,8-30-2022,10-17-12,86,depth_duration_stimuli/001133_2014-06-17_14-49-16_260595134347_rgbf000100-resize_0/001133_2014-06-17_14-49-16_260595134347_rgbf000100-resize_0-target.png,1000,4.2115,0,3915,1008,meters,jsons/v1_VE1000_randls_58_rotated.json,1865634,2523368,52,Man
86,503827,DepthScenes,duration_manipulation_targetAtFixation,jsons/v1_VE1000_randls_58_rotated.json,http://54.235.29.9/FacialAge/BNav_EC2/DepthDuration/v2_depth_duration_MTurk/v2_DepthDuration_HTML.html#7,7,1366,625,1366,768,8-30-2022,10-17-12,87,depth_duration_stimuli/002199_2014-06-28_18-33-56_260595134347_rgbf000074-resize_0/002199_2014-06-28_18-33-56_260595134347_rgbf000074-resize_0-target.png,1000,1.996,0,4132,999,meters,jsons/v1_VE1000_randls_58_rotated.json,1865634,2523368,52,Man
87,503827,DepthScenes,duration_manipulation_targetAtFixation,jsons/v1_VE1000_randls_58_rotated.json,http://54.235.29.9/FacialAge/BNav_EC2/DepthDuration/v2_depth_duration_MTurk/v2_DepthDuration_HTML.html#7,7,1366,625,1366,768,8-30-2022,10-17-12,88,depth_duration_stimuli/001056_2014-06-08_18-46-44_260595134347_rgbf000068-resize_0/001056_2014-06-08_18-46-44_260595134347_rgbf000068-resize_0-target.png,1000,2.6625,0,3992,985,meters,jsons/v1_VE1000_randls_58_rotated.json,1865634,2523368,52,Man
88,503827,DepthScenes,duration_manipulation_targetAtFixation,jsons/v1_VE1000_randls_58_rotated.json,http://54.235.29.9/FacialAge/BNav_EC2/DepthDuration/v2_depth_duration_MTurk/v2_DepthDuration_HTML.html#7,7,1366,625,1366,768,8-30-2022,10-17-12,89,depth_duration_stimuli/003083_2014-06-15_15-21-03_094959634447_rgbf000063-resize_1/003083_2014-06-15_15-21-03_094959634447_rgbf000063-resize_1-target.png,1000,4.1405,0,5261,994,meters,jsons/v1_VE1000_randls_58_rotated.json,1865634,2523368,52,Man
89,503827,DepthScenes,duration_manipulation_targetAtFixation,jsons/v1_VE1000_randls_58_rotated.json,http://54.235.29.9/FacialAge/BNav_EC2/DepthDuration/v2_depth_duration_MTurk/v2_DepthDuration_HTML.html#7,7,1366,625,1366,768,8-30-2022,10-17-12,90,depth_duration_stimuli/000486_2014-06-09_20-47-20_260595134347_rgbf000143-resize_2/000486_2014-06-09_20-47-20_260595134347_rgbf000143-resize_2-target.png,1000,4.8325,0,4089,1006,meters,jsons/v1_VE1000_randls_58_rotated.json,1865634,2523368,52,Man
90,503827,DepthScenes,duration_manipulation_targetAtFixation,jsons/v1_VE1000_randls_58_rotated.json,http://54.235.29.9/FacialAge/BNav_EC2/DepthDuration/v2_depth_duration_MTurk/v2_DepthDuration_HTML.html#7,7,1366,625,1366,768,8-30-2022,10-17-12,91,depth_duration_stimuli/003048_2014-06-15_13-49-43_094959634447_rgbf000150-resize_1/003048_2014-06-15_13-49-43_094959634447_rgbf000150-resize_1-target.png,1000,4.0035,0,4073,979,meters,jsons/v1_VE1000_randls_58_rotated.json,1865634,2523368,52,Man
91,503827,DepthScenes,duration_manipulation_targetAtFixation,jsons/v1_VE1000_randls_58_rotated.json,http://54.235.29.9/FacialAge/BNav_EC2/DepthDuration/v2_depth_duration_MTurk/v2_DepthDuration_HTML.html#7,7,1366,625,1366,768,8-30-2022,10-17-12,92,depth_duration_stimuli/002043_2014-06-24_20-29-38_260595134347_rgbf000039-resize_4/002043_2014-06-24_20-29-38_260595134347_rgbf000039-resize_4-target.png,1000,2.8435,0,4158,991,meters,jsons/v1_VE1000_randls_58_rotated.json,1865634,2523368,52,Man
92,503827,DepthScenes,duration_manipulation_targetAtFixation,jsons/v1_VE1000_randls_58_rotated.json,http://54.235.29.9/FacialAge/BNav_EC2/DepthDuration/v2_depth_duration_MTurk/v2_DepthDuration_HTML.html#7,7,1366,625,1366,768,8-30-2022,10-17-12,93,depth_duration_stimuli/001447_2014-06-19_17-00-32_260595134347_rgbf000082-resize_5/001447_2014-06-19_17-00-32_260595134347_rgbf000082-resize_5-target.png,1000,4.13775,0,4297,992,meters,jsons/v1_VE1000_randls_58_rotated.json,1865634,2523368,52,Man
93,503827,DepthScenes,duration_manipulation_targetAtFixation,jsons/v1_VE1000_randls_58_rotated.json,http://54.235.29.9/FacialAge/BNav_EC2/DepthDuration/v2_depth_duration_MTurk/v2_DepthDuration_HTML.html#7,7,1366,625,1366,768,8-30-2022,10-17-12,94,depth_duration_stimuli/000447_2014-06-08_16-15-46_260595134347_rgbf000130-resize_1/000447_2014-06-08_16-15-46_260595134347_rgbf000130-resize_1-target.png,1000,4.479,0,4047,988,meters,jsons/v1_VE1000_randls_58_rotated.json,1865634,2523368,52,Man
94,503827,DepthScenes,duration_manipulation_targetAtFixation,jsons/v1_VE1000_randls_58_rotated.json,http://54.235.29.9/FacialAge/BNav_EC2/DepthDuration/v2_depth_duration_MTurk/v2_DepthDuration_HTML.html#7,7,1366,625,1366,768,8-30-2022,10-17-12,95,depth_duration_stimuli/001100_2014-06-15_17-46-26_260595134347_rgbf000225-resize_2/001100_2014-06-15_17-46-26_260595134347_rgbf000225-resize_2-target.png,1000,2.24,0,4386,992,meters,jsons/v1_VE1000_randls_58_rotated.json,1865634,2523368,52,Man
95,503827,DepthScenes,duration_manipulation_targetAtFixation,jsons/v1_VE1000_randls_58_rotated.json,http://54.235.29.9/FacialAge/BNav_EC2/DepthDuration/v2_depth_duration_MTurk/v2_DepthDuration_HTML.html#7,7,1366,625,1366,768,8-30-2022,10-17-12,96,depth_duration_stimuli/002784_2014-06-22_19-26-30_094959634447_rgbf000083-resize_3/002784_2014-06-22_19-26-30_094959634447_rgbf000083-resize_3-target.png,1000,1.8046666666667,0,4097,1002,meters,jsons/v1_VE1000_randls_58_rotated.json,1865634,2523368,52,Man
96,503827,DepthScenes,duration_manipulation_targetAtFixation,jsons/v1_VE1000_randls_58_rotated.json,http://54.235.29.9/FacialAge/BNav_EC2/DepthDuration/v2_depth_duration_MTurk/v2_DepthDuration_HTML.html#7,7,1366,625,1366,768,8-30-2022,10-17-12,97,depth_duration_stimuli/003081_2014-06-15_15-19-16_094959634447_rgbf000150-resize_1/003081_2014-06-15_15-19-16_094959634447_rgbf000150-resize_1-target.png,1000,3.9125,0,4146,998,meters,jsons/v1_VE1000_randls_58_rotated.json,1865634,2523368,52,Man
97,503827,DepthScenes,duration_manipulation_targetAtFixation,jsons/v1_VE1000_randls_58_rotated.json,http://54.235.29.9/FacialAge/BNav_EC2/DepthDuration/v2_depth_duration_MTurk/v2_DepthDuration_HTML.html#7,7,1366,625,1366,768,8-30-2022,10-17-12,98,depth_duration_stimuli/001417_2014-06-19_16-25-36_260595134347_rgbf000115-resize_5/001417_2014-06-19_16-25-36_260595134347_rgbf000115-resize_5-target.png,1000,4.6255,0,4133,1005,meters,jsons/v1_VE1000_randls_58_rotated.json,1865634,2523368,52,Man
98,503827,DepthScenes,duration_manipulation_targetAtFixation,jsons/v1_VE1000_randls_58_rotated.json,http://54.235.29.9/FacialAge/BNav_EC2/DepthDuration/v2_depth_duration_MTurk/v2_DepthDuration_HTML.html#7,7,1366,625,1366,768,8-30-2022,10-17-12,99,depth_duration_stimuli/001222_2014-06-17_16-24-06_260595134347_rgbf000073-resize_0/001222_2014-06-17_16-24-06_260595134347_rgbf000073-resize-original.jpg,1000,1.4385,0,111815,1004,meters,jsons/v1_VE1000_randls_58_rotated.json,1865634,2523368,52,Man
99,503827,DepthScenes,duration_manipulation_targetAtFixation,jsons/v1_VE1000_randls_58_rotated.json,http://54.235.29.9/FacialAge/BNav_EC2/DepthDuration/v2_depth_duration_MTurk/v2_DepthDuration_HTML.html#7,7,1366,625,1366,768,8-30-2022,10-17-12,100,depth_duration_stimuli/002678_2014-06-13_16-15-32_094959634447_rgbf000151-resize_6/002678_2014-06-13_16-15-32_094959634447_rgbf000151-resize_6-target.png,1000,2.1830000000000003,0,49779,991,meters,jsons/v1_VE1000_randls_58_rotated.json,1865634,2523368,52,Man
100,503827,DepthScenes,duration_manipulation_targetAtFixation,jsons/v1_VE1000_randls_58_rotated.json,http://54.235.29.9/FacialAge/BNav_EC2/DepthDuration/v2_depth_duration_MTurk/v2_DepthDuration_HTML.html#7,7,1366,625,1366,768,8-30-2022,10-17-12,101,depth_duration_stimuli/000368_2014-06-09_15-53-01_260595134347_rgbf000155-resize_2/000368_2014-06-09_15-53-01_260595134347_rgbf000155-resize_2-target.png,1000,2.4859999999999998,0,3717,1009,meters,jsons/v1_VE1000_randls_58_rotated.json,1865634,2523368,52,Man
101,503827,DepthScenes,duration_manipulation_targetAtFixation,jsons/v1_VE1000_randls_58_rotated.json,http://54.235.29.9/FacialAge/BNav_EC2/DepthDuration/v2_depth_duration_MTurk/v2_DepthDuration_HTML.html#7,7,1366,625,1366,768,8-30-2022,10-17-12,102,depth_duration_stimuli/002425_2014-06-28_20-27-29_260595134347_rgbf000031-resize_8/002425_2014-06-28_20-27-29_260595134347_rgbf000031-resize_8-target.png,1000,3.8960000000000004,0,5260,997,meters,jsons/v1_VE1000_randls_58_rotated.json,1865634,2523368,52,Man
102,503827,DepthScenes,duration_manipulation_targetAtFixation,jsons/v1_VE1000_randls_58_rotated.json,http://54.235.29.9/FacialAge/BNav_EC2/DepthDuration/v2_depth_duration_MTurk/v2_DepthDuration_HTML.html#7,7,1366,625,1366,768,8-30-2022,10-17-12,103,depth_duration_stimuli/000642_2014-06-08_16-59-25_260595134347_rgbf000098-resize_2/000642_2014-06-08_16-59-25_260595134347_rgbf000098-resize_2-target.png,1000,2.8815,0,4277,999,meters,jsons/v1_VE1000_randls_58_rotated.json,1865634,2523368,52,Man
103,503827,DepthScenes,duration_manipulation_targetAtFixation,jsons/v1_VE1000_randls_58_rotated.json,http://54.235.29.9/FacialAge/BNav_EC2/DepthDuration/v2_depth_duration_MTurk/v2_DepthDuration_HTML.html#7,7,1366,625,1366,768,8-30-2022,10-17-12,104,depth_duration_stimuli/000103_2014-05-14_22-01-17_260595134347_rgbf000152-resize_5/000103_2014-05-14_22-01-17_260595134347_rgbf000152-resize_5-target.png,1000,1.993,0,4398,1000,meters,jsons/v1_VE1000_randls_58_rotated.json,1865634,2523368,52,Man
104,503827,DepthScenes,duration_manipulation_targetAtFixation,jsons/v1_VE1000_randls_58_rotated.json,http://54.235.29.9/FacialAge/BNav_EC2/DepthDuration/v2_depth_duration_MTurk/v2_DepthDuration_HTML.html#7,7,1366,625,1366,768,8-30-2022,10-17-12,105,depth_duration_stimuli/001555_2014-06-20_17-12-10_260595134347_rgbf000065-resize_4/001555_2014-06-20_17-12-10_260595134347_rgbf000065-resize_4-target.png,1000,1.633,0,4435,1007,meters,jsons/v1_VE1000_randls_58_rotated.json,1865634,2523368,52,Man
105,503827,DepthScenes,duration_manipulation_targetAtFixation,jsons/v1_VE1000_randls_58_rotated.json,http://54.235.29.9/FacialAge/BNav_EC2/DepthDuration/v2_depth_duration_MTurk/v2_DepthDuration_HTML.html#7,7,1366,625,1366,768,8-30-2022,10-17-12,106,depth_duration_stimuli/000483_2014-06-09_20-41-45_260595134347_rgbf000116-resize_4/000483_2014-06-09_20-41-45_260595134347_rgbf000116-resize_4-target.png,1000,1.337,0,4182,1012,meters,jsons/v1_VE1000_randls_58_rotated.json,1865634,2523368,52,Man
106,503827,DepthScenes,duration_manipulation_targetAtFixation,jsons/v1_VE1000_randls_58_rotated.json,http://54.235.29.9/FacialAge/BNav_EC2/DepthDuration/v2_depth_duration_MTurk/v2_DepthDuration_HTML.html#7,7,1366,625,1366,768,8-30-2022,10-17-12,107,depth_duration_stimuli/000469_2014-06-09_19-42-10_260595134347_rgbf000081-resize_1/000469_2014-06-09_19-42-10_260595134347_rgbf000081-resize_1-target.png,1000,1.652,0,4322,1004,meters,jsons/v1_VE1000_randls_58_rotated.json,1865634,2523368,52,Man
107,503827,DepthScenes,duration_manipulation_targetAtFixation,jsons/v1_VE1000_randls_58_rotated.json,http://54.235.29.9/FacialAge/BNav_EC2/DepthDuration/v2_depth_duration_MTurk/v2_DepthDuration_HTML.html#7,7,1366,625,1366,768,8-30-2022,10-17-12,108,depth_duration_stimuli/002568_2014-06-24_13-59-21_094959634447_rgbf000062-resize_4/002568_2014-06-24_13-59-21_094959634447_rgbf000062-resize_4-target.png,1000,3.015,0,4323,988,meters,jsons/v1_VE1000_randls_58_rotated.json,1865634,2523368,52,Man
108,503827,DepthScenes,duration_manipulation_targetAtFixation,jsons/v1_VE1000_randls_58_rotated.json,http://54.235.29.9/FacialAge/BNav_EC2/DepthDuration/v2_depth_duration_MTurk/v2_DepthDuration_HTML.html#7,7,1366,625,1366,768,8-30-2022,10-17-12,109,depth_duration_stimuli/003492_2014-05-21_15-50-55_094959634447_rgbf000828-resize_1/003492_2014-05-21_15-50-55_094959634447_rgbf000828-resize_1-target.png,1000,4.06875,0,4038,999,meters,jsons/v1_VE1000_randls_58_rotated.json,1865634,2523368,52,Man
109,503827,DepthScenes,duration_manipulation_targetAtFixation,jsons/v1_VE1000_randls_58_rotated.json,http://54.235.29.9/FacialAge/BNav_EC2/DepthDuration/v2_depth_duration_MTurk/v2_DepthDuration_HTML.html#7,7,1366,625,1366,768,8-30-2022,10-17-12,110,depth_duration_stimuli/000457_2014-06-08_16-52-43_260595134347_rgbf000199-resize_1/000457_2014-06-08_16-52-43_260595134347_rgbf000199-resize_1-target.png,1000,3.6489999999999996,0,5171,992,meters,jsons/v1_VE1000_randls_58_rotated.json,1865634,2523368,52,Man
110,503827,DepthScenes,duration_manipulation_targetAtFixation,jsons/v1_VE1000_randls_58_rotated.json,http://54.235.29.9/FacialAge/BNav_EC2/DepthDuration/v2_depth_duration_MTurk/v2_DepthDuration_HTML.html#7,7,1366,625,1366,768,8-30-2022,10-17-12,111,depth_duration_stimuli/000929_2014-06-09_16-33-19_260595134347_rgbf000139-resize_0/000929_2014-06-09_16-33-19_260595134347_rgbf000139-resize_0-target.png,1000,2.8680000000000003,0,4272,1006,meters,jsons/v1_VE1000_randls_58_rotated.json,1865634,2523368,52,Man
111,503827,DepthScenes,duration_manipulation_targetAtFixation,jsons/v1_VE1000_randls_58_rotated.json,http://54.235.29.9/FacialAge/BNav_EC2/DepthDuration/v2_depth_duration_MTurk/v2_DepthDuration_HTML.html#7,7,1366,625,1366,768,8-30-2022,10-17-12,112,depth_duration_stimuli/003490_2014-05-21_15-50-11_094959634447_rgbf000101-resize_3/003490_2014-05-21_15-50-11_094959634447_rgbf000101-resize_3-target.png,1000,3.6445,0,3818,1006,meters,jsons/v1_VE1000_randls_58_rotated.json,1865634,2523368,52,Man
112,503827,DepthScenes,duration_manipulation_targetAtFixation,jsons/v1_VE1000_randls_58_rotated.json,http://54.235.29.9/FacialAge/BNav_EC2/DepthDuration/v2_depth_duration_MTurk/v2_DepthDuration_HTML.html#7,7,1366,625,1366,768,8-30-2022,10-17-12,113,depth_duration_stimuli/001175_2014-06-17_15-45-55_260595134347_rgbf000129-resize_4/001175_2014-06-17_15-45-55_260595134347_rgbf000129-resize_4-target.png,1000,4.255,0,4138,973,meters,jsons/v1_VE1000_randls_58_rotated.json,1865634,2523368,52,Man
113,503827,DepthScenes,duration_manipulation_targetAtFixation,jsons/v1_VE1000_randls_58_rotated.json,http://54.235.29.9/FacialAge/BNav_EC2/DepthDuration/v2_depth_duration_MTurk/v2_DepthDuration_HTML.html#7,7,1366,625,1366,768,8-30-2022,10-17-12,114,depth_duration_stimuli/001214_2014-06-17_16-13-55_260595134347_rgbf000111-resize_0/001214_2014-06-17_16-13-55_260595134347_rgbf000111-resize_0-target.png,1000,2.6505,0,3725,996,meters,jsons/v1_VE1000_randls_58_rotated.json,1865634,2523368,52,Man
114,503827,DepthScenes,duration_manipulation_targetAtFixation,jsons/v1_VE1000_randls_58_rotated.json,http://54.235.29.9/FacialAge/BNav_EC2/DepthDuration/v2_depth_duration_MTurk/v2_DepthDuration_HTML.html#7,7,1366,625,1366,768,8-30-2022,10-17-12,115,depth_duration_stimuli/000810_2014-06-08_17-20-01_260595134347_rgbf000105-resize_0/000810_2014-06-08_17-20-01_260595134347_rgbf000105-resize_0-target.png,1000,1.4865,0,11756,997,meters,jsons/v1_VE1000_randls_58_rotated.json,1865634,2523368,52,Man
115,503827,DepthScenes,duration_manipulation_targetAtFixation,jsons/v1_VE1000_randls_58_rotated.json,http://54.235.29.9/FacialAge/BNav_EC2/DepthDuration/v2_depth_duration_MTurk/v2_DepthDuration_HTML.html#7,7,1366,625,1366,768,8-30-2022,10-17-12,116,depth_duration_stimuli/000665_2014-06-09_20-42-35_260595134347_rgbf000110-resize_1/000665_2014-06-09_20-42-35_260595134347_rgbf000110-resize_1-target.png,1000,3.057,0,5376,975,meters,jsons/v1_VE1000_randls_58_rotated.json,1865634,2523368,52,Man
116,503827,DepthScenes,duration_manipulation_targetAtFixation,jsons/v1_VE1000_randls_58_rotated.json,http://54.235.29.9/FacialAge/BNav_EC2/DepthDuration/v2_depth_duration_MTurk/v2_DepthDuration_HTML.html#7,7,1366,625,1366,768,8-30-2022,10-17-12,117,depth_duration_stimuli/001150_2014-06-17_15-27-34_260595134347_rgbf000108-resize_2/001150_2014-06-17_15-27-34_260595134347_rgbf000108-resize_2-target.png,1000,4.0325,0,6175,1013,meters,jsons/v1_VE1000_randls_58_rotated.json,1865634,2523368,52,Man
117,503827,DepthScenes,duration_manipulation_targetAtFixation,jsons/v1_VE1000_randls_58_rotated.json,http://54.235.29.9/FacialAge/BNav_EC2/DepthDuration/v2_depth_duration_MTurk/v2_DepthDuration_HTML.html#7,7,1366,625,1366,768,8-30-2022,10-17-12,118,depth_duration_stimuli/003228_2014-05-14_13-42-35_094959634447_rgbf000101-resize_1/003228_2014-05-14_13-42-35_094959634447_rgbf000101-resize_1-target.png,1000,1.9680000000000002,0,15587,1002,meters,jsons/v1_VE1000_randls_58_rotated.json,1865634,2523368,52,Man
118,503827,DepthScenes,duration_manipulation_targetAtFixation,jsons/v1_VE1000_randls_58_rotated.json,http://54.235.29.9/FacialAge/BNav_EC2/DepthDuration/v2_depth_duration_MTurk/v2_DepthDuration_HTML.html#7,7,1366,625,1366,768,8-30-2022,10-17-12,119,depth_duration_stimuli/002600_2014-06-24_14-27-04_094959634447_rgbf000074-resize_2/002600_2014-06-24_14-27-04_094959634447_rgbf000074-resize_2-target.png,1000,2.7575,0,3998,1000,meters,jsons/v1_VE1000_randls_58_rotated.json,1865634,2523368,52,Man
119,503827,DepthScenes,duration_manipulation_targetAtFixation,jsons/v1_VE1000_randls_58_rotated.json,http://54.235.29.9/FacialAge/BNav_EC2/DepthDuration/v2_depth_duration_MTurk/v2_DepthDuration_HTML.html#7,7,1366,625,1366,768,8-30-2022,10-17-12,120,depth_duration_stimuli/000787_2014-06-08_22-33-53_260595134347_rgbf000175-resize_1/000787_2014-06-08_22-33-53_260595134347_rgbf000175-resize-original.jpg,1000,4.784,0,3968,1001,meters,jsons/v1_VE1000_randls_58_rotated.json,1865634,2523368,52,Man
120,503827,DepthScenes,duration_manipulation_targetAtFixation,jsons/v1_VE1000_randls_58_rotated.json,http://54.235.29.9/FacialAge/BNav_EC2/DepthDuration/v2_depth_duration_MTurk/v2_DepthDuration_HTML.html#7,7,1366,625,1366,768,8-30-2022,10-17-12,121,depth_duration_stimuli/002444_2014-06-28_20-32-08_260595134347_rgbf000027-resize_0/002444_2014-06-28_20-32-08_260595134347_rgbf000027-resize_0-target.png,1000,4.388999999999999,0,4643,992,meters,jsons/v1_VE1000_randls_58_rotated.json,1865634,2523368,52,Man
121,503827,DepthScenes,duration_manipulation_targetAtFixation,jsons/v1_VE1000_randls_58_rotated.json,http://54.235.29.9/FacialAge/BNav_EC2/DepthDuration/v2_depth_duration_MTurk/v2_DepthDuration_HTML.html#7,7,1366,625,1366,768,8-30-2022,10-17-12,122,depth_duration_stimuli/000436_2014-06-09_22-25-11_260595134347_rgbf000137-resize_1/000436_2014-06-09_22-25-11_260595134347_rgbf000137-resize_1-target.png,1000,4.0705,0,3914,1005,meters,jsons/v1_VE1000_randls_58_rotated.json,1865634,2523368,52,Man
122,503827,DepthScenes,duration_manipulation_targetAtFixation,jsons/v1_VE1000_randls_58_rotated.json,http://54.235.29.9/FacialAge/BNav_EC2/DepthDuration/v2_depth_duration_MTurk/v2_DepthDuration_HTML.html#7,7,1366,625,1366,768,8-30-2022,10-17-12,123,depth_duration_stimuli/001094_2014-06-15_17-36-00_260595134347_rgbf000205-resize_0/001094_2014-06-15_17-36-00_260595134347_rgbf000205-resize_0-target.png,1000,4.2175,0,27850,1008,meters,jsons/v1_VE1000_randls_58_rotated.json,1865634,2523368,52,Man
123,503827,DepthScenes,duration_manipulation_targetAtFixation,jsons/v1_VE1000_randls_58_rotated.json,http://54.235.29.9/FacialAge/BNav_EC2/DepthDuration/v2_depth_duration_MTurk/v2_DepthDuration_HTML.html#7,7,1366,625,1366,768,8-30-2022,10-17-12,124,depth_duration_stimuli/000692_2014-06-08_13-09-42_260595134347_rgbf000199-resize_2/000692_2014-06-08_13-09-42_260595134347_rgbf000199-resize_2-target.png,1000,3.661,0,3900,991,meters,jsons/v1_VE1000_randls_58_rotated.json,1865634,2523368,52,Man
124,503827,DepthScenes,duration_manipulation_targetAtFixation,jsons/v1_VE1000_randls_58_rotated.json,http://54.235.29.9/FacialAge/BNav_EC2/DepthDuration/v2_depth_duration_MTurk/v2_DepthDuration_HTML.html#7,7,1366,625,1366,768,8-30-2022,10-17-12,125,depth_duration_stimuli/001450_2014-06-19_17-02-03_260595134347_rgbf000203-resize_4/001450_2014-06-19_17-02-03_260595134347_rgbf000203-resize_4-target.png,1000,4.0106666666667,0,5123,994,meters,jsons/v1_VE1000_randls_58_rotated.json,1865634,2523368,52,Man
125,503827,DepthScenes,duration_manipulation_targetAtFixation,jsons/v1_VE1000_randls_58_rotated.json,http://54.235.29.9/FacialAge/BNav_EC2/DepthDuration/v2_depth_duration_MTurk/v2_DepthDuration_HTML.html#7,7,1366,625,1366,768,8-30-2022,10-17-12,126,depth_duration_stimuli/001449_2014-06-19_17-01-27_260595134347_rgbf000116-resize_2/001449_2014-06-19_17-01-27_260595134347_rgbf000116-resize_2-target.png,1000,3.452,0,5022,919,meters,jsons/v1_VE1000_randls_58_rotated.json,1865634,2523368,52,Man
126,503827,DepthScenes,duration_manipulation_targetAtFixation,jsons/v1_VE1000_randls_58_rotated.json,http://54.235.29.9/FacialAge/BNav_EC2/DepthDuration/v2_depth_duration_MTurk/v2_DepthDuration_HTML.html#7,7,1366,625,1366,768,8-30-2022,10-17-12,127,depth_duration_stimuli/000943_2014-06-09_19-31-07_260595134347_rgbf000128-resize_1/000943_2014-06-09_19-31-07_260595134347_rgbf000128-resize_1-target.png,1000,1.9765,0,11061,1003,meters,jsons/v1_VE1000_randls_58_rotated.json,1865634,2523368,52,Man
127,503827,DepthScenes,duration_manipulation_targetAtFixation,jsons/v1_VE1000_randls_58_rotated.json,http://54.235.29.9/FacialAge/BNav_EC2/DepthDuration/v2_depth_duration_MTurk/v2_DepthDuration_HTML.html#7,7,1366,625,1366,768,8-30-2022,10-17-12,128,depth_duration_stimuli/003070_2014-06-15_14-58-27_094959634447_rgbf000150-resize_3/003070_2014-06-15_14-58-27_094959634447_rgbf000150-resize_3-target.png,1000,2.9415,0,10085,1022,meters,jsons/v1_VE1000_randls_58_rotated.json,1865634,2523368,52,Man
128,503827,DepthScenes,duration_manipulation_targetAtFixation,jsons/v1_VE1000_randls_58_rotated.json,http://54.235.29.9/FacialAge/BNav_EC2/DepthDuration/v2_depth_duration_MTurk/v2_DepthDuration_HTML.html#7,7,1366,625,1366,768,8-30-2022,10-17-12,129,depth_duration_stimuli/003338_2014-05-20_11-01-23_094959634447_rgbf000051-resize_6/003338_2014-05-20_11-01-23_094959634447_rgbf000051-resize_6-target.png,1000,1.693,0,4436,998,meters,jsons/v1_VE1000_randls_58_rotated.json,1865634,2523368,52,Man
129,503827,DepthScenes,duration_manipulation_targetAtFixation,jsons/v1_VE1000_randls_58_rotated.json,http://54.235.29.9/FacialAge/BNav_EC2/DepthDuration/v2_depth_duration_MTurk/v2_DepthDuration_HTML.html#7,7,1366,625,1366,768,8-30-2022,10-17-12,130,depth_duration_stimuli/002509_2014-06-24_13-19-22_094959634447_rgbf000077-resize_0/002509_2014-06-24_13-19-22_094959634447_rgbf000077-resize_0-target.png,1000,1.3065,0,4866,944,meters,jsons/v1_VE1000_randls_58_rotated.json,1865634,2523368,52,Man
130,503827,DepthScenes,duration_manipulation_targetAtFixation,jsons/v1_VE1000_randls_58_rotated.json,http://54.235.29.9/FacialAge/BNav_EC2/DepthDuration/v2_depth_duration_MTurk/v2_DepthDuration_HTML.html#7,7,1366,625,1366,768,8-30-2022,10-17-12,131,depth_duration_stimuli/000780_2014-06-08_22-28-29_260595134347_rgbf000126-resize_1/000780_2014-06-08_22-28-29_260595134347_rgbf000126-resize_1-target.png,1000,3.3825,0,5488,990,meters,jsons/v1_VE1000_randls_58_rotated.json,1865634,2523368,52,Man
131,503827,DepthScenes,duration_manipulation_targetAtFixation,jsons/v1_VE1000_randls_58_rotated.json,http://54.235.29.9/FacialAge/BNav_EC2/DepthDuration/v2_depth_duration_MTurk/v2_DepthDuration_HTML.html#7,7,1366,625,1366,768,8-30-2022,10-17-12,132,depth_duration_stimuli/002445_2014-06-28_20-32-16_260595134347_rgbf000029-resize_4/002445_2014-06-28_20-32-16_260595134347_rgbf000029-resize_4-target.png,1000,2.5315,0,4088,1000,meters,jsons/v1_VE1000_randls_58_rotated.json,1865634,2523368,52,Man
132,503827,DepthScenes,duration_manipulation_targetAtFixation,jsons/v1_VE1000_randls_58_rotated.json,http://54.235.29.9/FacialAge/BNav_EC2/DepthDuration/v2_depth_duration_MTurk/v2_DepthDuration_HTML.html#7,7,1366,625,1366,768,8-30-2022,10-17-12,133,depth_duration_stimuli/002657_2014-06-13_15-29-54_094959634447_rgbf000150-resize_1/002657_2014-06-13_15-29-54_094959634447_rgbf000150-resize_1-target.png,1000,4.919,0,4660,1003,meters,jsons/v1_VE1000_randls_58_rotated.json,1865634,2523368,52,Man
133,503827,DepthScenes,duration_manipulation_targetAtFixation,jsons/v1_VE1000_randls_58_rotated.json,http://54.235.29.9/FacialAge/BNav_EC2/DepthDuration/v2_depth_duration_MTurk/v2_DepthDuration_HTML.html#7,7,1366,625,1366,768,8-30-2022,10-17-12,134,depth_duration_stimuli/002375_2014-06-28_20-13-44_260595134347_rgbf000032-resize_1/002375_2014-06-28_20-13-44_260595134347_rgbf000032-resize_1-target.png,1000,4.0175,0,6576,997,meters,jsons/v1_VE1000_randls_58_rotated.json,1865634,2523368,52,Man
134,503827,DepthScenes,duration_manipulation_targetAtFixation,jsons/v1_VE1000_randls_58_rotated.json,http://54.235.29.9/FacialAge/BNav_EC2/DepthDuration/v2_depth_duration_MTurk/v2_DepthDuration_HTML.html#7,7,1366,625,1366,768,8-30-2022,10-17-12,135,depth_duration_stimuli/000375_2014-06-08_11-17-29_260595134347_rgbf000133-resize_2/000375_2014-06-08_11-17-29_260595134347_rgbf000133-resize-original.jpg,1000,4.718,0,3715,987,meters,jsons/v1_VE1000_randls_58_rotated.json,1865634,2523368,52,Man
135,503827,DepthScenes,duration_manipulation_targetAtFixation,jsons/v1_VE1000_randls_58_rotated.json,http://54.235.29.9/FacialAge/BNav_EC2/DepthDuration/v2_depth_duration_MTurk/v2_DepthDuration_HTML.html#7,7,1366,625,1366,768,8-30-2022,10-17-12,136,depth_duration_stimuli/002949_2014-06-26_15-57-42_094959634447_rgbf000079-resize_1/002949_2014-06-26_15-57-42_094959634447_rgbf000079-resize_1-target.png,1000,1.8915,0,4475,996,meters,jsons/v1_VE1000_randls_58_rotated.json,1865634,2523368,52,Man
136,503827,DepthScenes,duration_manipulation_targetAtFixation,jsons/v1_VE1000_randls_58_rotated.json,http://54.235.29.9/FacialAge/BNav_EC2/DepthDuration/v2_depth_duration_MTurk/v2_DepthDuration_HTML.html#7,7,1366,625,1366,768,8-30-2022,10-17-12,137,depth_duration_stimuli/000522_2014-06-08_13-35-06_260595134347_rgbf000244-resize_1/000522_2014-06-08_13-35-06_260595134347_rgbf000244-resize_1-target.png,1000,2.3715,0,3687,992,meters,jsons/v1_VE1000_randls_58_rotated.json,1865634,2523368,52,Man
137,503827,DepthScenes,duration_manipulation_targetAtFixation,jsons/v1_VE1000_randls_58_rotated.json,http://54.235.29.9/FacialAge/BNav_EC2/DepthDuration/v2_depth_duration_MTurk/v2_DepthDuration_HTML.html#7,7,1366,625,1366,768,8-30-2022,10-17-12,138,depth_duration_stimuli/001516_2014-06-20_16-25-09_260595134347_rgbf000076-resize_2/001516_2014-06-20_16-25-09_260595134347_rgbf000076-resize_2-target.png,1000,1.7445,0,4224,997,meters,jsons/v1_VE1000_randls_58_rotated.json,1865634,2523368,52,Man
138,503827,DepthScenes,duration_manipulation_targetAtFixation,jsons/v1_VE1000_randls_58_rotated.json,http://54.235.29.9/FacialAge/BNav_EC2/DepthDuration/v2_depth_duration_MTurk/v2_DepthDuration_HTML.html#7,7,1366,625,1366,768,8-30-2022,10-17-12,139,depth_duration_stimuli/002118_2014-06-25_20-32-08_260595134347_rgbf000078-resize_1/002118_2014-06-25_20-32-08_260595134347_rgbf000078-resize_1-target.png,1000,2.6460000000000004,0,4647,1002,meters,jsons/v1_VE1000_randls_58_rotated.json,1865634,2523368,52,Man
139,503827,DepthScenes,duration_manipulation_targetAtFixation,jsons/v1_VE1000_randls_58_rotated.json,http://54.235.29.9/FacialAge/BNav_EC2/DepthDuration/v2_depth_duration_MTurk/v2_DepthDuration_HTML.html#7,7,1366,625,1366,768,8-30-2022,10-17-12,140,depth_duration_stimuli/001235_2014-06-17_16-37-36_260595134347_rgbf000084-resize_4/001235_2014-06-17_16-37-36_260595134347_rgbf000084-resize_4-target.png,1000,3.6605,0,4325,985,meters,jsons/v1_VE1000_randls_58_rotated.json,1865634,2523368,52,Man
140,503827,DepthScenes,duration_manipulation_targetAtFixation,jsons/v1_VE1000_randls_58_rotated.json,http://54.235.29.9/FacialAge/BNav_EC2/DepthDuration/v2_depth_duration_MTurk/v2_DepthDuration_HTML.html#7,7,1366,625,1366,768,8-30-2022,10-17-12,141,depth_duration_stimuli/000788_2014-06-08_22-34-36_260595134347_rgbf000131-resize_1/000788_2014-06-08_22-34-36_260595134347_rgbf000131-resize_1-target.png,1000,3.359,0,7194,1011,meters,jsons/v1_VE1000_randls_58_rotated.json,1865634,2523368,52,Man
141,503827,DepthScenes,duration_manipulation_targetAtFixation,jsons/v1_VE1000_randls_58_rotated.json,http://54.235.29.9/FacialAge/BNav_EC2/DepthDuration/v2_depth_duration_MTurk/v2_DepthDuration_HTML.html#7,7,1366,625,1366,768,8-30-2022,10-17-12,142,depth_duration_stimuli/000191_2014-05-12_17-07-38_260595134347_rgbf000199-resize_0/000191_2014-05-12_17-07-38_260595134347_rgbf000199-resize_0-target.png,1000,3.7995,0,3884,1000,meters,jsons/v1_VE1000_randls_58_rotated.json,1865634,2523368,52,Man
142,503827,DepthScenes,duration_manipulation_targetAtFixation,jsons/v1_VE1000_randls_58_rotated.json,http://54.235.29.9/FacialAge/BNav_EC2/DepthDuration/v2_depth_duration_MTurk/v2_DepthDuration_HTML.html#7,7,1366,625,1366,768,8-30-2022,10-17-12,143,depth_duration_stimuli/000493_2014-06-09_21-01-18_260595134347_rgbf000196-resize_3/000493_2014-06-09_21-01-18_260595134347_rgbf000196-resize_3-target.png,1000,3.44,0,4515,985,meters,jsons/v1_VE1000_randls_58_rotated.json,1865634,2523368,52,Man
143,503827,DepthScenes,duration_manipulation_targetAtFixation,jsons/v1_VE1000_randls_58_rotated.json,http://54.235.29.9/FacialAge/BNav_EC2/DepthDuration/v2_depth_duration_MTurk/v2_DepthDuration_HTML.html#7,7,1366,625,1366,768,8-30-2022,10-17-12,144,depth_duration_stimuli/002545_2014-06-24_13-38-53_094959634447_rgbf000080-resize_4/002545_2014-06-24_13-38-53_094959634447_rgbf000080-resize_4-target.png,1000,1.9205,0,5718,992,meters,jsons/v1_VE1000_randls_58_rotated.json,1865634,2523368,52,Man
144,503827,DepthScenes,duration_manipulation_targetAtFixation,jsons/v1_VE1000_randls_58_rotated.json,http://54.235.29.9/FacialAge/BNav_EC2/DepthDuration/v2_depth_duration_MTurk/v2_DepthDuration_HTML.html#7,7,1366,625,1366,768,8-30-2022,10-17-12,145,depth_duration_stimuli/001092_2014-06-15_17-34-58_260595134347_rgbf000171-resize_3/001092_2014-06-15_17-34-58_260595134347_rgbf000171-resize_3-target.png,1000,2.6935,0,4010,1004,meters,jsons/v1_VE1000_randls_58_rotated.json,1865634,2523368,52,Man
145,503827,DepthScenes,duration_manipulation_targetAtFixation,jsons/v1_VE1000_randls_58_rotated.json,http://54.235.29.9/FacialAge/BNav_EC2/DepthDuration/v2_depth_duration_MTurk/v2_DepthDuration_HTML.html#7,7,1366,625,1366,768,8-30-2022,10-17-12,146,depth_duration_stimuli/002344_2014-06-28_20-06-29_260595134347_rgbf000030-resize_1/002344_2014-06-28_20-06-29_260595134347_rgbf000030-resize_1-target.png,1000,1.5795,0,4493,958,meters,jsons/v1_VE1000_randls_58_rotated.json,1865634,2523368,52,Man
146,503827,DepthScenes,duration_manipulation_targetAtFixation,jsons/v1_VE1000_randls_58_rotated.json,http://54.235.29.9/FacialAge/BNav_EC2/DepthDuration/v2_depth_duration_MTurk/v2_DepthDuration_HTML.html#7,7,1366,625,1366,768,8-30-2022,10-17-12,147,depth_duration_stimuli/002725_2014-06-22_11-47-51_094959634447_rgbf000070-resize_1/002725_2014-06-22_11-47-51_094959634447_rgbf000070-resize_1-target.png,1000,2.195,0,4060,992,meters,jsons/v1_VE1000_randls_58_rotated.json,1865634,2523368,52,Man
147,503827,DepthScenes,duration_manipulation_targetAtFixation,jsons/v1_VE1000_randls_58_rotated.json,http://54.235.29.9/FacialAge/BNav_EC2/DepthDuration/v2_depth_duration_MTurk/v2_DepthDuration_HTML.html#7,7,1366,625,1366,768,8-30-2022,10-17-12,148,depth_duration_stimuli/003495_2014-05-21_16-01-51_094959634447_rgbf000100-resize_3/003495_2014-05-21_16-01-51_094959634447_rgbf000100-resize_3-target.png,1000,1.6255,0,6039,1002,meters,jsons/v1_VE1000_randls_58_rotated.json,1865634,2523368,52,Man
148,503827,DepthScenes,duration_manipulation_targetAtFixation,jsons/v1_VE1000_randls_58_rotated.json,http://54.235.29.9/FacialAge/BNav_EC2/DepthDuration/v2_depth_duration_MTurk/v2_DepthDuration_HTML.html#7,7,1366,625,1366,768,8-30-2022,10-17-12,149,depth_duration_stimuli/001244_2014-06-17_16-47-45_260595134347_rgbf000030-resize_4/001244_2014-06-17_16-47-45_260595134347_rgbf000030-resize_4-target.png,1000,2.0425,0,4381,991,meters,jsons/v1_VE1000_randls_58_rotated.json,1865634,2523368,52,Man
149,503827,DepthScenes,duration_manipulation_targetAtFixation,jsons/v1_VE1000_randls_58_rotated.json,http://54.235.29.9/FacialAge/BNav_EC2/DepthDuration/v2_depth_duration_MTurk/v2_DepthDuration_HTML.html#7,7,1366,625,1366,768,8-30-2022,10-17-12,150,depth_duration_stimuli/001617_2014-06-20_11-35-32_260595134347_rgbf000066-resize_1/001617_2014-06-20_11-35-32_260595134347_rgbf000066-resize_1-target.png,1000,3.7910000000000004,0,4549,1001,meters,jsons/v1_VE1000_randls_58_rotated.json,1865634,2523368,52,Man
150,503827,DepthScenes,duration_manipulation_targetAtFixation,jsons/v1_VE1000_randls_58_rotated.json,http://54.235.29.9/FacialAge/BNav_EC2/DepthDuration/v2_depth_duration_MTurk/v2_DepthDuration_HTML.html#7,7,1366,625,1366,768,8-30-2022,10-17-12,151,depth_duration_stimuli/001806_2014-06-26_20-50-20_260595134347_rgbf000091-resize_1/001806_2014-06-26_20-50-20_260595134347_rgbf000091-resize_1-target.png,1000,2.7305,0,21975,999,meters,jsons/v1_VE1000_randls_58_rotated.json,1865634,2523368,52,Man
151,503827,DepthScenes,duration_manipulation_targetAtFixation,jsons/v1_VE1000_randls_58_rotated.json,http://54.235.29.9/FacialAge/BNav_EC2/DepthDuration/v2_depth_duration_MTurk/v2_DepthDuration_HTML.html#7,7,1366,625,1366,768,8-30-2022,10-17-12,152,depth_duration_stimuli/000569_2014-06-09_22-51-47_260595134347_rgbf000141-resize_3/000569_2014-06-09_22-51-47_260595134347_rgbf000141-resize-original.jpg,1000,4.512,0,4677,953,meters,jsons/v1_VE1000_randls_58_rotated.json,1865634,2523368,52,Man
152,503827,DepthScenes,duration_manipulation_targetAtFixation,jsons/v1_VE1000_randls_58_rotated.json,http://54.235.29.9/FacialAge/BNav_EC2/DepthDuration/v2_depth_duration_MTurk/v2_DepthDuration_HTML.html#7,7,1366,625,1366,768,8-30-2022,10-17-12,153,depth_duration_stimuli/001052_2014-06-08_18-24-54_260595134347_rgbf000130-resize_1/001052_2014-06-08_18-24-54_260595134347_rgbf000130-resize_1-target.png,1000,4.1045,0,3930,991,meters,jsons/v1_VE1000_randls_58_rotated.json,1865634,2523368,52,Man
153,503827,DepthScenes,duration_manipulation_targetAtFixation,jsons/v1_VE1000_randls_58_rotated.json,http://54.235.29.9/FacialAge/BNav_EC2/DepthDuration/v2_depth_duration_MTurk/v2_DepthDuration_HTML.html#7,7,1366,625,1366,768,8-30-2022,10-17-12,154,depth_duration_stimuli/002988_2014-06-15_12-24-20_094959634447_rgbf000150-resize_1/002988_2014-06-15_12-24-20_094959634447_rgbf000150-resize_1-target.png,1000,4.7669999999999995,0,4415,1007,meters,jsons/v1_VE1000_randls_58_rotated.json,1865634,2523368,52,Man
154,503827,DepthScenes,duration_manipulation_targetAtFixation,jsons/v1_VE1000_randls_58_rotated.json,http://54.235.29.9/FacialAge/BNav_EC2/DepthDuration/v2_depth_duration_MTurk/v2_DepthDuration_HTML.html#7,7,1366,625,1366,768,8-30-2022,10-17-12,155,depth_duration_stimuli/002414_2014-06-28_20-24-58_260595134347_rgbf000067-resize_4/002414_2014-06-28_20-24-58_260595134347_rgbf000067-resize_4-target.png,1000,4.363,0,4996,990,meters,jsons/v1_VE1000_randls_58_rotated.json,1865634,2523368,52,Man
155,503827,DepthScenes,duration_manipulation_targetAtFixation,jsons/v1_VE1000_randls_58_rotated.json,http://54.235.29.9/FacialAge/BNav_EC2/DepthDuration/v2_depth_duration_MTurk/v2_DepthDuration_HTML.html#7,7,1366,625,1366,768,8-30-2022,10-17-12,156,depth_duration_stimuli/000773_2014-06-08_22-24-54_260595134347_rgbf000093-resize_1/000773_2014-06-08_22-24-54_260595134347_rgbf000093-resize_1-target.png,1000,4.973,0,3850,994,meters,jsons/v1_VE1000_randls_58_rotated.json,1865634,2523368,52,Man
156,503827,DepthScenes,duration_manipulation_targetAtFixation,jsons/v1_VE1000_randls_58_rotated.json,http://54.235.29.9/FacialAge/BNav_EC2/DepthDuration/v2_depth_duration_MTurk/v2_DepthDuration_HTML.html#7,7,1366,625,1366,768,8-30-2022,10-17-12,157,depth_duration_stimuli/000734_2014-06-08_17-39-11_260595134347_rgbf000128-resize_2/000734_2014-06-08_17-39-11_260595134347_rgbf000128-resize_2-target.png,1000,4.098,0,4011,981,meters,jsons/v1_VE1000_randls_58_rotated.json,1865634,2523368,52,Man
157,503827,DepthScenes,duration_manipulation_targetAtFixation,jsons/v1_VE1000_randls_58_rotated.json,http://54.235.29.9/FacialAge/BNav_EC2/DepthDuration/v2_depth_duration_MTurk/v2_DepthDuration_HTML.html#7,7,1366,625,1366,768,8-30-2022,10-17-12,158,depth_duration_stimuli/000739_2014-06-08_18-45-58_260595134347_rgbf000068-resize_1/000739_2014-06-08_18-45-58_260595134347_rgbf000068-resize_1-target.png,1000,3.534,0,5423,994,meters,jsons/v1_VE1000_randls_58_rotated.json,1865634,2523368,52,Man
158,503827,DepthScenes,duration_manipulation_targetAtFixation,jsons/v1_VE1000_randls_58_rotated.json,http://54.235.29.9/FacialAge/BNav_EC2/DepthDuration/v2_depth_duration_MTurk/v2_DepthDuration_HTML.html#7,7,1366,625,1366,768,8-30-2022,10-17-12,159,depth_duration_stimuli/000691_2014-06-08_13-08-50_260595134347_rgbf000132-resize_3/000691_2014-06-08_13-08-50_260595134347_rgbf000132-resize_3-target.png,1000,4.1530000000000005,0,4370,999,meters,jsons/v1_VE1000_randls_58_rotated.json,1865634,2523368,52,Man
159,503827,DepthScenes,duration_manipulation_targetAtFixation,jsons/v1_VE1000_randls_58_rotated.json,http://54.235.29.9/FacialAge/BNav_EC2/DepthDuration/v2_depth_duration_MTurk/v2_DepthDuration_HTML.html#7,7,1366,625,1366,768,8-30-2022,10-17-12,160,depth_duration_stimuli/002213_2014-06-28_18-37-58_260595134347_rgbf000055-resize_1/002213_2014-06-28_18-37-58_260595134347_rgbf000055-resize_1-target.png,1000,3.62,0,4087,1004,meters,jsons/v1_VE1000_randls_58_rotated.json,1865634,2523368,52,Man
160,503827,DepthScenes,duration_manipulation_targetAtFixation,jsons/v1_VE1000_randls_58_rotated.json,http://54.235.29.9/FacialAge/BNav_EC2/DepthDuration/v2_depth_duration_MTurk/v2_DepthDuration_HTML.html#7,7,1366,625,1366,768,8-30-2022,10-17-12,161,depth_duration_stimuli/001650_2014-06-20_12-09-00_260595134347_rgbf000087-resize_3/001650_2014-06-20_12-09-00_260595134347_rgbf000087-resize_3-target.png,1000,1.9505,0,3901,992,meters,jsons/v1_VE1000_randls_58_rotated.json,1865634,2523368,52,Man
161,503827,DepthScenes,duration_manipulation_targetAtFixation,jsons/v1_VE1000_randls_58_rotated.json,http://54.235.29.9/FacialAge/BNav_EC2/DepthDuration/v2_depth_duration_MTurk/v2_DepthDuration_HTML.html#7,7,1366,625,1366,768,8-30-2022,10-17-12,162,depth_duration_stimuli/000682_2014-06-08_23-14-58_260595134347_rgbf000041-resize_5/000682_2014-06-08_23-14-58_260595134347_rgbf000041-resize_5-target.png,1000,2.7239999999999998,0,4345,1008,meters,jsons/v1_VE1000_randls_58_rotated.json,1865634,2523368,52,Man
162,503827,DepthScenes,duration_manipulation_targetAtFixation,jsons/v1_VE1000_randls_58_rotated.json,http://54.235.29.9/FacialAge/BNav_EC2/DepthDuration/v2_depth_duration_MTurk/v2_DepthDuration_HTML.html#7,7,1366,625,1366,768,8-30-2022,10-17-12,163,depth_duration_stimuli/000677_2014-06-08_23-10-32_260595134347_rgbf000158-resize_6/000677_2014-06-08_23-10-32_260595134347_rgbf000158-resize_6-target.png,1000,3.556,0,4171,990,meters,jsons/v1_VE1000_randls_58_rotated.json,1865634,2523368,52,Man
163,503827,DepthScenes,duration_manipulation_targetAtFixation,jsons/v1_VE1000_randls_58_rotated.json,http://54.235.29.9/FacialAge/BNav_EC2/DepthDuration/v2_depth_duration_MTurk/v2_DepthDuration_HTML.html#7,7,1366,625,1366,768,8-30-2022,10-17-12,164,depth_duration_stimuli/001029_2014-06-08_13-17-57_260595134347_rgbf000065-resize_1/001029_2014-06-08_13-17-57_260595134347_rgbf000065-resize_1-target.png,1000,3.0835,0,3910,988,meters,jsons/v1_VE1000_randls_58_rotated.json,1865634,2523368,52,Man
