,subjID,experimentName,versionName,sequenceName,url,selected_row,windowWidth,windowHeight,screenWidth,screenHeight,startDate,startTime,trial,stimulus,duration,actual_depth,depth_estimate,trial_RT,log_sceneDuration,unitSelection,seq_filepath,experimentTime,totalTime,age,gender
0,505075,DepthScenes,duration_manipulation_targetAtFixation,jsons/v1_VE250_randls_26.json,http://54.235.29.9/FacialAge/BNav_EC2/DepthDuration/v2_depth_duration_MTurk/v2_DepthDuration_HTML.html#286,286,1536,722,1536,864,8-29-2022,14-25-1,1,depth_duration_stimuli/000810_2014-06-08_17-20-01_260595134347_rgbf000105-resize_0/000810_2014-06-08_17-20-01_260595134347_rgbf000105-resize_0-target.png,250,1.4865,3,8355,252,feet,jsons/v1_VE250_randls_26.json,622959,804843,60,Man
1,505075,DepthScenes,duration_manipulation_targetAtFixation,jsons/v1_VE250_randls_26.json,http://54.235.29.9/FacialAge/BNav_EC2/DepthDuration/v2_depth_duration_MTurk/v2_DepthDuration_HTML.html#286,286,1536,722,1536,864,8-29-2022,14-25-1,2,depth_duration_stimuli/001214_2014-06-17_16-13-55_260595134347_rgbf000111-resize_0/001214_2014-06-17_16-13-55_260595134347_rgbf000111-resize_0-target.png,250,2.6505,3,3992,249,feet,jsons/v1_VE250_randls_26.json,622959,804843,60,Man
2,505075,DepthScenes,duration_manipulation_targetAtFixation,jsons/v1_VE250_randls_26.json,http://54.235.29.9/FacialAge/BNav_EC2/DepthDuration/v2_depth_duration_MTurk/v2_DepthDuration_HTML.html#286,286,1536,722,1536,864,8-29-2022,14-25-1,3,depth_duration_stimuli/002213_2014-06-28_18-37-58_260595134347_rgbf000055-resize_1/002213_2014-06-28_18-37-58_260595134347_rgbf000055-resize_1-target.png,250,3.62,4,4189,251,feet,jsons/v1_VE250_randls_26.json,622959,804843,60,Man
3,505075,DepthScenes,duration_manipulation_targetAtFixation,jsons/v1_VE250_randls_26.json,http://54.235.29.9/FacialAge/BNav_EC2/DepthDuration/v2_depth_duration_MTurk/v2_DepthDuration_HTML.html#286,286,1536,722,1536,864,8-29-2022,14-25-1,4,depth_duration_stimuli/000691_2014-06-08_13-08-50_260595134347_rgbf000132-resize_3/000691_2014-06-08_13-08-50_260595134347_rgbf000132-resize_3-target.png,250,4.1530000000000005,4,3139,251,feet,jsons/v1_VE250_randls_26.json,622959,804843,60,Man
4,505075,DepthScenes,duration_manipulation_targetAtFixation,jsons/v1_VE250_randls_26.json,http://54.235.29.9/FacialAge/BNav_EC2/DepthDuration/v2_depth_duration_MTurk/v2_DepthDuration_HTML.html#286,286,1536,722,1536,864,8-29-2022,14-25-1,5,depth_duration_stimuli/002989_2014-06-15_12-25-03_094959634447_rgbf000150-resize_3/002989_2014-06-15_12-25-03_094959634447_rgbf000150-resize_3-target.png,250,4.1975,5,5329,252,feet,jsons/v1_VE250_randls_26.json,622959,804843,60,Man
5,505075,DepthScenes,duration_manipulation_targetAtFixation,jsons/v1_VE250_randls_26.json,http://54.235.29.9/FacialAge/BNav_EC2/DepthDuration/v2_depth_duration_MTurk/v2_DepthDuration_HTML.html#286,286,1536,722,1536,864,8-29-2022,14-25-1,6,depth_duration_stimuli/000866_2014-06-09_20-45-42_260595134347_rgbf000139-resize_1/000866_2014-06-09_20-45-42_260595134347_rgbf000139-resize_1-target.png,250,3.2155,5,2850,250,feet,jsons/v1_VE250_randls_26.json,622959,804843,60,Man
6,505075,DepthScenes,duration_manipulation_targetAtFixation,jsons/v1_VE250_randls_26.json,http://54.235.29.9/FacialAge/BNav_EC2/DepthDuration/v2_depth_duration_MTurk/v2_DepthDuration_HTML.html#286,286,1536,722,1536,864,8-29-2022,14-25-1,7,depth_duration_stimuli/002043_2014-06-24_20-29-38_260595134347_rgbf000039-resize_4/002043_2014-06-24_20-29-38_260595134347_rgbf000039-resize_4-target.png,250,2.8435,4,2705,250,feet,jsons/v1_VE250_randls_26.json,622959,804843,60,Man
7,505075,DepthScenes,duration_manipulation_targetAtFixation,jsons/v1_VE250_randls_26.json,http://54.235.29.9/FacialAge/BNav_EC2/DepthDuration/v2_depth_duration_MTurk/v2_DepthDuration_HTML.html#286,286,1536,722,1536,864,8-29-2022,14-25-1,8,depth_duration_stimuli/003048_2014-06-15_13-49-43_094959634447_rgbf000150-resize_1/003048_2014-06-15_13-49-43_094959634447_rgbf000150-resize_1-target.png,250,4.0035,5,3189,250,feet,jsons/v1_VE250_randls_26.json,622959,804843,60,Man
8,505075,DepthScenes,duration_manipulation_targetAtFixation,jsons/v1_VE250_randls_26.json,http://54.235.29.9/FacialAge/BNav_EC2/DepthDuration/v2_depth_duration_MTurk/v2_DepthDuration_HTML.html#286,286,1536,722,1536,864,8-29-2022,14-25-1,9,depth_duration_stimuli/001110_2014-06-15_17-25-28_260595134347_rgbf000150-resize_1/001110_2014-06-15_17-25-28_260595134347_rgbf000150-resize_1-target.png,250,1.7115,3,3867,250,feet,jsons/v1_VE250_randls_26.json,622959,804843,60,Man
9,505075,DepthScenes,duration_manipulation_targetAtFixation,jsons/v1_VE250_randls_26.json,http://54.235.29.9/FacialAge/BNav_EC2/DepthDuration/v2_depth_duration_MTurk/v2_DepthDuration_HTML.html#286,286,1536,722,1536,864,8-29-2022,14-25-1,10,depth_duration_stimuli/000927_2014-06-09_16-32-30_260595134347_rgbf000123-resize_3/000927_2014-06-09_16-32-30_260595134347_rgbf000123-resize_3-target.png,250,2.6785,4,2695,235,feet,jsons/v1_VE250_randls_26.json,622959,804843,60,Man
10,505075,DepthScenes,duration_manipulation_targetAtFixation,jsons/v1_VE250_randls_26.json,http://54.235.29.9/FacialAge/BNav_EC2/DepthDuration/v2_depth_duration_MTurk/v2_DepthDuration_HTML.html#286,286,1536,722,1536,864,8-29-2022,14-25-1,11,depth_duration_stimuli/000436_2014-06-09_22-25-11_260595134347_rgbf000137-resize_1/000436_2014-06-09_22-25-11_260595134347_rgbf000137-resize_1-target.png,250,4.0705,5,2853,425,feet,jsons/v1_VE250_randls_26.json,622959,804843,60,Man
11,505075,DepthScenes,duration_manipulation_targetAtFixation,jsons/v1_VE250_randls_26.json,http://54.235.29.9/FacialAge/BNav_EC2/DepthDuration/v2_depth_duration_MTurk/v2_DepthDuration_HTML.html#286,286,1536,722,1536,864,8-29-2022,14-25-1,12,depth_duration_stimuli/002444_2014-06-28_20-32-08_260595134347_rgbf000027-resize_0/002444_2014-06-28_20-32-08_260595134347_rgbf000027-resize_0-target.png,250,4.388999999999999,3,2211,254,feet,jsons/v1_VE250_randls_26.json,622959,804843,60,Man
12,505075,DepthScenes,duration_manipulation_targetAtFixation,jsons/v1_VE250_randls_26.json,http://54.235.29.9/FacialAge/BNav_EC2/DepthDuration/v2_depth_duration_MTurk/v2_DepthDuration_HTML.html#286,286,1536,722,1536,864,8-29-2022,14-25-1,13,depth_duration_stimuli/000569_2014-06-09_22-51-47_260595134347_rgbf000141-resize_3/000569_2014-06-09_22-51-47_260595134347_rgbf000141-resize-original.jpg,250,4.512,0,4547,245,feet,jsons/v1_VE250_randls_26.json,622959,804843,60,Man
13,505075,DepthScenes,duration_manipulation_targetAtFixation,jsons/v1_VE250_randls_26.json,http://54.235.29.9/FacialAge/BNav_EC2/DepthDuration/v2_depth_duration_MTurk/v2_DepthDuration_HTML.html#286,286,1536,722,1536,864,8-29-2022,14-25-1,14,depth_duration_stimuli/000493_2014-06-09_21-01-18_260595134347_rgbf000196-resize_3/000493_2014-06-09_21-01-18_260595134347_rgbf000196-resize_3-target.png,250,3.44,3,5320,251,feet,jsons/v1_VE250_randls_26.json,622959,804843,60,Man
14,505075,DepthScenes,duration_manipulation_targetAtFixation,jsons/v1_VE250_randls_26.json,http://54.235.29.9/FacialAge/BNav_EC2/DepthDuration/v2_depth_duration_MTurk/v2_DepthDuration_HTML.html#286,286,1536,722,1536,864,8-29-2022,14-25-1,15,depth_duration_stimuli/000191_2014-05-12_17-07-38_260595134347_rgbf000199-resize_0/000191_2014-05-12_17-07-38_260595134347_rgbf000199-resize_0-target.png,250,3.7995,4,2235,247,feet,jsons/v1_VE250_randls_26.json,622959,804843,60,Man
15,505075,DepthScenes,duration_manipulation_targetAtFixation,jsons/v1_VE250_randls_26.json,http://54.235.29.9/FacialAge/BNav_EC2/DepthDuration/v2_depth_duration_MTurk/v2_DepthDuration_HTML.html#286,286,1536,722,1536,864,8-29-2022,14-25-1,16,depth_duration_stimuli/000878_2014-06-08_22-52-45_260595134347_rgbf000045-resize_2/000878_2014-06-08_22-52-45_260595134347_rgbf000045-resize_2-target.png,250,2.092,4,9843,261,feet,jsons/v1_VE250_randls_26.json,622959,804843,60,Man
16,505075,DepthScenes,duration_manipulation_targetAtFixation,jsons/v1_VE250_randls_26.json,http://54.235.29.9/FacialAge/BNav_EC2/DepthDuration/v2_depth_duration_MTurk/v2_DepthDuration_HTML.html#286,286,1536,722,1536,864,8-29-2022,14-25-1,17,depth_duration_stimuli/002953_2014-06-08_17-32-18_094959634447_rgbf000059-resize_5/002953_2014-06-08_17-32-18_094959634447_rgbf000059-resize_5-target.png,250,1.551,2,4164,250,feet,jsons/v1_VE250_randls_26.json,622959,804843,60,Man
17,505075,DepthScenes,duration_manipulation_targetAtFixation,jsons/v1_VE250_randls_26.json,http://54.235.29.9/FacialAge/BNav_EC2/DepthDuration/v2_depth_duration_MTurk/v2_DepthDuration_HTML.html#286,286,1536,722,1536,864,8-29-2022,14-25-1,18,depth_duration_stimuli/000929_2014-06-09_16-33-19_260595134347_rgbf000139-resize_0/000929_2014-06-09_16-33-19_260595134347_rgbf000139-resize_0-target.png,250,2.8680000000000003,3,3000,231,feet,jsons/v1_VE250_randls_26.json,622959,804843,60,Man
18,505075,DepthScenes,duration_manipulation_targetAtFixation,jsons/v1_VE250_randls_26.json,http://54.235.29.9/FacialAge/BNav_EC2/DepthDuration/v2_depth_duration_MTurk/v2_DepthDuration_HTML.html#286,286,1536,722,1536,864,8-29-2022,14-25-1,19,depth_duration_stimuli/000457_2014-06-08_16-52-43_260595134347_rgbf000199-resize_1/000457_2014-06-08_16-52-43_260595134347_rgbf000199-resize_1-target.png,250,3.6489999999999996,5,2638,249,feet,jsons/v1_VE250_randls_26.json,622959,804843,60,Man
19,505075,DepthScenes,duration_manipulation_targetAtFixation,jsons/v1_VE250_randls_26.json,http://54.235.29.9/FacialAge/BNav_EC2/DepthDuration/v2_depth_duration_MTurk/v2_DepthDuration_HTML.html#286,286,1536,722,1536,864,8-29-2022,14-25-1,20,depth_duration_stimuli/002630_2014-06-24_14-47-50_094959634447_rgbf000055-resize_1/002630_2014-06-24_14-47-50_094959634447_rgbf000055-resize_1-target.png,250,3.0095,4,3498,249,feet,jsons/v1_VE250_randls_26.json,622959,804843,60,Man
20,505075,DepthScenes,duration_manipulation_targetAtFixation,jsons/v1_VE250_randls_26.json,http://54.235.29.9/FacialAge/BNav_EC2/DepthDuration/v2_depth_duration_MTurk/v2_DepthDuration_HTML.html#286,286,1536,722,1536,864,8-29-2022,14-25-1,21,depth_duration_stimuli/002758_2014-06-22_19-11-20_094959634447_rgbf000128-resize_1/002758_2014-06-22_19-11-20_094959634447_rgbf000128-resize_1-target.png,250,2.555,3,3798,239,feet,jsons/v1_VE250_randls_26.json,622959,804843,60,Man
21,505075,DepthScenes,duration_manipulation_targetAtFixation,jsons/v1_VE250_randls_26.json,http://54.235.29.9/FacialAge/BNav_EC2/DepthDuration/v2_depth_duration_MTurk/v2_DepthDuration_HTML.html#286,286,1536,722,1536,864,8-29-2022,14-25-1,22,depth_duration_stimuli/000368_2014-06-09_15-53-01_260595134347_rgbf000155-resize_2/000368_2014-06-09_15-53-01_260595134347_rgbf000155-resize_2-target.png,250,2.4859999999999998,2,4831,250,feet,jsons/v1_VE250_randls_26.json,622959,804843,60,Man
22,505075,DepthScenes,duration_manipulation_targetAtFixation,jsons/v1_VE250_randls_26.json,http://54.235.29.9/FacialAge/BNav_EC2/DepthDuration/v2_depth_duration_MTurk/v2_DepthDuration_HTML.html#286,286,1536,722,1536,864,8-29-2022,14-25-1,23,depth_duration_stimuli/002678_2014-06-13_16-15-32_094959634447_rgbf000151-resize_6/002678_2014-06-13_16-15-32_094959634447_rgbf000151-resize_6-target.png,250,2.1830000000000003,4,2607,250,feet,jsons/v1_VE250_randls_26.json,622959,804843,60,Man
23,505075,DepthScenes,duration_manipulation_targetAtFixation,jsons/v1_VE250_randls_26.json,http://54.235.29.9/FacialAge/BNav_EC2/DepthDuration/v2_depth_duration_MTurk/v2_DepthDuration_HTML.html#286,286,1536,722,1536,864,8-29-2022,14-25-1,24,depth_duration_stimuli/002784_2014-06-22_19-26-30_094959634447_rgbf000083-resize_3/002784_2014-06-22_19-26-30_094959634447_rgbf000083-resize_3-target.png,250,1.8046666666667,2,2668,249,feet,jsons/v1_VE250_randls_26.json,622959,804843,60,Man
24,505075,DepthScenes,duration_manipulation_targetAtFixation,jsons/v1_VE250_randls_26.json,http://54.235.29.9/FacialAge/BNav_EC2/DepthDuration/v2_depth_duration_MTurk/v2_DepthDuration_HTML.html#286,286,1536,722,1536,864,8-29-2022,14-25-1,25,depth_duration_stimuli/001100_2014-06-15_17-46-26_260595134347_rgbf000225-resize_2/001100_2014-06-15_17-46-26_260595134347_rgbf000225-resize_2-target.png,250,2.24,3,2937,253,feet,jsons/v1_VE250_randls_26.json,622959,804843,60,Man
25,505075,DepthScenes,duration_manipulation_targetAtFixation,jsons/v1_VE250_randls_26.json,http://54.235.29.9/FacialAge/BNav_EC2/DepthDuration/v2_depth_duration_MTurk/v2_DepthDuration_HTML.html#286,286,1536,722,1536,864,8-29-2022,14-25-1,26,depth_duration_stimuli/001150_2014-06-17_15-27-34_260595134347_rgbf000108-resize_2/001150_2014-06-17_15-27-34_260595134347_rgbf000108-resize_2-target.png,250,4.0325,5,2548,251,feet,jsons/v1_VE250_randls_26.json,622959,804843,60,Man
26,505075,DepthScenes,duration_manipulation_targetAtFixation,jsons/v1_VE250_randls_26.json,http://54.235.29.9/FacialAge/BNav_EC2/DepthDuration/v2_depth_duration_MTurk/v2_DepthDuration_HTML.html#286,286,1536,722,1536,864,8-29-2022,14-25-1,27,depth_duration_stimuli/000665_2014-06-09_20-42-35_260595134347_rgbf000110-resize_1/000665_2014-06-09_20-42-35_260595134347_rgbf000110-resize_1-target.png,250,3.057,4,4728,249,feet,jsons/v1_VE250_randls_26.json,622959,804843,60,Man
27,505075,DepthScenes,duration_manipulation_targetAtFixation,jsons/v1_VE250_randls_26.json,http://54.235.29.9/FacialAge/BNav_EC2/DepthDuration/v2_depth_duration_MTurk/v2_DepthDuration_HTML.html#286,286,1536,722,1536,864,8-29-2022,14-25-1,28,depth_duration_stimuli/001158_2014-06-17_15-32-16_260595134347_rgbf000138-resize_2/001158_2014-06-17_15-32-16_260595134347_rgbf000138-resize_2-target.png,250,4.5315,3,5796,249,feet,jsons/v1_VE250_randls_26.json,622959,804843,60,Man
28,505075,DepthScenes,duration_manipulation_targetAtFixation,jsons/v1_VE250_randls_26.json,http://54.235.29.9/FacialAge/BNav_EC2/DepthDuration/v2_depth_duration_MTurk/v2_DepthDuration_HTML.html#286,286,1536,722,1536,864,8-29-2022,14-25-1,29,depth_duration_stimuli/000556_2014-06-09_22-42-56_260595134347_rgbf000214-resize_1/000556_2014-06-09_22-42-56_260595134347_rgbf000214-resize_1-target.png,250,4.8415,4,2813,250,feet,jsons/v1_VE250_randls_26.json,622959,804843,60,Man
29,505075,DepthScenes,duration_manipulation_targetAtFixation,jsons/v1_VE250_randls_26.json,http://54.235.29.9/FacialAge/BNav_EC2/DepthDuration/v2_depth_duration_MTurk/v2_DepthDuration_HTML.html#286,286,1536,722,1536,864,8-29-2022,14-25-1,30,depth_duration_stimuli/000375_2014-06-08_11-17-29_260595134347_rgbf000133-resize_2/000375_2014-06-08_11-17-29_260595134347_rgbf000133-resize-original.jpg,250,4.718,0,3845,255,feet,jsons/v1_VE250_randls_26.json,622959,804843,60,Man
30,505075,DepthScenes,duration_manipulation_targetAtFixation,jsons/v1_VE250_randls_26.json,http://54.235.29.9/FacialAge/BNav_EC2/DepthDuration/v2_depth_duration_MTurk/v2_DepthDuration_HTML.html#286,286,1536,722,1536,864,8-29-2022,14-25-1,31,depth_duration_stimuli/002445_2014-06-28_20-32-16_260595134347_rgbf000029-resize_4/002445_2014-06-28_20-32-16_260595134347_rgbf000029-resize_4-target.png,250,2.5315,3,2905,250,feet,jsons/v1_VE250_randls_26.json,622959,804843,60,Man
31,505075,DepthScenes,duration_manipulation_targetAtFixation,jsons/v1_VE250_randls_26.json,http://54.235.29.9/FacialAge/BNav_EC2/DepthDuration/v2_depth_duration_MTurk/v2_DepthDuration_HTML.html#286,286,1536,722,1536,864,8-29-2022,14-25-1,32,depth_duration_stimuli/000780_2014-06-08_22-28-29_260595134347_rgbf000126-resize_1/000780_2014-06-08_22-28-29_260595134347_rgbf000126-resize_1-target.png,250,3.3825,4,2328,249,feet,jsons/v1_VE250_randls_26.json,622959,804843,60,Man
32,505075,DepthScenes,duration_manipulation_targetAtFixation,jsons/v1_VE250_randls_26.json,http://54.235.29.9/FacialAge/BNav_EC2/DepthDuration/v2_depth_duration_MTurk/v2_DepthDuration_HTML.html#286,286,1536,722,1536,864,8-29-2022,14-25-1,33,depth_duration_stimuli/002788_2014-06-22_19-36-03_094959634447_rgbf000088-resize_2/002788_2014-06-22_19-36-03_094959634447_rgbf000088-resize_2-target.png,250,1.6465,4,5750,263,feet,jsons/v1_VE250_randls_26.json,622959,804843,60,Man
33,505075,DepthScenes,duration_manipulation_targetAtFixation,jsons/v1_VE250_randls_26.json,http://54.235.29.9/FacialAge/BNav_EC2/DepthDuration/v2_depth_duration_MTurk/v2_DepthDuration_HTML.html#286,286,1536,722,1536,864,8-29-2022,14-25-1,34,depth_duration_stimuli/000749_2014-06-08_21-55-06_260595134347_rgbf000070-resize_2/000749_2014-06-08_21-55-06_260595134347_rgbf000070-resize_2-target.png,250,2.331,5,3194,248,feet,jsons/v1_VE250_randls_26.json,622959,804843,60,Man
34,505075,DepthScenes,duration_manipulation_targetAtFixation,jsons/v1_VE250_randls_26.json,http://54.235.29.9/FacialAge/BNav_EC2/DepthDuration/v2_depth_duration_MTurk/v2_DepthDuration_HTML.html#286,286,1536,722,1536,864,8-29-2022,14-25-1,35,depth_duration_stimuli/002057_2014-06-24_21-00-13_260595134347_rgbf000120-resize_1/002057_2014-06-24_21-00-13_260595134347_rgbf000120-resize_1-target.png,250,2.967,5,2145,244,feet,jsons/v1_VE250_randls_26.json,622959,804843,60,Man
35,505075,DepthScenes,duration_manipulation_targetAtFixation,jsons/v1_VE250_randls_26.json,http://54.235.29.9/FacialAge/BNav_EC2/DepthDuration/v2_depth_duration_MTurk/v2_DepthDuration_HTML.html#286,286,1536,722,1536,864,8-29-2022,14-25-1,36,depth_duration_stimuli/000709_2014-06-08_13-51-55_260595134347_rgbf000068-resize_3/000709_2014-06-08_13-51-55_260595134347_rgbf000068-resize_3-target.png,250,1.8030000000000002,4,2107,250,feet,jsons/v1_VE250_randls_26.json,622959,804843,60,Man
36,505075,DepthScenes,duration_manipulation_targetAtFixation,jsons/v1_VE250_randls_26.json,http://54.235.29.9/FacialAge/BNav_EC2/DepthDuration/v2_depth_duration_MTurk/v2_DepthDuration_HTML.html#286,286,1536,722,1536,864,8-29-2022,14-25-1,37,depth_duration_stimuli/000906_2014-06-08_13-35-43_260595134347_rgbf000155-resize_1/000906_2014-06-08_13-35-43_260595134347_rgbf000155-resize_1-target.png,250,2.8489999999999998,5,4770,249,feet,jsons/v1_VE250_randls_26.json,622959,804843,60,Man
37,505075,DepthScenes,duration_manipulation_targetAtFixation,jsons/v1_VE250_randls_26.json,http://54.235.29.9/FacialAge/BNav_EC2/DepthDuration/v2_depth_duration_MTurk/v2_DepthDuration_HTML.html#286,286,1536,722,1536,864,8-29-2022,14-25-1,38,depth_duration_stimuli/002805_2014-06-22_19-54-03_094959634447_rgbf000079-resize_1/002805_2014-06-22_19-54-03_094959634447_rgbf000079-resize_1-target.png,250,3.1439999999999997,5,2420,251,feet,jsons/v1_VE250_randls_26.json,622959,804843,60,Man
38,505075,DepthScenes,duration_manipulation_targetAtFixation,jsons/v1_VE250_randls_26.json,http://54.235.29.9/FacialAge/BNav_EC2/DepthDuration/v2_depth_duration_MTurk/v2_DepthDuration_HTML.html#286,286,1536,722,1536,864,8-29-2022,14-25-1,39,depth_duration_stimuli/002725_2014-06-22_11-47-51_094959634447_rgbf000070-resize_1/002725_2014-06-22_11-47-51_094959634447_rgbf000070-resize_1-target.png,250,2.195,4,2133,247,feet,jsons/v1_VE250_randls_26.json,622959,804843,60,Man
39,505075,DepthScenes,duration_manipulation_targetAtFixation,jsons/v1_VE250_randls_26.json,http://54.235.29.9/FacialAge/BNav_EC2/DepthDuration/v2_depth_duration_MTurk/v2_DepthDuration_HTML.html#286,286,1536,722,1536,864,8-29-2022,14-25-1,40,depth_duration_stimuli/002344_2014-06-28_20-06-29_260595134347_rgbf000030-resize_1/002344_2014-06-28_20-06-29_260595134347_rgbf000030-resize_1-target.png,250,1.5795,2,2138,251,feet,jsons/v1_VE250_randls_26.json,622959,804843,60,Man
40,505075,DepthScenes,duration_manipulation_targetAtFixation,jsons/v1_VE250_randls_26.json,http://54.235.29.9/FacialAge/BNav_EC2/DepthDuration/v2_depth_duration_MTurk/v2_DepthDuration_HTML.html#286,286,1536,722,1536,864,8-29-2022,14-25-1,41,depth_duration_stimuli/002549_2014-06-24_13-41-39_094959634447_rgbf000022-resize_3/002549_2014-06-24_13-41-39_094959634447_rgbf000022-resize_3-target.png,250,1.476,3,2560,253,feet,jsons/v1_VE250_randls_26.json,622959,804843,60,Man
41,505075,DepthScenes,duration_manipulation_targetAtFixation,jsons/v1_VE250_randls_26.json,http://54.235.29.9/FacialAge/BNav_EC2/DepthDuration/v2_depth_duration_MTurk/v2_DepthDuration_HTML.html#286,286,1536,722,1536,864,8-29-2022,14-25-1,42,depth_duration_stimuli/002750_2014-06-22_19-08-03_094959634447_rgbf000094-resize_4/002750_2014-06-22_19-08-03_094959634447_rgbf000094-resize_4-target.png,250,2.354,3,3557,249,feet,jsons/v1_VE250_randls_26.json,622959,804843,60,Man
42,505075,DepthScenes,duration_manipulation_targetAtFixation,jsons/v1_VE250_randls_26.json,http://54.235.29.9/FacialAge/BNav_EC2/DepthDuration/v2_depth_duration_MTurk/v2_DepthDuration_HTML.html#286,286,1536,722,1536,864,8-29-2022,14-25-1,43,depth_duration_stimuli/003070_2014-06-15_14-58-27_094959634447_rgbf000150-resize_3/003070_2014-06-15_14-58-27_094959634447_rgbf000150-resize_3-target.png,250,2.9415,4,2298,252,feet,jsons/v1_VE250_randls_26.json,622959,804843,60,Man
43,505075,DepthScenes,duration_manipulation_targetAtFixation,jsons/v1_VE250_randls_26.json,http://54.235.29.9/FacialAge/BNav_EC2/DepthDuration/v2_depth_duration_MTurk/v2_DepthDuration_HTML.html#286,286,1536,722,1536,864,8-29-2022,14-25-1,44,depth_duration_stimuli/000943_2014-06-09_19-31-07_260595134347_rgbf000128-resize_1/000943_2014-06-09_19-31-07_260595134347_rgbf000128-resize_1-target.png,250,1.9765,3,2221,249,feet,jsons/v1_VE250_randls_26.json,622959,804843,60,Man
44,505075,DepthScenes,duration_manipulation_targetAtFixation,jsons/v1_VE250_randls_26.json,http://54.235.29.9/FacialAge/BNav_EC2/DepthDuration/v2_depth_duration_MTurk/v2_DepthDuration_HTML.html#286,286,1536,722,1536,864,8-29-2022,14-25-1,45,depth_duration_stimuli/000787_2014-06-08_22-33-53_260595134347_rgbf000175-resize_1/000787_2014-06-08_22-33-53_260595134347_rgbf000175-resize-original.jpg,250,4.784,0,8069,250,feet,jsons/v1_VE250_randls_26.json,622959,804843,60,Man
45,505075,DepthScenes,duration_manipulation_targetAtFixation,jsons/v1_VE250_randls_26.json,http://54.235.29.9/FacialAge/BNav_EC2/DepthDuration/v2_depth_duration_MTurk/v2_DepthDuration_HTML.html#286,286,1536,722,1536,864,8-29-2022,14-25-1,46,depth_duration_stimuli/001555_2014-06-20_17-12-10_260595134347_rgbf000065-resize_4/001555_2014-06-20_17-12-10_260595134347_rgbf000065-resize_4-target.png,250,1.633,2,3292,266,feet,jsons/v1_VE250_randls_26.json,622959,804843,60,Man
46,505075,DepthScenes,duration_manipulation_targetAtFixation,jsons/v1_VE250_randls_26.json,http://54.235.29.9/FacialAge/BNav_EC2/DepthDuration/v2_depth_duration_MTurk/v2_DepthDuration_HTML.html#286,286,1536,722,1536,864,8-29-2022,14-25-1,47,depth_duration_stimuli/000103_2014-05-14_22-01-17_260595134347_rgbf000152-resize_5/000103_2014-05-14_22-01-17_260595134347_rgbf000152-resize_5-target.png,250,1.993,4,2167,244,feet,jsons/v1_VE250_randls_26.json,622959,804843,60,Man
47,505075,DepthScenes,duration_manipulation_targetAtFixation,jsons/v1_VE250_randls_26.json,http://54.235.29.9/FacialAge/BNav_EC2/DepthDuration/v2_depth_duration_MTurk/v2_DepthDuration_HTML.html#286,286,1536,722,1536,864,8-29-2022,14-25-1,48,depth_duration_stimuli/002600_2014-06-24_14-27-04_094959634447_rgbf000074-resize_2/002600_2014-06-24_14-27-04_094959634447_rgbf000074-resize_2-target.png,250,2.7575,3,2112,247,feet,jsons/v1_VE250_randls_26.json,622959,804843,60,Man
48,505075,DepthScenes,duration_manipulation_targetAtFixation,jsons/v1_VE250_randls_26.json,http://54.235.29.9/FacialAge/BNav_EC2/DepthDuration/v2_depth_duration_MTurk/v2_DepthDuration_HTML.html#286,286,1536,722,1536,864,8-29-2022,14-25-1,49,depth_duration_stimuli/003228_2014-05-14_13-42-35_094959634447_rgbf000101-resize_1/003228_2014-05-14_13-42-35_094959634447_rgbf000101-resize_1-target.png,250,1.9680000000000002,4,2315,250,feet,jsons/v1_VE250_randls_26.json,622959,804843,60,Man
49,505075,DepthScenes,duration_manipulation_targetAtFixation,jsons/v1_VE250_randls_26.json,http://54.235.29.9/FacialAge/BNav_EC2/DepthDuration/v2_depth_duration_MTurk/v2_DepthDuration_HTML.html#286,286,1536,722,1536,864,8-29-2022,14-25-1,50,depth_duration_stimuli/002663_2014-06-13_15-50-26_094959634447_rgbf000075-resize_1/002663_2014-06-13_15-50-26_094959634447_rgbf000075-resize_1-target.png,250,4.7495,4,3276,257,feet,jsons/v1_VE250_randls_26.json,622959,804843,60,Man
50,505075,DepthScenes,duration_manipulation_targetAtFixation,jsons/v1_VE250_randls_26.json,http://54.235.29.9/FacialAge/BNav_EC2/DepthDuration/v2_depth_duration_MTurk/v2_DepthDuration_HTML.html#286,286,1536,722,1536,864,8-29-2022,14-25-1,51,depth_duration_stimuli/000409_2014-06-04_19-23-33_260595134347_rgbf000067-resize_0/000409_2014-06-04_19-23-33_260595134347_rgbf000067-resize_0-target.png,250,3.7335,3,2175,239,feet,jsons/v1_VE250_randls_26.json,622959,804843,60,Man
51,505075,DepthScenes,duration_manipulation_targetAtFixation,jsons/v1_VE250_randls_26.json,http://54.235.29.9/FacialAge/BNav_EC2/DepthDuration/v2_depth_duration_MTurk/v2_DepthDuration_HTML.html#286,286,1536,722,1536,864,8-29-2022,14-25-1,52,depth_duration_stimuli/000788_2014-06-08_22-34-36_260595134347_rgbf000131-resize_1/000788_2014-06-08_22-34-36_260595134347_rgbf000131-resize_1-target.png,250,3.359,3,2252,249,feet,jsons/v1_VE250_randls_26.json,622959,804843,60,Man
52,505075,DepthScenes,duration_manipulation_targetAtFixation,jsons/v1_VE250_randls_26.json,http://54.235.29.9/FacialAge/BNav_EC2/DepthDuration/v2_depth_duration_MTurk/v2_DepthDuration_HTML.html#286,286,1536,722,1536,864,8-29-2022,14-25-1,53,depth_duration_stimuli/001235_2014-06-17_16-37-36_260595134347_rgbf000084-resize_4/001235_2014-06-17_16-37-36_260595134347_rgbf000084-resize_4-target.png,250,3.6605,4,2522,250,feet,jsons/v1_VE250_randls_26.json,622959,804843,60,Man
53,505075,DepthScenes,duration_manipulation_targetAtFixation,jsons/v1_VE250_randls_26.json,http://54.235.29.9/FacialAge/BNav_EC2/DepthDuration/v2_depth_duration_MTurk/v2_DepthDuration_HTML.html#286,286,1536,722,1536,864,8-29-2022,14-25-1,54,depth_duration_stimuli/001810_2014-06-26_20-51-35_260595134347_rgbf000040-resize_3/001810_2014-06-26_20-51-35_260595134347_rgbf000040-resize_3-target.png,250,2.2525,3,3764,249,feet,jsons/v1_VE250_randls_26.json,622959,804843,60,Man
54,505075,DepthScenes,duration_manipulation_targetAtFixation,jsons/v1_VE250_randls_26.json,http://54.235.29.9/FacialAge/BNav_EC2/DepthDuration/v2_depth_duration_MTurk/v2_DepthDuration_HTML.html#286,286,1536,722,1536,864,8-29-2022,14-25-1,55,depth_duration_stimuli/003010_2014-06-15_12-54-35_094959634447_rgbf000112-resize_0/003010_2014-06-15_12-54-35_094959634447_rgbf000112-resize_0-target.png,250,3.1185,4,2429,261,feet,jsons/v1_VE250_randls_26.json,622959,804843,60,Man
55,505075,DepthScenes,duration_manipulation_targetAtFixation,jsons/v1_VE250_randls_26.json,http://54.235.29.9/FacialAge/BNav_EC2/DepthDuration/v2_depth_duration_MTurk/v2_DepthDuration_HTML.html#286,286,1536,722,1536,864,8-29-2022,14-25-1,56,depth_duration_stimuli/001570_2014-06-20_17-21-09_260595134347_rgbf000135-resize_4/001570_2014-06-20_17-21-09_260595134347_rgbf000135-resize_4-target.png,250,4.467,5,2889,250,feet,jsons/v1_VE250_randls_26.json,622959,804843,60,Man
56,505075,DepthScenes,duration_manipulation_targetAtFixation,jsons/v1_VE250_randls_26.json,http://54.235.29.9/FacialAge/BNav_EC2/DepthDuration/v2_depth_duration_MTurk/v2_DepthDuration_HTML.html#286,286,1536,722,1536,864,8-29-2022,14-25-1,57,depth_duration_stimuli/001392_2014-06-19_16-07-59_260595134347_rgbf000046-resize_1/001392_2014-06-19_16-07-59_260595134347_rgbf000046-resize_1-target.png,250,4.135,4,2940,251,feet,jsons/v1_VE250_randls_26.json,622959,804843,60,Man
57,505075,DepthScenes,duration_manipulation_targetAtFixation,jsons/v1_VE250_randls_26.json,http://54.235.29.9/FacialAge/BNav_EC2/DepthDuration/v2_depth_duration_MTurk/v2_DepthDuration_HTML.html#286,286,1536,722,1536,864,8-29-2022,14-25-1,58,depth_duration_stimuli/001133_2014-06-17_14-49-16_260595134347_rgbf000100-resize_0/001133_2014-06-17_14-49-16_260595134347_rgbf000100-resize_0-target.png,250,4.2115,5,5334,249,feet,jsons/v1_VE250_randls_26.json,622959,804843,60,Man
58,505075,DepthScenes,duration_manipulation_targetAtFixation,jsons/v1_VE250_randls_26.json,http://54.235.29.9/FacialAge/BNav_EC2/DepthDuration/v2_depth_duration_MTurk/v2_DepthDuration_HTML.html#286,286,1536,722,1536,864,8-29-2022,14-25-1,59,depth_duration_stimuli/001132_2014-06-17_14-48-54_260595134347_rgbf000100-resize_2/001132_2014-06-17_14-48-54_260595134347_rgbf000100-resize_2-target.png,250,3.753,4,36618,258,feet,jsons/v1_VE250_randls_26.json,622959,804843,60,Man
59,505075,DepthScenes,duration_manipulation_targetAtFixation,jsons/v1_VE250_randls_26.json,http://54.235.29.9/FacialAge/BNav_EC2/DepthDuration/v2_depth_duration_MTurk/v2_DepthDuration_HTML.html#286,286,1536,722,1536,864,8-29-2022,14-25-1,60,depth_duration_stimuli/002118_2014-06-25_20-32-08_260595134347_rgbf000078-resize_1/002118_2014-06-25_20-32-08_260595134347_rgbf000078-resize_1-target.png,250,2.6460000000000004,3,2804,248,feet,jsons/v1_VE250_randls_26.json,622959,804843,60,Man
60,505075,DepthScenes,duration_manipulation_targetAtFixation,jsons/v1_VE250_randls_26.json,http://54.235.29.9/FacialAge/BNav_EC2/DepthDuration/v2_depth_duration_MTurk/v2_DepthDuration_HTML.html#286,286,1536,722,1536,864,8-29-2022,14-25-1,61,depth_duration_stimuli/001516_2014-06-20_16-25-09_260595134347_rgbf000076-resize_2/001516_2014-06-20_16-25-09_260595134347_rgbf000076-resize_2-target.png,250,1.7445,4,2873,250,feet,jsons/v1_VE250_randls_26.json,622959,804843,60,Man
61,505075,DepthScenes,duration_manipulation_targetAtFixation,jsons/v1_VE250_randls_26.json,http://54.235.29.9/FacialAge/BNav_EC2/DepthDuration/v2_depth_duration_MTurk/v2_DepthDuration_HTML.html#286,286,1536,722,1536,864,8-29-2022,14-25-1,62,depth_duration_stimuli/001806_2014-06-26_20-50-20_260595134347_rgbf000091-resize_1/001806_2014-06-26_20-50-20_260595134347_rgbf000091-resize_1-target.png,250,2.7305,2,2107,250,feet,jsons/v1_VE250_randls_26.json,622959,804843,60,Man
62,505075,DepthScenes,duration_manipulation_targetAtFixation,jsons/v1_VE250_randls_26.json,http://54.235.29.9/FacialAge/BNav_EC2/DepthDuration/v2_depth_duration_MTurk/v2_DepthDuration_HTML.html#286,286,1536,722,1536,864,8-29-2022,14-25-1,63,depth_duration_stimuli/001617_2014-06-20_11-35-32_260595134347_rgbf000066-resize_1/001617_2014-06-20_11-35-32_260595134347_rgbf000066-resize_1-target.png,250,3.7910000000000004,4,2069,250,feet,jsons/v1_VE250_randls_26.json,622959,804843,60,Man
63,505075,DepthScenes,duration_manipulation_targetAtFixation,jsons/v1_VE250_randls_26.json,http://54.235.29.9/FacialAge/BNav_EC2/DepthDuration/v2_depth_duration_MTurk/v2_DepthDuration_HTML.html#286,286,1536,722,1536,864,8-29-2022,14-25-1,64,depth_duration_stimuli/001066_2014-06-08_22-03-20_260595134347_rgbf000066-resize_4/001066_2014-06-08_22-03-20_260595134347_rgbf000066-resize_4-target.png,250,4.2330000000000005,4,7163,248,feet,jsons/v1_VE250_randls_26.json,622959,804843,60,Man
64,505075,DepthScenes,duration_manipulation_targetAtFixation,jsons/v1_VE250_randls_26.json,http://54.235.29.9/FacialAge/BNav_EC2/DepthDuration/v2_depth_duration_MTurk/v2_DepthDuration_HTML.html#286,286,1536,722,1536,864,8-29-2022,14-25-1,65,depth_duration_stimuli/000742_2014-06-08_18-48-09_260595134347_rgbf000164-resize_4/000742_2014-06-08_18-48-09_260595134347_rgbf000164-resize_4-target.png,250,4.632,5,3917,249,feet,jsons/v1_VE250_randls_26.json,622959,804843,60,Man
65,505075,DepthScenes,duration_manipulation_targetAtFixation,jsons/v1_VE250_randls_26.json,http://54.235.29.9/FacialAge/BNav_EC2/DepthDuration/v2_depth_duration_MTurk/v2_DepthDuration_HTML.html#286,286,1536,722,1536,864,8-29-2022,14-25-1,66,depth_duration_stimuli/001222_2014-06-17_16-24-06_260595134347_rgbf000073-resize_0/001222_2014-06-17_16-24-06_260595134347_rgbf000073-resize-original.jpg,250,1.4385,4,4427,250,feet,jsons/v1_VE250_randls_26.json,622959,804843,60,Man
66,505075,DepthScenes,duration_manipulation_targetAtFixation,jsons/v1_VE250_randls_26.json,http://54.235.29.9/FacialAge/BNav_EC2/DepthDuration/v2_depth_duration_MTurk/v2_DepthDuration_HTML.html#286,286,1536,722,1536,864,8-29-2022,14-25-1,67,depth_duration_stimuli/001244_2014-06-17_16-47-45_260595134347_rgbf000030-resize_4/001244_2014-06-17_16-47-45_260595134347_rgbf000030-resize_4-target.png,250,2.0425,4,3557,261,feet,jsons/v1_VE250_randls_26.json,622959,804843,60,Man
67,505075,DepthScenes,duration_manipulation_targetAtFixation,jsons/v1_VE250_randls_26.json,http://54.235.29.9/FacialAge/BNav_EC2/DepthDuration/v2_depth_duration_MTurk/v2_DepthDuration_HTML.html#286,286,1536,722,1536,864,8-29-2022,14-25-1,68,depth_duration_stimuli/003495_2014-05-21_16-01-51_094959634447_rgbf000100-resize_3/003495_2014-05-21_16-01-51_094959634447_rgbf000100-resize_3-target.png,250,1.6255,2,2256,252,feet,jsons/v1_VE250_randls_26.json,622959,804843,60,Man
68,505075,DepthScenes,duration_manipulation_targetAtFixation,jsons/v1_VE250_randls_26.json,http://54.235.29.9/FacialAge/BNav_EC2/DepthDuration/v2_depth_duration_MTurk/v2_DepthDuration_HTML.html#286,286,1536,722,1536,864,8-29-2022,14-25-1,69,depth_duration_stimuli/000522_2014-06-08_13-35-06_260595134347_rgbf000244-resize_1/000522_2014-06-08_13-35-06_260595134347_rgbf000244-resize_1-target.png,250,2.3715,3,2078,261,feet,jsons/v1_VE250_randls_26.json,622959,804843,60,Man
69,505075,DepthScenes,duration_manipulation_targetAtFixation,jsons/v1_VE250_randls_26.json,http://54.235.29.9/FacialAge/BNav_EC2/DepthDuration/v2_depth_duration_MTurk/v2_DepthDuration_HTML.html#286,286,1536,722,1536,864,8-29-2022,14-25-1,70,depth_duration_stimuli/002949_2014-06-26_15-57-42_094959634447_rgbf000079-resize_1/002949_2014-06-26_15-57-42_094959634447_rgbf000079-resize_1-target.png,250,1.8915,4,2237,252,feet,jsons/v1_VE250_randls_26.json,622959,804843,60,Man
70,505075,DepthScenes,duration_manipulation_targetAtFixation,jsons/v1_VE250_randls_26.json,http://54.235.29.9/FacialAge/BNav_EC2/DepthDuration/v2_depth_duration_MTurk/v2_DepthDuration_HTML.html#286,286,1536,722,1536,864,8-29-2022,14-25-1,71,depth_duration_stimuli/001167_2014-06-17_15-38-07_260595134347_rgbf000108-resize_0/001167_2014-06-17_15-38-07_260595134347_rgbf000108-resize_0-target.png,250,1.8505,3,2184,258,feet,jsons/v1_VE250_randls_26.json,622959,804843,60,Man
71,505075,DepthScenes,duration_manipulation_targetAtFixation,jsons/v1_VE250_randls_26.json,http://54.235.29.9/FacialAge/BNav_EC2/DepthDuration/v2_depth_duration_MTurk/v2_DepthDuration_HTML.html#286,286,1536,722,1536,864,8-29-2022,14-25-1,72,depth_duration_stimuli/003587_2014-05-23_16-48-02_094959634447_rgbf002384-resize_2/003587_2014-05-23_16-48-02_094959634447_rgbf002384-resize_2-target.png,250,1.357,2,2261,263,feet,jsons/v1_VE250_randls_26.json,622959,804843,60,Man
72,505075,DepthScenes,duration_manipulation_targetAtFixation,jsons/v1_VE250_randls_26.json,http://54.235.29.9/FacialAge/BNav_EC2/DepthDuration/v2_depth_duration_MTurk/v2_DepthDuration_HTML.html#286,286,1536,722,1536,864,8-29-2022,14-25-1,73,depth_duration_stimuli/000773_2014-06-08_22-24-54_260595134347_rgbf000093-resize_1/000773_2014-06-08_22-24-54_260595134347_rgbf000093-resize_1-target.png,250,4.973,5,3277,247,feet,jsons/v1_VE250_randls_26.json,622959,804843,60,Man
73,505075,DepthScenes,duration_manipulation_targetAtFixation,jsons/v1_VE250_randls_26.json,http://54.235.29.9/FacialAge/BNav_EC2/DepthDuration/v2_depth_duration_MTurk/v2_DepthDuration_HTML.html#286,286,1536,722,1536,864,8-29-2022,14-25-1,74,depth_duration_stimuli/002414_2014-06-28_20-24-58_260595134347_rgbf000067-resize_4/002414_2014-06-28_20-24-58_260595134347_rgbf000067-resize_4-target.png,250,4.363,4,2287,249,feet,jsons/v1_VE250_randls_26.json,622959,804843,60,Man
74,505075,DepthScenes,duration_manipulation_targetAtFixation,jsons/v1_VE250_randls_26.json,http://54.235.29.9/FacialAge/BNav_EC2/DepthDuration/v2_depth_duration_MTurk/v2_DepthDuration_HTML.html#286,286,1536,722,1536,864,8-29-2022,14-25-1,75,depth_duration_stimuli/000414_2014-06-04_19-49-13_260595134347_rgbf000044-resize_0/000414_2014-06-04_19-49-13_260595134347_rgbf000044-resize_0-target.png,250,4.329,5,2923,250,feet,jsons/v1_VE250_randls_26.json,622959,804843,60,Man
75,505075,DepthScenes,duration_manipulation_targetAtFixation,jsons/v1_VE250_randls_26.json,http://54.235.29.9/FacialAge/BNav_EC2/DepthDuration/v2_depth_duration_MTurk/v2_DepthDuration_HTML.html#286,286,1536,722,1536,864,8-29-2022,14-25-1,76,depth_duration_stimuli/003129_2014-05-12_10-48-10_094959634447_rgbf000100-resize_0/003129_2014-05-12_10-48-10_094959634447_rgbf000100-resize_0-target.png,250,4.9305,5,2065,249,feet,jsons/v1_VE250_randls_26.json,622959,804843,60,Man
76,505075,DepthScenes,duration_manipulation_targetAtFixation,jsons/v1_VE250_randls_26.json,http://54.235.29.9/FacialAge/BNav_EC2/DepthDuration/v2_depth_duration_MTurk/v2_DepthDuration_HTML.html#286,286,1536,722,1536,864,8-29-2022,14-25-1,77,depth_duration_stimuli/000739_2014-06-08_18-45-58_260595134347_rgbf000068-resize_1/000739_2014-06-08_18-45-58_260595134347_rgbf000068-resize_1-target.png,250,3.534,4,4780,249,feet,jsons/v1_VE250_randls_26.json,622959,804843,60,Man
77,505075,DepthScenes,duration_manipulation_targetAtFixation,jsons/v1_VE250_randls_26.json,http://54.235.29.9/FacialAge/BNav_EC2/DepthDuration/v2_depth_duration_MTurk/v2_DepthDuration_HTML.html#286,286,1536,722,1536,864,8-29-2022,14-25-1,78,depth_duration_stimuli/000734_2014-06-08_17-39-11_260595134347_rgbf000128-resize_2/000734_2014-06-08_17-39-11_260595134347_rgbf000128-resize_2-target.png,250,4.098,5,2222,246,feet,jsons/v1_VE250_randls_26.json,622959,804843,60,Man
78,505075,DepthScenes,duration_manipulation_targetAtFixation,jsons/v1_VE250_randls_26.json,http://54.235.29.9/FacialAge/BNav_EC2/DepthDuration/v2_depth_duration_MTurk/v2_DepthDuration_HTML.html#286,286,1536,722,1536,864,8-29-2022,14-25-1,79,depth_duration_stimuli/000469_2014-06-09_19-42-10_260595134347_rgbf000081-resize_1/000469_2014-06-09_19-42-10_260595134347_rgbf000081-resize_1-target.png,250,1.652,2,4302,218,feet,jsons/v1_VE250_randls_26.json,622959,804843,60,Man
79,505075,DepthScenes,duration_manipulation_targetAtFixation,jsons/v1_VE250_randls_26.json,http://54.235.29.9/FacialAge/BNav_EC2/DepthDuration/v2_depth_duration_MTurk/v2_DepthDuration_HTML.html#286,286,1536,722,1536,864,8-29-2022,14-25-1,80,depth_duration_stimuli/000483_2014-06-09_20-41-45_260595134347_rgbf000116-resize_4/000483_2014-06-09_20-41-45_260595134347_rgbf000116-resize_4-target.png,250,1.337,3,2513,251,feet,jsons/v1_VE250_randls_26.json,622959,804843,60,Man
80,505075,DepthScenes,duration_manipulation_targetAtFixation,jsons/v1_VE250_randls_26.json,http://54.235.29.9/FacialAge/BNav_EC2/DepthDuration/v2_depth_duration_MTurk/v2_DepthDuration_HTML.html#286,286,1536,722,1536,864,8-29-2022,14-25-1,81,depth_duration_stimuli/003534_2014-05-22_15-06-10_094959634447_rgbf000102-resize_4/003534_2014-05-22_15-06-10_094959634447_rgbf000102-resize_4-target.png,250,1.426,2,2164,252,feet,jsons/v1_VE250_randls_26.json,622959,804843,60,Man
81,505075,DepthScenes,duration_manipulation_targetAtFixation,jsons/v1_VE250_randls_26.json,http://54.235.29.9/FacialAge/BNav_EC2/DepthDuration/v2_depth_duration_MTurk/v2_DepthDuration_HTML.html#286,286,1536,722,1536,864,8-29-2022,14-25-1,82,depth_duration_stimuli/002637_2014-06-24_14-51-13_094959634447_rgbf000066-resize_4/002637_2014-06-24_14-51-13_094959634447_rgbf000066-resize_4-target.png,250,1.9955,4,2196,253,feet,jsons/v1_VE250_randls_26.json,622959,804843,60,Man
82,505075,DepthScenes,duration_manipulation_targetAtFixation,jsons/v1_VE250_randls_26.json,http://54.235.29.9/FacialAge/BNav_EC2/DepthDuration/v2_depth_duration_MTurk/v2_DepthDuration_HTML.html#286,286,1536,722,1536,864,8-29-2022,14-25-1,83,depth_duration_stimuli/000642_2014-06-08_16-59-25_260595134347_rgbf000098-resize_2/000642_2014-06-08_16-59-25_260595134347_rgbf000098-resize_2-target.png,250,2.8815,4,2060,257,feet,jsons/v1_VE250_randls_26.json,622959,804843,60,Man
83,505075,DepthScenes,duration_manipulation_targetAtFixation,jsons/v1_VE250_randls_26.json,http://54.235.29.9/FacialAge/BNav_EC2/DepthDuration/v2_depth_duration_MTurk/v2_DepthDuration_HTML.html#286,286,1536,722,1536,864,8-29-2022,14-25-1,84,depth_duration_stimuli/002425_2014-06-28_20-27-29_260595134347_rgbf000031-resize_8/002425_2014-06-28_20-27-29_260595134347_rgbf000031-resize_8-target.png,250,3.8960000000000004,4,2212,248,feet,jsons/v1_VE250_randls_26.json,622959,804843,60,Man
84,505075,DepthScenes,duration_manipulation_targetAtFixation,jsons/v1_VE250_randls_26.json,http://54.235.29.9/FacialAge/BNav_EC2/DepthDuration/v2_depth_duration_MTurk/v2_DepthDuration_HTML.html#286,286,1536,722,1536,864,8-29-2022,14-25-1,85,depth_duration_stimuli/001011_2014-06-08_23-18-54_260595134347_rgbf000044-resize_4/001011_2014-06-08_23-18-54_260595134347_rgbf000044-resize_4-target.png,250,2.4730000000000003,4,2819,247,feet,jsons/v1_VE250_randls_26.json,622959,804843,60,Man
85,505075,DepthScenes,duration_manipulation_targetAtFixation,jsons/v1_VE250_randls_26.json,http://54.235.29.9/FacialAge/BNav_EC2/DepthDuration/v2_depth_duration_MTurk/v2_DepthDuration_HTML.html#286,286,1536,722,1536,864,8-29-2022,14-25-1,86,depth_duration_stimuli/002875_2014-06-01_15-19-00_094959634447_rgbf000151-resize_1/002875_2014-06-01_15-19-00_094959634447_rgbf000151-resize_1-target.png,250,1.9675,4,2155,251,feet,jsons/v1_VE250_randls_26.json,622959,804843,60,Man
86,505075,DepthScenes,duration_manipulation_targetAtFixation,jsons/v1_VE250_randls_26.json,http://54.235.29.9/FacialAge/BNav_EC2/DepthDuration/v2_depth_duration_MTurk/v2_DepthDuration_HTML.html#286,286,1536,722,1536,864,8-29-2022,14-25-1,87,depth_duration_stimuli/001092_2014-06-15_17-34-58_260595134347_rgbf000171-resize_3/001092_2014-06-15_17-34-58_260595134347_rgbf000171-resize_3-target.png,250,2.6935,4,2328,237,feet,jsons/v1_VE250_randls_26.json,622959,804843,60,Man
87,505075,DepthScenes,duration_manipulation_targetAtFixation,jsons/v1_VE250_randls_26.json,http://54.235.29.9/FacialAge/BNav_EC2/DepthDuration/v2_depth_duration_MTurk/v2_DepthDuration_HTML.html#286,286,1536,722,1536,864,8-29-2022,14-25-1,88,depth_duration_stimuli/002545_2014-06-24_13-38-53_094959634447_rgbf000080-resize_4/002545_2014-06-24_13-38-53_094959634447_rgbf000080-resize_4-target.png,250,1.9205,4,2493,254,feet,jsons/v1_VE250_randls_26.json,622959,804843,60,Man
88,505075,DepthScenes,duration_manipulation_targetAtFixation,jsons/v1_VE250_randls_26.json,http://54.235.29.9/FacialAge/BNav_EC2/DepthDuration/v2_depth_duration_MTurk/v2_DepthDuration_HTML.html#286,286,1536,722,1536,864,8-29-2022,14-25-1,89,depth_duration_stimuli/002375_2014-06-28_20-13-44_260595134347_rgbf000032-resize_1/002375_2014-06-28_20-13-44_260595134347_rgbf000032-resize_1-target.png,250,4.0175,4,23028,250,feet,jsons/v1_VE250_randls_26.json,622959,804843,60,Man
89,505075,DepthScenes,duration_manipulation_targetAtFixation,jsons/v1_VE250_randls_26.json,http://54.235.29.9/FacialAge/BNav_EC2/DepthDuration/v2_depth_duration_MTurk/v2_DepthDuration_HTML.html#286,286,1536,722,1536,864,8-29-2022,14-25-1,90,depth_duration_stimuli/002657_2014-06-13_15-29-54_094959634447_rgbf000150-resize_1/002657_2014-06-13_15-29-54_094959634447_rgbf000150-resize_1-target.png,250,4.919,5,2353,240,feet,jsons/v1_VE250_randls_26.json,622959,804843,60,Man
90,505075,DepthScenes,duration_manipulation_targetAtFixation,jsons/v1_VE250_randls_26.json,http://54.235.29.9/FacialAge/BNav_EC2/DepthDuration/v2_depth_duration_MTurk/v2_DepthDuration_HTML.html#286,286,1536,722,1536,864,8-29-2022,14-25-1,91,depth_duration_stimuli/000682_2014-06-08_23-14-58_260595134347_rgbf000041-resize_5/000682_2014-06-08_23-14-58_260595134347_rgbf000041-resize_5-target.png,250,2.7239999999999998,4,2376,263,feet,jsons/v1_VE250_randls_26.json,622959,804843,60,Man
91,505075,DepthScenes,duration_manipulation_targetAtFixation,jsons/v1_VE250_randls_26.json,http://54.235.29.9/FacialAge/BNav_EC2/DepthDuration/v2_depth_duration_MTurk/v2_DepthDuration_HTML.html#286,286,1536,722,1536,864,8-29-2022,14-25-1,92,depth_duration_stimuli/001650_2014-06-20_12-09-00_260595134347_rgbf000087-resize_3/001650_2014-06-20_12-09-00_260595134347_rgbf000087-resize_3-target.png,250,1.9505,2,2190,253,feet,jsons/v1_VE250_randls_26.json,622959,804843,60,Man
92,505075,DepthScenes,duration_manipulation_targetAtFixation,jsons/v1_VE250_randls_26.json,http://54.235.29.9/FacialAge/BNav_EC2/DepthDuration/v2_depth_duration_MTurk/v2_DepthDuration_HTML.html#286,286,1536,722,1536,864,8-29-2022,14-25-1,93,depth_duration_stimuli/003292_2014-05-14_21-53-49_094959634447_rgbf000100-resize_2/003292_2014-05-14_21-53-49_094959634447_rgbf000100-resize_2-target.png,250,3.4815,4,2474,250,feet,jsons/v1_VE250_randls_26.json,622959,804843,60,Man
93,505075,DepthScenes,duration_manipulation_targetAtFixation,jsons/v1_VE250_randls_26.json,http://54.235.29.9/FacialAge/BNav_EC2/DepthDuration/v2_depth_duration_MTurk/v2_DepthDuration_HTML.html#286,286,1536,722,1536,864,8-29-2022,14-25-1,94,depth_duration_stimuli/002639_2014-06-24_14-51-37_094959634447_rgbf000074-resize_4/002639_2014-06-24_14-51-37_094959634447_rgbf000074-resize_4-target.png,250,4.0375,4,3094,252,feet,jsons/v1_VE250_randls_26.json,622959,804843,60,Man
94,505075,DepthScenes,duration_manipulation_targetAtFixation,jsons/v1_VE250_randls_26.json,http://54.235.29.9/FacialAge/BNav_EC2/DepthDuration/v2_depth_duration_MTurk/v2_DepthDuration_HTML.html#286,286,1536,722,1536,864,8-29-2022,14-25-1,95,depth_duration_stimuli/000486_2014-06-09_20-47-20_260595134347_rgbf000143-resize_2/000486_2014-06-09_20-47-20_260595134347_rgbf000143-resize_2-target.png,250,4.8325,5,2208,241,feet,jsons/v1_VE250_randls_26.json,622959,804843,60,Man
95,505075,DepthScenes,duration_manipulation_targetAtFixation,jsons/v1_VE250_randls_26.json,http://54.235.29.9/FacialAge/BNav_EC2/DepthDuration/v2_depth_duration_MTurk/v2_DepthDuration_HTML.html#286,286,1536,722,1536,864,8-29-2022,14-25-1,96,depth_duration_stimuli/003083_2014-06-15_15-21-03_094959634447_rgbf000063-resize_1/003083_2014-06-15_15-21-03_094959634447_rgbf000063-resize_1-target.png,250,4.1405,5,2098,257,feet,jsons/v1_VE250_randls_26.json,622959,804843,60,Man
96,505075,DepthScenes,duration_manipulation_targetAtFixation,jsons/v1_VE250_randls_26.json,http://54.235.29.9/FacialAge/BNav_EC2/DepthDuration/v2_depth_duration_MTurk/v2_DepthDuration_HTML.html#286,286,1536,722,1536,864,8-29-2022,14-25-1,97,depth_duration_stimuli/001175_2014-06-17_15-45-55_260595134347_rgbf000129-resize_4/001175_2014-06-17_15-45-55_260595134347_rgbf000129-resize_4-target.png,250,4.255,5,2256,261,feet,jsons/v1_VE250_randls_26.json,622959,804843,60,Man
97,505075,DepthScenes,duration_manipulation_targetAtFixation,jsons/v1_VE250_randls_26.json,http://54.235.29.9/FacialAge/BNav_EC2/DepthDuration/v2_depth_duration_MTurk/v2_DepthDuration_HTML.html#286,286,1536,722,1536,864,8-29-2022,14-25-1,98,depth_duration_stimuli/003490_2014-05-21_15-50-11_094959634447_rgbf000101-resize_3/003490_2014-05-21_15-50-11_094959634447_rgbf000101-resize_3-target.png,250,3.6445,4,2247,252,feet,jsons/v1_VE250_randls_26.json,622959,804843,60,Man
98,505075,DepthScenes,duration_manipulation_targetAtFixation,jsons/v1_VE250_randls_26.json,http://54.235.29.9/FacialAge/BNav_EC2/DepthDuration/v2_depth_duration_MTurk/v2_DepthDuration_HTML.html#286,286,1536,722,1536,864,8-29-2022,14-25-1,99,depth_duration_stimuli/001540_2014-06-20_17-01-05_260595134347_rgbf000086-resize_2/001540_2014-06-20_17-01-05_260595134347_rgbf000086-resize-original.jpg,250,1.459,0,3645,240,feet,jsons/v1_VE250_randls_26.json,622959,804843,60,Man
99,505075,DepthScenes,duration_manipulation_targetAtFixation,jsons/v1_VE250_randls_26.json,http://54.235.29.9/FacialAge/BNav_EC2/DepthDuration/v2_depth_duration_MTurk/v2_DepthDuration_HTML.html#286,286,1536,722,1536,864,8-29-2022,14-25-1,100,depth_duration_stimuli/001808_2014-06-26_20-50-58_260595134347_rgbf000029-resize_1/001808_2014-06-26_20-50-58_260595134347_rgbf000029-resize_1-target.png,250,4.249,5,2282,241,feet,jsons/v1_VE250_randls_26.json,622959,804843,60,Man
100,505075,DepthScenes,duration_manipulation_targetAtFixation,jsons/v1_VE250_randls_26.json,http://54.235.29.9/FacialAge/BNav_EC2/DepthDuration/v2_depth_duration_MTurk/v2_DepthDuration_HTML.html#286,286,1536,722,1536,864,8-29-2022,14-25-1,101,depth_duration_stimuli/001815_2014-06-26_20-52-55_260595134347_rgbf000020-resize_0/001815_2014-06-26_20-52-55_260595134347_rgbf000020-resize_0-target.png,250,3.3865,4,2367,280,feet,jsons/v1_VE250_randls_26.json,622959,804843,60,Man
101,505075,DepthScenes,duration_manipulation_targetAtFixation,jsons/v1_VE250_randls_26.json,http://54.235.29.9/FacialAge/BNav_EC2/DepthDuration/v2_depth_duration_MTurk/v2_DepthDuration_HTML.html#286,286,1536,722,1536,864,8-29-2022,14-25-1,102,depth_duration_stimuli/003492_2014-05-21_15-50-55_094959634447_rgbf000828-resize_1/003492_2014-05-21_15-50-55_094959634447_rgbf000828-resize_1-target.png,250,4.06875,5,2657,252,feet,jsons/v1_VE250_randls_26.json,622959,804843,60,Man
102,505075,DepthScenes,duration_manipulation_targetAtFixation,jsons/v1_VE250_randls_26.json,http://54.235.29.9/FacialAge/BNav_EC2/DepthDuration/v2_depth_duration_MTurk/v2_DepthDuration_HTML.html#286,286,1536,722,1536,864,8-29-2022,14-25-1,103,depth_duration_stimuli/002568_2014-06-24_13-59-21_094959634447_rgbf000062-resize_4/002568_2014-06-24_13-59-21_094959634447_rgbf000062-resize_4-target.png,250,3.015,4,2478,247,feet,jsons/v1_VE250_randls_26.json,622959,804843,60,Man
103,505075,DepthScenes,duration_manipulation_targetAtFixation,jsons/v1_VE250_randls_26.json,http://54.235.29.9/FacialAge/BNav_EC2/DepthDuration/v2_depth_duration_MTurk/v2_DepthDuration_HTML.html#286,286,1536,722,1536,864,8-29-2022,14-25-1,104,depth_duration_stimuli/003621_2014-05-23_18-06-08_094959634447_rgbf000101-resize_1/003621_2014-05-23_18-06-08_094959634447_rgbf000101-resize_1-target.png,250,3.9835,4,3353,262,feet,jsons/v1_VE250_randls_26.json,622959,804843,60,Man
104,505075,DepthScenes,duration_manipulation_targetAtFixation,jsons/v1_VE250_randls_26.json,http://54.235.29.9/FacialAge/BNav_EC2/DepthDuration/v2_depth_duration_MTurk/v2_DepthDuration_HTML.html#286,286,1536,722,1536,864,8-29-2022,14-25-1,105,depth_duration_stimuli/001584_2014-06-20_11-07-43_260595134347_rgbf000002-resize_1/001584_2014-06-20_11-07-43_260595134347_rgbf000002-resize_1-target.png,250,3.53,5,2795,249,feet,jsons/v1_VE250_randls_26.json,622959,804843,60,Man
105,505075,DepthScenes,duration_manipulation_targetAtFixation,jsons/v1_VE250_randls_26.json,http://54.235.29.9/FacialAge/BNav_EC2/DepthDuration/v2_depth_duration_MTurk/v2_DepthDuration_HTML.html#286,286,1536,722,1536,864,8-29-2022,14-25-1,106,depth_duration_stimuli/001059_2014-06-08_21-53-27_260595134347_rgbf000061-resize_4/001059_2014-06-08_21-53-27_260595134347_rgbf000061-resize_4-target.png,250,2.4185,4,2680,245,feet,jsons/v1_VE250_randls_26.json,622959,804843,60,Man
106,505075,DepthScenes,duration_manipulation_targetAtFixation,jsons/v1_VE250_randls_26.json,http://54.235.29.9/FacialAge/BNav_EC2/DepthDuration/v2_depth_duration_MTurk/v2_DepthDuration_HTML.html#286,286,1536,722,1536,864,8-29-2022,14-25-1,107,depth_duration_stimuli/001032_2014-06-08_13-23-17_260595134347_rgbf000021-resize_3/001032_2014-06-08_13-23-17_260595134347_rgbf000021-resize_3-target.png,250,3.2725,4,2412,244,feet,jsons/v1_VE250_randls_26.json,622959,804843,60,Man
107,505075,DepthScenes,duration_manipulation_targetAtFixation,jsons/v1_VE250_randls_26.json,http://54.235.29.9/FacialAge/BNav_EC2/DepthDuration/v2_depth_duration_MTurk/v2_DepthDuration_HTML.html#286,286,1536,722,1536,864,8-29-2022,14-25-1,108,depth_duration_stimuli/002748_2014-06-22_19-07-22_094959634447_rgbf000078-resize_1/002748_2014-06-22_19-07-22_094959634447_rgbf000078-resize_1-target.png,250,4.6705,5,3009,263,feet,jsons/v1_VE250_randls_26.json,622959,804843,60,Man
108,505075,DepthScenes,duration_manipulation_targetAtFixation,jsons/v1_VE250_randls_26.json,http://54.235.29.9/FacialAge/BNav_EC2/DepthDuration/v2_depth_duration_MTurk/v2_DepthDuration_HTML.html#286,286,1536,722,1536,864,8-29-2022,14-25-1,109,depth_duration_stimuli/002995_2014-06-15_12-31-26_094959634447_rgbf000150-resize_1/002995_2014-06-15_12-31-26_094959634447_rgbf000150-resize_1-target.png,250,3.8360000000000003,4,2261,250,feet,jsons/v1_VE250_randls_26.json,622959,804843,60,Man
109,505075,DepthScenes,duration_manipulation_targetAtFixation,jsons/v1_VE250_randls_26.json,http://54.235.29.9/FacialAge/BNav_EC2/DepthDuration/v2_depth_duration_MTurk/v2_DepthDuration_HTML.html#286,286,1536,722,1536,864,8-29-2022,14-25-1,110,depth_duration_stimuli/002763_2014-06-22_19-13-10_094959634447_rgbf000075-resize_4/002763_2014-06-22_19-13-10_094959634447_rgbf000075-resize_4-target.png,250,1.68375,4,3450,246,feet,jsons/v1_VE250_randls_26.json,622959,804843,60,Man
110,505075,DepthScenes,duration_manipulation_targetAtFixation,jsons/v1_VE250_randls_26.json,http://54.235.29.9/FacialAge/BNav_EC2/DepthDuration/v2_depth_duration_MTurk/v2_DepthDuration_HTML.html#286,286,1536,722,1536,864,8-29-2022,14-25-1,111,depth_duration_stimuli/002209_2014-06-28_18-36-10_260595134347_rgbf000051-resize_1/002209_2014-06-28_18-36-10_260595134347_rgbf000051-resize_1-target.png,250,2.057,3,2433,242,feet,jsons/v1_VE250_randls_26.json,622959,804843,60,Man
111,505075,DepthScenes,duration_manipulation_targetAtFixation,jsons/v1_VE250_randls_26.json,http://54.235.29.9/FacialAge/BNav_EC2/DepthDuration/v2_depth_duration_MTurk/v2_DepthDuration_HTML.html#286,286,1536,722,1536,864,8-29-2022,14-25-1,112,depth_duration_stimuli/001417_2014-06-19_16-25-36_260595134347_rgbf000115-resize_5/001417_2014-06-19_16-25-36_260595134347_rgbf000115-resize_5-target.png,250,4.6255,5,3169,254,feet,jsons/v1_VE250_randls_26.json,622959,804843,60,Man
112,505075,DepthScenes,duration_manipulation_targetAtFixation,jsons/v1_VE250_randls_26.json,http://54.235.29.9/FacialAge/BNav_EC2/DepthDuration/v2_depth_duration_MTurk/v2_DepthDuration_HTML.html#286,286,1536,722,1536,864,8-29-2022,14-25-1,113,depth_duration_stimuli/003081_2014-06-15_15-19-16_094959634447_rgbf000150-resize_1/003081_2014-06-15_15-19-16_094959634447_rgbf000150-resize_1-target.png,250,3.9125,4,2603,252,feet,jsons/v1_VE250_randls_26.json,622959,804843,60,Man
113,505075,DepthScenes,duration_manipulation_targetAtFixation,jsons/v1_VE250_randls_26.json,http://54.235.29.9/FacialAge/BNav_EC2/DepthDuration/v2_depth_duration_MTurk/v2_DepthDuration_HTML.html#286,286,1536,722,1536,864,8-29-2022,14-25-1,114,depth_duration_stimuli/001056_2014-06-08_18-46-44_260595134347_rgbf000068-resize_0/001056_2014-06-08_18-46-44_260595134347_rgbf000068-resize_0-target.png,250,2.6625,3,2355,257,feet,jsons/v1_VE250_randls_26.json,622959,804843,60,Man
114,505075,DepthScenes,duration_manipulation_targetAtFixation,jsons/v1_VE250_randls_26.json,http://54.235.29.9/FacialAge/BNav_EC2/DepthDuration/v2_depth_duration_MTurk/v2_DepthDuration_HTML.html#286,286,1536,722,1536,864,8-29-2022,14-25-1,115,depth_duration_stimuli/002199_2014-06-28_18-33-56_260595134347_rgbf000074-resize_0/002199_2014-06-28_18-33-56_260595134347_rgbf000074-resize_0-target.png,250,1.996,2,2482,241,feet,jsons/v1_VE250_randls_26.json,622959,804843,60,Man
115,505075,DepthScenes,duration_manipulation_targetAtFixation,jsons/v1_VE250_randls_26.json,http://54.235.29.9/FacialAge/BNav_EC2/DepthDuration/v2_depth_duration_MTurk/v2_DepthDuration_HTML.html#286,286,1536,722,1536,864,8-29-2022,14-25-1,116,depth_duration_stimuli/001170_2014-06-17_15-43-44_260595134347_rgbf000096-resize_6/001170_2014-06-17_15-43-44_260595134347_rgbf000096-resize-original.jpg,250,1.1909999999999998,0,3290,252,feet,jsons/v1_VE250_randls_26.json,622959,804843,60,Man
116,505075,DepthScenes,duration_manipulation_targetAtFixation,jsons/v1_VE250_randls_26.json,http://54.235.29.9/FacialAge/BNav_EC2/DepthDuration/v2_depth_duration_MTurk/v2_DepthDuration_HTML.html#286,286,1536,722,1536,864,8-29-2022,14-25-1,117,depth_duration_stimuli/001199_2014-06-17_16-03-48_260595134347_rgbf000077-resize_0/001199_2014-06-17_16-03-48_260595134347_rgbf000077-resize_0-target.png,250,3.4375,3,2508,258,feet,jsons/v1_VE250_randls_26.json,622959,804843,60,Man
117,505075,DepthScenes,duration_manipulation_targetAtFixation,jsons/v1_VE250_randls_26.json,http://54.235.29.9/FacialAge/BNav_EC2/DepthDuration/v2_depth_duration_MTurk/v2_DepthDuration_HTML.html#286,286,1536,722,1536,864,8-29-2022,14-25-1,118,depth_duration_stimuli/000502_2014-06-08_23-02-32_260595134347_rgbf000063-resize_4/000502_2014-06-08_23-02-32_260595134347_rgbf000063-resize_4-target.png,250,2.431,4,3281,264,feet,jsons/v1_VE250_randls_26.json,622959,804843,60,Man
118,505075,DepthScenes,duration_manipulation_targetAtFixation,jsons/v1_VE250_randls_26.json,http://54.235.29.9/FacialAge/BNav_EC2/DepthDuration/v2_depth_duration_MTurk/v2_DepthDuration_HTML.html#286,286,1536,722,1536,864,8-29-2022,14-25-1,119,depth_duration_stimuli/000506_2014-06-08_23-21-00_260595134347_rgbf000070-resize_7/000506_2014-06-08_23-21-00_260595134347_rgbf000070-resize_7-target.png,250,4.0585,4,2320,249,feet,jsons/v1_VE250_randls_26.json,622959,804843,60,Man
119,505075,DepthScenes,duration_manipulation_targetAtFixation,jsons/v1_VE250_randls_26.json,http://54.235.29.9/FacialAge/BNav_EC2/DepthDuration/v2_depth_duration_MTurk/v2_DepthDuration_HTML.html#286,286,1536,722,1536,864,8-29-2022,14-25-1,120,depth_duration_stimuli/003079_2014-06-15_15-18-20_094959634447_rgbf000152-resize_8/003079_2014-06-15_15-18-20_094959634447_rgbf000152-resize_8-target.png,250,2.8775,5,2563,249,feet,jsons/v1_VE250_randls_26.json,622959,804843,60,Man
120,505075,DepthScenes,duration_manipulation_targetAtFixation,jsons/v1_VE250_randls_26.json,http://54.235.29.9/FacialAge/BNav_EC2/DepthDuration/v2_depth_duration_MTurk/v2_DepthDuration_HTML.html#286,286,1536,722,1536,864,8-29-2022,14-25-1,121,depth_duration_stimuli/002964_2014-06-08_17-46-11_094959634447_rgbf000091-resize_4/002964_2014-06-08_17-46-11_094959634447_rgbf000091-resize_4-target.png,250,1.6909999999999998,2,2801,245,feet,jsons/v1_VE250_randls_26.json,622959,804843,60,Man
121,505075,DepthScenes,duration_manipulation_targetAtFixation,jsons/v1_VE250_randls_26.json,http://54.235.29.9/FacialAge/BNav_EC2/DepthDuration/v2_depth_duration_MTurk/v2_DepthDuration_HTML.html#286,286,1536,722,1536,864,8-29-2022,14-25-1,122,depth_duration_stimuli/002136_2014-06-25_21-18-03_260595134347_rgbf000109-resize_3/002136_2014-06-25_21-18-03_260595134347_rgbf000109-resize_3-target.png,250,1.9569999999999999,3,2169,245,feet,jsons/v1_VE250_randls_26.json,622959,804843,60,Man
122,505075,DepthScenes,duration_manipulation_targetAtFixation,jsons/v1_VE250_randls_26.json,http://54.235.29.9/FacialAge/BNav_EC2/DepthDuration/v2_depth_duration_MTurk/v2_DepthDuration_HTML.html#286,286,1536,722,1536,864,8-29-2022,14-25-1,123,depth_duration_stimuli/000736_2014-06-08_18-24-15_260595134347_rgbf000206-resize_3/000736_2014-06-08_18-24-15_260595134347_rgbf000206-resize_3-target.png,250,3.515,3,5038,246,feet,jsons/v1_VE250_randls_26.json,622959,804843,60,Man
123,505075,DepthScenes,duration_manipulation_targetAtFixation,jsons/v1_VE250_randls_26.json,http://54.235.29.9/FacialAge/BNav_EC2/DepthDuration/v2_depth_duration_MTurk/v2_DepthDuration_HTML.html#286,286,1536,722,1536,864,8-29-2022,14-25-1,124,depth_duration_stimuli/000137_2014-05-20_17-04-49_260595134347_rgbf000120-resize_1/000137_2014-05-20_17-04-49_260595134347_rgbf000120-resize_1-target.png,250,3.786,4,5817,261,feet,jsons/v1_VE250_randls_26.json,622959,804843,60,Man
124,505075,DepthScenes,duration_manipulation_targetAtFixation,jsons/v1_VE250_randls_26.json,http://54.235.29.9/FacialAge/BNav_EC2/DepthDuration/v2_depth_duration_MTurk/v2_DepthDuration_HTML.html#286,286,1536,722,1536,864,8-29-2022,14-25-1,125,depth_duration_stimuli/002570_2014-06-24_13-59-54_094959634447_rgbf000059-resize_0/002570_2014-06-24_13-59-54_094959634447_rgbf000059-resize_0-target.png,250,4.037,5,2416,247,feet,jsons/v1_VE250_randls_26.json,622959,804843,60,Man
125,505075,DepthScenes,duration_manipulation_targetAtFixation,jsons/v1_VE250_randls_26.json,http://54.235.29.9/FacialAge/BNav_EC2/DepthDuration/v2_depth_duration_MTurk/v2_DepthDuration_HTML.html#286,286,1536,722,1536,864,8-29-2022,14-25-1,126,depth_duration_stimuli/002467_2014-06-28_20-38-07_260595134347_rgbf000026-resize_2/002467_2014-06-28_20-38-07_260595134347_rgbf000026-resize_2-target.png,250,4.742,4,2231,261,feet,jsons/v1_VE250_randls_26.json,622959,804843,60,Man
126,505075,DepthScenes,duration_manipulation_targetAtFixation,jsons/v1_VE250_randls_26.json,http://54.235.29.9/FacialAge/BNav_EC2/DepthDuration/v2_depth_duration_MTurk/v2_DepthDuration_HTML.html#286,286,1536,722,1536,864,8-29-2022,14-25-1,127,depth_duration_stimuli/001449_2014-06-19_17-01-27_260595134347_rgbf000116-resize_2/001449_2014-06-19_17-01-27_260595134347_rgbf000116-resize_2-target.png,250,3.452,5,2379,278,feet,jsons/v1_VE250_randls_26.json,622959,804843,60,Man
127,505075,DepthScenes,duration_manipulation_targetAtFixation,jsons/v1_VE250_randls_26.json,http://54.235.29.9/FacialAge/BNav_EC2/DepthDuration/v2_depth_duration_MTurk/v2_DepthDuration_HTML.html#286,286,1536,722,1536,864,8-29-2022,14-25-1,128,depth_duration_stimuli/001450_2014-06-19_17-02-03_260595134347_rgbf000203-resize_4/001450_2014-06-19_17-02-03_260595134347_rgbf000203-resize_4-target.png,250,4.0106666666667,5,2278,249,feet,jsons/v1_VE250_randls_26.json,622959,804843,60,Man
128,505075,DepthScenes,duration_manipulation_targetAtFixation,jsons/v1_VE250_randls_26.json,http://54.235.29.9/FacialAge/BNav_EC2/DepthDuration/v2_depth_duration_MTurk/v2_DepthDuration_HTML.html#286,286,1536,722,1536,864,8-29-2022,14-25-1,129,depth_duration_stimuli/001055_2014-06-08_18-45-35_260595134347_rgbf000111-resize_4/001055_2014-06-08_18-45-35_260595134347_rgbf000111-resize_4-target.png,250,2.4290000000000003,4,2148,250,feet,jsons/v1_VE250_randls_26.json,622959,804843,60,Man
129,505075,DepthScenes,duration_manipulation_targetAtFixation,jsons/v1_VE250_randls_26.json,http://54.235.29.9/FacialAge/BNav_EC2/DepthDuration/v2_depth_duration_MTurk/v2_DepthDuration_HTML.html#286,286,1536,722,1536,864,8-29-2022,14-25-1,130,depth_duration_stimuli/000549_2014-06-08_22-10-24_260595134347_rgbf000247-resize_3/000549_2014-06-08_22-10-24_260595134347_rgbf000247-resize_3-target.png,250,1.841,2,2243,252,feet,jsons/v1_VE250_randls_26.json,622959,804843,60,Man
130,505075,DepthScenes,duration_manipulation_targetAtFixation,jsons/v1_VE250_randls_26.json,http://54.235.29.9/FacialAge/BNav_EC2/DepthDuration/v2_depth_duration_MTurk/v2_DepthDuration_HTML.html#286,286,1536,722,1536,864,8-29-2022,14-25-1,131,depth_duration_stimuli/001029_2014-06-08_13-17-57_260595134347_rgbf000065-resize_1/001029_2014-06-08_13-17-57_260595134347_rgbf000065-resize_1-target.png,250,3.0835,4,2415,255,feet,jsons/v1_VE250_randls_26.json,622959,804843,60,Man
131,505075,DepthScenes,duration_manipulation_targetAtFixation,jsons/v1_VE250_randls_26.json,http://54.235.29.9/FacialAge/BNav_EC2/DepthDuration/v2_depth_duration_MTurk/v2_DepthDuration_HTML.html#286,286,1536,722,1536,864,8-29-2022,14-25-1,132,depth_duration_stimuli/000677_2014-06-08_23-10-32_260595134347_rgbf000158-resize_6/000677_2014-06-08_23-10-32_260595134347_rgbf000158-resize_6-target.png,250,3.556,4,2400,249,feet,jsons/v1_VE250_randls_26.json,622959,804843,60,Man
132,505075,DepthScenes,duration_manipulation_targetAtFixation,jsons/v1_VE250_randls_26.json,http://54.235.29.9/FacialAge/BNav_EC2/DepthDuration/v2_depth_duration_MTurk/v2_DepthDuration_HTML.html#286,286,1536,722,1536,864,8-29-2022,14-25-1,133,depth_duration_stimuli/002153_2014-06-25_21-27-18_260595134347_rgbf000038-resize_5/002153_2014-06-25_21-27-18_260595134347_rgbf000038-resize_5-target.png,250,2.505,3,2328,260,feet,jsons/v1_VE250_randls_26.json,622959,804843,60,Man
133,505075,DepthScenes,duration_manipulation_targetAtFixation,jsons/v1_VE250_randls_26.json,http://54.235.29.9/FacialAge/BNav_EC2/DepthDuration/v2_depth_duration_MTurk/v2_DepthDuration_HTML.html#286,286,1536,722,1536,864,8-29-2022,14-25-1,134,depth_duration_stimuli/002660_2014-06-13_15-44-18_094959634447_rgbf001878-resize_2/002660_2014-06-13_15-44-18_094959634447_rgbf001878-resize_2-target.png,250,3.576,4,2235,252,feet,jsons/v1_VE250_randls_26.json,622959,804843,60,Man
134,505075,DepthScenes,duration_manipulation_targetAtFixation,jsons/v1_VE250_randls_26.json,http://54.235.29.9/FacialAge/BNav_EC2/DepthDuration/v2_depth_duration_MTurk/v2_DepthDuration_HTML.html#286,286,1536,722,1536,864,8-29-2022,14-25-1,135,depth_duration_stimuli/002072_2014-06-24_21-48-06_260595134347_rgbf000115-resize_0/002072_2014-06-24_21-48-06_260595134347_rgbf000115-resize-original.jpg,250,4.702,0,3730,252,feet,jsons/v1_VE250_randls_26.json,622959,804843,60,Man
135,505075,DepthScenes,duration_manipulation_targetAtFixation,jsons/v1_VE250_randls_26.json,http://54.235.29.9/FacialAge/BNav_EC2/DepthDuration/v2_depth_duration_MTurk/v2_DepthDuration_HTML.html#286,286,1536,722,1536,864,8-29-2022,14-25-1,136,depth_duration_stimuli/000470_2014-06-09_19-42-40_260595134347_rgbf000094-resize_1/000470_2014-06-09_19-42-40_260595134347_rgbf000094-resize_1-target.png,250,1.831,3,2490,249,feet,jsons/v1_VE250_randls_26.json,622959,804843,60,Man
136,505075,DepthScenes,duration_manipulation_targetAtFixation,jsons/v1_VE250_randls_26.json,http://54.235.29.9/FacialAge/BNav_EC2/DepthDuration/v2_depth_duration_MTurk/v2_DepthDuration_HTML.html#286,286,1536,722,1536,864,8-29-2022,14-25-1,137,depth_duration_stimuli/000109_2014-05-14_23-41-52_260595134347_rgbf000035-resize_9/000109_2014-05-14_23-41-52_260595134347_rgbf000035-resize_9-target.png,250,1.3545,4,4160,248,feet,jsons/v1_VE250_randls_26.json,622959,804843,60,Man
137,505075,DepthScenes,duration_manipulation_targetAtFixation,jsons/v1_VE250_randls_26.json,http://54.235.29.9/FacialAge/BNav_EC2/DepthDuration/v2_depth_duration_MTurk/v2_DepthDuration_HTML.html#286,286,1536,722,1536,864,8-29-2022,14-25-1,138,depth_duration_stimuli/000692_2014-06-08_13-09-42_260595134347_rgbf000199-resize_2/000692_2014-06-08_13-09-42_260595134347_rgbf000199-resize_2-target.png,250,3.661,4,2558,249,feet,jsons/v1_VE250_randls_26.json,622959,804843,60,Man
138,505075,DepthScenes,duration_manipulation_targetAtFixation,jsons/v1_VE250_randls_26.json,http://54.235.29.9/FacialAge/BNav_EC2/DepthDuration/v2_depth_duration_MTurk/v2_DepthDuration_HTML.html#286,286,1536,722,1536,864,8-29-2022,14-25-1,139,depth_duration_stimuli/001094_2014-06-15_17-36-00_260595134347_rgbf000205-resize_0/001094_2014-06-15_17-36-00_260595134347_rgbf000205-resize_0-target.png,250,4.2175,5,2160,249,feet,jsons/v1_VE250_randls_26.json,622959,804843,60,Man
139,505075,DepthScenes,duration_manipulation_targetAtFixation,jsons/v1_VE250_randls_26.json,http://54.235.29.9/FacialAge/BNav_EC2/DepthDuration/v2_depth_duration_MTurk/v2_DepthDuration_HTML.html#286,286,1536,722,1536,864,8-29-2022,14-25-1,140,depth_duration_stimuli/002905_2014-06-03_18-04-43_094959634447_rgbf000151-resize_2/002905_2014-06-03_18-04-43_094959634447_rgbf000151-resize_2-target.png,250,2.0295,3,2309,232,feet,jsons/v1_VE250_randls_26.json,622959,804843,60,Man
140,505075,DepthScenes,duration_manipulation_targetAtFixation,jsons/v1_VE250_randls_26.json,http://54.235.29.9/FacialAge/BNav_EC2/DepthDuration/v2_depth_duration_MTurk/v2_DepthDuration_HTML.html#286,286,1536,722,1536,864,8-29-2022,14-25-1,141,depth_duration_stimuli/003423_2014-05-21_10-23-26_094959634447_rgbf002665-resize_2/003423_2014-05-21_10-23-26_094959634447_rgbf002665-resize_2-target.png,250,3.2575,4,2084,260,feet,jsons/v1_VE250_randls_26.json,622959,804843,60,Man
141,505075,DepthScenes,duration_manipulation_targetAtFixation,jsons/v1_VE250_randls_26.json,http://54.235.29.9/FacialAge/BNav_EC2/DepthDuration/v2_depth_duration_MTurk/v2_DepthDuration_HTML.html#286,286,1536,722,1536,864,8-29-2022,14-25-1,142,depth_duration_stimuli/002988_2014-06-15_12-24-20_094959634447_rgbf000150-resize_1/002988_2014-06-15_12-24-20_094959634447_rgbf000150-resize_1-target.png,250,4.7669999999999995,5,2386,239,feet,jsons/v1_VE250_randls_26.json,622959,804843,60,Man
142,505075,DepthScenes,duration_manipulation_targetAtFixation,jsons/v1_VE250_randls_26.json,http://54.235.29.9/FacialAge/BNav_EC2/DepthDuration/v2_depth_duration_MTurk/v2_DepthDuration_HTML.html#286,286,1536,722,1536,864,8-29-2022,14-25-1,143,depth_duration_stimuli/001052_2014-06-08_18-24-54_260595134347_rgbf000130-resize_1/001052_2014-06-08_18-24-54_260595134347_rgbf000130-resize_1-target.png,250,4.1045,4,2163,256,feet,jsons/v1_VE250_randls_26.json,622959,804843,60,Man
143,505075,DepthScenes,duration_manipulation_targetAtFixation,jsons/v1_VE250_randls_26.json,http://54.235.29.9/FacialAge/BNav_EC2/DepthDuration/v2_depth_duration_MTurk/v2_DepthDuration_HTML.html#286,286,1536,722,1536,864,8-29-2022,14-25-1,144,depth_duration_stimuli/001164_2014-06-17_15-35-46_260595134347_rgbf000085-resize_3/001164_2014-06-17_15-35-46_260595134347_rgbf000085-resize_3-target.png,250,2.354,3,2333,255,feet,jsons/v1_VE250_randls_26.json,622959,804843,60,Man
144,505075,DepthScenes,duration_manipulation_targetAtFixation,jsons/v1_VE250_randls_26.json,http://54.235.29.9/FacialAge/BNav_EC2/DepthDuration/v2_depth_duration_MTurk/v2_DepthDuration_HTML.html#286,286,1536,722,1536,864,8-29-2022,14-25-1,145,depth_duration_stimuli/001136_2014-06-17_15-19-41_260595134347_rgbf000076-resize_3/001136_2014-06-17_15-19-41_260595134347_rgbf000076-resize_3-target.png,250,1.8655,5,2287,240,feet,jsons/v1_VE250_randls_26.json,622959,804843,60,Man
145,505075,DepthScenes,duration_manipulation_targetAtFixation,jsons/v1_VE250_randls_26.json,http://54.235.29.9/FacialAge/BNav_EC2/DepthDuration/v2_depth_duration_MTurk/v2_DepthDuration_HTML.html#286,286,1536,722,1536,864,8-29-2022,14-25-1,146,depth_duration_stimuli/001498_2014-06-19_17-45-14_260595134347_rgbf000129-resize_4/001498_2014-06-19_17-45-14_260595134347_rgbf000129-resize-original.jpg,250,1.4075,0,4170,252,feet,jsons/v1_VE250_randls_26.json,622959,804843,60,Man
146,505075,DepthScenes,duration_manipulation_targetAtFixation,jsons/v1_VE250_randls_26.json,http://54.235.29.9/FacialAge/BNav_EC2/DepthDuration/v2_depth_duration_MTurk/v2_DepthDuration_HTML.html#286,286,1536,722,1536,864,8-29-2022,14-25-1,147,depth_duration_stimuli/002272_2014-06-28_18-53-56_260595134347_rgbf000067-resize_2/002272_2014-06-28_18-53-56_260595134347_rgbf000067-resize_2-target.png,250,1.138,2,2146,250,feet,jsons/v1_VE250_randls_26.json,622959,804843,60,Man
147,505075,DepthScenes,duration_manipulation_targetAtFixation,jsons/v1_VE250_randls_26.json,http://54.235.29.9/FacialAge/BNav_EC2/DepthDuration/v2_depth_duration_MTurk/v2_DepthDuration_HTML.html#286,286,1536,722,1536,864,8-29-2022,14-25-1,148,depth_duration_stimuli/001571_2014-06-20_17-21-32_260595134347_rgbf000089-resize_1/001571_2014-06-20_17-21-32_260595134347_rgbf000089-resize_1-target.png,250,1.86,3,2204,249,feet,jsons/v1_VE250_randls_26.json,622959,804843,60,Man
148,505075,DepthScenes,duration_manipulation_targetAtFixation,jsons/v1_VE250_randls_26.json,http://54.235.29.9/FacialAge/BNav_EC2/DepthDuration/v2_depth_duration_MTurk/v2_DepthDuration_HTML.html#286,286,1536,722,1536,864,8-29-2022,14-25-1,149,depth_duration_stimuli/000447_2014-06-08_16-15-46_260595134347_rgbf000130-resize_1/000447_2014-06-08_16-15-46_260595134347_rgbf000130-resize_1-target.png,250,4.479,4,2282,249,feet,jsons/v1_VE250_randls_26.json,622959,804843,60,Man
149,505075,DepthScenes,duration_manipulation_targetAtFixation,jsons/v1_VE250_randls_26.json,http://54.235.29.9/FacialAge/BNav_EC2/DepthDuration/v2_depth_duration_MTurk/v2_DepthDuration_HTML.html#286,286,1536,722,1536,864,8-29-2022,14-25-1,150,depth_duration_stimuli/001447_2014-06-19_17-00-32_260595134347_rgbf000082-resize_5/001447_2014-06-19_17-00-32_260595134347_rgbf000082-resize_5-target.png,250,4.13775,4,2239,249,feet,jsons/v1_VE250_randls_26.json,622959,804843,60,Man
150,505075,DepthScenes,duration_manipulation_targetAtFixation,jsons/v1_VE250_randls_26.json,http://54.235.29.9/FacialAge/BNav_EC2/DepthDuration/v2_depth_duration_MTurk/v2_DepthDuration_HTML.html#286,286,1536,722,1536,864,8-29-2022,14-25-1,151,depth_duration_stimuli/000758_2014-06-08_22-05-08_260595134347_rgbf000085-resize_0/000758_2014-06-08_22-05-08_260595134347_rgbf000085-resize_0-target.png,250,3.3810000000000002,5,2366,248,feet,jsons/v1_VE250_randls_26.json,622959,804843,60,Man
151,505075,DepthScenes,duration_manipulation_targetAtFixation,jsons/v1_VE250_randls_26.json,http://54.235.29.9/FacialAge/BNav_EC2/DepthDuration/v2_depth_duration_MTurk/v2_DepthDuration_HTML.html#286,286,1536,722,1536,864,8-29-2022,14-25-1,152,depth_duration_stimuli/000854_2014-06-09_19-43-13_260595134347_rgbf000066-resize_0/000854_2014-06-09_19-43-13_260595134347_rgbf000066-resize_0-target.png,250,3.068,4,2435,253,feet,jsons/v1_VE250_randls_26.json,622959,804843,60,Man
152,505075,DepthScenes,duration_manipulation_targetAtFixation,jsons/v1_VE250_randls_26.json,http://54.235.29.9/FacialAge/BNav_EC2/DepthDuration/v2_depth_duration_MTurk/v2_DepthDuration_HTML.html#286,286,1536,722,1536,864,8-29-2022,14-25-1,153,depth_duration_stimuli/002509_2014-06-24_13-19-22_094959634447_rgbf000077-resize_0/002509_2014-06-24_13-19-22_094959634447_rgbf000077-resize_0-target.png,250,1.3065,3,2228,239,feet,jsons/v1_VE250_randls_26.json,622959,804843,60,Man
153,505075,DepthScenes,duration_manipulation_targetAtFixation,jsons/v1_VE250_randls_26.json,http://54.235.29.9/FacialAge/BNav_EC2/DepthDuration/v2_depth_duration_MTurk/v2_DepthDuration_HTML.html#286,286,1536,722,1536,864,8-29-2022,14-25-1,154,depth_duration_stimuli/003338_2014-05-20_11-01-23_094959634447_rgbf000051-resize_6/003338_2014-05-20_11-01-23_094959634447_rgbf000051-resize_6-target.png,250,1.693,3,2345,249,feet,jsons/v1_VE250_randls_26.json,622959,804843,60,Man
154,505075,DepthScenes,duration_manipulation_targetAtFixation,jsons/v1_VE250_randls_26.json,http://54.235.29.9/FacialAge/BNav_EC2/DepthDuration/v2_depth_duration_MTurk/v2_DepthDuration_HTML.html#286,286,1536,722,1536,864,8-29-2022,14-25-1,155,depth_duration_stimuli/002279_2014-06-28_18-55-32_260595134347_rgbf000040-resize_5/002279_2014-06-28_18-55-32_260595134347_rgbf000040-resize_5-target.png,250,1.5043333333333,3,2148,250,feet,jsons/v1_VE250_randls_26.json,622959,804843,60,Man
155,505075,DepthScenes,duration_manipulation_targetAtFixation,jsons/v1_VE250_randls_26.json,http://54.235.29.9/FacialAge/BNav_EC2/DepthDuration/v2_depth_duration_MTurk/v2_DepthDuration_HTML.html#286,286,1536,722,1536,864,8-29-2022,14-25-1,156,depth_duration_stimuli/000635_2014-06-08_16-38-42_260595134347_rgbf000106-resize_1/000635_2014-06-08_16-38-42_260595134347_rgbf000106-resize_1-target.png,250,2.074,5,2340,249,feet,jsons/v1_VE250_randls_26.json,622959,804843,60,Man
156,505075,DepthScenes,duration_manipulation_targetAtFixation,jsons/v1_VE250_randls_26.json,http://54.235.29.9/FacialAge/BNav_EC2/DepthDuration/v2_depth_duration_MTurk/v2_DepthDuration_HTML.html#286,286,1536,722,1536,864,8-29-2022,14-25-1,157,depth_duration_stimuli/002039_2014-06-24_20-22-38_260595134347_rgbf000084-resize_1/002039_2014-06-24_20-22-38_260595134347_rgbf000084-resize_1-target.png,250,4.408,4,2457,251,feet,jsons/v1_VE250_randls_26.json,622959,804843,60,Man
157,505075,DepthScenes,duration_manipulation_targetAtFixation,jsons/v1_VE250_randls_26.json,http://54.235.29.9/FacialAge/BNav_EC2/DepthDuration/v2_depth_duration_MTurk/v2_DepthDuration_HTML.html#286,286,1536,722,1536,864,8-29-2022,14-25-1,158,depth_duration_stimuli/002103_2014-06-25_20-00-40_260595134347_rgbf000049-resize_0/002103_2014-06-25_20-00-40_260595134347_rgbf000049-resize_0-target.png,250,4.105,4,2094,242,feet,jsons/v1_VE250_randls_26.json,622959,804843,60,Man
158,505075,DepthScenes,duration_manipulation_targetAtFixation,jsons/v1_VE250_randls_26.json,http://54.235.29.9/FacialAge/BNav_EC2/DepthDuration/v2_depth_duration_MTurk/v2_DepthDuration_HTML.html#286,286,1536,722,1536,864,8-29-2022,14-25-1,159,depth_duration_stimuli/000009_2014-05-26_14-32-05_260595134347_rgbf000034-resize_3/000009_2014-05-26_14-32-05_260595134347_rgbf000034-resize_3-target.png,250,3.8715,5,2152,259,feet,jsons/v1_VE250_randls_26.json,622959,804843,60,Man
159,505075,DepthScenes,duration_manipulation_targetAtFixation,jsons/v1_VE250_randls_26.json,http://54.235.29.9/FacialAge/BNav_EC2/DepthDuration/v2_depth_duration_MTurk/v2_DepthDuration_HTML.html#286,286,1536,722,1536,864,8-29-2022,14-25-1,160,depth_duration_stimuli/001828_2014-06-26_21-40-03_260595134347_rgbf000024-resize_0/001828_2014-06-26_21-40-03_260595134347_rgbf000024-resize_0-target.png,250,4.8260000000000005,4,2528,246,feet,jsons/v1_VE250_randls_26.json,622959,804843,60,Man
160,505075,DepthScenes,duration_manipulation_targetAtFixation,jsons/v1_VE250_randls_26.json,http://54.235.29.9/FacialAge/BNav_EC2/DepthDuration/v2_depth_duration_MTurk/v2_DepthDuration_HTML.html#286,286,1536,722,1536,864,8-29-2022,14-25-1,161,depth_duration_stimuli/001016_2014-06-09_16-16-10_260595134347_rgbf000112-resize_5/001016_2014-06-09_16-16-10_260595134347_rgbf000112-resize_5-target.png,250,1.6565,4,2505,249,feet,jsons/v1_VE250_randls_26.json,622959,804843,60,Man
161,505075,DepthScenes,duration_manipulation_targetAtFixation,jsons/v1_VE250_randls_26.json,http://54.235.29.9/FacialAge/BNav_EC2/DepthDuration/v2_depth_duration_MTurk/v2_DepthDuration_HTML.html#286,286,1536,722,1536,864,8-29-2022,14-25-1,162,depth_duration_stimuli/002340_2014-06-28_20-05-46_260595134347_rgbf000113-resize_0/002340_2014-06-28_20-05-46_260595134347_rgbf000113-resize_0-target.png,250,2.4735,5,2365,253,feet,jsons/v1_VE250_randls_26.json,622959,804843,60,Man
162,505075,DepthScenes,duration_manipulation_targetAtFixation,jsons/v1_VE250_randls_26.json,http://54.235.29.9/FacialAge/BNav_EC2/DepthDuration/v2_depth_duration_MTurk/v2_DepthDuration_HTML.html#286,286,1536,722,1536,864,8-29-2022,14-25-1,163,depth_duration_stimuli/000917_2014-06-09_22-45-29_260595134347_rgbf000149-resize_3/000917_2014-06-09_22-45-29_260595134347_rgbf000149-resize_3-target.png,250,4.1865,4,2118,265,feet,jsons/v1_VE250_randls_26.json,622959,804843,60,Man
163,505075,DepthScenes,duration_manipulation_targetAtFixation,jsons/v1_VE250_randls_26.json,http://54.235.29.9/FacialAge/BNav_EC2/DepthDuration/v2_depth_duration_MTurk/v2_DepthDuration_HTML.html#286,286,1536,722,1536,864,8-29-2022,14-25-1,164,depth_duration_stimuli/002323_2014-06-28_20-01-54_260595134347_rgbf000051-resize_4/002323_2014-06-28_20-01-54_260595134347_rgbf000051-resize_4-target.png,250,3.7310000000000003,4,2158,235,feet,jsons/v1_VE250_randls_26.json,622959,804843,60,Man
