,subjID,experimentName,versionName,sequenceName,url,selected_row,windowWidth,windowHeight,screenWidth,screenHeight,startDate,startTime,trial,stimulus,duration,actual_depth,depth_estimate,trial_RT,log_sceneDuration,unitSelection,seq_filepath,experimentTime,totalTime,age,gender
0,506066,DepthScenes,duration_manipulation_targetAtFixation,jsons/v1_VE250_randls_56.json,http://54.235.29.9/FacialAge/BNav_EC2/DepthDuration/v2_depth_duration_MTurk/v2_DepthDuration_HTML.html#423,423,1366,625,1366,768,8-29-2022,9-48-2,1,depth_duration_stimuli/001016_2014-06-09_16-16-10_260595134347_rgbf000112-resize_5/001016_2014-06-09_16-16-10_260595134347_rgbf000112-resize_5-target.png,250,1.6565,2,3466,249,meters,jsons/v1_VE250_randls_56.json,563155,854478,37,Woman
1,506066,DepthScenes,duration_manipulation_targetAtFixation,jsons/v1_VE250_randls_56.json,http://54.235.29.9/FacialAge/BNav_EC2/DepthDuration/v2_depth_duration_MTurk/v2_DepthDuration_HTML.html#423,423,1366,625,1366,768,8-29-2022,9-48-2,2,depth_duration_stimuli/002340_2014-06-28_20-05-46_260595134347_rgbf000113-resize_0/002340_2014-06-28_20-05-46_260595134347_rgbf000113-resize_0-target.png,250,2.4735,4,4290,248,meters,jsons/v1_VE250_randls_56.json,563155,854478,37,Woman
2,506066,DepthScenes,duration_manipulation_targetAtFixation,jsons/v1_VE250_randls_56.json,http://54.235.29.9/FacialAge/BNav_EC2/DepthDuration/v2_depth_duration_MTurk/v2_DepthDuration_HTML.html#423,423,1366,625,1366,768,8-29-2022,9-48-2,3,depth_duration_stimuli/000414_2014-06-04_19-49-13_260595134347_rgbf000044-resize_0/000414_2014-06-04_19-49-13_260595134347_rgbf000044-resize_0-target.png,250,4.329,0,4498,249,meters,jsons/v1_VE250_randls_56.json,563155,854478,37,Woman
3,506066,DepthScenes,duration_manipulation_targetAtFixation,jsons/v1_VE250_randls_56.json,http://54.235.29.9/FacialAge/BNav_EC2/DepthDuration/v2_depth_duration_MTurk/v2_DepthDuration_HTML.html#423,423,1366,625,1366,768,8-29-2022,9-48-2,4,depth_duration_stimuli/003129_2014-05-12_10-48-10_094959634447_rgbf000100-resize_0/003129_2014-05-12_10-48-10_094959634447_rgbf000100-resize_0-target.png,250,4.9305,1,3345,249,meters,jsons/v1_VE250_randls_56.json,563155,854478,37,Woman
4,506066,DepthScenes,duration_manipulation_targetAtFixation,jsons/v1_VE250_randls_56.json,http://54.235.29.9/FacialAge/BNav_EC2/DepthDuration/v2_depth_duration_MTurk/v2_DepthDuration_HTML.html#423,423,1366,625,1366,768,8-29-2022,9-48-2,5,depth_duration_stimuli/001029_2014-06-08_13-17-57_260595134347_rgbf000065-resize_1/001029_2014-06-08_13-17-57_260595134347_rgbf000065-resize_1-target.png,250,3.0835,2,2220,248,meters,jsons/v1_VE250_randls_56.json,563155,854478,37,Woman
5,506066,DepthScenes,duration_manipulation_targetAtFixation,jsons/v1_VE250_randls_56.json,http://54.235.29.9/FacialAge/BNav_EC2/DepthDuration/v2_depth_duration_MTurk/v2_DepthDuration_HTML.html#423,423,1366,625,1366,768,8-29-2022,9-48-2,6,depth_duration_stimuli/000677_2014-06-08_23-10-32_260595134347_rgbf000158-resize_6/000677_2014-06-08_23-10-32_260595134347_rgbf000158-resize_6-target.png,250,3.556,3,2128,250,meters,jsons/v1_VE250_randls_56.json,563155,854478,37,Woman
6,506066,DepthScenes,duration_manipulation_targetAtFixation,jsons/v1_VE250_randls_56.json,http://54.235.29.9/FacialAge/BNav_EC2/DepthDuration/v2_depth_duration_MTurk/v2_DepthDuration_HTML.html#423,423,1366,625,1366,768,8-29-2022,9-48-2,7,depth_duration_stimuli/001555_2014-06-20_17-12-10_260595134347_rgbf000065-resize_4/001555_2014-06-20_17-12-10_260595134347_rgbf000065-resize_4-target.png,250,1.633,1,2401,250,meters,jsons/v1_VE250_randls_56.json,563155,854478,37,Woman
7,506066,DepthScenes,duration_manipulation_targetAtFixation,jsons/v1_VE250_randls_56.json,http://54.235.29.9/FacialAge/BNav_EC2/DepthDuration/v2_depth_duration_MTurk/v2_DepthDuration_HTML.html#423,423,1366,625,1366,768,8-29-2022,9-48-2,8,depth_duration_stimuli/000103_2014-05-14_22-01-17_260595134347_rgbf000152-resize_5/000103_2014-05-14_22-01-17_260595134347_rgbf000152-resize_5-target.png,250,1.993,2,2443,249,meters,jsons/v1_VE250_randls_56.json,563155,854478,37,Woman
8,506066,DepthScenes,duration_manipulation_targetAtFixation,jsons/v1_VE250_randls_56.json,http://54.235.29.9/FacialAge/BNav_EC2/DepthDuration/v2_depth_duration_MTurk/v2_DepthDuration_HTML.html#423,423,1366,625,1366,768,8-29-2022,9-48-2,9,depth_duration_stimuli/002763_2014-06-22_19-13-10_094959634447_rgbf000075-resize_4/002763_2014-06-22_19-13-10_094959634447_rgbf000075-resize_4-target.png,250,1.68375,0,3066,249,meters,jsons/v1_VE250_randls_56.json,563155,854478,37,Woman
9,506066,DepthScenes,duration_manipulation_targetAtFixation,jsons/v1_VE250_randls_56.json,http://54.235.29.9/FacialAge/BNav_EC2/DepthDuration/v2_depth_duration_MTurk/v2_DepthDuration_HTML.html#423,423,1366,625,1366,768,8-29-2022,9-48-2,10,depth_duration_stimuli/002209_2014-06-28_18-36-10_260595134347_rgbf000051-resize_1/002209_2014-06-28_18-36-10_260595134347_rgbf000051-resize_1-target.png,250,2.057,1,2786,249,meters,jsons/v1_VE250_randls_56.json,563155,854478,37,Woman
10,506066,DepthScenes,duration_manipulation_targetAtFixation,jsons/v1_VE250_randls_56.json,http://54.235.29.9/FacialAge/BNav_EC2/DepthDuration/v2_depth_duration_MTurk/v2_DepthDuration_HTML.html#423,423,1366,625,1366,768,8-29-2022,9-48-2,11,depth_duration_stimuli/002964_2014-06-08_17-46-11_094959634447_rgbf000091-resize_4/002964_2014-06-08_17-46-11_094959634447_rgbf000091-resize_4-target.png,250,1.6909999999999998,2,2202,249,meters,jsons/v1_VE250_randls_56.json,563155,854478,37,Woman
11,506066,DepthScenes,duration_manipulation_targetAtFixation,jsons/v1_VE250_randls_56.json,http://54.235.29.9/FacialAge/BNav_EC2/DepthDuration/v2_depth_duration_MTurk/v2_DepthDuration_HTML.html#423,423,1366,625,1366,768,8-29-2022,9-48-2,12,depth_duration_stimuli/002136_2014-06-25_21-18-03_260595134347_rgbf000109-resize_3/002136_2014-06-25_21-18-03_260595134347_rgbf000109-resize_3-target.png,250,1.9569999999999999,3,2289,249,meters,jsons/v1_VE250_randls_56.json,563155,854478,37,Woman
12,506066,DepthScenes,duration_manipulation_targetAtFixation,jsons/v1_VE250_randls_56.json,http://54.235.29.9/FacialAge/BNav_EC2/DepthDuration/v2_depth_duration_MTurk/v2_DepthDuration_HTML.html#423,423,1366,625,1366,768,8-29-2022,9-48-2,13,depth_duration_stimuli/000569_2014-06-09_22-51-47_260595134347_rgbf000141-resize_3/000569_2014-06-09_22-51-47_260595134347_rgbf000141-resize-original.jpg,250,4.512,0,4796,249,meters,jsons/v1_VE250_randls_56.json,563155,854478,37,Woman
13,506066,DepthScenes,duration_manipulation_targetAtFixation,jsons/v1_VE250_randls_56.json,http://54.235.29.9/FacialAge/BNav_EC2/DepthDuration/v2_depth_duration_MTurk/v2_DepthDuration_HTML.html#423,423,1366,625,1366,768,8-29-2022,9-48-2,14,depth_duration_stimuli/001810_2014-06-26_20-51-35_260595134347_rgbf000040-resize_3/001810_2014-06-26_20-51-35_260595134347_rgbf000040-resize_3-target.png,250,2.2525,1,2946,249,meters,jsons/v1_VE250_randls_56.json,563155,854478,37,Woman
14,506066,DepthScenes,duration_manipulation_targetAtFixation,jsons/v1_VE250_randls_56.json,http://54.235.29.9/FacialAge/BNav_EC2/DepthDuration/v2_depth_duration_MTurk/v2_DepthDuration_HTML.html#423,423,1366,625,1366,768,8-29-2022,9-48-2,15,depth_duration_stimuli/003010_2014-06-15_12-54-35_094959634447_rgbf000112-resize_0/003010_2014-06-15_12-54-35_094959634447_rgbf000112-resize_0-target.png,250,3.1185,2,2058,249,meters,jsons/v1_VE250_randls_56.json,563155,854478,37,Woman
15,506066,DepthScenes,duration_manipulation_targetAtFixation,jsons/v1_VE250_randls_56.json,http://54.235.29.9/FacialAge/BNav_EC2/DepthDuration/v2_depth_duration_MTurk/v2_DepthDuration_HTML.html#423,423,1366,625,1366,768,8-29-2022,9-48-2,16,depth_duration_stimuli/001158_2014-06-17_15-32-16_260595134347_rgbf000138-resize_2/001158_2014-06-17_15-32-16_260595134347_rgbf000138-resize_2-target.png,250,4.5315,1,2764,248,meters,jsons/v1_VE250_randls_56.json,563155,854478,37,Woman
16,506066,DepthScenes,duration_manipulation_targetAtFixation,jsons/v1_VE250_randls_56.json,http://54.235.29.9/FacialAge/BNav_EC2/DepthDuration/v2_depth_duration_MTurk/v2_DepthDuration_HTML.html#423,423,1366,625,1366,768,8-29-2022,9-48-2,17,depth_duration_stimuli/000556_2014-06-09_22-42-56_260595134347_rgbf000214-resize_1/000556_2014-06-09_22-42-56_260595134347_rgbf000214-resize_1-target.png,250,4.8415,2,2255,248,meters,jsons/v1_VE250_randls_56.json,563155,854478,37,Woman
17,506066,DepthScenes,duration_manipulation_targetAtFixation,jsons/v1_VE250_randls_56.json,http://54.235.29.9/FacialAge/BNav_EC2/DepthDuration/v2_depth_duration_MTurk/v2_DepthDuration_HTML.html#423,423,1366,625,1366,768,8-29-2022,9-48-2,18,depth_duration_stimuli/000692_2014-06-08_13-09-42_260595134347_rgbf000199-resize_2/000692_2014-06-08_13-09-42_260595134347_rgbf000199-resize_2-target.png,250,3.661,3,2458,249,meters,jsons/v1_VE250_randls_56.json,563155,854478,37,Woman
18,506066,DepthScenes,duration_manipulation_targetAtFixation,jsons/v1_VE250_randls_56.json,http://54.235.29.9/FacialAge/BNav_EC2/DepthDuration/v2_depth_duration_MTurk/v2_DepthDuration_HTML.html#423,423,1366,625,1366,768,8-29-2022,9-48-2,19,depth_duration_stimuli/001094_2014-06-15_17-36-00_260595134347_rgbf000205-resize_0/001094_2014-06-15_17-36-00_260595134347_rgbf000205-resize_0-target.png,250,4.2175,1,2321,249,meters,jsons/v1_VE250_randls_56.json,563155,854478,37,Woman
19,506066,DepthScenes,duration_manipulation_targetAtFixation,jsons/v1_VE250_randls_56.json,http://54.235.29.9/FacialAge/BNav_EC2/DepthDuration/v2_depth_duration_MTurk/v2_DepthDuration_HTML.html#423,423,1366,625,1366,768,8-29-2022,9-48-2,20,depth_duration_stimuli/000470_2014-06-09_19-42-40_260595134347_rgbf000094-resize_1/000470_2014-06-09_19-42-40_260595134347_rgbf000094-resize_1-target.png,250,1.831,2,2025,248,meters,jsons/v1_VE250_randls_56.json,563155,854478,37,Woman
20,506066,DepthScenes,duration_manipulation_targetAtFixation,jsons/v1_VE250_randls_56.json,http://54.235.29.9/FacialAge/BNav_EC2/DepthDuration/v2_depth_duration_MTurk/v2_DepthDuration_HTML.html#423,423,1366,625,1366,768,8-29-2022,9-48-2,21,depth_duration_stimuli/000109_2014-05-14_23-41-52_260595134347_rgbf000035-resize_9/000109_2014-05-14_23-41-52_260595134347_rgbf000035-resize_9-target.png,250,1.3545,3,2057,249,meters,jsons/v1_VE250_randls_56.json,563155,854478,37,Woman
21,506066,DepthScenes,duration_manipulation_targetAtFixation,jsons/v1_VE250_randls_56.json,http://54.235.29.9/FacialAge/BNav_EC2/DepthDuration/v2_depth_duration_MTurk/v2_DepthDuration_HTML.html#423,423,1366,625,1366,768,8-29-2022,9-48-2,22,depth_duration_stimuli/003292_2014-05-14_21-53-49_094959634447_rgbf000100-resize_2/003292_2014-05-14_21-53-49_094959634447_rgbf000100-resize_2-target.png,250,3.4815,0,14946,249,meters,jsons/v1_VE250_randls_56.json,563155,854478,37,Woman
22,506066,DepthScenes,duration_manipulation_targetAtFixation,jsons/v1_VE250_randls_56.json,http://54.235.29.9/FacialAge/BNav_EC2/DepthDuration/v2_depth_duration_MTurk/v2_DepthDuration_HTML.html#423,423,1366,625,1366,768,8-29-2022,9-48-2,23,depth_duration_stimuli/002639_2014-06-24_14-51-37_094959634447_rgbf000074-resize_4/002639_2014-06-24_14-51-37_094959634447_rgbf000074-resize_4-target.png,250,4.0375,1,6576,248,meters,jsons/v1_VE250_randls_56.json,563155,854478,37,Woman
23,506066,DepthScenes,duration_manipulation_targetAtFixation,jsons/v1_VE250_randls_56.json,http://54.235.29.9/FacialAge/BNav_EC2/DepthDuration/v2_depth_duration_MTurk/v2_DepthDuration_HTML.html#423,423,1366,625,1366,768,8-29-2022,9-48-2,24,depth_duration_stimuli/002039_2014-06-24_20-22-38_260595134347_rgbf000084-resize_1/002039_2014-06-24_20-22-38_260595134347_rgbf000084-resize_1-target.png,250,4.408,2,1931,249,meters,jsons/v1_VE250_randls_56.json,563155,854478,37,Woman
24,506066,DepthScenes,duration_manipulation_targetAtFixation,jsons/v1_VE250_randls_56.json,http://54.235.29.9/FacialAge/BNav_EC2/DepthDuration/v2_depth_duration_MTurk/v2_DepthDuration_HTML.html#423,423,1366,625,1366,768,8-29-2022,9-48-2,25,depth_duration_stimuli/002103_2014-06-25_20-00-40_260595134347_rgbf000049-resize_0/002103_2014-06-25_20-00-40_260595134347_rgbf000049-resize_0-target.png,250,4.105,3,2219,249,meters,jsons/v1_VE250_randls_56.json,563155,854478,37,Woman
25,506066,DepthScenes,duration_manipulation_targetAtFixation,jsons/v1_VE250_randls_56.json,http://54.235.29.9/FacialAge/BNav_EC2/DepthDuration/v2_depth_duration_MTurk/v2_DepthDuration_HTML.html#423,423,1366,625,1366,768,8-29-2022,9-48-2,26,depth_duration_stimuli/002784_2014-06-22_19-26-30_094959634447_rgbf000083-resize_3/002784_2014-06-22_19-26-30_094959634447_rgbf000083-resize_3-target.png,250,1.8046666666667,3,2065,248,meters,jsons/v1_VE250_randls_56.json,563155,854478,37,Woman
26,506066,DepthScenes,duration_manipulation_targetAtFixation,jsons/v1_VE250_randls_56.json,http://54.235.29.9/FacialAge/BNav_EC2/DepthDuration/v2_depth_duration_MTurk/v2_DepthDuration_HTML.html#423,423,1366,625,1366,768,8-29-2022,9-48-2,27,depth_duration_stimuli/001100_2014-06-15_17-46-26_260595134347_rgbf000225-resize_2/001100_2014-06-15_17-46-26_260595134347_rgbf000225-resize_2-target.png,250,2.24,2,1938,249,meters,jsons/v1_VE250_randls_56.json,563155,854478,37,Woman
27,506066,DepthScenes,duration_manipulation_targetAtFixation,jsons/v1_VE250_randls_56.json,http://54.235.29.9/FacialAge/BNav_EC2/DepthDuration/v2_depth_duration_MTurk/v2_DepthDuration_HTML.html#423,423,1366,625,1366,768,8-29-2022,9-48-2,28,depth_duration_stimuli/000009_2014-05-26_14-32-05_260595134347_rgbf000034-resize_3/000009_2014-05-26_14-32-05_260595134347_rgbf000034-resize_3-target.png,250,3.8715,1,1964,250,meters,jsons/v1_VE250_randls_56.json,563155,854478,37,Woman
28,506066,DepthScenes,duration_manipulation_targetAtFixation,jsons/v1_VE250_randls_56.json,http://54.235.29.9/FacialAge/BNav_EC2/DepthDuration/v2_depth_duration_MTurk/v2_DepthDuration_HTML.html#423,423,1366,625,1366,768,8-29-2022,9-48-2,29,depth_duration_stimuli/001828_2014-06-26_21-40-03_260595134347_rgbf000024-resize_0/001828_2014-06-26_21-40-03_260595134347_rgbf000024-resize_0-target.png,250,4.8260000000000005,2,1920,250,meters,jsons/v1_VE250_randls_56.json,563155,854478,37,Woman
29,506066,DepthScenes,duration_manipulation_targetAtFixation,jsons/v1_VE250_randls_56.json,http://54.235.29.9/FacialAge/BNav_EC2/DepthDuration/v2_depth_duration_MTurk/v2_DepthDuration_HTML.html#423,423,1366,625,1366,768,8-29-2022,9-48-2,30,depth_duration_stimuli/000375_2014-06-08_11-17-29_260595134347_rgbf000133-resize_2/000375_2014-06-08_11-17-29_260595134347_rgbf000133-resize-original.jpg,250,4.718,0,3163,250,meters,jsons/v1_VE250_randls_56.json,563155,854478,37,Woman
30,506066,DepthScenes,duration_manipulation_targetAtFixation,jsons/v1_VE250_randls_56.json,http://54.235.29.9/FacialAge/BNav_EC2/DepthDuration/v2_depth_duration_MTurk/v2_DepthDuration_HTML.html#423,423,1366,625,1366,768,8-29-2022,9-48-2,31,depth_duration_stimuli/000917_2014-06-09_22-45-29_260595134347_rgbf000149-resize_3/000917_2014-06-09_22-45-29_260595134347_rgbf000149-resize_3-target.png,250,4.1865,1,2512,250,meters,jsons/v1_VE250_randls_56.json,563155,854478,37,Woman
31,506066,DepthScenes,duration_manipulation_targetAtFixation,jsons/v1_VE250_randls_56.json,http://54.235.29.9/FacialAge/BNav_EC2/DepthDuration/v2_depth_duration_MTurk/v2_DepthDuration_HTML.html#423,423,1366,625,1366,768,8-29-2022,9-48-2,32,depth_duration_stimuli/002323_2014-06-28_20-01-54_260595134347_rgbf000051-resize_4/002323_2014-06-28_20-01-54_260595134347_rgbf000051-resize_4-target.png,250,3.7310000000000003,2,2298,250,meters,jsons/v1_VE250_randls_56.json,563155,854478,37,Woman
32,506066,DepthScenes,duration_manipulation_targetAtFixation,jsons/v1_VE250_randls_56.json,http://54.235.29.9/FacialAge/BNav_EC2/DepthDuration/v2_depth_duration_MTurk/v2_DepthDuration_HTML.html#423,423,1366,625,1366,768,8-29-2022,9-48-2,33,depth_duration_stimuli/001055_2014-06-08_18-45-35_260595134347_rgbf000111-resize_4/001055_2014-06-08_18-45-35_260595134347_rgbf000111-resize_4-target.png,250,2.4290000000000003,0,2859,249,meters,jsons/v1_VE250_randls_56.json,563155,854478,37,Woman
33,506066,DepthScenes,duration_manipulation_targetAtFixation,jsons/v1_VE250_randls_56.json,http://54.235.29.9/FacialAge/BNav_EC2/DepthDuration/v2_depth_duration_MTurk/v2_DepthDuration_HTML.html#423,423,1366,625,1366,768,8-29-2022,9-48-2,34,depth_duration_stimuli/000549_2014-06-08_22-10-24_260595134347_rgbf000247-resize_3/000549_2014-06-08_22-10-24_260595134347_rgbf000247-resize_3-target.png,250,1.841,0,2521,249,meters,jsons/v1_VE250_randls_56.json,563155,854478,37,Woman
34,506066,DepthScenes,duration_manipulation_targetAtFixation,jsons/v1_VE250_randls_56.json,http://54.235.29.9/FacialAge/BNav_EC2/DepthDuration/v2_depth_duration_MTurk/v2_DepthDuration_HTML.html#423,423,1366,625,1366,768,8-29-2022,9-48-2,35,depth_duration_stimuli/003492_2014-05-21_15-50-55_094959634447_rgbf000828-resize_1/003492_2014-05-21_15-50-55_094959634447_rgbf000828-resize_1-target.png,250,4.06875,1,2515,249,meters,jsons/v1_VE250_randls_56.json,563155,854478,37,Woman
35,506066,DepthScenes,duration_manipulation_targetAtFixation,jsons/v1_VE250_randls_56.json,http://54.235.29.9/FacialAge/BNav_EC2/DepthDuration/v2_depth_duration_MTurk/v2_DepthDuration_HTML.html#423,423,1366,625,1366,768,8-29-2022,9-48-2,36,depth_duration_stimuli/002568_2014-06-24_13-59-21_094959634447_rgbf000062-resize_4/002568_2014-06-24_13-59-21_094959634447_rgbf000062-resize_4-target.png,250,3.015,2,2058,249,meters,jsons/v1_VE250_randls_56.json,563155,854478,37,Woman
36,506066,DepthScenes,duration_manipulation_targetAtFixation,jsons/v1_VE250_randls_56.json,http://54.235.29.9/FacialAge/BNav_EC2/DepthDuration/v2_depth_duration_MTurk/v2_DepthDuration_HTML.html#423,423,1366,625,1366,768,8-29-2022,9-48-2,37,depth_duration_stimuli/002272_2014-06-28_18-53-56_260595134347_rgbf000067-resize_2/002272_2014-06-28_18-53-56_260595134347_rgbf000067-resize_2-target.png,250,1.138,2,3217,249,meters,jsons/v1_VE250_randls_56.json,563155,854478,37,Woman
37,506066,DepthScenes,duration_manipulation_targetAtFixation,jsons/v1_VE250_randls_56.json,http://54.235.29.9/FacialAge/BNav_EC2/DepthDuration/v2_depth_duration_MTurk/v2_DepthDuration_HTML.html#423,423,1366,625,1366,768,8-29-2022,9-48-2,38,depth_duration_stimuli/001571_2014-06-20_17-21-32_260595134347_rgbf000089-resize_1/001571_2014-06-20_17-21-32_260595134347_rgbf000089-resize_1-target.png,250,1.86,3,1979,249,meters,jsons/v1_VE250_randls_56.json,563155,854478,37,Woman
38,506066,DepthScenes,duration_manipulation_targetAtFixation,jsons/v1_VE250_randls_56.json,http://54.235.29.9/FacialAge/BNav_EC2/DepthDuration/v2_depth_duration_MTurk/v2_DepthDuration_HTML.html#423,423,1366,625,1366,768,8-29-2022,9-48-2,39,depth_duration_stimuli/000493_2014-06-09_21-01-18_260595134347_rgbf000196-resize_3/000493_2014-06-09_21-01-18_260595134347_rgbf000196-resize_3-target.png,250,3.44,1,2003,249,meters,jsons/v1_VE250_randls_56.json,563155,854478,37,Woman
39,506066,DepthScenes,duration_manipulation_targetAtFixation,jsons/v1_VE250_randls_56.json,http://54.235.29.9/FacialAge/BNav_EC2/DepthDuration/v2_depth_duration_MTurk/v2_DepthDuration_HTML.html#423,423,1366,625,1366,768,8-29-2022,9-48-2,40,depth_duration_stimuli/000191_2014-05-12_17-07-38_260595134347_rgbf000199-resize_0/000191_2014-05-12_17-07-38_260595134347_rgbf000199-resize_0-target.png,250,3.7995,3,2010,249,meters,jsons/v1_VE250_randls_56.json,563155,854478,37,Woman
40,506066,DepthScenes,duration_manipulation_targetAtFixation,jsons/v1_VE250_randls_56.json,http://54.235.29.9/FacialAge/BNav_EC2/DepthDuration/v2_depth_duration_MTurk/v2_DepthDuration_HTML.html#423,423,1366,625,1366,768,8-29-2022,9-48-2,41,depth_duration_stimuli/002905_2014-06-03_18-04-43_094959634447_rgbf000151-resize_2/002905_2014-06-03_18-04-43_094959634447_rgbf000151-resize_2-target.png,250,2.0295,3,2594,250,meters,jsons/v1_VE250_randls_56.json,563155,854478,37,Woman
41,506066,DepthScenes,duration_manipulation_targetAtFixation,jsons/v1_VE250_randls_56.json,http://54.235.29.9/FacialAge/BNav_EC2/DepthDuration/v2_depth_duration_MTurk/v2_DepthDuration_HTML.html#423,423,1366,625,1366,768,8-29-2022,9-48-2,42,depth_duration_stimuli/003423_2014-05-21_10-23-26_094959634447_rgbf002665-resize_2/003423_2014-05-21_10-23-26_094959634447_rgbf002665-resize_2-target.png,250,3.2575,4,2858,250,meters,jsons/v1_VE250_randls_56.json,563155,854478,37,Woman
42,506066,DepthScenes,duration_manipulation_targetAtFixation,jsons/v1_VE250_randls_56.json,http://54.235.29.9/FacialAge/BNav_EC2/DepthDuration/v2_depth_duration_MTurk/v2_DepthDuration_HTML.html#423,423,1366,625,1366,768,8-29-2022,9-48-2,43,depth_duration_stimuli/000878_2014-06-08_22-52-45_260595134347_rgbf000045-resize_2/000878_2014-06-08_22-52-45_260595134347_rgbf000045-resize_2-target.png,250,2.092,6,2747,250,meters,jsons/v1_VE250_randls_56.json,563155,854478,37,Woman
43,506066,DepthScenes,duration_manipulation_targetAtFixation,jsons/v1_VE250_randls_56.json,http://54.235.29.9/FacialAge/BNav_EC2/DepthDuration/v2_depth_duration_MTurk/v2_DepthDuration_HTML.html#423,423,1366,625,1366,768,8-29-2022,9-48-2,44,depth_duration_stimuli/002953_2014-06-08_17-32-18_094959634447_rgbf000059-resize_5/002953_2014-06-08_17-32-18_094959634447_rgbf000059-resize_5-target.png,250,1.551,3,2449,249,meters,jsons/v1_VE250_randls_56.json,563155,854478,37,Woman
44,506066,DepthScenes,duration_manipulation_targetAtFixation,jsons/v1_VE250_randls_56.json,http://54.235.29.9/FacialAge/BNav_EC2/DepthDuration/v2_depth_duration_MTurk/v2_DepthDuration_HTML.html#423,423,1366,625,1366,768,8-29-2022,9-48-2,45,depth_duration_stimuli/000787_2014-06-08_22-33-53_260595134347_rgbf000175-resize_1/000787_2014-06-08_22-33-53_260595134347_rgbf000175-resize-original.jpg,250,4.784,2,3267,250,meters,jsons/v1_VE250_randls_56.json,563155,854478,37,Woman
45,506066,DepthScenes,duration_manipulation_targetAtFixation,jsons/v1_VE250_randls_56.json,http://54.235.29.9/FacialAge/BNav_EC2/DepthDuration/v2_depth_duration_MTurk/v2_DepthDuration_HTML.html#423,423,1366,625,1366,768,8-29-2022,9-48-2,46,depth_duration_stimuli/002153_2014-06-25_21-27-18_260595134347_rgbf000038-resize_5/002153_2014-06-25_21-27-18_260595134347_rgbf000038-resize_5-target.png,250,2.505,2,2362,249,meters,jsons/v1_VE250_randls_56.json,563155,854478,37,Woman
46,506066,DepthScenes,duration_manipulation_targetAtFixation,jsons/v1_VE250_randls_56.json,http://54.235.29.9/FacialAge/BNav_EC2/DepthDuration/v2_depth_duration_MTurk/v2_DepthDuration_HTML.html#423,423,1366,625,1366,768,8-29-2022,9-48-2,47,depth_duration_stimuli/002660_2014-06-13_15-44-18_094959634447_rgbf001878-resize_2/002660_2014-06-13_15-44-18_094959634447_rgbf001878-resize_2-target.png,250,3.576,4,2345,249,meters,jsons/v1_VE250_randls_56.json,563155,854478,37,Woman
47,506066,DepthScenes,duration_manipulation_targetAtFixation,jsons/v1_VE250_randls_56.json,http://54.235.29.9/FacialAge/BNav_EC2/DepthDuration/v2_depth_duration_MTurk/v2_DepthDuration_HTML.html#423,423,1366,625,1366,768,8-29-2022,9-48-2,48,depth_duration_stimuli/000929_2014-06-09_16-33-19_260595134347_rgbf000139-resize_0/000929_2014-06-09_16-33-19_260595134347_rgbf000139-resize_0-target.png,250,2.8680000000000003,2,3062,249,meters,jsons/v1_VE250_randls_56.json,563155,854478,37,Woman
48,506066,DepthScenes,duration_manipulation_targetAtFixation,jsons/v1_VE250_randls_56.json,http://54.235.29.9/FacialAge/BNav_EC2/DepthDuration/v2_depth_duration_MTurk/v2_DepthDuration_HTML.html#423,423,1366,625,1366,768,8-29-2022,9-48-2,49,depth_duration_stimuli/000457_2014-06-08_16-52-43_260595134347_rgbf000199-resize_1/000457_2014-06-08_16-52-43_260595134347_rgbf000199-resize_1-target.png,250,3.6489999999999996,3,2417,250,meters,jsons/v1_VE250_randls_56.json,563155,854478,37,Woman
49,506066,DepthScenes,duration_manipulation_targetAtFixation,jsons/v1_VE250_randls_56.json,http://54.235.29.9/FacialAge/BNav_EC2/DepthDuration/v2_depth_duration_MTurk/v2_DepthDuration_HTML.html#423,423,1366,625,1366,768,8-29-2022,9-48-2,50,depth_duration_stimuli/001167_2014-06-17_15-38-07_260595134347_rgbf000108-resize_0/001167_2014-06-17_15-38-07_260595134347_rgbf000108-resize_0-target.png,250,1.8505,4,2145,249,meters,jsons/v1_VE250_randls_56.json,563155,854478,37,Woman
50,506066,DepthScenes,duration_manipulation_targetAtFixation,jsons/v1_VE250_randls_56.json,http://54.235.29.9/FacialAge/BNav_EC2/DepthDuration/v2_depth_duration_MTurk/v2_DepthDuration_HTML.html#423,423,1366,625,1366,768,8-29-2022,9-48-2,51,depth_duration_stimuli/003587_2014-05-23_16-48-02_094959634447_rgbf002384-resize_2/003587_2014-05-23_16-48-02_094959634447_rgbf002384-resize_2-target.png,250,1.357,2,2922,249,meters,jsons/v1_VE250_randls_56.json,563155,854478,37,Woman
51,506066,DepthScenes,duration_manipulation_targetAtFixation,jsons/v1_VE250_randls_56.json,http://54.235.29.9/FacialAge/BNav_EC2/DepthDuration/v2_depth_duration_MTurk/v2_DepthDuration_HTML.html#423,423,1366,625,1366,768,8-29-2022,9-48-2,52,depth_duration_stimuli/001059_2014-06-08_21-53-27_260595134347_rgbf000061-resize_4/001059_2014-06-08_21-53-27_260595134347_rgbf000061-resize_4-target.png,250,2.4185,1,2385,249,meters,jsons/v1_VE250_randls_56.json,563155,854478,37,Woman
52,506066,DepthScenes,duration_manipulation_targetAtFixation,jsons/v1_VE250_randls_56.json,http://54.235.29.9/FacialAge/BNav_EC2/DepthDuration/v2_depth_duration_MTurk/v2_DepthDuration_HTML.html#423,423,1366,625,1366,768,8-29-2022,9-48-2,53,depth_duration_stimuli/001032_2014-06-08_13-23-17_260595134347_rgbf000021-resize_3/001032_2014-06-08_13-23-17_260595134347_rgbf000021-resize_3-target.png,250,3.2725,3,2530,249,meters,jsons/v1_VE250_randls_56.json,563155,854478,37,Woman
53,506066,DepthScenes,duration_manipulation_targetAtFixation,jsons/v1_VE250_randls_56.json,http://54.235.29.9/FacialAge/BNav_EC2/DepthDuration/v2_depth_duration_MTurk/v2_DepthDuration_HTML.html#423,423,1366,625,1366,768,8-29-2022,9-48-2,54,depth_duration_stimuli/002445_2014-06-28_20-32-16_260595134347_rgbf000029-resize_4/002445_2014-06-28_20-32-16_260595134347_rgbf000029-resize_4-target.png,250,2.5315,2,2186,248,meters,jsons/v1_VE250_randls_56.json,563155,854478,37,Woman
54,506066,DepthScenes,duration_manipulation_targetAtFixation,jsons/v1_VE250_randls_56.json,http://54.235.29.9/FacialAge/BNav_EC2/DepthDuration/v2_depth_duration_MTurk/v2_DepthDuration_HTML.html#423,423,1366,625,1366,768,8-29-2022,9-48-2,55,depth_duration_stimuli/000780_2014-06-08_22-28-29_260595134347_rgbf000126-resize_1/000780_2014-06-08_22-28-29_260595134347_rgbf000126-resize_1-target.png,250,3.3825,4,2353,249,meters,jsons/v1_VE250_randls_56.json,563155,854478,37,Woman
55,506066,DepthScenes,duration_manipulation_targetAtFixation,jsons/v1_VE250_randls_56.json,http://54.235.29.9/FacialAge/BNav_EC2/DepthDuration/v2_depth_duration_MTurk/v2_DepthDuration_HTML.html#423,423,1366,625,1366,768,8-29-2022,9-48-2,56,depth_duration_stimuli/000758_2014-06-08_22-05-08_260595134347_rgbf000085-resize_0/000758_2014-06-08_22-05-08_260595134347_rgbf000085-resize_0-target.png,250,3.3810000000000002,3,3459,249,meters,jsons/v1_VE250_randls_56.json,563155,854478,37,Woman
56,506066,DepthScenes,duration_manipulation_targetAtFixation,jsons/v1_VE250_randls_56.json,http://54.235.29.9/FacialAge/BNav_EC2/DepthDuration/v2_depth_duration_MTurk/v2_DepthDuration_HTML.html#423,423,1366,625,1366,768,8-29-2022,9-48-2,57,depth_duration_stimuli/000854_2014-06-09_19-43-13_260595134347_rgbf000066-resize_0/000854_2014-06-09_19-43-13_260595134347_rgbf000066-resize_0-target.png,250,3.068,1,2771,249,meters,jsons/v1_VE250_randls_56.json,563155,854478,37,Woman
57,506066,DepthScenes,duration_manipulation_targetAtFixation,jsons/v1_VE250_randls_56.json,http://54.235.29.9/FacialAge/BNav_EC2/DepthDuration/v2_depth_duration_MTurk/v2_DepthDuration_HTML.html#423,423,1366,625,1366,768,8-29-2022,9-48-2,58,depth_duration_stimuli/000447_2014-06-08_16-15-46_260595134347_rgbf000130-resize_1/000447_2014-06-08_16-15-46_260595134347_rgbf000130-resize_1-target.png,250,4.479,2,1872,248,meters,jsons/v1_VE250_randls_56.json,563155,854478,37,Woman
58,506066,DepthScenes,duration_manipulation_targetAtFixation,jsons/v1_VE250_randls_56.json,http://54.235.29.9/FacialAge/BNav_EC2/DepthDuration/v2_depth_duration_MTurk/v2_DepthDuration_HTML.html#423,423,1366,625,1366,768,8-29-2022,9-48-2,59,depth_duration_stimuli/001447_2014-06-19_17-00-32_260595134347_rgbf000082-resize_5/001447_2014-06-19_17-00-32_260595134347_rgbf000082-resize_5-target.png,250,4.13775,3,2217,249,meters,jsons/v1_VE250_randls_56.json,563155,854478,37,Woman
59,506066,DepthScenes,duration_manipulation_targetAtFixation,jsons/v1_VE250_randls_56.json,http://54.235.29.9/FacialAge/BNav_EC2/DepthDuration/v2_depth_duration_MTurk/v2_DepthDuration_HTML.html#423,423,1366,625,1366,768,8-29-2022,9-48-2,60,depth_duration_stimuli/001110_2014-06-15_17-25-28_260595134347_rgbf000150-resize_1/001110_2014-06-15_17-25-28_260595134347_rgbf000150-resize_1-target.png,250,1.7115,4,2835,250,meters,jsons/v1_VE250_randls_56.json,563155,854478,37,Woman
60,506066,DepthScenes,duration_manipulation_targetAtFixation,jsons/v1_VE250_randls_56.json,http://54.235.29.9/FacialAge/BNav_EC2/DepthDuration/v2_depth_duration_MTurk/v2_DepthDuration_HTML.html#423,423,1366,625,1366,768,8-29-2022,9-48-2,61,depth_duration_stimuli/000927_2014-06-09_16-32-30_260595134347_rgbf000123-resize_3/000927_2014-06-09_16-32-30_260595134347_rgbf000123-resize_3-target.png,250,2.6785,5,2224,250,meters,jsons/v1_VE250_randls_56.json,563155,854478,37,Woman
61,506066,DepthScenes,duration_manipulation_targetAtFixation,jsons/v1_VE250_randls_56.json,http://54.235.29.9/FacialAge/BNav_EC2/DepthDuration/v2_depth_duration_MTurk/v2_DepthDuration_HTML.html#423,423,1366,625,1366,768,8-29-2022,9-48-2,62,depth_duration_stimuli/002375_2014-06-28_20-13-44_260595134347_rgbf000032-resize_1/002375_2014-06-28_20-13-44_260595134347_rgbf000032-resize_1-target.png,250,4.0175,4,2547,250,meters,jsons/v1_VE250_randls_56.json,563155,854478,37,Woman
62,506066,DepthScenes,duration_manipulation_targetAtFixation,jsons/v1_VE250_randls_56.json,http://54.235.29.9/FacialAge/BNav_EC2/DepthDuration/v2_depth_duration_MTurk/v2_DepthDuration_HTML.html#423,423,1366,625,1366,768,8-29-2022,9-48-2,63,depth_duration_stimuli/002657_2014-06-13_15-29-54_094959634447_rgbf000150-resize_1/002657_2014-06-13_15-29-54_094959634447_rgbf000150-resize_1-target.png,250,4.919,5,2481,249,meters,jsons/v1_VE250_randls_56.json,563155,854478,37,Woman
63,506066,DepthScenes,duration_manipulation_targetAtFixation,jsons/v1_VE250_randls_56.json,http://54.235.29.9/FacialAge/BNav_EC2/DepthDuration/v2_depth_duration_MTurk/v2_DepthDuration_HTML.html#423,423,1366,625,1366,768,8-29-2022,9-48-2,64,depth_duration_stimuli/002213_2014-06-28_18-37-58_260595134347_rgbf000055-resize_1/002213_2014-06-28_18-37-58_260595134347_rgbf000055-resize_1-target.png,250,3.62,6,2730,248,meters,jsons/v1_VE250_randls_56.json,563155,854478,37,Woman
64,506066,DepthScenes,duration_manipulation_targetAtFixation,jsons/v1_VE250_randls_56.json,http://54.235.29.9/FacialAge/BNav_EC2/DepthDuration/v2_depth_duration_MTurk/v2_DepthDuration_HTML.html#423,423,1366,625,1366,768,8-29-2022,9-48-2,65,depth_duration_stimuli/000691_2014-06-08_13-08-50_260595134347_rgbf000132-resize_3/000691_2014-06-08_13-08-50_260595134347_rgbf000132-resize_3-target.png,250,4.1530000000000005,2,2922,250,meters,jsons/v1_VE250_randls_56.json,563155,854478,37,Woman
65,506066,DepthScenes,duration_manipulation_targetAtFixation,jsons/v1_VE250_randls_56.json,http://54.235.29.9/FacialAge/BNav_EC2/DepthDuration/v2_depth_duration_MTurk/v2_DepthDuration_HTML.html#423,423,1366,625,1366,768,8-29-2022,9-48-2,66,depth_duration_stimuli/001222_2014-06-17_16-24-06_260595134347_rgbf000073-resize_0/001222_2014-06-17_16-24-06_260595134347_rgbf000073-resize-original.jpg,250,1.4385,0,2816,249,meters,jsons/v1_VE250_randls_56.json,563155,854478,37,Woman
66,506066,DepthScenes,duration_manipulation_targetAtFixation,jsons/v1_VE250_randls_56.json,http://54.235.29.9/FacialAge/BNav_EC2/DepthDuration/v2_depth_duration_MTurk/v2_DepthDuration_HTML.html#423,423,1366,625,1366,768,8-29-2022,9-48-2,67,depth_duration_stimuli/000469_2014-06-09_19-42-10_260595134347_rgbf000081-resize_1/000469_2014-06-09_19-42-10_260595134347_rgbf000081-resize_1-target.png,250,1.652,3,2685,249,meters,jsons/v1_VE250_randls_56.json,563155,854478,37,Woman
67,506066,DepthScenes,duration_manipulation_targetAtFixation,jsons/v1_VE250_randls_56.json,http://54.235.29.9/FacialAge/BNav_EC2/DepthDuration/v2_depth_duration_MTurk/v2_DepthDuration_HTML.html#423,423,1366,625,1366,768,8-29-2022,9-48-2,68,depth_duration_stimuli/000483_2014-06-09_20-41-45_260595134347_rgbf000116-resize_4/000483_2014-06-09_20-41-45_260595134347_rgbf000116-resize_4-target.png,250,1.337,2,2401,250,meters,jsons/v1_VE250_randls_56.json,563155,854478,37,Woman
68,506066,DepthScenes,duration_manipulation_targetAtFixation,jsons/v1_VE250_randls_56.json,http://54.235.29.9/FacialAge/BNav_EC2/DepthDuration/v2_depth_duration_MTurk/v2_DepthDuration_HTML.html#423,423,1366,625,1366,768,8-29-2022,9-48-2,69,depth_duration_stimuli/000642_2014-06-08_16-59-25_260595134347_rgbf000098-resize_2/000642_2014-06-08_16-59-25_260595134347_rgbf000098-resize_2-target.png,250,2.8815,3,2420,249,meters,jsons/v1_VE250_randls_56.json,563155,854478,37,Woman
69,506066,DepthScenes,duration_manipulation_targetAtFixation,jsons/v1_VE250_randls_56.json,http://54.235.29.9/FacialAge/BNav_EC2/DepthDuration/v2_depth_duration_MTurk/v2_DepthDuration_HTML.html#423,423,1366,625,1366,768,8-29-2022,9-48-2,70,depth_duration_stimuli/002425_2014-06-28_20-27-29_260595134347_rgbf000031-resize_8/002425_2014-06-28_20-27-29_260595134347_rgbf000031-resize_8-target.png,250,3.8960000000000004,1,2417,249,meters,jsons/v1_VE250_randls_56.json,563155,854478,37,Woman
70,506066,DepthScenes,duration_manipulation_targetAtFixation,jsons/v1_VE250_randls_56.json,http://54.235.29.9/FacialAge/BNav_EC2/DepthDuration/v2_depth_duration_MTurk/v2_DepthDuration_HTML.html#423,423,1366,625,1366,768,8-29-2022,9-48-2,71,depth_duration_stimuli/002118_2014-06-25_20-32-08_260595134347_rgbf000078-resize_1/002118_2014-06-25_20-32-08_260595134347_rgbf000078-resize_1-target.png,250,2.6460000000000004,2,2651,250,meters,jsons/v1_VE250_randls_56.json,563155,854478,37,Woman
71,506066,DepthScenes,duration_manipulation_targetAtFixation,jsons/v1_VE250_randls_56.json,http://54.235.29.9/FacialAge/BNav_EC2/DepthDuration/v2_depth_duration_MTurk/v2_DepthDuration_HTML.html#423,423,1366,625,1366,768,8-29-2022,9-48-2,72,depth_duration_stimuli/001516_2014-06-20_16-25-09_260595134347_rgbf000076-resize_2/001516_2014-06-20_16-25-09_260595134347_rgbf000076-resize_2-target.png,250,1.7445,3,2321,250,meters,jsons/v1_VE250_randls_56.json,563155,854478,37,Woman
72,506066,DepthScenes,duration_manipulation_targetAtFixation,jsons/v1_VE250_randls_56.json,http://54.235.29.9/FacialAge/BNav_EC2/DepthDuration/v2_depth_duration_MTurk/v2_DepthDuration_HTML.html#423,423,1366,625,1366,768,8-29-2022,9-48-2,73,depth_duration_stimuli/000486_2014-06-09_20-47-20_260595134347_rgbf000143-resize_2/000486_2014-06-09_20-47-20_260595134347_rgbf000143-resize_2-target.png,250,4.8325,3,2435,250,meters,jsons/v1_VE250_randls_56.json,563155,854478,37,Woman
73,506066,DepthScenes,duration_manipulation_targetAtFixation,jsons/v1_VE250_randls_56.json,http://54.235.29.9/FacialAge/BNav_EC2/DepthDuration/v2_depth_duration_MTurk/v2_DepthDuration_HTML.html#423,423,1366,625,1366,768,8-29-2022,9-48-2,74,depth_duration_stimuli/003083_2014-06-15_15-21-03_094959634447_rgbf000063-resize_1/003083_2014-06-15_15-21-03_094959634447_rgbf000063-resize_1-target.png,250,4.1405,4,2216,249,meters,jsons/v1_VE250_randls_56.json,563155,854478,37,Woman
74,506066,DepthScenes,duration_manipulation_targetAtFixation,jsons/v1_VE250_randls_56.json,http://54.235.29.9/FacialAge/BNav_EC2/DepthDuration/v2_depth_duration_MTurk/v2_DepthDuration_HTML.html#423,423,1366,625,1366,768,8-29-2022,9-48-2,75,depth_duration_stimuli/000788_2014-06-08_22-34-36_260595134347_rgbf000131-resize_1/000788_2014-06-08_22-34-36_260595134347_rgbf000131-resize_1-target.png,250,3.359,4,2291,249,meters,jsons/v1_VE250_randls_56.json,563155,854478,37,Woman
75,506066,DepthScenes,duration_manipulation_targetAtFixation,jsons/v1_VE250_randls_56.json,http://54.235.29.9/FacialAge/BNav_EC2/DepthDuration/v2_depth_duration_MTurk/v2_DepthDuration_HTML.html#423,423,1366,625,1366,768,8-29-2022,9-48-2,76,depth_duration_stimuli/001235_2014-06-17_16-37-36_260595134347_rgbf000084-resize_4/001235_2014-06-17_16-37-36_260595134347_rgbf000084-resize_4-target.png,250,3.6605,5,2314,249,meters,jsons/v1_VE250_randls_56.json,563155,854478,37,Woman
76,506066,DepthScenes,duration_manipulation_targetAtFixation,jsons/v1_VE250_randls_56.json,http://54.235.29.9/FacialAge/BNav_EC2/DepthDuration/v2_depth_duration_MTurk/v2_DepthDuration_HTML.html#423,423,1366,625,1366,768,8-29-2022,9-48-2,77,depth_duration_stimuli/001133_2014-06-17_14-49-16_260595134347_rgbf000100-resize_0/001133_2014-06-17_14-49-16_260595134347_rgbf000100-resize_0-target.png,250,4.2115,1,2778,249,meters,jsons/v1_VE250_randls_56.json,563155,854478,37,Woman
77,506066,DepthScenes,duration_manipulation_targetAtFixation,jsons/v1_VE250_randls_56.json,http://54.235.29.9/FacialAge/BNav_EC2/DepthDuration/v2_depth_duration_MTurk/v2_DepthDuration_HTML.html#423,423,1366,625,1366,768,8-29-2022,9-48-2,78,depth_duration_stimuli/001132_2014-06-17_14-48-54_260595134347_rgbf000100-resize_2/001132_2014-06-17_14-48-54_260595134347_rgbf000100-resize_2-target.png,250,3.753,3,2611,249,meters,jsons/v1_VE250_randls_56.json,563155,854478,37,Woman
78,506066,DepthScenes,duration_manipulation_targetAtFixation,jsons/v1_VE250_randls_56.json,http://54.235.29.9/FacialAge/BNav_EC2/DepthDuration/v2_depth_duration_MTurk/v2_DepthDuration_HTML.html#423,423,1366,625,1366,768,8-29-2022,9-48-2,79,depth_duration_stimuli/002057_2014-06-24_21-00-13_260595134347_rgbf000120-resize_1/002057_2014-06-24_21-00-13_260595134347_rgbf000120-resize_1-target.png,250,2.967,6,2481,250,meters,jsons/v1_VE250_randls_56.json,563155,854478,37,Woman
79,506066,DepthScenes,duration_manipulation_targetAtFixation,jsons/v1_VE250_randls_56.json,http://54.235.29.9/FacialAge/BNav_EC2/DepthDuration/v2_depth_duration_MTurk/v2_DepthDuration_HTML.html#423,423,1366,625,1366,768,8-29-2022,9-48-2,80,depth_duration_stimuli/000709_2014-06-08_13-51-55_260595134347_rgbf000068-resize_3/000709_2014-06-08_13-51-55_260595134347_rgbf000068-resize_3-target.png,250,1.8030000000000002,7,3019,249,meters,jsons/v1_VE250_randls_56.json,563155,854478,37,Woman
80,506066,DepthScenes,duration_manipulation_targetAtFixation,jsons/v1_VE250_randls_56.json,http://54.235.29.9/FacialAge/BNav_EC2/DepthDuration/v2_depth_duration_MTurk/v2_DepthDuration_HTML.html#423,423,1366,625,1366,768,8-29-2022,9-48-2,81,depth_duration_stimuli/001199_2014-06-17_16-03-48_260595134347_rgbf000077-resize_0/001199_2014-06-17_16-03-48_260595134347_rgbf000077-resize_0-target.png,250,3.4375,5,2611,250,meters,jsons/v1_VE250_randls_56.json,563155,854478,37,Woman
81,506066,DepthScenes,duration_manipulation_targetAtFixation,jsons/v1_VE250_randls_56.json,http://54.235.29.9/FacialAge/BNav_EC2/DepthDuration/v2_depth_duration_MTurk/v2_DepthDuration_HTML.html#423,423,1366,625,1366,768,8-29-2022,9-48-2,82,depth_duration_stimuli/000502_2014-06-08_23-02-32_260595134347_rgbf000063-resize_4/000502_2014-06-08_23-02-32_260595134347_rgbf000063-resize_4-target.png,250,2.431,2,2456,249,meters,jsons/v1_VE250_randls_56.json,563155,854478,37,Woman
82,506066,DepthScenes,duration_manipulation_targetAtFixation,jsons/v1_VE250_randls_56.json,http://54.235.29.9/FacialAge/BNav_EC2/DepthDuration/v2_depth_duration_MTurk/v2_DepthDuration_HTML.html#423,423,1366,625,1366,768,8-29-2022,9-48-2,83,depth_duration_stimuli/002630_2014-06-24_14-47-50_094959634447_rgbf000055-resize_1/002630_2014-06-24_14-47-50_094959634447_rgbf000055-resize_1-target.png,250,3.0095,3,2833,249,meters,jsons/v1_VE250_randls_56.json,563155,854478,37,Woman
83,506066,DepthScenes,duration_manipulation_targetAtFixation,jsons/v1_VE250_randls_56.json,http://54.235.29.9/FacialAge/BNav_EC2/DepthDuration/v2_depth_duration_MTurk/v2_DepthDuration_HTML.html#423,423,1366,625,1366,768,8-29-2022,9-48-2,84,depth_duration_stimuli/002758_2014-06-22_19-11-20_094959634447_rgbf000128-resize_1/002758_2014-06-22_19-11-20_094959634447_rgbf000128-resize_1-target.png,250,2.555,4,2625,249,meters,jsons/v1_VE250_randls_56.json,563155,854478,37,Woman
84,506066,DepthScenes,duration_manipulation_targetAtFixation,jsons/v1_VE250_randls_56.json,http://54.235.29.9/FacialAge/BNav_EC2/DepthDuration/v2_depth_duration_MTurk/v2_DepthDuration_HTML.html#423,423,1366,625,1366,768,8-29-2022,9-48-2,85,depth_duration_stimuli/001806_2014-06-26_20-50-20_260595134347_rgbf000091-resize_1/001806_2014-06-26_20-50-20_260595134347_rgbf000091-resize_1-target.png,250,2.7305,2,2194,249,meters,jsons/v1_VE250_randls_56.json,563155,854478,37,Woman
85,506066,DepthScenes,duration_manipulation_targetAtFixation,jsons/v1_VE250_randls_56.json,http://54.235.29.9/FacialAge/BNav_EC2/DepthDuration/v2_depth_duration_MTurk/v2_DepthDuration_HTML.html#423,423,1366,625,1366,768,8-29-2022,9-48-2,86,depth_duration_stimuli/001617_2014-06-20_11-35-32_260595134347_rgbf000066-resize_1/001617_2014-06-20_11-35-32_260595134347_rgbf000066-resize_1-target.png,250,3.7910000000000004,5,2227,250,meters,jsons/v1_VE250_randls_56.json,563155,854478,37,Woman
86,506066,DepthScenes,duration_manipulation_targetAtFixation,jsons/v1_VE250_randls_56.json,http://54.235.29.9/FacialAge/BNav_EC2/DepthDuration/v2_depth_duration_MTurk/v2_DepthDuration_HTML.html#423,423,1366,625,1366,768,8-29-2022,9-48-2,87,depth_duration_stimuli/001056_2014-06-08_18-46-44_260595134347_rgbf000068-resize_0/001056_2014-06-08_18-46-44_260595134347_rgbf000068-resize_0-target.png,250,2.6625,3,2587,249,meters,jsons/v1_VE250_randls_56.json,563155,854478,37,Woman
87,506066,DepthScenes,duration_manipulation_targetAtFixation,jsons/v1_VE250_randls_56.json,http://54.235.29.9/FacialAge/BNav_EC2/DepthDuration/v2_depth_duration_MTurk/v2_DepthDuration_HTML.html#423,423,1366,625,1366,768,8-29-2022,9-48-2,88,depth_duration_stimuli/002199_2014-06-28_18-33-56_260595134347_rgbf000074-resize_0/002199_2014-06-28_18-33-56_260595134347_rgbf000074-resize_0-target.png,250,1.996,2,2412,249,meters,jsons/v1_VE250_randls_56.json,563155,854478,37,Woman
88,506066,DepthScenes,duration_manipulation_targetAtFixation,jsons/v1_VE250_randls_56.json,http://54.235.29.9/FacialAge/BNav_EC2/DepthDuration/v2_depth_duration_MTurk/v2_DepthDuration_HTML.html#423,423,1366,625,1366,768,8-29-2022,9-48-2,89,depth_duration_stimuli/002549_2014-06-24_13-41-39_094959634447_rgbf000022-resize_3/002549_2014-06-24_13-41-39_094959634447_rgbf000022-resize_3-target.png,250,1.476,1,2500,249,meters,jsons/v1_VE250_randls_56.json,563155,854478,37,Woman
89,506066,DepthScenes,duration_manipulation_targetAtFixation,jsons/v1_VE250_randls_56.json,http://54.235.29.9/FacialAge/BNav_EC2/DepthDuration/v2_depth_duration_MTurk/v2_DepthDuration_HTML.html#423,423,1366,625,1366,768,8-29-2022,9-48-2,90,depth_duration_stimuli/002750_2014-06-22_19-08-03_094959634447_rgbf000094-resize_4/002750_2014-06-22_19-08-03_094959634447_rgbf000094-resize_4-target.png,250,2.354,4,2792,249,meters,jsons/v1_VE250_randls_56.json,563155,854478,37,Woman
90,506066,DepthScenes,duration_manipulation_targetAtFixation,jsons/v1_VE250_randls_56.json,http://54.235.29.9/FacialAge/BNav_EC2/DepthDuration/v2_depth_duration_MTurk/v2_DepthDuration_HTML.html#423,423,1366,625,1366,768,8-29-2022,9-48-2,91,depth_duration_stimuli/002748_2014-06-22_19-07-22_094959634447_rgbf000078-resize_1/002748_2014-06-22_19-07-22_094959634447_rgbf000078-resize_1-target.png,250,4.6705,6,2489,249,meters,jsons/v1_VE250_randls_56.json,563155,854478,37,Woman
91,506066,DepthScenes,duration_manipulation_targetAtFixation,jsons/v1_VE250_randls_56.json,http://54.235.29.9/FacialAge/BNav_EC2/DepthDuration/v2_depth_duration_MTurk/v2_DepthDuration_HTML.html#423,423,1366,625,1366,768,8-29-2022,9-48-2,92,depth_duration_stimuli/002995_2014-06-15_12-31-26_094959634447_rgbf000150-resize_1/002995_2014-06-15_12-31-26_094959634447_rgbf000150-resize_1-target.png,250,3.8360000000000003,5,2250,249,meters,jsons/v1_VE250_randls_56.json,563155,854478,37,Woman
92,506066,DepthScenes,duration_manipulation_targetAtFixation,jsons/v1_VE250_randls_56.json,http://54.235.29.9/FacialAge/BNav_EC2/DepthDuration/v2_depth_duration_MTurk/v2_DepthDuration_HTML.html#423,423,1366,625,1366,768,8-29-2022,9-48-2,93,depth_duration_stimuli/001011_2014-06-08_23-18-54_260595134347_rgbf000044-resize_4/001011_2014-06-08_23-18-54_260595134347_rgbf000044-resize_4-target.png,250,2.4730000000000003,2,3155,249,meters,jsons/v1_VE250_randls_56.json,563155,854478,37,Woman
93,506066,DepthScenes,duration_manipulation_targetAtFixation,jsons/v1_VE250_randls_56.json,http://54.235.29.9/FacialAge/BNav_EC2/DepthDuration/v2_depth_duration_MTurk/v2_DepthDuration_HTML.html#423,423,1366,625,1366,768,8-29-2022,9-48-2,94,depth_duration_stimuli/002875_2014-06-01_15-19-00_094959634447_rgbf000151-resize_1/002875_2014-06-01_15-19-00_094959634447_rgbf000151-resize_1-target.png,250,1.9675,3,2442,248,meters,jsons/v1_VE250_randls_56.json,563155,854478,37,Woman
94,506066,DepthScenes,duration_manipulation_targetAtFixation,jsons/v1_VE250_randls_56.json,http://54.235.29.9/FacialAge/BNav_EC2/DepthDuration/v2_depth_duration_MTurk/v2_DepthDuration_HTML.html#423,423,1366,625,1366,768,8-29-2022,9-48-2,95,depth_duration_stimuli/003070_2014-06-15_14-58-27_094959634447_rgbf000150-resize_3/003070_2014-06-15_14-58-27_094959634447_rgbf000150-resize_3-target.png,250,2.9415,5,2306,250,meters,jsons/v1_VE250_randls_56.json,563155,854478,37,Woman
95,506066,DepthScenes,duration_manipulation_targetAtFixation,jsons/v1_VE250_randls_56.json,http://54.235.29.9/FacialAge/BNav_EC2/DepthDuration/v2_depth_duration_MTurk/v2_DepthDuration_HTML.html#423,423,1366,625,1366,768,8-29-2022,9-48-2,96,depth_duration_stimuli/000943_2014-06-09_19-31-07_260595134347_rgbf000128-resize_1/000943_2014-06-09_19-31-07_260595134347_rgbf000128-resize_1-target.png,250,1.9765,4,2128,250,meters,jsons/v1_VE250_randls_56.json,563155,854478,37,Woman
96,506066,DepthScenes,duration_manipulation_targetAtFixation,jsons/v1_VE250_randls_56.json,http://54.235.29.9/FacialAge/BNav_EC2/DepthDuration/v2_depth_duration_MTurk/v2_DepthDuration_HTML.html#423,423,1366,625,1366,768,8-29-2022,9-48-2,97,depth_duration_stimuli/002989_2014-06-15_12-25-03_094959634447_rgbf000150-resize_3/002989_2014-06-15_12-25-03_094959634447_rgbf000150-resize_3-target.png,250,4.1975,6,2298,250,meters,jsons/v1_VE250_randls_56.json,563155,854478,37,Woman
97,506066,DepthScenes,duration_manipulation_targetAtFixation,jsons/v1_VE250_randls_56.json,http://54.235.29.9/FacialAge/BNav_EC2/DepthDuration/v2_depth_duration_MTurk/v2_DepthDuration_HTML.html#423,423,1366,625,1366,768,8-29-2022,9-48-2,98,depth_duration_stimuli/000866_2014-06-09_20-45-42_260595134347_rgbf000139-resize_1/000866_2014-06-09_20-45-42_260595134347_rgbf000139-resize_1-target.png,250,3.2155,5,2176,249,meters,jsons/v1_VE250_randls_56.json,563155,854478,37,Woman
98,506066,DepthScenes,duration_manipulation_targetAtFixation,jsons/v1_VE250_randls_56.json,http://54.235.29.9/FacialAge/BNav_EC2/DepthDuration/v2_depth_duration_MTurk/v2_DepthDuration_HTML.html#423,423,1366,625,1366,768,8-29-2022,9-48-2,99,depth_duration_stimuli/001540_2014-06-20_17-01-05_260595134347_rgbf000086-resize_2/001540_2014-06-20_17-01-05_260595134347_rgbf000086-resize-original.jpg,250,1.459,0,2490,249,meters,jsons/v1_VE250_randls_56.json,563155,854478,37,Woman
99,506066,DepthScenes,duration_manipulation_targetAtFixation,jsons/v1_VE250_randls_56.json,http://54.235.29.9/FacialAge/BNav_EC2/DepthDuration/v2_depth_duration_MTurk/v2_DepthDuration_HTML.html#423,423,1366,625,1366,768,8-29-2022,9-48-2,100,depth_duration_stimuli/002279_2014-06-28_18-55-32_260595134347_rgbf000040-resize_5/002279_2014-06-28_18-55-32_260595134347_rgbf000040-resize_5-target.png,250,1.5043333333333,2,2931,249,meters,jsons/v1_VE250_randls_56.json,563155,854478,37,Woman
100,506066,DepthScenes,duration_manipulation_targetAtFixation,jsons/v1_VE250_randls_56.json,http://54.235.29.9/FacialAge/BNav_EC2/DepthDuration/v2_depth_duration_MTurk/v2_DepthDuration_HTML.html#423,423,1366,625,1366,768,8-29-2022,9-48-2,101,depth_duration_stimuli/000635_2014-06-08_16-38-42_260595134347_rgbf000106-resize_1/000635_2014-06-08_16-38-42_260595134347_rgbf000106-resize_1-target.png,250,2.074,3,2194,249,meters,jsons/v1_VE250_randls_56.json,563155,854478,37,Woman
101,506066,DepthScenes,duration_manipulation_targetAtFixation,jsons/v1_VE250_randls_56.json,http://54.235.29.9/FacialAge/BNav_EC2/DepthDuration/v2_depth_duration_MTurk/v2_DepthDuration_HTML.html#423,423,1366,625,1366,768,8-29-2022,9-48-2,102,depth_duration_stimuli/001164_2014-06-17_15-35-46_260595134347_rgbf000085-resize_3/001164_2014-06-17_15-35-46_260595134347_rgbf000085-resize_3-target.png,250,2.354,6,2345,249,meters,jsons/v1_VE250_randls_56.json,563155,854478,37,Woman
102,506066,DepthScenes,duration_manipulation_targetAtFixation,jsons/v1_VE250_randls_56.json,http://54.235.29.9/FacialAge/BNav_EC2/DepthDuration/v2_depth_duration_MTurk/v2_DepthDuration_HTML.html#423,423,1366,625,1366,768,8-29-2022,9-48-2,103,depth_duration_stimuli/001136_2014-06-17_15-19-41_260595134347_rgbf000076-resize_3/001136_2014-06-17_15-19-41_260595134347_rgbf000076-resize_3-target.png,250,1.8655,7,2401,249,meters,jsons/v1_VE250_randls_56.json,563155,854478,37,Woman
103,506066,DepthScenes,duration_manipulation_targetAtFixation,jsons/v1_VE250_randls_56.json,http://54.235.29.9/FacialAge/BNav_EC2/DepthDuration/v2_depth_duration_MTurk/v2_DepthDuration_HTML.html#423,423,1366,625,1366,768,8-29-2022,9-48-2,104,depth_duration_stimuli/000682_2014-06-08_23-14-58_260595134347_rgbf000041-resize_5/000682_2014-06-08_23-14-58_260595134347_rgbf000041-resize_5-target.png,250,2.7239999999999998,4,2898,248,meters,jsons/v1_VE250_randls_56.json,563155,854478,37,Woman
104,506066,DepthScenes,duration_manipulation_targetAtFixation,jsons/v1_VE250_randls_56.json,http://54.235.29.9/FacialAge/BNav_EC2/DepthDuration/v2_depth_duration_MTurk/v2_DepthDuration_HTML.html#423,423,1366,625,1366,768,8-29-2022,9-48-2,105,depth_duration_stimuli/001650_2014-06-20_12-09-00_260595134347_rgbf000087-resize_3/001650_2014-06-20_12-09-00_260595134347_rgbf000087-resize_3-target.png,250,1.9505,1,2572,249,meters,jsons/v1_VE250_randls_56.json,563155,854478,37,Woman
105,506066,DepthScenes,duration_manipulation_targetAtFixation,jsons/v1_VE250_randls_56.json,http://54.235.29.9/FacialAge/BNav_EC2/DepthDuration/v2_depth_duration_MTurk/v2_DepthDuration_HTML.html#423,423,1366,625,1366,768,8-29-2022,9-48-2,106,depth_duration_stimuli/001150_2014-06-17_15-27-34_260595134347_rgbf000108-resize_2/001150_2014-06-17_15-27-34_260595134347_rgbf000108-resize_2-target.png,250,4.0325,7,2882,250,meters,jsons/v1_VE250_randls_56.json,563155,854478,37,Woman
106,506066,DepthScenes,duration_manipulation_targetAtFixation,jsons/v1_VE250_randls_56.json,http://54.235.29.9/FacialAge/BNav_EC2/DepthDuration/v2_depth_duration_MTurk/v2_DepthDuration_HTML.html#423,423,1366,625,1366,768,8-29-2022,9-48-2,107,depth_duration_stimuli/000665_2014-06-09_20-42-35_260595134347_rgbf000110-resize_1/000665_2014-06-09_20-42-35_260595134347_rgbf000110-resize_1-target.png,250,3.057,3,2377,249,meters,jsons/v1_VE250_randls_56.json,563155,854478,37,Woman
107,506066,DepthScenes,duration_manipulation_targetAtFixation,jsons/v1_VE250_randls_56.json,http://54.235.29.9/FacialAge/BNav_EC2/DepthDuration/v2_depth_duration_MTurk/v2_DepthDuration_HTML.html#423,423,1366,625,1366,768,8-29-2022,9-48-2,108,depth_duration_stimuli/001175_2014-06-17_15-45-55_260595134347_rgbf000129-resize_4/001175_2014-06-17_15-45-55_260595134347_rgbf000129-resize_4-target.png,250,4.255,4,2556,248,meters,jsons/v1_VE250_randls_56.json,563155,854478,37,Woman
108,506066,DepthScenes,duration_manipulation_targetAtFixation,jsons/v1_VE250_randls_56.json,http://54.235.29.9/FacialAge/BNav_EC2/DepthDuration/v2_depth_duration_MTurk/v2_DepthDuration_HTML.html#423,423,1366,625,1366,768,8-29-2022,9-48-2,109,depth_duration_stimuli/003490_2014-05-21_15-50-11_094959634447_rgbf000101-resize_3/003490_2014-05-21_15-50-11_094959634447_rgbf000101-resize_3-target.png,250,3.6445,5,2185,250,meters,jsons/v1_VE250_randls_56.json,563155,854478,37,Woman
109,506066,DepthScenes,duration_manipulation_targetAtFixation,jsons/v1_VE250_randls_56.json,http://54.235.29.9/FacialAge/BNav_EC2/DepthDuration/v2_depth_duration_MTurk/v2_DepthDuration_HTML.html#423,423,1366,625,1366,768,8-29-2022,9-48-2,110,depth_duration_stimuli/001244_2014-06-17_16-47-45_260595134347_rgbf000030-resize_4/001244_2014-06-17_16-47-45_260595134347_rgbf000030-resize_4-target.png,250,2.0425,1,2466,250,meters,jsons/v1_VE250_randls_56.json,563155,854478,37,Woman
110,506066,DepthScenes,duration_manipulation_targetAtFixation,jsons/v1_VE250_randls_56.json,http://54.235.29.9/FacialAge/BNav_EC2/DepthDuration/v2_depth_duration_MTurk/v2_DepthDuration_HTML.html#423,423,1366,625,1366,768,8-29-2022,9-48-2,111,depth_duration_stimuli/003495_2014-05-21_16-01-51_094959634447_rgbf000100-resize_3/003495_2014-05-21_16-01-51_094959634447_rgbf000100-resize_3-target.png,250,1.6255,4,2394,249,meters,jsons/v1_VE250_randls_56.json,563155,854478,37,Woman
111,506066,DepthScenes,duration_manipulation_targetAtFixation,jsons/v1_VE250_randls_56.json,http://54.235.29.9/FacialAge/BNav_EC2/DepthDuration/v2_depth_duration_MTurk/v2_DepthDuration_HTML.html#423,423,1366,625,1366,768,8-29-2022,9-48-2,112,depth_duration_stimuli/000773_2014-06-08_22-24-54_260595134347_rgbf000093-resize_1/000773_2014-06-08_22-24-54_260595134347_rgbf000093-resize_1-target.png,250,4.973,6,2425,248,meters,jsons/v1_VE250_randls_56.json,563155,854478,37,Woman
112,506066,DepthScenes,duration_manipulation_targetAtFixation,jsons/v1_VE250_randls_56.json,http://54.235.29.9/FacialAge/BNav_EC2/DepthDuration/v2_depth_duration_MTurk/v2_DepthDuration_HTML.html#423,423,1366,625,1366,768,8-29-2022,9-48-2,113,depth_duration_stimuli/002414_2014-06-28_20-24-58_260595134347_rgbf000067-resize_4/002414_2014-06-28_20-24-58_260595134347_rgbf000067-resize_4-target.png,250,4.363,7,2466,249,meters,jsons/v1_VE250_randls_56.json,563155,854478,37,Woman
113,506066,DepthScenes,duration_manipulation_targetAtFixation,jsons/v1_VE250_randls_56.json,http://54.235.29.9/FacialAge/BNav_EC2/DepthDuration/v2_depth_duration_MTurk/v2_DepthDuration_HTML.html#423,423,1366,625,1366,768,8-29-2022,9-48-2,114,depth_duration_stimuli/000736_2014-06-08_18-24-15_260595134347_rgbf000206-resize_3/000736_2014-06-08_18-24-15_260595134347_rgbf000206-resize_3-target.png,250,3.515,3,2586,249,meters,jsons/v1_VE250_randls_56.json,563155,854478,37,Woman
114,506066,DepthScenes,duration_manipulation_targetAtFixation,jsons/v1_VE250_randls_56.json,http://54.235.29.9/FacialAge/BNav_EC2/DepthDuration/v2_depth_duration_MTurk/v2_DepthDuration_HTML.html#423,423,1366,625,1366,768,8-29-2022,9-48-2,115,depth_duration_stimuli/000137_2014-05-20_17-04-49_260595134347_rgbf000120-resize_1/000137_2014-05-20_17-04-49_260595134347_rgbf000120-resize_1-target.png,250,3.786,6,2506,249,meters,jsons/v1_VE250_randls_56.json,563155,854478,37,Woman
115,506066,DepthScenes,duration_manipulation_targetAtFixation,jsons/v1_VE250_randls_56.json,http://54.235.29.9/FacialAge/BNav_EC2/DepthDuration/v2_depth_duration_MTurk/v2_DepthDuration_HTML.html#423,423,1366,625,1366,768,8-29-2022,9-48-2,116,depth_duration_stimuli/001170_2014-06-17_15-43-44_260595134347_rgbf000096-resize_6/001170_2014-06-17_15-43-44_260595134347_rgbf000096-resize-original.jpg,250,1.1909999999999998,3,2524,249,meters,jsons/v1_VE250_randls_56.json,563155,854478,37,Woman
116,506066,DepthScenes,duration_manipulation_targetAtFixation,jsons/v1_VE250_randls_56.json,http://54.235.29.9/FacialAge/BNav_EC2/DepthDuration/v2_depth_duration_MTurk/v2_DepthDuration_HTML.html#423,423,1366,625,1366,768,8-29-2022,9-48-2,117,depth_duration_stimuli/001092_2014-06-15_17-34-58_260595134347_rgbf000171-resize_3/001092_2014-06-15_17-34-58_260595134347_rgbf000171-resize_3-target.png,250,2.6935,3,2449,249,meters,jsons/v1_VE250_randls_56.json,563155,854478,37,Woman
117,506066,DepthScenes,duration_manipulation_targetAtFixation,jsons/v1_VE250_randls_56.json,http://54.235.29.9/FacialAge/BNav_EC2/DepthDuration/v2_depth_duration_MTurk/v2_DepthDuration_HTML.html#423,423,1366,625,1366,768,8-29-2022,9-48-2,118,depth_duration_stimuli/002545_2014-06-24_13-38-53_094959634447_rgbf000080-resize_4/002545_2014-06-24_13-38-53_094959634447_rgbf000080-resize_4-target.png,250,1.9205,5,2419,249,meters,jsons/v1_VE250_randls_56.json,563155,854478,37,Woman
118,506066,DepthScenes,duration_manipulation_targetAtFixation,jsons/v1_VE250_randls_56.json,http://54.235.29.9/FacialAge/BNav_EC2/DepthDuration/v2_depth_duration_MTurk/v2_DepthDuration_HTML.html#423,423,1366,625,1366,768,8-29-2022,9-48-2,119,depth_duration_stimuli/002788_2014-06-22_19-36-03_094959634447_rgbf000088-resize_2/002788_2014-06-22_19-36-03_094959634447_rgbf000088-resize_2-target.png,250,1.6465,3,2418,250,meters,jsons/v1_VE250_randls_56.json,563155,854478,37,Woman
119,506066,DepthScenes,duration_manipulation_targetAtFixation,jsons/v1_VE250_randls_56.json,http://54.235.29.9/FacialAge/BNav_EC2/DepthDuration/v2_depth_duration_MTurk/v2_DepthDuration_HTML.html#423,423,1366,625,1366,768,8-29-2022,9-48-2,120,depth_duration_stimuli/000749_2014-06-08_21-55-06_260595134347_rgbf000070-resize_2/000749_2014-06-08_21-55-06_260595134347_rgbf000070-resize_2-target.png,250,2.331,2,2833,250,meters,jsons/v1_VE250_randls_56.json,563155,854478,37,Woman
120,506066,DepthScenes,duration_manipulation_targetAtFixation,jsons/v1_VE250_randls_56.json,http://54.235.29.9/FacialAge/BNav_EC2/DepthDuration/v2_depth_duration_MTurk/v2_DepthDuration_HTML.html#423,423,1366,625,1366,768,8-29-2022,9-48-2,121,depth_duration_stimuli/002988_2014-06-15_12-24-20_094959634447_rgbf000150-resize_1/002988_2014-06-15_12-24-20_094959634447_rgbf000150-resize_1-target.png,250,4.7669999999999995,4,2523,250,meters,jsons/v1_VE250_randls_56.json,563155,854478,37,Woman
121,506066,DepthScenes,duration_manipulation_targetAtFixation,jsons/v1_VE250_randls_56.json,http://54.235.29.9/FacialAge/BNav_EC2/DepthDuration/v2_depth_duration_MTurk/v2_DepthDuration_HTML.html#423,423,1366,625,1366,768,8-29-2022,9-48-2,122,depth_duration_stimuli/001052_2014-06-08_18-24-54_260595134347_rgbf000130-resize_1/001052_2014-06-08_18-24-54_260595134347_rgbf000130-resize_1-target.png,250,4.1045,6,2200,249,meters,jsons/v1_VE250_randls_56.json,563155,854478,37,Woman
122,506066,DepthScenes,duration_manipulation_targetAtFixation,jsons/v1_VE250_randls_56.json,http://54.235.29.9/FacialAge/BNav_EC2/DepthDuration/v2_depth_duration_MTurk/v2_DepthDuration_HTML.html#423,423,1366,625,1366,768,8-29-2022,9-48-2,123,depth_duration_stimuli/000739_2014-06-08_18-45-58_260595134347_rgbf000068-resize_1/000739_2014-06-08_18-45-58_260595134347_rgbf000068-resize_1-target.png,250,3.534,4,2643,249,meters,jsons/v1_VE250_randls_56.json,563155,854478,37,Woman
123,506066,DepthScenes,duration_manipulation_targetAtFixation,jsons/v1_VE250_randls_56.json,http://54.235.29.9/FacialAge/BNav_EC2/DepthDuration/v2_depth_duration_MTurk/v2_DepthDuration_HTML.html#423,423,1366,625,1366,768,8-29-2022,9-48-2,124,depth_duration_stimuli/000734_2014-06-08_17-39-11_260595134347_rgbf000128-resize_2/000734_2014-06-08_17-39-11_260595134347_rgbf000128-resize_2-target.png,250,4.098,0,3282,249,meters,jsons/v1_VE250_randls_56.json,563155,854478,37,Woman
124,506066,DepthScenes,duration_manipulation_targetAtFixation,jsons/v1_VE250_randls_56.json,http://54.235.29.9/FacialAge/BNav_EC2/DepthDuration/v2_depth_duration_MTurk/v2_DepthDuration_HTML.html#423,423,1366,625,1366,768,8-29-2022,9-48-2,125,depth_duration_stimuli/002600_2014-06-24_14-27-04_094959634447_rgbf000074-resize_2/002600_2014-06-24_14-27-04_094959634447_rgbf000074-resize_2-target.png,250,2.7575,5,3001,249,meters,jsons/v1_VE250_randls_56.json,563155,854478,37,Woman
125,506066,DepthScenes,duration_manipulation_targetAtFixation,jsons/v1_VE250_randls_56.json,http://54.235.29.9/FacialAge/BNav_EC2/DepthDuration/v2_depth_duration_MTurk/v2_DepthDuration_HTML.html#423,423,1366,625,1366,768,8-29-2022,9-48-2,126,depth_duration_stimuli/003228_2014-05-14_13-42-35_094959634447_rgbf000101-resize_1/003228_2014-05-14_13-42-35_094959634447_rgbf000101-resize_1-target.png,250,1.9680000000000002,4,2331,249,meters,jsons/v1_VE250_randls_56.json,563155,854478,37,Woman
126,506066,DepthScenes,duration_manipulation_targetAtFixation,jsons/v1_VE250_randls_56.json,http://54.235.29.9/FacialAge/BNav_EC2/DepthDuration/v2_depth_duration_MTurk/v2_DepthDuration_HTML.html#423,423,1366,625,1366,768,8-29-2022,9-48-2,127,depth_duration_stimuli/002663_2014-06-13_15-50-26_094959634447_rgbf000075-resize_1/002663_2014-06-13_15-50-26_094959634447_rgbf000075-resize_1-target.png,250,4.7495,1,2785,248,meters,jsons/v1_VE250_randls_56.json,563155,854478,37,Woman
127,506066,DepthScenes,duration_manipulation_targetAtFixation,jsons/v1_VE250_randls_56.json,http://54.235.29.9/FacialAge/BNav_EC2/DepthDuration/v2_depth_duration_MTurk/v2_DepthDuration_HTML.html#423,423,1366,625,1366,768,8-29-2022,9-48-2,128,depth_duration_stimuli/000409_2014-06-04_19-23-33_260595134347_rgbf000067-resize_0/000409_2014-06-04_19-23-33_260595134347_rgbf000067-resize_0-target.png,250,3.7335,2,2201,249,meters,jsons/v1_VE250_randls_56.json,563155,854478,37,Woman
128,506066,DepthScenes,duration_manipulation_targetAtFixation,jsons/v1_VE250_randls_56.json,http://54.235.29.9/FacialAge/BNav_EC2/DepthDuration/v2_depth_duration_MTurk/v2_DepthDuration_HTML.html#423,423,1366,625,1366,768,8-29-2022,9-48-2,129,depth_duration_stimuli/001449_2014-06-19_17-01-27_260595134347_rgbf000116-resize_2/001449_2014-06-19_17-01-27_260595134347_rgbf000116-resize_2-target.png,250,3.452,4,2594,249,meters,jsons/v1_VE250_randls_56.json,563155,854478,37,Woman
129,506066,DepthScenes,duration_manipulation_targetAtFixation,jsons/v1_VE250_randls_56.json,http://54.235.29.9/FacialAge/BNav_EC2/DepthDuration/v2_depth_duration_MTurk/v2_DepthDuration_HTML.html#423,423,1366,625,1366,768,8-29-2022,9-48-2,130,depth_duration_stimuli/001450_2014-06-19_17-02-03_260595134347_rgbf000203-resize_4/001450_2014-06-19_17-02-03_260595134347_rgbf000203-resize_4-target.png,250,4.0106666666667,5,2556,249,meters,jsons/v1_VE250_randls_56.json,563155,854478,37,Woman
130,506066,DepthScenes,duration_manipulation_targetAtFixation,jsons/v1_VE250_randls_56.json,http://54.235.29.9/FacialAge/BNav_EC2/DepthDuration/v2_depth_duration_MTurk/v2_DepthDuration_HTML.html#423,423,1366,625,1366,768,8-29-2022,9-48-2,131,depth_duration_stimuli/002570_2014-06-24_13-59-54_094959634447_rgbf000059-resize_0/002570_2014-06-24_13-59-54_094959634447_rgbf000059-resize_0-target.png,250,4.037,5,2513,250,meters,jsons/v1_VE250_randls_56.json,563155,854478,37,Woman
131,506066,DepthScenes,duration_manipulation_targetAtFixation,jsons/v1_VE250_randls_56.json,http://54.235.29.9/FacialAge/BNav_EC2/DepthDuration/v2_depth_duration_MTurk/v2_DepthDuration_HTML.html#423,423,1366,625,1366,768,8-29-2022,9-48-2,132,depth_duration_stimuli/002467_2014-06-28_20-38-07_260595134347_rgbf000026-resize_2/002467_2014-06-28_20-38-07_260595134347_rgbf000026-resize_2-target.png,250,4.742,6,2554,249,meters,jsons/v1_VE250_randls_56.json,563155,854478,37,Woman
132,506066,DepthScenes,duration_manipulation_targetAtFixation,jsons/v1_VE250_randls_56.json,http://54.235.29.9/FacialAge/BNav_EC2/DepthDuration/v2_depth_duration_MTurk/v2_DepthDuration_HTML.html#423,423,1366,625,1366,768,8-29-2022,9-48-2,133,depth_duration_stimuli/000506_2014-06-08_23-21-00_260595134347_rgbf000070-resize_7/000506_2014-06-08_23-21-00_260595134347_rgbf000070-resize_7-target.png,250,4.0585,5,2617,249,meters,jsons/v1_VE250_randls_56.json,563155,854478,37,Woman
133,506066,DepthScenes,duration_manipulation_targetAtFixation,jsons/v1_VE250_randls_56.json,http://54.235.29.9/FacialAge/BNav_EC2/DepthDuration/v2_depth_duration_MTurk/v2_DepthDuration_HTML.html#423,423,1366,625,1366,768,8-29-2022,9-48-2,134,depth_duration_stimuli/003079_2014-06-15_15-18-20_094959634447_rgbf000152-resize_8/003079_2014-06-15_15-18-20_094959634447_rgbf000152-resize_8-target.png,250,2.8775,7,2674,250,meters,jsons/v1_VE250_randls_56.json,563155,854478,37,Woman
134,506066,DepthScenes,duration_manipulation_targetAtFixation,jsons/v1_VE250_randls_56.json,http://54.235.29.9/FacialAge/BNav_EC2/DepthDuration/v2_depth_duration_MTurk/v2_DepthDuration_HTML.html#423,423,1366,625,1366,768,8-29-2022,9-48-2,135,depth_duration_stimuli/002072_2014-06-24_21-48-06_260595134347_rgbf000115-resize_0/002072_2014-06-24_21-48-06_260595134347_rgbf000115-resize-original.jpg,250,4.702,4,2890,249,meters,jsons/v1_VE250_randls_56.json,563155,854478,37,Woman
135,506066,DepthScenes,duration_manipulation_targetAtFixation,jsons/v1_VE250_randls_56.json,http://54.235.29.9/FacialAge/BNav_EC2/DepthDuration/v2_depth_duration_MTurk/v2_DepthDuration_HTML.html#423,423,1366,625,1366,768,8-29-2022,9-48-2,136,depth_duration_stimuli/000522_2014-06-08_13-35-06_260595134347_rgbf000244-resize_1/000522_2014-06-08_13-35-06_260595134347_rgbf000244-resize_1-target.png,250,2.3715,5,2721,249,meters,jsons/v1_VE250_randls_56.json,563155,854478,37,Woman
136,506066,DepthScenes,duration_manipulation_targetAtFixation,jsons/v1_VE250_randls_56.json,http://54.235.29.9/FacialAge/BNav_EC2/DepthDuration/v2_depth_duration_MTurk/v2_DepthDuration_HTML.html#423,423,1366,625,1366,768,8-29-2022,9-48-2,137,depth_duration_stimuli/002949_2014-06-26_15-57-42_094959634447_rgbf000079-resize_1/002949_2014-06-26_15-57-42_094959634447_rgbf000079-resize_1-target.png,250,1.8915,2,49801,249,meters,jsons/v1_VE250_randls_56.json,563155,854478,37,Woman
137,506066,DepthScenes,duration_manipulation_targetAtFixation,jsons/v1_VE250_randls_56.json,http://54.235.29.9/FacialAge/BNav_EC2/DepthDuration/v2_depth_duration_MTurk/v2_DepthDuration_HTML.html#423,423,1366,625,1366,768,8-29-2022,9-48-2,138,depth_duration_stimuli/000436_2014-06-09_22-25-11_260595134347_rgbf000137-resize_1/000436_2014-06-09_22-25-11_260595134347_rgbf000137-resize_1-target.png,250,4.0705,6,2259,249,meters,jsons/v1_VE250_randls_56.json,563155,854478,37,Woman
138,506066,DepthScenes,duration_manipulation_targetAtFixation,jsons/v1_VE250_randls_56.json,http://54.235.29.9/FacialAge/BNav_EC2/DepthDuration/v2_depth_duration_MTurk/v2_DepthDuration_HTML.html#423,423,1366,625,1366,768,8-29-2022,9-48-2,139,depth_duration_stimuli/002444_2014-06-28_20-32-08_260595134347_rgbf000027-resize_0/002444_2014-06-28_20-32-08_260595134347_rgbf000027-resize_0-target.png,250,4.388999999999999,4,2250,250,meters,jsons/v1_VE250_randls_56.json,563155,854478,37,Woman
139,506066,DepthScenes,duration_manipulation_targetAtFixation,jsons/v1_VE250_randls_56.json,http://54.235.29.9/FacialAge/BNav_EC2/DepthDuration/v2_depth_duration_MTurk/v2_DepthDuration_HTML.html#423,423,1366,625,1366,768,8-29-2022,9-48-2,140,depth_duration_stimuli/001570_2014-06-20_17-21-09_260595134347_rgbf000135-resize_4/001570_2014-06-20_17-21-09_260595134347_rgbf000135-resize_4-target.png,250,4.467,3,2473,250,meters,jsons/v1_VE250_randls_56.json,563155,854478,37,Woman
140,506066,DepthScenes,duration_manipulation_targetAtFixation,jsons/v1_VE250_randls_56.json,http://54.235.29.9/FacialAge/BNav_EC2/DepthDuration/v2_depth_duration_MTurk/v2_DepthDuration_HTML.html#423,423,1366,625,1366,768,8-29-2022,9-48-2,141,depth_duration_stimuli/001392_2014-06-19_16-07-59_260595134347_rgbf000046-resize_1/001392_2014-06-19_16-07-59_260595134347_rgbf000046-resize_1-target.png,250,4.135,4,2145,249,meters,jsons/v1_VE250_randls_56.json,563155,854478,37,Woman
141,506066,DepthScenes,duration_manipulation_targetAtFixation,jsons/v1_VE250_randls_56.json,http://54.235.29.9/FacialAge/BNav_EC2/DepthDuration/v2_depth_duration_MTurk/v2_DepthDuration_HTML.html#423,423,1366,625,1366,768,8-29-2022,9-48-2,142,depth_duration_stimuli/002043_2014-06-24_20-29-38_260595134347_rgbf000039-resize_4/002043_2014-06-24_20-29-38_260595134347_rgbf000039-resize_4-target.png,250,2.8435,6,2362,249,meters,jsons/v1_VE250_randls_56.json,563155,854478,37,Woman
142,506066,DepthScenes,duration_manipulation_targetAtFixation,jsons/v1_VE250_randls_56.json,http://54.235.29.9/FacialAge/BNav_EC2/DepthDuration/v2_depth_duration_MTurk/v2_DepthDuration_HTML.html#423,423,1366,625,1366,768,8-29-2022,9-48-2,143,depth_duration_stimuli/003048_2014-06-15_13-49-43_094959634447_rgbf000150-resize_1/003048_2014-06-15_13-49-43_094959634447_rgbf000150-resize_1-target.png,250,4.0035,4,2978,249,meters,jsons/v1_VE250_randls_56.json,563155,854478,37,Woman
143,506066,DepthScenes,duration_manipulation_targetAtFixation,jsons/v1_VE250_randls_56.json,http://54.235.29.9/FacialAge/BNav_EC2/DepthDuration/v2_depth_duration_MTurk/v2_DepthDuration_HTML.html#423,423,1366,625,1366,768,8-29-2022,9-48-2,144,depth_duration_stimuli/003621_2014-05-23_18-06-08_094959634447_rgbf000101-resize_1/003621_2014-05-23_18-06-08_094959634447_rgbf000101-resize_1-target.png,250,3.9835,7,2723,249,meters,jsons/v1_VE250_randls_56.json,563155,854478,37,Woman
144,506066,DepthScenes,duration_manipulation_targetAtFixation,jsons/v1_VE250_randls_56.json,http://54.235.29.9/FacialAge/BNav_EC2/DepthDuration/v2_depth_duration_MTurk/v2_DepthDuration_HTML.html#423,423,1366,625,1366,768,8-29-2022,9-48-2,145,depth_duration_stimuli/001584_2014-06-20_11-07-43_260595134347_rgbf000002-resize_1/001584_2014-06-20_11-07-43_260595134347_rgbf000002-resize_1-target.png,250,3.53,5,2114,249,meters,jsons/v1_VE250_randls_56.json,563155,854478,37,Woman
145,506066,DepthScenes,duration_manipulation_targetAtFixation,jsons/v1_VE250_randls_56.json,http://54.235.29.9/FacialAge/BNav_EC2/DepthDuration/v2_depth_duration_MTurk/v2_DepthDuration_HTML.html#423,423,1366,625,1366,768,8-29-2022,9-48-2,146,depth_duration_stimuli/001498_2014-06-19_17-45-14_260595134347_rgbf000129-resize_4/001498_2014-06-19_17-45-14_260595134347_rgbf000129-resize-original.jpg,250,1.4075,0,3138,245,meters,jsons/v1_VE250_randls_56.json,563155,854478,37,Woman
146,506066,DepthScenes,duration_manipulation_targetAtFixation,jsons/v1_VE250_randls_56.json,http://54.235.29.9/FacialAge/BNav_EC2/DepthDuration/v2_depth_duration_MTurk/v2_DepthDuration_HTML.html#423,423,1366,625,1366,768,8-29-2022,9-48-2,147,depth_duration_stimuli/001066_2014-06-08_22-03-20_260595134347_rgbf000066-resize_4/001066_2014-06-08_22-03-20_260595134347_rgbf000066-resize_4-target.png,250,4.2330000000000005,7,2842,249,meters,jsons/v1_VE250_randls_56.json,563155,854478,37,Woman
147,506066,DepthScenes,duration_manipulation_targetAtFixation,jsons/v1_VE250_randls_56.json,http://54.235.29.9/FacialAge/BNav_EC2/DepthDuration/v2_depth_duration_MTurk/v2_DepthDuration_HTML.html#423,423,1366,625,1366,768,8-29-2022,9-48-2,148,depth_duration_stimuli/000742_2014-06-08_18-48-09_260595134347_rgbf000164-resize_4/000742_2014-06-08_18-48-09_260595134347_rgbf000164-resize_4-target.png,250,4.632,5,2258,249,meters,jsons/v1_VE250_randls_56.json,563155,854478,37,Woman
148,506066,DepthScenes,duration_manipulation_targetAtFixation,jsons/v1_VE250_randls_56.json,http://54.235.29.9/FacialAge/BNav_EC2/DepthDuration/v2_depth_duration_MTurk/v2_DepthDuration_HTML.html#423,423,1366,625,1366,768,8-29-2022,9-48-2,149,depth_duration_stimuli/002725_2014-06-22_11-47-51_094959634447_rgbf000070-resize_1/002725_2014-06-22_11-47-51_094959634447_rgbf000070-resize_1-target.png,250,2.195,0,2659,249,meters,jsons/v1_VE250_randls_56.json,563155,854478,37,Woman
149,506066,DepthScenes,duration_manipulation_targetAtFixation,jsons/v1_VE250_randls_56.json,http://54.235.29.9/FacialAge/BNav_EC2/DepthDuration/v2_depth_duration_MTurk/v2_DepthDuration_HTML.html#423,423,1366,625,1366,768,8-29-2022,9-48-2,150,depth_duration_stimuli/002344_2014-06-28_20-06-29_260595134347_rgbf000030-resize_1/002344_2014-06-28_20-06-29_260595134347_rgbf000030-resize_1-target.png,250,1.5795,0,2843,250,meters,jsons/v1_VE250_randls_56.json,563155,854478,37,Woman
150,506066,DepthScenes,duration_manipulation_targetAtFixation,jsons/v1_VE250_randls_56.json,http://54.235.29.9/FacialAge/BNav_EC2/DepthDuration/v2_depth_duration_MTurk/v2_DepthDuration_HTML.html#423,423,1366,625,1366,768,8-29-2022,9-48-2,151,depth_duration_stimuli/002509_2014-06-24_13-19-22_094959634447_rgbf000077-resize_0/002509_2014-06-24_13-19-22_094959634447_rgbf000077-resize_0-target.png,250,1.3065,2,2452,249,meters,jsons/v1_VE250_randls_56.json,563155,854478,37,Woman
151,506066,DepthScenes,duration_manipulation_targetAtFixation,jsons/v1_VE250_randls_56.json,http://54.235.29.9/FacialAge/BNav_EC2/DepthDuration/v2_depth_duration_MTurk/v2_DepthDuration_HTML.html#423,423,1366,625,1366,768,8-29-2022,9-48-2,152,depth_duration_stimuli/003338_2014-05-20_11-01-23_094959634447_rgbf000051-resize_6/003338_2014-05-20_11-01-23_094959634447_rgbf000051-resize_6-target.png,250,1.693,3,2377,247,meters,jsons/v1_VE250_randls_56.json,563155,854478,37,Woman
152,506066,DepthScenes,duration_manipulation_targetAtFixation,jsons/v1_VE250_randls_56.json,http://54.235.29.9/FacialAge/BNav_EC2/DepthDuration/v2_depth_duration_MTurk/v2_DepthDuration_HTML.html#423,423,1366,625,1366,768,8-29-2022,9-48-2,153,depth_duration_stimuli/001808_2014-06-26_20-50-58_260595134347_rgbf000029-resize_1/001808_2014-06-26_20-50-58_260595134347_rgbf000029-resize_1-target.png,250,4.249,6,2811,249,meters,jsons/v1_VE250_randls_56.json,563155,854478,37,Woman
153,506066,DepthScenes,duration_manipulation_targetAtFixation,jsons/v1_VE250_randls_56.json,http://54.235.29.9/FacialAge/BNav_EC2/DepthDuration/v2_depth_duration_MTurk/v2_DepthDuration_HTML.html#423,423,1366,625,1366,768,8-29-2022,9-48-2,154,depth_duration_stimuli/001815_2014-06-26_20-52-55_260595134347_rgbf000020-resize_0/001815_2014-06-26_20-52-55_260595134347_rgbf000020-resize_0-target.png,250,3.3865,7,2545,249,meters,jsons/v1_VE250_randls_56.json,563155,854478,37,Woman
154,506066,DepthScenes,duration_manipulation_targetAtFixation,jsons/v1_VE250_randls_56.json,http://54.235.29.9/FacialAge/BNav_EC2/DepthDuration/v2_depth_duration_MTurk/v2_DepthDuration_HTML.html#423,423,1366,625,1366,768,8-29-2022,9-48-2,155,depth_duration_stimuli/000368_2014-06-09_15-53-01_260595134347_rgbf000155-resize_2/000368_2014-06-09_15-53-01_260595134347_rgbf000155-resize_2-target.png,250,2.4859999999999998,4,2609,249,meters,jsons/v1_VE250_randls_56.json,563155,854478,37,Woman
155,506066,DepthScenes,duration_manipulation_targetAtFixation,jsons/v1_VE250_randls_56.json,http://54.235.29.9/FacialAge/BNav_EC2/DepthDuration/v2_depth_duration_MTurk/v2_DepthDuration_HTML.html#423,423,1366,625,1366,768,8-29-2022,9-48-2,156,depth_duration_stimuli/002678_2014-06-13_16-15-32_094959634447_rgbf000151-resize_6/002678_2014-06-13_16-15-32_094959634447_rgbf000151-resize_6-target.png,250,2.1830000000000003,3,2300,249,meters,jsons/v1_VE250_randls_56.json,563155,854478,37,Woman
156,506066,DepthScenes,duration_manipulation_targetAtFixation,jsons/v1_VE250_randls_56.json,http://54.235.29.9/FacialAge/BNav_EC2/DepthDuration/v2_depth_duration_MTurk/v2_DepthDuration_HTML.html#423,423,1366,625,1366,768,8-29-2022,9-48-2,157,depth_duration_stimuli/001417_2014-06-19_16-25-36_260595134347_rgbf000115-resize_5/001417_2014-06-19_16-25-36_260595134347_rgbf000115-resize_5-target.png,250,4.6255,1,2281,249,meters,jsons/v1_VE250_randls_56.json,563155,854478,37,Woman
157,506066,DepthScenes,duration_manipulation_targetAtFixation,jsons/v1_VE250_randls_56.json,http://54.235.29.9/FacialAge/BNav_EC2/DepthDuration/v2_depth_duration_MTurk/v2_DepthDuration_HTML.html#423,423,1366,625,1366,768,8-29-2022,9-48-2,158,depth_duration_stimuli/003081_2014-06-15_15-19-16_094959634447_rgbf000150-resize_1/003081_2014-06-15_15-19-16_094959634447_rgbf000150-resize_1-target.png,250,3.9125,2,2473,249,meters,jsons/v1_VE250_randls_56.json,563155,854478,37,Woman
158,506066,DepthScenes,duration_manipulation_targetAtFixation,jsons/v1_VE250_randls_56.json,http://54.235.29.9/FacialAge/BNav_EC2/DepthDuration/v2_depth_duration_MTurk/v2_DepthDuration_HTML.html#423,423,1366,625,1366,768,8-29-2022,9-48-2,159,depth_duration_stimuli/000810_2014-06-08_17-20-01_260595134347_rgbf000105-resize_0/000810_2014-06-08_17-20-01_260595134347_rgbf000105-resize_0-target.png,250,1.4865,4,2346,250,meters,jsons/v1_VE250_randls_56.json,563155,854478,37,Woman
159,506066,DepthScenes,duration_manipulation_targetAtFixation,jsons/v1_VE250_randls_56.json,http://54.235.29.9/FacialAge/BNav_EC2/DepthDuration/v2_depth_duration_MTurk/v2_DepthDuration_HTML.html#423,423,1366,625,1366,768,8-29-2022,9-48-2,160,depth_duration_stimuli/001214_2014-06-17_16-13-55_260595134347_rgbf000111-resize_0/001214_2014-06-17_16-13-55_260595134347_rgbf000111-resize_0-target.png,250,2.6505,2,2305,250,meters,jsons/v1_VE250_randls_56.json,563155,854478,37,Woman
160,506066,DepthScenes,duration_manipulation_targetAtFixation,jsons/v1_VE250_randls_56.json,http://54.235.29.9/FacialAge/BNav_EC2/DepthDuration/v2_depth_duration_MTurk/v2_DepthDuration_HTML.html#423,423,1366,625,1366,768,8-29-2022,9-48-2,161,depth_duration_stimuli/003534_2014-05-22_15-06-10_094959634447_rgbf000102-resize_4/003534_2014-05-22_15-06-10_094959634447_rgbf000102-resize_4-target.png,250,1.426,1,2090,249,meters,jsons/v1_VE250_randls_56.json,563155,854478,37,Woman
161,506066,DepthScenes,duration_manipulation_targetAtFixation,jsons/v1_VE250_randls_56.json,http://54.235.29.9/FacialAge/BNav_EC2/DepthDuration/v2_depth_duration_MTurk/v2_DepthDuration_HTML.html#423,423,1366,625,1366,768,8-29-2022,9-48-2,162,depth_duration_stimuli/002637_2014-06-24_14-51-13_094959634447_rgbf000066-resize_4/002637_2014-06-24_14-51-13_094959634447_rgbf000066-resize_4-target.png,250,1.9955,5,2649,249,meters,jsons/v1_VE250_randls_56.json,563155,854478,37,Woman
162,506066,DepthScenes,duration_manipulation_targetAtFixation,jsons/v1_VE250_randls_56.json,http://54.235.29.9/FacialAge/BNav_EC2/DepthDuration/v2_depth_duration_MTurk/v2_DepthDuration_HTML.html#423,423,1366,625,1366,768,8-29-2022,9-48-2,163,depth_duration_stimuli/000906_2014-06-08_13-35-43_260595134347_rgbf000155-resize_1/000906_2014-06-08_13-35-43_260595134347_rgbf000155-resize_1-target.png,250,2.8489999999999998,7,2458,249,meters,jsons/v1_VE250_randls_56.json,563155,854478,37,Woman
163,506066,DepthScenes,duration_manipulation_targetAtFixation,jsons/v1_VE250_randls_56.json,http://54.235.29.9/FacialAge/BNav_EC2/DepthDuration/v2_depth_duration_MTurk/v2_DepthDuration_HTML.html#423,423,1366,625,1366,768,8-29-2022,9-48-2,164,depth_duration_stimuli/002805_2014-06-22_19-54-03_094959634447_rgbf000079-resize_1/002805_2014-06-22_19-54-03_094959634447_rgbf000079-resize_1-target.png,250,3.1439999999999997,5,2353,249,meters,jsons/v1_VE250_randls_56.json,563155,854478,37,Woman
