,subjID,experimentName,versionName,sequenceName,url,selected_row,windowWidth,windowHeight,screenWidth,screenHeight,startDate,startTime,trial,stimulus,duration,actual_depth,depth_estimate,trial_RT,log_sceneDuration,unitSelection,seq_filepath,experimentTime,totalTime,age,gender
0,506889,DepthScenes,duration_manipulation_targetAtFixation,jsons/VE125_randls_37.json,http://54.235.29.9/FacialAge/BNav_EC2/DepthDuration/v2_depth_duration_MTurk/v2_DepthDuration_HTML.html#418,418,1366,649,1366,768,9-3-2022,8-10-24,1,depth_duration_stimuli/002279_2014-06-28_18-55-32_260595134347_rgbf000040-resize_5/002279_2014-06-28_18-55-32_260595134347_rgbf000040-resize_5-target.png,125,1.5043333333333,3,2801,125,feet,jsons/VE125_randls_37.json,383712,469541,35,Man
1,506889,DepthScenes,duration_manipulation_targetAtFixation,jsons/VE125_randls_37.json,http://54.235.29.9/FacialAge/BNav_EC2/DepthDuration/v2_depth_duration_MTurk/v2_DepthDuration_HTML.html#418,418,1366,649,1366,768,9-3-2022,8-10-24,2,depth_duration_stimuli/000635_2014-06-08_16-38-42_260595134347_rgbf000106-resize_1/000635_2014-06-08_16-38-42_260595134347_rgbf000106-resize_1-target.png,125,2.074,5,2019,124,feet,jsons/VE125_randls_37.json,383712,469541,35,Man
2,506889,DepthScenes,duration_manipulation_targetAtFixation,jsons/VE125_randls_37.json,http://54.235.29.9/FacialAge/BNav_EC2/DepthDuration/v2_depth_duration_MTurk/v2_DepthDuration_HTML.html#418,418,1366,649,1366,768,9-3-2022,8-10-24,3,depth_duration_stimuli/002988_2014-06-15_12-24-20_094959634447_rgbf000150-resize_1/002988_2014-06-15_12-24-20_094959634447_rgbf000150-resize_1-target.png,125,4.7669999999999995,7,2515,124,feet,jsons/VE125_randls_37.json,383712,469541,35,Man
3,506889,DepthScenes,duration_manipulation_targetAtFixation,jsons/VE125_randls_37.json,http://54.235.29.9/FacialAge/BNav_EC2/DepthDuration/v2_depth_duration_MTurk/v2_DepthDuration_HTML.html#418,418,1366,649,1366,768,9-3-2022,8-10-24,4,depth_duration_stimuli/001052_2014-06-08_18-24-54_260595134347_rgbf000130-resize_1/001052_2014-06-08_18-24-54_260595134347_rgbf000130-resize_1-target.png,125,4.1045,4,2108,124,feet,jsons/VE125_randls_37.json,383712,469541,35,Man
4,506889,DepthScenes,duration_manipulation_targetAtFixation,jsons/VE125_randls_37.json,http://54.235.29.9/FacialAge/BNav_EC2/DepthDuration/v2_depth_duration_MTurk/v2_DepthDuration_HTML.html#418,418,1366,649,1366,768,9-3-2022,8-10-24,5,depth_duration_stimuli/001092_2014-06-15_17-34-58_260595134347_rgbf000171-resize_3/001092_2014-06-15_17-34-58_260595134347_rgbf000171-resize_3-target.png,125,2.6935,3,1730,124,feet,jsons/VE125_randls_37.json,383712,469541,35,Man
5,506889,DepthScenes,duration_manipulation_targetAtFixation,jsons/VE125_randls_37.json,http://54.235.29.9/FacialAge/BNav_EC2/DepthDuration/v2_depth_duration_MTurk/v2_DepthDuration_HTML.html#418,418,1366,649,1366,768,9-3-2022,8-10-24,6,depth_duration_stimuli/002545_2014-06-24_13-38-53_094959634447_rgbf000080-resize_4/002545_2014-06-24_13-38-53_094959634447_rgbf000080-resize_4-target.png,125,1.9205,4,1923,125,feet,jsons/VE125_randls_37.json,383712,469541,35,Man
6,506889,DepthScenes,duration_manipulation_targetAtFixation,jsons/VE125_randls_37.json,http://54.235.29.9/FacialAge/BNav_EC2/DepthDuration/v2_depth_duration_MTurk/v2_DepthDuration_HTML.html#418,418,1366,649,1366,768,9-3-2022,8-10-24,7,depth_duration_stimuli/000906_2014-06-08_13-35-43_260595134347_rgbf000155-resize_1/000906_2014-06-08_13-35-43_260595134347_rgbf000155-resize_1-target.png,125,2.8489999999999998,4,1770,125,feet,jsons/VE125_randls_37.json,383712,469541,35,Man
7,506889,DepthScenes,duration_manipulation_targetAtFixation,jsons/VE125_randls_37.json,http://54.235.29.9/FacialAge/BNav_EC2/DepthDuration/v2_depth_duration_MTurk/v2_DepthDuration_HTML.html#418,418,1366,649,1366,768,9-3-2022,8-10-24,8,depth_duration_stimuli/002805_2014-06-22_19-54-03_094959634447_rgbf000079-resize_1/002805_2014-06-22_19-54-03_094959634447_rgbf000079-resize_1-target.png,125,3.1439999999999997,5,2315,123,feet,jsons/VE125_randls_37.json,383712,469541,35,Man
8,506889,DepthScenes,duration_manipulation_targetAtFixation,jsons/VE125_randls_37.json,http://54.235.29.9/FacialAge/BNav_EC2/DepthDuration/v2_depth_duration_MTurk/v2_DepthDuration_HTML.html#418,418,1366,649,1366,768,9-3-2022,8-10-24,9,depth_duration_stimuli/002600_2014-06-24_14-27-04_094959634447_rgbf000074-resize_2/002600_2014-06-24_14-27-04_094959634447_rgbf000074-resize_2-target.png,125,2.7575,3,1692,124,feet,jsons/VE125_randls_37.json,383712,469541,35,Man
9,506889,DepthScenes,duration_manipulation_targetAtFixation,jsons/VE125_randls_37.json,http://54.235.29.9/FacialAge/BNav_EC2/DepthDuration/v2_depth_duration_MTurk/v2_DepthDuration_HTML.html#418,418,1366,649,1366,768,9-3-2022,8-10-24,10,depth_duration_stimuli/003228_2014-05-14_13-42-35_094959634447_rgbf000101-resize_1/003228_2014-05-14_13-42-35_094959634447_rgbf000101-resize_1-target.png,125,1.9680000000000002,5,1563,124,feet,jsons/VE125_randls_37.json,383712,469541,35,Man
10,506889,DepthScenes,duration_manipulation_targetAtFixation,jsons/VE125_randls_37.json,http://54.235.29.9/FacialAge/BNav_EC2/DepthDuration/v2_depth_duration_MTurk/v2_DepthDuration_HTML.html#418,418,1366,649,1366,768,9-3-2022,8-10-24,11,depth_duration_stimuli/002057_2014-06-24_21-00-13_260595134347_rgbf000120-resize_1/002057_2014-06-24_21-00-13_260595134347_rgbf000120-resize_1-target.png,125,2.967,4,2099,124,feet,jsons/VE125_randls_37.json,383712,469541,35,Man
11,506889,DepthScenes,duration_manipulation_targetAtFixation,jsons/VE125_randls_37.json,http://54.235.29.9/FacialAge/BNav_EC2/DepthDuration/v2_depth_duration_MTurk/v2_DepthDuration_HTML.html#418,418,1366,649,1366,768,9-3-2022,8-10-24,12,depth_duration_stimuli/000709_2014-06-08_13-51-55_260595134347_rgbf000068-resize_3/000709_2014-06-08_13-51-55_260595134347_rgbf000068-resize_3-target.png,125,1.8030000000000002,5,1554,124,feet,jsons/VE125_randls_37.json,383712,469541,35,Man
12,506889,DepthScenes,duration_manipulation_targetAtFixation,jsons/VE125_randls_37.json,http://54.235.29.9/FacialAge/BNav_EC2/DepthDuration/v2_depth_duration_MTurk/v2_DepthDuration_HTML.html#418,418,1366,649,1366,768,9-3-2022,8-10-24,13,depth_duration_stimuli/000569_2014-06-09_22-51-47_260595134347_rgbf000141-resize_3/000569_2014-06-09_22-51-47_260595134347_rgbf000141-resize-original.jpg,125,4.512,0,2053,124,feet,jsons/VE125_randls_37.json,383712,469541,35,Man
13,506889,DepthScenes,duration_manipulation_targetAtFixation,jsons/VE125_randls_37.json,http://54.235.29.9/FacialAge/BNav_EC2/DepthDuration/v2_depth_duration_MTurk/v2_DepthDuration_HTML.html#418,418,1366,649,1366,768,9-3-2022,8-10-24,14,depth_duration_stimuli/001066_2014-06-08_22-03-20_260595134347_rgbf000066-resize_4/001066_2014-06-08_22-03-20_260595134347_rgbf000066-resize_4-target.png,125,4.2330000000000005,4,1321,124,feet,jsons/VE125_randls_37.json,383712,469541,35,Man
14,506889,DepthScenes,duration_manipulation_targetAtFixation,jsons/VE125_randls_37.json,http://54.235.29.9/FacialAge/BNav_EC2/DepthDuration/v2_depth_duration_MTurk/v2_DepthDuration_HTML.html#418,418,1366,649,1366,768,9-3-2022,8-10-24,15,depth_duration_stimuli/000742_2014-06-08_18-48-09_260595134347_rgbf000164-resize_4/000742_2014-06-08_18-48-09_260595134347_rgbf000164-resize_4-target.png,125,4.632,3,1739,124,feet,jsons/VE125_randls_37.json,383712,469541,35,Man
15,506889,DepthScenes,duration_manipulation_targetAtFixation,jsons/VE125_randls_37.json,http://54.235.29.9/FacialAge/BNav_EC2/DepthDuration/v2_depth_duration_MTurk/v2_DepthDuration_HTML.html#418,418,1366,649,1366,768,9-3-2022,8-10-24,16,depth_duration_stimuli/001059_2014-06-08_21-53-27_260595134347_rgbf000061-resize_4/001059_2014-06-08_21-53-27_260595134347_rgbf000061-resize_4-target.png,125,2.4185,4,1642,123,feet,jsons/VE125_randls_37.json,383712,469541,35,Man
16,506889,DepthScenes,duration_manipulation_targetAtFixation,jsons/VE125_randls_37.json,http://54.235.29.9/FacialAge/BNav_EC2/DepthDuration/v2_depth_duration_MTurk/v2_DepthDuration_HTML.html#418,418,1366,649,1366,768,9-3-2022,8-10-24,17,depth_duration_stimuli/001032_2014-06-08_13-23-17_260595134347_rgbf000021-resize_3/001032_2014-06-08_13-23-17_260595134347_rgbf000021-resize_3-target.png,125,3.2725,3,1411,123,feet,jsons/VE125_randls_37.json,383712,469541,35,Man
17,506889,DepthScenes,duration_manipulation_targetAtFixation,jsons/VE125_randls_37.json,http://54.235.29.9/FacialAge/BNav_EC2/DepthDuration/v2_depth_duration_MTurk/v2_DepthDuration_HTML.html#418,418,1366,649,1366,768,9-3-2022,8-10-24,18,depth_duration_stimuli/000009_2014-05-26_14-32-05_260595134347_rgbf000034-resize_3/000009_2014-05-26_14-32-05_260595134347_rgbf000034-resize_3-target.png,125,3.8715,5,2194,122,feet,jsons/VE125_randls_37.json,383712,469541,35,Man
18,506889,DepthScenes,duration_manipulation_targetAtFixation,jsons/VE125_randls_37.json,http://54.235.29.9/FacialAge/BNav_EC2/DepthDuration/v2_depth_duration_MTurk/v2_DepthDuration_HTML.html#418,418,1366,649,1366,768,9-3-2022,8-10-24,19,depth_duration_stimuli/001828_2014-06-26_21-40-03_260595134347_rgbf000024-resize_0/001828_2014-06-26_21-40-03_260595134347_rgbf000024-resize_0-target.png,125,4.8260000000000005,5,1419,124,feet,jsons/VE125_randls_37.json,383712,469541,35,Man
19,506889,DepthScenes,duration_manipulation_targetAtFixation,jsons/VE125_randls_37.json,http://54.235.29.9/FacialAge/BNav_EC2/DepthDuration/v2_depth_duration_MTurk/v2_DepthDuration_HTML.html#418,418,1366,649,1366,768,9-3-2022,8-10-24,20,depth_duration_stimuli/000522_2014-06-08_13-35-06_260595134347_rgbf000244-resize_1/000522_2014-06-08_13-35-06_260595134347_rgbf000244-resize_1-target.png,125,2.3715,2,2379,124,feet,jsons/VE125_randls_37.json,383712,469541,35,Man
20,506889,DepthScenes,duration_manipulation_targetAtFixation,jsons/VE125_randls_37.json,http://54.235.29.9/FacialAge/BNav_EC2/DepthDuration/v2_depth_duration_MTurk/v2_DepthDuration_HTML.html#418,418,1366,649,1366,768,9-3-2022,8-10-24,21,depth_duration_stimuli/002949_2014-06-26_15-57-42_094959634447_rgbf000079-resize_1/002949_2014-06-26_15-57-42_094959634447_rgbf000079-resize_1-target.png,125,1.8915,2,1364,124,feet,jsons/VE125_randls_37.json,383712,469541,35,Man
21,506889,DepthScenes,duration_manipulation_targetAtFixation,jsons/VE125_randls_37.json,http://54.235.29.9/FacialAge/BNav_EC2/DepthDuration/v2_depth_duration_MTurk/v2_DepthDuration_HTML.html#418,418,1366,649,1366,768,9-3-2022,8-10-24,22,depth_duration_stimuli/002153_2014-06-25_21-27-18_260595134347_rgbf000038-resize_5/002153_2014-06-25_21-27-18_260595134347_rgbf000038-resize_5-target.png,125,2.505,4,1364,124,feet,jsons/VE125_randls_37.json,383712,469541,35,Man
22,506889,DepthScenes,duration_manipulation_targetAtFixation,jsons/VE125_randls_37.json,http://54.235.29.9/FacialAge/BNav_EC2/DepthDuration/v2_depth_duration_MTurk/v2_DepthDuration_HTML.html#418,418,1366,649,1366,768,9-3-2022,8-10-24,23,depth_duration_stimuli/002660_2014-06-13_15-44-18_094959634447_rgbf001878-resize_2/002660_2014-06-13_15-44-18_094959634447_rgbf001878-resize_2-target.png,125,3.576,3,1171,124,feet,jsons/VE125_randls_37.json,383712,469541,35,Man
23,506889,DepthScenes,duration_manipulation_targetAtFixation,jsons/VE125_randls_37.json,http://54.235.29.9/FacialAge/BNav_EC2/DepthDuration/v2_depth_duration_MTurk/v2_DepthDuration_HTML.html#418,418,1366,649,1366,768,9-3-2022,8-10-24,24,depth_duration_stimuli/000773_2014-06-08_22-24-54_260595134347_rgbf000093-resize_1/000773_2014-06-08_22-24-54_260595134347_rgbf000093-resize_1-target.png,125,4.973,5,1563,124,feet,jsons/VE125_randls_37.json,383712,469541,35,Man
24,506889,DepthScenes,duration_manipulation_targetAtFixation,jsons/VE125_randls_37.json,http://54.235.29.9/FacialAge/BNav_EC2/DepthDuration/v2_depth_duration_MTurk/v2_DepthDuration_HTML.html#418,418,1366,649,1366,768,9-3-2022,8-10-24,25,depth_duration_stimuli/002414_2014-06-28_20-24-58_260595134347_rgbf000067-resize_4/002414_2014-06-28_20-24-58_260595134347_rgbf000067-resize_4-target.png,125,4.363,5,2148,124,feet,jsons/VE125_randls_37.json,383712,469541,35,Man
25,506889,DepthScenes,duration_manipulation_targetAtFixation,jsons/VE125_randls_37.json,http://54.235.29.9/FacialAge/BNav_EC2/DepthDuration/v2_depth_duration_MTurk/v2_DepthDuration_HTML.html#418,418,1366,649,1366,768,9-3-2022,8-10-24,26,depth_duration_stimuli/000447_2014-06-08_16-15-46_260595134347_rgbf000130-resize_1/000447_2014-06-08_16-15-46_260595134347_rgbf000130-resize_1-target.png,125,4.479,7,3083,124,feet,jsons/VE125_randls_37.json,383712,469541,35,Man
26,506889,DepthScenes,duration_manipulation_targetAtFixation,jsons/VE125_randls_37.json,http://54.235.29.9/FacialAge/BNav_EC2/DepthDuration/v2_depth_duration_MTurk/v2_DepthDuration_HTML.html#418,418,1366,649,1366,768,9-3-2022,8-10-24,27,depth_duration_stimuli/001447_2014-06-19_17-00-32_260595134347_rgbf000082-resize_5/001447_2014-06-19_17-00-32_260595134347_rgbf000082-resize_5-target.png,125,4.13775,3,1940,124,feet,jsons/VE125_randls_37.json,383712,469541,35,Man
27,506889,DepthScenes,duration_manipulation_targetAtFixation,jsons/VE125_randls_37.json,http://54.235.29.9/FacialAge/BNav_EC2/DepthDuration/v2_depth_duration_MTurk/v2_DepthDuration_HTML.html#418,418,1366,649,1366,768,9-3-2022,8-10-24,28,depth_duration_stimuli/000758_2014-06-08_22-05-08_260595134347_rgbf000085-resize_0/000758_2014-06-08_22-05-08_260595134347_rgbf000085-resize_0-target.png,125,3.3810000000000002,4,1243,124,feet,jsons/VE125_randls_37.json,383712,469541,35,Man
28,506889,DepthScenes,duration_manipulation_targetAtFixation,jsons/VE125_randls_37.json,http://54.235.29.9/FacialAge/BNav_EC2/DepthDuration/v2_depth_duration_MTurk/v2_DepthDuration_HTML.html#418,418,1366,649,1366,768,9-3-2022,8-10-24,29,depth_duration_stimuli/000854_2014-06-09_19-43-13_260595134347_rgbf000066-resize_0/000854_2014-06-09_19-43-13_260595134347_rgbf000066-resize_0-target.png,125,3.068,3,1171,123,feet,jsons/VE125_randls_37.json,383712,469541,35,Man
29,506889,DepthScenes,duration_manipulation_targetAtFixation,jsons/VE125_randls_37.json,http://54.235.29.9/FacialAge/BNav_EC2/DepthDuration/v2_depth_duration_MTurk/v2_DepthDuration_HTML.html#418,418,1366,649,1366,768,9-3-2022,8-10-24,30,depth_duration_stimuli/000375_2014-06-08_11-17-29_260595134347_rgbf000133-resize_2/000375_2014-06-08_11-17-29_260595134347_rgbf000133-resize-original.jpg,125,4.718,0,1963,124,feet,jsons/VE125_randls_37.json,383712,469541,35,Man
30,506889,DepthScenes,duration_manipulation_targetAtFixation,jsons/VE125_randls_37.json,http://54.235.29.9/FacialAge/BNav_EC2/DepthDuration/v2_depth_duration_MTurk/v2_DepthDuration_HTML.html#418,418,1366,649,1366,768,9-3-2022,8-10-24,31,depth_duration_stimuli/000506_2014-06-08_23-21-00_260595134347_rgbf000070-resize_7/000506_2014-06-08_23-21-00_260595134347_rgbf000070-resize_7-target.png,125,4.0585,4,1308,124,feet,jsons/VE125_randls_37.json,383712,469541,35,Man
31,506889,DepthScenes,duration_manipulation_targetAtFixation,jsons/VE125_randls_37.json,http://54.235.29.9/FacialAge/BNav_EC2/DepthDuration/v2_depth_duration_MTurk/v2_DepthDuration_HTML.html#418,418,1366,649,1366,768,9-3-2022,8-10-24,32,depth_duration_stimuli/003079_2014-06-15_15-18-20_094959634447_rgbf000152-resize_8/003079_2014-06-15_15-18-20_094959634447_rgbf000152-resize_8-target.png,125,2.8775,3,1283,125,feet,jsons/VE125_randls_37.json,383712,469541,35,Man
32,506889,DepthScenes,duration_manipulation_targetAtFixation,jsons/VE125_randls_37.json,http://54.235.29.9/FacialAge/BNav_EC2/DepthDuration/v2_depth_duration_MTurk/v2_DepthDuration_HTML.html#418,418,1366,649,1366,768,9-3-2022,8-10-24,33,depth_duration_stimuli/003292_2014-05-14_21-53-49_094959634447_rgbf000100-resize_2/003292_2014-05-14_21-53-49_094959634447_rgbf000100-resize_2-target.png,125,3.4815,3,1211,124,feet,jsons/VE125_randls_37.json,383712,469541,35,Man
33,506889,DepthScenes,duration_manipulation_targetAtFixation,jsons/VE125_randls_37.json,http://54.235.29.9/FacialAge/BNav_EC2/DepthDuration/v2_depth_duration_MTurk/v2_DepthDuration_HTML.html#418,418,1366,649,1366,768,9-3-2022,8-10-24,34,depth_duration_stimuli/002639_2014-06-24_14-51-37_094959634447_rgbf000074-resize_4/002639_2014-06-24_14-51-37_094959634447_rgbf000074-resize_4-target.png,125,4.0375,4,2476,124,feet,jsons/VE125_randls_37.json,383712,469541,35,Man
34,506889,DepthScenes,duration_manipulation_targetAtFixation,jsons/VE125_randls_37.json,http://54.235.29.9/FacialAge/BNav_EC2/DepthDuration/v2_depth_duration_MTurk/v2_DepthDuration_HTML.html#418,418,1366,649,1366,768,9-3-2022,8-10-24,35,depth_duration_stimuli/002213_2014-06-28_18-37-58_260595134347_rgbf000055-resize_1/002213_2014-06-28_18-37-58_260595134347_rgbf000055-resize_1-target.png,125,3.62,5,1469,123,feet,jsons/VE125_randls_37.json,383712,469541,35,Man
35,506889,DepthScenes,duration_manipulation_targetAtFixation,jsons/VE125_randls_37.json,http://54.235.29.9/FacialAge/BNav_EC2/DepthDuration/v2_depth_duration_MTurk/v2_DepthDuration_HTML.html#418,418,1366,649,1366,768,9-3-2022,8-10-24,36,depth_duration_stimuli/000691_2014-06-08_13-08-50_260595134347_rgbf000132-resize_3/000691_2014-06-08_13-08-50_260595134347_rgbf000132-resize_3-target.png,125,4.1530000000000005,4,1625,125,feet,jsons/VE125_randls_37.json,383712,469541,35,Man
36,506889,DepthScenes,duration_manipulation_targetAtFixation,jsons/VE125_randls_37.json,http://54.235.29.9/FacialAge/BNav_EC2/DepthDuration/v2_depth_duration_MTurk/v2_DepthDuration_HTML.html#418,418,1366,649,1366,768,9-3-2022,8-10-24,37,depth_duration_stimuli/002748_2014-06-22_19-07-22_094959634447_rgbf000078-resize_1/002748_2014-06-22_19-07-22_094959634447_rgbf000078-resize_1-target.png,125,4.6705,5,1908,124,feet,jsons/VE125_randls_37.json,383712,469541,35,Man
37,506889,DepthScenes,duration_manipulation_targetAtFixation,jsons/VE125_randls_37.json,http://54.235.29.9/FacialAge/BNav_EC2/DepthDuration/v2_depth_duration_MTurk/v2_DepthDuration_HTML.html#418,418,1366,649,1366,768,9-3-2022,8-10-24,38,depth_duration_stimuli/002995_2014-06-15_12-31-26_094959634447_rgbf000150-resize_1/002995_2014-06-15_12-31-26_094959634447_rgbf000150-resize_1-target.png,125,3.8360000000000003,4,1410,124,feet,jsons/VE125_randls_37.json,383712,469541,35,Man
38,506889,DepthScenes,duration_manipulation_targetAtFixation,jsons/VE125_randls_37.json,http://54.235.29.9/FacialAge/BNav_EC2/DepthDuration/v2_depth_duration_MTurk/v2_DepthDuration_HTML.html#418,418,1366,649,1366,768,9-3-2022,8-10-24,39,depth_duration_stimuli/000810_2014-06-08_17-20-01_260595134347_rgbf000105-resize_0/000810_2014-06-08_17-20-01_260595134347_rgbf000105-resize_0-target.png,125,1.4865,0,2604,123,feet,jsons/VE125_randls_37.json,383712,469541,35,Man
39,506889,DepthScenes,duration_manipulation_targetAtFixation,jsons/VE125_randls_37.json,http://54.235.29.9/FacialAge/BNav_EC2/DepthDuration/v2_depth_duration_MTurk/v2_DepthDuration_HTML.html#418,418,1366,649,1366,768,9-3-2022,8-10-24,40,depth_duration_stimuli/001214_2014-06-17_16-13-55_260595134347_rgbf000111-resize_0/001214_2014-06-17_16-13-55_260595134347_rgbf000111-resize_0-target.png,125,2.6505,4,2211,125,feet,jsons/VE125_randls_37.json,383712,469541,35,Man
40,506889,DepthScenes,duration_manipulation_targetAtFixation,jsons/VE125_randls_37.json,http://54.235.29.9/FacialAge/BNav_EC2/DepthDuration/v2_depth_duration_MTurk/v2_DepthDuration_HTML.html#418,418,1366,649,1366,768,9-3-2022,8-10-24,41,depth_duration_stimuli/002039_2014-06-24_20-22-38_260595134347_rgbf000084-resize_1/002039_2014-06-24_20-22-38_260595134347_rgbf000084-resize_1-target.png,125,4.408,0,2547,123,feet,jsons/VE125_randls_37.json,383712,469541,35,Man
41,506889,DepthScenes,duration_manipulation_targetAtFixation,jsons/VE125_randls_37.json,http://54.235.29.9/FacialAge/BNav_EC2/DepthDuration/v2_depth_duration_MTurk/v2_DepthDuration_HTML.html#418,418,1366,649,1366,768,9-3-2022,8-10-24,42,depth_duration_stimuli/002103_2014-06-25_20-00-40_260595134347_rgbf000049-resize_0/002103_2014-06-25_20-00-40_260595134347_rgbf000049-resize_0-target.png,125,4.105,5,2188,124,feet,jsons/VE125_randls_37.json,383712,469541,35,Man
42,506889,DepthScenes,duration_manipulation_targetAtFixation,jsons/VE125_randls_37.json,http://54.235.29.9/FacialAge/BNav_EC2/DepthDuration/v2_depth_duration_MTurk/v2_DepthDuration_HTML.html#418,418,1366,649,1366,768,9-3-2022,8-10-24,43,depth_duration_stimuli/001011_2014-06-08_23-18-54_260595134347_rgbf000044-resize_4/001011_2014-06-08_23-18-54_260595134347_rgbf000044-resize_4-target.png,125,2.4730000000000003,5,1348,124,feet,jsons/VE125_randls_37.json,383712,469541,35,Man
43,506889,DepthScenes,duration_manipulation_targetAtFixation,jsons/VE125_randls_37.json,http://54.235.29.9/FacialAge/BNav_EC2/DepthDuration/v2_depth_duration_MTurk/v2_DepthDuration_HTML.html#418,418,1366,649,1366,768,9-3-2022,8-10-24,44,depth_duration_stimuli/002875_2014-06-01_15-19-00_094959634447_rgbf000151-resize_1/002875_2014-06-01_15-19-00_094959634447_rgbf000151-resize_1-target.png,125,1.9675,4,1211,124,feet,jsons/VE125_randls_37.json,383712,469541,35,Man
44,506889,DepthScenes,duration_manipulation_targetAtFixation,jsons/VE125_randls_37.json,http://54.235.29.9/FacialAge/BNav_EC2/DepthDuration/v2_depth_duration_MTurk/v2_DepthDuration_HTML.html#418,418,1366,649,1366,768,9-3-2022,8-10-24,45,depth_duration_stimuli/000787_2014-06-08_22-33-53_260595134347_rgbf000175-resize_1/000787_2014-06-08_22-33-53_260595134347_rgbf000175-resize-original.jpg,125,4.784,0,2531,125,feet,jsons/VE125_randls_37.json,383712,469541,35,Man
45,506889,DepthScenes,duration_manipulation_targetAtFixation,jsons/VE125_randls_37.json,http://54.235.29.9/FacialAge/BNav_EC2/DepthDuration/v2_depth_duration_MTurk/v2_DepthDuration_HTML.html#418,418,1366,649,1366,768,9-3-2022,8-10-24,46,depth_duration_stimuli/002272_2014-06-28_18-53-56_260595134347_rgbf000067-resize_2/002272_2014-06-28_18-53-56_260595134347_rgbf000067-resize_2-target.png,125,1.138,4,1795,124,feet,jsons/VE125_randls_37.json,383712,469541,35,Man
46,506889,DepthScenes,duration_manipulation_targetAtFixation,jsons/VE125_randls_37.json,http://54.235.29.9/FacialAge/BNav_EC2/DepthDuration/v2_depth_duration_MTurk/v2_DepthDuration_HTML.html#418,418,1366,649,1366,768,9-3-2022,8-10-24,47,depth_duration_stimuli/001571_2014-06-20_17-21-32_260595134347_rgbf000089-resize_1/001571_2014-06-20_17-21-32_260595134347_rgbf000089-resize_1-target.png,125,1.86,2,2435,125,feet,jsons/VE125_randls_37.json,383712,469541,35,Man
47,506889,DepthScenes,duration_manipulation_targetAtFixation,jsons/VE125_randls_37.json,http://54.235.29.9/FacialAge/BNav_EC2/DepthDuration/v2_depth_duration_MTurk/v2_DepthDuration_HTML.html#418,418,1366,649,1366,768,9-3-2022,8-10-24,48,depth_duration_stimuli/002989_2014-06-15_12-25-03_094959634447_rgbf000150-resize_3/002989_2014-06-15_12-25-03_094959634447_rgbf000150-resize_3-target.png,125,4.1975,3,1227,125,feet,jsons/VE125_randls_37.json,383712,469541,35,Man
48,506889,DepthScenes,duration_manipulation_targetAtFixation,jsons/VE125_randls_37.json,http://54.235.29.9/FacialAge/BNav_EC2/DepthDuration/v2_depth_duration_MTurk/v2_DepthDuration_HTML.html#418,418,1366,649,1366,768,9-3-2022,8-10-24,49,depth_duration_stimuli/000866_2014-06-09_20-45-42_260595134347_rgbf000139-resize_1/000866_2014-06-09_20-45-42_260595134347_rgbf000139-resize_1-target.png,125,3.2155,4,2748,123,feet,jsons/VE125_randls_37.json,383712,469541,35,Man
49,506889,DepthScenes,duration_manipulation_targetAtFixation,jsons/VE125_randls_37.json,http://54.235.29.9/FacialAge/BNav_EC2/DepthDuration/v2_depth_duration_MTurk/v2_DepthDuration_HTML.html#418,418,1366,649,1366,768,9-3-2022,8-10-24,50,depth_duration_stimuli/002549_2014-06-24_13-41-39_094959634447_rgbf000022-resize_3/002549_2014-06-24_13-41-39_094959634447_rgbf000022-resize_3-target.png,125,1.476,3,1595,125,feet,jsons/VE125_randls_37.json,383712,469541,35,Man
50,506889,DepthScenes,duration_manipulation_targetAtFixation,jsons/VE125_randls_37.json,http://54.235.29.9/FacialAge/BNav_EC2/DepthDuration/v2_depth_duration_MTurk/v2_DepthDuration_HTML.html#418,418,1366,649,1366,768,9-3-2022,8-10-24,51,depth_duration_stimuli/002750_2014-06-22_19-08-03_094959634447_rgbf000094-resize_4/002750_2014-06-22_19-08-03_094959634447_rgbf000094-resize_4-target.png,125,2.354,4,2203,125,feet,jsons/VE125_randls_37.json,383712,469541,35,Man
51,506889,DepthScenes,duration_manipulation_targetAtFixation,jsons/VE125_randls_37.json,http://54.235.29.9/FacialAge/BNav_EC2/DepthDuration/v2_depth_duration_MTurk/v2_DepthDuration_HTML.html#418,418,1366,649,1366,768,9-3-2022,8-10-24,52,depth_duration_stimuli/001016_2014-06-09_16-16-10_260595134347_rgbf000112-resize_5/001016_2014-06-09_16-16-10_260595134347_rgbf000112-resize_5-target.png,125,1.6565,3,2843,124,feet,jsons/VE125_randls_37.json,383712,469541,35,Man
52,506889,DepthScenes,duration_manipulation_targetAtFixation,jsons/VE125_randls_37.json,http://54.235.29.9/FacialAge/BNav_EC2/DepthDuration/v2_depth_duration_MTurk/v2_DepthDuration_HTML.html#418,418,1366,649,1366,768,9-3-2022,8-10-24,53,depth_duration_stimuli/002340_2014-06-28_20-05-46_260595134347_rgbf000113-resize_0/002340_2014-06-28_20-05-46_260595134347_rgbf000113-resize_0-target.png,125,2.4735,4,2220,123,feet,jsons/VE125_randls_37.json,383712,469541,35,Man
53,506889,DepthScenes,duration_manipulation_targetAtFixation,jsons/VE125_randls_37.json,http://54.235.29.9/FacialAge/BNav_EC2/DepthDuration/v2_depth_duration_MTurk/v2_DepthDuration_HTML.html#418,418,1366,649,1366,768,9-3-2022,8-10-24,54,depth_duration_stimuli/000469_2014-06-09_19-42-10_260595134347_rgbf000081-resize_1/000469_2014-06-09_19-42-10_260595134347_rgbf000081-resize_1-target.png,125,1.652,2,1603,125,feet,jsons/VE125_randls_37.json,383712,469541,35,Man
54,506889,DepthScenes,duration_manipulation_targetAtFixation,jsons/VE125_randls_37.json,http://54.235.29.9/FacialAge/BNav_EC2/DepthDuration/v2_depth_duration_MTurk/v2_DepthDuration_HTML.html#418,418,1366,649,1366,768,9-3-2022,8-10-24,55,depth_duration_stimuli/000483_2014-06-09_20-41-45_260595134347_rgbf000116-resize_4/000483_2014-06-09_20-41-45_260595134347_rgbf000116-resize_4-target.png,125,1.337,5,1867,124,feet,jsons/VE125_randls_37.json,383712,469541,35,Man
55,506889,DepthScenes,duration_manipulation_targetAtFixation,jsons/VE125_randls_37.json,http://54.235.29.9/FacialAge/BNav_EC2/DepthDuration/v2_depth_duration_MTurk/v2_DepthDuration_HTML.html#418,418,1366,649,1366,768,9-3-2022,8-10-24,56,depth_duration_stimuli/002118_2014-06-25_20-32-08_260595134347_rgbf000078-resize_1/002118_2014-06-25_20-32-08_260595134347_rgbf000078-resize_1-target.png,125,2.6460000000000004,4,1195,125,feet,jsons/VE125_randls_37.json,383712,469541,35,Man
56,506889,DepthScenes,duration_manipulation_targetAtFixation,jsons/VE125_randls_37.json,http://54.235.29.9/FacialAge/BNav_EC2/DepthDuration/v2_depth_duration_MTurk/v2_DepthDuration_HTML.html#418,418,1366,649,1366,768,9-3-2022,8-10-24,57,depth_duration_stimuli/001516_2014-06-20_16-25-09_260595134347_rgbf000076-resize_2/001516_2014-06-20_16-25-09_260595134347_rgbf000076-resize_2-target.png,125,1.7445,3,1515,125,feet,jsons/VE125_randls_37.json,383712,469541,35,Man
57,506889,DepthScenes,duration_manipulation_targetAtFixation,jsons/VE125_randls_37.json,http://54.235.29.9/FacialAge/BNav_EC2/DepthDuration/v2_depth_duration_MTurk/v2_DepthDuration_HTML.html#418,418,1366,649,1366,768,9-3-2022,8-10-24,58,depth_duration_stimuli/002663_2014-06-13_15-50-26_094959634447_rgbf000075-resize_1/002663_2014-06-13_15-50-26_094959634447_rgbf000075-resize_1-target.png,125,4.7495,3,1851,124,feet,jsons/VE125_randls_37.json,383712,469541,35,Man
58,506889,DepthScenes,duration_manipulation_targetAtFixation,jsons/VE125_randls_37.json,http://54.235.29.9/FacialAge/BNav_EC2/DepthDuration/v2_depth_duration_MTurk/v2_DepthDuration_HTML.html#418,418,1366,649,1366,768,9-3-2022,8-10-24,59,depth_duration_stimuli/000409_2014-06-04_19-23-33_260595134347_rgbf000067-resize_0/000409_2014-06-04_19-23-33_260595134347_rgbf000067-resize_0-target.png,125,3.7335,5,4059,124,feet,jsons/VE125_randls_37.json,383712,469541,35,Man
59,506889,DepthScenes,duration_manipulation_targetAtFixation,jsons/VE125_randls_37.json,http://54.235.29.9/FacialAge/BNav_EC2/DepthDuration/v2_depth_duration_MTurk/v2_DepthDuration_HTML.html#418,418,1366,649,1366,768,9-3-2022,8-10-24,60,depth_duration_stimuli/002509_2014-06-24_13-19-22_094959634447_rgbf000077-resize_0/002509_2014-06-24_13-19-22_094959634447_rgbf000077-resize_0-target.png,125,1.3065,2,1820,123,feet,jsons/VE125_randls_37.json,383712,469541,35,Man
60,506889,DepthScenes,duration_manipulation_targetAtFixation,jsons/VE125_randls_37.json,http://54.235.29.9/FacialAge/BNav_EC2/DepthDuration/v2_depth_duration_MTurk/v2_DepthDuration_HTML.html#418,418,1366,649,1366,768,9-3-2022,8-10-24,61,depth_duration_stimuli/003338_2014-05-20_11-01-23_094959634447_rgbf000051-resize_6/003338_2014-05-20_11-01-23_094959634447_rgbf000051-resize_6-target.png,125,1.693,2,1411,123,feet,jsons/VE125_randls_37.json,383712,469541,35,Man
61,506889,DepthScenes,duration_manipulation_targetAtFixation,jsons/VE125_randls_37.json,http://54.235.29.9/FacialAge/BNav_EC2/DepthDuration/v2_depth_duration_MTurk/v2_DepthDuration_HTML.html#418,418,1366,649,1366,768,9-3-2022,8-10-24,62,depth_duration_stimuli/001570_2014-06-20_17-21-09_260595134347_rgbf000135-resize_4/001570_2014-06-20_17-21-09_260595134347_rgbf000135-resize_4-target.png,125,4.467,4,1642,125,feet,jsons/VE125_randls_37.json,383712,469541,35,Man
62,506889,DepthScenes,duration_manipulation_targetAtFixation,jsons/VE125_randls_37.json,http://54.235.29.9/FacialAge/BNav_EC2/DepthDuration/v2_depth_duration_MTurk/v2_DepthDuration_HTML.html#418,418,1366,649,1366,768,9-3-2022,8-10-24,63,depth_duration_stimuli/001392_2014-06-19_16-07-59_260595134347_rgbf000046-resize_1/001392_2014-06-19_16-07-59_260595134347_rgbf000046-resize_1-target.png,125,4.135,5,1772,123,feet,jsons/VE125_randls_37.json,383712,469541,35,Man
63,506889,DepthScenes,duration_manipulation_targetAtFixation,jsons/VE125_randls_37.json,http://54.235.29.9/FacialAge/BNav_EC2/DepthDuration/v2_depth_duration_MTurk/v2_DepthDuration_HTML.html#418,418,1366,649,1366,768,9-3-2022,8-10-24,64,depth_duration_stimuli/000682_2014-06-08_23-14-58_260595134347_rgbf000041-resize_5/000682_2014-06-08_23-14-58_260595134347_rgbf000041-resize_5-target.png,125,2.7239999999999998,4,1963,123,feet,jsons/VE125_randls_37.json,383712,469541,35,Man
64,506889,DepthScenes,duration_manipulation_targetAtFixation,jsons/VE125_randls_37.json,http://54.235.29.9/FacialAge/BNav_EC2/DepthDuration/v2_depth_duration_MTurk/v2_DepthDuration_HTML.html#418,418,1366,649,1366,768,9-3-2022,8-10-24,65,depth_duration_stimuli/001650_2014-06-20_12-09-00_260595134347_rgbf000087-resize_3/001650_2014-06-20_12-09-00_260595134347_rgbf000087-resize_3-target.png,125,1.9505,5,3435,124,feet,jsons/VE125_randls_37.json,383712,469541,35,Man
65,506889,DepthScenes,duration_manipulation_targetAtFixation,jsons/VE125_randls_37.json,http://54.235.29.9/FacialAge/BNav_EC2/DepthDuration/v2_depth_duration_MTurk/v2_DepthDuration_HTML.html#418,418,1366,649,1366,768,9-3-2022,8-10-24,66,depth_duration_stimuli/001222_2014-06-17_16-24-06_260595134347_rgbf000073-resize_0/001222_2014-06-17_16-24-06_260595134347_rgbf000073-resize-original.jpg,125,1.4385,0,2723,123,feet,jsons/VE125_randls_37.json,383712,469541,35,Man
66,506889,DepthScenes,duration_manipulation_targetAtFixation,jsons/VE125_randls_37.json,http://54.235.29.9/FacialAge/BNav_EC2/DepthDuration/v2_depth_duration_MTurk/v2_DepthDuration_HTML.html#418,418,1366,649,1366,768,9-3-2022,8-10-24,67,depth_duration_stimuli/000917_2014-06-09_22-45-29_260595134347_rgbf000149-resize_3/000917_2014-06-09_22-45-29_260595134347_rgbf000149-resize_3-target.png,125,4.1865,4,1562,124,feet,jsons/VE125_randls_37.json,383712,469541,35,Man
67,506889,DepthScenes,duration_manipulation_targetAtFixation,jsons/VE125_randls_37.json,http://54.235.29.9/FacialAge/BNav_EC2/DepthDuration/v2_depth_duration_MTurk/v2_DepthDuration_HTML.html#418,418,1366,649,1366,768,9-3-2022,8-10-24,68,depth_duration_stimuli/002323_2014-06-28_20-01-54_260595134347_rgbf000051-resize_4/002323_2014-06-28_20-01-54_260595134347_rgbf000051-resize_4-target.png,125,3.7310000000000003,3,1435,123,feet,jsons/VE125_randls_37.json,383712,469541,35,Man
68,506889,DepthScenes,duration_manipulation_targetAtFixation,jsons/VE125_randls_37.json,http://54.235.29.9/FacialAge/BNav_EC2/DepthDuration/v2_depth_duration_MTurk/v2_DepthDuration_HTML.html#418,418,1366,649,1366,768,9-3-2022,8-10-24,69,depth_duration_stimuli/001029_2014-06-08_13-17-57_260595134347_rgbf000065-resize_1/001029_2014-06-08_13-17-57_260595134347_rgbf000065-resize_1-target.png,125,3.0835,3,1347,124,feet,jsons/VE125_randls_37.json,383712,469541,35,Man
69,506889,DepthScenes,duration_manipulation_targetAtFixation,jsons/VE125_randls_37.json,http://54.235.29.9/FacialAge/BNav_EC2/DepthDuration/v2_depth_duration_MTurk/v2_DepthDuration_HTML.html#418,418,1366,649,1366,768,9-3-2022,8-10-24,70,depth_duration_stimuli/000677_2014-06-08_23-10-32_260595134347_rgbf000158-resize_6/000677_2014-06-08_23-10-32_260595134347_rgbf000158-resize_6-target.png,125,3.556,4,1251,124,feet,jsons/VE125_randls_37.json,383712,469541,35,Man
70,506889,DepthScenes,duration_manipulation_targetAtFixation,jsons/VE125_randls_37.json,http://54.235.29.9/FacialAge/BNav_EC2/DepthDuration/v2_depth_duration_MTurk/v2_DepthDuration_HTML.html#418,418,1366,649,1366,768,9-3-2022,8-10-24,71,depth_duration_stimuli/000739_2014-06-08_18-45-58_260595134347_rgbf000068-resize_1/000739_2014-06-08_18-45-58_260595134347_rgbf000068-resize_1-target.png,125,3.534,3,1260,124,feet,jsons/VE125_randls_37.json,383712,469541,35,Man
71,506889,DepthScenes,duration_manipulation_targetAtFixation,jsons/VE125_randls_37.json,http://54.235.29.9/FacialAge/BNav_EC2/DepthDuration/v2_depth_duration_MTurk/v2_DepthDuration_HTML.html#418,418,1366,649,1366,768,9-3-2022,8-10-24,72,depth_duration_stimuli/000734_2014-06-08_17-39-11_260595134347_rgbf000128-resize_2/000734_2014-06-08_17-39-11_260595134347_rgbf000128-resize_2-target.png,125,4.098,6,1972,124,feet,jsons/VE125_randls_37.json,383712,469541,35,Man
72,506889,DepthScenes,duration_manipulation_targetAtFixation,jsons/VE125_randls_37.json,http://54.235.29.9/FacialAge/BNav_EC2/DepthDuration/v2_depth_duration_MTurk/v2_DepthDuration_HTML.html#418,418,1366,649,1366,768,9-3-2022,8-10-24,73,depth_duration_stimuli/001808_2014-06-26_20-50-58_260595134347_rgbf000029-resize_1/001808_2014-06-26_20-50-58_260595134347_rgbf000029-resize_1-target.png,125,4.249,7,2780,124,feet,jsons/VE125_randls_37.json,383712,469541,35,Man
73,506889,DepthScenes,duration_manipulation_targetAtFixation,jsons/VE125_randls_37.json,http://54.235.29.9/FacialAge/BNav_EC2/DepthDuration/v2_depth_duration_MTurk/v2_DepthDuration_HTML.html#418,418,1366,649,1366,768,9-3-2022,8-10-24,74,depth_duration_stimuli/001815_2014-06-26_20-52-55_260595134347_rgbf000020-resize_0/001815_2014-06-26_20-52-55_260595134347_rgbf000020-resize_0-target.png,125,3.3865,4,1508,123,feet,jsons/VE125_randls_37.json,383712,469541,35,Man
74,506889,DepthScenes,duration_manipulation_targetAtFixation,jsons/VE125_randls_37.json,http://54.235.29.9/FacialAge/BNav_EC2/DepthDuration/v2_depth_duration_MTurk/v2_DepthDuration_HTML.html#418,418,1366,649,1366,768,9-3-2022,8-10-24,75,depth_duration_stimuli/001199_2014-06-17_16-03-48_260595134347_rgbf000077-resize_0/001199_2014-06-17_16-03-48_260595134347_rgbf000077-resize_0-target.png,125,3.4375,6,2450,123,feet,jsons/VE125_randls_37.json,383712,469541,35,Man
75,506889,DepthScenes,duration_manipulation_targetAtFixation,jsons/VE125_randls_37.json,http://54.235.29.9/FacialAge/BNav_EC2/DepthDuration/v2_depth_duration_MTurk/v2_DepthDuration_HTML.html#418,418,1366,649,1366,768,9-3-2022,8-10-24,76,depth_duration_stimuli/000502_2014-06-08_23-02-32_260595134347_rgbf000063-resize_4/000502_2014-06-08_23-02-32_260595134347_rgbf000063-resize_4-target.png,125,2.431,5,5068,124,feet,jsons/VE125_randls_37.json,383712,469541,35,Man
76,506889,DepthScenes,duration_manipulation_targetAtFixation,jsons/VE125_randls_37.json,http://54.235.29.9/FacialAge/BNav_EC2/DepthDuration/v2_depth_duration_MTurk/v2_DepthDuration_HTML.html#418,418,1366,649,1366,768,9-3-2022,8-10-24,77,depth_duration_stimuli/001167_2014-06-17_15-38-07_260595134347_rgbf000108-resize_0/001167_2014-06-17_15-38-07_260595134347_rgbf000108-resize_0-target.png,125,1.8505,3,1962,124,feet,jsons/VE125_randls_37.json,383712,469541,35,Man
77,506889,DepthScenes,duration_manipulation_targetAtFixation,jsons/VE125_randls_37.json,http://54.235.29.9/FacialAge/BNav_EC2/DepthDuration/v2_depth_duration_MTurk/v2_DepthDuration_HTML.html#418,418,1366,649,1366,768,9-3-2022,8-10-24,78,depth_duration_stimuli/003587_2014-05-23_16-48-02_094959634447_rgbf002384-resize_2/003587_2014-05-23_16-48-02_094959634447_rgbf002384-resize_2-target.png,125,1.357,4,1764,124,feet,jsons/VE125_randls_37.json,383712,469541,35,Man
78,506889,DepthScenes,duration_manipulation_targetAtFixation,jsons/VE125_randls_37.json,http://54.235.29.9/FacialAge/BNav_EC2/DepthDuration/v2_depth_duration_MTurk/v2_DepthDuration_HTML.html#418,418,1366,649,1366,768,9-3-2022,8-10-24,79,depth_duration_stimuli/002784_2014-06-22_19-26-30_094959634447_rgbf000083-resize_3/002784_2014-06-22_19-26-30_094959634447_rgbf000083-resize_3-target.png,125,1.8046666666667,4,2155,125,feet,jsons/VE125_randls_37.json,383712,469541,35,Man
79,506889,DepthScenes,duration_manipulation_targetAtFixation,jsons/VE125_randls_37.json,http://54.235.29.9/FacialAge/BNav_EC2/DepthDuration/v2_depth_duration_MTurk/v2_DepthDuration_HTML.html#418,418,1366,649,1366,768,9-3-2022,8-10-24,80,depth_duration_stimuli/001100_2014-06-15_17-46-26_260595134347_rgbf000225-resize_2/001100_2014-06-15_17-46-26_260595134347_rgbf000225-resize_2-target.png,125,2.24,3,1419,125,feet,jsons/VE125_randls_37.json,383712,469541,35,Man
80,506889,DepthScenes,duration_manipulation_targetAtFixation,jsons/VE125_randls_37.json,http://54.235.29.9/FacialAge/BNav_EC2/DepthDuration/v2_depth_duration_MTurk/v2_DepthDuration_HTML.html#418,418,1366,649,1366,768,9-3-2022,8-10-24,81,depth_duration_stimuli/001806_2014-06-26_20-50-20_260595134347_rgbf000091-resize_1/001806_2014-06-26_20-50-20_260595134347_rgbf000091-resize_1-target.png,125,2.7305,4,1788,124,feet,jsons/VE125_randls_37.json,383712,469541,35,Man
81,506889,DepthScenes,duration_manipulation_targetAtFixation,jsons/VE125_randls_37.json,http://54.235.29.9/FacialAge/BNav_EC2/DepthDuration/v2_depth_duration_MTurk/v2_DepthDuration_HTML.html#418,418,1366,649,1366,768,9-3-2022,8-10-24,82,depth_duration_stimuli/001617_2014-06-20_11-35-32_260595134347_rgbf000066-resize_1/001617_2014-06-20_11-35-32_260595134347_rgbf000066-resize_1-target.png,125,3.7910000000000004,7,2227,124,feet,jsons/VE125_randls_37.json,383712,469541,35,Man
82,506889,DepthScenes,duration_manipulation_targetAtFixation,jsons/VE125_randls_37.json,http://54.235.29.9/FacialAge/BNav_EC2/DepthDuration/v2_depth_duration_MTurk/v2_DepthDuration_HTML.html#418,418,1366,649,1366,768,9-3-2022,8-10-24,83,depth_duration_stimuli/001150_2014-06-17_15-27-34_260595134347_rgbf000108-resize_2/001150_2014-06-17_15-27-34_260595134347_rgbf000108-resize_2-target.png,125,4.0325,6,1972,124,feet,jsons/VE125_randls_37.json,383712,469541,35,Man
83,506889,DepthScenes,duration_manipulation_targetAtFixation,jsons/VE125_randls_37.json,http://54.235.29.9/FacialAge/BNav_EC2/DepthDuration/v2_depth_duration_MTurk/v2_DepthDuration_HTML.html#418,418,1366,649,1366,768,9-3-2022,8-10-24,84,depth_duration_stimuli/000665_2014-06-09_20-42-35_260595134347_rgbf000110-resize_1/000665_2014-06-09_20-42-35_260595134347_rgbf000110-resize_1-target.png,125,3.057,4,1308,125,feet,jsons/VE125_randls_37.json,383712,469541,35,Man
84,506889,DepthScenes,duration_manipulation_targetAtFixation,jsons/VE125_randls_37.json,http://54.235.29.9/FacialAge/BNav_EC2/DepthDuration/v2_depth_duration_MTurk/v2_DepthDuration_HTML.html#418,418,1366,649,1366,768,9-3-2022,8-10-24,85,depth_duration_stimuli/001158_2014-06-17_15-32-16_260595134347_rgbf000138-resize_2/001158_2014-06-17_15-32-16_260595134347_rgbf000138-resize_2-target.png,125,4.5315,8,2412,124,feet,jsons/VE125_randls_37.json,383712,469541,35,Man
85,506889,DepthScenes,duration_manipulation_targetAtFixation,jsons/VE125_randls_37.json,http://54.235.29.9/FacialAge/BNav_EC2/DepthDuration/v2_depth_duration_MTurk/v2_DepthDuration_HTML.html#418,418,1366,649,1366,768,9-3-2022,8-10-24,86,depth_duration_stimuli/000556_2014-06-09_22-42-56_260595134347_rgbf000214-resize_1/000556_2014-06-09_22-42-56_260595134347_rgbf000214-resize_1-target.png,125,4.8415,9,2235,124,feet,jsons/VE125_randls_37.json,383712,469541,35,Man
86,506889,DepthScenes,duration_manipulation_targetAtFixation,jsons/VE125_randls_37.json,http://54.235.29.9/FacialAge/BNav_EC2/DepthDuration/v2_depth_duration_MTurk/v2_DepthDuration_HTML.html#418,418,1366,649,1366,768,9-3-2022,8-10-24,87,depth_duration_stimuli/000368_2014-06-09_15-53-01_260595134347_rgbf000155-resize_2/000368_2014-06-09_15-53-01_260595134347_rgbf000155-resize_2-target.png,125,2.4859999999999998,4,2561,122,feet,jsons/VE125_randls_37.json,383712,469541,35,Man
87,506889,DepthScenes,duration_manipulation_targetAtFixation,jsons/VE125_randls_37.json,http://54.235.29.9/FacialAge/BNav_EC2/DepthDuration/v2_depth_duration_MTurk/v2_DepthDuration_HTML.html#418,418,1366,649,1366,768,9-3-2022,8-10-24,88,depth_duration_stimuli/002678_2014-06-13_16-15-32_094959634447_rgbf000151-resize_6/002678_2014-06-13_16-15-32_094959634447_rgbf000151-resize_6-target.png,125,2.1830000000000003,4,1187,123,feet,jsons/VE125_randls_37.json,383712,469541,35,Man
88,506889,DepthScenes,duration_manipulation_targetAtFixation,jsons/VE125_randls_37.json,http://54.235.29.9/FacialAge/BNav_EC2/DepthDuration/v2_depth_duration_MTurk/v2_DepthDuration_HTML.html#418,418,1366,649,1366,768,9-3-2022,8-10-24,89,depth_duration_stimuli/002964_2014-06-08_17-46-11_094959634447_rgbf000091-resize_4/002964_2014-06-08_17-46-11_094959634447_rgbf000091-resize_4-target.png,125,1.6909999999999998,3,1236,124,feet,jsons/VE125_randls_37.json,383712,469541,35,Man
89,506889,DepthScenes,duration_manipulation_targetAtFixation,jsons/VE125_randls_37.json,http://54.235.29.9/FacialAge/BNav_EC2/DepthDuration/v2_depth_duration_MTurk/v2_DepthDuration_HTML.html#418,418,1366,649,1366,768,9-3-2022,8-10-24,90,depth_duration_stimuli/002136_2014-06-25_21-18-03_260595134347_rgbf000109-resize_3/002136_2014-06-25_21-18-03_260595134347_rgbf000109-resize_3-target.png,125,1.9569999999999999,3,1659,124,feet,jsons/VE125_randls_37.json,383712,469541,35,Man
90,506889,DepthScenes,duration_manipulation_targetAtFixation,jsons/VE125_randls_37.json,http://54.235.29.9/FacialAge/BNav_EC2/DepthDuration/v2_depth_duration_MTurk/v2_DepthDuration_HTML.html#418,418,1366,649,1366,768,9-3-2022,8-10-24,91,depth_duration_stimuli/001244_2014-06-17_16-47-45_260595134347_rgbf000030-resize_4/001244_2014-06-17_16-47-45_260595134347_rgbf000030-resize_4-target.png,125,2.0425,2,3724,124,feet,jsons/VE125_randls_37.json,383712,469541,35,Man
91,506889,DepthScenes,duration_manipulation_targetAtFixation,jsons/VE125_randls_37.json,http://54.235.29.9/FacialAge/BNav_EC2/DepthDuration/v2_depth_duration_MTurk/v2_DepthDuration_HTML.html#418,418,1366,649,1366,768,9-3-2022,8-10-24,92,depth_duration_stimuli/003495_2014-05-21_16-01-51_094959634447_rgbf000100-resize_3/003495_2014-05-21_16-01-51_094959634447_rgbf000100-resize_3-target.png,125,1.6255,3,1667,124,feet,jsons/VE125_randls_37.json,383712,469541,35,Man
92,506889,DepthScenes,duration_manipulation_targetAtFixation,jsons/VE125_randls_37.json,http://54.235.29.9/FacialAge/BNav_EC2/DepthDuration/v2_depth_duration_MTurk/v2_DepthDuration_HTML.html#418,418,1366,649,1366,768,9-3-2022,8-10-24,93,depth_duration_stimuli/002375_2014-06-28_20-13-44_260595134347_rgbf000032-resize_1/002375_2014-06-28_20-13-44_260595134347_rgbf000032-resize_1-target.png,125,4.0175,5,1852,124,feet,jsons/VE125_randls_37.json,383712,469541,35,Man
93,506889,DepthScenes,duration_manipulation_targetAtFixation,jsons/VE125_randls_37.json,http://54.235.29.9/FacialAge/BNav_EC2/DepthDuration/v2_depth_duration_MTurk/v2_DepthDuration_HTML.html#418,418,1366,649,1366,768,9-3-2022,8-10-24,94,depth_duration_stimuli/002657_2014-06-13_15-29-54_094959634447_rgbf000150-resize_1/002657_2014-06-13_15-29-54_094959634447_rgbf000150-resize_1-target.png,125,4.919,7,2172,123,feet,jsons/VE125_randls_37.json,383712,469541,35,Man
94,506889,DepthScenes,duration_manipulation_targetAtFixation,jsons/VE125_randls_37.json,http://54.235.29.9/FacialAge/BNav_EC2/DepthDuration/v2_depth_duration_MTurk/v2_DepthDuration_HTML.html#418,418,1366,649,1366,768,9-3-2022,8-10-24,95,depth_duration_stimuli/003534_2014-05-22_15-06-10_094959634447_rgbf000102-resize_4/003534_2014-05-22_15-06-10_094959634447_rgbf000102-resize_4-target.png,125,1.426,6,1700,124,feet,jsons/VE125_randls_37.json,383712,469541,35,Man
95,506889,DepthScenes,duration_manipulation_targetAtFixation,jsons/VE125_randls_37.json,http://54.235.29.9/FacialAge/BNav_EC2/DepthDuration/v2_depth_duration_MTurk/v2_DepthDuration_HTML.html#418,418,1366,649,1366,768,9-3-2022,8-10-24,96,depth_duration_stimuli/002637_2014-06-24_14-51-13_094959634447_rgbf000066-resize_4/002637_2014-06-24_14-51-13_094959634447_rgbf000066-resize_4-target.png,125,1.9955,6,2235,125,feet,jsons/VE125_randls_37.json,383712,469541,35,Man
96,506889,DepthScenes,duration_manipulation_targetAtFixation,jsons/VE125_randls_37.json,http://54.235.29.9/FacialAge/BNav_EC2/DepthDuration/v2_depth_duration_MTurk/v2_DepthDuration_HTML.html#418,418,1366,649,1366,768,9-3-2022,8-10-24,97,depth_duration_stimuli/001449_2014-06-19_17-01-27_260595134347_rgbf000116-resize_2/001449_2014-06-19_17-01-27_260595134347_rgbf000116-resize_2-target.png,125,3.452,4,1460,124,feet,jsons/VE125_randls_37.json,383712,469541,35,Man
97,506889,DepthScenes,duration_manipulation_targetAtFixation,jsons/VE125_randls_37.json,http://54.235.29.9/FacialAge/BNav_EC2/DepthDuration/v2_depth_duration_MTurk/v2_DepthDuration_HTML.html#418,418,1366,649,1366,768,9-3-2022,8-10-24,98,depth_duration_stimuli/001450_2014-06-19_17-02-03_260595134347_rgbf000203-resize_4/001450_2014-06-19_17-02-03_260595134347_rgbf000203-resize_4-target.png,125,4.0106666666667,4,1706,124,feet,jsons/VE125_randls_37.json,383712,469541,35,Man
98,506889,DepthScenes,duration_manipulation_targetAtFixation,jsons/VE125_randls_37.json,http://54.235.29.9/FacialAge/BNav_EC2/DepthDuration/v2_depth_duration_MTurk/v2_DepthDuration_HTML.html#418,418,1366,649,1366,768,9-3-2022,8-10-24,99,depth_duration_stimuli/001540_2014-06-20_17-01-05_260595134347_rgbf000086-resize_2/001540_2014-06-20_17-01-05_260595134347_rgbf000086-resize-original.jpg,125,1.459,0,2404,124,feet,jsons/VE125_randls_37.json,383712,469541,35,Man
99,506889,DepthScenes,duration_manipulation_targetAtFixation,jsons/VE125_randls_37.json,http://54.235.29.9/FacialAge/BNav_EC2/DepthDuration/v2_depth_duration_MTurk/v2_DepthDuration_HTML.html#418,418,1366,649,1366,768,9-3-2022,8-10-24,100,depth_duration_stimuli/000788_2014-06-08_22-34-36_260595134347_rgbf000131-resize_1/000788_2014-06-08_22-34-36_260595134347_rgbf000131-resize_1-target.png,125,3.359,5,1307,124,feet,jsons/VE125_randls_37.json,383712,469541,35,Man
100,506889,DepthScenes,duration_manipulation_targetAtFixation,jsons/VE125_randls_37.json,http://54.235.29.9/FacialAge/BNav_EC2/DepthDuration/v2_depth_duration_MTurk/v2_DepthDuration_HTML.html#418,418,1366,649,1366,768,9-3-2022,8-10-24,101,depth_duration_stimuli/001235_2014-06-17_16-37-36_260595134347_rgbf000084-resize_4/001235_2014-06-17_16-37-36_260595134347_rgbf000084-resize_4-target.png,125,3.6605,4,1156,125,feet,jsons/VE125_randls_37.json,383712,469541,35,Man
101,506889,DepthScenes,duration_manipulation_targetAtFixation,jsons/VE125_randls_37.json,http://54.235.29.9/FacialAge/BNav_EC2/DepthDuration/v2_depth_duration_MTurk/v2_DepthDuration_HTML.html#418,418,1366,649,1366,768,9-3-2022,8-10-24,102,depth_duration_stimuli/001417_2014-06-19_16-25-36_260595134347_rgbf000115-resize_5/001417_2014-06-19_16-25-36_260595134347_rgbf000115-resize_5-target.png,125,4.6255,3,1691,124,feet,jsons/VE125_randls_37.json,383712,469541,35,Man
102,506889,DepthScenes,duration_manipulation_targetAtFixation,jsons/VE125_randls_37.json,http://54.235.29.9/FacialAge/BNav_EC2/DepthDuration/v2_depth_duration_MTurk/v2_DepthDuration_HTML.html#418,418,1366,649,1366,768,9-3-2022,8-10-24,103,depth_duration_stimuli/003081_2014-06-15_15-19-16_094959634447_rgbf000150-resize_1/003081_2014-06-15_15-19-16_094959634447_rgbf000150-resize_1-target.png,125,3.9125,8,2514,124,feet,jsons/VE125_randls_37.json,383712,469541,35,Man
103,506889,DepthScenes,duration_manipulation_targetAtFixation,jsons/VE125_randls_37.json,http://54.235.29.9/FacialAge/BNav_EC2/DepthDuration/v2_depth_duration_MTurk/v2_DepthDuration_HTML.html#418,418,1366,649,1366,768,9-3-2022,8-10-24,104,depth_duration_stimuli/000878_2014-06-08_22-52-45_260595134347_rgbf000045-resize_2/000878_2014-06-08_22-52-45_260595134347_rgbf000045-resize_2-target.png,125,2.092,5,1837,124,feet,jsons/VE125_randls_37.json,383712,469541,35,Man
104,506889,DepthScenes,duration_manipulation_targetAtFixation,jsons/VE125_randls_37.json,http://54.235.29.9/FacialAge/BNav_EC2/DepthDuration/v2_depth_duration_MTurk/v2_DepthDuration_HTML.html#418,418,1366,649,1366,768,9-3-2022,8-10-24,105,depth_duration_stimuli/002953_2014-06-08_17-32-18_094959634447_rgbf000059-resize_5/002953_2014-06-08_17-32-18_094959634447_rgbf000059-resize_5-target.png,125,1.551,7,1946,125,feet,jsons/VE125_randls_37.json,383712,469541,35,Man
105,506889,DepthScenes,duration_manipulation_targetAtFixation,jsons/VE125_randls_37.json,http://54.235.29.9/FacialAge/BNav_EC2/DepthDuration/v2_depth_duration_MTurk/v2_DepthDuration_HTML.html#418,418,1366,649,1366,768,9-3-2022,8-10-24,106,depth_duration_stimuli/000736_2014-06-08_18-24-15_260595134347_rgbf000206-resize_3/000736_2014-06-08_18-24-15_260595134347_rgbf000206-resize_3-target.png,125,3.515,5,1586,124,feet,jsons/VE125_randls_37.json,383712,469541,35,Man
106,506889,DepthScenes,duration_manipulation_targetAtFixation,jsons/VE125_randls_37.json,http://54.235.29.9/FacialAge/BNav_EC2/DepthDuration/v2_depth_duration_MTurk/v2_DepthDuration_HTML.html#418,418,1366,649,1366,768,9-3-2022,8-10-24,107,depth_duration_stimuli/000137_2014-05-20_17-04-49_260595134347_rgbf000120-resize_1/000137_2014-05-20_17-04-49_260595134347_rgbf000120-resize_1-target.png,125,3.786,7,1788,123,feet,jsons/VE125_randls_37.json,383712,469541,35,Man
107,506889,DepthScenes,duration_manipulation_targetAtFixation,jsons/VE125_randls_37.json,http://54.235.29.9/FacialAge/BNav_EC2/DepthDuration/v2_depth_duration_MTurk/v2_DepthDuration_HTML.html#418,418,1366,649,1366,768,9-3-2022,8-10-24,108,depth_duration_stimuli/001055_2014-06-08_18-45-35_260595134347_rgbf000111-resize_4/001055_2014-06-08_18-45-35_260595134347_rgbf000111-resize_4-target.png,125,2.4290000000000003,5,1291,123,feet,jsons/VE125_randls_37.json,383712,469541,35,Man
108,506889,DepthScenes,duration_manipulation_targetAtFixation,jsons/VE125_randls_37.json,http://54.235.29.9/FacialAge/BNav_EC2/DepthDuration/v2_depth_duration_MTurk/v2_DepthDuration_HTML.html#418,418,1366,649,1366,768,9-3-2022,8-10-24,109,depth_duration_stimuli/000549_2014-06-08_22-10-24_260595134347_rgbf000247-resize_3/000549_2014-06-08_22-10-24_260595134347_rgbf000247-resize_3-target.png,125,1.841,5,1443,124,feet,jsons/VE125_randls_37.json,383712,469541,35,Man
109,506889,DepthScenes,duration_manipulation_targetAtFixation,jsons/VE125_randls_37.json,http://54.235.29.9/FacialAge/BNav_EC2/DepthDuration/v2_depth_duration_MTurk/v2_DepthDuration_HTML.html#418,418,1366,649,1366,768,9-3-2022,8-10-24,110,depth_duration_stimuli/000486_2014-06-09_20-47-20_260595134347_rgbf000143-resize_2/000486_2014-06-09_20-47-20_260595134347_rgbf000143-resize_2-target.png,125,4.8325,4,1219,124,feet,jsons/VE125_randls_37.json,383712,469541,35,Man
110,506889,DepthScenes,duration_manipulation_targetAtFixation,jsons/VE125_randls_37.json,http://54.235.29.9/FacialAge/BNav_EC2/DepthDuration/v2_depth_duration_MTurk/v2_DepthDuration_HTML.html#418,418,1366,649,1366,768,9-3-2022,8-10-24,111,depth_duration_stimuli/003083_2014-06-15_15-21-03_094959634447_rgbf000063-resize_1/003083_2014-06-15_15-21-03_094959634447_rgbf000063-resize_1-target.png,125,4.1405,5,1298,123,feet,jsons/VE125_randls_37.json,383712,469541,35,Man
111,506889,DepthScenes,duration_manipulation_targetAtFixation,jsons/VE125_randls_37.json,http://54.235.29.9/FacialAge/BNav_EC2/DepthDuration/v2_depth_duration_MTurk/v2_DepthDuration_HTML.html#418,418,1366,649,1366,768,9-3-2022,8-10-24,112,depth_duration_stimuli/002788_2014-06-22_19-36-03_094959634447_rgbf000088-resize_2/002788_2014-06-22_19-36-03_094959634447_rgbf000088-resize_2-target.png,125,1.6465,5,1451,122,feet,jsons/VE125_randls_37.json,383712,469541,35,Man
112,506889,DepthScenes,duration_manipulation_targetAtFixation,jsons/VE125_randls_37.json,http://54.235.29.9/FacialAge/BNav_EC2/DepthDuration/v2_depth_duration_MTurk/v2_DepthDuration_HTML.html#418,418,1366,649,1366,768,9-3-2022,8-10-24,113,depth_duration_stimuli/000749_2014-06-08_21-55-06_260595134347_rgbf000070-resize_2/000749_2014-06-08_21-55-06_260595134347_rgbf000070-resize_2-target.png,125,2.331,5,1387,124,feet,jsons/VE125_randls_37.json,383712,469541,35,Man
113,506889,DepthScenes,duration_manipulation_targetAtFixation,jsons/VE125_randls_37.json,http://54.235.29.9/FacialAge/BNav_EC2/DepthDuration/v2_depth_duration_MTurk/v2_DepthDuration_HTML.html#418,418,1366,649,1366,768,9-3-2022,8-10-24,114,depth_duration_stimuli/000414_2014-06-04_19-49-13_260595134347_rgbf000044-resize_0/000414_2014-06-04_19-49-13_260595134347_rgbf000044-resize_0-target.png,125,4.329,4,1346,124,feet,jsons/VE125_randls_37.json,383712,469541,35,Man
114,506889,DepthScenes,duration_manipulation_targetAtFixation,jsons/VE125_randls_37.json,http://54.235.29.9/FacialAge/BNav_EC2/DepthDuration/v2_depth_duration_MTurk/v2_DepthDuration_HTML.html#418,418,1366,649,1366,768,9-3-2022,8-10-24,115,depth_duration_stimuli/003129_2014-05-12_10-48-10_094959634447_rgbf000100-resize_0/003129_2014-05-12_10-48-10_094959634447_rgbf000100-resize_0-target.png,125,4.9305,6,1204,124,feet,jsons/VE125_randls_37.json,383712,469541,35,Man
115,506889,DepthScenes,duration_manipulation_targetAtFixation,jsons/VE125_randls_37.json,http://54.235.29.9/FacialAge/BNav_EC2/DepthDuration/v2_depth_duration_MTurk/v2_DepthDuration_HTML.html#418,418,1366,649,1366,768,9-3-2022,8-10-24,116,depth_duration_stimuli/001170_2014-06-17_15-43-44_260595134347_rgbf000096-resize_6/001170_2014-06-17_15-43-44_260595134347_rgbf000096-resize-original.jpg,125,1.1909999999999998,0,2507,123,feet,jsons/VE125_randls_37.json,383712,469541,35,Man
116,506889,DepthScenes,duration_manipulation_targetAtFixation,jsons/VE125_randls_37.json,http://54.235.29.9/FacialAge/BNav_EC2/DepthDuration/v2_depth_duration_MTurk/v2_DepthDuration_HTML.html#418,418,1366,649,1366,768,9-3-2022,8-10-24,117,depth_duration_stimuli/002763_2014-06-22_19-13-10_094959634447_rgbf000075-resize_4/002763_2014-06-22_19-13-10_094959634447_rgbf000075-resize_4-target.png,125,1.68375,5,2490,124,feet,jsons/VE125_randls_37.json,383712,469541,35,Man
117,506889,DepthScenes,duration_manipulation_targetAtFixation,jsons/VE125_randls_37.json,http://54.235.29.9/FacialAge/BNav_EC2/DepthDuration/v2_depth_duration_MTurk/v2_DepthDuration_HTML.html#418,418,1366,649,1366,768,9-3-2022,8-10-24,118,depth_duration_stimuli/002209_2014-06-28_18-36-10_260595134347_rgbf000051-resize_1/002209_2014-06-28_18-36-10_260595134347_rgbf000051-resize_1-target.png,125,2.057,4,1851,124,feet,jsons/VE125_randls_37.json,383712,469541,35,Man
118,506889,DepthScenes,duration_manipulation_targetAtFixation,jsons/VE125_randls_37.json,http://54.235.29.9/FacialAge/BNav_EC2/DepthDuration/v2_depth_duration_MTurk/v2_DepthDuration_HTML.html#418,418,1366,649,1366,768,9-3-2022,8-10-24,119,depth_duration_stimuli/000436_2014-06-09_22-25-11_260595134347_rgbf000137-resize_1/000436_2014-06-09_22-25-11_260595134347_rgbf000137-resize_1-target.png,125,4.0705,5,1276,125,feet,jsons/VE125_randls_37.json,383712,469541,35,Man
119,506889,DepthScenes,duration_manipulation_targetAtFixation,jsons/VE125_randls_37.json,http://54.235.29.9/FacialAge/BNav_EC2/DepthDuration/v2_depth_duration_MTurk/v2_DepthDuration_HTML.html#418,418,1366,649,1366,768,9-3-2022,8-10-24,120,depth_duration_stimuli/002444_2014-06-28_20-32-08_260595134347_rgbf000027-resize_0/002444_2014-06-28_20-32-08_260595134347_rgbf000027-resize_0-target.png,125,4.388999999999999,8,2538,125,feet,jsons/VE125_randls_37.json,383712,469541,35,Man
120,506889,DepthScenes,duration_manipulation_targetAtFixation,jsons/VE125_randls_37.json,http://54.235.29.9/FacialAge/BNav_EC2/DepthDuration/v2_depth_duration_MTurk/v2_DepthDuration_HTML.html#418,418,1366,649,1366,768,9-3-2022,8-10-24,121,depth_duration_stimuli/002570_2014-06-24_13-59-54_094959634447_rgbf000059-resize_0/002570_2014-06-24_13-59-54_094959634447_rgbf000059-resize_0-target.png,125,4.037,3,1563,124,feet,jsons/VE125_randls_37.json,383712,469541,35,Man
121,506889,DepthScenes,duration_manipulation_targetAtFixation,jsons/VE125_randls_37.json,http://54.235.29.9/FacialAge/BNav_EC2/DepthDuration/v2_depth_duration_MTurk/v2_DepthDuration_HTML.html#418,418,1366,649,1366,768,9-3-2022,8-10-24,122,depth_duration_stimuli/002467_2014-06-28_20-38-07_260595134347_rgbf000026-resize_2/002467_2014-06-28_20-38-07_260595134347_rgbf000026-resize_2-target.png,125,4.742,5,1627,123,feet,jsons/VE125_randls_37.json,383712,469541,35,Man
122,506889,DepthScenes,duration_manipulation_targetAtFixation,jsons/VE125_randls_37.json,http://54.235.29.9/FacialAge/BNav_EC2/DepthDuration/v2_depth_duration_MTurk/v2_DepthDuration_HTML.html#418,418,1366,649,1366,768,9-3-2022,8-10-24,123,depth_duration_stimuli/003621_2014-05-23_18-06-08_094959634447_rgbf000101-resize_1/003621_2014-05-23_18-06-08_094959634447_rgbf000101-resize_1-target.png,125,3.9835,8,2283,124,feet,jsons/VE125_randls_37.json,383712,469541,35,Man
123,506889,DepthScenes,duration_manipulation_targetAtFixation,jsons/VE125_randls_37.json,http://54.235.29.9/FacialAge/BNav_EC2/DepthDuration/v2_depth_duration_MTurk/v2_DepthDuration_HTML.html#418,418,1366,649,1366,768,9-3-2022,8-10-24,124,depth_duration_stimuli/001584_2014-06-20_11-07-43_260595134347_rgbf000002-resize_1/001584_2014-06-20_11-07-43_260595134347_rgbf000002-resize_1-target.png,125,3.53,5,1820,123,feet,jsons/VE125_randls_37.json,383712,469541,35,Man
124,506889,DepthScenes,duration_manipulation_targetAtFixation,jsons/VE125_randls_37.json,http://54.235.29.9/FacialAge/BNav_EC2/DepthDuration/v2_depth_duration_MTurk/v2_DepthDuration_HTML.html#418,418,1366,649,1366,768,9-3-2022,8-10-24,125,depth_duration_stimuli/001555_2014-06-20_17-12-10_260595134347_rgbf000065-resize_4/001555_2014-06-20_17-12-10_260595134347_rgbf000065-resize_4-target.png,125,1.633,4,1523,124,feet,jsons/VE125_randls_37.json,383712,469541,35,Man
125,506889,DepthScenes,duration_manipulation_targetAtFixation,jsons/VE125_randls_37.json,http://54.235.29.9/FacialAge/BNav_EC2/DepthDuration/v2_depth_duration_MTurk/v2_DepthDuration_HTML.html#418,418,1366,649,1366,768,9-3-2022,8-10-24,126,depth_duration_stimuli/000103_2014-05-14_22-01-17_260595134347_rgbf000152-resize_5/000103_2014-05-14_22-01-17_260595134347_rgbf000152-resize_5-target.png,125,1.993,7,2011,123,feet,jsons/VE125_randls_37.json,383712,469541,35,Man
126,506889,DepthScenes,duration_manipulation_targetAtFixation,jsons/VE125_randls_37.json,http://54.235.29.9/FacialAge/BNav_EC2/DepthDuration/v2_depth_duration_MTurk/v2_DepthDuration_HTML.html#418,418,1366,649,1366,768,9-3-2022,8-10-24,127,depth_duration_stimuli/002630_2014-06-24_14-47-50_094959634447_rgbf000055-resize_1/002630_2014-06-24_14-47-50_094959634447_rgbf000055-resize_1-target.png,125,3.0095,16,4107,124,feet,jsons/VE125_randls_37.json,383712,469541,35,Man
127,506889,DepthScenes,duration_manipulation_targetAtFixation,jsons/VE125_randls_37.json,http://54.235.29.9/FacialAge/BNav_EC2/DepthDuration/v2_depth_duration_MTurk/v2_DepthDuration_HTML.html#418,418,1366,649,1366,768,9-3-2022,8-10-24,128,depth_duration_stimuli/002758_2014-06-22_19-11-20_094959634447_rgbf000128-resize_1/002758_2014-06-22_19-11-20_094959634447_rgbf000128-resize_1-target.png,125,2.555,3,1675,125,feet,jsons/VE125_randls_37.json,383712,469541,35,Man
128,506889,DepthScenes,duration_manipulation_targetAtFixation,jsons/VE125_randls_37.json,http://54.235.29.9/FacialAge/BNav_EC2/DepthDuration/v2_depth_duration_MTurk/v2_DepthDuration_HTML.html#418,418,1366,649,1366,768,9-3-2022,8-10-24,129,depth_duration_stimuli/001110_2014-06-15_17-25-28_260595134347_rgbf000150-resize_1/001110_2014-06-15_17-25-28_260595134347_rgbf000150-resize_1-target.png,125,1.7115,3,1603,124,feet,jsons/VE125_randls_37.json,383712,469541,35,Man
129,506889,DepthScenes,duration_manipulation_targetAtFixation,jsons/VE125_randls_37.json,http://54.235.29.9/FacialAge/BNav_EC2/DepthDuration/v2_depth_duration_MTurk/v2_DepthDuration_HTML.html#418,418,1366,649,1366,768,9-3-2022,8-10-24,130,depth_duration_stimuli/000927_2014-06-09_16-32-30_260595134347_rgbf000123-resize_3/000927_2014-06-09_16-32-30_260595134347_rgbf000123-resize_3-target.png,125,2.6785,5,1675,125,feet,jsons/VE125_randls_37.json,383712,469541,35,Man
130,506889,DepthScenes,duration_manipulation_targetAtFixation,jsons/VE125_randls_37.json,http://54.235.29.9/FacialAge/BNav_EC2/DepthDuration/v2_depth_duration_MTurk/v2_DepthDuration_HTML.html#418,418,1366,649,1366,768,9-3-2022,8-10-24,131,depth_duration_stimuli/000470_2014-06-09_19-42-40_260595134347_rgbf000094-resize_1/000470_2014-06-09_19-42-40_260595134347_rgbf000094-resize_1-target.png,125,1.831,2,1411,124,feet,jsons/VE125_randls_37.json,383712,469541,35,Man
131,506889,DepthScenes,duration_manipulation_targetAtFixation,jsons/VE125_randls_37.json,http://54.235.29.9/FacialAge/BNav_EC2/DepthDuration/v2_depth_duration_MTurk/v2_DepthDuration_HTML.html#418,418,1366,649,1366,768,9-3-2022,8-10-24,132,depth_duration_stimuli/000109_2014-05-14_23-41-52_260595134347_rgbf000035-resize_9/000109_2014-05-14_23-41-52_260595134347_rgbf000035-resize_9-target.png,125,1.3545,2,1242,124,feet,jsons/VE125_randls_37.json,383712,469541,35,Man
132,506889,DepthScenes,duration_manipulation_targetAtFixation,jsons/VE125_randls_37.json,http://54.235.29.9/FacialAge/BNav_EC2/DepthDuration/v2_depth_duration_MTurk/v2_DepthDuration_HTML.html#418,418,1366,649,1366,768,9-3-2022,8-10-24,133,depth_duration_stimuli/003492_2014-05-21_15-50-55_094959634447_rgbf000828-resize_1/003492_2014-05-21_15-50-55_094959634447_rgbf000828-resize_1-target.png,125,4.06875,3,1178,125,feet,jsons/VE125_randls_37.json,383712,469541,35,Man
133,506889,DepthScenes,duration_manipulation_targetAtFixation,jsons/VE125_randls_37.json,http://54.235.29.9/FacialAge/BNav_EC2/DepthDuration/v2_depth_duration_MTurk/v2_DepthDuration_HTML.html#418,418,1366,649,1366,768,9-3-2022,8-10-24,134,depth_duration_stimuli/002568_2014-06-24_13-59-21_094959634447_rgbf000062-resize_4/002568_2014-06-24_13-59-21_094959634447_rgbf000062-resize_4-target.png,125,3.015,4,1148,124,feet,jsons/VE125_randls_37.json,383712,469541,35,Man
134,506889,DepthScenes,duration_manipulation_targetAtFixation,jsons/VE125_randls_37.json,http://54.235.29.9/FacialAge/BNav_EC2/DepthDuration/v2_depth_duration_MTurk/v2_DepthDuration_HTML.html#418,418,1366,649,1366,768,9-3-2022,8-10-24,135,depth_duration_stimuli/002072_2014-06-24_21-48-06_260595134347_rgbf000115-resize_0/002072_2014-06-24_21-48-06_260595134347_rgbf000115-resize-original.jpg,125,4.702,0,2290,124,feet,jsons/VE125_randls_37.json,383712,469541,35,Man
135,506889,DepthScenes,duration_manipulation_targetAtFixation,jsons/VE125_randls_37.json,http://54.235.29.9/FacialAge/BNav_EC2/DepthDuration/v2_depth_duration_MTurk/v2_DepthDuration_HTML.html#418,418,1366,649,1366,768,9-3-2022,8-10-24,136,depth_duration_stimuli/000692_2014-06-08_13-09-42_260595134347_rgbf000199-resize_2/000692_2014-06-08_13-09-42_260595134347_rgbf000199-resize_2-target.png,125,3.661,5,1235,125,feet,jsons/VE125_randls_37.json,383712,469541,35,Man
136,506889,DepthScenes,duration_manipulation_targetAtFixation,jsons/VE125_randls_37.json,http://54.235.29.9/FacialAge/BNav_EC2/DepthDuration/v2_depth_duration_MTurk/v2_DepthDuration_HTML.html#418,418,1366,649,1366,768,9-3-2022,8-10-24,137,depth_duration_stimuli/001094_2014-06-15_17-36-00_260595134347_rgbf000205-resize_0/001094_2014-06-15_17-36-00_260595134347_rgbf000205-resize_0-target.png,125,4.2175,4,1132,123,feet,jsons/VE125_randls_37.json,383712,469541,35,Man
137,506889,DepthScenes,duration_manipulation_targetAtFixation,jsons/VE125_randls_37.json,http://54.235.29.9/FacialAge/BNav_EC2/DepthDuration/v2_depth_duration_MTurk/v2_DepthDuration_HTML.html#418,418,1366,649,1366,768,9-3-2022,8-10-24,138,depth_duration_stimuli/001164_2014-06-17_15-35-46_260595134347_rgbf000085-resize_3/001164_2014-06-17_15-35-46_260595134347_rgbf000085-resize_3-target.png,125,2.354,3,1387,124,feet,jsons/VE125_randls_37.json,383712,469541,35,Man
138,506889,DepthScenes,duration_manipulation_targetAtFixation,jsons/VE125_randls_37.json,http://54.235.29.9/FacialAge/BNav_EC2/DepthDuration/v2_depth_duration_MTurk/v2_DepthDuration_HTML.html#418,418,1366,649,1366,768,9-3-2022,8-10-24,139,depth_duration_stimuli/001136_2014-06-17_15-19-41_260595134347_rgbf000076-resize_3/001136_2014-06-17_15-19-41_260595134347_rgbf000076-resize_3-target.png,125,1.8655,5,1259,124,feet,jsons/VE125_randls_37.json,383712,469541,35,Man
139,506889,DepthScenes,duration_manipulation_targetAtFixation,jsons/VE125_randls_37.json,http://54.235.29.9/FacialAge/BNav_EC2/DepthDuration/v2_depth_duration_MTurk/v2_DepthDuration_HTML.html#418,418,1366,649,1366,768,9-3-2022,8-10-24,140,depth_duration_stimuli/002725_2014-06-22_11-47-51_094959634447_rgbf000070-resize_1/002725_2014-06-22_11-47-51_094959634447_rgbf000070-resize_1-target.png,125,2.195,4,1828,124,feet,jsons/VE125_randls_37.json,383712,469541,35,Man
140,506889,DepthScenes,duration_manipulation_targetAtFixation,jsons/VE125_randls_37.json,http://54.235.29.9/FacialAge/BNav_EC2/DepthDuration/v2_depth_duration_MTurk/v2_DepthDuration_HTML.html#418,418,1366,649,1366,768,9-3-2022,8-10-24,141,depth_duration_stimuli/002344_2014-06-28_20-06-29_260595134347_rgbf000030-resize_1/002344_2014-06-28_20-06-29_260595134347_rgbf000030-resize_1-target.png,125,1.5795,2,1330,124,feet,jsons/VE125_randls_37.json,383712,469541,35,Man
141,506889,DepthScenes,duration_manipulation_targetAtFixation,jsons/VE125_randls_37.json,http://54.235.29.9/FacialAge/BNav_EC2/DepthDuration/v2_depth_duration_MTurk/v2_DepthDuration_HTML.html#418,418,1366,649,1366,768,9-3-2022,8-10-24,142,depth_duration_stimuli/000929_2014-06-09_16-33-19_260595134347_rgbf000139-resize_0/000929_2014-06-09_16-33-19_260595134347_rgbf000139-resize_0-target.png,125,2.8680000000000003,3,1355,125,feet,jsons/VE125_randls_37.json,383712,469541,35,Man
142,506889,DepthScenes,duration_manipulation_targetAtFixation,jsons/VE125_randls_37.json,http://54.235.29.9/FacialAge/BNav_EC2/DepthDuration/v2_depth_duration_MTurk/v2_DepthDuration_HTML.html#418,418,1366,649,1366,768,9-3-2022,8-10-24,143,depth_duration_stimuli/000457_2014-06-08_16-52-43_260595134347_rgbf000199-resize_1/000457_2014-06-08_16-52-43_260595134347_rgbf000199-resize_1-target.png,125,3.6489999999999996,4,1163,124,feet,jsons/VE125_randls_37.json,383712,469541,35,Man
143,506889,DepthScenes,duration_manipulation_targetAtFixation,jsons/VE125_randls_37.json,http://54.235.29.9/FacialAge/BNav_EC2/DepthDuration/v2_depth_duration_MTurk/v2_DepthDuration_HTML.html#418,418,1366,649,1366,768,9-3-2022,8-10-24,144,depth_duration_stimuli/002445_2014-06-28_20-32-16_260595134347_rgbf000029-resize_4/002445_2014-06-28_20-32-16_260595134347_rgbf000029-resize_4-target.png,125,2.5315,3,1819,122,feet,jsons/VE125_randls_37.json,383712,469541,35,Man
144,506889,DepthScenes,duration_manipulation_targetAtFixation,jsons/VE125_randls_37.json,http://54.235.29.9/FacialAge/BNav_EC2/DepthDuration/v2_depth_duration_MTurk/v2_DepthDuration_HTML.html#418,418,1366,649,1366,768,9-3-2022,8-10-24,145,depth_duration_stimuli/000780_2014-06-08_22-28-29_260595134347_rgbf000126-resize_1/000780_2014-06-08_22-28-29_260595134347_rgbf000126-resize_1-target.png,125,3.3825,5,1211,124,feet,jsons/VE125_randls_37.json,383712,469541,35,Man
145,506889,DepthScenes,duration_manipulation_targetAtFixation,jsons/VE125_randls_37.json,http://54.235.29.9/FacialAge/BNav_EC2/DepthDuration/v2_depth_duration_MTurk/v2_DepthDuration_HTML.html#418,418,1366,649,1366,768,9-3-2022,8-10-24,146,depth_duration_stimuli/001498_2014-06-19_17-45-14_260595134347_rgbf000129-resize_4/001498_2014-06-19_17-45-14_260595134347_rgbf000129-resize-original.jpg,125,1.4075,0,1947,123,feet,jsons/VE125_randls_37.json,383712,469541,35,Man
146,506889,DepthScenes,duration_manipulation_targetAtFixation,jsons/VE125_randls_37.json,http://54.235.29.9/FacialAge/BNav_EC2/DepthDuration/v2_depth_duration_MTurk/v2_DepthDuration_HTML.html#418,418,1366,649,1366,768,9-3-2022,8-10-24,147,depth_duration_stimuli/001175_2014-06-17_15-45-55_260595134347_rgbf000129-resize_4/001175_2014-06-17_15-45-55_260595134347_rgbf000129-resize_4-target.png,125,4.255,4,1100,124,feet,jsons/VE125_randls_37.json,383712,469541,35,Man
147,506889,DepthScenes,duration_manipulation_targetAtFixation,jsons/VE125_randls_37.json,http://54.235.29.9/FacialAge/BNav_EC2/DepthDuration/v2_depth_duration_MTurk/v2_DepthDuration_HTML.html#418,418,1366,649,1366,768,9-3-2022,8-10-24,148,depth_duration_stimuli/003490_2014-05-21_15-50-11_094959634447_rgbf000101-resize_3/003490_2014-05-21_15-50-11_094959634447_rgbf000101-resize_3-target.png,125,3.6445,2,1538,125,feet,jsons/VE125_randls_37.json,383712,469541,35,Man
148,506889,DepthScenes,duration_manipulation_targetAtFixation,jsons/VE125_randls_37.json,http://54.235.29.9/FacialAge/BNav_EC2/DepthDuration/v2_depth_duration_MTurk/v2_DepthDuration_HTML.html#418,418,1366,649,1366,768,9-3-2022,8-10-24,149,depth_duration_stimuli/003070_2014-06-15_14-58-27_094959634447_rgbf000150-resize_3/003070_2014-06-15_14-58-27_094959634447_rgbf000150-resize_3-target.png,125,2.9415,2,1732,123,feet,jsons/VE125_randls_37.json,383712,469541,35,Man
149,506889,DepthScenes,duration_manipulation_targetAtFixation,jsons/VE125_randls_37.json,http://54.235.29.9/FacialAge/BNav_EC2/DepthDuration/v2_depth_duration_MTurk/v2_DepthDuration_HTML.html#418,418,1366,649,1366,768,9-3-2022,8-10-24,150,depth_duration_stimuli/000943_2014-06-09_19-31-07_260595134347_rgbf000128-resize_1/000943_2014-06-09_19-31-07_260595134347_rgbf000128-resize_1-target.png,125,1.9765,3,1258,124,feet,jsons/VE125_randls_37.json,383712,469541,35,Man
150,506889,DepthScenes,duration_manipulation_targetAtFixation,jsons/VE125_randls_37.json,http://54.235.29.9/FacialAge/BNav_EC2/DepthDuration/v2_depth_duration_MTurk/v2_DepthDuration_HTML.html#418,418,1366,649,1366,768,9-3-2022,8-10-24,151,depth_duration_stimuli/001133_2014-06-17_14-49-16_260595134347_rgbf000100-resize_0/001133_2014-06-17_14-49-16_260595134347_rgbf000100-resize_0-target.png,125,4.2115,5,1827,124,feet,jsons/VE125_randls_37.json,383712,469541,35,Man
151,506889,DepthScenes,duration_manipulation_targetAtFixation,jsons/VE125_randls_37.json,http://54.235.29.9/FacialAge/BNav_EC2/DepthDuration/v2_depth_duration_MTurk/v2_DepthDuration_HTML.html#418,418,1366,649,1366,768,9-3-2022,8-10-24,152,depth_duration_stimuli/001132_2014-06-17_14-48-54_260595134347_rgbf000100-resize_2/001132_2014-06-17_14-48-54_260595134347_rgbf000100-resize_2-target.png,125,3.753,4,1252,124,feet,jsons/VE125_randls_37.json,383712,469541,35,Man
152,506889,DepthScenes,duration_manipulation_targetAtFixation,jsons/VE125_randls_37.json,http://54.235.29.9/FacialAge/BNav_EC2/DepthDuration/v2_depth_duration_MTurk/v2_DepthDuration_HTML.html#418,418,1366,649,1366,768,9-3-2022,8-10-24,153,depth_duration_stimuli/001810_2014-06-26_20-51-35_260595134347_rgbf000040-resize_3/001810_2014-06-26_20-51-35_260595134347_rgbf000040-resize_3-target.png,125,2.2525,4,1915,125,feet,jsons/VE125_randls_37.json,383712,469541,35,Man
153,506889,DepthScenes,duration_manipulation_targetAtFixation,jsons/VE125_randls_37.json,http://54.235.29.9/FacialAge/BNav_EC2/DepthDuration/v2_depth_duration_MTurk/v2_DepthDuration_HTML.html#418,418,1366,649,1366,768,9-3-2022,8-10-24,154,depth_duration_stimuli/003010_2014-06-15_12-54-35_094959634447_rgbf000112-resize_0/003010_2014-06-15_12-54-35_094959634447_rgbf000112-resize_0-target.png,125,3.1185,7,2339,124,feet,jsons/VE125_randls_37.json,383712,469541,35,Man
154,506889,DepthScenes,duration_manipulation_targetAtFixation,jsons/VE125_randls_37.json,http://54.235.29.9/FacialAge/BNav_EC2/DepthDuration/v2_depth_duration_MTurk/v2_DepthDuration_HTML.html#418,418,1366,649,1366,768,9-3-2022,8-10-24,155,depth_duration_stimuli/000642_2014-06-08_16-59-25_260595134347_rgbf000098-resize_2/000642_2014-06-08_16-59-25_260595134347_rgbf000098-resize_2-target.png,125,2.8815,5,2107,123,feet,jsons/VE125_randls_37.json,383712,469541,35,Man
155,506889,DepthScenes,duration_manipulation_targetAtFixation,jsons/VE125_randls_37.json,http://54.235.29.9/FacialAge/BNav_EC2/DepthDuration/v2_depth_duration_MTurk/v2_DepthDuration_HTML.html#418,418,1366,649,1366,768,9-3-2022,8-10-24,156,depth_duration_stimuli/002425_2014-06-28_20-27-29_260595134347_rgbf000031-resize_8/002425_2014-06-28_20-27-29_260595134347_rgbf000031-resize_8-target.png,125,3.8960000000000004,9,2035,124,feet,jsons/VE125_randls_37.json,383712,469541,35,Man
156,506889,DepthScenes,duration_manipulation_targetAtFixation,jsons/VE125_randls_37.json,http://54.235.29.9/FacialAge/BNav_EC2/DepthDuration/v2_depth_duration_MTurk/v2_DepthDuration_HTML.html#418,418,1366,649,1366,768,9-3-2022,8-10-24,157,depth_duration_stimuli/002905_2014-06-03_18-04-43_094959634447_rgbf000151-resize_2/002905_2014-06-03_18-04-43_094959634447_rgbf000151-resize_2-target.png,125,2.0295,4,1212,123,feet,jsons/VE125_randls_37.json,383712,469541,35,Man
157,506889,DepthScenes,duration_manipulation_targetAtFixation,jsons/VE125_randls_37.json,http://54.235.29.9/FacialAge/BNav_EC2/DepthDuration/v2_depth_duration_MTurk/v2_DepthDuration_HTML.html#418,418,1366,649,1366,768,9-3-2022,8-10-24,158,depth_duration_stimuli/003423_2014-05-21_10-23-26_094959634447_rgbf002665-resize_2/003423_2014-05-21_10-23-26_094959634447_rgbf002665-resize_2-target.png,125,3.2575,6,1691,124,feet,jsons/VE125_randls_37.json,383712,469541,35,Man
158,506889,DepthScenes,duration_manipulation_targetAtFixation,jsons/VE125_randls_37.json,http://54.235.29.9/FacialAge/BNav_EC2/DepthDuration/v2_depth_duration_MTurk/v2_DepthDuration_HTML.html#418,418,1366,649,1366,768,9-3-2022,8-10-24,159,depth_duration_stimuli/001056_2014-06-08_18-46-44_260595134347_rgbf000068-resize_0/001056_2014-06-08_18-46-44_260595134347_rgbf000068-resize_0-target.png,125,2.6625,8,2059,124,feet,jsons/VE125_randls_37.json,383712,469541,35,Man
159,506889,DepthScenes,duration_manipulation_targetAtFixation,jsons/VE125_randls_37.json,http://54.235.29.9/FacialAge/BNav_EC2/DepthDuration/v2_depth_duration_MTurk/v2_DepthDuration_HTML.html#418,418,1366,649,1366,768,9-3-2022,8-10-24,160,depth_duration_stimuli/002199_2014-06-28_18-33-56_260595134347_rgbf000074-resize_0/002199_2014-06-28_18-33-56_260595134347_rgbf000074-resize_0-target.png,125,1.996,5,1772,123,feet,jsons/VE125_randls_37.json,383712,469541,35,Man
160,506889,DepthScenes,duration_manipulation_targetAtFixation,jsons/VE125_randls_37.json,http://54.235.29.9/FacialAge/BNav_EC2/DepthDuration/v2_depth_duration_MTurk/v2_DepthDuration_HTML.html#418,418,1366,649,1366,768,9-3-2022,8-10-24,161,depth_duration_stimuli/002043_2014-06-24_20-29-38_260595134347_rgbf000039-resize_4/002043_2014-06-24_20-29-38_260595134347_rgbf000039-resize_4-target.png,125,2.8435,7,1708,124,feet,jsons/VE125_randls_37.json,383712,469541,35,Man
161,506889,DepthScenes,duration_manipulation_targetAtFixation,jsons/VE125_randls_37.json,http://54.235.29.9/FacialAge/BNav_EC2/DepthDuration/v2_depth_duration_MTurk/v2_DepthDuration_HTML.html#418,418,1366,649,1366,768,9-3-2022,8-10-24,162,depth_duration_stimuli/003048_2014-06-15_13-49-43_094959634447_rgbf000150-resize_1/003048_2014-06-15_13-49-43_094959634447_rgbf000150-resize_1-target.png,125,4.0035,6,2067,122,feet,jsons/VE125_randls_37.json,383712,469541,35,Man
162,506889,DepthScenes,duration_manipulation_targetAtFixation,jsons/VE125_randls_37.json,http://54.235.29.9/FacialAge/BNav_EC2/DepthDuration/v2_depth_duration_MTurk/v2_DepthDuration_HTML.html#418,418,1366,649,1366,768,9-3-2022,8-10-24,163,depth_duration_stimuli/000493_2014-06-09_21-01-18_260595134347_rgbf000196-resize_3/000493_2014-06-09_21-01-18_260595134347_rgbf000196-resize_3-target.png,125,3.44,7,1875,125,feet,jsons/VE125_randls_37.json,383712,469541,35,Man
163,506889,DepthScenes,duration_manipulation_targetAtFixation,jsons/VE125_randls_37.json,http://54.235.29.9/FacialAge/BNav_EC2/DepthDuration/v2_depth_duration_MTurk/v2_DepthDuration_HTML.html#418,418,1366,649,1366,768,9-3-2022,8-10-24,164,depth_duration_stimuli/000191_2014-05-12_17-07-38_260595134347_rgbf000199-resize_0/000191_2014-05-12_17-07-38_260595134347_rgbf000199-resize_0-target.png,125,3.7995,11,2187,124,feet,jsons/VE125_randls_37.json,383712,469541,35,Man
