,subjID,experimentName,versionName,sequenceName,url,selected_row,windowWidth,windowHeight,screenWidth,screenHeight,startDate,startTime,trial,stimulus,duration,actual_depth,depth_estimate,trial_RT,log_sceneDuration,unitSelection,seq_filepath,experimentTime,totalTime,age,gender
0,507265,DepthScenes,duration_manipulation_targetAtFixation,jsons/VE125_randls_1.json,http://54.235.29.9/FacialAge/BNav_EC2/DepthDuration/v2_depth_duration_MTurk/v2_DepthDuration_HTML.html#59,59,1600,789,1600,900,8-21-2022,9-49-17,1,depth_duration_stimuli/002043_2014-06-24_20-29-38_260595134347_rgbf000039-resize_4/002043_2014-06-24_20-29-38_260595134347_rgbf000039-resize_4-target.png,125,2.8435,1.0,3703,124,meters,jsons/VE125_randls_1.json,612489,777883,35,Woman
1,507265,DepthScenes,duration_manipulation_targetAtFixation,jsons/VE125_randls_1.json,http://54.235.29.9/FacialAge/BNav_EC2/DepthDuration/v2_depth_duration_MTurk/v2_DepthDuration_HTML.html#59,59,1600,789,1600,900,8-21-2022,9-49-17,2,depth_duration_stimuli/003048_2014-06-15_13-49-43_094959634447_rgbf000150-resize_1/003048_2014-06-15_13-49-43_094959634447_rgbf000150-resize_1-target.png,125,4.0035,1.0,2194,124,meters,jsons/VE125_randls_1.json,612489,777883,35,Woman
2,507265,DepthScenes,duration_manipulation_targetAtFixation,jsons/VE125_randls_1.json,http://54.235.29.9/FacialAge/BNav_EC2/DepthDuration/v2_depth_duration_MTurk/v2_DepthDuration_HTML.html#59,59,1600,789,1600,900,8-21-2022,9-49-17,3,depth_duration_stimuli/000469_2014-06-09_19-42-10_260595134347_rgbf000081-resize_1/000469_2014-06-09_19-42-10_260595134347_rgbf000081-resize_1-target.png,125,1.652,2.0,2361,125,meters,jsons/VE125_randls_1.json,612489,777883,35,Woman
3,507265,DepthScenes,duration_manipulation_targetAtFixation,jsons/VE125_randls_1.json,http://54.235.29.9/FacialAge/BNav_EC2/DepthDuration/v2_depth_duration_MTurk/v2_DepthDuration_HTML.html#59,59,1600,789,1600,900,8-21-2022,9-49-17,4,depth_duration_stimuli/000483_2014-06-09_20-41-45_260595134347_rgbf000116-resize_4/000483_2014-06-09_20-41-45_260595134347_rgbf000116-resize_4-target.png,125,1.337,1.0,1914,125,meters,jsons/VE125_randls_1.json,612489,777883,35,Woman
4,507265,DepthScenes,duration_manipulation_targetAtFixation,jsons/VE125_randls_1.json,http://54.235.29.9/FacialAge/BNav_EC2/DepthDuration/v2_depth_duration_MTurk/v2_DepthDuration_HTML.html#59,59,1600,789,1600,900,8-21-2022,9-49-17,5,depth_duration_stimuli/000506_2014-06-08_23-21-00_260595134347_rgbf000070-resize_7/000506_2014-06-08_23-21-00_260595134347_rgbf000070-resize_7-target.png,125,4.0585,3.0,2609,125,meters,jsons/VE125_randls_1.json,612489,777883,35,Woman
5,507265,DepthScenes,duration_manipulation_targetAtFixation,jsons/VE125_randls_1.json,http://54.235.29.9/FacialAge/BNav_EC2/DepthDuration/v2_depth_duration_MTurk/v2_DepthDuration_HTML.html#59,59,1600,789,1600,900,8-21-2022,9-49-17,6,depth_duration_stimuli/003079_2014-06-15_15-18-20_094959634447_rgbf000152-resize_8/003079_2014-06-15_15-18-20_094959634447_rgbf000152-resize_8-target.png,125,2.8775,3.0,1843,124,meters,jsons/VE125_randls_1.json,612489,777883,35,Woman
6,507265,DepthScenes,duration_manipulation_targetAtFixation,jsons/VE125_randls_1.json,http://54.235.29.9/FacialAge/BNav_EC2/DepthDuration/v2_depth_duration_MTurk/v2_DepthDuration_HTML.html#59,59,1600,789,1600,900,8-21-2022,9-49-17,7,depth_duration_stimuli/000788_2014-06-08_22-34-36_260595134347_rgbf000131-resize_1/000788_2014-06-08_22-34-36_260595134347_rgbf000131-resize_1-target.png,125,3.359,2.0,2354,125,meters,jsons/VE125_randls_1.json,612489,777883,35,Woman
7,507265,DepthScenes,duration_manipulation_targetAtFixation,jsons/VE125_randls_1.json,http://54.235.29.9/FacialAge/BNav_EC2/DepthDuration/v2_depth_duration_MTurk/v2_DepthDuration_HTML.html#59,59,1600,789,1600,900,8-21-2022,9-49-17,8,depth_duration_stimuli/001235_2014-06-17_16-37-36_260595134347_rgbf000084-resize_4/001235_2014-06-17_16-37-36_260595134347_rgbf000084-resize_4-target.png,125,3.6605,1.0,2185,124,meters,jsons/VE125_randls_1.json,612489,777883,35,Woman
8,507265,DepthScenes,duration_manipulation_targetAtFixation,jsons/VE125_randls_1.json,http://54.235.29.9/FacialAge/BNav_EC2/DepthDuration/v2_depth_duration_MTurk/v2_DepthDuration_HTML.html#59,59,1600,789,1600,900,8-21-2022,9-49-17,9,depth_duration_stimuli/002057_2014-06-24_21-00-13_260595134347_rgbf000120-resize_1/002057_2014-06-24_21-00-13_260595134347_rgbf000120-resize_1-target.png,125,2.967,3.0,2491,125,meters,jsons/VE125_randls_1.json,612489,777883,35,Woman
9,507265,DepthScenes,duration_manipulation_targetAtFixation,jsons/VE125_randls_1.json,http://54.235.29.9/FacialAge/BNav_EC2/DepthDuration/v2_depth_duration_MTurk/v2_DepthDuration_HTML.html#59,59,1600,789,1600,900,8-21-2022,9-49-17,10,depth_duration_stimuli/000709_2014-06-08_13-51-55_260595134347_rgbf000068-resize_3/000709_2014-06-08_13-51-55_260595134347_rgbf000068-resize_3-target.png,125,1.8030000000000002,0.0,2697,125,meters,jsons/VE125_randls_1.json,612489,777883,35,Woman
10,507265,DepthScenes,duration_manipulation_targetAtFixation,jsons/VE125_randls_1.json,http://54.235.29.9/FacialAge/BNav_EC2/DepthDuration/v2_depth_duration_MTurk/v2_DepthDuration_HTML.html#59,59,1600,789,1600,900,8-21-2022,9-49-17,11,depth_duration_stimuli/002725_2014-06-22_11-47-51_094959634447_rgbf000070-resize_1/002725_2014-06-22_11-47-51_094959634447_rgbf000070-resize_1-target.png,125,2.195,2.0,2884,123,meters,jsons/VE125_randls_1.json,612489,777883,35,Woman
11,507265,DepthScenes,duration_manipulation_targetAtFixation,jsons/VE125_randls_1.json,http://54.235.29.9/FacialAge/BNav_EC2/DepthDuration/v2_depth_duration_MTurk/v2_DepthDuration_HTML.html#59,59,1600,789,1600,900,8-21-2022,9-49-17,12,depth_duration_stimuli/002344_2014-06-28_20-06-29_260595134347_rgbf000030-resize_1/002344_2014-06-28_20-06-29_260595134347_rgbf000030-resize_1-target.png,125,1.5795,0.0,2369,125,meters,jsons/VE125_randls_1.json,612489,777883,35,Woman
12,507265,DepthScenes,duration_manipulation_targetAtFixation,jsons/VE125_randls_1.json,http://54.235.29.9/FacialAge/BNav_EC2/DepthDuration/v2_depth_duration_MTurk/v2_DepthDuration_HTML.html#59,59,1600,789,1600,900,8-21-2022,9-49-17,13,depth_duration_stimuli/000569_2014-06-09_22-51-47_260595134347_rgbf000141-resize_3/000569_2014-06-09_22-51-47_260595134347_rgbf000141-resize-original.jpg,125,4.512,2.0,3050,125,meters,jsons/VE125_randls_1.json,612489,777883,35,Woman
13,507265,DepthScenes,duration_manipulation_targetAtFixation,jsons/VE125_randls_1.json,http://54.235.29.9/FacialAge/BNav_EC2/DepthDuration/v2_depth_duration_MTurk/v2_DepthDuration_HTML.html#59,59,1600,789,1600,900,8-21-2022,9-49-17,14,depth_duration_stimuli/001150_2014-06-17_15-27-34_260595134347_rgbf000108-resize_2/001150_2014-06-17_15-27-34_260595134347_rgbf000108-resize_2-target.png,125,4.0325,6.0,2887,129,meters,jsons/VE125_randls_1.json,612489,777883,35,Woman
14,507265,DepthScenes,duration_manipulation_targetAtFixation,jsons/VE125_randls_1.json,http://54.235.29.9/FacialAge/BNav_EC2/DepthDuration/v2_depth_duration_MTurk/v2_DepthDuration_HTML.html#59,59,1600,789,1600,900,8-21-2022,9-49-17,15,depth_duration_stimuli/000665_2014-06-09_20-42-35_260595134347_rgbf000110-resize_1/000665_2014-06-09_20-42-35_260595134347_rgbf000110-resize_1-target.png,125,3.057,2.0,2181,124,meters,jsons/VE125_randls_1.json,612489,777883,35,Woman
15,507265,DepthScenes,duration_manipulation_targetAtFixation,jsons/VE125_randls_1.json,http://54.235.29.9/FacialAge/BNav_EC2/DepthDuration/v2_depth_duration_MTurk/v2_DepthDuration_HTML.html#59,59,1600,789,1600,900,8-21-2022,9-49-17,16,depth_duration_stimuli/000522_2014-06-08_13-35-06_260595134347_rgbf000244-resize_1/000522_2014-06-08_13-35-06_260595134347_rgbf000244-resize_1-target.png,125,2.3715,1.0,2731,125,meters,jsons/VE125_randls_1.json,612489,777883,35,Woman
16,507265,DepthScenes,duration_manipulation_targetAtFixation,jsons/VE125_randls_1.json,http://54.235.29.9/FacialAge/BNav_EC2/DepthDuration/v2_depth_duration_MTurk/v2_DepthDuration_HTML.html#59,59,1600,789,1600,900,8-21-2022,9-49-17,17,depth_duration_stimuli/002949_2014-06-26_15-57-42_094959634447_rgbf000079-resize_1/002949_2014-06-26_15-57-42_094959634447_rgbf000079-resize_1-target.png,125,1.8915,0.0,2065,126,meters,jsons/VE125_randls_1.json,612489,777883,35,Woman
17,507265,DepthScenes,duration_manipulation_targetAtFixation,jsons/VE125_randls_1.json,http://54.235.29.9/FacialAge/BNav_EC2/DepthDuration/v2_depth_duration_MTurk/v2_DepthDuration_HTML.html#59,59,1600,789,1600,900,8-21-2022,9-49-17,18,depth_duration_stimuli/002788_2014-06-22_19-36-03_094959634447_rgbf000088-resize_2/002788_2014-06-22_19-36-03_094959634447_rgbf000088-resize_2-target.png,125,1.6465,2.0,2586,124,meters,jsons/VE125_randls_1.json,612489,777883,35,Woman
18,507265,DepthScenes,duration_manipulation_targetAtFixation,jsons/VE125_randls_1.json,http://54.235.29.9/FacialAge/BNav_EC2/DepthDuration/v2_depth_duration_MTurk/v2_DepthDuration_HTML.html#59,59,1600,789,1600,900,8-21-2022,9-49-17,19,depth_duration_stimuli/000749_2014-06-08_21-55-06_260595134347_rgbf000070-resize_2/000749_2014-06-08_21-55-06_260595134347_rgbf000070-resize_2-target.png,125,2.331,0.0,2138,124,meters,jsons/VE125_randls_1.json,612489,777883,35,Woman
19,507265,DepthScenes,duration_manipulation_targetAtFixation,jsons/VE125_randls_1.json,http://54.235.29.9/FacialAge/BNav_EC2/DepthDuration/v2_depth_duration_MTurk/v2_DepthDuration_HTML.html#59,59,1600,789,1600,900,8-21-2022,9-49-17,20,depth_duration_stimuli/000878_2014-06-08_22-52-45_260595134347_rgbf000045-resize_2/000878_2014-06-08_22-52-45_260595134347_rgbf000045-resize_2-target.png,125,2.092,2.0,2642,124,meters,jsons/VE125_randls_1.json,612489,777883,35,Woman
20,507265,DepthScenes,duration_manipulation_targetAtFixation,jsons/VE125_randls_1.json,http://54.235.29.9/FacialAge/BNav_EC2/DepthDuration/v2_depth_duration_MTurk/v2_DepthDuration_HTML.html#59,59,1600,789,1600,900,8-21-2022,9-49-17,21,depth_duration_stimuli/002953_2014-06-08_17-32-18_094959634447_rgbf000059-resize_5/002953_2014-06-08_17-32-18_094959634447_rgbf000059-resize_5-target.png,125,1.551,0.0,1953,124,meters,jsons/VE125_randls_1.json,612489,777883,35,Woman
21,507265,DepthScenes,duration_manipulation_targetAtFixation,jsons/VE125_randls_1.json,http://54.235.29.9/FacialAge/BNav_EC2/DepthDuration/v2_depth_duration_MTurk/v2_DepthDuration_HTML.html#59,59,1600,789,1600,900,8-21-2022,9-49-17,22,depth_duration_stimuli/000810_2014-06-08_17-20-01_260595134347_rgbf000105-resize_0/000810_2014-06-08_17-20-01_260595134347_rgbf000105-resize_0-target.png,125,1.4865,2.0,2578,124,meters,jsons/VE125_randls_1.json,612489,777883,35,Woman
22,507265,DepthScenes,duration_manipulation_targetAtFixation,jsons/VE125_randls_1.json,http://54.235.29.9/FacialAge/BNav_EC2/DepthDuration/v2_depth_duration_MTurk/v2_DepthDuration_HTML.html#59,59,1600,789,1600,900,8-21-2022,9-49-17,23,depth_duration_stimuli/001214_2014-06-17_16-13-55_260595134347_rgbf000111-resize_0/001214_2014-06-17_16-13-55_260595134347_rgbf000111-resize_0-target.png,125,2.6505,0.0,2033,124,meters,jsons/VE125_randls_1.json,612489,777883,35,Woman
23,507265,DepthScenes,duration_manipulation_targetAtFixation,jsons/VE125_randls_1.json,http://54.235.29.9/FacialAge/BNav_EC2/DepthDuration/v2_depth_duration_MTurk/v2_DepthDuration_HTML.html#59,59,1600,789,1600,900,8-21-2022,9-49-17,24,depth_duration_stimuli/002445_2014-06-28_20-32-16_260595134347_rgbf000029-resize_4/002445_2014-06-28_20-32-16_260595134347_rgbf000029-resize_4-target.png,125,2.5315,2.0,2632,124,meters,jsons/VE125_randls_1.json,612489,777883,35,Woman
24,507265,DepthScenes,duration_manipulation_targetAtFixation,jsons/VE125_randls_1.json,http://54.235.29.9/FacialAge/BNav_EC2/DepthDuration/v2_depth_duration_MTurk/v2_DepthDuration_HTML.html#59,59,1600,789,1600,900,8-21-2022,9-49-17,25,depth_duration_stimuli/000780_2014-06-08_22-28-29_260595134347_rgbf000126-resize_1/000780_2014-06-08_22-28-29_260595134347_rgbf000126-resize_1-target.png,125,3.3825,2.0,3578,125,meters,jsons/VE125_randls_1.json,612489,777883,35,Woman
25,507265,DepthScenes,duration_manipulation_targetAtFixation,jsons/VE125_randls_1.json,http://54.235.29.9/FacialAge/BNav_EC2/DepthDuration/v2_depth_duration_MTurk/v2_DepthDuration_HTML.html#59,59,1600,789,1600,900,8-21-2022,9-49-17,26,depth_duration_stimuli/001449_2014-06-19_17-01-27_260595134347_rgbf000116-resize_2/001449_2014-06-19_17-01-27_260595134347_rgbf000116-resize_2-target.png,125,3.452,3.0,2690,124,meters,jsons/VE125_randls_1.json,612489,777883,35,Woman
26,507265,DepthScenes,duration_manipulation_targetAtFixation,jsons/VE125_randls_1.json,http://54.235.29.9/FacialAge/BNav_EC2/DepthDuration/v2_depth_duration_MTurk/v2_DepthDuration_HTML.html#59,59,1600,789,1600,900,8-21-2022,9-49-17,27,depth_duration_stimuli/001450_2014-06-19_17-02-03_260595134347_rgbf000203-resize_4/001450_2014-06-19_17-02-03_260595134347_rgbf000203-resize_4-target.png,125,4.0106666666667,2.0,3651,125,meters,jsons/VE125_randls_1.json,612489,777883,35,Woman
27,507265,DepthScenes,duration_manipulation_targetAtFixation,jsons/VE125_randls_1.json,http://54.235.29.9/FacialAge/BNav_EC2/DepthDuration/v2_depth_duration_MTurk/v2_DepthDuration_HTML.html#59,59,1600,789,1600,900,8-21-2022,9-49-17,28,depth_duration_stimuli/002748_2014-06-22_19-07-22_094959634447_rgbf000078-resize_1/002748_2014-06-22_19-07-22_094959634447_rgbf000078-resize_1-target.png,125,4.6705,2.0,2697,136,meters,jsons/VE125_randls_1.json,612489,777883,35,Woman
28,507265,DepthScenes,duration_manipulation_targetAtFixation,jsons/VE125_randls_1.json,http://54.235.29.9/FacialAge/BNav_EC2/DepthDuration/v2_depth_duration_MTurk/v2_DepthDuration_HTML.html#59,59,1600,789,1600,900,8-21-2022,9-49-17,29,depth_duration_stimuli/002995_2014-06-15_12-31-26_094959634447_rgbf000150-resize_1/002995_2014-06-15_12-31-26_094959634447_rgbf000150-resize_1-target.png,125,3.8360000000000003,0.0,1939,126,meters,jsons/VE125_randls_1.json,612489,777883,35,Woman
29,507265,DepthScenes,duration_manipulation_targetAtFixation,jsons/VE125_randls_1.json,http://54.235.29.9/FacialAge/BNav_EC2/DepthDuration/v2_depth_duration_MTurk/v2_DepthDuration_HTML.html#59,59,1600,789,1600,900,8-21-2022,9-49-17,30,depth_duration_stimuli/000375_2014-06-08_11-17-29_260595134347_rgbf000133-resize_2/000375_2014-06-08_11-17-29_260595134347_rgbf000133-resize-original.jpg,125,4.718,0.0,3019,125,meters,jsons/VE125_randls_1.json,612489,777883,35,Woman
30,507265,DepthScenes,duration_manipulation_targetAtFixation,jsons/VE125_randls_1.json,http://54.235.29.9/FacialAge/BNav_EC2/DepthDuration/v2_depth_duration_MTurk/v2_DepthDuration_HTML.html#59,59,1600,789,1600,900,8-21-2022,9-49-17,31,depth_duration_stimuli/002600_2014-06-24_14-27-04_094959634447_rgbf000074-resize_2/002600_2014-06-24_14-27-04_094959634447_rgbf000074-resize_2-target.png,125,2.7575,0.0,2570,125,meters,jsons/VE125_randls_1.json,612489,777883,35,Woman
31,507265,DepthScenes,duration_manipulation_targetAtFixation,jsons/VE125_randls_1.json,http://54.235.29.9/FacialAge/BNav_EC2/DepthDuration/v2_depth_duration_MTurk/v2_DepthDuration_HTML.html#59,59,1600,789,1600,900,8-21-2022,9-49-17,32,depth_duration_stimuli/003228_2014-05-14_13-42-35_094959634447_rgbf000101-resize_1/003228_2014-05-14_13-42-35_094959634447_rgbf000101-resize_1-target.png,125,1.9680000000000002,0.0,2148,125,meters,jsons/VE125_randls_1.json,612489,777883,35,Woman
32,507265,DepthScenes,duration_manipulation_targetAtFixation,jsons/VE125_randls_1.json,http://54.235.29.9/FacialAge/BNav_EC2/DepthDuration/v2_depth_duration_MTurk/v2_DepthDuration_HTML.html#59,59,1600,789,1600,900,8-21-2022,9-49-17,33,depth_duration_stimuli/000436_2014-06-09_22-25-11_260595134347_rgbf000137-resize_1/000436_2014-06-09_22-25-11_260595134347_rgbf000137-resize_1-target.png,125,4.0705,2.0,2599,125,meters,jsons/VE125_randls_1.json,612489,777883,35,Woman
33,507265,DepthScenes,duration_manipulation_targetAtFixation,jsons/VE125_randls_1.json,http://54.235.29.9/FacialAge/BNav_EC2/DepthDuration/v2_depth_duration_MTurk/v2_DepthDuration_HTML.html#59,59,1600,789,1600,900,8-21-2022,9-49-17,34,depth_duration_stimuli/002444_2014-06-28_20-32-08_260595134347_rgbf000027-resize_0/002444_2014-06-28_20-32-08_260595134347_rgbf000027-resize_0-target.png,125,4.388999999999999,0.0,2068,124,meters,jsons/VE125_randls_1.json,612489,777883,35,Woman
34,507265,DepthScenes,duration_manipulation_targetAtFixation,jsons/VE125_randls_1.json,http://54.235.29.9/FacialAge/BNav_EC2/DepthDuration/v2_depth_duration_MTurk/v2_DepthDuration_HTML.html#59,59,1600,789,1600,900,8-21-2022,9-49-17,35,depth_duration_stimuli/002964_2014-06-08_17-46-11_094959634447_rgbf000091-resize_4/002964_2014-06-08_17-46-11_094959634447_rgbf000091-resize_4-target.png,125,1.6909999999999998,25.0,2729,124,meters,jsons/VE125_randls_1.json,612489,777883,35,Woman
35,507265,DepthScenes,duration_manipulation_targetAtFixation,jsons/VE125_randls_1.json,http://54.235.29.9/FacialAge/BNav_EC2/DepthDuration/v2_depth_duration_MTurk/v2_DepthDuration_HTML.html#59,59,1600,789,1600,900,8-21-2022,9-49-17,36,depth_duration_stimuli/002136_2014-06-25_21-18-03_260595134347_rgbf000109-resize_3/002136_2014-06-25_21-18-03_260595134347_rgbf000109-resize_3-target.png,125,1.9569999999999999,0.0,1969,125,meters,jsons/VE125_randls_1.json,612489,777883,35,Woman
36,507265,DepthScenes,duration_manipulation_targetAtFixation,jsons/VE125_randls_1.json,http://54.235.29.9/FacialAge/BNav_EC2/DepthDuration/v2_depth_duration_MTurk/v2_DepthDuration_HTML.html#59,59,1600,789,1600,900,8-21-2022,9-49-17,37,depth_duration_stimuli/002570_2014-06-24_13-59-54_094959634447_rgbf000059-resize_0/002570_2014-06-24_13-59-54_094959634447_rgbf000059-resize_0-target.png,125,4.037,2.0,2578,124,meters,jsons/VE125_randls_1.json,612489,777883,35,Woman
37,507265,DepthScenes,duration_manipulation_targetAtFixation,jsons/VE125_randls_1.json,http://54.235.29.9/FacialAge/BNav_EC2/DepthDuration/v2_depth_duration_MTurk/v2_DepthDuration_HTML.html#59,59,1600,789,1600,900,8-21-2022,9-49-17,38,depth_duration_stimuli/002467_2014-06-28_20-38-07_260595134347_rgbf000026-resize_2/002467_2014-06-28_20-38-07_260595134347_rgbf000026-resize_2-target.png,125,4.742,3.0,3528,123,meters,jsons/VE125_randls_1.json,612489,777883,35,Woman
38,507265,DepthScenes,duration_manipulation_targetAtFixation,jsons/VE125_randls_1.json,http://54.235.29.9/FacialAge/BNav_EC2/DepthDuration/v2_depth_duration_MTurk/v2_DepthDuration_HTML.html#59,59,1600,789,1600,900,8-21-2022,9-49-17,39,depth_duration_stimuli/001164_2014-06-17_15-35-46_260595134347_rgbf000085-resize_3/001164_2014-06-17_15-35-46_260595134347_rgbf000085-resize_3-target.png,125,2.354,2.0,2939,124,meters,jsons/VE125_randls_1.json,612489,777883,35,Woman
39,507265,DepthScenes,duration_manipulation_targetAtFixation,jsons/VE125_randls_1.json,http://54.235.29.9/FacialAge/BNav_EC2/DepthDuration/v2_depth_duration_MTurk/v2_DepthDuration_HTML.html#59,59,1600,789,1600,900,8-21-2022,9-49-17,40,depth_duration_stimuli/001136_2014-06-17_15-19-41_260595134347_rgbf000076-resize_3/001136_2014-06-17_15-19-41_260595134347_rgbf000076-resize_3-target.png,125,1.8655,0.0,2001,125,meters,jsons/VE125_randls_1.json,612489,777883,35,Woman
40,507265,DepthScenes,duration_manipulation_targetAtFixation,jsons/VE125_randls_1.json,http://54.235.29.9/FacialAge/BNav_EC2/DepthDuration/v2_depth_duration_MTurk/v2_DepthDuration_HTML.html#59,59,1600,789,1600,900,8-21-2022,9-49-17,41,depth_duration_stimuli/000447_2014-06-08_16-15-46_260595134347_rgbf000130-resize_1/000447_2014-06-08_16-15-46_260595134347_rgbf000130-resize_1-target.png,125,4.479,1.0,2850,125,meters,jsons/VE125_randls_1.json,612489,777883,35,Woman
41,507265,DepthScenes,duration_manipulation_targetAtFixation,jsons/VE125_randls_1.json,http://54.235.29.9/FacialAge/BNav_EC2/DepthDuration/v2_depth_duration_MTurk/v2_DepthDuration_HTML.html#59,59,1600,789,1600,900,8-21-2022,9-49-17,42,depth_duration_stimuli/001447_2014-06-19_17-00-32_260595134347_rgbf000082-resize_5/001447_2014-06-19_17-00-32_260595134347_rgbf000082-resize_5-target.png,125,4.13775,2.0,2898,124,meters,jsons/VE125_randls_1.json,612489,777883,35,Woman
42,507265,DepthScenes,duration_manipulation_targetAtFixation,jsons/VE125_randls_1.json,http://54.235.29.9/FacialAge/BNav_EC2/DepthDuration/v2_depth_duration_MTurk/v2_DepthDuration_HTML.html#59,59,1600,789,1600,900,8-21-2022,9-49-17,43,depth_duration_stimuli/001158_2014-06-17_15-32-16_260595134347_rgbf000138-resize_2/001158_2014-06-17_15-32-16_260595134347_rgbf000138-resize_2-target.png,125,4.5315,0.0,4407,123,meters,jsons/VE125_randls_1.json,612489,777883,35,Woman
43,507265,DepthScenes,duration_manipulation_targetAtFixation,jsons/VE125_randls_1.json,http://54.235.29.9/FacialAge/BNav_EC2/DepthDuration/v2_depth_duration_MTurk/v2_DepthDuration_HTML.html#59,59,1600,789,1600,900,8-21-2022,9-49-17,44,depth_duration_stimuli/000556_2014-06-09_22-42-56_260595134347_rgbf000214-resize_1/000556_2014-06-09_22-42-56_260595134347_rgbf000214-resize_1-target.png,125,4.8415,2.0,2306,123,meters,jsons/VE125_randls_1.json,612489,777883,35,Woman
44,507265,DepthScenes,duration_manipulation_targetAtFixation,jsons/VE125_randls_1.json,http://54.235.29.9/FacialAge/BNav_EC2/DepthDuration/v2_depth_duration_MTurk/v2_DepthDuration_HTML.html#59,59,1600,789,1600,900,8-21-2022,9-49-17,45,depth_duration_stimuli/000787_2014-06-08_22-33-53_260595134347_rgbf000175-resize_1/000787_2014-06-08_22-33-53_260595134347_rgbf000175-resize-original.jpg,125,4.784,0.0,3186,125,meters,jsons/VE125_randls_1.json,612489,777883,35,Woman
45,507265,DepthScenes,duration_manipulation_targetAtFixation,jsons/VE125_randls_1.json,http://54.235.29.9/FacialAge/BNav_EC2/DepthDuration/v2_depth_duration_MTurk/v2_DepthDuration_HTML.html#59,59,1600,789,1600,900,8-21-2022,9-49-17,46,depth_duration_stimuli/000736_2014-06-08_18-24-15_260595134347_rgbf000206-resize_3/000736_2014-06-08_18-24-15_260595134347_rgbf000206-resize_3-target.png,125,3.515,0.0,2646,127,meters,jsons/VE125_randls_1.json,612489,777883,35,Woman
46,507265,DepthScenes,duration_manipulation_targetAtFixation,jsons/VE125_randls_1.json,http://54.235.29.9/FacialAge/BNav_EC2/DepthDuration/v2_depth_duration_MTurk/v2_DepthDuration_HTML.html#59,59,1600,789,1600,900,8-21-2022,9-49-17,47,depth_duration_stimuli/000137_2014-05-20_17-04-49_260595134347_rgbf000120-resize_1/000137_2014-05-20_17-04-49_260595134347_rgbf000120-resize_1-target.png,125,3.786,2.0,2204,125,meters,jsons/VE125_randls_1.json,612489,777883,35,Woman
47,507265,DepthScenes,duration_manipulation_targetAtFixation,jsons/VE125_randls_1.json,http://54.235.29.9/FacialAge/BNav_EC2/DepthDuration/v2_depth_duration_MTurk/v2_DepthDuration_HTML.html#59,59,1600,789,1600,900,8-21-2022,9-49-17,48,depth_duration_stimuli/002375_2014-06-28_20-13-44_260595134347_rgbf000032-resize_1/002375_2014-06-28_20-13-44_260595134347_rgbf000032-resize_1-target.png,125,4.0175,2.0,2626,123,meters,jsons/VE125_randls_1.json,612489,777883,35,Woman
48,507265,DepthScenes,duration_manipulation_targetAtFixation,jsons/VE125_randls_1.json,http://54.235.29.9/FacialAge/BNav_EC2/DepthDuration/v2_depth_duration_MTurk/v2_DepthDuration_HTML.html#59,59,1600,789,1600,900,8-21-2022,9-49-17,49,depth_duration_stimuli/002657_2014-06-13_15-29-54_094959634447_rgbf000150-resize_1/002657_2014-06-13_15-29-54_094959634447_rgbf000150-resize_1-target.png,125,4.919,0.0,1947,125,meters,jsons/VE125_randls_1.json,612489,777883,35,Woman
49,507265,DepthScenes,duration_manipulation_targetAtFixation,jsons/VE125_randls_1.json,http://54.235.29.9/FacialAge/BNav_EC2/DepthDuration/v2_depth_duration_MTurk/v2_DepthDuration_HTML.html#59,59,1600,789,1600,900,8-21-2022,9-49-17,50,depth_duration_stimuli/000642_2014-06-08_16-59-25_260595134347_rgbf000098-resize_2/000642_2014-06-08_16-59-25_260595134347_rgbf000098-resize_2-target.png,125,2.8815,2.0,2649,116,meters,jsons/VE125_randls_1.json,612489,777883,35,Woman
50,507265,DepthScenes,duration_manipulation_targetAtFixation,jsons/VE125_randls_1.json,http://54.235.29.9/FacialAge/BNav_EC2/DepthDuration/v2_depth_duration_MTurk/v2_DepthDuration_HTML.html#59,59,1600,789,1600,900,8-21-2022,9-49-17,51,depth_duration_stimuli/002425_2014-06-28_20-27-29_260595134347_rgbf000031-resize_8/002425_2014-06-28_20-27-29_260595134347_rgbf000031-resize_8-target.png,125,3.8960000000000004,1.0,2491,125,meters,jsons/VE125_randls_1.json,612489,777883,35,Woman
51,507265,DepthScenes,duration_manipulation_targetAtFixation,jsons/VE125_randls_1.json,http://54.235.29.9/FacialAge/BNav_EC2/DepthDuration/v2_depth_duration_MTurk/v2_DepthDuration_HTML.html#59,59,1600,789,1600,900,8-21-2022,9-49-17,52,depth_duration_stimuli/003534_2014-05-22_15-06-10_094959634447_rgbf000102-resize_4/003534_2014-05-22_15-06-10_094959634447_rgbf000102-resize_4-target.png,125,1.426,2.0,2730,125,meters,jsons/VE125_randls_1.json,612489,777883,35,Woman
52,507265,DepthScenes,duration_manipulation_targetAtFixation,jsons/VE125_randls_1.json,http://54.235.29.9/FacialAge/BNav_EC2/DepthDuration/v2_depth_duration_MTurk/v2_DepthDuration_HTML.html#59,59,1600,789,1600,900,8-21-2022,9-49-17,53,depth_duration_stimuli/002637_2014-06-24_14-51-13_094959634447_rgbf000066-resize_4/002637_2014-06-24_14-51-13_094959634447_rgbf000066-resize_4-target.png,125,1.9955,0.0,2234,126,meters,jsons/VE125_randls_1.json,612489,777883,35,Woman
53,507265,DepthScenes,duration_manipulation_targetAtFixation,jsons/VE125_randls_1.json,http://54.235.29.9/FacialAge/BNav_EC2/DepthDuration/v2_depth_duration_MTurk/v2_DepthDuration_HTML.html#59,59,1600,789,1600,900,8-21-2022,9-49-17,54,depth_duration_stimuli/001417_2014-06-19_16-25-36_260595134347_rgbf000115-resize_5/001417_2014-06-19_16-25-36_260595134347_rgbf000115-resize_5-target.png,125,4.6255,2.0,2873,126,meters,jsons/VE125_randls_1.json,612489,777883,35,Woman
54,507265,DepthScenes,duration_manipulation_targetAtFixation,jsons/VE125_randls_1.json,http://54.235.29.9/FacialAge/BNav_EC2/DepthDuration/v2_depth_duration_MTurk/v2_DepthDuration_HTML.html#59,59,1600,789,1600,900,8-21-2022,9-49-17,55,depth_duration_stimuli/003081_2014-06-15_15-19-16_094959634447_rgbf000150-resize_1/003081_2014-06-15_15-19-16_094959634447_rgbf000150-resize_1-target.png,125,3.9125,0.0,2210,123,meters,jsons/VE125_randls_1.json,612489,777883,35,Woman
55,507265,DepthScenes,duration_manipulation_targetAtFixation,jsons/VE125_randls_1.json,http://54.235.29.9/FacialAge/BNav_EC2/DepthDuration/v2_depth_duration_MTurk/v2_DepthDuration_HTML.html#59,59,1600,789,1600,900,8-21-2022,9-49-17,56,depth_duration_stimuli/001810_2014-06-26_20-51-35_260595134347_rgbf000040-resize_3/001810_2014-06-26_20-51-35_260595134347_rgbf000040-resize_3-target.png,125,2.2525,2.0,2634,126,meters,jsons/VE125_randls_1.json,612489,777883,35,Woman
56,507265,DepthScenes,duration_manipulation_targetAtFixation,jsons/VE125_randls_1.json,http://54.235.29.9/FacialAge/BNav_EC2/DepthDuration/v2_depth_duration_MTurk/v2_DepthDuration_HTML.html#59,59,1600,789,1600,900,8-21-2022,9-49-17,57,depth_duration_stimuli/003010_2014-06-15_12-54-35_094959634447_rgbf000112-resize_0/003010_2014-06-15_12-54-35_094959634447_rgbf000112-resize_0-target.png,125,3.1185,2.0,3442,125,meters,jsons/VE125_randls_1.json,612489,777883,35,Woman
57,507265,DepthScenes,duration_manipulation_targetAtFixation,jsons/VE125_randls_1.json,http://54.235.29.9/FacialAge/BNav_EC2/DepthDuration/v2_depth_duration_MTurk/v2_DepthDuration_HTML.html#59,59,1600,789,1600,900,8-21-2022,9-49-17,58,depth_duration_stimuli/002118_2014-06-25_20-32-08_260595134347_rgbf000078-resize_1/002118_2014-06-25_20-32-08_260595134347_rgbf000078-resize_1-target.png,125,2.6460000000000004,2.0,2818,124,meters,jsons/VE125_randls_1.json,612489,777883,35,Woman
58,507265,DepthScenes,duration_manipulation_targetAtFixation,jsons/VE125_randls_1.json,http://54.235.29.9/FacialAge/BNav_EC2/DepthDuration/v2_depth_duration_MTurk/v2_DepthDuration_HTML.html#59,59,1600,789,1600,900,8-21-2022,9-49-17,59,depth_duration_stimuli/001516_2014-06-20_16-25-09_260595134347_rgbf000076-resize_2/001516_2014-06-20_16-25-09_260595134347_rgbf000076-resize_2-target.png,125,1.7445,2.0,3169,126,meters,jsons/VE125_randls_1.json,612489,777883,35,Woman
59,507265,DepthScenes,duration_manipulation_targetAtFixation,jsons/VE125_randls_1.json,http://54.235.29.9/FacialAge/BNav_EC2/DepthDuration/v2_depth_duration_MTurk/v2_DepthDuration_HTML.html#59,59,1600,789,1600,900,8-21-2022,9-49-17,60,depth_duration_stimuli/001059_2014-06-08_21-53-27_260595134347_rgbf000061-resize_4/001059_2014-06-08_21-53-27_260595134347_rgbf000061-resize_4-target.png,125,2.4185,3.0,2673,125,meters,jsons/VE125_randls_1.json,612489,777883,35,Woman
60,507265,DepthScenes,duration_manipulation_targetAtFixation,jsons/VE125_randls_1.json,http://54.235.29.9/FacialAge/BNav_EC2/DepthDuration/v2_depth_duration_MTurk/v2_DepthDuration_HTML.html#59,59,1600,789,1600,900,8-21-2022,9-49-17,61,depth_duration_stimuli/001032_2014-06-08_13-23-17_260595134347_rgbf000021-resize_3/001032_2014-06-08_13-23-17_260595134347_rgbf000021-resize_3-target.png,125,3.2725,2.0,62482,126,meters,jsons/VE125_randls_1.json,612489,777883,35,Woman
61,507265,DepthScenes,duration_manipulation_targetAtFixation,jsons/VE125_randls_1.json,http://54.235.29.9/FacialAge/BNav_EC2/DepthDuration/v2_depth_duration_MTurk/v2_DepthDuration_HTML.html#59,59,1600,789,1600,900,8-21-2022,9-49-17,62,depth_duration_stimuli/000009_2014-05-26_14-32-05_260595134347_rgbf000034-resize_3/000009_2014-05-26_14-32-05_260595134347_rgbf000034-resize_3-target.png,125,3.8715,2.0,2368,124,meters,jsons/VE125_randls_1.json,612489,777883,35,Woman
62,507265,DepthScenes,duration_manipulation_targetAtFixation,jsons/VE125_randls_1.json,http://54.235.29.9/FacialAge/BNav_EC2/DepthDuration/v2_depth_duration_MTurk/v2_DepthDuration_HTML.html#59,59,1600,789,1600,900,8-21-2022,9-49-17,63,depth_duration_stimuli/001828_2014-06-26_21-40-03_260595134347_rgbf000024-resize_0/001828_2014-06-26_21-40-03_260595134347_rgbf000024-resize_0-target.png,125,4.8260000000000005,0.0,3721,125,meters,jsons/VE125_randls_1.json,612489,777883,35,Woman
63,507265,DepthScenes,duration_manipulation_targetAtFixation,jsons/VE125_randls_1.json,http://54.235.29.9/FacialAge/BNav_EC2/DepthDuration/v2_depth_duration_MTurk/v2_DepthDuration_HTML.html#59,59,1600,789,1600,900,8-21-2022,9-49-17,64,depth_duration_stimuli/000758_2014-06-08_22-05-08_260595134347_rgbf000085-resize_0/000758_2014-06-08_22-05-08_260595134347_rgbf000085-resize_0-target.png,125,3.3810000000000002,2.0,2675,125,meters,jsons/VE125_randls_1.json,612489,777883,35,Woman
64,507265,DepthScenes,duration_manipulation_targetAtFixation,jsons/VE125_randls_1.json,http://54.235.29.9/FacialAge/BNav_EC2/DepthDuration/v2_depth_duration_MTurk/v2_DepthDuration_HTML.html#59,59,1600,789,1600,900,8-21-2022,9-49-17,65,depth_duration_stimuli/000854_2014-06-09_19-43-13_260595134347_rgbf000066-resize_0/000854_2014-06-09_19-43-13_260595134347_rgbf000066-resize_0-target.png,125,3.068,2.0,2170,124,meters,jsons/VE125_randls_1.json,612489,777883,35,Woman
65,507265,DepthScenes,duration_manipulation_targetAtFixation,jsons/VE125_randls_1.json,http://54.235.29.9/FacialAge/BNav_EC2/DepthDuration/v2_depth_duration_MTurk/v2_DepthDuration_HTML.html#59,59,1600,789,1600,900,8-21-2022,9-49-17,66,depth_duration_stimuli/001222_2014-06-17_16-24-06_260595134347_rgbf000073-resize_0/001222_2014-06-17_16-24-06_260595134347_rgbf000073-resize-original.jpg,125,1.4385,0.0,2688,125,meters,jsons/VE125_randls_1.json,612489,777883,35,Woman
66,507265,DepthScenes,duration_manipulation_targetAtFixation,jsons/VE125_randls_1.json,http://54.235.29.9/FacialAge/BNav_EC2/DepthDuration/v2_depth_duration_MTurk/v2_DepthDuration_HTML.html#59,59,1600,789,1600,900,8-21-2022,9-49-17,67,depth_duration_stimuli/002905_2014-06-03_18-04-43_094959634447_rgbf000151-resize_2/002905_2014-06-03_18-04-43_094959634447_rgbf000151-resize_2-target.png,125,2.0295,1.0,2735,88,meters,jsons/VE125_randls_1.json,612489,777883,35,Woman
67,507265,DepthScenes,duration_manipulation_targetAtFixation,jsons/VE125_randls_1.json,http://54.235.29.9/FacialAge/BNav_EC2/DepthDuration/v2_depth_duration_MTurk/v2_DepthDuration_HTML.html#59,59,1600,789,1600,900,8-21-2022,9-49-17,68,depth_duration_stimuli/003423_2014-05-21_10-23-26_094959634447_rgbf002665-resize_2/003423_2014-05-21_10-23-26_094959634447_rgbf002665-resize_2-target.png,125,3.2575,0.0,2426,125,meters,jsons/VE125_randls_1.json,612489,777883,35,Woman
68,507265,DepthScenes,duration_manipulation_targetAtFixation,jsons/VE125_randls_1.json,http://54.235.29.9/FacialAge/BNav_EC2/DepthDuration/v2_depth_duration_MTurk/v2_DepthDuration_HTML.html#59,59,1600,789,1600,900,8-21-2022,9-49-17,69,depth_duration_stimuli/001808_2014-06-26_20-50-58_260595134347_rgbf000029-resize_1/001808_2014-06-26_20-50-58_260595134347_rgbf000029-resize_1-target.png,125,4.249,2.0,2754,124,meters,jsons/VE125_randls_1.json,612489,777883,35,Woman
69,507265,DepthScenes,duration_manipulation_targetAtFixation,jsons/VE125_randls_1.json,http://54.235.29.9/FacialAge/BNav_EC2/DepthDuration/v2_depth_duration_MTurk/v2_DepthDuration_HTML.html#59,59,1600,789,1600,900,8-21-2022,9-49-17,70,depth_duration_stimuli/001815_2014-06-26_20-52-55_260595134347_rgbf000020-resize_0/001815_2014-06-26_20-52-55_260595134347_rgbf000020-resize_0-target.png,125,3.3865,2.0,2217,126,meters,jsons/VE125_randls_1.json,612489,777883,35,Woman
70,507265,DepthScenes,duration_manipulation_targetAtFixation,jsons/VE125_randls_1.json,http://54.235.29.9/FacialAge/BNav_EC2/DepthDuration/v2_depth_duration_MTurk/v2_DepthDuration_HTML.html#59,59,1600,789,1600,900,8-21-2022,9-49-17,71,depth_duration_stimuli/000773_2014-06-08_22-24-54_260595134347_rgbf000093-resize_1/000773_2014-06-08_22-24-54_260595134347_rgbf000093-resize_1-target.png,125,4.973,0.0,2522,124,meters,jsons/VE125_randls_1.json,612489,777883,35,Woman
71,507265,DepthScenes,duration_manipulation_targetAtFixation,jsons/VE125_randls_1.json,http://54.235.29.9/FacialAge/BNav_EC2/DepthDuration/v2_depth_duration_MTurk/v2_DepthDuration_HTML.html#59,59,1600,789,1600,900,8-21-2022,9-49-17,72,depth_duration_stimuli/002414_2014-06-28_20-24-58_260595134347_rgbf000067-resize_4/002414_2014-06-28_20-24-58_260595134347_rgbf000067-resize_4-target.png,125,4.363,0.0,2073,124,meters,jsons/VE125_randls_1.json,612489,777883,35,Woman
72,507265,DepthScenes,duration_manipulation_targetAtFixation,jsons/VE125_randls_1.json,http://54.235.29.9/FacialAge/BNav_EC2/DepthDuration/v2_depth_duration_MTurk/v2_DepthDuration_HTML.html#59,59,1600,789,1600,900,8-21-2022,9-49-17,73,depth_duration_stimuli/002989_2014-06-15_12-25-03_094959634447_rgbf000150-resize_3/002989_2014-06-15_12-25-03_094959634447_rgbf000150-resize_3-target.png,125,4.1975,2.0,2971,125,meters,jsons/VE125_randls_1.json,612489,777883,35,Woman
73,507265,DepthScenes,duration_manipulation_targetAtFixation,jsons/VE125_randls_1.json,http://54.235.29.9/FacialAge/BNav_EC2/DepthDuration/v2_depth_duration_MTurk/v2_DepthDuration_HTML.html#59,59,1600,789,1600,900,8-21-2022,9-49-17,74,depth_duration_stimuli/000866_2014-06-09_20-45-42_260595134347_rgbf000139-resize_1/000866_2014-06-09_20-45-42_260595134347_rgbf000139-resize_1-target.png,125,3.2155,0.0,2115,126,meters,jsons/VE125_randls_1.json,612489,777883,35,Woman
74,507265,DepthScenes,duration_manipulation_targetAtFixation,jsons/VE125_randls_1.json,http://54.235.29.9/FacialAge/BNav_EC2/DepthDuration/v2_depth_duration_MTurk/v2_DepthDuration_HTML.html#59,59,1600,789,1600,900,8-21-2022,9-49-17,75,depth_duration_stimuli/001016_2014-06-09_16-16-10_260595134347_rgbf000112-resize_5/001016_2014-06-09_16-16-10_260595134347_rgbf000112-resize_5-target.png,125,1.6565,0.0,2546,124,meters,jsons/VE125_randls_1.json,612489,777883,35,Woman
75,507265,DepthScenes,duration_manipulation_targetAtFixation,jsons/VE125_randls_1.json,http://54.235.29.9/FacialAge/BNav_EC2/DepthDuration/v2_depth_duration_MTurk/v2_DepthDuration_HTML.html#59,59,1600,789,1600,900,8-21-2022,9-49-17,76,depth_duration_stimuli/002340_2014-06-28_20-05-46_260595134347_rgbf000113-resize_0/002340_2014-06-28_20-05-46_260595134347_rgbf000113-resize_0-target.png,125,2.4735,0.0,1809,125,meters,jsons/VE125_randls_1.json,612489,777883,35,Woman
76,507265,DepthScenes,duration_manipulation_targetAtFixation,jsons/VE125_randls_1.json,http://54.235.29.9/FacialAge/BNav_EC2/DepthDuration/v2_depth_duration_MTurk/v2_DepthDuration_HTML.html#59,59,1600,789,1600,900,8-21-2022,9-49-17,77,depth_duration_stimuli/002763_2014-06-22_19-13-10_094959634447_rgbf000075-resize_4/002763_2014-06-22_19-13-10_094959634447_rgbf000075-resize_4-target.png,125,1.68375,0.0,2442,122,meters,jsons/VE125_randls_1.json,612489,777883,35,Woman
77,507265,DepthScenes,duration_manipulation_targetAtFixation,jsons/VE125_randls_1.json,http://54.235.29.9/FacialAge/BNav_EC2/DepthDuration/v2_depth_duration_MTurk/v2_DepthDuration_HTML.html#59,59,1600,789,1600,900,8-21-2022,9-49-17,78,depth_duration_stimuli/002209_2014-06-28_18-36-10_260595134347_rgbf000051-resize_1/002209_2014-06-28_18-36-10_260595134347_rgbf000051-resize_1-target.png,125,2.057,1.0,2208,124,meters,jsons/VE125_randls_1.json,612489,777883,35,Woman
78,507265,DepthScenes,duration_manipulation_targetAtFixation,jsons/VE125_randls_1.json,http://54.235.29.9/FacialAge/BNav_EC2/DepthDuration/v2_depth_duration_MTurk/v2_DepthDuration_HTML.html#59,59,1600,789,1600,900,8-21-2022,9-49-17,79,depth_duration_stimuli/000486_2014-06-09_20-47-20_260595134347_rgbf000143-resize_2/000486_2014-06-09_20-47-20_260595134347_rgbf000143-resize_2-target.png,125,4.8325,2.0,2690,125,meters,jsons/VE125_randls_1.json,612489,777883,35,Woman
79,507265,DepthScenes,duration_manipulation_targetAtFixation,jsons/VE125_randls_1.json,http://54.235.29.9/FacialAge/BNav_EC2/DepthDuration/v2_depth_duration_MTurk/v2_DepthDuration_HTML.html#59,59,1600,789,1600,900,8-21-2022,9-49-17,80,depth_duration_stimuli/003083_2014-06-15_15-21-03_094959634447_rgbf000063-resize_1/003083_2014-06-15_15-21-03_094959634447_rgbf000063-resize_1-target.png,125,4.1405,2.0,2330,125,meters,jsons/VE125_randls_1.json,612489,777883,35,Woman
80,507265,DepthScenes,duration_manipulation_targetAtFixation,jsons/VE125_randls_1.json,http://54.235.29.9/FacialAge/BNav_EC2/DepthDuration/v2_depth_duration_MTurk/v2_DepthDuration_HTML.html#59,59,1600,789,1600,900,8-21-2022,9-49-17,81,depth_duration_stimuli/003292_2014-05-14_21-53-49_094959634447_rgbf000100-resize_2/003292_2014-05-14_21-53-49_094959634447_rgbf000100-resize_2-target.png,125,3.4815,0.0,2851,125,meters,jsons/VE125_randls_1.json,612489,777883,35,Woman
81,507265,DepthScenes,duration_manipulation_targetAtFixation,jsons/VE125_randls_1.json,http://54.235.29.9/FacialAge/BNav_EC2/DepthDuration/v2_depth_duration_MTurk/v2_DepthDuration_HTML.html#59,59,1600,789,1600,900,8-21-2022,9-49-17,82,depth_duration_stimuli/002639_2014-06-24_14-51-37_094959634447_rgbf000074-resize_4/002639_2014-06-24_14-51-37_094959634447_rgbf000074-resize_4-target.png,125,4.0375,1.0,2658,125,meters,jsons/VE125_randls_1.json,612489,777883,35,Woman
82,507265,DepthScenes,duration_manipulation_targetAtFixation,jsons/VE125_randls_1.json,http://54.235.29.9/FacialAge/BNav_EC2/DepthDuration/v2_depth_duration_MTurk/v2_DepthDuration_HTML.html#59,59,1600,789,1600,900,8-21-2022,9-49-17,83,depth_duration_stimuli/001110_2014-06-15_17-25-28_260595134347_rgbf000150-resize_1/001110_2014-06-15_17-25-28_260595134347_rgbf000150-resize_1-target.png,125,1.7115,1.0,2582,125,meters,jsons/VE125_randls_1.json,612489,777883,35,Woman
83,507265,DepthScenes,duration_manipulation_targetAtFixation,jsons/VE125_randls_1.json,http://54.235.29.9/FacialAge/BNav_EC2/DepthDuration/v2_depth_duration_MTurk/v2_DepthDuration_HTML.html#59,59,1600,789,1600,900,8-21-2022,9-49-17,84,depth_duration_stimuli/000927_2014-06-09_16-32-30_260595134347_rgbf000123-resize_3/000927_2014-06-09_16-32-30_260595134347_rgbf000123-resize_3-target.png,125,2.6785,1.0,3349,125,meters,jsons/VE125_randls_1.json,612489,777883,35,Woman
84,507265,DepthScenes,duration_manipulation_targetAtFixation,jsons/VE125_randls_1.json,http://54.235.29.9/FacialAge/BNav_EC2/DepthDuration/v2_depth_duration_MTurk/v2_DepthDuration_HTML.html#59,59,1600,789,1600,900,8-21-2022,9-49-17,85,depth_duration_stimuli/000368_2014-06-09_15-53-01_260595134347_rgbf000155-resize_2/000368_2014-06-09_15-53-01_260595134347_rgbf000155-resize_2-target.png,125,2.4859999999999998,0.0,3194,124,meters,jsons/VE125_randls_1.json,612489,777883,35,Woman
85,507265,DepthScenes,duration_manipulation_targetAtFixation,jsons/VE125_randls_1.json,http://54.235.29.9/FacialAge/BNav_EC2/DepthDuration/v2_depth_duration_MTurk/v2_DepthDuration_HTML.html#59,59,1600,789,1600,900,8-21-2022,9-49-17,86,depth_duration_stimuli/002678_2014-06-13_16-15-32_094959634447_rgbf000151-resize_6/002678_2014-06-13_16-15-32_094959634447_rgbf000151-resize_6-target.png,125,2.1830000000000003,0.0,2882,124,meters,jsons/VE125_randls_1.json,612489,777883,35,Woman
86,507265,DepthScenes,duration_manipulation_targetAtFixation,jsons/VE125_randls_1.json,http://54.235.29.9/FacialAge/BNav_EC2/DepthDuration/v2_depth_duration_MTurk/v2_DepthDuration_HTML.html#59,59,1600,789,1600,900,8-21-2022,9-49-17,87,depth_duration_stimuli/002663_2014-06-13_15-50-26_094959634447_rgbf000075-resize_1/002663_2014-06-13_15-50-26_094959634447_rgbf000075-resize_1-target.png,125,4.7495,2.0,2569,122,meters,jsons/VE125_randls_1.json,612489,777883,35,Woman
87,507265,DepthScenes,duration_manipulation_targetAtFixation,jsons/VE125_randls_1.json,http://54.235.29.9/FacialAge/BNav_EC2/DepthDuration/v2_depth_duration_MTurk/v2_DepthDuration_HTML.html#59,59,1600,789,1600,900,8-21-2022,9-49-17,88,depth_duration_stimuli/000409_2014-06-04_19-23-33_260595134347_rgbf000067-resize_0/000409_2014-06-04_19-23-33_260595134347_rgbf000067-resize_0-target.png,125,3.7335,2.0,2219,124,meters,jsons/VE125_randls_1.json,612489,777883,35,Woman
88,507265,DepthScenes,duration_manipulation_targetAtFixation,jsons/VE125_randls_1.json,http://54.235.29.9/FacialAge/BNav_EC2/DepthDuration/v2_depth_duration_MTurk/v2_DepthDuration_HTML.html#59,59,1600,789,1600,900,8-21-2022,9-49-17,89,depth_duration_stimuli/002279_2014-06-28_18-55-32_260595134347_rgbf000040-resize_5/002279_2014-06-28_18-55-32_260595134347_rgbf000040-resize_5-target.png,125,1.5043333333333,2.0,2945,124,meters,jsons/VE125_randls_1.json,612489,777883,35,Woman
89,507265,DepthScenes,duration_manipulation_targetAtFixation,jsons/VE125_randls_1.json,http://54.235.29.9/FacialAge/BNav_EC2/DepthDuration/v2_depth_duration_MTurk/v2_DepthDuration_HTML.html#59,59,1600,789,1600,900,8-21-2022,9-49-17,90,depth_duration_stimuli/000635_2014-06-08_16-38-42_260595134347_rgbf000106-resize_1/000635_2014-06-08_16-38-42_260595134347_rgbf000106-resize_1-target.png,125,2.074,2.0,2323,125,meters,jsons/VE125_randls_1.json,612489,777883,35,Woman
90,507265,DepthScenes,duration_manipulation_targetAtFixation,jsons/VE125_randls_1.json,http://54.235.29.9/FacialAge/BNav_EC2/DepthDuration/v2_depth_duration_MTurk/v2_DepthDuration_HTML.html#59,59,1600,789,1600,900,8-21-2022,9-49-17,91,depth_duration_stimuli/001055_2014-06-08_18-45-35_260595134347_rgbf000111-resize_4/001055_2014-06-08_18-45-35_260595134347_rgbf000111-resize_4-target.png,125,2.4290000000000003,1.0,2794,124,meters,jsons/VE125_randls_1.json,612489,777883,35,Woman
91,507265,DepthScenes,duration_manipulation_targetAtFixation,jsons/VE125_randls_1.json,http://54.235.29.9/FacialAge/BNav_EC2/DepthDuration/v2_depth_duration_MTurk/v2_DepthDuration_HTML.html#59,59,1600,789,1600,900,8-21-2022,9-49-17,92,depth_duration_stimuli/000549_2014-06-08_22-10-24_260595134347_rgbf000247-resize_3/000549_2014-06-08_22-10-24_260595134347_rgbf000247-resize_3-target.png,125,1.841,2.0,2026,128,meters,jsons/VE125_randls_1.json,612489,777883,35,Woman
92,507265,DepthScenes,duration_manipulation_targetAtFixation,jsons/VE125_randls_1.json,http://54.235.29.9/FacialAge/BNav_EC2/DepthDuration/v2_depth_duration_MTurk/v2_DepthDuration_HTML.html#59,59,1600,789,1600,900,8-21-2022,9-49-17,93,depth_duration_stimuli/002988_2014-06-15_12-24-20_094959634447_rgbf000150-resize_1/002988_2014-06-15_12-24-20_094959634447_rgbf000150-resize_1-target.png,125,4.7669999999999995,0.0,2641,124,meters,jsons/VE125_randls_1.json,612489,777883,35,Woman
93,507265,DepthScenes,duration_manipulation_targetAtFixation,jsons/VE125_randls_1.json,http://54.235.29.9/FacialAge/BNav_EC2/DepthDuration/v2_depth_duration_MTurk/v2_DepthDuration_HTML.html#59,59,1600,789,1600,900,8-21-2022,9-49-17,94,depth_duration_stimuli/001052_2014-06-08_18-24-54_260595134347_rgbf000130-resize_1/001052_2014-06-08_18-24-54_260595134347_rgbf000130-resize_1-target.png,125,4.1045,0.0,1946,124,meters,jsons/VE125_randls_1.json,612489,777883,35,Woman
94,507265,DepthScenes,duration_manipulation_targetAtFixation,jsons/VE125_randls_1.json,http://54.235.29.9/FacialAge/BNav_EC2/DepthDuration/v2_depth_duration_MTurk/v2_DepthDuration_HTML.html#59,59,1600,789,1600,900,8-21-2022,9-49-17,95,depth_duration_stimuli/000493_2014-06-09_21-01-18_260595134347_rgbf000196-resize_3/000493_2014-06-09_21-01-18_260595134347_rgbf000196-resize_3-target.png,125,3.44,2.0,2514,125,meters,jsons/VE125_randls_1.json,612489,777883,35,Woman
95,507265,DepthScenes,duration_manipulation_targetAtFixation,jsons/VE125_randls_1.json,http://54.235.29.9/FacialAge/BNav_EC2/DepthDuration/v2_depth_duration_MTurk/v2_DepthDuration_HTML.html#59,59,1600,789,1600,900,8-21-2022,9-49-17,96,depth_duration_stimuli/000191_2014-05-12_17-07-38_260595134347_rgbf000199-resize_0/000191_2014-05-12_17-07-38_260595134347_rgbf000199-resize_0-target.png,125,3.7995,2.0,2274,124,meters,jsons/VE125_randls_1.json,612489,777883,35,Woman
96,507265,DepthScenes,duration_manipulation_targetAtFixation,jsons/VE125_randls_1.json,http://54.235.29.9/FacialAge/BNav_EC2/DepthDuration/v2_depth_duration_MTurk/v2_DepthDuration_HTML.html#59,59,1600,789,1600,900,8-21-2022,9-49-17,97,depth_duration_stimuli/002784_2014-06-22_19-26-30_094959634447_rgbf000083-resize_3/002784_2014-06-22_19-26-30_094959634447_rgbf000083-resize_3-target.png,125,1.8046666666667,0.0,3074,124,meters,jsons/VE125_randls_1.json,612489,777883,35,Woman
97,507265,DepthScenes,duration_manipulation_targetAtFixation,jsons/VE125_randls_1.json,http://54.235.29.9/FacialAge/BNav_EC2/DepthDuration/v2_depth_duration_MTurk/v2_DepthDuration_HTML.html#59,59,1600,789,1600,900,8-21-2022,9-49-17,98,depth_duration_stimuli/001100_2014-06-15_17-46-26_260595134347_rgbf000225-resize_2/001100_2014-06-15_17-46-26_260595134347_rgbf000225-resize_2-target.png,125,2.24,0.0,1956,124,meters,jsons/VE125_randls_1.json,612489,777883,35,Woman
98,507265,DepthScenes,duration_manipulation_targetAtFixation,jsons/VE125_randls_1.json,http://54.235.29.9/FacialAge/BNav_EC2/DepthDuration/v2_depth_duration_MTurk/v2_DepthDuration_HTML.html#59,59,1600,789,1600,900,8-21-2022,9-49-17,99,depth_duration_stimuli/001540_2014-06-20_17-01-05_260595134347_rgbf000086-resize_2/001540_2014-06-20_17-01-05_260595134347_rgbf000086-resize-original.jpg,125,1.459,0.0,2465,136,meters,jsons/VE125_randls_1.json,612489,777883,35,Woman
99,507265,DepthScenes,duration_manipulation_targetAtFixation,jsons/VE125_randls_1.json,http://54.235.29.9/FacialAge/BNav_EC2/DepthDuration/v2_depth_duration_MTurk/v2_DepthDuration_HTML.html#59,59,1600,789,1600,900,8-21-2022,9-49-17,100,depth_duration_stimuli/002549_2014-06-24_13-41-39_094959634447_rgbf000022-resize_3/002549_2014-06-24_13-41-39_094959634447_rgbf000022-resize_3-target.png,125,1.476,2.0,2485,125,meters,jsons/VE125_randls_1.json,612489,777883,35,Woman
100,507265,DepthScenes,duration_manipulation_targetAtFixation,jsons/VE125_randls_1.json,http://54.235.29.9/FacialAge/BNav_EC2/DepthDuration/v2_depth_duration_MTurk/v2_DepthDuration_HTML.html#59,59,1600,789,1600,900,8-21-2022,9-49-17,101,depth_duration_stimuli/002750_2014-06-22_19-08-03_094959634447_rgbf000094-resize_4/002750_2014-06-22_19-08-03_094959634447_rgbf000094-resize_4-target.png,125,2.354,2.0,4752,125,meters,jsons/VE125_randls_1.json,612489,777883,35,Woman
101,507265,DepthScenes,duration_manipulation_targetAtFixation,jsons/VE125_randls_1.json,http://54.235.29.9/FacialAge/BNav_EC2/DepthDuration/v2_depth_duration_MTurk/v2_DepthDuration_HTML.html#59,59,1600,789,1600,900,8-21-2022,9-49-17,102,depth_duration_stimuli/001570_2014-06-20_17-21-09_260595134347_rgbf000135-resize_4/001570_2014-06-20_17-21-09_260595134347_rgbf000135-resize_4-target.png,125,4.467,1.0,2578,124,meters,jsons/VE125_randls_1.json,612489,777883,35,Woman
102,507265,DepthScenes,duration_manipulation_targetAtFixation,jsons/VE125_randls_1.json,http://54.235.29.9/FacialAge/BNav_EC2/DepthDuration/v2_depth_duration_MTurk/v2_DepthDuration_HTML.html#59,59,1600,789,1600,900,8-21-2022,9-49-17,103,depth_duration_stimuli/001392_2014-06-19_16-07-59_260595134347_rgbf000046-resize_1/001392_2014-06-19_16-07-59_260595134347_rgbf000046-resize_1-target.png,125,4.135,2.0,4481,125,meters,jsons/VE125_randls_1.json,612489,777883,35,Woman
103,507265,DepthScenes,duration_manipulation_targetAtFixation,jsons/VE125_randls_1.json,http://54.235.29.9/FacialAge/BNav_EC2/DepthDuration/v2_depth_duration_MTurk/v2_DepthDuration_HTML.html#59,59,1600,789,1600,900,8-21-2022,9-49-17,104,depth_duration_stimuli/001806_2014-06-26_20-50-20_260595134347_rgbf000091-resize_1/001806_2014-06-26_20-50-20_260595134347_rgbf000091-resize_1-target.png,125,2.7305,0.0,2946,123,meters,jsons/VE125_randls_1.json,612489,777883,35,Woman
104,507265,DepthScenes,duration_manipulation_targetAtFixation,jsons/VE125_randls_1.json,http://54.235.29.9/FacialAge/BNav_EC2/DepthDuration/v2_depth_duration_MTurk/v2_DepthDuration_HTML.html#59,59,1600,789,1600,900,8-21-2022,9-49-17,105,depth_duration_stimuli/001617_2014-06-20_11-35-32_260595134347_rgbf000066-resize_1/001617_2014-06-20_11-35-32_260595134347_rgbf000066-resize_1-target.png,125,3.7910000000000004,0.0,1921,125,meters,jsons/VE125_randls_1.json,612489,777883,35,Woman
105,507265,DepthScenes,duration_manipulation_targetAtFixation,jsons/VE125_randls_1.json,http://54.235.29.9/FacialAge/BNav_EC2/DepthDuration/v2_depth_duration_MTurk/v2_DepthDuration_HTML.html#59,59,1600,789,1600,900,8-21-2022,9-49-17,106,depth_duration_stimuli/000414_2014-06-04_19-49-13_260595134347_rgbf000044-resize_0/000414_2014-06-04_19-49-13_260595134347_rgbf000044-resize_0-target.png,125,4.329,2.0,3210,124,meters,jsons/VE125_randls_1.json,612489,777883,35,Woman
106,507265,DepthScenes,duration_manipulation_targetAtFixation,jsons/VE125_randls_1.json,http://54.235.29.9/FacialAge/BNav_EC2/DepthDuration/v2_depth_duration_MTurk/v2_DepthDuration_HTML.html#59,59,1600,789,1600,900,8-21-2022,9-49-17,107,depth_duration_stimuli/003129_2014-05-12_10-48-10_094959634447_rgbf000100-resize_0/003129_2014-05-12_10-48-10_094959634447_rgbf000100-resize_0-target.png,125,4.9305,0.0,3305,125,meters,jsons/VE125_randls_1.json,612489,777883,35,Woman
107,507265,DepthScenes,duration_manipulation_targetAtFixation,jsons/VE125_randls_1.json,http://54.235.29.9/FacialAge/BNav_EC2/DepthDuration/v2_depth_duration_MTurk/v2_DepthDuration_HTML.html#59,59,1600,789,1600,900,8-21-2022,9-49-17,108,depth_duration_stimuli/002039_2014-06-24_20-22-38_260595134347_rgbf000084-resize_1/002039_2014-06-24_20-22-38_260595134347_rgbf000084-resize_1-target.png,125,4.408,3.0,4522,124,meters,jsons/VE125_randls_1.json,612489,777883,35,Woman
108,507265,DepthScenes,duration_manipulation_targetAtFixation,jsons/VE125_randls_1.json,http://54.235.29.9/FacialAge/BNav_EC2/DepthDuration/v2_depth_duration_MTurk/v2_DepthDuration_HTML.html#59,59,1600,789,1600,900,8-21-2022,9-49-17,109,depth_duration_stimuli/002103_2014-06-25_20-00-40_260595134347_rgbf000049-resize_0/002103_2014-06-25_20-00-40_260595134347_rgbf000049-resize_0-target.png,125,4.105,1.0,2224,125,meters,jsons/VE125_randls_1.json,612489,777883,35,Woman
109,507265,DepthScenes,duration_manipulation_targetAtFixation,jsons/VE125_randls_1.json,http://54.235.29.9/FacialAge/BNav_EC2/DepthDuration/v2_depth_duration_MTurk/v2_DepthDuration_HTML.html#59,59,1600,789,1600,900,8-21-2022,9-49-17,110,depth_duration_stimuli/000682_2014-06-08_23-14-58_260595134347_rgbf000041-resize_5/000682_2014-06-08_23-14-58_260595134347_rgbf000041-resize_5-target.png,125,2.7239999999999998,2.0,2709,124,meters,jsons/VE125_randls_1.json,612489,777883,35,Woman
110,507265,DepthScenes,duration_manipulation_targetAtFixation,jsons/VE125_randls_1.json,http://54.235.29.9/FacialAge/BNav_EC2/DepthDuration/v2_depth_duration_MTurk/v2_DepthDuration_HTML.html#59,59,1600,789,1600,900,8-21-2022,9-49-17,111,depth_duration_stimuli/001650_2014-06-20_12-09-00_260595134347_rgbf000087-resize_3/001650_2014-06-20_12-09-00_260595134347_rgbf000087-resize_3-target.png,125,1.9505,0.0,1993,124,meters,jsons/VE125_randls_1.json,612489,777883,35,Woman
111,507265,DepthScenes,duration_manipulation_targetAtFixation,jsons/VE125_randls_1.json,http://54.235.29.9/FacialAge/BNav_EC2/DepthDuration/v2_depth_duration_MTurk/v2_DepthDuration_HTML.html#59,59,1600,789,1600,900,8-21-2022,9-49-17,112,depth_duration_stimuli/001092_2014-06-15_17-34-58_260595134347_rgbf000171-resize_3/001092_2014-06-15_17-34-58_260595134347_rgbf000171-resize_3-target.png,125,2.6935,1.0,2578,124,meters,jsons/VE125_randls_1.json,612489,777883,35,Woman
112,507265,DepthScenes,duration_manipulation_targetAtFixation,jsons/VE125_randls_1.json,http://54.235.29.9/FacialAge/BNav_EC2/DepthDuration/v2_depth_duration_MTurk/v2_DepthDuration_HTML.html#59,59,1600,789,1600,900,8-21-2022,9-49-17,113,depth_duration_stimuli/002545_2014-06-24_13-38-53_094959634447_rgbf000080-resize_4/002545_2014-06-24_13-38-53_094959634447_rgbf000080-resize_4-target.png,125,1.9205,0.0,1977,124,meters,jsons/VE125_randls_1.json,612489,777883,35,Woman
113,507265,DepthScenes,duration_manipulation_targetAtFixation,jsons/VE125_randls_1.json,http://54.235.29.9/FacialAge/BNav_EC2/DepthDuration/v2_depth_duration_MTurk/v2_DepthDuration_HTML.html#59,59,1600,789,1600,900,8-21-2022,9-49-17,114,depth_duration_stimuli/003492_2014-05-21_15-50-55_094959634447_rgbf000828-resize_1/003492_2014-05-21_15-50-55_094959634447_rgbf000828-resize_1-target.png,125,4.06875,2.0,2634,125,meters,jsons/VE125_randls_1.json,612489,777883,35,Woman
114,507265,DepthScenes,duration_manipulation_targetAtFixation,jsons/VE125_randls_1.json,http://54.235.29.9/FacialAge/BNav_EC2/DepthDuration/v2_depth_duration_MTurk/v2_DepthDuration_HTML.html#59,59,1600,789,1600,900,8-21-2022,9-49-17,115,depth_duration_stimuli/002568_2014-06-24_13-59-21_094959634447_rgbf000062-resize_4/002568_2014-06-24_13-59-21_094959634447_rgbf000062-resize_4-target.png,125,3.015,2.0,1979,124,meters,jsons/VE125_randls_1.json,612489,777883,35,Woman
115,507265,DepthScenes,duration_manipulation_targetAtFixation,jsons/VE125_randls_1.json,http://54.235.29.9/FacialAge/BNav_EC2/DepthDuration/v2_depth_duration_MTurk/v2_DepthDuration_HTML.html#59,59,1600,789,1600,900,8-21-2022,9-49-17,116,depth_duration_stimuli/001170_2014-06-17_15-43-44_260595134347_rgbf000096-resize_6/001170_2014-06-17_15-43-44_260595134347_rgbf000096-resize-original.jpg,125,1.1909999999999998,0.0,2482,125,meters,jsons/VE125_randls_1.json,612489,777883,35,Woman
116,507265,DepthScenes,duration_manipulation_targetAtFixation,jsons/VE125_randls_1.json,http://54.235.29.9/FacialAge/BNav_EC2/DepthDuration/v2_depth_duration_MTurk/v2_DepthDuration_HTML.html#59,59,1600,789,1600,900,8-21-2022,9-49-17,117,depth_duration_stimuli/001011_2014-06-08_23-18-54_260595134347_rgbf000044-resize_4/001011_2014-06-08_23-18-54_260595134347_rgbf000044-resize_4-target.png,125,2.4730000000000003,0.0,2601,123,meters,jsons/VE125_randls_1.json,612489,777883,35,Woman
117,507265,DepthScenes,duration_manipulation_targetAtFixation,jsons/VE125_randls_1.json,http://54.235.29.9/FacialAge/BNav_EC2/DepthDuration/v2_depth_duration_MTurk/v2_DepthDuration_HTML.html#59,59,1600,789,1600,900,8-21-2022,9-49-17,118,depth_duration_stimuli/002875_2014-06-01_15-19-00_094959634447_rgbf000151-resize_1/002875_2014-06-01_15-19-00_094959634447_rgbf000151-resize_1-target.png,125,1.9675,0.0,1911,125,meters,jsons/VE125_randls_1.json,612489,777883,35,Woman
118,507265,DepthScenes,duration_manipulation_targetAtFixation,jsons/VE125_randls_1.json,http://54.235.29.9/FacialAge/BNav_EC2/DepthDuration/v2_depth_duration_MTurk/v2_DepthDuration_HTML.html#59,59,1600,789,1600,900,8-21-2022,9-49-17,119,depth_duration_stimuli/001167_2014-06-17_15-38-07_260595134347_rgbf000108-resize_0/001167_2014-06-17_15-38-07_260595134347_rgbf000108-resize_0-target.png,125,1.8505,1.0,2628,125,meters,jsons/VE125_randls_1.json,612489,777883,35,Woman
119,507265,DepthScenes,duration_manipulation_targetAtFixation,jsons/VE125_randls_1.json,http://54.235.29.9/FacialAge/BNav_EC2/DepthDuration/v2_depth_duration_MTurk/v2_DepthDuration_HTML.html#59,59,1600,789,1600,900,8-21-2022,9-49-17,120,depth_duration_stimuli/003587_2014-05-23_16-48-02_094959634447_rgbf002384-resize_2/003587_2014-05-23_16-48-02_094959634447_rgbf002384-resize_2-target.png,125,1.357,0.0,1866,125,meters,jsons/VE125_randls_1.json,612489,777883,35,Woman
120,507265,DepthScenes,duration_manipulation_targetAtFixation,jsons/VE125_randls_1.json,http://54.235.29.9/FacialAge/BNav_EC2/DepthDuration/v2_depth_duration_MTurk/v2_DepthDuration_HTML.html#59,59,1600,789,1600,900,8-21-2022,9-49-17,121,depth_duration_stimuli/000906_2014-06-08_13-35-43_260595134347_rgbf000155-resize_1/000906_2014-06-08_13-35-43_260595134347_rgbf000155-resize_1-target.png,125,2.8489999999999998,5.0,3066,125,meters,jsons/VE125_randls_1.json,612489,777883,35,Woman
121,507265,DepthScenes,duration_manipulation_targetAtFixation,jsons/VE125_randls_1.json,http://54.235.29.9/FacialAge/BNav_EC2/DepthDuration/v2_depth_duration_MTurk/v2_DepthDuration_HTML.html#59,59,1600,789,1600,900,8-21-2022,9-49-17,122,depth_duration_stimuli/002805_2014-06-22_19-54-03_094959634447_rgbf000079-resize_1/002805_2014-06-22_19-54-03_094959634447_rgbf000079-resize_1-target.png,125,3.1439999999999997,5.0,2114,124,meters,jsons/VE125_randls_1.json,612489,777883,35,Woman
122,507265,DepthScenes,duration_manipulation_targetAtFixation,jsons/VE125_randls_1.json,http://54.235.29.9/FacialAge/BNav_EC2/DepthDuration/v2_depth_duration_MTurk/v2_DepthDuration_HTML.html#59,59,1600,789,1600,900,8-21-2022,9-49-17,123,depth_duration_stimuli/000692_2014-06-08_13-09-42_260595134347_rgbf000199-resize_2/000692_2014-06-08_13-09-42_260595134347_rgbf000199-resize_2-target.png,125,3.661,4.0,2634,125,meters,jsons/VE125_randls_1.json,612489,777883,35,Woman
123,507265,DepthScenes,duration_manipulation_targetAtFixation,jsons/VE125_randls_1.json,http://54.235.29.9/FacialAge/BNav_EC2/DepthDuration/v2_depth_duration_MTurk/v2_DepthDuration_HTML.html#59,59,1600,789,1600,900,8-21-2022,9-49-17,124,depth_duration_stimuli/001094_2014-06-15_17-36-00_260595134347_rgbf000205-resize_0/001094_2014-06-15_17-36-00_260595134347_rgbf000205-resize_0-target.png,125,4.2175,0.0,1976,123,meters,jsons/VE125_randls_1.json,612489,777883,35,Woman
124,507265,DepthScenes,duration_manipulation_targetAtFixation,jsons/VE125_randls_1.json,http://54.235.29.9/FacialAge/BNav_EC2/DepthDuration/v2_depth_duration_MTurk/v2_DepthDuration_HTML.html#59,59,1600,789,1600,900,8-21-2022,9-49-17,125,depth_duration_stimuli/001199_2014-06-17_16-03-48_260595134347_rgbf000077-resize_0/001199_2014-06-17_16-03-48_260595134347_rgbf000077-resize_0-target.png,125,3.4375,2.0,2690,124,meters,jsons/VE125_randls_1.json,612489,777883,35,Woman
125,507265,DepthScenes,duration_manipulation_targetAtFixation,jsons/VE125_randls_1.json,http://54.235.29.9/FacialAge/BNav_EC2/DepthDuration/v2_depth_duration_MTurk/v2_DepthDuration_HTML.html#59,59,1600,789,1600,900,8-21-2022,9-49-17,126,depth_duration_stimuli/000502_2014-06-08_23-02-32_260595134347_rgbf000063-resize_4/000502_2014-06-08_23-02-32_260595134347_rgbf000063-resize_4-target.png,125,2.431,3.0,3265,124,meters,jsons/VE125_randls_1.json,612489,777883,35,Woman
126,507265,DepthScenes,duration_manipulation_targetAtFixation,jsons/VE125_randls_1.json,http://54.235.29.9/FacialAge/BNav_EC2/DepthDuration/v2_depth_duration_MTurk/v2_DepthDuration_HTML.html#59,59,1600,789,1600,900,8-21-2022,9-49-17,127,depth_duration_stimuli/001244_2014-06-17_16-47-45_260595134347_rgbf000030-resize_4/001244_2014-06-17_16-47-45_260595134347_rgbf000030-resize_4-target.png,125,2.0425,2.0,2561,126,meters,jsons/VE125_randls_1.json,612489,777883,35,Woman
127,507265,DepthScenes,duration_manipulation_targetAtFixation,jsons/VE125_randls_1.json,http://54.235.29.9/FacialAge/BNav_EC2/DepthDuration/v2_depth_duration_MTurk/v2_DepthDuration_HTML.html#59,59,1600,789,1600,900,8-21-2022,9-49-17,128,depth_duration_stimuli/003495_2014-05-21_16-01-51_094959634447_rgbf000100-resize_3/003495_2014-05-21_16-01-51_094959634447_rgbf000100-resize_3-target.png,125,1.6255,0.0,2099,126,meters,jsons/VE125_randls_1.json,612489,777883,35,Woman
128,507265,DepthScenes,duration_manipulation_targetAtFixation,jsons/VE125_randls_1.json,http://54.235.29.9/FacialAge/BNav_EC2/DepthDuration/v2_depth_duration_MTurk/v2_DepthDuration_HTML.html#59,59,1600,789,1600,900,8-21-2022,9-49-17,129,depth_duration_stimuli/002272_2014-06-28_18-53-56_260595134347_rgbf000067-resize_2/002272_2014-06-28_18-53-56_260595134347_rgbf000067-resize_2-target.png,125,1.138,0.0,2503,113,meters,jsons/VE125_randls_1.json,612489,777883,35,Woman
129,507265,DepthScenes,duration_manipulation_targetAtFixation,jsons/VE125_randls_1.json,http://54.235.29.9/FacialAge/BNav_EC2/DepthDuration/v2_depth_duration_MTurk/v2_DepthDuration_HTML.html#59,59,1600,789,1600,900,8-21-2022,9-49-17,130,depth_duration_stimuli/001571_2014-06-20_17-21-32_260595134347_rgbf000089-resize_1/001571_2014-06-20_17-21-32_260595134347_rgbf000089-resize_1-target.png,125,1.86,0.0,2331,124,meters,jsons/VE125_randls_1.json,612489,777883,35,Woman
130,507265,DepthScenes,duration_manipulation_targetAtFixation,jsons/VE125_randls_1.json,http://54.235.29.9/FacialAge/BNav_EC2/DepthDuration/v2_depth_duration_MTurk/v2_DepthDuration_HTML.html#59,59,1600,789,1600,900,8-21-2022,9-49-17,131,depth_duration_stimuli/001175_2014-06-17_15-45-55_260595134347_rgbf000129-resize_4/001175_2014-06-17_15-45-55_260595134347_rgbf000129-resize_4-target.png,125,4.255,2.0,2823,124,meters,jsons/VE125_randls_1.json,612489,777883,35,Woman
131,507265,DepthScenes,duration_manipulation_targetAtFixation,jsons/VE125_randls_1.json,http://54.235.29.9/FacialAge/BNav_EC2/DepthDuration/v2_depth_duration_MTurk/v2_DepthDuration_HTML.html#59,59,1600,789,1600,900,8-21-2022,9-49-17,132,depth_duration_stimuli/003490_2014-05-21_15-50-11_094959634447_rgbf000101-resize_3/003490_2014-05-21_15-50-11_094959634447_rgbf000101-resize_3-target.png,125,3.6445,0.0,2235,124,meters,jsons/VE125_randls_1.json,612489,777883,35,Woman
132,507265,DepthScenes,duration_manipulation_targetAtFixation,jsons/VE125_randls_1.json,http://54.235.29.9/FacialAge/BNav_EC2/DepthDuration/v2_depth_duration_MTurk/v2_DepthDuration_HTML.html#59,59,1600,789,1600,900,8-21-2022,9-49-17,133,depth_duration_stimuli/003621_2014-05-23_18-06-08_094959634447_rgbf000101-resize_1/003621_2014-05-23_18-06-08_094959634447_rgbf000101-resize_1-target.png,125,3.9835,1.0,2648,117,meters,jsons/VE125_randls_1.json,612489,777883,35,Woman
133,507265,DepthScenes,duration_manipulation_targetAtFixation,jsons/VE125_randls_1.json,http://54.235.29.9/FacialAge/BNav_EC2/DepthDuration/v2_depth_duration_MTurk/v2_DepthDuration_HTML.html#59,59,1600,789,1600,900,8-21-2022,9-49-17,134,depth_duration_stimuli/001584_2014-06-20_11-07-43_260595134347_rgbf000002-resize_1/001584_2014-06-20_11-07-43_260595134347_rgbf000002-resize_1-target.png,125,3.53,3.0,2393,123,meters,jsons/VE125_randls_1.json,612489,777883,35,Woman
134,507265,DepthScenes,duration_manipulation_targetAtFixation,jsons/VE125_randls_1.json,http://54.235.29.9/FacialAge/BNav_EC2/DepthDuration/v2_depth_duration_MTurk/v2_DepthDuration_HTML.html#59,59,1600,789,1600,900,8-21-2022,9-49-17,135,depth_duration_stimuli/002072_2014-06-24_21-48-06_260595134347_rgbf000115-resize_0/002072_2014-06-24_21-48-06_260595134347_rgbf000115-resize-original.jpg,125,4.702,0.0,3250,125,meters,jsons/VE125_randls_1.json,612489,777883,35,Woman
135,507265,DepthScenes,duration_manipulation_targetAtFixation,jsons/VE125_randls_1.json,http://54.235.29.9/FacialAge/BNav_EC2/DepthDuration/v2_depth_duration_MTurk/v2_DepthDuration_HTML.html#59,59,1600,789,1600,900,8-21-2022,9-49-17,136,depth_duration_stimuli/000739_2014-06-08_18-45-58_260595134347_rgbf000068-resize_1/000739_2014-06-08_18-45-58_260595134347_rgbf000068-resize_1-target.png,125,3.534,1.0,2945,124,meters,jsons/VE125_randls_1.json,612489,777883,35,Woman
136,507265,DepthScenes,duration_manipulation_targetAtFixation,jsons/VE125_randls_1.json,http://54.235.29.9/FacialAge/BNav_EC2/DepthDuration/v2_depth_duration_MTurk/v2_DepthDuration_HTML.html#59,59,1600,789,1600,900,8-21-2022,9-49-17,137,depth_duration_stimuli/000734_2014-06-08_17-39-11_260595134347_rgbf000128-resize_2/000734_2014-06-08_17-39-11_260595134347_rgbf000128-resize_2-target.png,125,4.098,0.0,2434,124,meters,jsons/VE125_randls_1.json,612489,777883,35,Woman
137,507265,DepthScenes,duration_manipulation_targetAtFixation,jsons/VE125_randls_1.json,http://54.235.29.9/FacialAge/BNav_EC2/DepthDuration/v2_depth_duration_MTurk/v2_DepthDuration_HTML.html#59,59,1600,789,1600,900,8-21-2022,9-49-17,138,depth_duration_stimuli/002630_2014-06-24_14-47-50_094959634447_rgbf000055-resize_1/002630_2014-06-24_14-47-50_094959634447_rgbf000055-resize_1-target.png,125,3.0095,1.0,2530,124,meters,jsons/VE125_randls_1.json,612489,777883,35,Woman
138,507265,DepthScenes,duration_manipulation_targetAtFixation,jsons/VE125_randls_1.json,http://54.235.29.9/FacialAge/BNav_EC2/DepthDuration/v2_depth_duration_MTurk/v2_DepthDuration_HTML.html#59,59,1600,789,1600,900,8-21-2022,9-49-17,139,depth_duration_stimuli/002758_2014-06-22_19-11-20_094959634447_rgbf000128-resize_1/002758_2014-06-22_19-11-20_094959634447_rgbf000128-resize_1-target.png,125,2.555,0.0,2297,125,meters,jsons/VE125_randls_1.json,612489,777883,35,Woman
139,507265,DepthScenes,duration_manipulation_targetAtFixation,jsons/VE125_randls_1.json,http://54.235.29.9/FacialAge/BNav_EC2/DepthDuration/v2_depth_duration_MTurk/v2_DepthDuration_HTML.html#59,59,1600,789,1600,900,8-21-2022,9-49-17,140,depth_duration_stimuli/001133_2014-06-17_14-49-16_260595134347_rgbf000100-resize_0/001133_2014-06-17_14-49-16_260595134347_rgbf000100-resize_0-target.png,125,4.2115,1.0,2578,125,meters,jsons/VE125_randls_1.json,612489,777883,35,Woman
140,507265,DepthScenes,duration_manipulation_targetAtFixation,jsons/VE125_randls_1.json,http://54.235.29.9/FacialAge/BNav_EC2/DepthDuration/v2_depth_duration_MTurk/v2_DepthDuration_HTML.html#59,59,1600,789,1600,900,8-21-2022,9-49-17,141,depth_duration_stimuli/001132_2014-06-17_14-48-54_260595134347_rgbf000100-resize_2/001132_2014-06-17_14-48-54_260595134347_rgbf000100-resize_2-target.png,125,3.753,1.0,3030,113,meters,jsons/VE125_randls_1.json,612489,777883,35,Woman
141,507265,DepthScenes,duration_manipulation_targetAtFixation,jsons/VE125_randls_1.json,http://54.235.29.9/FacialAge/BNav_EC2/DepthDuration/v2_depth_duration_MTurk/v2_DepthDuration_HTML.html#59,59,1600,789,1600,900,8-21-2022,9-49-17,142,depth_duration_stimuli/003070_2014-06-15_14-58-27_094959634447_rgbf000150-resize_3/003070_2014-06-15_14-58-27_094959634447_rgbf000150-resize_3-target.png,125,2.9415,1.0,2874,125,meters,jsons/VE125_randls_1.json,612489,777883,35,Woman
142,507265,DepthScenes,duration_manipulation_targetAtFixation,jsons/VE125_randls_1.json,http://54.235.29.9/FacialAge/BNav_EC2/DepthDuration/v2_depth_duration_MTurk/v2_DepthDuration_HTML.html#59,59,1600,789,1600,900,8-21-2022,9-49-17,143,depth_duration_stimuli/000943_2014-06-09_19-31-07_260595134347_rgbf000128-resize_1/000943_2014-06-09_19-31-07_260595134347_rgbf000128-resize_1-target.png,125,1.9765,1.0,2041,125,meters,jsons/VE125_randls_1.json,612489,777883,35,Woman
143,507265,DepthScenes,duration_manipulation_targetAtFixation,jsons/VE125_randls_1.json,http://54.235.29.9/FacialAge/BNav_EC2/DepthDuration/v2_depth_duration_MTurk/v2_DepthDuration_HTML.html#59,59,1600,789,1600,900,8-21-2022,9-49-17,144,depth_duration_stimuli/001029_2014-06-08_13-17-57_260595134347_rgbf000065-resize_1/001029_2014-06-08_13-17-57_260595134347_rgbf000065-resize_1-target.png,125,3.0835,1.0,2714,125,meters,jsons/VE125_randls_1.json,612489,777883,35,Woman
144,507265,DepthScenes,duration_manipulation_targetAtFixation,jsons/VE125_randls_1.json,http://54.235.29.9/FacialAge/BNav_EC2/DepthDuration/v2_depth_duration_MTurk/v2_DepthDuration_HTML.html#59,59,1600,789,1600,900,8-21-2022,9-49-17,145,depth_duration_stimuli/000677_2014-06-08_23-10-32_260595134347_rgbf000158-resize_6/000677_2014-06-08_23-10-32_260595134347_rgbf000158-resize_6-target.png,125,3.556,2.0,3138,125,meters,jsons/VE125_randls_1.json,612489,777883,35,Woman
145,507265,DepthScenes,duration_manipulation_targetAtFixation,jsons/VE125_randls_1.json,http://54.235.29.9/FacialAge/BNav_EC2/DepthDuration/v2_depth_duration_MTurk/v2_DepthDuration_HTML.html#59,59,1600,789,1600,900,8-21-2022,9-49-17,146,depth_duration_stimuli/001498_2014-06-19_17-45-14_260595134347_rgbf000129-resize_4/001498_2014-06-19_17-45-14_260595134347_rgbf000129-resize-original.jpg,125,1.4075,2.0,4386,124,meters,jsons/VE125_randls_1.json,612489,777883,35,Woman
146,507265,DepthScenes,duration_manipulation_targetAtFixation,jsons/VE125_randls_1.json,http://54.235.29.9/FacialAge/BNav_EC2/DepthDuration/v2_depth_duration_MTurk/v2_DepthDuration_HTML.html#59,59,1600,789,1600,900,8-21-2022,9-49-17,147,depth_duration_stimuli/001555_2014-06-20_17-12-10_260595134347_rgbf000065-resize_4/001555_2014-06-20_17-12-10_260595134347_rgbf000065-resize_4-target.png,125,1.633,1.0,2641,124,meters,jsons/VE125_randls_1.json,612489,777883,35,Woman
147,507265,DepthScenes,duration_manipulation_targetAtFixation,jsons/VE125_randls_1.json,http://54.235.29.9/FacialAge/BNav_EC2/DepthDuration/v2_depth_duration_MTurk/v2_DepthDuration_HTML.html#59,59,1600,789,1600,900,8-21-2022,9-49-17,148,depth_duration_stimuli/000103_2014-05-14_22-01-17_260595134347_rgbf000152-resize_5/000103_2014-05-14_22-01-17_260595134347_rgbf000152-resize_5-target.png,125,1.993,1.0,2989,121,meters,jsons/VE125_randls_1.json,612489,777883,35,Woman
148,507265,DepthScenes,duration_manipulation_targetAtFixation,jsons/VE125_randls_1.json,http://54.235.29.9/FacialAge/BNav_EC2/DepthDuration/v2_depth_duration_MTurk/v2_DepthDuration_HTML.html#59,59,1600,789,1600,900,8-21-2022,9-49-17,149,depth_duration_stimuli/000917_2014-06-09_22-45-29_260595134347_rgbf000149-resize_3/000917_2014-06-09_22-45-29_260595134347_rgbf000149-resize_3-target.png,125,4.1865,2.0,2731,126,meters,jsons/VE125_randls_1.json,612489,777883,35,Woman
149,507265,DepthScenes,duration_manipulation_targetAtFixation,jsons/VE125_randls_1.json,http://54.235.29.9/FacialAge/BNav_EC2/DepthDuration/v2_depth_duration_MTurk/v2_DepthDuration_HTML.html#59,59,1600,789,1600,900,8-21-2022,9-49-17,150,depth_duration_stimuli/002323_2014-06-28_20-01-54_260595134347_rgbf000051-resize_4/002323_2014-06-28_20-01-54_260595134347_rgbf000051-resize_4-target.png,125,3.7310000000000003,0.0,2060,124,meters,jsons/VE125_randls_1.json,612489,777883,35,Woman
150,507265,DepthScenes,duration_manipulation_targetAtFixation,jsons/VE125_randls_1.json,http://54.235.29.9/FacialAge/BNav_EC2/DepthDuration/v2_depth_duration_MTurk/v2_DepthDuration_HTML.html#59,59,1600,789,1600,900,8-21-2022,9-49-17,151,depth_duration_stimuli/002153_2014-06-25_21-27-18_260595134347_rgbf000038-resize_5/002153_2014-06-25_21-27-18_260595134347_rgbf000038-resize_5-target.png,125,2.505,1.0,2575,124,meters,jsons/VE125_randls_1.json,612489,777883,35,Woman
151,507265,DepthScenes,duration_manipulation_targetAtFixation,jsons/VE125_randls_1.json,http://54.235.29.9/FacialAge/BNav_EC2/DepthDuration/v2_depth_duration_MTurk/v2_DepthDuration_HTML.html#59,59,1600,789,1600,900,8-21-2022,9-49-17,152,depth_duration_stimuli/002660_2014-06-13_15-44-18_094959634447_rgbf001878-resize_2/002660_2014-06-13_15-44-18_094959634447_rgbf001878-resize_2-target.png,125,3.576,1.0,4130,124,meters,jsons/VE125_randls_1.json,612489,777883,35,Woman
152,507265,DepthScenes,duration_manipulation_targetAtFixation,jsons/VE125_randls_1.json,http://54.235.29.9/FacialAge/BNav_EC2/DepthDuration/v2_depth_duration_MTurk/v2_DepthDuration_HTML.html#59,59,1600,789,1600,900,8-21-2022,9-49-17,153,depth_duration_stimuli/001056_2014-06-08_18-46-44_260595134347_rgbf000068-resize_0/001056_2014-06-08_18-46-44_260595134347_rgbf000068-resize_0-target.png,125,2.6625,2.0,17233,124,meters,jsons/VE125_randls_1.json,612489,777883,35,Woman
153,507265,DepthScenes,duration_manipulation_targetAtFixation,jsons/VE125_randls_1.json,http://54.235.29.9/FacialAge/BNav_EC2/DepthDuration/v2_depth_duration_MTurk/v2_DepthDuration_HTML.html#59,59,1600,789,1600,900,8-21-2022,9-49-17,154,depth_duration_stimuli/002199_2014-06-28_18-33-56_260595134347_rgbf000074-resize_0/002199_2014-06-28_18-33-56_260595134347_rgbf000074-resize_0-target.png,125,1.996,0.0,2601,124,meters,jsons/VE125_randls_1.json,612489,777883,35,Woman
154,507265,DepthScenes,duration_manipulation_targetAtFixation,jsons/VE125_randls_1.json,http://54.235.29.9/FacialAge/BNav_EC2/DepthDuration/v2_depth_duration_MTurk/v2_DepthDuration_HTML.html#59,59,1600,789,1600,900,8-21-2022,9-49-17,155,depth_duration_stimuli/001066_2014-06-08_22-03-20_260595134347_rgbf000066-resize_4/001066_2014-06-08_22-03-20_260595134347_rgbf000066-resize_4-target.png,125,4.2330000000000005,1.0,2802,125,meters,jsons/VE125_randls_1.json,612489,777883,35,Woman
155,507265,DepthScenes,duration_manipulation_targetAtFixation,jsons/VE125_randls_1.json,http://54.235.29.9/FacialAge/BNav_EC2/DepthDuration/v2_depth_duration_MTurk/v2_DepthDuration_HTML.html#59,59,1600,789,1600,900,8-21-2022,9-49-17,156,depth_duration_stimuli/000742_2014-06-08_18-48-09_260595134347_rgbf000164-resize_4/000742_2014-06-08_18-48-09_260595134347_rgbf000164-resize_4-target.png,125,4.632,13.0,3905,124,meters,jsons/VE125_randls_1.json,612489,777883,35,Woman
156,507265,DepthScenes,duration_manipulation_targetAtFixation,jsons/VE125_randls_1.json,http://54.235.29.9/FacialAge/BNav_EC2/DepthDuration/v2_depth_duration_MTurk/v2_DepthDuration_HTML.html#59,59,1600,789,1600,900,8-21-2022,9-49-17,157,depth_duration_stimuli/000470_2014-06-09_19-42-40_260595134347_rgbf000094-resize_1/000470_2014-06-09_19-42-40_260595134347_rgbf000094-resize_1-target.png,125,1.831,1.0,2563,125,meters,jsons/VE125_randls_1.json,612489,777883,35,Woman
157,507265,DepthScenes,duration_manipulation_targetAtFixation,jsons/VE125_randls_1.json,http://54.235.29.9/FacialAge/BNav_EC2/DepthDuration/v2_depth_duration_MTurk/v2_DepthDuration_HTML.html#59,59,1600,789,1600,900,8-21-2022,9-49-17,158,depth_duration_stimuli/000109_2014-05-14_23-41-52_260595134347_rgbf000035-resize_9/000109_2014-05-14_23-41-52_260595134347_rgbf000035-resize_9-target.png,125,1.3545,1.0,6657,125,meters,jsons/VE125_randls_1.json,612489,777883,35,Woman
158,507265,DepthScenes,duration_manipulation_targetAtFixation,jsons/VE125_randls_1.json,http://54.235.29.9/FacialAge/BNav_EC2/DepthDuration/v2_depth_duration_MTurk/v2_DepthDuration_HTML.html#59,59,1600,789,1600,900,8-21-2022,9-49-17,159,depth_duration_stimuli/002213_2014-06-28_18-37-58_260595134347_rgbf000055-resize_1/002213_2014-06-28_18-37-58_260595134347_rgbf000055-resize_1-target.png,125,3.62,1.0,14992,124,meters,jsons/VE125_randls_1.json,612489,777883,35,Woman
159,507265,DepthScenes,duration_manipulation_targetAtFixation,jsons/VE125_randls_1.json,http://54.235.29.9/FacialAge/BNav_EC2/DepthDuration/v2_depth_duration_MTurk/v2_DepthDuration_HTML.html#59,59,1600,789,1600,900,8-21-2022,9-49-17,160,depth_duration_stimuli/000691_2014-06-08_13-08-50_260595134347_rgbf000132-resize_3/000691_2014-06-08_13-08-50_260595134347_rgbf000132-resize_3-target.png,125,4.1530000000000005,2.0,2714,123,meters,jsons/VE125_randls_1.json,612489,777883,35,Woman
160,507265,DepthScenes,duration_manipulation_targetAtFixation,jsons/VE125_randls_1.json,http://54.235.29.9/FacialAge/BNav_EC2/DepthDuration/v2_depth_duration_MTurk/v2_DepthDuration_HTML.html#59,59,1600,789,1600,900,8-21-2022,9-49-17,161,depth_duration_stimuli/000929_2014-06-09_16-33-19_260595134347_rgbf000139-resize_0/000929_2014-06-09_16-33-19_260595134347_rgbf000139-resize_0-target.png,125,2.8680000000000003,1.0,8306,124,meters,jsons/VE125_randls_1.json,612489,777883,35,Woman
161,507265,DepthScenes,duration_manipulation_targetAtFixation,jsons/VE125_randls_1.json,http://54.235.29.9/FacialAge/BNav_EC2/DepthDuration/v2_depth_duration_MTurk/v2_DepthDuration_HTML.html#59,59,1600,789,1600,900,8-21-2022,9-49-17,162,depth_duration_stimuli/000457_2014-06-08_16-52-43_260595134347_rgbf000199-resize_1/000457_2014-06-08_16-52-43_260595134347_rgbf000199-resize_1-target.png,125,3.6489999999999996,1.0,2289,126,meters,jsons/VE125_randls_1.json,612489,777883,35,Woman
162,507265,DepthScenes,duration_manipulation_targetAtFixation,jsons/VE125_randls_1.json,http://54.235.29.9/FacialAge/BNav_EC2/DepthDuration/v2_depth_duration_MTurk/v2_DepthDuration_HTML.html#59,59,1600,789,1600,900,8-21-2022,9-49-17,163,depth_duration_stimuli/002509_2014-06-24_13-19-22_094959634447_rgbf000077-resize_0/002509_2014-06-24_13-19-22_094959634447_rgbf000077-resize_0-target.png,125,1.3065,1.0,3286,124,meters,jsons/VE125_randls_1.json,612489,777883,35,Woman
163,507265,DepthScenes,duration_manipulation_targetAtFixation,jsons/VE125_randls_1.json,http://54.235.29.9/FacialAge/BNav_EC2/DepthDuration/v2_depth_duration_MTurk/v2_DepthDuration_HTML.html#59,59,1600,789,1600,900,8-21-2022,9-49-17,164,depth_duration_stimuli/003338_2014-05-20_11-01-23_094959634447_rgbf000051-resize_6/003338_2014-05-20_11-01-23_094959634447_rgbf000051-resize_6-target.png,125,1.693,0.0,2288,125,meters,jsons/VE125_randls_1.json,612489,777883,35,Woman
