,subjID,experimentName,versionName,sequenceName,url,selected_row,windowWidth,windowHeight,screenWidth,screenHeight,startDate,startTime,trial,stimulus,duration,actual_depth,depth_estimate,trial_RT,log_sceneDuration,unitSelection,seq_filepath,experimentTime,totalTime,age,gender
0,507507,DepthScenes,duration_manipulation_targetAtFixation,jsons/v1_VE250_randls_10_rotated.json,http://54.235.29.9/FacialAge/BNav_EC2/DepthDuration/v2_depth_duration_MTurk/v2_DepthDuration_HTML.html#145,145,1920,937,1920,1080,8-20-2022,11-13-52,1,depth_duration_stimuli/003423_2014-05-21_10-23-26_094959634447_rgbf002665-resize_2/003423_2014-05-21_10-23-26_094959634447_rgbf002665-resize_2-target.png,250,3.2575,6.5,3306,250,feet,jsons/v1_VE250_randls_10_rotated.json,576575,711052,33,Man
1,507507,DepthScenes,duration_manipulation_targetAtFixation,jsons/v1_VE250_randls_10_rotated.json,http://54.235.29.9/FacialAge/BNav_EC2/DepthDuration/v2_depth_duration_MTurk/v2_DepthDuration_HTML.html#145,145,1920,937,1920,1080,8-20-2022,11-13-52,2,depth_duration_stimuli/002905_2014-06-03_18-04-43_094959634447_rgbf000151-resize_2/002905_2014-06-03_18-04-43_094959634447_rgbf000151-resize_2-target.png,250,2.0295,1.8,3359,253,feet,jsons/v1_VE250_randls_10_rotated.json,576575,711052,33,Man
2,507507,DepthScenes,duration_manipulation_targetAtFixation,jsons/v1_VE250_randls_10_rotated.json,http://54.235.29.9/FacialAge/BNav_EC2/DepthDuration/v2_depth_duration_MTurk/v2_DepthDuration_HTML.html#145,145,1920,937,1920,1080,8-20-2022,11-13-52,3,depth_duration_stimuli/003495_2014-05-21_16-01-51_094959634447_rgbf000100-resize_3/003495_2014-05-21_16-01-51_094959634447_rgbf000100-resize_3-target.png,250,1.6255,1.4,3018,250,feet,jsons/v1_VE250_randls_10_rotated.json,576575,711052,33,Man
3,507507,DepthScenes,duration_manipulation_targetAtFixation,jsons/v1_VE250_randls_10_rotated.json,http://54.235.29.9/FacialAge/BNav_EC2/DepthDuration/v2_depth_duration_MTurk/v2_DepthDuration_HTML.html#145,145,1920,937,1920,1080,8-20-2022,11-13-52,4,depth_duration_stimuli/001244_2014-06-17_16-47-45_260595134347_rgbf000030-resize_4/001244_2014-06-17_16-47-45_260595134347_rgbf000030-resize_4-target.png,250,2.0425,1.6,3710,249,feet,jsons/v1_VE250_randls_10_rotated.json,576575,711052,33,Man
4,507507,DepthScenes,duration_manipulation_targetAtFixation,jsons/v1_VE250_randls_10_rotated.json,http://54.235.29.9/FacialAge/BNav_EC2/DepthDuration/v2_depth_duration_MTurk/v2_DepthDuration_HTML.html#145,145,1920,937,1920,1080,8-20-2022,11-13-52,5,depth_duration_stimuli/002545_2014-06-24_13-38-53_094959634447_rgbf000080-resize_4/002545_2014-06-24_13-38-53_094959634447_rgbf000080-resize_4-target.png,250,1.9205,2.3,3320,235,feet,jsons/v1_VE250_randls_10_rotated.json,576575,711052,33,Man
5,507507,DepthScenes,duration_manipulation_targetAtFixation,jsons/v1_VE250_randls_10_rotated.json,http://54.235.29.9/FacialAge/BNav_EC2/DepthDuration/v2_depth_duration_MTurk/v2_DepthDuration_HTML.html#145,145,1920,937,1920,1080,8-20-2022,11-13-52,6,depth_duration_stimuli/001092_2014-06-15_17-34-58_260595134347_rgbf000171-resize_3/001092_2014-06-15_17-34-58_260595134347_rgbf000171-resize_3-target.png,250,2.6935,3.2,3642,264,feet,jsons/v1_VE250_randls_10_rotated.json,576575,711052,33,Man
6,507507,DepthScenes,duration_manipulation_targetAtFixation,jsons/v1_VE250_randls_10_rotated.json,http://54.235.29.9/FacialAge/BNav_EC2/DepthDuration/v2_depth_duration_MTurk/v2_DepthDuration_HTML.html#145,145,1920,937,1920,1080,8-20-2022,11-13-52,7,depth_duration_stimuli/001136_2014-06-17_15-19-41_260595134347_rgbf000076-resize_3/001136_2014-06-17_15-19-41_260595134347_rgbf000076-resize_3-target.png,250,1.8655,3.0,2318,252,feet,jsons/v1_VE250_randls_10_rotated.json,576575,711052,33,Man
7,507507,DepthScenes,duration_manipulation_targetAtFixation,jsons/v1_VE250_randls_10_rotated.json,http://54.235.29.9/FacialAge/BNav_EC2/DepthDuration/v2_depth_duration_MTurk/v2_DepthDuration_HTML.html#145,145,1920,937,1920,1080,8-20-2022,11-13-52,8,depth_duration_stimuli/001164_2014-06-17_15-35-46_260595134347_rgbf000085-resize_3/001164_2014-06-17_15-35-46_260595134347_rgbf000085-resize_3-target.png,250,2.354,2.5,2938,250,feet,jsons/v1_VE250_randls_10_rotated.json,576575,711052,33,Man
8,507507,DepthScenes,duration_manipulation_targetAtFixation,jsons/v1_VE250_randls_10_rotated.json,http://54.235.29.9/FacialAge/BNav_EC2/DepthDuration/v2_depth_duration_MTurk/v2_DepthDuration_HTML.html#145,145,1920,937,1920,1080,8-20-2022,11-13-52,9,depth_duration_stimuli/003490_2014-05-21_15-50-11_094959634447_rgbf000101-resize_3/003490_2014-05-21_15-50-11_094959634447_rgbf000101-resize_3-target.png,250,3.6445,7.7,4367,251,feet,jsons/v1_VE250_randls_10_rotated.json,576575,711052,33,Man
9,507507,DepthScenes,duration_manipulation_targetAtFixation,jsons/v1_VE250_randls_10_rotated.json,http://54.235.29.9/FacialAge/BNav_EC2/DepthDuration/v2_depth_duration_MTurk/v2_DepthDuration_HTML.html#145,145,1920,937,1920,1080,8-20-2022,11-13-52,10,depth_duration_stimuli/001175_2014-06-17_15-45-55_260595134347_rgbf000129-resize_4/001175_2014-06-17_15-45-55_260595134347_rgbf000129-resize_4-target.png,250,4.255,10.2,3576,236,feet,jsons/v1_VE250_randls_10_rotated.json,576575,711052,33,Man
10,507507,DepthScenes,duration_manipulation_targetAtFixation,jsons/v1_VE250_randls_10_rotated.json,http://54.235.29.9/FacialAge/BNav_EC2/DepthDuration/v2_depth_duration_MTurk/v2_DepthDuration_HTML.html#145,145,1920,937,1920,1080,8-20-2022,11-13-52,11,depth_duration_stimuli/000137_2014-05-20_17-04-49_260595134347_rgbf000120-resize_1/000137_2014-05-20_17-04-49_260595134347_rgbf000120-resize_1-target.png,250,3.786,4.0,2748,264,feet,jsons/v1_VE250_randls_10_rotated.json,576575,711052,33,Man
11,507507,DepthScenes,duration_manipulation_targetAtFixation,jsons/v1_VE250_randls_10_rotated.json,http://54.235.29.9/FacialAge/BNav_EC2/DepthDuration/v2_depth_duration_MTurk/v2_DepthDuration_HTML.html#145,145,1920,937,1920,1080,8-20-2022,11-13-52,12,depth_duration_stimuli/000736_2014-06-08_18-24-15_260595134347_rgbf000206-resize_3/000736_2014-06-08_18-24-15_260595134347_rgbf000206-resize_3-target.png,250,3.515,6.5,3594,245,feet,jsons/v1_VE250_randls_10_rotated.json,576575,711052,33,Man
12,507507,DepthScenes,duration_manipulation_targetAtFixation,jsons/v1_VE250_randls_10_rotated.json,http://54.235.29.9/FacialAge/BNav_EC2/DepthDuration/v2_depth_duration_MTurk/v2_DepthDuration_HTML.html#145,145,1920,937,1920,1080,8-20-2022,11-13-52,13,depth_duration_stimuli/002340_2014-06-28_20-05-46_260595134347_rgbf000113-resize_0/002340_2014-06-28_20-05-46_260595134347_rgbf000113-resize_0-target.png,250,2.4735,5.0,3797,250,feet,jsons/v1_VE250_randls_10_rotated.json,576575,711052,33,Man
13,507507,DepthScenes,duration_manipulation_targetAtFixation,jsons/v1_VE250_randls_10_rotated.json,http://54.235.29.9/FacialAge/BNav_EC2/DepthDuration/v2_depth_duration_MTurk/v2_DepthDuration_HTML.html#145,145,1920,937,1920,1080,8-20-2022,11-13-52,14,depth_duration_stimuli/001016_2014-06-09_16-16-10_260595134347_rgbf000112-resize_5/001016_2014-06-09_16-16-10_260595134347_rgbf000112-resize_5-target.png,250,1.6565,3.5,3388,240,feet,jsons/v1_VE250_randls_10_rotated.json,576575,711052,33,Man
14,507507,DepthScenes,duration_manipulation_targetAtFixation,jsons/v1_VE250_randls_10_rotated.json,http://54.235.29.9/FacialAge/BNav_EC2/DepthDuration/v2_depth_duration_MTurk/v2_DepthDuration_HTML.html#145,145,1920,937,1920,1080,8-20-2022,11-13-52,15,depth_duration_stimuli/001584_2014-06-20_11-07-43_260595134347_rgbf000002-resize_1/001584_2014-06-20_11-07-43_260595134347_rgbf000002-resize_1-target.png,250,3.53,5.5,3381,245,feet,jsons/v1_VE250_randls_10_rotated.json,576575,711052,33,Man
15,507507,DepthScenes,duration_manipulation_targetAtFixation,jsons/v1_VE250_randls_10_rotated.json,http://54.235.29.9/FacialAge/BNav_EC2/DepthDuration/v2_depth_duration_MTurk/v2_DepthDuration_HTML.html#145,145,1920,937,1920,1080,8-20-2022,11-13-52,16,depth_duration_stimuli/003621_2014-05-23_18-06-08_094959634447_rgbf000101-resize_1/003621_2014-05-23_18-06-08_094959634447_rgbf000101-resize_1-target.png,250,3.9835,12.0,2981,252,feet,jsons/v1_VE250_randls_10_rotated.json,576575,711052,33,Man
16,507507,DepthScenes,duration_manipulation_targetAtFixation,jsons/v1_VE250_randls_10_rotated.json,http://54.235.29.9/FacialAge/BNav_EC2/DepthDuration/v2_depth_duration_MTurk/v2_DepthDuration_HTML.html#145,145,1920,937,1920,1080,8-20-2022,11-13-52,17,depth_duration_stimuli/002103_2014-06-25_20-00-40_260595134347_rgbf000049-resize_0/002103_2014-06-25_20-00-40_260595134347_rgbf000049-resize_0-target.png,250,4.105,8.0,4085,256,feet,jsons/v1_VE250_randls_10_rotated.json,576575,711052,33,Man
17,507507,DepthScenes,duration_manipulation_targetAtFixation,jsons/v1_VE250_randls_10_rotated.json,http://54.235.29.9/FacialAge/BNav_EC2/DepthDuration/v2_depth_duration_MTurk/v2_DepthDuration_HTML.html#145,145,1920,937,1920,1080,8-20-2022,11-13-52,18,depth_duration_stimuli/002039_2014-06-24_20-22-38_260595134347_rgbf000084-resize_1/002039_2014-06-24_20-22-38_260595134347_rgbf000084-resize_1-target.png,250,4.408,11.0,2719,250,feet,jsons/v1_VE250_randls_10_rotated.json,576575,711052,33,Man
18,507507,DepthScenes,duration_manipulation_targetAtFixation,jsons/v1_VE250_randls_10_rotated.json,http://54.235.29.9/FacialAge/BNav_EC2/DepthDuration/v2_depth_duration_MTurk/v2_DepthDuration_HTML.html#145,145,1920,937,1920,1080,8-20-2022,11-13-52,19,depth_duration_stimuli/001498_2014-06-19_17-45-14_260595134347_rgbf000129-resize_4/001498_2014-06-19_17-45-14_260595134347_rgbf000129-resize-original.jpg,250,1.4075,0.0,2183,254,feet,jsons/v1_VE250_randls_10_rotated.json,576575,711052,33,Man
19,507507,DepthScenes,duration_manipulation_targetAtFixation,jsons/v1_VE250_randls_10_rotated.json,http://54.235.29.9/FacialAge/BNav_EC2/DepthDuration/v2_depth_duration_MTurk/v2_DepthDuration_HTML.html#145,145,1920,937,1920,1080,8-20-2022,11-13-52,20,depth_duration_stimuli/002660_2014-06-13_15-44-18_094959634447_rgbf001878-resize_2/002660_2014-06-13_15-44-18_094959634447_rgbf001878-resize_2-target.png,250,3.576,6.5,3367,244,feet,jsons/v1_VE250_randls_10_rotated.json,576575,711052,33,Man
20,507507,DepthScenes,duration_manipulation_targetAtFixation,jsons/v1_VE250_randls_10_rotated.json,http://54.235.29.9/FacialAge/BNav_EC2/DepthDuration/v2_depth_duration_MTurk/v2_DepthDuration_HTML.html#145,145,1920,937,1920,1080,8-20-2022,11-13-52,21,depth_duration_stimuli/002153_2014-06-25_21-27-18_260595134347_rgbf000038-resize_5/002153_2014-06-25_21-27-18_260595134347_rgbf000038-resize_5-target.png,250,2.505,4.0,10294,250,feet,jsons/v1_VE250_randls_10_rotated.json,576575,711052,33,Man
21,507507,DepthScenes,duration_manipulation_targetAtFixation,jsons/v1_VE250_randls_10_rotated.json,http://54.235.29.9/FacialAge/BNav_EC2/DepthDuration/v2_depth_duration_MTurk/v2_DepthDuration_HTML.html#145,145,1920,937,1920,1080,8-20-2022,11-13-52,22,depth_duration_stimuli/002209_2014-06-28_18-36-10_260595134347_rgbf000051-resize_1/002209_2014-06-28_18-36-10_260595134347_rgbf000051-resize_1-target.png,250,2.057,2.0,3171,251,feet,jsons/v1_VE250_randls_10_rotated.json,576575,711052,33,Man
22,507507,DepthScenes,duration_manipulation_targetAtFixation,jsons/v1_VE250_randls_10_rotated.json,http://54.235.29.9/FacialAge/BNav_EC2/DepthDuration/v2_depth_duration_MTurk/v2_DepthDuration_HTML.html#145,145,1920,937,1920,1080,8-20-2022,11-13-52,23,depth_duration_stimuli/002763_2014-06-22_19-13-10_094959634447_rgbf000075-resize_4/002763_2014-06-22_19-13-10_094959634447_rgbf000075-resize_4-target.png,250,1.68375,2.7,3833,248,feet,jsons/v1_VE250_randls_10_rotated.json,576575,711052,33,Man
23,507507,DepthScenes,duration_manipulation_targetAtFixation,jsons/v1_VE250_randls_10_rotated.json,http://54.235.29.9/FacialAge/BNav_EC2/DepthDuration/v2_depth_duration_MTurk/v2_DepthDuration_HTML.html#145,145,1920,937,1920,1080,8-20-2022,11-13-52,24,depth_duration_stimuli/002568_2014-06-24_13-59-21_094959634447_rgbf000062-resize_4/002568_2014-06-24_13-59-21_094959634447_rgbf000062-resize_4-target.png,250,3.015,4.0,4902,250,feet,jsons/v1_VE250_randls_10_rotated.json,576575,711052,33,Man
24,507507,DepthScenes,duration_manipulation_targetAtFixation,jsons/v1_VE250_randls_10_rotated.json,http://54.235.29.9/FacialAge/BNav_EC2/DepthDuration/v2_depth_duration_MTurk/v2_DepthDuration_HTML.html#145,145,1920,937,1920,1080,8-20-2022,11-13-52,25,depth_duration_stimuli/003492_2014-05-21_15-50-55_094959634447_rgbf000828-resize_1/003492_2014-05-21_15-50-55_094959634447_rgbf000828-resize_1-target.png,250,4.06875,7.0,3021,254,feet,jsons/v1_VE250_randls_10_rotated.json,576575,711052,33,Man
25,507507,DepthScenes,duration_manipulation_targetAtFixation,jsons/v1_VE250_randls_10_rotated.json,http://54.235.29.9/FacialAge/BNav_EC2/DepthDuration/v2_depth_duration_MTurk/v2_DepthDuration_HTML.html#145,145,1920,937,1920,1080,8-20-2022,11-13-52,26,depth_duration_stimuli/003079_2014-06-15_15-18-20_094959634447_rgbf000152-resize_8/003079_2014-06-15_15-18-20_094959634447_rgbf000152-resize_8-target.png,250,2.8775,6.0,2929,260,feet,jsons/v1_VE250_randls_10_rotated.json,576575,711052,33,Man
26,507507,DepthScenes,duration_manipulation_targetAtFixation,jsons/v1_VE250_randls_10_rotated.json,http://54.235.29.9/FacialAge/BNav_EC2/DepthDuration/v2_depth_duration_MTurk/v2_DepthDuration_HTML.html#145,145,1920,937,1920,1080,8-20-2022,11-13-52,27,depth_duration_stimuli/000506_2014-06-08_23-21-00_260595134347_rgbf000070-resize_7/000506_2014-06-08_23-21-00_260595134347_rgbf000070-resize_7-target.png,250,4.0585,10.0,3309,253,feet,jsons/v1_VE250_randls_10_rotated.json,576575,711052,33,Man
27,507507,DepthScenes,duration_manipulation_targetAtFixation,jsons/v1_VE250_randls_10_rotated.json,http://54.235.29.9/FacialAge/BNav_EC2/DepthDuration/v2_depth_duration_MTurk/v2_DepthDuration_HTML.html#145,145,1920,937,1920,1080,8-20-2022,11-13-52,28,depth_duration_stimuli/003129_2014-05-12_10-48-10_094959634447_rgbf000100-resize_0/003129_2014-05-12_10-48-10_094959634447_rgbf000100-resize_0-target.png,250,4.9305,6.5,4083,254,feet,jsons/v1_VE250_randls_10_rotated.json,576575,711052,33,Man
28,507507,DepthScenes,duration_manipulation_targetAtFixation,jsons/v1_VE250_randls_10_rotated.json,http://54.235.29.9/FacialAge/BNav_EC2/DepthDuration/v2_depth_duration_MTurk/v2_DepthDuration_HTML.html#145,145,1920,937,1920,1080,8-20-2022,11-13-52,29,depth_duration_stimuli/000414_2014-06-04_19-49-13_260595134347_rgbf000044-resize_0/000414_2014-06-04_19-49-13_260595134347_rgbf000044-resize_0-target.png,250,4.329,13.0,3289,237,feet,jsons/v1_VE250_randls_10_rotated.json,576575,711052,33,Man
29,507507,DepthScenes,duration_manipulation_targetAtFixation,jsons/v1_VE250_randls_10_rotated.json,http://54.235.29.9/FacialAge/BNav_EC2/DepthDuration/v2_depth_duration_MTurk/v2_DepthDuration_HTML.html#145,145,1920,937,1920,1080,8-20-2022,11-13-52,30,depth_duration_stimuli/002072_2014-06-24_21-48-06_260595134347_rgbf000115-resize_0/002072_2014-06-24_21-48-06_260595134347_rgbf000115-resize-original.jpg,250,4.702,0.0,2130,247,feet,jsons/v1_VE250_randls_10_rotated.json,576575,711052,33,Man
30,507507,DepthScenes,duration_manipulation_targetAtFixation,jsons/v1_VE250_randls_10_rotated.json,http://54.235.29.9/FacialAge/BNav_EC2/DepthDuration/v2_depth_duration_MTurk/v2_DepthDuration_HTML.html#145,145,1920,937,1920,1080,8-20-2022,11-13-52,31,depth_duration_stimuli/000780_2014-06-08_22-28-29_260595134347_rgbf000126-resize_1/000780_2014-06-08_22-28-29_260595134347_rgbf000126-resize_1-target.png,250,3.3825,6.0,2479,248,feet,jsons/v1_VE250_randls_10_rotated.json,576575,711052,33,Man
31,507507,DepthScenes,duration_manipulation_targetAtFixation,jsons/v1_VE250_randls_10_rotated.json,http://54.235.29.9/FacialAge/BNav_EC2/DepthDuration/v2_depth_duration_MTurk/v2_DepthDuration_HTML.html#145,145,1920,937,1920,1080,8-20-2022,11-13-52,32,depth_duration_stimuli/002445_2014-06-28_20-32-16_260595134347_rgbf000029-resize_4/002445_2014-06-28_20-32-16_260595134347_rgbf000029-resize_4-target.png,250,2.5315,3.0,3220,253,feet,jsons/v1_VE250_randls_10_rotated.json,576575,711052,33,Man
32,507507,DepthScenes,duration_manipulation_targetAtFixation,jsons/v1_VE250_randls_10_rotated.json,http://54.235.29.9/FacialAge/BNav_EC2/DepthDuration/v2_depth_duration_MTurk/v2_DepthDuration_HTML.html#145,145,1920,937,1920,1080,8-20-2022,11-13-52,33,depth_duration_stimuli/002750_2014-06-22_19-08-03_094959634447_rgbf000094-resize_4/002750_2014-06-22_19-08-03_094959634447_rgbf000094-resize_4-target.png,250,2.354,4.0,3628,264,feet,jsons/v1_VE250_randls_10_rotated.json,576575,711052,33,Man
33,507507,DepthScenes,duration_manipulation_targetAtFixation,jsons/v1_VE250_randls_10_rotated.json,http://54.235.29.9/FacialAge/BNav_EC2/DepthDuration/v2_depth_duration_MTurk/v2_DepthDuration_HTML.html#145,145,1920,937,1920,1080,8-20-2022,11-13-52,34,depth_duration_stimuli/002549_2014-06-24_13-41-39_094959634447_rgbf000022-resize_3/002549_2014-06-24_13-41-39_094959634447_rgbf000022-resize_3-target.png,250,1.476,1.8,3402,251,feet,jsons/v1_VE250_randls_10_rotated.json,576575,711052,33,Man
34,507507,DepthScenes,duration_manipulation_targetAtFixation,jsons/v1_VE250_randls_10_rotated.json,http://54.235.29.9/FacialAge/BNav_EC2/DepthDuration/v2_depth_duration_MTurk/v2_DepthDuration_HTML.html#145,145,1920,937,1920,1080,8-20-2022,11-13-52,35,depth_duration_stimuli/001235_2014-06-17_16-37-36_260595134347_rgbf000084-resize_4/001235_2014-06-17_16-37-36_260595134347_rgbf000084-resize_4-target.png,250,3.6605,4.8,3846,250,feet,jsons/v1_VE250_randls_10_rotated.json,576575,711052,33,Man
35,507507,DepthScenes,duration_manipulation_targetAtFixation,jsons/v1_VE250_randls_10_rotated.json,http://54.235.29.9/FacialAge/BNav_EC2/DepthDuration/v2_depth_duration_MTurk/v2_DepthDuration_HTML.html#145,145,1920,937,1920,1080,8-20-2022,11-13-52,36,depth_duration_stimuli/000788_2014-06-08_22-34-36_260595134347_rgbf000131-resize_1/000788_2014-06-08_22-34-36_260595134347_rgbf000131-resize_1-target.png,250,3.359,3.5,2942,235,feet,jsons/v1_VE250_randls_10_rotated.json,576575,711052,33,Man
36,507507,DepthScenes,duration_manipulation_targetAtFixation,jsons/v1_VE250_randls_10_rotated.json,http://54.235.29.9/FacialAge/BNav_EC2/DepthDuration/v2_depth_duration_MTurk/v2_DepthDuration_HTML.html#145,145,1920,937,1920,1080,8-20-2022,11-13-52,37,depth_duration_stimuli/002995_2014-06-15_12-31-26_094959634447_rgbf000150-resize_1/002995_2014-06-15_12-31-26_094959634447_rgbf000150-resize_1-target.png,250,3.8360000000000003,7.5,3931,251,feet,jsons/v1_VE250_randls_10_rotated.json,576575,711052,33,Man
37,507507,DepthScenes,duration_manipulation_targetAtFixation,jsons/v1_VE250_randls_10_rotated.json,http://54.235.29.9/FacialAge/BNav_EC2/DepthDuration/v2_depth_duration_MTurk/v2_DepthDuration_HTML.html#145,145,1920,937,1920,1080,8-20-2022,11-13-52,38,depth_duration_stimuli/002748_2014-06-22_19-07-22_094959634447_rgbf000078-resize_1/002748_2014-06-22_19-07-22_094959634447_rgbf000078-resize_1-target.png,250,4.6705,14.0,3006,251,feet,jsons/v1_VE250_randls_10_rotated.json,576575,711052,33,Man
38,507507,DepthScenes,duration_manipulation_targetAtFixation,jsons/v1_VE250_randls_10_rotated.json,http://54.235.29.9/FacialAge/BNav_EC2/DepthDuration/v2_depth_duration_MTurk/v2_DepthDuration_HTML.html#145,145,1920,937,1920,1080,8-20-2022,11-13-52,39,depth_duration_stimuli/000943_2014-06-09_19-31-07_260595134347_rgbf000128-resize_1/000943_2014-06-09_19-31-07_260595134347_rgbf000128-resize_1-target.png,250,1.9765,2.0,1843,252,feet,jsons/v1_VE250_randls_10_rotated.json,576575,711052,33,Man
39,507507,DepthScenes,duration_manipulation_targetAtFixation,jsons/v1_VE250_randls_10_rotated.json,http://54.235.29.9/FacialAge/BNav_EC2/DepthDuration/v2_depth_duration_MTurk/v2_DepthDuration_HTML.html#145,145,1920,937,1920,1080,8-20-2022,11-13-52,40,depth_duration_stimuli/003070_2014-06-15_14-58-27_094959634447_rgbf000150-resize_3/003070_2014-06-15_14-58-27_094959634447_rgbf000150-resize_3-target.png,250,2.9415,3.5,3333,249,feet,jsons/v1_VE250_randls_10_rotated.json,576575,711052,33,Man
40,507507,DepthScenes,duration_manipulation_targetAtFixation,jsons/v1_VE250_randls_10_rotated.json,http://54.235.29.9/FacialAge/BNav_EC2/DepthDuration/v2_depth_duration_MTurk/v2_DepthDuration_HTML.html#145,145,1920,937,1920,1080,8-20-2022,11-13-52,41,depth_duration_stimuli/002805_2014-06-22_19-54-03_094959634447_rgbf000079-resize_1/002805_2014-06-22_19-54-03_094959634447_rgbf000079-resize_1-target.png,250,3.1439999999999997,6.5,2799,249,feet,jsons/v1_VE250_randls_10_rotated.json,576575,711052,33,Man
41,507507,DepthScenes,duration_manipulation_targetAtFixation,jsons/v1_VE250_randls_10_rotated.json,http://54.235.29.9/FacialAge/BNav_EC2/DepthDuration/v2_depth_duration_MTurk/v2_DepthDuration_HTML.html#145,145,1920,937,1920,1080,8-20-2022,11-13-52,42,depth_duration_stimuli/000906_2014-06-08_13-35-43_260595134347_rgbf000155-resize_1/000906_2014-06-08_13-35-43_260595134347_rgbf000155-resize_1-target.png,250,2.8489999999999998,8.8,5109,251,feet,jsons/v1_VE250_randls_10_rotated.json,576575,711052,33,Man
42,507507,DepthScenes,duration_manipulation_targetAtFixation,jsons/v1_VE250_randls_10_rotated.json,http://54.235.29.9/FacialAge/BNav_EC2/DepthDuration/v2_depth_duration_MTurk/v2_DepthDuration_HTML.html#145,145,1920,937,1920,1080,8-20-2022,11-13-52,43,depth_duration_stimuli/002344_2014-06-28_20-06-29_260595134347_rgbf000030-resize_1/002344_2014-06-28_20-06-29_260595134347_rgbf000030-resize_1-target.png,250,1.5795,1.0,2739,252,feet,jsons/v1_VE250_randls_10_rotated.json,576575,711052,33,Man
43,507507,DepthScenes,duration_manipulation_targetAtFixation,jsons/v1_VE250_randls_10_rotated.json,http://54.235.29.9/FacialAge/BNav_EC2/DepthDuration/v2_depth_duration_MTurk/v2_DepthDuration_HTML.html#145,145,1920,937,1920,1080,8-20-2022,11-13-52,44,depth_duration_stimuli/002725_2014-06-22_11-47-51_094959634447_rgbf000070-resize_1/002725_2014-06-22_11-47-51_094959634447_rgbf000070-resize_1-target.png,250,2.195,2.54,3672,251,feet,jsons/v1_VE250_randls_10_rotated.json,576575,711052,33,Man
44,507507,DepthScenes,duration_manipulation_targetAtFixation,jsons/v1_VE250_randls_10_rotated.json,http://54.235.29.9/FacialAge/BNav_EC2/DepthDuration/v2_depth_duration_MTurk/v2_DepthDuration_HTML.html#145,145,1920,937,1920,1080,8-20-2022,11-13-52,45,depth_duration_stimuli/000734_2014-06-08_17-39-11_260595134347_rgbf000128-resize_2/000734_2014-06-08_17-39-11_260595134347_rgbf000128-resize_2-target.png,250,4.098,3.5,3223,245,feet,jsons/v1_VE250_randls_10_rotated.json,576575,711052,33,Man
45,507507,DepthScenes,duration_manipulation_targetAtFixation,jsons/v1_VE250_randls_10_rotated.json,http://54.235.29.9/FacialAge/BNav_EC2/DepthDuration/v2_depth_duration_MTurk/v2_DepthDuration_HTML.html#145,145,1920,937,1920,1080,8-20-2022,11-13-52,46,depth_duration_stimuli/000739_2014-06-08_18-45-58_260595134347_rgbf000068-resize_1/000739_2014-06-08_18-45-58_260595134347_rgbf000068-resize_1-target.png,250,3.534,5.0,4290,251,feet,jsons/v1_VE250_randls_10_rotated.json,576575,711052,33,Man
46,507507,DepthScenes,duration_manipulation_targetAtFixation,jsons/v1_VE250_randls_10_rotated.json,http://54.235.29.9/FacialAge/BNav_EC2/DepthDuration/v2_depth_duration_MTurk/v2_DepthDuration_HTML.html#145,145,1920,937,1920,1080,8-20-2022,11-13-52,47,depth_duration_stimuli/001650_2014-06-20_12-09-00_260595134347_rgbf000087-resize_3/001650_2014-06-20_12-09-00_260595134347_rgbf000087-resize_3-target.png,250,1.9505,0.5,3172,250,feet,jsons/v1_VE250_randls_10_rotated.json,576575,711052,33,Man
47,507507,DepthScenes,duration_manipulation_targetAtFixation,jsons/v1_VE250_randls_10_rotated.json,http://54.235.29.9/FacialAge/BNav_EC2/DepthDuration/v2_depth_duration_MTurk/v2_DepthDuration_HTML.html#145,145,1920,937,1920,1080,8-20-2022,11-13-52,48,depth_duration_stimuli/000682_2014-06-08_23-14-58_260595134347_rgbf000041-resize_5/000682_2014-06-08_23-14-58_260595134347_rgbf000041-resize_5-target.png,250,2.7239999999999998,3.5,4501,249,feet,jsons/v1_VE250_randls_10_rotated.json,576575,711052,33,Man
48,507507,DepthScenes,duration_manipulation_targetAtFixation,jsons/v1_VE250_randls_10_rotated.json,http://54.235.29.9/FacialAge/BNav_EC2/DepthDuration/v2_depth_duration_MTurk/v2_DepthDuration_HTML.html#145,145,1920,937,1920,1080,8-20-2022,11-13-52,49,depth_duration_stimuli/001170_2014-06-17_15-43-44_260595134347_rgbf000096-resize_6/001170_2014-06-17_15-43-44_260595134347_rgbf000096-resize-original.jpg,250,1.1909999999999998,0.0,2441,251,feet,jsons/v1_VE250_randls_10_rotated.json,576575,711052,33,Man
49,507507,DepthScenes,duration_manipulation_targetAtFixation,jsons/v1_VE250_randls_10_rotated.json,http://54.235.29.9/FacialAge/BNav_EC2/DepthDuration/v2_depth_duration_MTurk/v2_DepthDuration_HTML.html#145,145,1920,937,1920,1080,8-20-2022,11-13-52,50,depth_duration_stimuli/002467_2014-06-28_20-38-07_260595134347_rgbf000026-resize_2/002467_2014-06-28_20-38-07_260595134347_rgbf000026-resize_2-target.png,250,4.742,6.0,3172,260,feet,jsons/v1_VE250_randls_10_rotated.json,576575,711052,33,Man
50,507507,DepthScenes,duration_manipulation_targetAtFixation,jsons/v1_VE250_randls_10_rotated.json,http://54.235.29.9/FacialAge/BNav_EC2/DepthDuration/v2_depth_duration_MTurk/v2_DepthDuration_HTML.html#145,145,1920,937,1920,1080,8-20-2022,11-13-52,51,depth_duration_stimuli/002570_2014-06-24_13-59-54_094959634447_rgbf000059-resize_0/002570_2014-06-24_13-59-54_094959634447_rgbf000059-resize_0-target.png,250,4.037,5.0,2356,262,feet,jsons/v1_VE250_randls_10_rotated.json,576575,711052,33,Man
51,507507,DepthScenes,duration_manipulation_targetAtFixation,jsons/v1_VE250_randls_10_rotated.json,http://54.235.29.9/FacialAge/BNav_EC2/DepthDuration/v2_depth_duration_MTurk/v2_DepthDuration_HTML.html#145,145,1920,937,1920,1080,8-20-2022,11-13-52,52,depth_duration_stimuli/000502_2014-06-08_23-02-32_260595134347_rgbf000063-resize_4/000502_2014-06-08_23-02-32_260595134347_rgbf000063-resize_4-target.png,250,2.431,2.5,3146,238,feet,jsons/v1_VE250_randls_10_rotated.json,576575,711052,33,Man
52,507507,DepthScenes,duration_manipulation_targetAtFixation,jsons/v1_VE250_randls_10_rotated.json,http://54.235.29.9/FacialAge/BNav_EC2/DepthDuration/v2_depth_duration_MTurk/v2_DepthDuration_HTML.html#145,145,1920,937,1920,1080,8-20-2022,11-13-52,53,depth_duration_stimuli/001199_2014-06-17_16-03-48_260595134347_rgbf000077-resize_0/001199_2014-06-17_16-03-48_260595134347_rgbf000077-resize_0-target.png,250,3.4375,6.5,3361,261,feet,jsons/v1_VE250_randls_10_rotated.json,576575,711052,33,Man
53,507507,DepthScenes,duration_manipulation_targetAtFixation,jsons/v1_VE250_randls_10_rotated.json,http://54.235.29.9/FacialAge/BNav_EC2/DepthDuration/v2_depth_duration_MTurk/v2_DepthDuration_HTML.html#145,145,1920,937,1920,1080,8-20-2022,11-13-52,54,depth_duration_stimuli/003010_2014-06-15_12-54-35_094959634447_rgbf000112-resize_0/003010_2014-06-15_12-54-35_094959634447_rgbf000112-resize_0-target.png,250,3.1185,5.0,2842,249,feet,jsons/v1_VE250_randls_10_rotated.json,576575,711052,33,Man
54,507507,DepthScenes,duration_manipulation_targetAtFixation,jsons/v1_VE250_randls_10_rotated.json,http://54.235.29.9/FacialAge/BNav_EC2/DepthDuration/v2_depth_duration_MTurk/v2_DepthDuration_HTML.html#145,145,1920,937,1920,1080,8-20-2022,11-13-52,55,depth_duration_stimuli/001810_2014-06-26_20-51-35_260595134347_rgbf000040-resize_3/001810_2014-06-26_20-51-35_260595134347_rgbf000040-resize_3-target.png,250,2.2525,2.0,2118,235,feet,jsons/v1_VE250_randls_10_rotated.json,576575,711052,33,Man
55,507507,DepthScenes,duration_manipulation_targetAtFixation,jsons/v1_VE250_randls_10_rotated.json,http://54.235.29.9/FacialAge/BNav_EC2/DepthDuration/v2_depth_duration_MTurk/v2_DepthDuration_HTML.html#145,145,1920,937,1920,1080,8-20-2022,11-13-52,56,depth_duration_stimuli/000854_2014-06-09_19-43-13_260595134347_rgbf000066-resize_0/000854_2014-06-09_19-43-13_260595134347_rgbf000066-resize_0-target.png,250,3.068,1.0,2561,249,feet,jsons/v1_VE250_randls_10_rotated.json,576575,711052,33,Man
56,507507,DepthScenes,duration_manipulation_targetAtFixation,jsons/v1_VE250_randls_10_rotated.json,http://54.235.29.9/FacialAge/BNav_EC2/DepthDuration/v2_depth_duration_MTurk/v2_DepthDuration_HTML.html#145,145,1920,937,1920,1080,8-20-2022,11-13-52,57,depth_duration_stimuli/000758_2014-06-08_22-05-08_260595134347_rgbf000085-resize_0/000758_2014-06-08_22-05-08_260595134347_rgbf000085-resize_0-target.png,250,3.3810000000000002,5.0,3257,255,feet,jsons/v1_VE250_randls_10_rotated.json,576575,711052,33,Man
57,507507,DepthScenes,duration_manipulation_targetAtFixation,jsons/v1_VE250_randls_10_rotated.json,http://54.235.29.9/FacialAge/BNav_EC2/DepthDuration/v2_depth_duration_MTurk/v2_DepthDuration_HTML.html#145,145,1920,937,1920,1080,8-20-2022,11-13-52,58,depth_duration_stimuli/003338_2014-05-20_11-01-23_094959634447_rgbf000051-resize_6/003338_2014-05-20_11-01-23_094959634447_rgbf000051-resize_6-target.png,250,1.693,1.2,4418,252,feet,jsons/v1_VE250_randls_10_rotated.json,576575,711052,33,Man
58,507507,DepthScenes,duration_manipulation_targetAtFixation,jsons/v1_VE250_randls_10_rotated.json,http://54.235.29.9/FacialAge/BNav_EC2/DepthDuration/v2_depth_duration_MTurk/v2_DepthDuration_HTML.html#145,145,1920,937,1920,1080,8-20-2022,11-13-52,59,depth_duration_stimuli/002509_2014-06-24_13-19-22_094959634447_rgbf000077-resize_0/002509_2014-06-24_13-19-22_094959634447_rgbf000077-resize_0-target.png,250,1.3065,1.4,3942,250,feet,jsons/v1_VE250_randls_10_rotated.json,576575,711052,33,Man
59,507507,DepthScenes,duration_manipulation_targetAtFixation,jsons/v1_VE250_randls_10_rotated.json,http://54.235.29.9/FacialAge/BNav_EC2/DepthDuration/v2_depth_duration_MTurk/v2_DepthDuration_HTML.html#145,145,1920,937,1920,1080,8-20-2022,11-13-52,60,depth_duration_stimuli/000677_2014-06-08_23-10-32_260595134347_rgbf000158-resize_6/000677_2014-06-08_23-10-32_260595134347_rgbf000158-resize_6-target.png,250,3.556,5.0,4924,248,feet,jsons/v1_VE250_randls_10_rotated.json,576575,711052,33,Man
60,507507,DepthScenes,duration_manipulation_targetAtFixation,jsons/v1_VE250_randls_10_rotated.json,http://54.235.29.9/FacialAge/BNav_EC2/DepthDuration/v2_depth_duration_MTurk/v2_DepthDuration_HTML.html#145,145,1920,937,1920,1080,8-20-2022,11-13-52,61,depth_duration_stimuli/001029_2014-06-08_13-17-57_260595134347_rgbf000065-resize_1/001029_2014-06-08_13-17-57_260595134347_rgbf000065-resize_1-target.png,250,3.0835,3.0,2528,251,feet,jsons/v1_VE250_randls_10_rotated.json,576575,711052,33,Man
61,507507,DepthScenes,duration_manipulation_targetAtFixation,jsons/v1_VE250_randls_10_rotated.json,http://54.235.29.9/FacialAge/BNav_EC2/DepthDuration/v2_depth_duration_MTurk/v2_DepthDuration_HTML.html#145,145,1920,937,1920,1080,8-20-2022,11-13-52,62,depth_duration_stimuli/001447_2014-06-19_17-00-32_260595134347_rgbf000082-resize_5/001447_2014-06-19_17-00-32_260595134347_rgbf000082-resize_5-target.png,250,4.13775,5.0,4067,252,feet,jsons/v1_VE250_randls_10_rotated.json,576575,711052,33,Man
62,507507,DepthScenes,duration_manipulation_targetAtFixation,jsons/v1_VE250_randls_10_rotated.json,http://54.235.29.9/FacialAge/BNav_EC2/DepthDuration/v2_depth_duration_MTurk/v2_DepthDuration_HTML.html#145,145,1920,937,1920,1080,8-20-2022,11-13-52,63,depth_duration_stimuli/000447_2014-06-08_16-15-46_260595134347_rgbf000130-resize_1/000447_2014-06-08_16-15-46_260595134347_rgbf000130-resize_1-target.png,250,4.479,9.0,3259,251,feet,jsons/v1_VE250_randls_10_rotated.json,576575,711052,33,Man
63,507507,DepthScenes,duration_manipulation_targetAtFixation,jsons/v1_VE250_randls_10_rotated.json,http://54.235.29.9/FacialAge/BNav_EC2/DepthDuration/v2_depth_duration_MTurk/v2_DepthDuration_HTML.html#145,145,1920,937,1920,1080,8-20-2022,11-13-52,64,depth_duration_stimuli/000866_2014-06-09_20-45-42_260595134347_rgbf000139-resize_1/000866_2014-06-09_20-45-42_260595134347_rgbf000139-resize_1-target.png,250,3.2155,5.0,2640,251,feet,jsons/v1_VE250_randls_10_rotated.json,576575,711052,33,Man
64,507507,DepthScenes,duration_manipulation_targetAtFixation,jsons/v1_VE250_randls_10_rotated.json,http://54.235.29.9/FacialAge/BNav_EC2/DepthDuration/v2_depth_duration_MTurk/v2_DepthDuration_HTML.html#145,145,1920,937,1920,1080,8-20-2022,11-13-52,65,depth_duration_stimuli/002989_2014-06-15_12-25-03_094959634447_rgbf000150-resize_3/002989_2014-06-15_12-25-03_094959634447_rgbf000150-resize_3-target.png,250,4.1975,7.5,3327,251,feet,jsons/v1_VE250_randls_10_rotated.json,576575,711052,33,Man
65,507507,DepthScenes,duration_manipulation_targetAtFixation,jsons/v1_VE250_randls_10_rotated.json,http://54.235.29.9/FacialAge/BNav_EC2/DepthDuration/v2_depth_duration_MTurk/v2_DepthDuration_HTML.html#145,145,1920,937,1920,1080,8-20-2022,11-13-52,66,depth_duration_stimuli/001540_2014-06-20_17-01-05_260595134347_rgbf000086-resize_2/001540_2014-06-20_17-01-05_260595134347_rgbf000086-resize-original.jpg,250,1.459,0.0,2139,251,feet,jsons/v1_VE250_randls_10_rotated.json,576575,711052,33,Man
66,507507,DepthScenes,duration_manipulation_targetAtFixation,jsons/v1_VE250_randls_10_rotated.json,http://54.235.29.9/FacialAge/BNav_EC2/DepthDuration/v2_depth_duration_MTurk/v2_DepthDuration_HTML.html#145,145,1920,937,1920,1080,8-20-2022,11-13-52,67,depth_duration_stimuli/000635_2014-06-08_16-38-42_260595134347_rgbf000106-resize_1/000635_2014-06-08_16-38-42_260595134347_rgbf000106-resize_1-target.png,250,2.074,3.0,3165,251,feet,jsons/v1_VE250_randls_10_rotated.json,576575,711052,33,Man
67,507507,DepthScenes,duration_manipulation_targetAtFixation,jsons/v1_VE250_randls_10_rotated.json,http://54.235.29.9/FacialAge/BNav_EC2/DepthDuration/v2_depth_duration_MTurk/v2_DepthDuration_HTML.html#145,145,1920,937,1920,1080,8-20-2022,11-13-52,68,depth_duration_stimuli/002279_2014-06-28_18-55-32_260595134347_rgbf000040-resize_5/002279_2014-06-28_18-55-32_260595134347_rgbf000040-resize_5-target.png,250,1.5043333333333,1.5,2765,249,feet,jsons/v1_VE250_randls_10_rotated.json,576575,711052,33,Man
68,507507,DepthScenes,duration_manipulation_targetAtFixation,jsons/v1_VE250_randls_10_rotated.json,http://54.235.29.9/FacialAge/BNav_EC2/DepthDuration/v2_depth_duration_MTurk/v2_DepthDuration_HTML.html#145,145,1920,937,1920,1080,8-20-2022,11-13-52,69,depth_duration_stimuli/002875_2014-06-01_15-19-00_094959634447_rgbf000151-resize_1/002875_2014-06-01_15-19-00_094959634447_rgbf000151-resize_1-target.png,250,1.9675,4.0,8089,253,feet,jsons/v1_VE250_randls_10_rotated.json,576575,711052,33,Man
69,507507,DepthScenes,duration_manipulation_targetAtFixation,jsons/v1_VE250_randls_10_rotated.json,http://54.235.29.9/FacialAge/BNav_EC2/DepthDuration/v2_depth_duration_MTurk/v2_DepthDuration_HTML.html#145,145,1920,937,1920,1080,8-20-2022,11-13-52,70,depth_duration_stimuli/001011_2014-06-08_23-18-54_260595134347_rgbf000044-resize_4/001011_2014-06-08_23-18-54_260595134347_rgbf000044-resize_4-target.png,250,2.4730000000000003,6.0,2647,259,feet,jsons/v1_VE250_randls_10_rotated.json,576575,711052,33,Man
70,507507,DepthScenes,duration_manipulation_targetAtFixation,jsons/v1_VE250_randls_10_rotated.json,http://54.235.29.9/FacialAge/BNav_EC2/DepthDuration/v2_depth_duration_MTurk/v2_DepthDuration_HTML.html#145,145,1920,937,1920,1080,8-20-2022,11-13-52,71,depth_duration_stimuli/003228_2014-05-14_13-42-35_094959634447_rgbf000101-resize_1/003228_2014-05-14_13-42-35_094959634447_rgbf000101-resize_1-target.png,250,1.9680000000000002,2.5,3114,249,feet,jsons/v1_VE250_randls_10_rotated.json,576575,711052,33,Man
71,507507,DepthScenes,duration_manipulation_targetAtFixation,jsons/v1_VE250_randls_10_rotated.json,http://54.235.29.9/FacialAge/BNav_EC2/DepthDuration/v2_depth_duration_MTurk/v2_DepthDuration_HTML.html#145,145,1920,937,1920,1080,8-20-2022,11-13-52,72,depth_duration_stimuli/002600_2014-06-24_14-27-04_094959634447_rgbf000074-resize_2/002600_2014-06-24_14-27-04_094959634447_rgbf000074-resize_2-target.png,250,2.7575,5.0,2366,249,feet,jsons/v1_VE250_randls_10_rotated.json,576575,711052,33,Man
72,507507,DepthScenes,duration_manipulation_targetAtFixation,jsons/v1_VE250_randls_10_rotated.json,http://54.235.29.9/FacialAge/BNav_EC2/DepthDuration/v2_depth_duration_MTurk/v2_DepthDuration_HTML.html#145,145,1920,937,1920,1080,8-20-2022,11-13-52,73,depth_duration_stimuli/000483_2014-06-09_20-41-45_260595134347_rgbf000116-resize_4/000483_2014-06-09_20-41-45_260595134347_rgbf000116-resize_4-target.png,250,1.337,2.0,1851,249,feet,jsons/v1_VE250_randls_10_rotated.json,576575,711052,33,Man
73,507507,DepthScenes,duration_manipulation_targetAtFixation,jsons/v1_VE250_randls_10_rotated.json,http://54.235.29.9/FacialAge/BNav_EC2/DepthDuration/v2_depth_duration_MTurk/v2_DepthDuration_HTML.html#145,145,1920,937,1920,1080,8-20-2022,11-13-52,74,depth_duration_stimuli/000469_2014-06-09_19-42-10_260595134347_rgbf000081-resize_1/000469_2014-06-09_19-42-10_260595134347_rgbf000081-resize_1-target.png,250,1.652,2.0,2568,252,feet,jsons/v1_VE250_randls_10_rotated.json,576575,711052,33,Man
74,507507,DepthScenes,duration_manipulation_targetAtFixation,jsons/v1_VE250_randls_10_rotated.json,http://54.235.29.9/FacialAge/BNav_EC2/DepthDuration/v2_depth_duration_MTurk/v2_DepthDuration_HTML.html#145,145,1920,937,1920,1080,8-20-2022,11-13-52,75,depth_duration_stimuli/000665_2014-06-09_20-42-35_260595134347_rgbf000110-resize_1/000665_2014-06-09_20-42-35_260595134347_rgbf000110-resize_1-target.png,250,3.057,3.5,3337,236,feet,jsons/v1_VE250_randls_10_rotated.json,576575,711052,33,Man
75,507507,DepthScenes,duration_manipulation_targetAtFixation,jsons/v1_VE250_randls_10_rotated.json,http://54.235.29.9/FacialAge/BNav_EC2/DepthDuration/v2_depth_duration_MTurk/v2_DepthDuration_HTML.html#145,145,1920,937,1920,1080,8-20-2022,11-13-52,76,depth_duration_stimuli/001150_2014-06-17_15-27-34_260595134347_rgbf000108-resize_2/001150_2014-06-17_15-27-34_260595134347_rgbf000108-resize_2-target.png,250,4.0325,6.0,3094,241,feet,jsons/v1_VE250_randls_10_rotated.json,576575,711052,33,Man
76,507507,DepthScenes,duration_manipulation_targetAtFixation,jsons/v1_VE250_randls_10_rotated.json,http://54.235.29.9/FacialAge/BNav_EC2/DepthDuration/v2_depth_duration_MTurk/v2_DepthDuration_HTML.html#145,145,1920,937,1920,1080,8-20-2022,11-13-52,77,depth_duration_stimuli/002758_2014-06-22_19-11-20_094959634447_rgbf000128-resize_1/002758_2014-06-22_19-11-20_094959634447_rgbf000128-resize_1-target.png,250,2.555,4.0,2781,249,feet,jsons/v1_VE250_randls_10_rotated.json,576575,711052,33,Man
77,507507,DepthScenes,duration_manipulation_targetAtFixation,jsons/v1_VE250_randls_10_rotated.json,http://54.235.29.9/FacialAge/BNav_EC2/DepthDuration/v2_depth_duration_MTurk/v2_DepthDuration_HTML.html#145,145,1920,937,1920,1080,8-20-2022,11-13-52,78,depth_duration_stimuli/002630_2014-06-24_14-47-50_094959634447_rgbf000055-resize_1/002630_2014-06-24_14-47-50_094959634447_rgbf000055-resize_1-target.png,250,3.0095,12.0,2970,250,feet,jsons/v1_VE250_randls_10_rotated.json,576575,711052,33,Man
78,507507,DepthScenes,duration_manipulation_targetAtFixation,jsons/v1_VE250_randls_10_rotated.json,http://54.235.29.9/FacialAge/BNav_EC2/DepthDuration/v2_depth_duration_MTurk/v2_DepthDuration_HTML.html#145,145,1920,937,1920,1080,8-20-2022,11-13-52,79,depth_duration_stimuli/003048_2014-06-15_13-49-43_094959634447_rgbf000150-resize_1/003048_2014-06-15_13-49-43_094959634447_rgbf000150-resize_1-target.png,250,4.0035,8.0,2533,262,feet,jsons/v1_VE250_randls_10_rotated.json,576575,711052,33,Man
79,507507,DepthScenes,duration_manipulation_targetAtFixation,jsons/v1_VE250_randls_10_rotated.json,http://54.235.29.9/FacialAge/BNav_EC2/DepthDuration/v2_depth_duration_MTurk/v2_DepthDuration_HTML.html#145,145,1920,937,1920,1080,8-20-2022,11-13-52,80,depth_duration_stimuli/002043_2014-06-24_20-29-38_260595134347_rgbf000039-resize_4/002043_2014-06-24_20-29-38_260595134347_rgbf000039-resize_4-target.png,250,2.8435,6.0,5161,252,feet,jsons/v1_VE250_randls_10_rotated.json,576575,711052,33,Man
80,507507,DepthScenes,duration_manipulation_targetAtFixation,jsons/v1_VE250_randls_10_rotated.json,http://54.235.29.9/FacialAge/BNav_EC2/DepthDuration/v2_depth_duration_MTurk/v2_DepthDuration_HTML.html#145,145,1920,937,1920,1080,8-20-2022,11-13-52,81,depth_duration_stimuli/001571_2014-06-20_17-21-32_260595134347_rgbf000089-resize_1/001571_2014-06-20_17-21-32_260595134347_rgbf000089-resize_1-target.png,250,1.86,2.5,3149,234,feet,jsons/v1_VE250_randls_10_rotated.json,576575,711052,33,Man
81,507507,DepthScenes,duration_manipulation_targetAtFixation,jsons/v1_VE250_randls_10_rotated.json,http://54.235.29.9/FacialAge/BNav_EC2/DepthDuration/v2_depth_duration_MTurk/v2_DepthDuration_HTML.html#145,145,1920,937,1920,1080,8-20-2022,11-13-52,82,depth_duration_stimuli/002272_2014-06-28_18-53-56_260595134347_rgbf000067-resize_2/002272_2014-06-28_18-53-56_260595134347_rgbf000067-resize_2-target.png,250,1.138,1.5,2532,250,feet,jsons/v1_VE250_randls_10_rotated.json,576575,711052,33,Man
82,507507,DepthScenes,duration_manipulation_targetAtFixation,jsons/v1_VE250_randls_10_rotated.json,http://54.235.29.9/FacialAge/BNav_EC2/DepthDuration/v2_depth_duration_MTurk/v2_DepthDuration_HTML.html#145,145,1920,937,1920,1080,8-20-2022,11-13-52,83,depth_duration_stimuli/001828_2014-06-26_21-40-03_260595134347_rgbf000024-resize_0/001828_2014-06-26_21-40-03_260595134347_rgbf000024-resize_0-target.png,250,4.8260000000000005,6.0,5817,249,feet,jsons/v1_VE250_randls_10_rotated.json,576575,711052,33,Man
83,507507,DepthScenes,duration_manipulation_targetAtFixation,jsons/v1_VE250_randls_10_rotated.json,http://54.235.29.9/FacialAge/BNav_EC2/DepthDuration/v2_depth_duration_MTurk/v2_DepthDuration_HTML.html#145,145,1920,937,1920,1080,8-20-2022,11-13-52,84,depth_duration_stimuli/000009_2014-05-26_14-32-05_260595134347_rgbf000034-resize_3/000009_2014-05-26_14-32-05_260595134347_rgbf000034-resize_3-target.png,250,3.8715,10.0,2359,251,feet,jsons/v1_VE250_randls_10_rotated.json,576575,711052,33,Man
84,507507,DepthScenes,duration_manipulation_targetAtFixation,jsons/v1_VE250_randls_10_rotated.json,http://54.235.29.9/FacialAge/BNav_EC2/DepthDuration/v2_depth_duration_MTurk/v2_DepthDuration_HTML.html#145,145,1920,937,1920,1080,8-20-2022,11-13-52,85,depth_duration_stimuli/000457_2014-06-08_16-52-43_260595134347_rgbf000199-resize_1/000457_2014-06-08_16-52-43_260595134347_rgbf000199-resize_1-target.png,250,3.6489999999999996,4.0,2488,249,feet,jsons/v1_VE250_randls_10_rotated.json,576575,711052,33,Man
85,507507,DepthScenes,duration_manipulation_targetAtFixation,jsons/v1_VE250_randls_10_rotated.json,http://54.235.29.9/FacialAge/BNav_EC2/DepthDuration/v2_depth_duration_MTurk/v2_DepthDuration_HTML.html#145,145,1920,937,1920,1080,8-20-2022,11-13-52,86,depth_duration_stimuli/000929_2014-06-09_16-33-19_260595134347_rgbf000139-resize_0/000929_2014-06-09_16-33-19_260595134347_rgbf000139-resize_0-target.png,250,2.8680000000000003,6.0,2772,249,feet,jsons/v1_VE250_randls_10_rotated.json,576575,711052,33,Man
86,507507,DepthScenes,duration_manipulation_targetAtFixation,jsons/v1_VE250_randls_10_rotated.json,http://54.235.29.9/FacialAge/BNav_EC2/DepthDuration/v2_depth_duration_MTurk/v2_DepthDuration_HTML.html#145,145,1920,937,1920,1080,8-20-2022,11-13-52,87,depth_duration_stimuli/000709_2014-06-08_13-51-55_260595134347_rgbf000068-resize_3/000709_2014-06-08_13-51-55_260595134347_rgbf000068-resize_3-target.png,250,1.8030000000000002,2.5,2965,251,feet,jsons/v1_VE250_randls_10_rotated.json,576575,711052,33,Man
87,507507,DepthScenes,duration_manipulation_targetAtFixation,jsons/v1_VE250_randls_10_rotated.json,http://54.235.29.9/FacialAge/BNav_EC2/DepthDuration/v2_depth_duration_MTurk/v2_DepthDuration_HTML.html#145,145,1920,937,1920,1080,8-20-2022,11-13-52,88,depth_duration_stimuli/002057_2014-06-24_21-00-13_260595134347_rgbf000120-resize_1/002057_2014-06-24_21-00-13_260595134347_rgbf000120-resize_1-target.png,250,2.967,7.0,2246,253,feet,jsons/v1_VE250_randls_10_rotated.json,576575,711052,33,Man
88,507507,DepthScenes,duration_manipulation_targetAtFixation,jsons/v1_VE250_randls_10_rotated.json,http://54.235.29.9/FacialAge/BNav_EC2/DepthDuration/v2_depth_duration_MTurk/v2_DepthDuration_HTML.html#145,145,1920,937,1920,1080,8-20-2022,11-13-52,89,depth_duration_stimuli/001516_2014-06-20_16-25-09_260595134347_rgbf000076-resize_2/001516_2014-06-20_16-25-09_260595134347_rgbf000076-resize_2-target.png,250,1.7445,3.0,2650,251,feet,jsons/v1_VE250_randls_10_rotated.json,576575,711052,33,Man
89,507507,DepthScenes,duration_manipulation_targetAtFixation,jsons/v1_VE250_randls_10_rotated.json,http://54.235.29.9/FacialAge/BNav_EC2/DepthDuration/v2_depth_duration_MTurk/v2_DepthDuration_HTML.html#145,145,1920,937,1920,1080,8-20-2022,11-13-52,90,depth_duration_stimuli/002118_2014-06-25_20-32-08_260595134347_rgbf000078-resize_1/002118_2014-06-25_20-32-08_260595134347_rgbf000078-resize_1-target.png,250,2.6460000000000004,4.0,2377,248,feet,jsons/v1_VE250_randls_10_rotated.json,576575,711052,33,Man
90,507507,DepthScenes,duration_manipulation_targetAtFixation,jsons/v1_VE250_randls_10_rotated.json,http://54.235.29.9/FacialAge/BNav_EC2/DepthDuration/v2_depth_duration_MTurk/v2_DepthDuration_HTML.html#145,145,1920,937,1920,1080,8-20-2022,11-13-52,91,depth_duration_stimuli/001032_2014-06-08_13-23-17_260595134347_rgbf000021-resize_3/001032_2014-06-08_13-23-17_260595134347_rgbf000021-resize_3-target.png,250,3.2725,6.0,2575,251,feet,jsons/v1_VE250_randls_10_rotated.json,576575,711052,33,Man
91,507507,DepthScenes,duration_manipulation_targetAtFixation,jsons/v1_VE250_randls_10_rotated.json,http://54.235.29.9/FacialAge/BNav_EC2/DepthDuration/v2_depth_duration_MTurk/v2_DepthDuration_HTML.html#145,145,1920,937,1920,1080,8-20-2022,11-13-52,92,depth_duration_stimuli/001059_2014-06-08_21-53-27_260595134347_rgbf000061-resize_4/001059_2014-06-08_21-53-27_260595134347_rgbf000061-resize_4-target.png,250,2.4185,4.0,2742,246,feet,jsons/v1_VE250_randls_10_rotated.json,576575,711052,33,Man
92,507507,DepthScenes,duration_manipulation_targetAtFixation,jsons/v1_VE250_randls_10_rotated.json,http://54.235.29.9/FacialAge/BNav_EC2/DepthDuration/v2_depth_duration_MTurk/v2_DepthDuration_HTML.html#145,145,1920,937,1920,1080,8-20-2022,11-13-52,93,depth_duration_stimuli/001052_2014-06-08_18-24-54_260595134347_rgbf000130-resize_1/001052_2014-06-08_18-24-54_260595134347_rgbf000130-resize_1-target.png,250,4.1045,5.0,2436,248,feet,jsons/v1_VE250_randls_10_rotated.json,576575,711052,33,Man
93,507507,DepthScenes,duration_manipulation_targetAtFixation,jsons/v1_VE250_randls_10_rotated.json,http://54.235.29.9/FacialAge/BNav_EC2/DepthDuration/v2_depth_duration_MTurk/v2_DepthDuration_HTML.html#145,145,1920,937,1920,1080,8-20-2022,11-13-52,94,depth_duration_stimuli/002988_2014-06-15_12-24-20_094959634447_rgbf000150-resize_1/002988_2014-06-15_12-24-20_094959634447_rgbf000150-resize_1-target.png,250,4.7669999999999995,7.0,2603,250,feet,jsons/v1_VE250_randls_10_rotated.json,576575,711052,33,Man
94,507507,DepthScenes,duration_manipulation_targetAtFixation,jsons/v1_VE250_randls_10_rotated.json,http://54.235.29.9/FacialAge/BNav_EC2/DepthDuration/v2_depth_duration_MTurk/v2_DepthDuration_HTML.html#145,145,1920,937,1920,1080,8-20-2022,11-13-52,95,depth_duration_stimuli/001617_2014-06-20_11-35-32_260595134347_rgbf000066-resize_1/001617_2014-06-20_11-35-32_260595134347_rgbf000066-resize_1-target.png,250,3.7910000000000004,5.0,2308,247,feet,jsons/v1_VE250_randls_10_rotated.json,576575,711052,33,Man
95,507507,DepthScenes,duration_manipulation_targetAtFixation,jsons/v1_VE250_randls_10_rotated.json,http://54.235.29.9/FacialAge/BNav_EC2/DepthDuration/v2_depth_duration_MTurk/v2_DepthDuration_HTML.html#145,145,1920,937,1920,1080,8-20-2022,11-13-52,96,depth_duration_stimuli/001806_2014-06-26_20-50-20_260595134347_rgbf000091-resize_1/001806_2014-06-26_20-50-20_260595134347_rgbf000091-resize_1-target.png,250,2.7305,2.0,1633,263,feet,jsons/v1_VE250_randls_10_rotated.json,576575,711052,33,Man
96,507507,DepthScenes,duration_manipulation_targetAtFixation,jsons/v1_VE250_randls_10_rotated.json,http://54.235.29.9/FacialAge/BNav_EC2/DepthDuration/v2_depth_duration_MTurk/v2_DepthDuration_HTML.html#145,145,1920,937,1920,1080,8-20-2022,11-13-52,97,depth_duration_stimuli/002414_2014-06-28_20-24-58_260595134347_rgbf000067-resize_4/002414_2014-06-28_20-24-58_260595134347_rgbf000067-resize_4-target.png,250,4.363,7.0,3487,252,feet,jsons/v1_VE250_randls_10_rotated.json,576575,711052,33,Man
97,507507,DepthScenes,duration_manipulation_targetAtFixation,jsons/v1_VE250_randls_10_rotated.json,http://54.235.29.9/FacialAge/BNav_EC2/DepthDuration/v2_depth_duration_MTurk/v2_DepthDuration_HTML.html#145,145,1920,937,1920,1080,8-20-2022,11-13-52,98,depth_duration_stimuli/000773_2014-06-08_22-24-54_260595134347_rgbf000093-resize_1/000773_2014-06-08_22-24-54_260595134347_rgbf000093-resize_1-target.png,250,4.973,6.0,2739,251,feet,jsons/v1_VE250_randls_10_rotated.json,576575,711052,33,Man
98,507507,DepthScenes,duration_manipulation_targetAtFixation,jsons/v1_VE250_randls_10_rotated.json,http://54.235.29.9/FacialAge/BNav_EC2/DepthDuration/v2_depth_duration_MTurk/v2_DepthDuration_HTML.html#145,145,1920,937,1920,1080,8-20-2022,11-13-52,99,depth_duration_stimuli/001222_2014-06-17_16-24-06_260595134347_rgbf000073-resize_0/001222_2014-06-17_16-24-06_260595134347_rgbf000073-resize-original.jpg,250,1.4385,0.0,3341,250,feet,jsons/v1_VE250_randls_10_rotated.json,576575,711052,33,Man
99,507507,DepthScenes,duration_manipulation_targetAtFixation,jsons/v1_VE250_randls_10_rotated.json,http://54.235.29.9/FacialAge/BNav_EC2/DepthDuration/v2_depth_duration_MTurk/v2_DepthDuration_HTML.html#145,145,1920,937,1920,1080,8-20-2022,11-13-52,100,depth_duration_stimuli/000556_2014-06-09_22-42-56_260595134347_rgbf000214-resize_1/000556_2014-06-09_22-42-56_260595134347_rgbf000214-resize_1-target.png,250,4.8415,6.5,3000,252,feet,jsons/v1_VE250_randls_10_rotated.json,576575,711052,33,Man
100,507507,DepthScenes,duration_manipulation_targetAtFixation,jsons/v1_VE250_randls_10_rotated.json,http://54.235.29.9/FacialAge/BNav_EC2/DepthDuration/v2_depth_duration_MTurk/v2_DepthDuration_HTML.html#145,145,1920,937,1920,1080,8-20-2022,11-13-52,101,depth_duration_stimuli/001158_2014-06-17_15-32-16_260595134347_rgbf000138-resize_2/001158_2014-06-17_15-32-16_260595134347_rgbf000138-resize_2-target.png,250,4.5315,5.0,3536,249,feet,jsons/v1_VE250_randls_10_rotated.json,576575,711052,33,Man
101,507507,DepthScenes,duration_manipulation_targetAtFixation,jsons/v1_VE250_randls_10_rotated.json,http://54.235.29.9/FacialAge/BNav_EC2/DepthDuration/v2_depth_duration_MTurk/v2_DepthDuration_HTML.html#145,145,1920,937,1920,1080,8-20-2022,11-13-52,102,depth_duration_stimuli/000691_2014-06-08_13-08-50_260595134347_rgbf000132-resize_3/000691_2014-06-08_13-08-50_260595134347_rgbf000132-resize_3-target.png,250,4.1530000000000005,5.0,2710,250,feet,jsons/v1_VE250_randls_10_rotated.json,576575,711052,33,Man
102,507507,DepthScenes,duration_manipulation_targetAtFixation,jsons/v1_VE250_randls_10_rotated.json,http://54.235.29.9/FacialAge/BNav_EC2/DepthDuration/v2_depth_duration_MTurk/v2_DepthDuration_HTML.html#145,145,1920,937,1920,1080,8-20-2022,11-13-52,103,depth_duration_stimuli/002213_2014-06-28_18-37-58_260595134347_rgbf000055-resize_1/002213_2014-06-28_18-37-58_260595134347_rgbf000055-resize_1-target.png,250,3.62,8.0,2344,248,feet,jsons/v1_VE250_randls_10_rotated.json,576575,711052,33,Man
103,507507,DepthScenes,duration_manipulation_targetAtFixation,jsons/v1_VE250_randls_10_rotated.json,http://54.235.29.9/FacialAge/BNav_EC2/DepthDuration/v2_depth_duration_MTurk/v2_DepthDuration_HTML.html#145,145,1920,937,1920,1080,8-20-2022,11-13-52,104,depth_duration_stimuli/002953_2014-06-08_17-32-18_094959634447_rgbf000059-resize_5/002953_2014-06-08_17-32-18_094959634447_rgbf000059-resize_5-target.png,250,1.551,1.5,2563,252,feet,jsons/v1_VE250_randls_10_rotated.json,576575,711052,33,Man
104,507507,DepthScenes,duration_manipulation_targetAtFixation,jsons/v1_VE250_randls_10_rotated.json,http://54.235.29.9/FacialAge/BNav_EC2/DepthDuration/v2_depth_duration_MTurk/v2_DepthDuration_HTML.html#145,145,1920,937,1920,1080,8-20-2022,11-13-52,105,depth_duration_stimuli/000878_2014-06-08_22-52-45_260595134347_rgbf000045-resize_2/000878_2014-06-08_22-52-45_260595134347_rgbf000045-resize_2-target.png,250,2.092,4.0,2975,250,feet,jsons/v1_VE250_randls_10_rotated.json,576575,711052,33,Man
105,507507,DepthScenes,duration_manipulation_targetAtFixation,jsons/v1_VE250_randls_10_rotated.json,http://54.235.29.9/FacialAge/BNav_EC2/DepthDuration/v2_depth_duration_MTurk/v2_DepthDuration_HTML.html#145,145,1920,937,1920,1080,8-20-2022,11-13-52,106,depth_duration_stimuli/002444_2014-06-28_20-32-08_260595134347_rgbf000027-resize_0/002444_2014-06-28_20-32-08_260595134347_rgbf000027-resize_0-target.png,250,4.388999999999999,6.0,2453,251,feet,jsons/v1_VE250_randls_10_rotated.json,576575,711052,33,Man
106,507507,DepthScenes,duration_manipulation_targetAtFixation,jsons/v1_VE250_randls_10_rotated.json,http://54.235.29.9/FacialAge/BNav_EC2/DepthDuration/v2_depth_duration_MTurk/v2_DepthDuration_HTML.html#145,145,1920,937,1920,1080,8-20-2022,11-13-52,107,depth_duration_stimuli/000436_2014-06-09_22-25-11_260595134347_rgbf000137-resize_1/000436_2014-06-09_22-25-11_260595134347_rgbf000137-resize_1-target.png,250,4.0705,8.0,2130,254,feet,jsons/v1_VE250_randls_10_rotated.json,576575,711052,33,Man
107,507507,DepthScenes,duration_manipulation_targetAtFixation,jsons/v1_VE250_randls_10_rotated.json,http://54.235.29.9/FacialAge/BNav_EC2/DepthDuration/v2_depth_duration_MTurk/v2_DepthDuration_HTML.html#145,145,1920,937,1920,1080,8-20-2022,11-13-52,108,depth_duration_stimuli/000749_2014-06-08_21-55-06_260595134347_rgbf000070-resize_2/000749_2014-06-08_21-55-06_260595134347_rgbf000070-resize_2-target.png,250,2.331,6.0,3667,247,feet,jsons/v1_VE250_randls_10_rotated.json,576575,711052,33,Man
108,507507,DepthScenes,duration_manipulation_targetAtFixation,jsons/v1_VE250_randls_10_rotated.json,http://54.235.29.9/FacialAge/BNav_EC2/DepthDuration/v2_depth_duration_MTurk/v2_DepthDuration_HTML.html#145,145,1920,937,1920,1080,8-20-2022,11-13-52,109,depth_duration_stimuli/002788_2014-06-22_19-36-03_094959634447_rgbf000088-resize_2/002788_2014-06-22_19-36-03_094959634447_rgbf000088-resize_2-target.png,250,1.6465,4.0,2091,249,feet,jsons/v1_VE250_randls_10_rotated.json,576575,711052,33,Man
109,507507,DepthScenes,duration_manipulation_targetAtFixation,jsons/v1_VE250_randls_10_rotated.json,http://54.235.29.9/FacialAge/BNav_EC2/DepthDuration/v2_depth_duration_MTurk/v2_DepthDuration_HTML.html#145,145,1920,937,1920,1080,8-20-2022,11-13-52,110,depth_duration_stimuli/000409_2014-06-04_19-23-33_260595134347_rgbf000067-resize_0/000409_2014-06-04_19-23-33_260595134347_rgbf000067-resize_0-target.png,250,3.7335,9.0,2274,252,feet,jsons/v1_VE250_randls_10_rotated.json,576575,711052,33,Man
110,507507,DepthScenes,duration_manipulation_targetAtFixation,jsons/v1_VE250_randls_10_rotated.json,http://54.235.29.9/FacialAge/BNav_EC2/DepthDuration/v2_depth_duration_MTurk/v2_DepthDuration_HTML.html#145,145,1920,937,1920,1080,8-20-2022,11-13-52,111,depth_duration_stimuli/002663_2014-06-13_15-50-26_094959634447_rgbf000075-resize_1/002663_2014-06-13_15-50-26_094959634447_rgbf000075-resize_1-target.png,250,4.7495,13.0,2664,250,feet,jsons/v1_VE250_randls_10_rotated.json,576575,711052,33,Man
111,507507,DepthScenes,duration_manipulation_targetAtFixation,jsons/v1_VE250_randls_10_rotated.json,http://54.235.29.9/FacialAge/BNav_EC2/DepthDuration/v2_depth_duration_MTurk/v2_DepthDuration_HTML.html#145,145,1920,937,1920,1080,8-20-2022,11-13-52,112,depth_duration_stimuli/001450_2014-06-19_17-02-03_260595134347_rgbf000203-resize_4/001450_2014-06-19_17-02-03_260595134347_rgbf000203-resize_4-target.png,250,4.0106666666667,8.0,2393,256,feet,jsons/v1_VE250_randls_10_rotated.json,576575,711052,33,Man
112,507507,DepthScenes,duration_manipulation_targetAtFixation,jsons/v1_VE250_randls_10_rotated.json,http://54.235.29.9/FacialAge/BNav_EC2/DepthDuration/v2_depth_duration_MTurk/v2_DepthDuration_HTML.html#145,145,1920,937,1920,1080,8-20-2022,11-13-52,113,depth_duration_stimuli/001449_2014-06-19_17-01-27_260595134347_rgbf000116-resize_2/001449_2014-06-19_17-01-27_260595134347_rgbf000116-resize_2-target.png,250,3.452,4.0,2078,255,feet,jsons/v1_VE250_randls_10_rotated.json,576575,711052,33,Man
113,507507,DepthScenes,duration_manipulation_targetAtFixation,jsons/v1_VE250_randls_10_rotated.json,http://54.235.29.9/FacialAge/BNav_EC2/DepthDuration/v2_depth_duration_MTurk/v2_DepthDuration_HTML.html#145,145,1920,937,1920,1080,8-20-2022,11-13-52,114,depth_duration_stimuli/002199_2014-06-28_18-33-56_260595134347_rgbf000074-resize_0/002199_2014-06-28_18-33-56_260595134347_rgbf000074-resize_0-target.png,250,1.996,1.5,3151,250,feet,jsons/v1_VE250_randls_10_rotated.json,576575,711052,33,Man
114,507507,DepthScenes,duration_manipulation_targetAtFixation,jsons/v1_VE250_randls_10_rotated.json,http://54.235.29.9/FacialAge/BNav_EC2/DepthDuration/v2_depth_duration_MTurk/v2_DepthDuration_HTML.html#145,145,1920,937,1920,1080,8-20-2022,11-13-52,115,depth_duration_stimuli/001056_2014-06-08_18-46-44_260595134347_rgbf000068-resize_0/001056_2014-06-08_18-46-44_260595134347_rgbf000068-resize_0-target.png,250,2.6625,4.0,2412,248,feet,jsons/v1_VE250_randls_10_rotated.json,576575,711052,33,Man
115,507507,DepthScenes,duration_manipulation_targetAtFixation,jsons/v1_VE250_randls_10_rotated.json,http://54.235.29.9/FacialAge/BNav_EC2/DepthDuration/v2_depth_duration_MTurk/v2_DepthDuration_HTML.html#145,145,1920,937,1920,1080,8-20-2022,11-13-52,116,depth_duration_stimuli/000191_2014-05-12_17-07-38_260595134347_rgbf000199-resize_0/000191_2014-05-12_17-07-38_260595134347_rgbf000199-resize_0-target.png,250,3.7995,10.0,4177,248,feet,jsons/v1_VE250_randls_10_rotated.json,576575,711052,33,Man
116,507507,DepthScenes,duration_manipulation_targetAtFixation,jsons/v1_VE250_randls_10_rotated.json,http://54.235.29.9/FacialAge/BNav_EC2/DepthDuration/v2_depth_duration_MTurk/v2_DepthDuration_HTML.html#145,145,1920,937,1920,1080,8-20-2022,11-13-52,117,depth_duration_stimuli/000493_2014-06-09_21-01-18_260595134347_rgbf000196-resize_3/000493_2014-06-09_21-01-18_260595134347_rgbf000196-resize_3-target.png,250,3.44,4.0,2894,248,feet,jsons/v1_VE250_randls_10_rotated.json,576575,711052,33,Man
117,507507,DepthScenes,duration_manipulation_targetAtFixation,jsons/v1_VE250_randls_10_rotated.json,http://54.235.29.9/FacialAge/BNav_EC2/DepthDuration/v2_depth_duration_MTurk/v2_DepthDuration_HTML.html#145,145,1920,937,1920,1080,8-20-2022,11-13-52,118,depth_duration_stimuli/002637_2014-06-24_14-51-13_094959634447_rgbf000066-resize_4/002637_2014-06-24_14-51-13_094959634447_rgbf000066-resize_4-target.png,250,1.9955,3.0,1876,251,feet,jsons/v1_VE250_randls_10_rotated.json,576575,711052,33,Man
118,507507,DepthScenes,duration_manipulation_targetAtFixation,jsons/v1_VE250_randls_10_rotated.json,http://54.235.29.9/FacialAge/BNav_EC2/DepthDuration/v2_depth_duration_MTurk/v2_DepthDuration_HTML.html#145,145,1920,937,1920,1080,8-20-2022,11-13-52,119,depth_duration_stimuli/003534_2014-05-22_15-06-10_094959634447_rgbf000102-resize_4/003534_2014-05-22_15-06-10_094959634447_rgbf000102-resize_4-target.png,250,1.426,2.0,1544,252,feet,jsons/v1_VE250_randls_10_rotated.json,576575,711052,33,Man
119,507507,DepthScenes,duration_manipulation_targetAtFixation,jsons/v1_VE250_randls_10_rotated.json,http://54.235.29.9/FacialAge/BNav_EC2/DepthDuration/v2_depth_duration_MTurk/v2_DepthDuration_HTML.html#145,145,1920,937,1920,1080,8-20-2022,11-13-52,120,depth_duration_stimuli/000787_2014-06-08_22-33-53_260595134347_rgbf000175-resize_1/000787_2014-06-08_22-33-53_260595134347_rgbf000175-resize-original.jpg,250,4.784,0.0,2052,261,feet,jsons/v1_VE250_randls_10_rotated.json,576575,711052,33,Man
120,507507,DepthScenes,duration_manipulation_targetAtFixation,jsons/v1_VE250_randls_10_rotated.json,http://54.235.29.9/FacialAge/BNav_EC2/DepthDuration/v2_depth_duration_MTurk/v2_DepthDuration_HTML.html#145,145,1920,937,1920,1080,8-20-2022,11-13-52,121,depth_duration_stimuli/001094_2014-06-15_17-36-00_260595134347_rgbf000205-resize_0/001094_2014-06-15_17-36-00_260595134347_rgbf000205-resize_0-target.png,250,4.2175,7.0,2269,252,feet,jsons/v1_VE250_randls_10_rotated.json,576575,711052,33,Man
121,507507,DepthScenes,duration_manipulation_targetAtFixation,jsons/v1_VE250_randls_10_rotated.json,http://54.235.29.9/FacialAge/BNav_EC2/DepthDuration/v2_depth_duration_MTurk/v2_DepthDuration_HTML.html#145,145,1920,937,1920,1080,8-20-2022,11-13-52,122,depth_duration_stimuli/000692_2014-06-08_13-09-42_260595134347_rgbf000199-resize_2/000692_2014-06-08_13-09-42_260595134347_rgbf000199-resize_2-target.png,250,3.661,14.0,2229,250,feet,jsons/v1_VE250_randls_10_rotated.json,576575,711052,33,Man
122,507507,DepthScenes,duration_manipulation_targetAtFixation,jsons/v1_VE250_randls_10_rotated.json,http://54.235.29.9/FacialAge/BNav_EC2/DepthDuration/v2_depth_duration_MTurk/v2_DepthDuration_HTML.html#145,145,1920,937,1920,1080,8-20-2022,11-13-52,123,depth_duration_stimuli/001214_2014-06-17_16-13-55_260595134347_rgbf000111-resize_0/001214_2014-06-17_16-13-55_260595134347_rgbf000111-resize_0-target.png,250,2.6505,3.0,3377,250,feet,jsons/v1_VE250_randls_10_rotated.json,576575,711052,33,Man
123,507507,DepthScenes,duration_manipulation_targetAtFixation,jsons/v1_VE250_randls_10_rotated.json,http://54.235.29.9/FacialAge/BNav_EC2/DepthDuration/v2_depth_duration_MTurk/v2_DepthDuration_HTML.html#145,145,1920,937,1920,1080,8-20-2022,11-13-52,124,depth_duration_stimuli/000810_2014-06-08_17-20-01_260595134347_rgbf000105-resize_0/000810_2014-06-08_17-20-01_260595134347_rgbf000105-resize_0-target.png,250,1.4865,3.0,2314,251,feet,jsons/v1_VE250_randls_10_rotated.json,576575,711052,33,Man
124,507507,DepthScenes,duration_manipulation_targetAtFixation,jsons/v1_VE250_randls_10_rotated.json,http://54.235.29.9/FacialAge/BNav_EC2/DepthDuration/v2_depth_duration_MTurk/v2_DepthDuration_HTML.html#145,145,1920,937,1920,1080,8-20-2022,11-13-52,125,depth_duration_stimuli/003083_2014-06-15_15-21-03_094959634447_rgbf000063-resize_1/003083_2014-06-15_15-21-03_094959634447_rgbf000063-resize_1-target.png,250,4.1405,12.0,2279,248,feet,jsons/v1_VE250_randls_10_rotated.json,576575,711052,33,Man
125,507507,DepthScenes,duration_manipulation_targetAtFixation,jsons/v1_VE250_randls_10_rotated.json,http://54.235.29.9/FacialAge/BNav_EC2/DepthDuration/v2_depth_duration_MTurk/v2_DepthDuration_HTML.html#145,145,1920,937,1920,1080,8-20-2022,11-13-52,126,depth_duration_stimuli/000486_2014-06-09_20-47-20_260595134347_rgbf000143-resize_2/000486_2014-06-09_20-47-20_260595134347_rgbf000143-resize_2-target.png,250,4.8325,6.0,3097,250,feet,jsons/v1_VE250_randls_10_rotated.json,576575,711052,33,Man
126,507507,DepthScenes,duration_manipulation_targetAtFixation,jsons/v1_VE250_randls_10_rotated.json,http://54.235.29.9/FacialAge/BNav_EC2/DepthDuration/v2_depth_duration_MTurk/v2_DepthDuration_HTML.html#145,145,1920,937,1920,1080,8-20-2022,11-13-52,127,depth_duration_stimuli/003587_2014-05-23_16-48-02_094959634447_rgbf002384-resize_2/003587_2014-05-23_16-48-02_094959634447_rgbf002384-resize_2-target.png,250,1.357,1.0,2259,260,feet,jsons/v1_VE250_randls_10_rotated.json,576575,711052,33,Man
127,507507,DepthScenes,duration_manipulation_targetAtFixation,jsons/v1_VE250_randls_10_rotated.json,http://54.235.29.9/FacialAge/BNav_EC2/DepthDuration/v2_depth_duration_MTurk/v2_DepthDuration_HTML.html#145,145,1920,937,1920,1080,8-20-2022,11-13-52,128,depth_duration_stimuli/001167_2014-06-17_15-38-07_260595134347_rgbf000108-resize_0/001167_2014-06-17_15-38-07_260595134347_rgbf000108-resize_0-target.png,250,1.8505,1.5,2805,249,feet,jsons/v1_VE250_randls_10_rotated.json,576575,711052,33,Man
128,507507,DepthScenes,duration_manipulation_targetAtFixation,jsons/v1_VE250_randls_10_rotated.json,http://54.235.29.9/FacialAge/BNav_EC2/DepthDuration/v2_depth_duration_MTurk/v2_DepthDuration_HTML.html#145,145,1920,937,1920,1080,8-20-2022,11-13-52,129,depth_duration_stimuli/001392_2014-06-19_16-07-59_260595134347_rgbf000046-resize_1/001392_2014-06-19_16-07-59_260595134347_rgbf000046-resize_1-target.png,250,4.135,7.0,2470,249,feet,jsons/v1_VE250_randls_10_rotated.json,576575,711052,33,Man
129,507507,DepthScenes,duration_manipulation_targetAtFixation,jsons/v1_VE250_randls_10_rotated.json,http://54.235.29.9/FacialAge/BNav_EC2/DepthDuration/v2_depth_duration_MTurk/v2_DepthDuration_HTML.html#145,145,1920,937,1920,1080,8-20-2022,11-13-52,130,depth_duration_stimuli/001570_2014-06-20_17-21-09_260595134347_rgbf000135-resize_4/001570_2014-06-20_17-21-09_260595134347_rgbf000135-resize_4-target.png,250,4.467,6.0,3037,250,feet,jsons/v1_VE250_randls_10_rotated.json,576575,711052,33,Man
130,507507,DepthScenes,duration_manipulation_targetAtFixation,jsons/v1_VE250_randls_10_rotated.json,http://54.235.29.9/FacialAge/BNav_EC2/DepthDuration/v2_depth_duration_MTurk/v2_DepthDuration_HTML.html#145,145,1920,937,1920,1080,8-20-2022,11-13-52,131,depth_duration_stimuli/002678_2014-06-13_16-15-32_094959634447_rgbf000151-resize_6/002678_2014-06-13_16-15-32_094959634447_rgbf000151-resize_6-target.png,250,2.1830000000000003,6.0,2678,253,feet,jsons/v1_VE250_randls_10_rotated.json,576575,711052,33,Man
131,507507,DepthScenes,duration_manipulation_targetAtFixation,jsons/v1_VE250_randls_10_rotated.json,http://54.235.29.9/FacialAge/BNav_EC2/DepthDuration/v2_depth_duration_MTurk/v2_DepthDuration_HTML.html#145,145,1920,937,1920,1080,8-20-2022,11-13-52,132,depth_duration_stimuli/000368_2014-06-09_15-53-01_260595134347_rgbf000155-resize_2/000368_2014-06-09_15-53-01_260595134347_rgbf000155-resize_2-target.png,250,2.4859999999999998,2.5,3568,251,feet,jsons/v1_VE250_randls_10_rotated.json,576575,711052,33,Man
132,507507,DepthScenes,duration_manipulation_targetAtFixation,jsons/v1_VE250_randls_10_rotated.json,http://54.235.29.9/FacialAge/BNav_EC2/DepthDuration/v2_depth_duration_MTurk/v2_DepthDuration_HTML.html#145,145,1920,937,1920,1080,8-20-2022,11-13-52,133,depth_duration_stimuli/002639_2014-06-24_14-51-37_094959634447_rgbf000074-resize_4/002639_2014-06-24_14-51-37_094959634447_rgbf000074-resize_4-target.png,250,4.0375,7.0,2928,249,feet,jsons/v1_VE250_randls_10_rotated.json,576575,711052,33,Man
133,507507,DepthScenes,duration_manipulation_targetAtFixation,jsons/v1_VE250_randls_10_rotated.json,http://54.235.29.9/FacialAge/BNav_EC2/DepthDuration/v2_depth_duration_MTurk/v2_DepthDuration_HTML.html#145,145,1920,937,1920,1080,8-20-2022,11-13-52,134,depth_duration_stimuli/003292_2014-05-14_21-53-49_094959634447_rgbf000100-resize_2/003292_2014-05-14_21-53-49_094959634447_rgbf000100-resize_2-target.png,250,3.4815,5.0,2158,237,feet,jsons/v1_VE250_randls_10_rotated.json,576575,711052,33,Man
134,507507,DepthScenes,duration_manipulation_targetAtFixation,jsons/v1_VE250_randls_10_rotated.json,http://54.235.29.9/FacialAge/BNav_EC2/DepthDuration/v2_depth_duration_MTurk/v2_DepthDuration_HTML.html#145,145,1920,937,1920,1080,8-20-2022,11-13-52,135,depth_duration_stimuli/000375_2014-06-08_11-17-29_260595134347_rgbf000133-resize_2/000375_2014-06-08_11-17-29_260595134347_rgbf000133-resize-original.jpg,250,4.718,0.0,2402,251,feet,jsons/v1_VE250_randls_10_rotated.json,576575,711052,33,Man
135,507507,DepthScenes,duration_manipulation_targetAtFixation,jsons/v1_VE250_randls_10_rotated.json,http://54.235.29.9/FacialAge/BNav_EC2/DepthDuration/v2_depth_duration_MTurk/v2_DepthDuration_HTML.html#145,145,1920,937,1920,1080,8-20-2022,11-13-52,136,depth_duration_stimuli/000927_2014-06-09_16-32-30_260595134347_rgbf000123-resize_3/000927_2014-06-09_16-32-30_260595134347_rgbf000123-resize_3-target.png,250,2.6785,0.0,2465,251,feet,jsons/v1_VE250_randls_10_rotated.json,576575,711052,33,Man
136,507507,DepthScenes,duration_manipulation_targetAtFixation,jsons/v1_VE250_randls_10_rotated.json,http://54.235.29.9/FacialAge/BNav_EC2/DepthDuration/v2_depth_duration_MTurk/v2_DepthDuration_HTML.html#145,145,1920,937,1920,1080,8-20-2022,11-13-52,137,depth_duration_stimuli/001110_2014-06-15_17-25-28_260595134347_rgbf000150-resize_1/001110_2014-06-15_17-25-28_260595134347_rgbf000150-resize_1-target.png,250,1.7115,5.0,5178,254,feet,jsons/v1_VE250_randls_10_rotated.json,576575,711052,33,Man
137,507507,DepthScenes,duration_manipulation_targetAtFixation,jsons/v1_VE250_randls_10_rotated.json,http://54.235.29.9/FacialAge/BNav_EC2/DepthDuration/v2_depth_duration_MTurk/v2_DepthDuration_HTML.html#145,145,1920,937,1920,1080,8-20-2022,11-13-52,138,depth_duration_stimuli/000103_2014-05-14_22-01-17_260595134347_rgbf000152-resize_5/000103_2014-05-14_22-01-17_260595134347_rgbf000152-resize_5-target.png,250,1.993,7.0,2618,250,feet,jsons/v1_VE250_randls_10_rotated.json,576575,711052,33,Man
138,507507,DepthScenes,duration_manipulation_targetAtFixation,jsons/v1_VE250_randls_10_rotated.json,http://54.235.29.9/FacialAge/BNav_EC2/DepthDuration/v2_depth_duration_MTurk/v2_DepthDuration_HTML.html#145,145,1920,937,1920,1080,8-20-2022,11-13-52,139,depth_duration_stimuli/001555_2014-06-20_17-12-10_260595134347_rgbf000065-resize_4/001555_2014-06-20_17-12-10_260595134347_rgbf000065-resize_4-target.png,250,1.633,2.5,2864,249,feet,jsons/v1_VE250_randls_10_rotated.json,576575,711052,33,Man
139,507507,DepthScenes,duration_manipulation_targetAtFixation,jsons/v1_VE250_randls_10_rotated.json,http://54.235.29.9/FacialAge/BNav_EC2/DepthDuration/v2_depth_duration_MTurk/v2_DepthDuration_HTML.html#145,145,1920,937,1920,1080,8-20-2022,11-13-52,140,depth_duration_stimuli/000109_2014-05-14_23-41-52_260595134347_rgbf000035-resize_9/000109_2014-05-14_23-41-52_260595134347_rgbf000035-resize_9-target.png,250,1.3545,2.0,1686,251,feet,jsons/v1_VE250_randls_10_rotated.json,576575,711052,33,Man
140,507507,DepthScenes,duration_manipulation_targetAtFixation,jsons/v1_VE250_randls_10_rotated.json,http://54.235.29.9/FacialAge/BNav_EC2/DepthDuration/v2_depth_duration_MTurk/v2_DepthDuration_HTML.html#145,145,1920,937,1920,1080,8-20-2022,11-13-52,141,depth_duration_stimuli/000470_2014-06-09_19-42-40_260595134347_rgbf000094-resize_1/000470_2014-06-09_19-42-40_260595134347_rgbf000094-resize_1-target.png,250,1.831,2.0,1777,249,feet,jsons/v1_VE250_randls_10_rotated.json,576575,711052,33,Man
141,507507,DepthScenes,duration_manipulation_targetAtFixation,jsons/v1_VE250_randls_10_rotated.json,http://54.235.29.9/FacialAge/BNav_EC2/DepthDuration/v2_depth_duration_MTurk/v2_DepthDuration_HTML.html#145,145,1920,937,1920,1080,8-20-2022,11-13-52,142,depth_duration_stimuli/001100_2014-06-15_17-46-26_260595134347_rgbf000225-resize_2/001100_2014-06-15_17-46-26_260595134347_rgbf000225-resize_2-target.png,250,2.24,3.0,2613,249,feet,jsons/v1_VE250_randls_10_rotated.json,576575,711052,33,Man
142,507507,DepthScenes,duration_manipulation_targetAtFixation,jsons/v1_VE250_randls_10_rotated.json,http://54.235.29.9/FacialAge/BNav_EC2/DepthDuration/v2_depth_duration_MTurk/v2_DepthDuration_HTML.html#145,145,1920,937,1920,1080,8-20-2022,11-13-52,143,depth_duration_stimuli/002784_2014-06-22_19-26-30_094959634447_rgbf000083-resize_3/002784_2014-06-22_19-26-30_094959634447_rgbf000083-resize_3-target.png,250,1.8046666666667,2.5,2545,254,feet,jsons/v1_VE250_randls_10_rotated.json,576575,711052,33,Man
143,507507,DepthScenes,duration_manipulation_targetAtFixation,jsons/v1_VE250_randls_10_rotated.json,http://54.235.29.9/FacialAge/BNav_EC2/DepthDuration/v2_depth_duration_MTurk/v2_DepthDuration_HTML.html#145,145,1920,937,1920,1080,8-20-2022,11-13-52,144,depth_duration_stimuli/002425_2014-06-28_20-27-29_260595134347_rgbf000031-resize_8/002425_2014-06-28_20-27-29_260595134347_rgbf000031-resize_8-target.png,250,3.8960000000000004,9.0,3003,249,feet,jsons/v1_VE250_randls_10_rotated.json,576575,711052,33,Man
144,507507,DepthScenes,duration_manipulation_targetAtFixation,jsons/v1_VE250_randls_10_rotated.json,http://54.235.29.9/FacialAge/BNav_EC2/DepthDuration/v2_depth_duration_MTurk/v2_DepthDuration_HTML.html#145,145,1920,937,1920,1080,8-20-2022,11-13-52,145,depth_duration_stimuli/000642_2014-06-08_16-59-25_260595134347_rgbf000098-resize_2/000642_2014-06-08_16-59-25_260595134347_rgbf000098-resize_2-target.png,250,2.8815,7.0,2560,249,feet,jsons/v1_VE250_randls_10_rotated.json,576575,711052,33,Man
145,507507,DepthScenes,duration_manipulation_targetAtFixation,jsons/v1_VE250_randls_10_rotated.json,http://54.235.29.9/FacialAge/BNav_EC2/DepthDuration/v2_depth_duration_MTurk/v2_DepthDuration_HTML.html#145,145,1920,937,1920,1080,8-20-2022,11-13-52,146,depth_duration_stimuli/003081_2014-06-15_15-19-16_094959634447_rgbf000150-resize_1/003081_2014-06-15_15-19-16_094959634447_rgbf000150-resize_1-target.png,250,3.9125,8.0,2592,252,feet,jsons/v1_VE250_randls_10_rotated.json,576575,711052,33,Man
146,507507,DepthScenes,duration_manipulation_targetAtFixation,jsons/v1_VE250_randls_10_rotated.json,http://54.235.29.9/FacialAge/BNav_EC2/DepthDuration/v2_depth_duration_MTurk/v2_DepthDuration_HTML.html#145,145,1920,937,1920,1080,8-20-2022,11-13-52,147,depth_duration_stimuli/001417_2014-06-19_16-25-36_260595134347_rgbf000115-resize_5/001417_2014-06-19_16-25-36_260595134347_rgbf000115-resize_5-target.png,250,4.6255,6.5,2909,250,feet,jsons/v1_VE250_randls_10_rotated.json,576575,711052,33,Man
147,507507,DepthScenes,duration_manipulation_targetAtFixation,jsons/v1_VE250_randls_10_rotated.json,http://54.235.29.9/FacialAge/BNav_EC2/DepthDuration/v2_depth_duration_MTurk/v2_DepthDuration_HTML.html#145,145,1920,937,1920,1080,8-20-2022,11-13-52,148,depth_duration_stimuli/000742_2014-06-08_18-48-09_260595134347_rgbf000164-resize_4/000742_2014-06-08_18-48-09_260595134347_rgbf000164-resize_4-target.png,250,4.632,7.0,2482,251,feet,jsons/v1_VE250_randls_10_rotated.json,576575,711052,33,Man
148,507507,DepthScenes,duration_manipulation_targetAtFixation,jsons/v1_VE250_randls_10_rotated.json,http://54.235.29.9/FacialAge/BNav_EC2/DepthDuration/v2_depth_duration_MTurk/v2_DepthDuration_HTML.html#145,145,1920,937,1920,1080,8-20-2022,11-13-52,149,depth_duration_stimuli/001066_2014-06-08_22-03-20_260595134347_rgbf000066-resize_4/001066_2014-06-08_22-03-20_260595134347_rgbf000066-resize_4-target.png,250,4.2330000000000005,7.0,5351,250,feet,jsons/v1_VE250_randls_10_rotated.json,576575,711052,33,Man
149,507507,DepthScenes,duration_manipulation_targetAtFixation,jsons/v1_VE250_randls_10_rotated.json,http://54.235.29.9/FacialAge/BNav_EC2/DepthDuration/v2_depth_duration_MTurk/v2_DepthDuration_HTML.html#145,145,1920,937,1920,1080,8-20-2022,11-13-52,150,depth_duration_stimuli/001815_2014-06-26_20-52-55_260595134347_rgbf000020-resize_0/001815_2014-06-26_20-52-55_260595134347_rgbf000020-resize_0-target.png,250,3.3865,5.0,2576,250,feet,jsons/v1_VE250_randls_10_rotated.json,576575,711052,33,Man
150,507507,DepthScenes,duration_manipulation_targetAtFixation,jsons/v1_VE250_randls_10_rotated.json,http://54.235.29.9/FacialAge/BNav_EC2/DepthDuration/v2_depth_duration_MTurk/v2_DepthDuration_HTML.html#145,145,1920,937,1920,1080,8-20-2022,11-13-52,151,depth_duration_stimuli/001808_2014-06-26_20-50-58_260595134347_rgbf000029-resize_1/001808_2014-06-26_20-50-58_260595134347_rgbf000029-resize_1-target.png,250,4.249,10.0,2054,251,feet,jsons/v1_VE250_randls_10_rotated.json,576575,711052,33,Man
151,507507,DepthScenes,duration_manipulation_targetAtFixation,jsons/v1_VE250_randls_10_rotated.json,http://54.235.29.9/FacialAge/BNav_EC2/DepthDuration/v2_depth_duration_MTurk/v2_DepthDuration_HTML.html#145,145,1920,937,1920,1080,8-20-2022,11-13-52,152,depth_duration_stimuli/000569_2014-06-09_22-51-47_260595134347_rgbf000141-resize_3/000569_2014-06-09_22-51-47_260595134347_rgbf000141-resize-original.jpg,250,4.512,0.0,2327,250,feet,jsons/v1_VE250_randls_10_rotated.json,576575,711052,33,Man
152,507507,DepthScenes,duration_manipulation_targetAtFixation,jsons/v1_VE250_randls_10_rotated.json,http://54.235.29.9/FacialAge/BNav_EC2/DepthDuration/v2_depth_duration_MTurk/v2_DepthDuration_HTML.html#145,145,1920,937,1920,1080,8-20-2022,11-13-52,153,depth_duration_stimuli/002657_2014-06-13_15-29-54_094959634447_rgbf000150-resize_1/002657_2014-06-13_15-29-54_094959634447_rgbf000150-resize_1-target.png,250,4.919,6.0,2467,249,feet,jsons/v1_VE250_randls_10_rotated.json,576575,711052,33,Man
153,507507,DepthScenes,duration_manipulation_targetAtFixation,jsons/v1_VE250_randls_10_rotated.json,http://54.235.29.9/FacialAge/BNav_EC2/DepthDuration/v2_depth_duration_MTurk/v2_DepthDuration_HTML.html#145,145,1920,937,1920,1080,8-20-2022,11-13-52,154,depth_duration_stimuli/002375_2014-06-28_20-13-44_260595134347_rgbf000032-resize_1/002375_2014-06-28_20-13-44_260595134347_rgbf000032-resize_1-target.png,250,4.0175,4.5,3529,247,feet,jsons/v1_VE250_randls_10_rotated.json,576575,711052,33,Man
154,507507,DepthScenes,duration_manipulation_targetAtFixation,jsons/v1_VE250_randls_10_rotated.json,http://54.235.29.9/FacialAge/BNav_EC2/DepthDuration/v2_depth_duration_MTurk/v2_DepthDuration_HTML.html#145,145,1920,937,1920,1080,8-20-2022,11-13-52,155,depth_duration_stimuli/002136_2014-06-25_21-18-03_260595134347_rgbf000109-resize_3/002136_2014-06-25_21-18-03_260595134347_rgbf000109-resize_3-target.png,250,1.9569999999999999,3.0,2542,249,feet,jsons/v1_VE250_randls_10_rotated.json,576575,711052,33,Man
155,507507,DepthScenes,duration_manipulation_targetAtFixation,jsons/v1_VE250_randls_10_rotated.json,http://54.235.29.9/FacialAge/BNav_EC2/DepthDuration/v2_depth_duration_MTurk/v2_DepthDuration_HTML.html#145,145,1920,937,1920,1080,8-20-2022,11-13-52,156,depth_duration_stimuli/002964_2014-06-08_17-46-11_094959634447_rgbf000091-resize_4/002964_2014-06-08_17-46-11_094959634447_rgbf000091-resize_4-target.png,250,1.6909999999999998,2.0,1815,253,feet,jsons/v1_VE250_randls_10_rotated.json,576575,711052,33,Man
156,507507,DepthScenes,duration_manipulation_targetAtFixation,jsons/v1_VE250_randls_10_rotated.json,http://54.235.29.9/FacialAge/BNav_EC2/DepthDuration/v2_depth_duration_MTurk/v2_DepthDuration_HTML.html#145,145,1920,937,1920,1080,8-20-2022,11-13-52,157,depth_duration_stimuli/000549_2014-06-08_22-10-24_260595134347_rgbf000247-resize_3/000549_2014-06-08_22-10-24_260595134347_rgbf000247-resize_3-target.png,250,1.841,1.0,1635,250,feet,jsons/v1_VE250_randls_10_rotated.json,576575,711052,33,Man
157,507507,DepthScenes,duration_manipulation_targetAtFixation,jsons/v1_VE250_randls_10_rotated.json,http://54.235.29.9/FacialAge/BNav_EC2/DepthDuration/v2_depth_duration_MTurk/v2_DepthDuration_HTML.html#145,145,1920,937,1920,1080,8-20-2022,11-13-52,158,depth_duration_stimuli/001055_2014-06-08_18-45-35_260595134347_rgbf000111-resize_4/001055_2014-06-08_18-45-35_260595134347_rgbf000111-resize_4-target.png,250,2.4290000000000003,4.0,2379,253,feet,jsons/v1_VE250_randls_10_rotated.json,576575,711052,33,Man
158,507507,DepthScenes,duration_manipulation_targetAtFixation,jsons/v1_VE250_randls_10_rotated.json,http://54.235.29.9/FacialAge/BNav_EC2/DepthDuration/v2_depth_duration_MTurk/v2_DepthDuration_HTML.html#145,145,1920,937,1920,1080,8-20-2022,11-13-52,159,depth_duration_stimuli/002949_2014-06-26_15-57-42_094959634447_rgbf000079-resize_1/002949_2014-06-26_15-57-42_094959634447_rgbf000079-resize_1-target.png,250,1.8915,2.0,1803,251,feet,jsons/v1_VE250_randls_10_rotated.json,576575,711052,33,Man
159,507507,DepthScenes,duration_manipulation_targetAtFixation,jsons/v1_VE250_randls_10_rotated.json,http://54.235.29.9/FacialAge/BNav_EC2/DepthDuration/v2_depth_duration_MTurk/v2_DepthDuration_HTML.html#145,145,1920,937,1920,1080,8-20-2022,11-13-52,160,depth_duration_stimuli/000522_2014-06-08_13-35-06_260595134347_rgbf000244-resize_1/000522_2014-06-08_13-35-06_260595134347_rgbf000244-resize_1-target.png,250,2.3715,1.0,1598,253,feet,jsons/v1_VE250_randls_10_rotated.json,576575,711052,33,Man
160,507507,DepthScenes,duration_manipulation_targetAtFixation,jsons/v1_VE250_randls_10_rotated.json,http://54.235.29.9/FacialAge/BNav_EC2/DepthDuration/v2_depth_duration_MTurk/v2_DepthDuration_HTML.html#145,145,1920,937,1920,1080,8-20-2022,11-13-52,161,depth_duration_stimuli/001132_2014-06-17_14-48-54_260595134347_rgbf000100-resize_2/001132_2014-06-17_14-48-54_260595134347_rgbf000100-resize_2-target.png,250,3.753,4.0,2069,251,feet,jsons/v1_VE250_randls_10_rotated.json,576575,711052,33,Man
161,507507,DepthScenes,duration_manipulation_targetAtFixation,jsons/v1_VE250_randls_10_rotated.json,http://54.235.29.9/FacialAge/BNav_EC2/DepthDuration/v2_depth_duration_MTurk/v2_DepthDuration_HTML.html#145,145,1920,937,1920,1080,8-20-2022,11-13-52,162,depth_duration_stimuli/001133_2014-06-17_14-49-16_260595134347_rgbf000100-resize_0/001133_2014-06-17_14-49-16_260595134347_rgbf000100-resize_0-target.png,250,4.2115,7.0,2157,251,feet,jsons/v1_VE250_randls_10_rotated.json,576575,711052,33,Man
162,507507,DepthScenes,duration_manipulation_targetAtFixation,jsons/v1_VE250_randls_10_rotated.json,http://54.235.29.9/FacialAge/BNav_EC2/DepthDuration/v2_depth_duration_MTurk/v2_DepthDuration_HTML.html#145,145,1920,937,1920,1080,8-20-2022,11-13-52,163,depth_duration_stimuli/002323_2014-06-28_20-01-54_260595134347_rgbf000051-resize_4/002323_2014-06-28_20-01-54_260595134347_rgbf000051-resize_4-target.png,250,3.7310000000000003,7.0,2702,252,feet,jsons/v1_VE250_randls_10_rotated.json,576575,711052,33,Man
163,507507,DepthScenes,duration_manipulation_targetAtFixation,jsons/v1_VE250_randls_10_rotated.json,http://54.235.29.9/FacialAge/BNav_EC2/DepthDuration/v2_depth_duration_MTurk/v2_DepthDuration_HTML.html#145,145,1920,937,1920,1080,8-20-2022,11-13-52,164,depth_duration_stimuli/000917_2014-06-09_22-45-29_260595134347_rgbf000149-resize_3/000917_2014-06-09_22-45-29_260595134347_rgbf000149-resize_3-target.png,250,4.1865,6.0,2354,253,feet,jsons/v1_VE250_randls_10_rotated.json,576575,711052,33,Man
