,subjID,experimentName,versionName,sequenceName,url,selected_row,windowWidth,windowHeight,screenWidth,screenHeight,startDate,startTime,trial,stimulus,duration,actual_depth,depth_estimate,trial_RT,log_sceneDuration,unitSelection,seq_filepath,experimentTime,totalTime,age,gender
0,507787,DepthScenes,duration_manipulation_targetAtFixation,jsons/v1_VE1000_randls_65_rotated.json,http://54.235.29.9/FacialAge/BNav_EC2/DepthDuration/v2_depth_duration_MTurk/v2_DepthDuration_HTML.html#151,151,1800,946,1440,900,9-3-2022,8-36-29,1,depth_duration_stimuli/002568_2014-06-24_13-59-21_094959634447_rgbf000062-resize_4/002568_2014-06-24_13-59-21_094959634447_rgbf000062-resize_4-target.png,1000,3.015,8.0,3937,999,feet,jsons/v1_VE1000_randls_65_rotated.json,673316,808786,34,Woman
1,507787,DepthScenes,duration_manipulation_targetAtFixation,jsons/v1_VE1000_randls_65_rotated.json,http://54.235.29.9/FacialAge/BNav_EC2/DepthDuration/v2_depth_duration_MTurk/v2_DepthDuration_HTML.html#151,151,1800,946,1440,900,9-3-2022,8-36-29,2,depth_duration_stimuli/003492_2014-05-21_15-50-55_094959634447_rgbf000828-resize_1/003492_2014-05-21_15-50-55_094959634447_rgbf000828-resize_1-target.png,1000,4.06875,10.0,3712,1006,feet,jsons/v1_VE1000_randls_65_rotated.json,673316,808786,34,Woman
2,507787,DepthScenes,duration_manipulation_targetAtFixation,jsons/v1_VE1000_randls_65_rotated.json,http://54.235.29.9/FacialAge/BNav_EC2/DepthDuration/v2_depth_duration_MTurk/v2_DepthDuration_HTML.html#151,151,1800,946,1440,900,9-3-2022,8-36-29,3,depth_duration_stimuli/002657_2014-06-13_15-29-54_094959634447_rgbf000150-resize_1/002657_2014-06-13_15-29-54_094959634447_rgbf000150-resize_1-target.png,1000,4.919,12.0,3167,1007,feet,jsons/v1_VE1000_randls_65_rotated.json,673316,808786,34,Woman
3,507787,DepthScenes,duration_manipulation_targetAtFixation,jsons/v1_VE1000_randls_65_rotated.json,http://54.235.29.9/FacialAge/BNav_EC2/DepthDuration/v2_depth_duration_MTurk/v2_DepthDuration_HTML.html#151,151,1800,946,1440,900,9-3-2022,8-36-29,4,depth_duration_stimuli/002375_2014-06-28_20-13-44_260595134347_rgbf000032-resize_1/002375_2014-06-28_20-13-44_260595134347_rgbf000032-resize_1-target.png,1000,4.0175,7.0,3573,1002,feet,jsons/v1_VE1000_randls_65_rotated.json,673316,808786,34,Woman
4,507787,DepthScenes,duration_manipulation_targetAtFixation,jsons/v1_VE1000_randls_65_rotated.json,http://54.235.29.9/FacialAge/BNav_EC2/DepthDuration/v2_depth_duration_MTurk/v2_DepthDuration_HTML.html#151,151,1800,946,1440,900,9-3-2022,8-36-29,5,depth_duration_stimuli/002949_2014-06-26_15-57-42_094959634447_rgbf000079-resize_1/002949_2014-06-26_15-57-42_094959634447_rgbf000079-resize_1-target.png,1000,1.8915,3.0,3349,1002,feet,jsons/v1_VE1000_randls_65_rotated.json,673316,808786,34,Woman
5,507787,DepthScenes,duration_manipulation_targetAtFixation,jsons/v1_VE1000_randls_65_rotated.json,http://54.235.29.9/FacialAge/BNav_EC2/DepthDuration/v2_depth_duration_MTurk/v2_DepthDuration_HTML.html#151,151,1800,946,1440,900,9-3-2022,8-36-29,6,depth_duration_stimuli/000522_2014-06-08_13-35-06_260595134347_rgbf000244-resize_1/000522_2014-06-08_13-35-06_260595134347_rgbf000244-resize_1-target.png,1000,2.3715,2.0,3138,1008,feet,jsons/v1_VE1000_randls_65_rotated.json,673316,808786,34,Woman
6,507787,DepthScenes,duration_manipulation_targetAtFixation,jsons/v1_VE1000_randls_65_rotated.json,http://54.235.29.9/FacialAge/BNav_EC2/DepthDuration/v2_depth_duration_MTurk/v2_DepthDuration_HTML.html#151,151,1800,946,1440,900,9-3-2022,8-36-29,7,depth_duration_stimuli/001650_2014-06-20_12-09-00_260595134347_rgbf000087-resize_3/001650_2014-06-20_12-09-00_260595134347_rgbf000087-resize_3-target.png,1000,1.9505,2.0,4987,997,feet,jsons/v1_VE1000_randls_65_rotated.json,673316,808786,34,Woman
7,507787,DepthScenes,duration_manipulation_targetAtFixation,jsons/v1_VE1000_randls_65_rotated.json,http://54.235.29.9/FacialAge/BNav_EC2/DepthDuration/v2_depth_duration_MTurk/v2_DepthDuration_HTML.html#151,151,1800,946,1440,900,9-3-2022,8-36-29,8,depth_duration_stimuli/000682_2014-06-08_23-14-58_260595134347_rgbf000041-resize_5/000682_2014-06-08_23-14-58_260595134347_rgbf000041-resize_5-target.png,1000,2.7239999999999998,4.0,3331,999,feet,jsons/v1_VE1000_randls_65_rotated.json,673316,808786,34,Woman
8,507787,DepthScenes,duration_manipulation_targetAtFixation,jsons/v1_VE1000_randls_65_rotated.json,http://54.235.29.9/FacialAge/BNav_EC2/DepthDuration/v2_depth_duration_MTurk/v2_DepthDuration_HTML.html#151,151,1800,946,1440,900,9-3-2022,8-36-29,9,depth_duration_stimuli/002344_2014-06-28_20-06-29_260595134347_rgbf000030-resize_1/002344_2014-06-28_20-06-29_260595134347_rgbf000030-resize_1-target.png,1000,1.5795,5.0,3625,1034,feet,jsons/v1_VE1000_randls_65_rotated.json,673316,808786,34,Woman
9,507787,DepthScenes,duration_manipulation_targetAtFixation,jsons/v1_VE1000_randls_65_rotated.json,http://54.235.29.9/FacialAge/BNav_EC2/DepthDuration/v2_depth_duration_MTurk/v2_DepthDuration_HTML.html#151,151,1800,946,1440,900,9-3-2022,8-36-29,10,depth_duration_stimuli/002725_2014-06-22_11-47-51_094959634447_rgbf000070-resize_1/002725_2014-06-22_11-47-51_094959634447_rgbf000070-resize_1-target.png,1000,2.195,5.0,2631,997,feet,jsons/v1_VE1000_randls_65_rotated.json,673316,808786,34,Woman
10,507787,DepthScenes,duration_manipulation_targetAtFixation,jsons/v1_VE1000_randls_65_rotated.json,http://54.235.29.9/FacialAge/BNav_EC2/DepthDuration/v2_depth_duration_MTurk/v2_DepthDuration_HTML.html#151,151,1800,946,1440,900,9-3-2022,8-36-29,11,depth_duration_stimuli/002209_2014-06-28_18-36-10_260595134347_rgbf000051-resize_1/002209_2014-06-28_18-36-10_260595134347_rgbf000051-resize_1-target.png,1000,2.057,6.0,3333,1028,feet,jsons/v1_VE1000_randls_65_rotated.json,673316,808786,34,Woman
11,507787,DepthScenes,duration_manipulation_targetAtFixation,jsons/v1_VE1000_randls_65_rotated.json,http://54.235.29.9/FacialAge/BNav_EC2/DepthDuration/v2_depth_duration_MTurk/v2_DepthDuration_HTML.html#151,151,1800,946,1440,900,9-3-2022,8-36-29,12,depth_duration_stimuli/002763_2014-06-22_19-13-10_094959634447_rgbf000075-resize_4/002763_2014-06-22_19-13-10_094959634447_rgbf000075-resize_4-target.png,1000,1.68375,6.0,3101,990,feet,jsons/v1_VE1000_randls_65_rotated.json,673316,808786,34,Woman
12,507787,DepthScenes,duration_manipulation_targetAtFixation,jsons/v1_VE1000_randls_65_rotated.json,http://54.235.29.9/FacialAge/BNav_EC2/DepthDuration/v2_depth_duration_MTurk/v2_DepthDuration_HTML.html#151,151,1800,946,1440,900,9-3-2022,8-36-29,13,depth_duration_stimuli/001815_2014-06-26_20-52-55_260595134347_rgbf000020-resize_0/001815_2014-06-26_20-52-55_260595134347_rgbf000020-resize_0-target.png,1000,3.3865,8.0,3444,1011,feet,jsons/v1_VE1000_randls_65_rotated.json,673316,808786,34,Woman
13,507787,DepthScenes,duration_manipulation_targetAtFixation,jsons/v1_VE1000_randls_65_rotated.json,http://54.235.29.9/FacialAge/BNav_EC2/DepthDuration/v2_depth_duration_MTurk/v2_DepthDuration_HTML.html#151,151,1800,946,1440,900,9-3-2022,8-36-29,14,depth_duration_stimuli/001808_2014-06-26_20-50-58_260595134347_rgbf000029-resize_1/001808_2014-06-26_20-50-58_260595134347_rgbf000029-resize_1-target.png,1000,4.249,9.0,3179,1015,feet,jsons/v1_VE1000_randls_65_rotated.json,673316,808786,34,Woman
14,507787,DepthScenes,duration_manipulation_targetAtFixation,jsons/v1_VE1000_randls_65_rotated.json,http://54.235.29.9/FacialAge/BNav_EC2/DepthDuration/v2_depth_duration_MTurk/v2_DepthDuration_HTML.html#151,151,1800,946,1440,900,9-3-2022,8-36-29,15,depth_duration_stimuli/000109_2014-05-14_23-41-52_260595134347_rgbf000035-resize_9/000109_2014-05-14_23-41-52_260595134347_rgbf000035-resize_9-target.png,1000,1.3545,5.0,3033,998,feet,jsons/v1_VE1000_randls_65_rotated.json,673316,808786,34,Woman
15,507787,DepthScenes,duration_manipulation_targetAtFixation,jsons/v1_VE1000_randls_65_rotated.json,http://54.235.29.9/FacialAge/BNav_EC2/DepthDuration/v2_depth_duration_MTurk/v2_DepthDuration_HTML.html#151,151,1800,946,1440,900,9-3-2022,8-36-29,16,depth_duration_stimuli/000470_2014-06-09_19-42-40_260595134347_rgbf000094-resize_1/000470_2014-06-09_19-42-40_260595134347_rgbf000094-resize_1-target.png,1000,1.831,6.0,3164,994,feet,jsons/v1_VE1000_randls_65_rotated.json,673316,808786,34,Woman
16,507787,DepthScenes,duration_manipulation_targetAtFixation,jsons/v1_VE1000_randls_65_rotated.json,http://54.235.29.9/FacialAge/BNav_EC2/DepthDuration/v2_depth_duration_MTurk/v2_DepthDuration_HTML.html#151,151,1800,946,1440,900,9-3-2022,8-36-29,17,depth_duration_stimuli/000927_2014-06-09_16-32-30_260595134347_rgbf000123-resize_3/000927_2014-06-09_16-32-30_260595134347_rgbf000123-resize_3-target.png,1000,2.6785,10.0,3616,1002,feet,jsons/v1_VE1000_randls_65_rotated.json,673316,808786,34,Woman
17,507787,DepthScenes,duration_manipulation_targetAtFixation,jsons/v1_VE1000_randls_65_rotated.json,http://54.235.29.9/FacialAge/BNav_EC2/DepthDuration/v2_depth_duration_MTurk/v2_DepthDuration_HTML.html#151,151,1800,946,1440,900,9-3-2022,8-36-29,18,depth_duration_stimuli/001110_2014-06-15_17-25-28_260595134347_rgbf000150-resize_1/001110_2014-06-15_17-25-28_260595134347_rgbf000150-resize_1-target.png,1000,1.7115,5.0,3339,1002,feet,jsons/v1_VE1000_randls_65_rotated.json,673316,808786,34,Woman
18,507787,DepthScenes,duration_manipulation_targetAtFixation,jsons/v1_VE1000_randls_65_rotated.json,http://54.235.29.9/FacialAge/BNav_EC2/DepthDuration/v2_depth_duration_MTurk/v2_DepthDuration_HTML.html#151,151,1800,946,1440,900,9-3-2022,8-36-29,19,depth_duration_stimuli/001498_2014-06-19_17-45-14_260595134347_rgbf000129-resize_4/001498_2014-06-19_17-45-14_260595134347_rgbf000129-resize-original.jpg,1000,1.4075,0.0,3146,988,feet,jsons/v1_VE1000_randls_65_rotated.json,673316,808786,34,Woman
19,507787,DepthScenes,duration_manipulation_targetAtFixation,jsons/v1_VE1000_randls_65_rotated.json,http://54.235.29.9/FacialAge/BNav_EC2/DepthDuration/v2_depth_duration_MTurk/v2_DepthDuration_HTML.html#151,151,1800,946,1440,900,9-3-2022,8-36-29,20,depth_duration_stimuli/000483_2014-06-09_20-41-45_260595134347_rgbf000116-resize_4/000483_2014-06-09_20-41-45_260595134347_rgbf000116-resize_4-target.png,1000,1.337,4.0,2961,1004,feet,jsons/v1_VE1000_randls_65_rotated.json,673316,808786,34,Woman
20,507787,DepthScenes,duration_manipulation_targetAtFixation,jsons/v1_VE1000_randls_65_rotated.json,http://54.235.29.9/FacialAge/BNav_EC2/DepthDuration/v2_depth_duration_MTurk/v2_DepthDuration_HTML.html#151,151,1800,946,1440,900,9-3-2022,8-36-29,21,depth_duration_stimuli/000469_2014-06-09_19-42-10_260595134347_rgbf000081-resize_1/000469_2014-06-09_19-42-10_260595134347_rgbf000081-resize_1-target.png,1000,1.652,4.0,3448,998,feet,jsons/v1_VE1000_randls_65_rotated.json,673316,808786,34,Woman
21,507787,DepthScenes,duration_manipulation_targetAtFixation,jsons/v1_VE1000_randls_65_rotated.json,http://54.235.29.9/FacialAge/BNav_EC2/DepthDuration/v2_depth_duration_MTurk/v2_DepthDuration_HTML.html#151,151,1800,946,1440,900,9-3-2022,8-36-29,22,depth_duration_stimuli/003423_2014-05-21_10-23-26_094959634447_rgbf002665-resize_2/003423_2014-05-21_10-23-26_094959634447_rgbf002665-resize_2-target.png,1000,3.2575,15.0,4286,1004,feet,jsons/v1_VE1000_randls_65_rotated.json,673316,808786,34,Woman
22,507787,DepthScenes,duration_manipulation_targetAtFixation,jsons/v1_VE1000_randls_65_rotated.json,http://54.235.29.9/FacialAge/BNav_EC2/DepthDuration/v2_depth_duration_MTurk/v2_DepthDuration_HTML.html#151,151,1800,946,1440,900,9-3-2022,8-36-29,23,depth_duration_stimuli/002905_2014-06-03_18-04-43_094959634447_rgbf000151-resize_2/002905_2014-06-03_18-04-43_094959634447_rgbf000151-resize_2-target.png,1000,2.0295,5.0,3095,1010,feet,jsons/v1_VE1000_randls_65_rotated.json,673316,808786,34,Woman
23,507787,DepthScenes,duration_manipulation_targetAtFixation,jsons/v1_VE1000_randls_65_rotated.json,http://54.235.29.9/FacialAge/BNav_EC2/DepthDuration/v2_depth_duration_MTurk/v2_DepthDuration_HTML.html#151,151,1800,946,1440,900,9-3-2022,8-36-29,24,depth_duration_stimuli/000780_2014-06-08_22-28-29_260595134347_rgbf000126-resize_1/000780_2014-06-08_22-28-29_260595134347_rgbf000126-resize_1-target.png,1000,3.3825,10.0,3738,1001,feet,jsons/v1_VE1000_randls_65_rotated.json,673316,808786,34,Woman
24,507787,DepthScenes,duration_manipulation_targetAtFixation,jsons/v1_VE1000_randls_65_rotated.json,http://54.235.29.9/FacialAge/BNav_EC2/DepthDuration/v2_depth_duration_MTurk/v2_DepthDuration_HTML.html#151,151,1800,946,1440,900,9-3-2022,8-36-29,25,depth_duration_stimuli/002445_2014-06-28_20-32-16_260595134347_rgbf000029-resize_4/002445_2014-06-28_20-32-16_260595134347_rgbf000029-resize_4-target.png,1000,2.5315,6.0,2919,996,feet,jsons/v1_VE1000_randls_65_rotated.json,673316,808786,34,Woman
25,507787,DepthScenes,duration_manipulation_targetAtFixation,jsons/v1_VE1000_randls_65_rotated.json,http://54.235.29.9/FacialAge/BNav_EC2/DepthDuration/v2_depth_duration_MTurk/v2_DepthDuration_HTML.html#151,151,1800,946,1440,900,9-3-2022,8-36-29,26,depth_duration_stimuli/001235_2014-06-17_16-37-36_260595134347_rgbf000084-resize_4/001235_2014-06-17_16-37-36_260595134347_rgbf000084-resize_4-target.png,1000,3.6605,12.0,3787,982,feet,jsons/v1_VE1000_randls_65_rotated.json,673316,808786,34,Woman
26,507787,DepthScenes,duration_manipulation_targetAtFixation,jsons/v1_VE1000_randls_65_rotated.json,http://54.235.29.9/FacialAge/BNav_EC2/DepthDuration/v2_depth_duration_MTurk/v2_DepthDuration_HTML.html#151,151,1800,946,1440,900,9-3-2022,8-36-29,27,depth_duration_stimuli/000788_2014-06-08_22-34-36_260595134347_rgbf000131-resize_1/000788_2014-06-08_22-34-36_260595134347_rgbf000131-resize_1-target.png,1000,3.359,12.0,3461,985,feet,jsons/v1_VE1000_randls_65_rotated.json,673316,808786,34,Woman
27,507787,DepthScenes,duration_manipulation_targetAtFixation,jsons/v1_VE1000_randls_65_rotated.json,http://54.235.29.9/FacialAge/BNav_EC2/DepthDuration/v2_depth_duration_MTurk/v2_DepthDuration_HTML.html#151,151,1800,946,1440,900,9-3-2022,8-36-29,28,depth_duration_stimuli/000866_2014-06-09_20-45-42_260595134347_rgbf000139-resize_1/000866_2014-06-09_20-45-42_260595134347_rgbf000139-resize_1-target.png,1000,3.2155,9.0,3336,993,feet,jsons/v1_VE1000_randls_65_rotated.json,673316,808786,34,Woman
28,507787,DepthScenes,duration_manipulation_targetAtFixation,jsons/v1_VE1000_randls_65_rotated.json,http://54.235.29.9/FacialAge/BNav_EC2/DepthDuration/v2_depth_duration_MTurk/v2_DepthDuration_HTML.html#151,151,1800,946,1440,900,9-3-2022,8-36-29,29,depth_duration_stimuli/002989_2014-06-15_12-25-03_094959634447_rgbf000150-resize_3/002989_2014-06-15_12-25-03_094959634447_rgbf000150-resize_3-target.png,1000,4.1975,12.0,3560,1012,feet,jsons/v1_VE1000_randls_65_rotated.json,673316,808786,34,Woman
29,507787,DepthScenes,duration_manipulation_targetAtFixation,jsons/v1_VE1000_randls_65_rotated.json,http://54.235.29.9/FacialAge/BNav_EC2/DepthDuration/v2_depth_duration_MTurk/v2_DepthDuration_HTML.html#151,151,1800,946,1440,900,9-3-2022,8-36-29,30,depth_duration_stimuli/002072_2014-06-24_21-48-06_260595134347_rgbf000115-resize_0/002072_2014-06-24_21-48-06_260595134347_rgbf000115-resize-original.jpg,1000,4.702,0.0,2880,1015,feet,jsons/v1_VE1000_randls_65_rotated.json,673316,808786,34,Woman
30,507787,DepthScenes,duration_manipulation_targetAtFixation,jsons/v1_VE1000_randls_65_rotated.json,http://54.235.29.9/FacialAge/BNav_EC2/DepthDuration/v2_depth_duration_MTurk/v2_DepthDuration_HTML.html#151,151,1800,946,1440,900,9-3-2022,8-36-29,31,depth_duration_stimuli/002750_2014-06-22_19-08-03_094959634447_rgbf000094-resize_4/002750_2014-06-22_19-08-03_094959634447_rgbf000094-resize_4-target.png,1000,2.354,7.0,3256,1010,feet,jsons/v1_VE1000_randls_65_rotated.json,673316,808786,34,Woman
31,507787,DepthScenes,duration_manipulation_targetAtFixation,jsons/v1_VE1000_randls_65_rotated.json,http://54.235.29.9/FacialAge/BNav_EC2/DepthDuration/v2_depth_duration_MTurk/v2_DepthDuration_HTML.html#151,151,1800,946,1440,900,9-3-2022,8-36-29,32,depth_duration_stimuli/002549_2014-06-24_13-41-39_094959634447_rgbf000022-resize_3/002549_2014-06-24_13-41-39_094959634447_rgbf000022-resize_3-target.png,1000,1.476,4.0,3250,1006,feet,jsons/v1_VE1000_randls_65_rotated.json,673316,808786,34,Woman
32,507787,DepthScenes,duration_manipulation_targetAtFixation,jsons/v1_VE1000_randls_65_rotated.json,http://54.235.29.9/FacialAge/BNav_EC2/DepthDuration/v2_depth_duration_MTurk/v2_DepthDuration_HTML.html#151,151,1800,946,1440,900,9-3-2022,8-36-29,33,depth_duration_stimuli/003083_2014-06-15_15-21-03_094959634447_rgbf000063-resize_1/003083_2014-06-15_15-21-03_094959634447_rgbf000063-resize_1-target.png,1000,4.1405,13.0,3868,1002,feet,jsons/v1_VE1000_randls_65_rotated.json,673316,808786,34,Woman
33,507787,DepthScenes,duration_manipulation_targetAtFixation,jsons/v1_VE1000_randls_65_rotated.json,http://54.235.29.9/FacialAge/BNav_EC2/DepthDuration/v2_depth_duration_MTurk/v2_DepthDuration_HTML.html#151,151,1800,946,1440,900,9-3-2022,8-36-29,34,depth_duration_stimuli/000486_2014-06-09_20-47-20_260595134347_rgbf000143-resize_2/000486_2014-06-09_20-47-20_260595134347_rgbf000143-resize_2-target.png,1000,4.8325,13.0,3200,1001,feet,jsons/v1_VE1000_randls_65_rotated.json,673316,808786,34,Woman
34,507787,DepthScenes,duration_manipulation_targetAtFixation,jsons/v1_VE1000_randls_65_rotated.json,http://54.235.29.9/FacialAge/BNav_EC2/DepthDuration/v2_depth_duration_MTurk/v2_DepthDuration_HTML.html#151,151,1800,946,1440,900,9-3-2022,8-36-29,35,depth_duration_stimuli/002444_2014-06-28_20-32-08_260595134347_rgbf000027-resize_0/002444_2014-06-28_20-32-08_260595134347_rgbf000027-resize_0-target.png,1000,4.388999999999999,11.0,4744,993,feet,jsons/v1_VE1000_randls_65_rotated.json,673316,808786,34,Woman
35,507787,DepthScenes,duration_manipulation_targetAtFixation,jsons/v1_VE1000_randls_65_rotated.json,http://54.235.29.9/FacialAge/BNav_EC2/DepthDuration/v2_depth_duration_MTurk/v2_DepthDuration_HTML.html#151,151,1800,946,1440,900,9-3-2022,8-36-29,36,depth_duration_stimuli/000436_2014-06-09_22-25-11_260595134347_rgbf000137-resize_1/000436_2014-06-09_22-25-11_260595134347_rgbf000137-resize_1-target.png,1000,4.0705,12.0,4683,986,feet,jsons/v1_VE1000_randls_65_rotated.json,673316,808786,34,Woman
36,507787,DepthScenes,duration_manipulation_targetAtFixation,jsons/v1_VE1000_randls_65_rotated.json,http://54.235.29.9/FacialAge/BNav_EC2/DepthDuration/v2_depth_duration_MTurk/v2_DepthDuration_HTML.html#151,151,1800,946,1440,900,9-3-2022,8-36-29,37,depth_duration_stimuli/001094_2014-06-15_17-36-00_260595134347_rgbf000205-resize_0/001094_2014-06-15_17-36-00_260595134347_rgbf000205-resize_0-target.png,1000,4.2175,12.0,3204,988,feet,jsons/v1_VE1000_randls_65_rotated.json,673316,808786,34,Woman
37,507787,DepthScenes,duration_manipulation_targetAtFixation,jsons/v1_VE1000_randls_65_rotated.json,http://54.235.29.9/FacialAge/BNav_EC2/DepthDuration/v2_depth_duration_MTurk/v2_DepthDuration_HTML.html#151,151,1800,946,1440,900,9-3-2022,8-36-29,38,depth_duration_stimuli/000692_2014-06-08_13-09-42_260595134347_rgbf000199-resize_2/000692_2014-06-08_13-09-42_260595134347_rgbf000199-resize_2-target.png,1000,3.661,8.0,3193,990,feet,jsons/v1_VE1000_randls_65_rotated.json,673316,808786,34,Woman
38,507787,DepthScenes,duration_manipulation_targetAtFixation,jsons/v1_VE1000_randls_65_rotated.json,http://54.235.29.9/FacialAge/BNav_EC2/DepthDuration/v2_depth_duration_MTurk/v2_DepthDuration_HTML.html#151,151,1800,946,1440,900,9-3-2022,8-36-29,39,depth_duration_stimuli/000734_2014-06-08_17-39-11_260595134347_rgbf000128-resize_2/000734_2014-06-08_17-39-11_260595134347_rgbf000128-resize_2-target.png,1000,4.098,6.0,3303,991,feet,jsons/v1_VE1000_randls_65_rotated.json,673316,808786,34,Woman
39,507787,DepthScenes,duration_manipulation_targetAtFixation,jsons/v1_VE1000_randls_65_rotated.json,http://54.235.29.9/FacialAge/BNav_EC2/DepthDuration/v2_depth_duration_MTurk/v2_DepthDuration_HTML.html#151,151,1800,946,1440,900,9-3-2022,8-36-29,40,depth_duration_stimuli/000739_2014-06-08_18-45-58_260595134347_rgbf000068-resize_1/000739_2014-06-08_18-45-58_260595134347_rgbf000068-resize_1-target.png,1000,3.534,5.0,3083,1039,feet,jsons/v1_VE1000_randls_65_rotated.json,673316,808786,34,Woman
40,507787,DepthScenes,duration_manipulation_targetAtFixation,jsons/v1_VE1000_randls_65_rotated.json,http://54.235.29.9/FacialAge/BNav_EC2/DepthDuration/v2_depth_duration_MTurk/v2_DepthDuration_HTML.html#151,151,1800,946,1440,900,9-3-2022,8-36-29,41,depth_duration_stimuli/001516_2014-06-20_16-25-09_260595134347_rgbf000076-resize_2/001516_2014-06-20_16-25-09_260595134347_rgbf000076-resize_2-target.png,1000,1.7445,6.0,3393,993,feet,jsons/v1_VE1000_randls_65_rotated.json,673316,808786,34,Woman
41,507787,DepthScenes,duration_manipulation_targetAtFixation,jsons/v1_VE1000_randls_65_rotated.json,http://54.235.29.9/FacialAge/BNav_EC2/DepthDuration/v2_depth_duration_MTurk/v2_DepthDuration_HTML.html#151,151,1800,946,1440,900,9-3-2022,8-36-29,42,depth_duration_stimuli/002118_2014-06-25_20-32-08_260595134347_rgbf000078-resize_1/002118_2014-06-25_20-32-08_260595134347_rgbf000078-resize_1-target.png,1000,2.6460000000000004,9.0,4695,1027,feet,jsons/v1_VE1000_randls_65_rotated.json,673316,808786,34,Woman
42,507787,DepthScenes,duration_manipulation_targetAtFixation,jsons/v1_VE1000_randls_65_rotated.json,http://54.235.29.9/FacialAge/BNav_EC2/DepthDuration/v2_depth_duration_MTurk/v2_DepthDuration_HTML.html#151,151,1800,946,1440,900,9-3-2022,8-36-29,43,depth_duration_stimuli/002758_2014-06-22_19-11-20_094959634447_rgbf000128-resize_1/002758_2014-06-22_19-11-20_094959634447_rgbf000128-resize_1-target.png,1000,2.555,6.0,3293,992,feet,jsons/v1_VE1000_randls_65_rotated.json,673316,808786,34,Woman
43,507787,DepthScenes,duration_manipulation_targetAtFixation,jsons/v1_VE1000_randls_65_rotated.json,http://54.235.29.9/FacialAge/BNav_EC2/DepthDuration/v2_depth_duration_MTurk/v2_DepthDuration_HTML.html#151,151,1800,946,1440,900,9-3-2022,8-36-29,44,depth_duration_stimuli/002630_2014-06-24_14-47-50_094959634447_rgbf000055-resize_1/002630_2014-06-24_14-47-50_094959634447_rgbf000055-resize_1-target.png,1000,3.0095,10.0,4271,1000,feet,jsons/v1_VE1000_randls_65_rotated.json,673316,808786,34,Woman
44,507787,DepthScenes,duration_manipulation_targetAtFixation,jsons/v1_VE1000_randls_65_rotated.json,http://54.235.29.9/FacialAge/BNav_EC2/DepthDuration/v2_depth_duration_MTurk/v2_DepthDuration_HTML.html#151,151,1800,946,1440,900,9-3-2022,8-36-29,45,depth_duration_stimuli/002637_2014-06-24_14-51-13_094959634447_rgbf000066-resize_4/002637_2014-06-24_14-51-13_094959634447_rgbf000066-resize_4-target.png,1000,1.9955,8.0,5405,992,feet,jsons/v1_VE1000_randls_65_rotated.json,673316,808786,34,Woman
45,507787,DepthScenes,duration_manipulation_targetAtFixation,jsons/v1_VE1000_randls_65_rotated.json,http://54.235.29.9/FacialAge/BNav_EC2/DepthDuration/v2_depth_duration_MTurk/v2_DepthDuration_HTML.html#151,151,1800,946,1440,900,9-3-2022,8-36-29,46,depth_duration_stimuli/003534_2014-05-22_15-06-10_094959634447_rgbf000102-resize_4/003534_2014-05-22_15-06-10_094959634447_rgbf000102-resize_4-target.png,1000,1.426,3.0,3528,987,feet,jsons/v1_VE1000_randls_65_rotated.json,673316,808786,34,Woman
46,507787,DepthScenes,duration_manipulation_targetAtFixation,jsons/v1_VE1000_randls_65_rotated.json,http://54.235.29.9/FacialAge/BNav_EC2/DepthDuration/v2_depth_duration_MTurk/v2_DepthDuration_HTML.html#151,151,1800,946,1440,900,9-3-2022,8-36-29,47,depth_duration_stimuli/002414_2014-06-28_20-24-58_260595134347_rgbf000067-resize_4/002414_2014-06-28_20-24-58_260595134347_rgbf000067-resize_4-target.png,1000,4.363,8.0,4477,987,feet,jsons/v1_VE1000_randls_65_rotated.json,673316,808786,34,Woman
47,507787,DepthScenes,duration_manipulation_targetAtFixation,jsons/v1_VE1000_randls_65_rotated.json,http://54.235.29.9/FacialAge/BNav_EC2/DepthDuration/v2_depth_duration_MTurk/v2_DepthDuration_HTML.html#151,151,1800,946,1440,900,9-3-2022,8-36-29,48,depth_duration_stimuli/000773_2014-06-08_22-24-54_260595134347_rgbf000093-resize_1/000773_2014-06-08_22-24-54_260595134347_rgbf000093-resize_1-target.png,1000,4.973,10.0,5347,994,feet,jsons/v1_VE1000_randls_65_rotated.json,673316,808786,34,Woman
48,507787,DepthScenes,duration_manipulation_targetAtFixation,jsons/v1_VE1000_randls_65_rotated.json,http://54.235.29.9/FacialAge/BNav_EC2/DepthDuration/v2_depth_duration_MTurk/v2_DepthDuration_HTML.html#151,151,1800,946,1440,900,9-3-2022,8-36-29,49,depth_duration_stimuli/001170_2014-06-17_15-43-44_260595134347_rgbf000096-resize_6/001170_2014-06-17_15-43-44_260595134347_rgbf000096-resize-original.jpg,1000,1.1909999999999998,0.0,2775,998,feet,jsons/v1_VE1000_randls_65_rotated.json,673316,808786,34,Woman
49,507787,DepthScenes,duration_manipulation_targetAtFixation,jsons/v1_VE1000_randls_65_rotated.json,http://54.235.29.9/FacialAge/BNav_EC2/DepthDuration/v2_depth_duration_MTurk/v2_DepthDuration_HTML.html#151,151,1800,946,1440,900,9-3-2022,8-36-29,50,depth_duration_stimuli/000556_2014-06-09_22-42-56_260595134347_rgbf000214-resize_1/000556_2014-06-09_22-42-56_260595134347_rgbf000214-resize_1-target.png,1000,4.8415,13.0,3800,995,feet,jsons/v1_VE1000_randls_65_rotated.json,673316,808786,34,Woman
50,507787,DepthScenes,duration_manipulation_targetAtFixation,jsons/v1_VE1000_randls_65_rotated.json,http://54.235.29.9/FacialAge/BNav_EC2/DepthDuration/v2_depth_duration_MTurk/v2_DepthDuration_HTML.html#151,151,1800,946,1440,900,9-3-2022,8-36-29,51,depth_duration_stimuli/001158_2014-06-17_15-32-16_260595134347_rgbf000138-resize_2/001158_2014-06-17_15-32-16_260595134347_rgbf000138-resize_2-target.png,1000,4.5315,15.0,3467,1011,feet,jsons/v1_VE1000_randls_65_rotated.json,673316,808786,34,Woman
51,507787,DepthScenes,duration_manipulation_targetAtFixation,jsons/v1_VE1000_randls_65_rotated.json,http://54.235.29.9/FacialAge/BNav_EC2/DepthDuration/v2_depth_duration_MTurk/v2_DepthDuration_HTML.html#151,151,1800,946,1440,900,9-3-2022,8-36-29,52,depth_duration_stimuli/001052_2014-06-08_18-24-54_260595134347_rgbf000130-resize_1/001052_2014-06-08_18-24-54_260595134347_rgbf000130-resize_1-target.png,1000,4.1045,12.0,4278,999,feet,jsons/v1_VE1000_randls_65_rotated.json,673316,808786,34,Woman
52,507787,DepthScenes,duration_manipulation_targetAtFixation,jsons/v1_VE1000_randls_65_rotated.json,http://54.235.29.9/FacialAge/BNav_EC2/DepthDuration/v2_depth_duration_MTurk/v2_DepthDuration_HTML.html#151,151,1800,946,1440,900,9-3-2022,8-36-29,53,depth_duration_stimuli/002988_2014-06-15_12-24-20_094959634447_rgbf000150-resize_1/002988_2014-06-15_12-24-20_094959634447_rgbf000150-resize_1-target.png,1000,4.7669999999999995,12.0,3439,989,feet,jsons/v1_VE1000_randls_65_rotated.json,673316,808786,34,Woman
53,507787,DepthScenes,duration_manipulation_targetAtFixation,jsons/v1_VE1000_randls_65_rotated.json,http://54.235.29.9/FacialAge/BNav_EC2/DepthDuration/v2_depth_duration_MTurk/v2_DepthDuration_HTML.html#151,151,1800,946,1440,900,9-3-2022,8-36-29,54,depth_duration_stimuli/001447_2014-06-19_17-00-32_260595134347_rgbf000082-resize_5/001447_2014-06-19_17-00-32_260595134347_rgbf000082-resize_5-target.png,1000,4.13775,8.0,3301,990,feet,jsons/v1_VE1000_randls_65_rotated.json,673316,808786,34,Woman
54,507787,DepthScenes,duration_manipulation_targetAtFixation,jsons/v1_VE1000_randls_65_rotated.json,http://54.235.29.9/FacialAge/BNav_EC2/DepthDuration/v2_depth_duration_MTurk/v2_DepthDuration_HTML.html#151,151,1800,946,1440,900,9-3-2022,8-36-29,55,depth_duration_stimuli/000447_2014-06-08_16-15-46_260595134347_rgbf000130-resize_1/000447_2014-06-08_16-15-46_260595134347_rgbf000130-resize_1-target.png,1000,4.479,12.0,3591,1021,feet,jsons/v1_VE1000_randls_65_rotated.json,673316,808786,34,Woman
55,507787,DepthScenes,duration_manipulation_targetAtFixation,jsons/v1_VE1000_randls_65_rotated.json,http://54.235.29.9/FacialAge/BNav_EC2/DepthDuration/v2_depth_duration_MTurk/v2_DepthDuration_HTML.html#151,151,1800,946,1440,900,9-3-2022,8-36-29,56,depth_duration_stimuli/001584_2014-06-20_11-07-43_260595134347_rgbf000002-resize_1/001584_2014-06-20_11-07-43_260595134347_rgbf000002-resize_1-target.png,1000,3.53,8.0,3958,1004,feet,jsons/v1_VE1000_randls_65_rotated.json,673316,808786,34,Woman
56,507787,DepthScenes,duration_manipulation_targetAtFixation,jsons/v1_VE1000_randls_65_rotated.json,http://54.235.29.9/FacialAge/BNav_EC2/DepthDuration/v2_depth_duration_MTurk/v2_DepthDuration_HTML.html#151,151,1800,946,1440,900,9-3-2022,8-36-29,57,depth_duration_stimuli/003621_2014-05-23_18-06-08_094959634447_rgbf000101-resize_1/003621_2014-05-23_18-06-08_094959634447_rgbf000101-resize_1-target.png,1000,3.9835,12.0,3212,994,feet,jsons/v1_VE1000_randls_65_rotated.json,673316,808786,34,Woman
57,507787,DepthScenes,duration_manipulation_targetAtFixation,jsons/v1_VE1000_randls_65_rotated.json,http://54.235.29.9/FacialAge/BNav_EC2/DepthDuration/v2_depth_duration_MTurk/v2_DepthDuration_HTML.html#151,151,1800,946,1440,900,9-3-2022,8-36-29,58,depth_duration_stimuli/001617_2014-06-20_11-35-32_260595134347_rgbf000066-resize_1/001617_2014-06-20_11-35-32_260595134347_rgbf000066-resize_1-target.png,1000,3.7910000000000004,8.0,2993,999,feet,jsons/v1_VE1000_randls_65_rotated.json,673316,808786,34,Woman
58,507787,DepthScenes,duration_manipulation_targetAtFixation,jsons/v1_VE1000_randls_65_rotated.json,http://54.235.29.9/FacialAge/BNav_EC2/DepthDuration/v2_depth_duration_MTurk/v2_DepthDuration_HTML.html#151,151,1800,946,1440,900,9-3-2022,8-36-29,59,depth_duration_stimuli/001806_2014-06-26_20-50-20_260595134347_rgbf000091-resize_1/001806_2014-06-26_20-50-20_260595134347_rgbf000091-resize_1-target.png,1000,2.7305,7.0,3384,1002,feet,jsons/v1_VE1000_randls_65_rotated.json,673316,808786,34,Woman
59,507787,DepthScenes,duration_manipulation_targetAtFixation,jsons/v1_VE1000_randls_65_rotated.json,http://54.235.29.9/FacialAge/BNav_EC2/DepthDuration/v2_depth_duration_MTurk/v2_DepthDuration_HTML.html#151,151,1800,946,1440,900,9-3-2022,8-36-29,60,depth_duration_stimuli/002805_2014-06-22_19-54-03_094959634447_rgbf000079-resize_1/002805_2014-06-22_19-54-03_094959634447_rgbf000079-resize_1-target.png,1000,3.1439999999999997,10.0,4410,991,feet,jsons/v1_VE1000_randls_65_rotated.json,673316,808786,34,Woman
60,507787,DepthScenes,duration_manipulation_targetAtFixation,jsons/v1_VE1000_randls_65_rotated.json,http://54.235.29.9/FacialAge/BNav_EC2/DepthDuration/v2_depth_duration_MTurk/v2_DepthDuration_HTML.html#151,151,1800,946,1440,900,9-3-2022,8-36-29,61,depth_duration_stimuli/000906_2014-06-08_13-35-43_260595134347_rgbf000155-resize_1/000906_2014-06-08_13-35-43_260595134347_rgbf000155-resize_1-target.png,1000,2.8489999999999998,10.0,3572,997,feet,jsons/v1_VE1000_randls_65_rotated.json,673316,808786,34,Woman
61,507787,DepthScenes,duration_manipulation_targetAtFixation,jsons/v1_VE1000_randls_65_rotated.json,http://54.235.29.9/FacialAge/BNav_EC2/DepthDuration/v2_depth_duration_MTurk/v2_DepthDuration_HTML.html#151,151,1800,946,1440,900,9-3-2022,8-36-29,62,depth_duration_stimuli/001032_2014-06-08_13-23-17_260595134347_rgbf000021-resize_3/001032_2014-06-08_13-23-17_260595134347_rgbf000021-resize_3-target.png,1000,3.2725,8.0,3798,992,feet,jsons/v1_VE1000_randls_65_rotated.json,673316,808786,34,Woman
62,507787,DepthScenes,duration_manipulation_targetAtFixation,jsons/v1_VE1000_randls_65_rotated.json,http://54.235.29.9/FacialAge/BNav_EC2/DepthDuration/v2_depth_duration_MTurk/v2_DepthDuration_HTML.html#151,151,1800,946,1440,900,9-3-2022,8-36-29,63,depth_duration_stimuli/001059_2014-06-08_21-53-27_260595134347_rgbf000061-resize_4/001059_2014-06-08_21-53-27_260595134347_rgbf000061-resize_4-target.png,1000,2.4185,7.0,3261,1006,feet,jsons/v1_VE1000_randls_65_rotated.json,673316,808786,34,Woman
63,507787,DepthScenes,duration_manipulation_targetAtFixation,jsons/v1_VE1000_randls_65_rotated.json,http://54.235.29.9/FacialAge/BNav_EC2/DepthDuration/v2_depth_duration_MTurk/v2_DepthDuration_HTML.html#151,151,1800,946,1440,900,9-3-2022,8-36-29,64,depth_duration_stimuli/001214_2014-06-17_16-13-55_260595134347_rgbf000111-resize_0/001214_2014-06-17_16-13-55_260595134347_rgbf000111-resize_0-target.png,1000,2.6505,8.0,3132,1001,feet,jsons/v1_VE1000_randls_65_rotated.json,673316,808786,34,Woman
64,507787,DepthScenes,duration_manipulation_targetAtFixation,jsons/v1_VE1000_randls_65_rotated.json,http://54.235.29.9/FacialAge/BNav_EC2/DepthDuration/v2_depth_duration_MTurk/v2_DepthDuration_HTML.html#151,151,1800,946,1440,900,9-3-2022,8-36-29,65,depth_duration_stimuli/000810_2014-06-08_17-20-01_260595134347_rgbf000105-resize_0/000810_2014-06-08_17-20-01_260595134347_rgbf000105-resize_0-target.png,1000,1.4865,7.0,3799,1019,feet,jsons/v1_VE1000_randls_65_rotated.json,673316,808786,34,Woman
65,507787,DepthScenes,duration_manipulation_targetAtFixation,jsons/v1_VE1000_randls_65_rotated.json,http://54.235.29.9/FacialAge/BNav_EC2/DepthDuration/v2_depth_duration_MTurk/v2_DepthDuration_HTML.html#151,151,1800,946,1440,900,9-3-2022,8-36-29,66,depth_duration_stimuli/001540_2014-06-20_17-01-05_260595134347_rgbf000086-resize_2/001540_2014-06-20_17-01-05_260595134347_rgbf000086-resize-original.jpg,1000,1.459,0.0,2954,1010,feet,jsons/v1_VE1000_randls_65_rotated.json,673316,808786,34,Woman
66,507787,DepthScenes,duration_manipulation_targetAtFixation,jsons/v1_VE1000_randls_65_rotated.json,http://54.235.29.9/FacialAge/BNav_EC2/DepthDuration/v2_depth_duration_MTurk/v2_DepthDuration_HTML.html#151,151,1800,946,1440,900,9-3-2022,8-36-29,67,depth_duration_stimuli/002953_2014-06-08_17-32-18_094959634447_rgbf000059-resize_5/002953_2014-06-08_17-32-18_094959634447_rgbf000059-resize_5-target.png,1000,1.551,3.0,3546,1009,feet,jsons/v1_VE1000_randls_65_rotated.json,673316,808786,34,Woman
67,507787,DepthScenes,duration_manipulation_targetAtFixation,jsons/v1_VE1000_randls_65_rotated.json,http://54.235.29.9/FacialAge/BNav_EC2/DepthDuration/v2_depth_duration_MTurk/v2_DepthDuration_HTML.html#151,151,1800,946,1440,900,9-3-2022,8-36-29,68,depth_duration_stimuli/000878_2014-06-08_22-52-45_260595134347_rgbf000045-resize_2/000878_2014-06-08_22-52-45_260595134347_rgbf000045-resize_2-target.png,1000,2.092,6.0,3113,986,feet,jsons/v1_VE1000_randls_65_rotated.json,673316,808786,34,Woman
68,507787,DepthScenes,duration_manipulation_targetAtFixation,jsons/v1_VE1000_randls_65_rotated.json,http://54.235.29.9/FacialAge/BNav_EC2/DepthDuration/v2_depth_duration_MTurk/v2_DepthDuration_HTML.html#151,151,1800,946,1440,900,9-3-2022,8-36-29,69,depth_duration_stimuli/001132_2014-06-17_14-48-54_260595134347_rgbf000100-resize_2/001132_2014-06-17_14-48-54_260595134347_rgbf000100-resize_2-target.png,1000,3.753,7.0,2895,986,feet,jsons/v1_VE1000_randls_65_rotated.json,673316,808786,34,Woman
69,507787,DepthScenes,duration_manipulation_targetAtFixation,jsons/v1_VE1000_randls_65_rotated.json,http://54.235.29.9/FacialAge/BNav_EC2/DepthDuration/v2_depth_duration_MTurk/v2_DepthDuration_HTML.html#151,151,1800,946,1440,900,9-3-2022,8-36-29,70,depth_duration_stimuli/001133_2014-06-17_14-49-16_260595134347_rgbf000100-resize_0/001133_2014-06-17_14-49-16_260595134347_rgbf000100-resize_0-target.png,1000,4.2115,8.0,2912,991,feet,jsons/v1_VE1000_randls_65_rotated.json,673316,808786,34,Woman
70,507787,DepthScenes,duration_manipulation_targetAtFixation,jsons/v1_VE1000_randls_65_rotated.json,http://54.235.29.9/FacialAge/BNav_EC2/DepthDuration/v2_depth_duration_MTurk/v2_DepthDuration_HTML.html#151,151,1800,946,1440,900,9-3-2022,8-36-29,71,depth_duration_stimuli/000854_2014-06-09_19-43-13_260595134347_rgbf000066-resize_0/000854_2014-06-09_19-43-13_260595134347_rgbf000066-resize_0-target.png,1000,3.068,7.0,4622,1003,feet,jsons/v1_VE1000_randls_65_rotated.json,673316,808786,34,Woman
71,507787,DepthScenes,duration_manipulation_targetAtFixation,jsons/v1_VE1000_randls_65_rotated.json,http://54.235.29.9/FacialAge/BNav_EC2/DepthDuration/v2_depth_duration_MTurk/v2_DepthDuration_HTML.html#151,151,1800,946,1440,900,9-3-2022,8-36-29,72,depth_duration_stimuli/000758_2014-06-08_22-05-08_260595134347_rgbf000085-resize_0/000758_2014-06-08_22-05-08_260595134347_rgbf000085-resize_0-target.png,1000,3.3810000000000002,11.0,3506,1000,feet,jsons/v1_VE1000_randls_65_rotated.json,673316,808786,34,Woman
72,507787,DepthScenes,duration_manipulation_targetAtFixation,jsons/v1_VE1000_randls_65_rotated.json,http://54.235.29.9/FacialAge/BNav_EC2/DepthDuration/v2_depth_duration_MTurk/v2_DepthDuration_HTML.html#151,151,1800,946,1440,900,9-3-2022,8-36-29,73,depth_duration_stimuli/000665_2014-06-09_20-42-35_260595134347_rgbf000110-resize_1/000665_2014-06-09_20-42-35_260595134347_rgbf000110-resize_1-target.png,1000,3.057,8.0,3958,980,feet,jsons/v1_VE1000_randls_65_rotated.json,673316,808786,34,Woman
73,507787,DepthScenes,duration_manipulation_targetAtFixation,jsons/v1_VE1000_randls_65_rotated.json,http://54.235.29.9/FacialAge/BNav_EC2/DepthDuration/v2_depth_duration_MTurk/v2_DepthDuration_HTML.html#151,151,1800,946,1440,900,9-3-2022,8-36-29,74,depth_duration_stimuli/001150_2014-06-17_15-27-34_260595134347_rgbf000108-resize_2/001150_2014-06-17_15-27-34_260595134347_rgbf000108-resize_2-target.png,1000,4.0325,11.0,3920,1022,feet,jsons/v1_VE1000_randls_65_rotated.json,673316,808786,34,Woman
74,507787,DepthScenes,duration_manipulation_targetAtFixation,jsons/v1_VE1000_randls_65_rotated.json,http://54.235.29.9/FacialAge/BNav_EC2/DepthDuration/v2_depth_duration_MTurk/v2_DepthDuration_HTML.html#151,151,1800,946,1440,900,9-3-2022,8-36-29,75,depth_duration_stimuli/000677_2014-06-08_23-10-32_260595134347_rgbf000158-resize_6/000677_2014-06-08_23-10-32_260595134347_rgbf000158-resize_6-target.png,1000,3.556,8.0,3798,995,feet,jsons/v1_VE1000_randls_65_rotated.json,673316,808786,34,Woman
75,507787,DepthScenes,duration_manipulation_targetAtFixation,jsons/v1_VE1000_randls_65_rotated.json,http://54.235.29.9/FacialAge/BNav_EC2/DepthDuration/v2_depth_duration_MTurk/v2_DepthDuration_HTML.html#151,151,1800,946,1440,900,9-3-2022,8-36-29,76,depth_duration_stimuli/001029_2014-06-08_13-17-57_260595134347_rgbf000065-resize_1/001029_2014-06-08_13-17-57_260595134347_rgbf000065-resize_1-target.png,1000,3.0835,11.0,4045,985,feet,jsons/v1_VE1000_randls_65_rotated.json,673316,808786,34,Woman
76,507787,DepthScenes,duration_manipulation_targetAtFixation,jsons/v1_VE1000_randls_65_rotated.json,http://54.235.29.9/FacialAge/BNav_EC2/DepthDuration/v2_depth_duration_MTurk/v2_DepthDuration_HTML.html#151,151,1800,946,1440,900,9-3-2022,8-36-29,77,depth_duration_stimuli/000749_2014-06-08_21-55-06_260595134347_rgbf000070-resize_2/000749_2014-06-08_21-55-06_260595134347_rgbf000070-resize_2-target.png,1000,2.331,8.0,7205,1004,feet,jsons/v1_VE1000_randls_65_rotated.json,673316,808786,34,Woman
77,507787,DepthScenes,duration_manipulation_targetAtFixation,jsons/v1_VE1000_randls_65_rotated.json,http://54.235.29.9/FacialAge/BNav_EC2/DepthDuration/v2_depth_duration_MTurk/v2_DepthDuration_HTML.html#151,151,1800,946,1440,900,9-3-2022,8-36-29,78,depth_duration_stimuli/002788_2014-06-22_19-36-03_094959634447_rgbf000088-resize_2/002788_2014-06-22_19-36-03_094959634447_rgbf000088-resize_2-target.png,1000,1.6465,10.0,4829,1004,feet,jsons/v1_VE1000_randls_65_rotated.json,673316,808786,34,Woman
78,507787,DepthScenes,duration_manipulation_targetAtFixation,jsons/v1_VE1000_randls_65_rotated.json,http://54.235.29.9/FacialAge/BNav_EC2/DepthDuration/v2_depth_duration_MTurk/v2_DepthDuration_HTML.html#151,151,1800,946,1440,900,9-3-2022,8-36-29,79,depth_duration_stimuli/000103_2014-05-14_22-01-17_260595134347_rgbf000152-resize_5/000103_2014-05-14_22-01-17_260595134347_rgbf000152-resize_5-target.png,1000,1.993,7.0,3166,955,feet,jsons/v1_VE1000_randls_65_rotated.json,673316,808786,34,Woman
79,507787,DepthScenes,duration_manipulation_targetAtFixation,jsons/v1_VE1000_randls_65_rotated.json,http://54.235.29.9/FacialAge/BNav_EC2/DepthDuration/v2_depth_duration_MTurk/v2_DepthDuration_HTML.html#151,151,1800,946,1440,900,9-3-2022,8-36-29,80,depth_duration_stimuli/001555_2014-06-20_17-12-10_260595134347_rgbf000065-resize_4/001555_2014-06-20_17-12-10_260595134347_rgbf000065-resize_4-target.png,1000,1.633,4.0,3136,1009,feet,jsons/v1_VE1000_randls_65_rotated.json,673316,808786,34,Woman
80,507787,DepthScenes,duration_manipulation_targetAtFixation,jsons/v1_VE1000_randls_65_rotated.json,http://54.235.29.9/FacialAge/BNav_EC2/DepthDuration/v2_depth_duration_MTurk/v2_DepthDuration_HTML.html#151,151,1800,946,1440,900,9-3-2022,8-36-29,81,depth_duration_stimuli/000742_2014-06-08_18-48-09_260595134347_rgbf000164-resize_4/000742_2014-06-08_18-48-09_260595134347_rgbf000164-resize_4-target.png,1000,4.632,9.0,5153,991,feet,jsons/v1_VE1000_randls_65_rotated.json,673316,808786,34,Woman
81,507787,DepthScenes,duration_manipulation_targetAtFixation,jsons/v1_VE1000_randls_65_rotated.json,http://54.235.29.9/FacialAge/BNav_EC2/DepthDuration/v2_depth_duration_MTurk/v2_DepthDuration_HTML.html#151,151,1800,946,1440,900,9-3-2022,8-36-29,82,depth_duration_stimuli/001066_2014-06-08_22-03-20_260595134347_rgbf000066-resize_4/001066_2014-06-08_22-03-20_260595134347_rgbf000066-resize_4-target.png,1000,4.2330000000000005,10.0,6160,1010,feet,jsons/v1_VE1000_randls_65_rotated.json,673316,808786,34,Woman
82,507787,DepthScenes,duration_manipulation_targetAtFixation,jsons/v1_VE1000_randls_65_rotated.json,http://54.235.29.9/FacialAge/BNav_EC2/DepthDuration/v2_depth_duration_MTurk/v2_DepthDuration_HTML.html#151,151,1800,946,1440,900,9-3-2022,8-36-29,83,depth_duration_stimuli/000457_2014-06-08_16-52-43_260595134347_rgbf000199-resize_1/000457_2014-06-08_16-52-43_260595134347_rgbf000199-resize_1-target.png,1000,3.6489999999999996,7.0,3543,988,feet,jsons/v1_VE1000_randls_65_rotated.json,673316,808786,34,Woman
83,507787,DepthScenes,duration_manipulation_targetAtFixation,jsons/v1_VE1000_randls_65_rotated.json,http://54.235.29.9/FacialAge/BNav_EC2/DepthDuration/v2_depth_duration_MTurk/v2_DepthDuration_HTML.html#151,151,1800,946,1440,900,9-3-2022,8-36-29,84,depth_duration_stimuli/000929_2014-06-09_16-33-19_260595134347_rgbf000139-resize_0/000929_2014-06-09_16-33-19_260595134347_rgbf000139-resize_0-target.png,1000,2.8680000000000003,6.0,3161,992,feet,jsons/v1_VE1000_randls_65_rotated.json,673316,808786,34,Woman
84,507787,DepthScenes,duration_manipulation_targetAtFixation,jsons/v1_VE1000_randls_65_rotated.json,http://54.235.29.9/FacialAge/BNav_EC2/DepthDuration/v2_depth_duration_MTurk/v2_DepthDuration_HTML.html#151,151,1800,946,1440,900,9-3-2022,8-36-29,85,depth_duration_stimuli/002340_2014-06-28_20-05-46_260595134347_rgbf000113-resize_0/002340_2014-06-28_20-05-46_260595134347_rgbf000113-resize_0-target.png,1000,2.4735,7.0,3093,1006,feet,jsons/v1_VE1000_randls_65_rotated.json,673316,808786,34,Woman
85,507787,DepthScenes,duration_manipulation_targetAtFixation,jsons/v1_VE1000_randls_65_rotated.json,http://54.235.29.9/FacialAge/BNav_EC2/DepthDuration/v2_depth_duration_MTurk/v2_DepthDuration_HTML.html#151,151,1800,946,1440,900,9-3-2022,8-36-29,86,depth_duration_stimuli/001016_2014-06-09_16-16-10_260595134347_rgbf000112-resize_5/001016_2014-06-09_16-16-10_260595134347_rgbf000112-resize_5-target.png,1000,1.6565,5.0,2981,1009,feet,jsons/v1_VE1000_randls_65_rotated.json,673316,808786,34,Woman
86,507787,DepthScenes,duration_manipulation_targetAtFixation,jsons/v1_VE1000_randls_65_rotated.json,http://54.235.29.9/FacialAge/BNav_EC2/DepthDuration/v2_depth_duration_MTurk/v2_DepthDuration_HTML.html#151,151,1800,946,1440,900,9-3-2022,8-36-29,87,depth_duration_stimuli/002323_2014-06-28_20-01-54_260595134347_rgbf000051-resize_4/002323_2014-06-28_20-01-54_260595134347_rgbf000051-resize_4-target.png,1000,3.7310000000000003,10.0,3701,994,feet,jsons/v1_VE1000_randls_65_rotated.json,673316,808786,34,Woman
87,507787,DepthScenes,duration_manipulation_targetAtFixation,jsons/v1_VE1000_randls_65_rotated.json,http://54.235.29.9/FacialAge/BNav_EC2/DepthDuration/v2_depth_duration_MTurk/v2_DepthDuration_HTML.html#151,151,1800,946,1440,900,9-3-2022,8-36-29,88,depth_duration_stimuli/000917_2014-06-09_22-45-29_260595134347_rgbf000149-resize_3/000917_2014-06-09_22-45-29_260595134347_rgbf000149-resize_3-target.png,1000,4.1865,13.0,4034,1004,feet,jsons/v1_VE1000_randls_65_rotated.json,673316,808786,34,Woman
88,507787,DepthScenes,duration_manipulation_targetAtFixation,jsons/v1_VE1000_randls_65_rotated.json,http://54.235.29.9/FacialAge/BNav_EC2/DepthDuration/v2_depth_duration_MTurk/v2_DepthDuration_HTML.html#151,151,1800,946,1440,900,9-3-2022,8-36-29,89,depth_duration_stimuli/002875_2014-06-01_15-19-00_094959634447_rgbf000151-resize_1/002875_2014-06-01_15-19-00_094959634447_rgbf000151-resize_1-target.png,1000,1.9675,5.0,2959,1001,feet,jsons/v1_VE1000_randls_65_rotated.json,673316,808786,34,Woman
89,507787,DepthScenes,duration_manipulation_targetAtFixation,jsons/v1_VE1000_randls_65_rotated.json,http://54.235.29.9/FacialAge/BNav_EC2/DepthDuration/v2_depth_duration_MTurk/v2_DepthDuration_HTML.html#151,151,1800,946,1440,900,9-3-2022,8-36-29,90,depth_duration_stimuli/001011_2014-06-08_23-18-54_260595134347_rgbf000044-resize_4/001011_2014-06-08_23-18-54_260595134347_rgbf000044-resize_4-target.png,1000,2.4730000000000003,10.0,4548,1004,feet,jsons/v1_VE1000_randls_65_rotated.json,673316,808786,34,Woman
90,507787,DepthScenes,duration_manipulation_targetAtFixation,jsons/v1_VE1000_randls_65_rotated.json,http://54.235.29.9/FacialAge/BNav_EC2/DepthDuration/v2_depth_duration_MTurk/v2_DepthDuration_HTML.html#151,151,1800,946,1440,900,9-3-2022,8-36-29,91,depth_duration_stimuli/003228_2014-05-14_13-42-35_094959634447_rgbf000101-resize_1/003228_2014-05-14_13-42-35_094959634447_rgbf000101-resize_1-target.png,1000,1.9680000000000002,6.0,3137,1009,feet,jsons/v1_VE1000_randls_65_rotated.json,673316,808786,34,Woman
91,507787,DepthScenes,duration_manipulation_targetAtFixation,jsons/v1_VE1000_randls_65_rotated.json,http://54.235.29.9/FacialAge/BNav_EC2/DepthDuration/v2_depth_duration_MTurk/v2_DepthDuration_HTML.html#151,151,1800,946,1440,900,9-3-2022,8-36-29,92,depth_duration_stimuli/002600_2014-06-24_14-27-04_094959634447_rgbf000074-resize_2/002600_2014-06-24_14-27-04_094959634447_rgbf000074-resize_2-target.png,1000,2.7575,10.0,4722,1000,feet,jsons/v1_VE1000_randls_65_rotated.json,673316,808786,34,Woman
92,507787,DepthScenes,duration_manipulation_targetAtFixation,jsons/v1_VE1000_randls_65_rotated.json,http://54.235.29.9/FacialAge/BNav_EC2/DepthDuration/v2_depth_duration_MTurk/v2_DepthDuration_HTML.html#151,151,1800,946,1440,900,9-3-2022,8-36-29,93,depth_duration_stimuli/003010_2014-06-15_12-54-35_094959634447_rgbf000112-resize_0/003010_2014-06-15_12-54-35_094959634447_rgbf000112-resize_0-target.png,1000,3.1185,8.0,3458,1003,feet,jsons/v1_VE1000_randls_65_rotated.json,673316,808786,34,Woman
93,507787,DepthScenes,duration_manipulation_targetAtFixation,jsons/v1_VE1000_randls_65_rotated.json,http://54.235.29.9/FacialAge/BNav_EC2/DepthDuration/v2_depth_duration_MTurk/v2_DepthDuration_HTML.html#151,151,1800,946,1440,900,9-3-2022,8-36-29,94,depth_duration_stimuli/001810_2014-06-26_20-51-35_260595134347_rgbf000040-resize_3/001810_2014-06-26_20-51-35_260595134347_rgbf000040-resize_3-target.png,1000,2.2525,6.0,2820,998,feet,jsons/v1_VE1000_randls_65_rotated.json,673316,808786,34,Woman
94,507787,DepthScenes,duration_manipulation_targetAtFixation,jsons/v1_VE1000_randls_65_rotated.json,http://54.235.29.9/FacialAge/BNav_EC2/DepthDuration/v2_depth_duration_MTurk/v2_DepthDuration_HTML.html#151,151,1800,946,1440,900,9-3-2022,8-36-29,95,depth_duration_stimuli/002995_2014-06-15_12-31-26_094959634447_rgbf000150-resize_1/002995_2014-06-15_12-31-26_094959634447_rgbf000150-resize_1-target.png,1000,3.8360000000000003,10.0,3437,1000,feet,jsons/v1_VE1000_randls_65_rotated.json,673316,808786,34,Woman
95,507787,DepthScenes,duration_manipulation_targetAtFixation,jsons/v1_VE1000_randls_65_rotated.json,http://54.235.29.9/FacialAge/BNav_EC2/DepthDuration/v2_depth_duration_MTurk/v2_DepthDuration_HTML.html#151,151,1800,946,1440,900,9-3-2022,8-36-29,96,depth_duration_stimuli/002748_2014-06-22_19-07-22_094959634447_rgbf000078-resize_1/002748_2014-06-22_19-07-22_094959634447_rgbf000078-resize_1-target.png,1000,4.6705,12.0,3147,989,feet,jsons/v1_VE1000_randls_65_rotated.json,673316,808786,34,Woman
96,507787,DepthScenes,duration_manipulation_targetAtFixation,jsons/v1_VE1000_randls_65_rotated.json,http://54.235.29.9/FacialAge/BNav_EC2/DepthDuration/v2_depth_duration_MTurk/v2_DepthDuration_HTML.html#151,151,1800,946,1440,900,9-3-2022,8-36-29,97,depth_duration_stimuli/002467_2014-06-28_20-38-07_260595134347_rgbf000026-resize_2/002467_2014-06-28_20-38-07_260595134347_rgbf000026-resize_2-target.png,1000,4.742,12.0,2691,1011,feet,jsons/v1_VE1000_randls_65_rotated.json,673316,808786,34,Woman
97,507787,DepthScenes,duration_manipulation_targetAtFixation,jsons/v1_VE1000_randls_65_rotated.json,http://54.235.29.9/FacialAge/BNav_EC2/DepthDuration/v2_depth_duration_MTurk/v2_DepthDuration_HTML.html#151,151,1800,946,1440,900,9-3-2022,8-36-29,98,depth_duration_stimuli/002570_2014-06-24_13-59-54_094959634447_rgbf000059-resize_0/002570_2014-06-24_13-59-54_094959634447_rgbf000059-resize_0-target.png,1000,4.037,11.0,4051,1007,feet,jsons/v1_VE1000_randls_65_rotated.json,673316,808786,34,Woman
98,507787,DepthScenes,duration_manipulation_targetAtFixation,jsons/v1_VE1000_randls_65_rotated.json,http://54.235.29.9/FacialAge/BNav_EC2/DepthDuration/v2_depth_duration_MTurk/v2_DepthDuration_HTML.html#151,151,1800,946,1440,900,9-3-2022,8-36-29,99,depth_duration_stimuli/001222_2014-06-17_16-24-06_260595134347_rgbf000073-resize_0/001222_2014-06-17_16-24-06_260595134347_rgbf000073-resize-original.jpg,1000,1.4385,0.0,2834,998,feet,jsons/v1_VE1000_randls_65_rotated.json,673316,808786,34,Woman
99,507787,DepthScenes,duration_manipulation_targetAtFixation,jsons/v1_VE1000_randls_65_rotated.json,http://54.235.29.9/FacialAge/BNav_EC2/DepthDuration/v2_depth_duration_MTurk/v2_DepthDuration_HTML.html#151,151,1800,946,1440,900,9-3-2022,8-36-29,100,depth_duration_stimuli/003495_2014-05-21_16-01-51_094959634447_rgbf000100-resize_3/003495_2014-05-21_16-01-51_094959634447_rgbf000100-resize_3-target.png,1000,1.6255,3.0,2877,980,feet,jsons/v1_VE1000_randls_65_rotated.json,673316,808786,34,Woman
100,507787,DepthScenes,duration_manipulation_targetAtFixation,jsons/v1_VE1000_randls_65_rotated.json,http://54.235.29.9/FacialAge/BNav_EC2/DepthDuration/v2_depth_duration_MTurk/v2_DepthDuration_HTML.html#151,151,1800,946,1440,900,9-3-2022,8-36-29,101,depth_duration_stimuli/001244_2014-06-17_16-47-45_260595134347_rgbf000030-resize_4/001244_2014-06-17_16-47-45_260595134347_rgbf000030-resize_4-target.png,1000,2.0425,5.0,3073,1004,feet,jsons/v1_VE1000_randls_65_rotated.json,673316,808786,34,Woman
101,507787,DepthScenes,duration_manipulation_targetAtFixation,jsons/v1_VE1000_randls_65_rotated.json,http://54.235.29.9/FacialAge/BNav_EC2/DepthDuration/v2_depth_duration_MTurk/v2_DepthDuration_HTML.html#151,151,1800,946,1440,900,9-3-2022,8-36-29,102,depth_duration_stimuli/000137_2014-05-20_17-04-49_260595134347_rgbf000120-resize_1/000137_2014-05-20_17-04-49_260595134347_rgbf000120-resize_1-target.png,1000,3.786,9.0,3027,1000,feet,jsons/v1_VE1000_randls_65_rotated.json,673316,808786,34,Woman
102,507787,DepthScenes,duration_manipulation_targetAtFixation,jsons/v1_VE1000_randls_65_rotated.json,http://54.235.29.9/FacialAge/BNav_EC2/DepthDuration/v2_depth_duration_MTurk/v2_DepthDuration_HTML.html#151,151,1800,946,1440,900,9-3-2022,8-36-29,103,depth_duration_stimuli/000736_2014-06-08_18-24-15_260595134347_rgbf000206-resize_3/000736_2014-06-08_18-24-15_260595134347_rgbf000206-resize_3-target.png,1000,3.515,7.0,3144,1010,feet,jsons/v1_VE1000_randls_65_rotated.json,673316,808786,34,Woman
103,507787,DepthScenes,duration_manipulation_targetAtFixation,jsons/v1_VE1000_randls_65_rotated.json,http://54.235.29.9/FacialAge/BNav_EC2/DepthDuration/v2_depth_duration_MTurk/v2_DepthDuration_HTML.html#151,151,1800,946,1440,900,9-3-2022,8-36-29,104,depth_duration_stimuli/001828_2014-06-26_21-40-03_260595134347_rgbf000024-resize_0/001828_2014-06-26_21-40-03_260595134347_rgbf000024-resize_0-target.png,1000,4.8260000000000005,10.0,3535,958,feet,jsons/v1_VE1000_randls_65_rotated.json,673316,808786,34,Woman
104,507787,DepthScenes,duration_manipulation_targetAtFixation,jsons/v1_VE1000_randls_65_rotated.json,http://54.235.29.9/FacialAge/BNav_EC2/DepthDuration/v2_depth_duration_MTurk/v2_DepthDuration_HTML.html#151,151,1800,946,1440,900,9-3-2022,8-36-29,105,depth_duration_stimuli/000009_2014-05-26_14-32-05_260595134347_rgbf000034-resize_3/000009_2014-05-26_14-32-05_260595134347_rgbf000034-resize_3-target.png,1000,3.8715,11.0,3713,1040,feet,jsons/v1_VE1000_randls_65_rotated.json,673316,808786,34,Woman
105,507787,DepthScenes,duration_manipulation_targetAtFixation,jsons/v1_VE1000_randls_65_rotated.json,http://54.235.29.9/FacialAge/BNav_EC2/DepthDuration/v2_depth_duration_MTurk/v2_DepthDuration_HTML.html#151,151,1800,946,1440,900,9-3-2022,8-36-29,106,depth_duration_stimuli/002136_2014-06-25_21-18-03_260595134347_rgbf000109-resize_3/002136_2014-06-25_21-18-03_260595134347_rgbf000109-resize_3-target.png,1000,1.9569999999999999,9.0,3759,989,feet,jsons/v1_VE1000_randls_65_rotated.json,673316,808786,34,Woman
106,507787,DepthScenes,duration_manipulation_targetAtFixation,jsons/v1_VE1000_randls_65_rotated.json,http://54.235.29.9/FacialAge/BNav_EC2/DepthDuration/v2_depth_duration_MTurk/v2_DepthDuration_HTML.html#151,151,1800,946,1440,900,9-3-2022,8-36-29,107,depth_duration_stimuli/002964_2014-06-08_17-46-11_094959634447_rgbf000091-resize_4/002964_2014-06-08_17-46-11_094959634447_rgbf000091-resize_4-target.png,1000,1.6909999999999998,5.0,3234,1014,feet,jsons/v1_VE1000_randls_65_rotated.json,673316,808786,34,Woman
107,507787,DepthScenes,duration_manipulation_targetAtFixation,jsons/v1_VE1000_randls_65_rotated.json,http://54.235.29.9/FacialAge/BNav_EC2/DepthDuration/v2_depth_duration_MTurk/v2_DepthDuration_HTML.html#151,151,1800,946,1440,900,9-3-2022,8-36-29,108,depth_duration_stimuli/000191_2014-05-12_17-07-38_260595134347_rgbf000199-resize_0/000191_2014-05-12_17-07-38_260595134347_rgbf000199-resize_0-target.png,1000,3.7995,9.0,2978,1002,feet,jsons/v1_VE1000_randls_65_rotated.json,673316,808786,34,Woman
108,507787,DepthScenes,duration_manipulation_targetAtFixation,jsons/v1_VE1000_randls_65_rotated.json,http://54.235.29.9/FacialAge/BNav_EC2/DepthDuration/v2_depth_duration_MTurk/v2_DepthDuration_HTML.html#151,151,1800,946,1440,900,9-3-2022,8-36-29,109,depth_duration_stimuli/000493_2014-06-09_21-01-18_260595134347_rgbf000196-resize_3/000493_2014-06-09_21-01-18_260595134347_rgbf000196-resize_3-target.png,1000,3.44,8.0,3011,936,feet,jsons/v1_VE1000_randls_65_rotated.json,673316,808786,34,Woman
109,507787,DepthScenes,duration_manipulation_targetAtFixation,jsons/v1_VE1000_randls_65_rotated.json,http://54.235.29.9/FacialAge/BNav_EC2/DepthDuration/v2_depth_duration_MTurk/v2_DepthDuration_HTML.html#151,151,1800,946,1440,900,9-3-2022,8-36-29,110,depth_duration_stimuli/001100_2014-06-15_17-46-26_260595134347_rgbf000225-resize_2/001100_2014-06-15_17-46-26_260595134347_rgbf000225-resize_2-target.png,1000,2.24,5.0,3124,985,feet,jsons/v1_VE1000_randls_65_rotated.json,673316,808786,34,Woman
110,507787,DepthScenes,duration_manipulation_targetAtFixation,jsons/v1_VE1000_randls_65_rotated.json,http://54.235.29.9/FacialAge/BNav_EC2/DepthDuration/v2_depth_duration_MTurk/v2_DepthDuration_HTML.html#151,151,1800,946,1440,900,9-3-2022,8-36-29,111,depth_duration_stimuli/002784_2014-06-22_19-26-30_094959634447_rgbf000083-resize_3/002784_2014-06-22_19-26-30_094959634447_rgbf000083-resize_3-target.png,1000,1.8046666666667,6.0,3384,1002,feet,jsons/v1_VE1000_randls_65_rotated.json,673316,808786,34,Woman
111,507787,DepthScenes,duration_manipulation_targetAtFixation,jsons/v1_VE1000_randls_65_rotated.json,http://54.235.29.9/FacialAge/BNav_EC2/DepthDuration/v2_depth_duration_MTurk/v2_DepthDuration_HTML.html#151,151,1800,946,1440,900,9-3-2022,8-36-29,112,depth_duration_stimuli/002545_2014-06-24_13-38-53_094959634447_rgbf000080-resize_4/002545_2014-06-24_13-38-53_094959634447_rgbf000080-resize_4-target.png,1000,1.9205,6.0,3097,994,feet,jsons/v1_VE1000_randls_65_rotated.json,673316,808786,34,Woman
112,507787,DepthScenes,duration_manipulation_targetAtFixation,jsons/v1_VE1000_randls_65_rotated.json,http://54.235.29.9/FacialAge/BNav_EC2/DepthDuration/v2_depth_duration_MTurk/v2_DepthDuration_HTML.html#151,151,1800,946,1440,900,9-3-2022,8-36-29,113,depth_duration_stimuli/001092_2014-06-15_17-34-58_260595134347_rgbf000171-resize_3/001092_2014-06-15_17-34-58_260595134347_rgbf000171-resize_3-target.png,1000,2.6935,6.0,3471,998,feet,jsons/v1_VE1000_randls_65_rotated.json,673316,808786,34,Woman
113,507787,DepthScenes,duration_manipulation_targetAtFixation,jsons/v1_VE1000_randls_65_rotated.json,http://54.235.29.9/FacialAge/BNav_EC2/DepthDuration/v2_depth_duration_MTurk/v2_DepthDuration_HTML.html#151,151,1800,946,1440,900,9-3-2022,8-36-29,114,depth_duration_stimuli/003048_2014-06-15_13-49-43_094959634447_rgbf000150-resize_1/003048_2014-06-15_13-49-43_094959634447_rgbf000150-resize_1-target.png,1000,4.0035,8.0,2969,1004,feet,jsons/v1_VE1000_randls_65_rotated.json,673316,808786,34,Woman
114,507787,DepthScenes,duration_manipulation_targetAtFixation,jsons/v1_VE1000_randls_65_rotated.json,http://54.235.29.9/FacialAge/BNav_EC2/DepthDuration/v2_depth_duration_MTurk/v2_DepthDuration_HTML.html#151,151,1800,946,1440,900,9-3-2022,8-36-29,115,depth_duration_stimuli/002043_2014-06-24_20-29-38_260595134347_rgbf000039-resize_4/002043_2014-06-24_20-29-38_260595134347_rgbf000039-resize_4-target.png,1000,2.8435,11.0,4816,968,feet,jsons/v1_VE1000_randls_65_rotated.json,673316,808786,34,Woman
115,507787,DepthScenes,duration_manipulation_targetAtFixation,jsons/v1_VE1000_randls_65_rotated.json,http://54.235.29.9/FacialAge/BNav_EC2/DepthDuration/v2_depth_duration_MTurk/v2_DepthDuration_HTML.html#151,151,1800,946,1440,900,9-3-2022,8-36-29,116,depth_duration_stimuli/000691_2014-06-08_13-08-50_260595134347_rgbf000132-resize_3/000691_2014-06-08_13-08-50_260595134347_rgbf000132-resize_3-target.png,1000,4.1530000000000005,11.0,3907,985,feet,jsons/v1_VE1000_randls_65_rotated.json,673316,808786,34,Woman
116,507787,DepthScenes,duration_manipulation_targetAtFixation,jsons/v1_VE1000_randls_65_rotated.json,http://54.235.29.9/FacialAge/BNav_EC2/DepthDuration/v2_depth_duration_MTurk/v2_DepthDuration_HTML.html#151,151,1800,946,1440,900,9-3-2022,8-36-29,117,depth_duration_stimuli/002213_2014-06-28_18-37-58_260595134347_rgbf000055-resize_1/002213_2014-06-28_18-37-58_260595134347_rgbf000055-resize_1-target.png,1000,3.62,9.0,3557,1008,feet,jsons/v1_VE1000_randls_65_rotated.json,673316,808786,34,Woman
117,507787,DepthScenes,duration_manipulation_targetAtFixation,jsons/v1_VE1000_randls_65_rotated.json,http://54.235.29.9/FacialAge/BNav_EC2/DepthDuration/v2_depth_duration_MTurk/v2_DepthDuration_HTML.html#151,151,1800,946,1440,900,9-3-2022,8-36-29,118,depth_duration_stimuli/002678_2014-06-13_16-15-32_094959634447_rgbf000151-resize_6/002678_2014-06-13_16-15-32_094959634447_rgbf000151-resize_6-target.png,1000,2.1830000000000003,6.0,5103,996,feet,jsons/v1_VE1000_randls_65_rotated.json,673316,808786,34,Woman
118,507787,DepthScenes,duration_manipulation_targetAtFixation,jsons/v1_VE1000_randls_65_rotated.json,http://54.235.29.9/FacialAge/BNav_EC2/DepthDuration/v2_depth_duration_MTurk/v2_DepthDuration_HTML.html#151,151,1800,946,1440,900,9-3-2022,8-36-29,119,depth_duration_stimuli/000368_2014-06-09_15-53-01_260595134347_rgbf000155-resize_2/000368_2014-06-09_15-53-01_260595134347_rgbf000155-resize_2-target.png,1000,2.4859999999999998,6.0,2841,983,feet,jsons/v1_VE1000_randls_65_rotated.json,673316,808786,34,Woman
119,507787,DepthScenes,duration_manipulation_targetAtFixation,jsons/v1_VE1000_randls_65_rotated.json,http://54.235.29.9/FacialAge/BNav_EC2/DepthDuration/v2_depth_duration_MTurk/v2_DepthDuration_HTML.html#151,151,1800,946,1440,900,9-3-2022,8-36-29,120,depth_duration_stimuli/000787_2014-06-08_22-33-53_260595134347_rgbf000175-resize_1/000787_2014-06-08_22-33-53_260595134347_rgbf000175-resize-original.jpg,1000,4.784,0.0,2947,996,feet,jsons/v1_VE1000_randls_65_rotated.json,673316,808786,34,Woman
120,507787,DepthScenes,duration_manipulation_targetAtFixation,jsons/v1_VE1000_randls_65_rotated.json,http://54.235.29.9/FacialAge/BNav_EC2/DepthDuration/v2_depth_duration_MTurk/v2_DepthDuration_HTML.html#151,151,1800,946,1440,900,9-3-2022,8-36-29,121,depth_duration_stimuli/001450_2014-06-19_17-02-03_260595134347_rgbf000203-resize_4/001450_2014-06-19_17-02-03_260595134347_rgbf000203-resize_4-target.png,1000,4.0106666666667,10.0,3440,1000,feet,jsons/v1_VE1000_randls_65_rotated.json,673316,808786,34,Woman
121,507787,DepthScenes,duration_manipulation_targetAtFixation,jsons/v1_VE1000_randls_65_rotated.json,http://54.235.29.9/FacialAge/BNav_EC2/DepthDuration/v2_depth_duration_MTurk/v2_DepthDuration_HTML.html#151,151,1800,946,1440,900,9-3-2022,8-36-29,122,depth_duration_stimuli/001449_2014-06-19_17-01-27_260595134347_rgbf000116-resize_2/001449_2014-06-19_17-01-27_260595134347_rgbf000116-resize_2-target.png,1000,3.452,7.0,2999,1002,feet,jsons/v1_VE1000_randls_65_rotated.json,673316,808786,34,Woman
122,507787,DepthScenes,duration_manipulation_targetAtFixation,jsons/v1_VE1000_randls_65_rotated.json,http://54.235.29.9/FacialAge/BNav_EC2/DepthDuration/v2_depth_duration_MTurk/v2_DepthDuration_HTML.html#151,151,1800,946,1440,900,9-3-2022,8-36-29,123,depth_duration_stimuli/002639_2014-06-24_14-51-37_094959634447_rgbf000074-resize_4/002639_2014-06-24_14-51-37_094959634447_rgbf000074-resize_4-target.png,1000,4.0375,8.0,2885,1020,feet,jsons/v1_VE1000_randls_65_rotated.json,673316,808786,34,Woman
123,507787,DepthScenes,duration_manipulation_targetAtFixation,jsons/v1_VE1000_randls_65_rotated.json,http://54.235.29.9/FacialAge/BNav_EC2/DepthDuration/v2_depth_duration_MTurk/v2_DepthDuration_HTML.html#151,151,1800,946,1440,900,9-3-2022,8-36-29,124,depth_duration_stimuli/003292_2014-05-14_21-53-49_094959634447_rgbf000100-resize_2/003292_2014-05-14_21-53-49_094959634447_rgbf000100-resize_2-target.png,1000,3.4815,7.0,2923,994,feet,jsons/v1_VE1000_randls_65_rotated.json,673316,808786,34,Woman
124,507787,DepthScenes,duration_manipulation_targetAtFixation,jsons/v1_VE1000_randls_65_rotated.json,http://54.235.29.9/FacialAge/BNav_EC2/DepthDuration/v2_depth_duration_MTurk/v2_DepthDuration_HTML.html#151,151,1800,946,1440,900,9-3-2022,8-36-29,125,depth_duration_stimuli/000943_2014-06-09_19-31-07_260595134347_rgbf000128-resize_1/000943_2014-06-09_19-31-07_260595134347_rgbf000128-resize_1-target.png,1000,1.9765,6.0,3313,1008,feet,jsons/v1_VE1000_randls_65_rotated.json,673316,808786,34,Woman
125,507787,DepthScenes,duration_manipulation_targetAtFixation,jsons/v1_VE1000_randls_65_rotated.json,http://54.235.29.9/FacialAge/BNav_EC2/DepthDuration/v2_depth_duration_MTurk/v2_DepthDuration_HTML.html#151,151,1800,946,1440,900,9-3-2022,8-36-29,126,depth_duration_stimuli/003070_2014-06-15_14-58-27_094959634447_rgbf000150-resize_3/003070_2014-06-15_14-58-27_094959634447_rgbf000150-resize_3-target.png,1000,2.9415,7.0,3861,993,feet,jsons/v1_VE1000_randls_65_rotated.json,673316,808786,34,Woman
126,507787,DepthScenes,duration_manipulation_targetAtFixation,jsons/v1_VE1000_randls_65_rotated.json,http://54.235.29.9/FacialAge/BNav_EC2/DepthDuration/v2_depth_duration_MTurk/v2_DepthDuration_HTML.html#151,151,1800,946,1440,900,9-3-2022,8-36-29,127,depth_duration_stimuli/003338_2014-05-20_11-01-23_094959634447_rgbf000051-resize_6/003338_2014-05-20_11-01-23_094959634447_rgbf000051-resize_6-target.png,1000,1.693,5.0,3009,1002,feet,jsons/v1_VE1000_randls_65_rotated.json,673316,808786,34,Woman
127,507787,DepthScenes,duration_manipulation_targetAtFixation,jsons/v1_VE1000_randls_65_rotated.json,http://54.235.29.9/FacialAge/BNav_EC2/DepthDuration/v2_depth_duration_MTurk/v2_DepthDuration_HTML.html#151,151,1800,946,1440,900,9-3-2022,8-36-29,128,depth_duration_stimuli/002509_2014-06-24_13-19-22_094959634447_rgbf000077-resize_0/002509_2014-06-24_13-19-22_094959634447_rgbf000077-resize_0-target.png,1000,1.3065,4.0,2885,987,feet,jsons/v1_VE1000_randls_65_rotated.json,673316,808786,34,Woman
128,507787,DepthScenes,duration_manipulation_targetAtFixation,jsons/v1_VE1000_randls_65_rotated.json,http://54.235.29.9/FacialAge/BNav_EC2/DepthDuration/v2_depth_duration_MTurk/v2_DepthDuration_HTML.html#151,151,1800,946,1440,900,9-3-2022,8-36-29,129,depth_duration_stimuli/001136_2014-06-17_15-19-41_260595134347_rgbf000076-resize_3/001136_2014-06-17_15-19-41_260595134347_rgbf000076-resize_3-target.png,1000,1.8655,6.0,3210,1009,feet,jsons/v1_VE1000_randls_65_rotated.json,673316,808786,34,Woman
129,507787,DepthScenes,duration_manipulation_targetAtFixation,jsons/v1_VE1000_randls_65_rotated.json,http://54.235.29.9/FacialAge/BNav_EC2/DepthDuration/v2_depth_duration_MTurk/v2_DepthDuration_HTML.html#151,151,1800,946,1440,900,9-3-2022,8-36-29,130,depth_duration_stimuli/001164_2014-06-17_15-35-46_260595134347_rgbf000085-resize_3/001164_2014-06-17_15-35-46_260595134347_rgbf000085-resize_3-target.png,1000,2.354,6.0,3331,1106,feet,jsons/v1_VE1000_randls_65_rotated.json,673316,808786,34,Woman
130,507787,DepthScenes,duration_manipulation_targetAtFixation,jsons/v1_VE1000_randls_65_rotated.json,http://54.235.29.9/FacialAge/BNav_EC2/DepthDuration/v2_depth_duration_MTurk/v2_DepthDuration_HTML.html#151,151,1800,946,1440,900,9-3-2022,8-36-29,131,depth_duration_stimuli/000635_2014-06-08_16-38-42_260595134347_rgbf000106-resize_1/000635_2014-06-08_16-38-42_260595134347_rgbf000106-resize_1-target.png,1000,2.074,7.0,4105,1017,feet,jsons/v1_VE1000_randls_65_rotated.json,673316,808786,34,Woman
131,507787,DepthScenes,duration_manipulation_targetAtFixation,jsons/v1_VE1000_randls_65_rotated.json,http://54.235.29.9/FacialAge/BNav_EC2/DepthDuration/v2_depth_duration_MTurk/v2_DepthDuration_HTML.html#151,151,1800,946,1440,900,9-3-2022,8-36-29,132,depth_duration_stimuli/002279_2014-06-28_18-55-32_260595134347_rgbf000040-resize_5/002279_2014-06-28_18-55-32_260595134347_rgbf000040-resize_5-target.png,1000,1.5043333333333,4.0,3001,1011,feet,jsons/v1_VE1000_randls_65_rotated.json,673316,808786,34,Woman
132,507787,DepthScenes,duration_manipulation_targetAtFixation,jsons/v1_VE1000_randls_65_rotated.json,http://54.235.29.9/FacialAge/BNav_EC2/DepthDuration/v2_depth_duration_MTurk/v2_DepthDuration_HTML.html#151,151,1800,946,1440,900,9-3-2022,8-36-29,133,depth_duration_stimuli/003587_2014-05-23_16-48-02_094959634447_rgbf002384-resize_2/003587_2014-05-23_16-48-02_094959634447_rgbf002384-resize_2-target.png,1000,1.357,3.0,3469,992,feet,jsons/v1_VE1000_randls_65_rotated.json,673316,808786,34,Woman
133,507787,DepthScenes,duration_manipulation_targetAtFixation,jsons/v1_VE1000_randls_65_rotated.json,http://54.235.29.9/FacialAge/BNav_EC2/DepthDuration/v2_depth_duration_MTurk/v2_DepthDuration_HTML.html#151,151,1800,946,1440,900,9-3-2022,8-36-29,134,depth_duration_stimuli/001167_2014-06-17_15-38-07_260595134347_rgbf000108-resize_0/001167_2014-06-17_15-38-07_260595134347_rgbf000108-resize_0-target.png,1000,1.8505,3.0,3102,1007,feet,jsons/v1_VE1000_randls_65_rotated.json,673316,808786,34,Woman
134,507787,DepthScenes,duration_manipulation_targetAtFixation,jsons/v1_VE1000_randls_65_rotated.json,http://54.235.29.9/FacialAge/BNav_EC2/DepthDuration/v2_depth_duration_MTurk/v2_DepthDuration_HTML.html#151,151,1800,946,1440,900,9-3-2022,8-36-29,135,depth_duration_stimuli/000375_2014-06-08_11-17-29_260595134347_rgbf000133-resize_2/000375_2014-06-08_11-17-29_260595134347_rgbf000133-resize-original.jpg,1000,4.718,0.0,2892,998,feet,jsons/v1_VE1000_randls_65_rotated.json,673316,808786,34,Woman
135,507787,DepthScenes,duration_manipulation_targetAtFixation,jsons/v1_VE1000_randls_65_rotated.json,http://54.235.29.9/FacialAge/BNav_EC2/DepthDuration/v2_depth_duration_MTurk/v2_DepthDuration_HTML.html#151,151,1800,946,1440,900,9-3-2022,8-36-29,136,depth_duration_stimuli/002425_2014-06-28_20-27-29_260595134347_rgbf000031-resize_8/002425_2014-06-28_20-27-29_260595134347_rgbf000031-resize_8-target.png,1000,3.8960000000000004,9.0,4420,967,feet,jsons/v1_VE1000_randls_65_rotated.json,673316,808786,34,Woman
136,507787,DepthScenes,duration_manipulation_targetAtFixation,jsons/v1_VE1000_randls_65_rotated.json,http://54.235.29.9/FacialAge/BNav_EC2/DepthDuration/v2_depth_duration_MTurk/v2_DepthDuration_HTML.html#151,151,1800,946,1440,900,9-3-2022,8-36-29,137,depth_duration_stimuli/000642_2014-06-08_16-59-25_260595134347_rgbf000098-resize_2/000642_2014-06-08_16-59-25_260595134347_rgbf000098-resize_2-target.png,1000,2.8815,6.0,2803,1005,feet,jsons/v1_VE1000_randls_65_rotated.json,673316,808786,34,Woman
137,507787,DepthScenes,duration_manipulation_targetAtFixation,jsons/v1_VE1000_randls_65_rotated.json,http://54.235.29.9/FacialAge/BNav_EC2/DepthDuration/v2_depth_duration_MTurk/v2_DepthDuration_HTML.html#151,151,1800,946,1440,900,9-3-2022,8-36-29,138,depth_duration_stimuli/000409_2014-06-04_19-23-33_260595134347_rgbf000067-resize_0/000409_2014-06-04_19-23-33_260595134347_rgbf000067-resize_0-target.png,1000,3.7335,7.0,3061,1014,feet,jsons/v1_VE1000_randls_65_rotated.json,673316,808786,34,Woman
138,507787,DepthScenes,duration_manipulation_targetAtFixation,jsons/v1_VE1000_randls_65_rotated.json,http://54.235.29.9/FacialAge/BNav_EC2/DepthDuration/v2_depth_duration_MTurk/v2_DepthDuration_HTML.html#151,151,1800,946,1440,900,9-3-2022,8-36-29,139,depth_duration_stimuli/002663_2014-06-13_15-50-26_094959634447_rgbf000075-resize_1/002663_2014-06-13_15-50-26_094959634447_rgbf000075-resize_1-target.png,1000,4.7495,12.0,5512,993,feet,jsons/v1_VE1000_randls_65_rotated.json,673316,808786,34,Woman
139,507787,DepthScenes,duration_manipulation_targetAtFixation,jsons/v1_VE1000_randls_65_rotated.json,http://54.235.29.9/FacialAge/BNav_EC2/DepthDuration/v2_depth_duration_MTurk/v2_DepthDuration_HTML.html#151,151,1800,946,1440,900,9-3-2022,8-36-29,140,depth_duration_stimuli/003490_2014-05-21_15-50-11_094959634447_rgbf000101-resize_3/003490_2014-05-21_15-50-11_094959634447_rgbf000101-resize_3-target.png,1000,3.6445,8.0,3898,1003,feet,jsons/v1_VE1000_randls_65_rotated.json,673316,808786,34,Woman
140,507787,DepthScenes,duration_manipulation_targetAtFixation,jsons/v1_VE1000_randls_65_rotated.json,http://54.235.29.9/FacialAge/BNav_EC2/DepthDuration/v2_depth_duration_MTurk/v2_DepthDuration_HTML.html#151,151,1800,946,1440,900,9-3-2022,8-36-29,141,depth_duration_stimuli/001175_2014-06-17_15-45-55_260595134347_rgbf000129-resize_4/001175_2014-06-17_15-45-55_260595134347_rgbf000129-resize_4-target.png,1000,4.255,12.0,3013,1009,feet,jsons/v1_VE1000_randls_65_rotated.json,673316,808786,34,Woman
141,507787,DepthScenes,duration_manipulation_targetAtFixation,jsons/v1_VE1000_randls_65_rotated.json,http://54.235.29.9/FacialAge/BNav_EC2/DepthDuration/v2_depth_duration_MTurk/v2_DepthDuration_HTML.html#151,151,1800,946,1440,900,9-3-2022,8-36-29,142,depth_duration_stimuli/000502_2014-06-08_23-02-32_260595134347_rgbf000063-resize_4/000502_2014-06-08_23-02-32_260595134347_rgbf000063-resize_4-target.png,1000,2.431,7.0,3113,1001,feet,jsons/v1_VE1000_randls_65_rotated.json,673316,808786,34,Woman
142,507787,DepthScenes,duration_manipulation_targetAtFixation,jsons/v1_VE1000_randls_65_rotated.json,http://54.235.29.9/FacialAge/BNav_EC2/DepthDuration/v2_depth_duration_MTurk/v2_DepthDuration_HTML.html#151,151,1800,946,1440,900,9-3-2022,8-36-29,143,depth_duration_stimuli/001199_2014-06-17_16-03-48_260595134347_rgbf000077-resize_0/001199_2014-06-17_16-03-48_260595134347_rgbf000077-resize_0-target.png,1000,3.4375,10.0,3510,1000,feet,jsons/v1_VE1000_randls_65_rotated.json,673316,808786,34,Woman
143,507787,DepthScenes,duration_manipulation_targetAtFixation,jsons/v1_VE1000_randls_65_rotated.json,http://54.235.29.9/FacialAge/BNav_EC2/DepthDuration/v2_depth_duration_MTurk/v2_DepthDuration_HTML.html#151,151,1800,946,1440,900,9-3-2022,8-36-29,144,depth_duration_stimuli/003081_2014-06-15_15-19-16_094959634447_rgbf000150-resize_1/003081_2014-06-15_15-19-16_094959634447_rgbf000150-resize_1-target.png,1000,3.9125,10.0,3128,998,feet,jsons/v1_VE1000_randls_65_rotated.json,673316,808786,34,Woman
144,507787,DepthScenes,duration_manipulation_targetAtFixation,jsons/v1_VE1000_randls_65_rotated.json,http://54.235.29.9/FacialAge/BNav_EC2/DepthDuration/v2_depth_duration_MTurk/v2_DepthDuration_HTML.html#151,151,1800,946,1440,900,9-3-2022,8-36-29,145,depth_duration_stimuli/001417_2014-06-19_16-25-36_260595134347_rgbf000115-resize_5/001417_2014-06-19_16-25-36_260595134347_rgbf000115-resize_5-target.png,1000,4.6255,12.0,3137,999,feet,jsons/v1_VE1000_randls_65_rotated.json,673316,808786,34,Woman
145,507787,DepthScenes,duration_manipulation_targetAtFixation,jsons/v1_VE1000_randls_65_rotated.json,http://54.235.29.9/FacialAge/BNav_EC2/DepthDuration/v2_depth_duration_MTurk/v2_DepthDuration_HTML.html#151,151,1800,946,1440,900,9-3-2022,8-36-29,146,depth_duration_stimuli/003079_2014-06-15_15-18-20_094959634447_rgbf000152-resize_8/003079_2014-06-15_15-18-20_094959634447_rgbf000152-resize_8-target.png,1000,2.8775,12.0,3346,1004,feet,jsons/v1_VE1000_randls_65_rotated.json,673316,808786,34,Woman
146,507787,DepthScenes,duration_manipulation_targetAtFixation,jsons/v1_VE1000_randls_65_rotated.json,http://54.235.29.9/FacialAge/BNav_EC2/DepthDuration/v2_depth_duration_MTurk/v2_DepthDuration_HTML.html#151,151,1800,946,1440,900,9-3-2022,8-36-29,147,depth_duration_stimuli/000506_2014-06-08_23-21-00_260595134347_rgbf000070-resize_7/000506_2014-06-08_23-21-00_260595134347_rgbf000070-resize_7-target.png,1000,4.0585,10.0,3142,1000,feet,jsons/v1_VE1000_randls_65_rotated.json,673316,808786,34,Woman
147,507787,DepthScenes,duration_manipulation_targetAtFixation,jsons/v1_VE1000_randls_65_rotated.json,http://54.235.29.9/FacialAge/BNav_EC2/DepthDuration/v2_depth_duration_MTurk/v2_DepthDuration_HTML.html#151,151,1800,946,1440,900,9-3-2022,8-36-29,148,depth_duration_stimuli/002199_2014-06-28_18-33-56_260595134347_rgbf000074-resize_0/002199_2014-06-28_18-33-56_260595134347_rgbf000074-resize_0-target.png,1000,1.996,5.0,2896,999,feet,jsons/v1_VE1000_randls_65_rotated.json,673316,808786,34,Woman
148,507787,DepthScenes,duration_manipulation_targetAtFixation,jsons/v1_VE1000_randls_65_rotated.json,http://54.235.29.9/FacialAge/BNav_EC2/DepthDuration/v2_depth_duration_MTurk/v2_DepthDuration_HTML.html#151,151,1800,946,1440,900,9-3-2022,8-36-29,149,depth_duration_stimuli/001056_2014-06-08_18-46-44_260595134347_rgbf000068-resize_0/001056_2014-06-08_18-46-44_260595134347_rgbf000068-resize_0-target.png,1000,2.6625,10.0,5214,1065,feet,jsons/v1_VE1000_randls_65_rotated.json,673316,808786,34,Woman
149,507787,DepthScenes,duration_manipulation_targetAtFixation,jsons/v1_VE1000_randls_65_rotated.json,http://54.235.29.9/FacialAge/BNav_EC2/DepthDuration/v2_depth_duration_MTurk/v2_DepthDuration_HTML.html#151,151,1800,946,1440,900,9-3-2022,8-36-29,150,depth_duration_stimuli/002660_2014-06-13_15-44-18_094959634447_rgbf001878-resize_2/002660_2014-06-13_15-44-18_094959634447_rgbf001878-resize_2-target.png,1000,3.576,11.0,4056,998,feet,jsons/v1_VE1000_randls_65_rotated.json,673316,808786,34,Woman
150,507787,DepthScenes,duration_manipulation_targetAtFixation,jsons/v1_VE1000_randls_65_rotated.json,http://54.235.29.9/FacialAge/BNav_EC2/DepthDuration/v2_depth_duration_MTurk/v2_DepthDuration_HTML.html#151,151,1800,946,1440,900,9-3-2022,8-36-29,151,depth_duration_stimuli/002153_2014-06-25_21-27-18_260595134347_rgbf000038-resize_5/002153_2014-06-25_21-27-18_260595134347_rgbf000038-resize_5-target.png,1000,2.505,10.0,5869,1006,feet,jsons/v1_VE1000_randls_65_rotated.json,673316,808786,34,Woman
151,507787,DepthScenes,duration_manipulation_targetAtFixation,jsons/v1_VE1000_randls_65_rotated.json,http://54.235.29.9/FacialAge/BNav_EC2/DepthDuration/v2_depth_duration_MTurk/v2_DepthDuration_HTML.html#151,151,1800,946,1440,900,9-3-2022,8-36-29,152,depth_duration_stimuli/000569_2014-06-09_22-51-47_260595134347_rgbf000141-resize_3/000569_2014-06-09_22-51-47_260595134347_rgbf000141-resize-original.jpg,1000,4.512,0.0,3723,999,feet,jsons/v1_VE1000_randls_65_rotated.json,673316,808786,34,Woman
152,507787,DepthScenes,duration_manipulation_targetAtFixation,jsons/v1_VE1000_randls_65_rotated.json,http://54.235.29.9/FacialAge/BNav_EC2/DepthDuration/v2_depth_duration_MTurk/v2_DepthDuration_HTML.html#151,151,1800,946,1440,900,9-3-2022,8-36-29,153,depth_duration_stimuli/001571_2014-06-20_17-21-32_260595134347_rgbf000089-resize_1/001571_2014-06-20_17-21-32_260595134347_rgbf000089-resize_1-target.png,1000,1.86,5.0,3298,992,feet,jsons/v1_VE1000_randls_65_rotated.json,673316,808786,34,Woman
153,507787,DepthScenes,duration_manipulation_targetAtFixation,jsons/v1_VE1000_randls_65_rotated.json,http://54.235.29.9/FacialAge/BNav_EC2/DepthDuration/v2_depth_duration_MTurk/v2_DepthDuration_HTML.html#151,151,1800,946,1440,900,9-3-2022,8-36-29,154,depth_duration_stimuli/002272_2014-06-28_18-53-56_260595134347_rgbf000067-resize_2/002272_2014-06-28_18-53-56_260595134347_rgbf000067-resize_2-target.png,1000,1.138,4.0,3038,983,feet,jsons/v1_VE1000_randls_65_rotated.json,673316,808786,34,Woman
154,507787,DepthScenes,duration_manipulation_targetAtFixation,jsons/v1_VE1000_randls_65_rotated.json,http://54.235.29.9/FacialAge/BNav_EC2/DepthDuration/v2_depth_duration_MTurk/v2_DepthDuration_HTML.html#151,151,1800,946,1440,900,9-3-2022,8-36-29,155,depth_duration_stimuli/003129_2014-05-12_10-48-10_094959634447_rgbf000100-resize_0/003129_2014-05-12_10-48-10_094959634447_rgbf000100-resize_0-target.png,1000,4.9305,11.0,3541,987,feet,jsons/v1_VE1000_randls_65_rotated.json,673316,808786,34,Woman
155,507787,DepthScenes,duration_manipulation_targetAtFixation,jsons/v1_VE1000_randls_65_rotated.json,http://54.235.29.9/FacialAge/BNav_EC2/DepthDuration/v2_depth_duration_MTurk/v2_DepthDuration_HTML.html#151,151,1800,946,1440,900,9-3-2022,8-36-29,156,depth_duration_stimuli/000414_2014-06-04_19-49-13_260595134347_rgbf000044-resize_0/000414_2014-06-04_19-49-13_260595134347_rgbf000044-resize_0-target.png,1000,4.329,12.0,3879,997,feet,jsons/v1_VE1000_randls_65_rotated.json,673316,808786,34,Woman
156,507787,DepthScenes,duration_manipulation_targetAtFixation,jsons/v1_VE1000_randls_65_rotated.json,http://54.235.29.9/FacialAge/BNav_EC2/DepthDuration/v2_depth_duration_MTurk/v2_DepthDuration_HTML.html#151,151,1800,946,1440,900,9-3-2022,8-36-29,157,depth_duration_stimuli/001392_2014-06-19_16-07-59_260595134347_rgbf000046-resize_1/001392_2014-06-19_16-07-59_260595134347_rgbf000046-resize_1-target.png,1000,4.135,10.0,3519,979,feet,jsons/v1_VE1000_randls_65_rotated.json,673316,808786,34,Woman
157,507787,DepthScenes,duration_manipulation_targetAtFixation,jsons/v1_VE1000_randls_65_rotated.json,http://54.235.29.9/FacialAge/BNav_EC2/DepthDuration/v2_depth_duration_MTurk/v2_DepthDuration_HTML.html#151,151,1800,946,1440,900,9-3-2022,8-36-29,158,depth_duration_stimuli/001570_2014-06-20_17-21-09_260595134347_rgbf000135-resize_4/001570_2014-06-20_17-21-09_260595134347_rgbf000135-resize_4-target.png,1000,4.467,11.0,2978,1013,feet,jsons/v1_VE1000_randls_65_rotated.json,673316,808786,34,Woman
158,507787,DepthScenes,duration_manipulation_targetAtFixation,jsons/v1_VE1000_randls_65_rotated.json,http://54.235.29.9/FacialAge/BNav_EC2/DepthDuration/v2_depth_duration_MTurk/v2_DepthDuration_HTML.html#151,151,1800,946,1440,900,9-3-2022,8-36-29,159,depth_duration_stimuli/002103_2014-06-25_20-00-40_260595134347_rgbf000049-resize_0/002103_2014-06-25_20-00-40_260595134347_rgbf000049-resize_0-target.png,1000,4.105,10.0,2981,996,feet,jsons/v1_VE1000_randls_65_rotated.json,673316,808786,34,Woman
159,507787,DepthScenes,duration_manipulation_targetAtFixation,jsons/v1_VE1000_randls_65_rotated.json,http://54.235.29.9/FacialAge/BNav_EC2/DepthDuration/v2_depth_duration_MTurk/v2_DepthDuration_HTML.html#151,151,1800,946,1440,900,9-3-2022,8-36-29,160,depth_duration_stimuli/002039_2014-06-24_20-22-38_260595134347_rgbf000084-resize_1/002039_2014-06-24_20-22-38_260595134347_rgbf000084-resize_1-target.png,1000,4.408,10.0,6539,990,feet,jsons/v1_VE1000_randls_65_rotated.json,673316,808786,34,Woman
160,507787,DepthScenes,duration_manipulation_targetAtFixation,jsons/v1_VE1000_randls_65_rotated.json,http://54.235.29.9/FacialAge/BNav_EC2/DepthDuration/v2_depth_duration_MTurk/v2_DepthDuration_HTML.html#151,151,1800,946,1440,900,9-3-2022,8-36-29,161,depth_duration_stimuli/000709_2014-06-08_13-51-55_260595134347_rgbf000068-resize_3/000709_2014-06-08_13-51-55_260595134347_rgbf000068-resize_3-target.png,1000,1.8030000000000002,5.0,3837,1001,feet,jsons/v1_VE1000_randls_65_rotated.json,673316,808786,34,Woman
161,507787,DepthScenes,duration_manipulation_targetAtFixation,jsons/v1_VE1000_randls_65_rotated.json,http://54.235.29.9/FacialAge/BNav_EC2/DepthDuration/v2_depth_duration_MTurk/v2_DepthDuration_HTML.html#151,151,1800,946,1440,900,9-3-2022,8-36-29,162,depth_duration_stimuli/002057_2014-06-24_21-00-13_260595134347_rgbf000120-resize_1/002057_2014-06-24_21-00-13_260595134347_rgbf000120-resize_1-target.png,1000,2.967,9.0,5700,999,feet,jsons/v1_VE1000_randls_65_rotated.json,673316,808786,34,Woman
162,507787,DepthScenes,duration_manipulation_targetAtFixation,jsons/v1_VE1000_randls_65_rotated.json,http://54.235.29.9/FacialAge/BNav_EC2/DepthDuration/v2_depth_duration_MTurk/v2_DepthDuration_HTML.html#151,151,1800,946,1440,900,9-3-2022,8-36-29,163,depth_duration_stimuli/000549_2014-06-08_22-10-24_260595134347_rgbf000247-resize_3/000549_2014-06-08_22-10-24_260595134347_rgbf000247-resize_3-target.png,1000,1.841,5.0,3162,967,feet,jsons/v1_VE1000_randls_65_rotated.json,673316,808786,34,Woman
163,507787,DepthScenes,duration_manipulation_targetAtFixation,jsons/v1_VE1000_randls_65_rotated.json,http://54.235.29.9/FacialAge/BNav_EC2/DepthDuration/v2_depth_duration_MTurk/v2_DepthDuration_HTML.html#151,151,1800,946,1440,900,9-3-2022,8-36-29,164,depth_duration_stimuli/001055_2014-06-08_18-45-35_260595134347_rgbf000111-resize_4/001055_2014-06-08_18-45-35_260595134347_rgbf000111-resize_4-target.png,1000,2.4290000000000003,6.0,3376,957,feet,jsons/v1_VE1000_randls_65_rotated.json,673316,808786,34,Woman
