,subjID,experimentName,versionName,sequenceName,url,selected_row,windowWidth,windowHeight,screenWidth,screenHeight,startDate,startTime,trial,stimulus,duration,actual_depth,depth_estimate,trial_RT,log_sceneDuration,unitSelection,seq_filepath,experimentTime,totalTime,age,gender
0,511757,DepthScenes,duration_manipulation_targetAtFixation,jsons/VE125_randls_10.json,http://54.235.29.9/FacialAge/BNav_EC2/DepthDuration/v2_depth_duration_MTurk/v2_DepthDuration_HTML.html#332,332,1536,864,1536,864,9-3-2022,9-48-40,1,depth_duration_stimuli/000917_2014-06-09_22-45-29_260595134347_rgbf000149-resize_3/000917_2014-06-09_22-45-29_260595134347_rgbf000149-resize_3-target.png,125,4.1865,5,3620,128,feet,jsons/VE125_randls_10.json,521236,848151,30,Man
1,511757,DepthScenes,duration_manipulation_targetAtFixation,jsons/VE125_randls_10.json,http://54.235.29.9/FacialAge/BNav_EC2/DepthDuration/v2_depth_duration_MTurk/v2_DepthDuration_HTML.html#332,332,1536,864,1536,864,9-3-2022,9-48-40,2,depth_duration_stimuli/002323_2014-06-28_20-01-54_260595134347_rgbf000051-resize_4/002323_2014-06-28_20-01-54_260595134347_rgbf000051-resize_4-target.png,125,3.7310000000000003,8,3990,123,feet,jsons/VE125_randls_10.json,521236,848151,30,Man
2,511757,DepthScenes,duration_manipulation_targetAtFixation,jsons/VE125_randls_10.json,http://54.235.29.9/FacialAge/BNav_EC2/DepthDuration/v2_depth_duration_MTurk/v2_DepthDuration_HTML.html#332,332,1536,864,1536,864,9-3-2022,9-48-40,3,depth_duration_stimuli/001133_2014-06-17_14-49-16_260595134347_rgbf000100-resize_0/001133_2014-06-17_14-49-16_260595134347_rgbf000100-resize_0-target.png,125,4.2115,12,3320,123,feet,jsons/VE125_randls_10.json,521236,848151,30,Man
3,511757,DepthScenes,duration_manipulation_targetAtFixation,jsons/VE125_randls_10.json,http://54.235.29.9/FacialAge/BNav_EC2/DepthDuration/v2_depth_duration_MTurk/v2_DepthDuration_HTML.html#332,332,1536,864,1536,864,9-3-2022,9-48-40,4,depth_duration_stimuli/001132_2014-06-17_14-48-54_260595134347_rgbf000100-resize_2/001132_2014-06-17_14-48-54_260595134347_rgbf000100-resize_2-target.png,125,3.753,9,3337,124,feet,jsons/VE125_randls_10.json,521236,848151,30,Man
4,511757,DepthScenes,duration_manipulation_targetAtFixation,jsons/VE125_randls_10.json,http://54.235.29.9/FacialAge/BNav_EC2/DepthDuration/v2_depth_duration_MTurk/v2_DepthDuration_HTML.html#332,332,1536,864,1536,864,9-3-2022,9-48-40,5,depth_duration_stimuli/000522_2014-06-08_13-35-06_260595134347_rgbf000244-resize_1/000522_2014-06-08_13-35-06_260595134347_rgbf000244-resize_1-target.png,125,2.3715,3,3300,124,feet,jsons/VE125_randls_10.json,521236,848151,30,Man
5,511757,DepthScenes,duration_manipulation_targetAtFixation,jsons/VE125_randls_10.json,http://54.235.29.9/FacialAge/BNav_EC2/DepthDuration/v2_depth_duration_MTurk/v2_DepthDuration_HTML.html#332,332,1536,864,1536,864,9-3-2022,9-48-40,6,depth_duration_stimuli/002949_2014-06-26_15-57-42_094959634447_rgbf000079-resize_1/002949_2014-06-26_15-57-42_094959634447_rgbf000079-resize_1-target.png,125,1.8915,2,3777,125,feet,jsons/VE125_randls_10.json,521236,848151,30,Man
6,511757,DepthScenes,duration_manipulation_targetAtFixation,jsons/VE125_randls_10.json,http://54.235.29.9/FacialAge/BNav_EC2/DepthDuration/v2_depth_duration_MTurk/v2_DepthDuration_HTML.html#332,332,1536,864,1536,864,9-3-2022,9-48-40,7,depth_duration_stimuli/001055_2014-06-08_18-45-35_260595134347_rgbf000111-resize_4/001055_2014-06-08_18-45-35_260595134347_rgbf000111-resize_4-target.png,125,2.4290000000000003,8,3696,135,feet,jsons/VE125_randls_10.json,521236,848151,30,Man
7,511757,DepthScenes,duration_manipulation_targetAtFixation,jsons/VE125_randls_10.json,http://54.235.29.9/FacialAge/BNav_EC2/DepthDuration/v2_depth_duration_MTurk/v2_DepthDuration_HTML.html#332,332,1536,864,1536,864,9-3-2022,9-48-40,8,depth_duration_stimuli/000549_2014-06-08_22-10-24_260595134347_rgbf000247-resize_3/000549_2014-06-08_22-10-24_260595134347_rgbf000247-resize_3-target.png,125,1.841,2,2845,125,feet,jsons/VE125_randls_10.json,521236,848151,30,Man
8,511757,DepthScenes,duration_manipulation_targetAtFixation,jsons/VE125_randls_10.json,http://54.235.29.9/FacialAge/BNav_EC2/DepthDuration/v2_depth_duration_MTurk/v2_DepthDuration_HTML.html#332,332,1536,864,1536,864,9-3-2022,9-48-40,9,depth_duration_stimuli/002964_2014-06-08_17-46-11_094959634447_rgbf000091-resize_4/002964_2014-06-08_17-46-11_094959634447_rgbf000091-resize_4-target.png,125,1.6909999999999998,3,3445,126,feet,jsons/VE125_randls_10.json,521236,848151,30,Man
9,511757,DepthScenes,duration_manipulation_targetAtFixation,jsons/VE125_randls_10.json,http://54.235.29.9/FacialAge/BNav_EC2/DepthDuration/v2_depth_duration_MTurk/v2_DepthDuration_HTML.html#332,332,1536,864,1536,864,9-3-2022,9-48-40,10,depth_duration_stimuli/002136_2014-06-25_21-18-03_260595134347_rgbf000109-resize_3/002136_2014-06-25_21-18-03_260595134347_rgbf000109-resize_3-target.png,125,1.9569999999999999,6,3130,122,feet,jsons/VE125_randls_10.json,521236,848151,30,Man
10,511757,DepthScenes,duration_manipulation_targetAtFixation,jsons/VE125_randls_10.json,http://54.235.29.9/FacialAge/BNav_EC2/DepthDuration/v2_depth_duration_MTurk/v2_DepthDuration_HTML.html#332,332,1536,864,1536,864,9-3-2022,9-48-40,11,depth_duration_stimuli/002375_2014-06-28_20-13-44_260595134347_rgbf000032-resize_1/002375_2014-06-28_20-13-44_260595134347_rgbf000032-resize_1-target.png,125,4.0175,5,4763,129,feet,jsons/VE125_randls_10.json,521236,848151,30,Man
11,511757,DepthScenes,duration_manipulation_targetAtFixation,jsons/VE125_randls_10.json,http://54.235.29.9/FacialAge/BNav_EC2/DepthDuration/v2_depth_duration_MTurk/v2_DepthDuration_HTML.html#332,332,1536,864,1536,864,9-3-2022,9-48-40,12,depth_duration_stimuli/002657_2014-06-13_15-29-54_094959634447_rgbf000150-resize_1/002657_2014-06-13_15-29-54_094959634447_rgbf000150-resize_1-target.png,125,4.919,7,3338,124,feet,jsons/VE125_randls_10.json,521236,848151,30,Man
12,511757,DepthScenes,duration_manipulation_targetAtFixation,jsons/VE125_randls_10.json,http://54.235.29.9/FacialAge/BNav_EC2/DepthDuration/v2_depth_duration_MTurk/v2_DepthDuration_HTML.html#332,332,1536,864,1536,864,9-3-2022,9-48-40,13,depth_duration_stimuli/000569_2014-06-09_22-51-47_260595134347_rgbf000141-resize_3/000569_2014-06-09_22-51-47_260595134347_rgbf000141-resize-original.jpg,125,4.512,5,3192,125,feet,jsons/VE125_randls_10.json,521236,848151,30,Man
13,511757,DepthScenes,duration_manipulation_targetAtFixation,jsons/VE125_randls_10.json,http://54.235.29.9/FacialAge/BNav_EC2/DepthDuration/v2_depth_duration_MTurk/v2_DepthDuration_HTML.html#332,332,1536,864,1536,864,9-3-2022,9-48-40,14,depth_duration_stimuli/001808_2014-06-26_20-50-58_260595134347_rgbf000029-resize_1/001808_2014-06-26_20-50-58_260595134347_rgbf000029-resize_1-target.png,125,4.249,15,3420,125,feet,jsons/VE125_randls_10.json,521236,848151,30,Man
14,511757,DepthScenes,duration_manipulation_targetAtFixation,jsons/VE125_randls_10.json,http://54.235.29.9/FacialAge/BNav_EC2/DepthDuration/v2_depth_duration_MTurk/v2_DepthDuration_HTML.html#332,332,1536,864,1536,864,9-3-2022,9-48-40,15,depth_duration_stimuli/001815_2014-06-26_20-52-55_260595134347_rgbf000020-resize_0/001815_2014-06-26_20-52-55_260595134347_rgbf000020-resize_0-target.png,125,3.3865,12,3203,122,feet,jsons/VE125_randls_10.json,521236,848151,30,Man
15,511757,DepthScenes,duration_manipulation_targetAtFixation,jsons/VE125_randls_10.json,http://54.235.29.9/FacialAge/BNav_EC2/DepthDuration/v2_depth_duration_MTurk/v2_DepthDuration_HTML.html#332,332,1536,864,1536,864,9-3-2022,9-48-40,16,depth_duration_stimuli/001066_2014-06-08_22-03-20_260595134347_rgbf000066-resize_4/001066_2014-06-08_22-03-20_260595134347_rgbf000066-resize_4-target.png,125,4.2330000000000005,13,4245,132,feet,jsons/VE125_randls_10.json,521236,848151,30,Man
16,511757,DepthScenes,duration_manipulation_targetAtFixation,jsons/VE125_randls_10.json,http://54.235.29.9/FacialAge/BNav_EC2/DepthDuration/v2_depth_duration_MTurk/v2_DepthDuration_HTML.html#332,332,1536,864,1536,864,9-3-2022,9-48-40,17,depth_duration_stimuli/000742_2014-06-08_18-48-09_260595134347_rgbf000164-resize_4/000742_2014-06-08_18-48-09_260595134347_rgbf000164-resize_4-target.png,125,4.632,11,3177,125,feet,jsons/VE125_randls_10.json,521236,848151,30,Man
17,511757,DepthScenes,duration_manipulation_targetAtFixation,jsons/VE125_randls_10.json,http://54.235.29.9/FacialAge/BNav_EC2/DepthDuration/v2_depth_duration_MTurk/v2_DepthDuration_HTML.html#332,332,1536,864,1536,864,9-3-2022,9-48-40,18,depth_duration_stimuli/001417_2014-06-19_16-25-36_260595134347_rgbf000115-resize_5/001417_2014-06-19_16-25-36_260595134347_rgbf000115-resize_5-target.png,125,4.6255,15,3490,124,feet,jsons/VE125_randls_10.json,521236,848151,30,Man
18,511757,DepthScenes,duration_manipulation_targetAtFixation,jsons/VE125_randls_10.json,http://54.235.29.9/FacialAge/BNav_EC2/DepthDuration/v2_depth_duration_MTurk/v2_DepthDuration_HTML.html#332,332,1536,864,1536,864,9-3-2022,9-48-40,19,depth_duration_stimuli/003081_2014-06-15_15-19-16_094959634447_rgbf000150-resize_1/003081_2014-06-15_15-19-16_094959634447_rgbf000150-resize_1-target.png,125,3.9125,8,2860,124,feet,jsons/VE125_randls_10.json,521236,848151,30,Man
19,511757,DepthScenes,duration_manipulation_targetAtFixation,jsons/VE125_randls_10.json,http://54.235.29.9/FacialAge/BNav_EC2/DepthDuration/v2_depth_duration_MTurk/v2_DepthDuration_HTML.html#332,332,1536,864,1536,864,9-3-2022,9-48-40,20,depth_duration_stimuli/000642_2014-06-08_16-59-25_260595134347_rgbf000098-resize_2/000642_2014-06-08_16-59-25_260595134347_rgbf000098-resize_2-target.png,125,2.8815,5,3066,124,feet,jsons/VE125_randls_10.json,521236,848151,30,Man
20,511757,DepthScenes,duration_manipulation_targetAtFixation,jsons/VE125_randls_10.json,http://54.235.29.9/FacialAge/BNav_EC2/DepthDuration/v2_depth_duration_MTurk/v2_DepthDuration_HTML.html#332,332,1536,864,1536,864,9-3-2022,9-48-40,21,depth_duration_stimuli/002425_2014-06-28_20-27-29_260595134347_rgbf000031-resize_8/002425_2014-06-28_20-27-29_260595134347_rgbf000031-resize_8-target.png,125,3.8960000000000004,12,4385,126,feet,jsons/VE125_randls_10.json,521236,848151,30,Man
21,511757,DepthScenes,duration_manipulation_targetAtFixation,jsons/VE125_randls_10.json,http://54.235.29.9/FacialAge/BNav_EC2/DepthDuration/v2_depth_duration_MTurk/v2_DepthDuration_HTML.html#332,332,1536,864,1536,864,9-3-2022,9-48-40,22,depth_duration_stimuli/002784_2014-06-22_19-26-30_094959634447_rgbf000083-resize_3/002784_2014-06-22_19-26-30_094959634447_rgbf000083-resize_3-target.png,125,1.8046666666667,3,2728,136,feet,jsons/VE125_randls_10.json,521236,848151,30,Man
22,511757,DepthScenes,duration_manipulation_targetAtFixation,jsons/VE125_randls_10.json,http://54.235.29.9/FacialAge/BNav_EC2/DepthDuration/v2_depth_duration_MTurk/v2_DepthDuration_HTML.html#332,332,1536,864,1536,864,9-3-2022,9-48-40,23,depth_duration_stimuli/001100_2014-06-15_17-46-26_260595134347_rgbf000225-resize_2/001100_2014-06-15_17-46-26_260595134347_rgbf000225-resize_2-target.png,125,2.24,3,3009,125,feet,jsons/VE125_randls_10.json,521236,848151,30,Man
23,511757,DepthScenes,duration_manipulation_targetAtFixation,jsons/VE125_randls_10.json,http://54.235.29.9/FacialAge/BNav_EC2/DepthDuration/v2_depth_duration_MTurk/v2_DepthDuration_HTML.html#332,332,1536,864,1536,864,9-3-2022,9-48-40,24,depth_duration_stimuli/000470_2014-06-09_19-42-40_260595134347_rgbf000094-resize_1/000470_2014-06-09_19-42-40_260595134347_rgbf000094-resize_1-target.png,125,1.831,3,3733,125,feet,jsons/VE125_randls_10.json,521236,848151,30,Man
24,511757,DepthScenes,duration_manipulation_targetAtFixation,jsons/VE125_randls_10.json,http://54.235.29.9/FacialAge/BNav_EC2/DepthDuration/v2_depth_duration_MTurk/v2_DepthDuration_HTML.html#332,332,1536,864,1536,864,9-3-2022,9-48-40,25,depth_duration_stimuli/000109_2014-05-14_23-41-52_260595134347_rgbf000035-resize_9/000109_2014-05-14_23-41-52_260595134347_rgbf000035-resize_9-target.png,125,1.3545,4,4319,126,feet,jsons/VE125_randls_10.json,521236,848151,30,Man
25,511757,DepthScenes,duration_manipulation_targetAtFixation,jsons/VE125_randls_10.json,http://54.235.29.9/FacialAge/BNav_EC2/DepthDuration/v2_depth_duration_MTurk/v2_DepthDuration_HTML.html#332,332,1536,864,1536,864,9-3-2022,9-48-40,26,depth_duration_stimuli/001555_2014-06-20_17-12-10_260595134347_rgbf000065-resize_4/001555_2014-06-20_17-12-10_260595134347_rgbf000065-resize_4-target.png,125,1.633,3,3073,123,feet,jsons/VE125_randls_10.json,521236,848151,30,Man
26,511757,DepthScenes,duration_manipulation_targetAtFixation,jsons/VE125_randls_10.json,http://54.235.29.9/FacialAge/BNav_EC2/DepthDuration/v2_depth_duration_MTurk/v2_DepthDuration_HTML.html#332,332,1536,864,1536,864,9-3-2022,9-48-40,27,depth_duration_stimuli/000103_2014-05-14_22-01-17_260595134347_rgbf000152-resize_5/000103_2014-05-14_22-01-17_260595134347_rgbf000152-resize_5-target.png,125,1.993,6,3591,124,feet,jsons/VE125_randls_10.json,521236,848151,30,Man
27,511757,DepthScenes,duration_manipulation_targetAtFixation,jsons/VE125_randls_10.json,http://54.235.29.9/FacialAge/BNav_EC2/DepthDuration/v2_depth_duration_MTurk/v2_DepthDuration_HTML.html#332,332,1536,864,1536,864,9-3-2022,9-48-40,28,depth_duration_stimuli/001110_2014-06-15_17-25-28_260595134347_rgbf000150-resize_1/001110_2014-06-15_17-25-28_260595134347_rgbf000150-resize_1-target.png,125,1.7115,7,3186,124,feet,jsons/VE125_randls_10.json,521236,848151,30,Man
28,511757,DepthScenes,duration_manipulation_targetAtFixation,jsons/VE125_randls_10.json,http://54.235.29.9/FacialAge/BNav_EC2/DepthDuration/v2_depth_duration_MTurk/v2_DepthDuration_HTML.html#332,332,1536,864,1536,864,9-3-2022,9-48-40,29,depth_duration_stimuli/000927_2014-06-09_16-32-30_260595134347_rgbf000123-resize_3/000927_2014-06-09_16-32-30_260595134347_rgbf000123-resize_3-target.png,125,2.6785,8,4888,139,feet,jsons/VE125_randls_10.json,521236,848151,30,Man
29,511757,DepthScenes,duration_manipulation_targetAtFixation,jsons/VE125_randls_10.json,http://54.235.29.9/FacialAge/BNav_EC2/DepthDuration/v2_depth_duration_MTurk/v2_DepthDuration_HTML.html#332,332,1536,864,1536,864,9-3-2022,9-48-40,30,depth_duration_stimuli/000375_2014-06-08_11-17-29_260595134347_rgbf000133-resize_2/000375_2014-06-08_11-17-29_260595134347_rgbf000133-resize-original.jpg,125,4.718,2,3114,123,feet,jsons/VE125_randls_10.json,521236,848151,30,Man
30,511757,DepthScenes,duration_manipulation_targetAtFixation,jsons/VE125_randls_10.json,http://54.235.29.9/FacialAge/BNav_EC2/DepthDuration/v2_depth_duration_MTurk/v2_DepthDuration_HTML.html#332,332,1536,864,1536,864,9-3-2022,9-48-40,31,depth_duration_stimuli/003292_2014-05-14_21-53-49_094959634447_rgbf000100-resize_2/003292_2014-05-14_21-53-49_094959634447_rgbf000100-resize_2-target.png,125,3.4815,7,3561,125,feet,jsons/VE125_randls_10.json,521236,848151,30,Man
31,511757,DepthScenes,duration_manipulation_targetAtFixation,jsons/VE125_randls_10.json,http://54.235.29.9/FacialAge/BNav_EC2/DepthDuration/v2_depth_duration_MTurk/v2_DepthDuration_HTML.html#332,332,1536,864,1536,864,9-3-2022,9-48-40,32,depth_duration_stimuli/002639_2014-06-24_14-51-37_094959634447_rgbf000074-resize_4/002639_2014-06-24_14-51-37_094959634447_rgbf000074-resize_4-target.png,125,4.0375,10,3808,116,feet,jsons/VE125_randls_10.json,521236,848151,30,Man
32,511757,DepthScenes,duration_manipulation_targetAtFixation,jsons/VE125_randls_10.json,http://54.235.29.9/FacialAge/BNav_EC2/DepthDuration/v2_depth_duration_MTurk/v2_DepthDuration_HTML.html#332,332,1536,864,1536,864,9-3-2022,9-48-40,33,depth_duration_stimuli/000368_2014-06-09_15-53-01_260595134347_rgbf000155-resize_2/000368_2014-06-09_15-53-01_260595134347_rgbf000155-resize_2-target.png,125,2.4859999999999998,5,3179,124,feet,jsons/VE125_randls_10.json,521236,848151,30,Man
33,511757,DepthScenes,duration_manipulation_targetAtFixation,jsons/VE125_randls_10.json,http://54.235.29.9/FacialAge/BNav_EC2/DepthDuration/v2_depth_duration_MTurk/v2_DepthDuration_HTML.html#332,332,1536,864,1536,864,9-3-2022,9-48-40,34,depth_duration_stimuli/002678_2014-06-13_16-15-32_094959634447_rgbf000151-resize_6/002678_2014-06-13_16-15-32_094959634447_rgbf000151-resize_6-target.png,125,2.1830000000000003,11,3237,125,feet,jsons/VE125_randls_10.json,521236,848151,30,Man
34,511757,DepthScenes,duration_manipulation_targetAtFixation,jsons/VE125_randls_10.json,http://54.235.29.9/FacialAge/BNav_EC2/DepthDuration/v2_depth_duration_MTurk/v2_DepthDuration_HTML.html#332,332,1536,864,1536,864,9-3-2022,9-48-40,35,depth_duration_stimuli/001570_2014-06-20_17-21-09_260595134347_rgbf000135-resize_4/001570_2014-06-20_17-21-09_260595134347_rgbf000135-resize_4-target.png,125,4.467,13,4703,125,feet,jsons/VE125_randls_10.json,521236,848151,30,Man
35,511757,DepthScenes,duration_manipulation_targetAtFixation,jsons/VE125_randls_10.json,http://54.235.29.9/FacialAge/BNav_EC2/DepthDuration/v2_depth_duration_MTurk/v2_DepthDuration_HTML.html#332,332,1536,864,1536,864,9-3-2022,9-48-40,36,depth_duration_stimuli/001392_2014-06-19_16-07-59_260595134347_rgbf000046-resize_1/001392_2014-06-19_16-07-59_260595134347_rgbf000046-resize_1-target.png,125,4.135,7,4119,125,feet,jsons/VE125_randls_10.json,521236,848151,30,Man
36,511757,DepthScenes,duration_manipulation_targetAtFixation,jsons/VE125_randls_10.json,http://54.235.29.9/FacialAge/BNav_EC2/DepthDuration/v2_depth_duration_MTurk/v2_DepthDuration_HTML.html#332,332,1536,864,1536,864,9-3-2022,9-48-40,37,depth_duration_stimuli/001167_2014-06-17_15-38-07_260595134347_rgbf000108-resize_0/001167_2014-06-17_15-38-07_260595134347_rgbf000108-resize_0-target.png,125,1.8505,3,2457,125,feet,jsons/VE125_randls_10.json,521236,848151,30,Man
37,511757,DepthScenes,duration_manipulation_targetAtFixation,jsons/VE125_randls_10.json,http://54.235.29.9/FacialAge/BNav_EC2/DepthDuration/v2_depth_duration_MTurk/v2_DepthDuration_HTML.html#332,332,1536,864,1536,864,9-3-2022,9-48-40,38,depth_duration_stimuli/003587_2014-05-23_16-48-02_094959634447_rgbf002384-resize_2/003587_2014-05-23_16-48-02_094959634447_rgbf002384-resize_2-target.png,125,1.357,4,2223,125,feet,jsons/VE125_randls_10.json,521236,848151,30,Man
38,511757,DepthScenes,duration_manipulation_targetAtFixation,jsons/VE125_randls_10.json,http://54.235.29.9/FacialAge/BNav_EC2/DepthDuration/v2_depth_duration_MTurk/v2_DepthDuration_HTML.html#332,332,1536,864,1536,864,9-3-2022,9-48-40,39,depth_duration_stimuli/000486_2014-06-09_20-47-20_260595134347_rgbf000143-resize_2/000486_2014-06-09_20-47-20_260595134347_rgbf000143-resize_2-target.png,125,4.8325,10,2629,124,feet,jsons/VE125_randls_10.json,521236,848151,30,Man
39,511757,DepthScenes,duration_manipulation_targetAtFixation,jsons/VE125_randls_10.json,http://54.235.29.9/FacialAge/BNav_EC2/DepthDuration/v2_depth_duration_MTurk/v2_DepthDuration_HTML.html#332,332,1536,864,1536,864,9-3-2022,9-48-40,40,depth_duration_stimuli/003083_2014-06-15_15-21-03_094959634447_rgbf000063-resize_1/003083_2014-06-15_15-21-03_094959634447_rgbf000063-resize_1-target.png,125,4.1405,12,4185,124,feet,jsons/VE125_randls_10.json,521236,848151,30,Man
40,511757,DepthScenes,duration_manipulation_targetAtFixation,jsons/VE125_randls_10.json,http://54.235.29.9/FacialAge/BNav_EC2/DepthDuration/v2_depth_duration_MTurk/v2_DepthDuration_HTML.html#332,332,1536,864,1536,864,9-3-2022,9-48-40,41,depth_duration_stimuli/000810_2014-06-08_17-20-01_260595134347_rgbf000105-resize_0/000810_2014-06-08_17-20-01_260595134347_rgbf000105-resize_0-target.png,125,1.4865,5,4312,123,feet,jsons/VE125_randls_10.json,521236,848151,30,Man
41,511757,DepthScenes,duration_manipulation_targetAtFixation,jsons/VE125_randls_10.json,http://54.235.29.9/FacialAge/BNav_EC2/DepthDuration/v2_depth_duration_MTurk/v2_DepthDuration_HTML.html#332,332,1536,864,1536,864,9-3-2022,9-48-40,42,depth_duration_stimuli/001214_2014-06-17_16-13-55_260595134347_rgbf000111-resize_0/001214_2014-06-17_16-13-55_260595134347_rgbf000111-resize_0-target.png,125,2.6505,0,2779,123,feet,jsons/VE125_randls_10.json,521236,848151,30,Man
42,511757,DepthScenes,duration_manipulation_targetAtFixation,jsons/VE125_randls_10.json,http://54.235.29.9/FacialAge/BNav_EC2/DepthDuration/v2_depth_duration_MTurk/v2_DepthDuration_HTML.html#332,332,1536,864,1536,864,9-3-2022,9-48-40,43,depth_duration_stimuli/000692_2014-06-08_13-09-42_260595134347_rgbf000199-resize_2/000692_2014-06-08_13-09-42_260595134347_rgbf000199-resize_2-target.png,125,3.661,10,4495,124,feet,jsons/VE125_randls_10.json,521236,848151,30,Man
43,511757,DepthScenes,duration_manipulation_targetAtFixation,jsons/VE125_randls_10.json,http://54.235.29.9/FacialAge/BNav_EC2/DepthDuration/v2_depth_duration_MTurk/v2_DepthDuration_HTML.html#332,332,1536,864,1536,864,9-3-2022,9-48-40,44,depth_duration_stimuli/001094_2014-06-15_17-36-00_260595134347_rgbf000205-resize_0/001094_2014-06-15_17-36-00_260595134347_rgbf000205-resize_0-target.png,125,4.2175,8,3378,126,feet,jsons/VE125_randls_10.json,521236,848151,30,Man
44,511757,DepthScenes,duration_manipulation_targetAtFixation,jsons/VE125_randls_10.json,http://54.235.29.9/FacialAge/BNav_EC2/DepthDuration/v2_depth_duration_MTurk/v2_DepthDuration_HTML.html#332,332,1536,864,1536,864,9-3-2022,9-48-40,45,depth_duration_stimuli/000787_2014-06-08_22-33-53_260595134347_rgbf000175-resize_1/000787_2014-06-08_22-33-53_260595134347_rgbf000175-resize-original.jpg,125,4.784,0,2398,124,feet,jsons/VE125_randls_10.json,521236,848151,30,Man
45,511757,DepthScenes,duration_manipulation_targetAtFixation,jsons/VE125_randls_10.json,http://54.235.29.9/FacialAge/BNav_EC2/DepthDuration/v2_depth_duration_MTurk/v2_DepthDuration_HTML.html#332,332,1536,864,1536,864,9-3-2022,9-48-40,46,depth_duration_stimuli/003534_2014-05-22_15-06-10_094959634447_rgbf000102-resize_4/003534_2014-05-22_15-06-10_094959634447_rgbf000102-resize_4-target.png,125,1.426,3,3069,124,feet,jsons/VE125_randls_10.json,521236,848151,30,Man
46,511757,DepthScenes,duration_manipulation_targetAtFixation,jsons/VE125_randls_10.json,http://54.235.29.9/FacialAge/BNav_EC2/DepthDuration/v2_depth_duration_MTurk/v2_DepthDuration_HTML.html#332,332,1536,864,1536,864,9-3-2022,9-48-40,47,depth_duration_stimuli/002637_2014-06-24_14-51-13_094959634447_rgbf000066-resize_4/002637_2014-06-24_14-51-13_094959634447_rgbf000066-resize_4-target.png,125,1.9955,6,2464,124,feet,jsons/VE125_randls_10.json,521236,848151,30,Man
47,511757,DepthScenes,duration_manipulation_targetAtFixation,jsons/VE125_randls_10.json,http://54.235.29.9/FacialAge/BNav_EC2/DepthDuration/v2_depth_duration_MTurk/v2_DepthDuration_HTML.html#332,332,1536,864,1536,864,9-3-2022,9-48-40,48,depth_duration_stimuli/000493_2014-06-09_21-01-18_260595134347_rgbf000196-resize_3/000493_2014-06-09_21-01-18_260595134347_rgbf000196-resize_3-target.png,125,3.44,5,2655,125,feet,jsons/VE125_randls_10.json,521236,848151,30,Man
48,511757,DepthScenes,duration_manipulation_targetAtFixation,jsons/VE125_randls_10.json,http://54.235.29.9/FacialAge/BNav_EC2/DepthDuration/v2_depth_duration_MTurk/v2_DepthDuration_HTML.html#332,332,1536,864,1536,864,9-3-2022,9-48-40,49,depth_duration_stimuli/000191_2014-05-12_17-07-38_260595134347_rgbf000199-resize_0/000191_2014-05-12_17-07-38_260595134347_rgbf000199-resize_0-target.png,125,3.7995,10,2732,127,feet,jsons/VE125_randls_10.json,521236,848151,30,Man
49,511757,DepthScenes,duration_manipulation_targetAtFixation,jsons/VE125_randls_10.json,http://54.235.29.9/FacialAge/BNav_EC2/DepthDuration/v2_depth_duration_MTurk/v2_DepthDuration_HTML.html#332,332,1536,864,1536,864,9-3-2022,9-48-40,50,depth_duration_stimuli/001056_2014-06-08_18-46-44_260595134347_rgbf000068-resize_0/001056_2014-06-08_18-46-44_260595134347_rgbf000068-resize_0-target.png,125,2.6625,7,2596,123,feet,jsons/VE125_randls_10.json,521236,848151,30,Man
50,511757,DepthScenes,duration_manipulation_targetAtFixation,jsons/VE125_randls_10.json,http://54.235.29.9/FacialAge/BNav_EC2/DepthDuration/v2_depth_duration_MTurk/v2_DepthDuration_HTML.html#332,332,1536,864,1536,864,9-3-2022,9-48-40,51,depth_duration_stimuli/002199_2014-06-28_18-33-56_260595134347_rgbf000074-resize_0/002199_2014-06-28_18-33-56_260595134347_rgbf000074-resize_0-target.png,125,1.996,2,2028,124,feet,jsons/VE125_randls_10.json,521236,848151,30,Man
51,511757,DepthScenes,duration_manipulation_targetAtFixation,jsons/VE125_randls_10.json,http://54.235.29.9/FacialAge/BNav_EC2/DepthDuration/v2_depth_duration_MTurk/v2_DepthDuration_HTML.html#332,332,1536,864,1536,864,9-3-2022,9-48-40,52,depth_duration_stimuli/001449_2014-06-19_17-01-27_260595134347_rgbf000116-resize_2/001449_2014-06-19_17-01-27_260595134347_rgbf000116-resize_2-target.png,125,3.452,6,2664,121,feet,jsons/VE125_randls_10.json,521236,848151,30,Man
52,511757,DepthScenes,duration_manipulation_targetAtFixation,jsons/VE125_randls_10.json,http://54.235.29.9/FacialAge/BNav_EC2/DepthDuration/v2_depth_duration_MTurk/v2_DepthDuration_HTML.html#332,332,1536,864,1536,864,9-3-2022,9-48-40,53,depth_duration_stimuli/001450_2014-06-19_17-02-03_260595134347_rgbf000203-resize_4/001450_2014-06-19_17-02-03_260595134347_rgbf000203-resize_4-target.png,125,4.0106666666667,10,2582,123,feet,jsons/VE125_randls_10.json,521236,848151,30,Man
53,511757,DepthScenes,duration_manipulation_targetAtFixation,jsons/VE125_randls_10.json,http://54.235.29.9/FacialAge/BNav_EC2/DepthDuration/v2_depth_duration_MTurk/v2_DepthDuration_HTML.html#332,332,1536,864,1536,864,9-3-2022,9-48-40,54,depth_duration_stimuli/002663_2014-06-13_15-50-26_094959634447_rgbf000075-resize_1/002663_2014-06-13_15-50-26_094959634447_rgbf000075-resize_1-target.png,125,4.7495,10,4518,124,feet,jsons/VE125_randls_10.json,521236,848151,30,Man
54,511757,DepthScenes,duration_manipulation_targetAtFixation,jsons/VE125_randls_10.json,http://54.235.29.9/FacialAge/BNav_EC2/DepthDuration/v2_depth_duration_MTurk/v2_DepthDuration_HTML.html#332,332,1536,864,1536,864,9-3-2022,9-48-40,55,depth_duration_stimuli/000409_2014-06-04_19-23-33_260595134347_rgbf000067-resize_0/000409_2014-06-04_19-23-33_260595134347_rgbf000067-resize_0-target.png,125,3.7335,7,2326,125,feet,jsons/VE125_randls_10.json,521236,848151,30,Man
55,511757,DepthScenes,duration_manipulation_targetAtFixation,jsons/VE125_randls_10.json,http://54.235.29.9/FacialAge/BNav_EC2/DepthDuration/v2_depth_duration_MTurk/v2_DepthDuration_HTML.html#332,332,1536,864,1536,864,9-3-2022,9-48-40,56,depth_duration_stimuli/002788_2014-06-22_19-36-03_094959634447_rgbf000088-resize_2/002788_2014-06-22_19-36-03_094959634447_rgbf000088-resize_2-target.png,125,1.6465,5,2672,125,feet,jsons/VE125_randls_10.json,521236,848151,30,Man
56,511757,DepthScenes,duration_manipulation_targetAtFixation,jsons/VE125_randls_10.json,http://54.235.29.9/FacialAge/BNav_EC2/DepthDuration/v2_depth_duration_MTurk/v2_DepthDuration_HTML.html#332,332,1536,864,1536,864,9-3-2022,9-48-40,57,depth_duration_stimuli/000749_2014-06-08_21-55-06_260595134347_rgbf000070-resize_2/000749_2014-06-08_21-55-06_260595134347_rgbf000070-resize_2-target.png,125,2.331,4,5078,124,feet,jsons/VE125_randls_10.json,521236,848151,30,Man
57,511757,DepthScenes,duration_manipulation_targetAtFixation,jsons/VE125_randls_10.json,http://54.235.29.9/FacialAge/BNav_EC2/DepthDuration/v2_depth_duration_MTurk/v2_DepthDuration_HTML.html#332,332,1536,864,1536,864,9-3-2022,9-48-40,58,depth_duration_stimuli/000436_2014-06-09_22-25-11_260595134347_rgbf000137-resize_1/000436_2014-06-09_22-25-11_260595134347_rgbf000137-resize_1-target.png,125,4.0705,13,2378,124,feet,jsons/VE125_randls_10.json,521236,848151,30,Man
58,511757,DepthScenes,duration_manipulation_targetAtFixation,jsons/VE125_randls_10.json,http://54.235.29.9/FacialAge/BNav_EC2/DepthDuration/v2_depth_duration_MTurk/v2_DepthDuration_HTML.html#332,332,1536,864,1536,864,9-3-2022,9-48-40,59,depth_duration_stimuli/002444_2014-06-28_20-32-08_260595134347_rgbf000027-resize_0/002444_2014-06-28_20-32-08_260595134347_rgbf000027-resize_0-target.png,125,4.388999999999999,10,2359,125,feet,jsons/VE125_randls_10.json,521236,848151,30,Man
59,511757,DepthScenes,duration_manipulation_targetAtFixation,jsons/VE125_randls_10.json,http://54.235.29.9/FacialAge/BNav_EC2/DepthDuration/v2_depth_duration_MTurk/v2_DepthDuration_HTML.html#332,332,1536,864,1536,864,9-3-2022,9-48-40,60,depth_duration_stimuli/000878_2014-06-08_22-52-45_260595134347_rgbf000045-resize_2/000878_2014-06-08_22-52-45_260595134347_rgbf000045-resize_2-target.png,125,2.092,6,2221,124,feet,jsons/VE125_randls_10.json,521236,848151,30,Man
60,511757,DepthScenes,duration_manipulation_targetAtFixation,jsons/VE125_randls_10.json,http://54.235.29.9/FacialAge/BNav_EC2/DepthDuration/v2_depth_duration_MTurk/v2_DepthDuration_HTML.html#332,332,1536,864,1536,864,9-3-2022,9-48-40,61,depth_duration_stimuli/002953_2014-06-08_17-32-18_094959634447_rgbf000059-resize_5/002953_2014-06-08_17-32-18_094959634447_rgbf000059-resize_5-target.png,125,1.551,2,2014,121,feet,jsons/VE125_randls_10.json,521236,848151,30,Man
61,511757,DepthScenes,duration_manipulation_targetAtFixation,jsons/VE125_randls_10.json,http://54.235.29.9/FacialAge/BNav_EC2/DepthDuration/v2_depth_duration_MTurk/v2_DepthDuration_HTML.html#332,332,1536,864,1536,864,9-3-2022,9-48-40,62,depth_duration_stimuli/002213_2014-06-28_18-37-58_260595134347_rgbf000055-resize_1/002213_2014-06-28_18-37-58_260595134347_rgbf000055-resize_1-target.png,125,3.62,12,2319,140,feet,jsons/VE125_randls_10.json,521236,848151,30,Man
62,511757,DepthScenes,duration_manipulation_targetAtFixation,jsons/VE125_randls_10.json,http://54.235.29.9/FacialAge/BNav_EC2/DepthDuration/v2_depth_duration_MTurk/v2_DepthDuration_HTML.html#332,332,1536,864,1536,864,9-3-2022,9-48-40,63,depth_duration_stimuli/000691_2014-06-08_13-08-50_260595134347_rgbf000132-resize_3/000691_2014-06-08_13-08-50_260595134347_rgbf000132-resize_3-target.png,125,4.1530000000000005,7,5000,123,feet,jsons/VE125_randls_10.json,521236,848151,30,Man
63,511757,DepthScenes,duration_manipulation_targetAtFixation,jsons/VE125_randls_10.json,http://54.235.29.9/FacialAge/BNav_EC2/DepthDuration/v2_depth_duration_MTurk/v2_DepthDuration_HTML.html#332,332,1536,864,1536,864,9-3-2022,9-48-40,64,depth_duration_stimuli/001158_2014-06-17_15-32-16_260595134347_rgbf000138-resize_2/001158_2014-06-17_15-32-16_260595134347_rgbf000138-resize_2-target.png,125,4.5315,12,2839,124,feet,jsons/VE125_randls_10.json,521236,848151,30,Man
64,511757,DepthScenes,duration_manipulation_targetAtFixation,jsons/VE125_randls_10.json,http://54.235.29.9/FacialAge/BNav_EC2/DepthDuration/v2_depth_duration_MTurk/v2_DepthDuration_HTML.html#332,332,1536,864,1536,864,9-3-2022,9-48-40,65,depth_duration_stimuli/000556_2014-06-09_22-42-56_260595134347_rgbf000214-resize_1/000556_2014-06-09_22-42-56_260595134347_rgbf000214-resize_1-target.png,125,4.8415,6,2260,126,feet,jsons/VE125_randls_10.json,521236,848151,30,Man
65,511757,DepthScenes,duration_manipulation_targetAtFixation,jsons/VE125_randls_10.json,http://54.235.29.9/FacialAge/BNav_EC2/DepthDuration/v2_depth_duration_MTurk/v2_DepthDuration_HTML.html#332,332,1536,864,1536,864,9-3-2022,9-48-40,66,depth_duration_stimuli/001222_2014-06-17_16-24-06_260595134347_rgbf000073-resize_0/001222_2014-06-17_16-24-06_260595134347_rgbf000073-resize-original.jpg,125,1.4385,0,2265,123,feet,jsons/VE125_randls_10.json,521236,848151,30,Man
66,511757,DepthScenes,duration_manipulation_targetAtFixation,jsons/VE125_randls_10.json,http://54.235.29.9/FacialAge/BNav_EC2/DepthDuration/v2_depth_duration_MTurk/v2_DepthDuration_HTML.html#332,332,1536,864,1536,864,9-3-2022,9-48-40,67,depth_duration_stimuli/000773_2014-06-08_22-24-54_260595134347_rgbf000093-resize_1/000773_2014-06-08_22-24-54_260595134347_rgbf000093-resize_1-target.png,125,4.973,14,3417,124,feet,jsons/VE125_randls_10.json,521236,848151,30,Man
67,511757,DepthScenes,duration_manipulation_targetAtFixation,jsons/VE125_randls_10.json,http://54.235.29.9/FacialAge/BNav_EC2/DepthDuration/v2_depth_duration_MTurk/v2_DepthDuration_HTML.html#332,332,1536,864,1536,864,9-3-2022,9-48-40,68,depth_duration_stimuli/002414_2014-06-28_20-24-58_260595134347_rgbf000067-resize_4/002414_2014-06-28_20-24-58_260595134347_rgbf000067-resize_4-target.png,125,4.363,9,2340,125,feet,jsons/VE125_randls_10.json,521236,848151,30,Man
68,511757,DepthScenes,duration_manipulation_targetAtFixation,jsons/VE125_randls_10.json,http://54.235.29.9/FacialAge/BNav_EC2/DepthDuration/v2_depth_duration_MTurk/v2_DepthDuration_HTML.html#332,332,1536,864,1536,864,9-3-2022,9-48-40,69,depth_duration_stimuli/001806_2014-06-26_20-50-20_260595134347_rgbf000091-resize_1/001806_2014-06-26_20-50-20_260595134347_rgbf000091-resize_1-target.png,125,2.7305,3,2403,124,feet,jsons/VE125_randls_10.json,521236,848151,30,Man
69,511757,DepthScenes,duration_manipulation_targetAtFixation,jsons/VE125_randls_10.json,http://54.235.29.9/FacialAge/BNav_EC2/DepthDuration/v2_depth_duration_MTurk/v2_DepthDuration_HTML.html#332,332,1536,864,1536,864,9-3-2022,9-48-40,70,depth_duration_stimuli/001617_2014-06-20_11-35-32_260595134347_rgbf000066-resize_1/001617_2014-06-20_11-35-32_260595134347_rgbf000066-resize_1-target.png,125,3.7910000000000004,8,3180,123,feet,jsons/VE125_randls_10.json,521236,848151,30,Man
70,511757,DepthScenes,duration_manipulation_targetAtFixation,jsons/VE125_randls_10.json,http://54.235.29.9/FacialAge/BNav_EC2/DepthDuration/v2_depth_duration_MTurk/v2_DepthDuration_HTML.html#332,332,1536,864,1536,864,9-3-2022,9-48-40,71,depth_duration_stimuli/002988_2014-06-15_12-24-20_094959634447_rgbf000150-resize_1/002988_2014-06-15_12-24-20_094959634447_rgbf000150-resize_1-target.png,125,4.7669999999999995,10,2209,137,feet,jsons/VE125_randls_10.json,521236,848151,30,Man
71,511757,DepthScenes,duration_manipulation_targetAtFixation,jsons/VE125_randls_10.json,http://54.235.29.9/FacialAge/BNav_EC2/DepthDuration/v2_depth_duration_MTurk/v2_DepthDuration_HTML.html#332,332,1536,864,1536,864,9-3-2022,9-48-40,72,depth_duration_stimuli/001052_2014-06-08_18-24-54_260595134347_rgbf000130-resize_1/001052_2014-06-08_18-24-54_260595134347_rgbf000130-resize_1-target.png,125,4.1045,6,2310,123,feet,jsons/VE125_randls_10.json,521236,848151,30,Man
72,511757,DepthScenes,duration_manipulation_targetAtFixation,jsons/VE125_randls_10.json,http://54.235.29.9/FacialAge/BNav_EC2/DepthDuration/v2_depth_duration_MTurk/v2_DepthDuration_HTML.html#332,332,1536,864,1536,864,9-3-2022,9-48-40,73,depth_duration_stimuli/001059_2014-06-08_21-53-27_260595134347_rgbf000061-resize_4/001059_2014-06-08_21-53-27_260595134347_rgbf000061-resize_4-target.png,125,2.4185,5,2169,137,feet,jsons/VE125_randls_10.json,521236,848151,30,Man
73,511757,DepthScenes,duration_manipulation_targetAtFixation,jsons/VE125_randls_10.json,http://54.235.29.9/FacialAge/BNav_EC2/DepthDuration/v2_depth_duration_MTurk/v2_DepthDuration_HTML.html#332,332,1536,864,1536,864,9-3-2022,9-48-40,74,depth_duration_stimuli/001032_2014-06-08_13-23-17_260595134347_rgbf000021-resize_3/001032_2014-06-08_13-23-17_260595134347_rgbf000021-resize_3-target.png,125,3.2725,4,2357,123,feet,jsons/VE125_randls_10.json,521236,848151,30,Man
74,511757,DepthScenes,duration_manipulation_targetAtFixation,jsons/VE125_randls_10.json,http://54.235.29.9/FacialAge/BNav_EC2/DepthDuration/v2_depth_duration_MTurk/v2_DepthDuration_HTML.html#332,332,1536,864,1536,864,9-3-2022,9-48-40,75,depth_duration_stimuli/002118_2014-06-25_20-32-08_260595134347_rgbf000078-resize_1/002118_2014-06-25_20-32-08_260595134347_rgbf000078-resize_1-target.png,125,2.6460000000000004,3,1851,124,feet,jsons/VE125_randls_10.json,521236,848151,30,Man
75,511757,DepthScenes,duration_manipulation_targetAtFixation,jsons/VE125_randls_10.json,http://54.235.29.9/FacialAge/BNav_EC2/DepthDuration/v2_depth_duration_MTurk/v2_DepthDuration_HTML.html#332,332,1536,864,1536,864,9-3-2022,9-48-40,76,depth_duration_stimuli/001516_2014-06-20_16-25-09_260595134347_rgbf000076-resize_2/001516_2014-06-20_16-25-09_260595134347_rgbf000076-resize_2-target.png,125,1.7445,3,2032,123,feet,jsons/VE125_randls_10.json,521236,848151,30,Man
76,511757,DepthScenes,duration_manipulation_targetAtFixation,jsons/VE125_randls_10.json,http://54.235.29.9/FacialAge/BNav_EC2/DepthDuration/v2_depth_duration_MTurk/v2_DepthDuration_HTML.html#332,332,1536,864,1536,864,9-3-2022,9-48-40,77,depth_duration_stimuli/002057_2014-06-24_21-00-13_260595134347_rgbf000120-resize_1/002057_2014-06-24_21-00-13_260595134347_rgbf000120-resize_1-target.png,125,2.967,7,2226,125,feet,jsons/VE125_randls_10.json,521236,848151,30,Man
77,511757,DepthScenes,duration_manipulation_targetAtFixation,jsons/VE125_randls_10.json,http://54.235.29.9/FacialAge/BNav_EC2/DepthDuration/v2_depth_duration_MTurk/v2_DepthDuration_HTML.html#332,332,1536,864,1536,864,9-3-2022,9-48-40,78,depth_duration_stimuli/000709_2014-06-08_13-51-55_260595134347_rgbf000068-resize_3/000709_2014-06-08_13-51-55_260595134347_rgbf000068-resize_3-target.png,125,1.8030000000000002,5,2244,122,feet,jsons/VE125_randls_10.json,521236,848151,30,Man
78,511757,DepthScenes,duration_manipulation_targetAtFixation,jsons/VE125_randls_10.json,http://54.235.29.9/FacialAge/BNav_EC2/DepthDuration/v2_depth_duration_MTurk/v2_DepthDuration_HTML.html#332,332,1536,864,1536,864,9-3-2022,9-48-40,79,depth_duration_stimuli/000929_2014-06-09_16-33-19_260595134347_rgbf000139-resize_0/000929_2014-06-09_16-33-19_260595134347_rgbf000139-resize_0-target.png,125,2.8680000000000003,6,2038,136,feet,jsons/VE125_randls_10.json,521236,848151,30,Man
79,511757,DepthScenes,duration_manipulation_targetAtFixation,jsons/VE125_randls_10.json,http://54.235.29.9/FacialAge/BNav_EC2/DepthDuration/v2_depth_duration_MTurk/v2_DepthDuration_HTML.html#332,332,1536,864,1536,864,9-3-2022,9-48-40,80,depth_duration_stimuli/000457_2014-06-08_16-52-43_260595134347_rgbf000199-resize_1/000457_2014-06-08_16-52-43_260595134347_rgbf000199-resize_1-target.png,125,3.6489999999999996,4,2227,124,feet,jsons/VE125_randls_10.json,521236,848151,30,Man
80,511757,DepthScenes,duration_manipulation_targetAtFixation,jsons/VE125_randls_10.json,http://54.235.29.9/FacialAge/BNav_EC2/DepthDuration/v2_depth_duration_MTurk/v2_DepthDuration_HTML.html#332,332,1536,864,1536,864,9-3-2022,9-48-40,81,depth_duration_stimuli/000009_2014-05-26_14-32-05_260595134347_rgbf000034-resize_3/000009_2014-05-26_14-32-05_260595134347_rgbf000034-resize_3-target.png,125,3.8715,9,2109,126,feet,jsons/VE125_randls_10.json,521236,848151,30,Man
81,511757,DepthScenes,duration_manipulation_targetAtFixation,jsons/VE125_randls_10.json,http://54.235.29.9/FacialAge/BNav_EC2/DepthDuration/v2_depth_duration_MTurk/v2_DepthDuration_HTML.html#332,332,1536,864,1536,864,9-3-2022,9-48-40,82,depth_duration_stimuli/001828_2014-06-26_21-40-03_260595134347_rgbf000024-resize_0/001828_2014-06-26_21-40-03_260595134347_rgbf000024-resize_0-target.png,125,4.8260000000000005,7,2436,125,feet,jsons/VE125_randls_10.json,521236,848151,30,Man
82,511757,DepthScenes,duration_manipulation_targetAtFixation,jsons/VE125_randls_10.json,http://54.235.29.9/FacialAge/BNav_EC2/DepthDuration/v2_depth_duration_MTurk/v2_DepthDuration_HTML.html#332,332,1536,864,1536,864,9-3-2022,9-48-40,83,depth_duration_stimuli/002272_2014-06-28_18-53-56_260595134347_rgbf000067-resize_2/002272_2014-06-28_18-53-56_260595134347_rgbf000067-resize_2-target.png,125,1.138,2,1885,125,feet,jsons/VE125_randls_10.json,521236,848151,30,Man
83,511757,DepthScenes,duration_manipulation_targetAtFixation,jsons/VE125_randls_10.json,http://54.235.29.9/FacialAge/BNav_EC2/DepthDuration/v2_depth_duration_MTurk/v2_DepthDuration_HTML.html#332,332,1536,864,1536,864,9-3-2022,9-48-40,84,depth_duration_stimuli/001571_2014-06-20_17-21-32_260595134347_rgbf000089-resize_1/001571_2014-06-20_17-21-32_260595134347_rgbf000089-resize_1-target.png,125,1.86,2,1906,124,feet,jsons/VE125_randls_10.json,521236,848151,30,Man
84,511757,DepthScenes,duration_manipulation_targetAtFixation,jsons/VE125_randls_10.json,http://54.235.29.9/FacialAge/BNav_EC2/DepthDuration/v2_depth_duration_MTurk/v2_DepthDuration_HTML.html#332,332,1536,864,1536,864,9-3-2022,9-48-40,85,depth_duration_stimuli/002043_2014-06-24_20-29-38_260595134347_rgbf000039-resize_4/002043_2014-06-24_20-29-38_260595134347_rgbf000039-resize_4-target.png,125,2.8435,5,2219,125,feet,jsons/VE125_randls_10.json,521236,848151,30,Man
85,511757,DepthScenes,duration_manipulation_targetAtFixation,jsons/VE125_randls_10.json,http://54.235.29.9/FacialAge/BNav_EC2/DepthDuration/v2_depth_duration_MTurk/v2_DepthDuration_HTML.html#332,332,1536,864,1536,864,9-3-2022,9-48-40,86,depth_duration_stimuli/003048_2014-06-15_13-49-43_094959634447_rgbf000150-resize_1/003048_2014-06-15_13-49-43_094959634447_rgbf000150-resize_1-target.png,125,4.0035,6,2341,124,feet,jsons/VE125_randls_10.json,521236,848151,30,Man
86,511757,DepthScenes,duration_manipulation_targetAtFixation,jsons/VE125_randls_10.json,http://54.235.29.9/FacialAge/BNav_EC2/DepthDuration/v2_depth_duration_MTurk/v2_DepthDuration_HTML.html#332,332,1536,864,1536,864,9-3-2022,9-48-40,87,depth_duration_stimuli/002630_2014-06-24_14-47-50_094959634447_rgbf000055-resize_1/002630_2014-06-24_14-47-50_094959634447_rgbf000055-resize_1-target.png,125,3.0095,10,3515,140,feet,jsons/VE125_randls_10.json,521236,848151,30,Man
87,511757,DepthScenes,duration_manipulation_targetAtFixation,jsons/VE125_randls_10.json,http://54.235.29.9/FacialAge/BNav_EC2/DepthDuration/v2_depth_duration_MTurk/v2_DepthDuration_HTML.html#332,332,1536,864,1536,864,9-3-2022,9-48-40,88,depth_duration_stimuli/002758_2014-06-22_19-11-20_094959634447_rgbf000128-resize_1/002758_2014-06-22_19-11-20_094959634447_rgbf000128-resize_1-target.png,125,2.555,3,1917,125,feet,jsons/VE125_randls_10.json,521236,848151,30,Man
88,511757,DepthScenes,duration_manipulation_targetAtFixation,jsons/VE125_randls_10.json,http://54.235.29.9/FacialAge/BNav_EC2/DepthDuration/v2_depth_duration_MTurk/v2_DepthDuration_HTML.html#332,332,1536,864,1536,864,9-3-2022,9-48-40,89,depth_duration_stimuli/001150_2014-06-17_15-27-34_260595134347_rgbf000108-resize_2/001150_2014-06-17_15-27-34_260595134347_rgbf000108-resize_2-target.png,125,4.0325,6,1870,108,feet,jsons/VE125_randls_10.json,521236,848151,30,Man
89,511757,DepthScenes,duration_manipulation_targetAtFixation,jsons/VE125_randls_10.json,http://54.235.29.9/FacialAge/BNav_EC2/DepthDuration/v2_depth_duration_MTurk/v2_DepthDuration_HTML.html#332,332,1536,864,1536,864,9-3-2022,9-48-40,90,depth_duration_stimuli/000665_2014-06-09_20-42-35_260595134347_rgbf000110-resize_1/000665_2014-06-09_20-42-35_260595134347_rgbf000110-resize_1-target.png,125,3.057,5,2219,123,feet,jsons/VE125_randls_10.json,521236,848151,30,Man
90,511757,DepthScenes,duration_manipulation_targetAtFixation,jsons/VE125_randls_10.json,http://54.235.29.9/FacialAge/BNav_EC2/DepthDuration/v2_depth_duration_MTurk/v2_DepthDuration_HTML.html#332,332,1536,864,1536,864,9-3-2022,9-48-40,91,depth_duration_stimuli/000469_2014-06-09_19-42-10_260595134347_rgbf000081-resize_1/000469_2014-06-09_19-42-10_260595134347_rgbf000081-resize_1-target.png,125,1.652,2,1912,121,feet,jsons/VE125_randls_10.json,521236,848151,30,Man
91,511757,DepthScenes,duration_manipulation_targetAtFixation,jsons/VE125_randls_10.json,http://54.235.29.9/FacialAge/BNav_EC2/DepthDuration/v2_depth_duration_MTurk/v2_DepthDuration_HTML.html#332,332,1536,864,1536,864,9-3-2022,9-48-40,92,depth_duration_stimuli/000483_2014-06-09_20-41-45_260595134347_rgbf000116-resize_4/000483_2014-06-09_20-41-45_260595134347_rgbf000116-resize_4-target.png,125,1.337,2,1972,110,feet,jsons/VE125_randls_10.json,521236,848151,30,Man
92,511757,DepthScenes,duration_manipulation_targetAtFixation,jsons/VE125_randls_10.json,http://54.235.29.9/FacialAge/BNav_EC2/DepthDuration/v2_depth_duration_MTurk/v2_DepthDuration_HTML.html#332,332,1536,864,1536,864,9-3-2022,9-48-40,93,depth_duration_stimuli/002600_2014-06-24_14-27-04_094959634447_rgbf000074-resize_2/002600_2014-06-24_14-27-04_094959634447_rgbf000074-resize_2-target.png,125,2.7575,6,2184,122,feet,jsons/VE125_randls_10.json,521236,848151,30,Man
93,511757,DepthScenes,duration_manipulation_targetAtFixation,jsons/VE125_randls_10.json,http://54.235.29.9/FacialAge/BNav_EC2/DepthDuration/v2_depth_duration_MTurk/v2_DepthDuration_HTML.html#332,332,1536,864,1536,864,9-3-2022,9-48-40,94,depth_duration_stimuli/003228_2014-05-14_13-42-35_094959634447_rgbf000101-resize_1/003228_2014-05-14_13-42-35_094959634447_rgbf000101-resize_1-target.png,125,1.9680000000000002,4,1974,123,feet,jsons/VE125_randls_10.json,521236,848151,30,Man
94,511757,DepthScenes,duration_manipulation_targetAtFixation,jsons/VE125_randls_10.json,http://54.235.29.9/FacialAge/BNav_EC2/DepthDuration/v2_depth_duration_MTurk/v2_DepthDuration_HTML.html#332,332,1536,864,1536,864,9-3-2022,9-48-40,95,depth_duration_stimuli/001011_2014-06-08_23-18-54_260595134347_rgbf000044-resize_4/001011_2014-06-08_23-18-54_260595134347_rgbf000044-resize_4-target.png,125,2.4730000000000003,7,1825,124,feet,jsons/VE125_randls_10.json,521236,848151,30,Man
95,511757,DepthScenes,duration_manipulation_targetAtFixation,jsons/VE125_randls_10.json,http://54.235.29.9/FacialAge/BNav_EC2/DepthDuration/v2_depth_duration_MTurk/v2_DepthDuration_HTML.html#332,332,1536,864,1536,864,9-3-2022,9-48-40,96,depth_duration_stimuli/002875_2014-06-01_15-19-00_094959634447_rgbf000151-resize_1/002875_2014-06-01_15-19-00_094959634447_rgbf000151-resize_1-target.png,125,1.9675,4,1816,121,feet,jsons/VE125_randls_10.json,521236,848151,30,Man
96,511757,DepthScenes,duration_manipulation_targetAtFixation,jsons/VE125_randls_10.json,http://54.235.29.9/FacialAge/BNav_EC2/DepthDuration/v2_depth_duration_MTurk/v2_DepthDuration_HTML.html#332,332,1536,864,1536,864,9-3-2022,9-48-40,97,depth_duration_stimuli/002279_2014-06-28_18-55-32_260595134347_rgbf000040-resize_5/002279_2014-06-28_18-55-32_260595134347_rgbf000040-resize_5-target.png,125,1.5043333333333,3,1628,111,feet,jsons/VE125_randls_10.json,521236,848151,30,Man
97,511757,DepthScenes,duration_manipulation_targetAtFixation,jsons/VE125_randls_10.json,http://54.235.29.9/FacialAge/BNav_EC2/DepthDuration/v2_depth_duration_MTurk/v2_DepthDuration_HTML.html#332,332,1536,864,1536,864,9-3-2022,9-48-40,98,depth_duration_stimuli/000635_2014-06-08_16-38-42_260595134347_rgbf000106-resize_1/000635_2014-06-08_16-38-42_260595134347_rgbf000106-resize_1-target.png,125,2.074,5,2929,125,feet,jsons/VE125_randls_10.json,521236,848151,30,Man
98,511757,DepthScenes,duration_manipulation_targetAtFixation,jsons/VE125_randls_10.json,http://54.235.29.9/FacialAge/BNav_EC2/DepthDuration/v2_depth_duration_MTurk/v2_DepthDuration_HTML.html#332,332,1536,864,1536,864,9-3-2022,9-48-40,99,depth_duration_stimuli/001540_2014-06-20_17-01-05_260595134347_rgbf000086-resize_2/001540_2014-06-20_17-01-05_260595134347_rgbf000086-resize-original.jpg,125,1.459,0,2200,124,feet,jsons/VE125_randls_10.json,521236,848151,30,Man
99,511757,DepthScenes,duration_manipulation_targetAtFixation,jsons/VE125_randls_10.json,http://54.235.29.9/FacialAge/BNav_EC2/DepthDuration/v2_depth_duration_MTurk/v2_DepthDuration_HTML.html#332,332,1536,864,1536,864,9-3-2022,9-48-40,100,depth_duration_stimuli/002989_2014-06-15_12-25-03_094959634447_rgbf000150-resize_3/002989_2014-06-15_12-25-03_094959634447_rgbf000150-resize_3-target.png,125,4.1975,9,2048,125,feet,jsons/VE125_randls_10.json,521236,848151,30,Man
100,511757,DepthScenes,duration_manipulation_targetAtFixation,jsons/VE125_randls_10.json,http://54.235.29.9/FacialAge/BNav_EC2/DepthDuration/v2_depth_duration_MTurk/v2_DepthDuration_HTML.html#332,332,1536,864,1536,864,9-3-2022,9-48-40,101,depth_duration_stimuli/000866_2014-06-09_20-45-42_260595134347_rgbf000139-resize_1/000866_2014-06-09_20-45-42_260595134347_rgbf000139-resize_1-target.png,125,3.2155,4,1923,124,feet,jsons/VE125_randls_10.json,521236,848151,30,Man
101,511757,DepthScenes,duration_manipulation_targetAtFixation,jsons/VE125_randls_10.json,http://54.235.29.9/FacialAge/BNav_EC2/DepthDuration/v2_depth_duration_MTurk/v2_DepthDuration_HTML.html#332,332,1536,864,1536,864,9-3-2022,9-48-40,102,depth_duration_stimuli/000447_2014-06-08_16-15-46_260595134347_rgbf000130-resize_1/000447_2014-06-08_16-15-46_260595134347_rgbf000130-resize_1-target.png,125,4.479,7,2095,124,feet,jsons/VE125_randls_10.json,521236,848151,30,Man
102,511757,DepthScenes,duration_manipulation_targetAtFixation,jsons/VE125_randls_10.json,http://54.235.29.9/FacialAge/BNav_EC2/DepthDuration/v2_depth_duration_MTurk/v2_DepthDuration_HTML.html#332,332,1536,864,1536,864,9-3-2022,9-48-40,103,depth_duration_stimuli/001447_2014-06-19_17-00-32_260595134347_rgbf000082-resize_5/001447_2014-06-19_17-00-32_260595134347_rgbf000082-resize_5-target.png,125,4.13775,6,1849,124,feet,jsons/VE125_randls_10.json,521236,848151,30,Man
103,511757,DepthScenes,duration_manipulation_targetAtFixation,jsons/VE125_randls_10.json,http://54.235.29.9/FacialAge/BNav_EC2/DepthDuration/v2_depth_duration_MTurk/v2_DepthDuration_HTML.html#332,332,1536,864,1536,864,9-3-2022,9-48-40,104,depth_duration_stimuli/001029_2014-06-08_13-17-57_260595134347_rgbf000065-resize_1/001029_2014-06-08_13-17-57_260595134347_rgbf000065-resize_1-target.png,125,3.0835,5,1560,121,feet,jsons/VE125_randls_10.json,521236,848151,30,Man
104,511757,DepthScenes,duration_manipulation_targetAtFixation,jsons/VE125_randls_10.json,http://54.235.29.9/FacialAge/BNav_EC2/DepthDuration/v2_depth_duration_MTurk/v2_DepthDuration_HTML.html#332,332,1536,864,1536,864,9-3-2022,9-48-40,105,depth_duration_stimuli/000677_2014-06-08_23-10-32_260595134347_rgbf000158-resize_6/000677_2014-06-08_23-10-32_260595134347_rgbf000158-resize_6-target.png,125,3.556,6,1754,123,feet,jsons/VE125_randls_10.json,521236,848151,30,Man
105,511757,DepthScenes,duration_manipulation_targetAtFixation,jsons/VE125_randls_10.json,http://54.235.29.9/FacialAge/BNav_EC2/DepthDuration/v2_depth_duration_MTurk/v2_DepthDuration_HTML.html#332,332,1536,864,1536,864,9-3-2022,9-48-40,106,depth_duration_stimuli/002509_2014-06-24_13-19-22_094959634447_rgbf000077-resize_0/002509_2014-06-24_13-19-22_094959634447_rgbf000077-resize_0-target.png,125,1.3065,2,1542,123,feet,jsons/VE125_randls_10.json,521236,848151,30,Man
106,511757,DepthScenes,duration_manipulation_targetAtFixation,jsons/VE125_randls_10.json,http://54.235.29.9/FacialAge/BNav_EC2/DepthDuration/v2_depth_duration_MTurk/v2_DepthDuration_HTML.html#332,332,1536,864,1536,864,9-3-2022,9-48-40,107,depth_duration_stimuli/003338_2014-05-20_11-01-23_094959634447_rgbf000051-resize_6/003338_2014-05-20_11-01-23_094959634447_rgbf000051-resize_6-target.png,125,1.693,2,2024,124,feet,jsons/VE125_randls_10.json,521236,848151,30,Man
107,511757,DepthScenes,duration_manipulation_targetAtFixation,jsons/VE125_randls_10.json,http://54.235.29.9/FacialAge/BNav_EC2/DepthDuration/v2_depth_duration_MTurk/v2_DepthDuration_HTML.html#332,332,1536,864,1536,864,9-3-2022,9-48-40,108,depth_duration_stimuli/000758_2014-06-08_22-05-08_260595134347_rgbf000085-resize_0/000758_2014-06-08_22-05-08_260595134347_rgbf000085-resize_0-target.png,125,3.3810000000000002,6,6761,124,feet,jsons/VE125_randls_10.json,521236,848151,30,Man
108,511757,DepthScenes,duration_manipulation_targetAtFixation,jsons/VE125_randls_10.json,http://54.235.29.9/FacialAge/BNav_EC2/DepthDuration/v2_depth_duration_MTurk/v2_DepthDuration_HTML.html#332,332,1536,864,1536,864,9-3-2022,9-48-40,109,depth_duration_stimuli/000854_2014-06-09_19-43-13_260595134347_rgbf000066-resize_0/000854_2014-06-09_19-43-13_260595134347_rgbf000066-resize_0-target.png,125,3.068,3,3770,124,feet,jsons/VE125_randls_10.json,521236,848151,30,Man
109,511757,DepthScenes,duration_manipulation_targetAtFixation,jsons/VE125_randls_10.json,http://54.235.29.9/FacialAge/BNav_EC2/DepthDuration/v2_depth_duration_MTurk/v2_DepthDuration_HTML.html#332,332,1536,864,1536,864,9-3-2022,9-48-40,110,depth_duration_stimuli/001810_2014-06-26_20-51-35_260595134347_rgbf000040-resize_3/001810_2014-06-26_20-51-35_260595134347_rgbf000040-resize_3-target.png,125,2.2525,4,2039,123,feet,jsons/VE125_randls_10.json,521236,848151,30,Man
110,511757,DepthScenes,duration_manipulation_targetAtFixation,jsons/VE125_randls_10.json,http://54.235.29.9/FacialAge/BNav_EC2/DepthDuration/v2_depth_duration_MTurk/v2_DepthDuration_HTML.html#332,332,1536,864,1536,864,9-3-2022,9-48-40,111,depth_duration_stimuli/003010_2014-06-15_12-54-35_094959634447_rgbf000112-resize_0/003010_2014-06-15_12-54-35_094959634447_rgbf000112-resize_0-target.png,125,3.1185,6,1984,123,feet,jsons/VE125_randls_10.json,521236,848151,30,Man
111,511757,DepthScenes,duration_manipulation_targetAtFixation,jsons/VE125_randls_10.json,http://54.235.29.9/FacialAge/BNav_EC2/DepthDuration/v2_depth_duration_MTurk/v2_DepthDuration_HTML.html#332,332,1536,864,1536,864,9-3-2022,9-48-40,112,depth_duration_stimuli/001199_2014-06-17_16-03-48_260595134347_rgbf000077-resize_0/001199_2014-06-17_16-03-48_260595134347_rgbf000077-resize_0-target.png,125,3.4375,7,2360,124,feet,jsons/VE125_randls_10.json,521236,848151,30,Man
112,511757,DepthScenes,duration_manipulation_targetAtFixation,jsons/VE125_randls_10.json,http://54.235.29.9/FacialAge/BNav_EC2/DepthDuration/v2_depth_duration_MTurk/v2_DepthDuration_HTML.html#332,332,1536,864,1536,864,9-3-2022,9-48-40,113,depth_duration_stimuli/000502_2014-06-08_23-02-32_260595134347_rgbf000063-resize_4/000502_2014-06-08_23-02-32_260595134347_rgbf000063-resize_4-target.png,125,2.431,4,1703,125,feet,jsons/VE125_randls_10.json,521236,848151,30,Man
113,511757,DepthScenes,duration_manipulation_targetAtFixation,jsons/VE125_randls_10.json,http://54.235.29.9/FacialAge/BNav_EC2/DepthDuration/v2_depth_duration_MTurk/v2_DepthDuration_HTML.html#332,332,1536,864,1536,864,9-3-2022,9-48-40,114,depth_duration_stimuli/002570_2014-06-24_13-59-54_094959634447_rgbf000059-resize_0/002570_2014-06-24_13-59-54_094959634447_rgbf000059-resize_0-target.png,125,4.037,8,2860,125,feet,jsons/VE125_randls_10.json,521236,848151,30,Man
114,511757,DepthScenes,duration_manipulation_targetAtFixation,jsons/VE125_randls_10.json,http://54.235.29.9/FacialAge/BNav_EC2/DepthDuration/v2_depth_duration_MTurk/v2_DepthDuration_HTML.html#332,332,1536,864,1536,864,9-3-2022,9-48-40,115,depth_duration_stimuli/002467_2014-06-28_20-38-07_260595134347_rgbf000026-resize_2/002467_2014-06-28_20-38-07_260595134347_rgbf000026-resize_2-target.png,125,4.742,8,3108,124,feet,jsons/VE125_randls_10.json,521236,848151,30,Man
115,511757,DepthScenes,duration_manipulation_targetAtFixation,jsons/VE125_randls_10.json,http://54.235.29.9/FacialAge/BNav_EC2/DepthDuration/v2_depth_duration_MTurk/v2_DepthDuration_HTML.html#332,332,1536,864,1536,864,9-3-2022,9-48-40,116,depth_duration_stimuli/001170_2014-06-17_15-43-44_260595134347_rgbf000096-resize_6/001170_2014-06-17_15-43-44_260595134347_rgbf000096-resize-original.jpg,125,1.1909999999999998,0,1771,123,feet,jsons/VE125_randls_10.json,521236,848151,30,Man
116,511757,DepthScenes,duration_manipulation_targetAtFixation,jsons/VE125_randls_10.json,http://54.235.29.9/FacialAge/BNav_EC2/DepthDuration/v2_depth_duration_MTurk/v2_DepthDuration_HTML.html#332,332,1536,864,1536,864,9-3-2022,9-48-40,117,depth_duration_stimuli/000682_2014-06-08_23-14-58_260595134347_rgbf000041-resize_5/000682_2014-06-08_23-14-58_260595134347_rgbf000041-resize_5-target.png,125,2.7239999999999998,4,4041,124,feet,jsons/VE125_randls_10.json,521236,848151,30,Man
117,511757,DepthScenes,duration_manipulation_targetAtFixation,jsons/VE125_randls_10.json,http://54.235.29.9/FacialAge/BNav_EC2/DepthDuration/v2_depth_duration_MTurk/v2_DepthDuration_HTML.html#332,332,1536,864,1536,864,9-3-2022,9-48-40,118,depth_duration_stimuli/001650_2014-06-20_12-09-00_260595134347_rgbf000087-resize_3/001650_2014-06-20_12-09-00_260595134347_rgbf000087-resize_3-target.png,125,1.9505,2,2440,124,feet,jsons/VE125_randls_10.json,521236,848151,30,Man
118,511757,DepthScenes,duration_manipulation_targetAtFixation,jsons/VE125_randls_10.json,http://54.235.29.9/FacialAge/BNav_EC2/DepthDuration/v2_depth_duration_MTurk/v2_DepthDuration_HTML.html#332,332,1536,864,1536,864,9-3-2022,9-48-40,119,depth_duration_stimuli/000739_2014-06-08_18-45-58_260595134347_rgbf000068-resize_1/000739_2014-06-08_18-45-58_260595134347_rgbf000068-resize_1-target.png,125,3.534,7,3217,125,feet,jsons/VE125_randls_10.json,521236,848151,30,Man
119,511757,DepthScenes,duration_manipulation_targetAtFixation,jsons/VE125_randls_10.json,http://54.235.29.9/FacialAge/BNav_EC2/DepthDuration/v2_depth_duration_MTurk/v2_DepthDuration_HTML.html#332,332,1536,864,1536,864,9-3-2022,9-48-40,120,depth_duration_stimuli/000734_2014-06-08_17-39-11_260595134347_rgbf000128-resize_2/000734_2014-06-08_17-39-11_260595134347_rgbf000128-resize_2-target.png,125,4.098,8,3082,124,feet,jsons/VE125_randls_10.json,521236,848151,30,Man
120,511757,DepthScenes,duration_manipulation_targetAtFixation,jsons/VE125_randls_10.json,http://54.235.29.9/FacialAge/BNav_EC2/DepthDuration/v2_depth_duration_MTurk/v2_DepthDuration_HTML.html#332,332,1536,864,1536,864,9-3-2022,9-48-40,121,depth_duration_stimuli/002725_2014-06-22_11-47-51_094959634447_rgbf000070-resize_1/002725_2014-06-22_11-47-51_094959634447_rgbf000070-resize_1-target.png,125,2.195,4,2284,124,feet,jsons/VE125_randls_10.json,521236,848151,30,Man
121,511757,DepthScenes,duration_manipulation_targetAtFixation,jsons/VE125_randls_10.json,http://54.235.29.9/FacialAge/BNav_EC2/DepthDuration/v2_depth_duration_MTurk/v2_DepthDuration_HTML.html#332,332,1536,864,1536,864,9-3-2022,9-48-40,122,depth_duration_stimuli/002344_2014-06-28_20-06-29_260595134347_rgbf000030-resize_1/002344_2014-06-28_20-06-29_260595134347_rgbf000030-resize_1-target.png,125,1.5795,2,2112,123,feet,jsons/VE125_randls_10.json,521236,848151,30,Man
122,511757,DepthScenes,duration_manipulation_targetAtFixation,jsons/VE125_randls_10.json,http://54.235.29.9/FacialAge/BNav_EC2/DepthDuration/v2_depth_duration_MTurk/v2_DepthDuration_HTML.html#332,332,1536,864,1536,864,9-3-2022,9-48-40,123,depth_duration_stimuli/000906_2014-06-08_13-35-43_260595134347_rgbf000155-resize_1/000906_2014-06-08_13-35-43_260595134347_rgbf000155-resize_1-target.png,125,2.8489999999999998,8,3136,123,feet,jsons/VE125_randls_10.json,521236,848151,30,Man
123,511757,DepthScenes,duration_manipulation_targetAtFixation,jsons/VE125_randls_10.json,http://54.235.29.9/FacialAge/BNav_EC2/DepthDuration/v2_depth_duration_MTurk/v2_DepthDuration_HTML.html#332,332,1536,864,1536,864,9-3-2022,9-48-40,124,depth_duration_stimuli/002805_2014-06-22_19-54-03_094959634447_rgbf000079-resize_1/002805_2014-06-22_19-54-03_094959634447_rgbf000079-resize_1-target.png,125,3.1439999999999997,5,2671,123,feet,jsons/VE125_randls_10.json,521236,848151,30,Man
124,511757,DepthScenes,duration_manipulation_targetAtFixation,jsons/VE125_randls_10.json,http://54.235.29.9/FacialAge/BNav_EC2/DepthDuration/v2_depth_duration_MTurk/v2_DepthDuration_HTML.html#332,332,1536,864,1536,864,9-3-2022,9-48-40,125,depth_duration_stimuli/003070_2014-06-15_14-58-27_094959634447_rgbf000150-resize_3/003070_2014-06-15_14-58-27_094959634447_rgbf000150-resize_3-target.png,125,2.9415,4,1894,124,feet,jsons/VE125_randls_10.json,521236,848151,30,Man
125,511757,DepthScenes,duration_manipulation_targetAtFixation,jsons/VE125_randls_10.json,http://54.235.29.9/FacialAge/BNav_EC2/DepthDuration/v2_depth_duration_MTurk/v2_DepthDuration_HTML.html#332,332,1536,864,1536,864,9-3-2022,9-48-40,126,depth_duration_stimuli/000943_2014-06-09_19-31-07_260595134347_rgbf000128-resize_1/000943_2014-06-09_19-31-07_260595134347_rgbf000128-resize_1-target.png,125,1.9765,3,1918,123,feet,jsons/VE125_randls_10.json,521236,848151,30,Man
126,511757,DepthScenes,duration_manipulation_targetAtFixation,jsons/VE125_randls_10.json,http://54.235.29.9/FacialAge/BNav_EC2/DepthDuration/v2_depth_duration_MTurk/v2_DepthDuration_HTML.html#332,332,1536,864,1536,864,9-3-2022,9-48-40,127,depth_duration_stimuli/002748_2014-06-22_19-07-22_094959634447_rgbf000078-resize_1/002748_2014-06-22_19-07-22_094959634447_rgbf000078-resize_1-target.png,125,4.6705,12,1928,139,feet,jsons/VE125_randls_10.json,521236,848151,30,Man
127,511757,DepthScenes,duration_manipulation_targetAtFixation,jsons/VE125_randls_10.json,http://54.235.29.9/FacialAge/BNav_EC2/DepthDuration/v2_depth_duration_MTurk/v2_DepthDuration_HTML.html#332,332,1536,864,1536,864,9-3-2022,9-48-40,128,depth_duration_stimuli/002995_2014-06-15_12-31-26_094959634447_rgbf000150-resize_1/002995_2014-06-15_12-31-26_094959634447_rgbf000150-resize_1-target.png,125,3.8360000000000003,11,1841,124,feet,jsons/VE125_randls_10.json,521236,848151,30,Man
128,511757,DepthScenes,duration_manipulation_targetAtFixation,jsons/VE125_randls_10.json,http://54.235.29.9/FacialAge/BNav_EC2/DepthDuration/v2_depth_duration_MTurk/v2_DepthDuration_HTML.html#332,332,1536,864,1536,864,9-3-2022,9-48-40,129,depth_duration_stimuli/000788_2014-06-08_22-34-36_260595134347_rgbf000131-resize_1/000788_2014-06-08_22-34-36_260595134347_rgbf000131-resize_1-target.png,125,3.359,5,1683,124,feet,jsons/VE125_randls_10.json,521236,848151,30,Man
129,511757,DepthScenes,duration_manipulation_targetAtFixation,jsons/VE125_randls_10.json,http://54.235.29.9/FacialAge/BNav_EC2/DepthDuration/v2_depth_duration_MTurk/v2_DepthDuration_HTML.html#332,332,1536,864,1536,864,9-3-2022,9-48-40,130,depth_duration_stimuli/001235_2014-06-17_16-37-36_260595134347_rgbf000084-resize_4/001235_2014-06-17_16-37-36_260595134347_rgbf000084-resize_4-target.png,125,3.6605,5,2785,124,feet,jsons/VE125_randls_10.json,521236,848151,30,Man
130,511757,DepthScenes,duration_manipulation_targetAtFixation,jsons/VE125_randls_10.json,http://54.235.29.9/FacialAge/BNav_EC2/DepthDuration/v2_depth_duration_MTurk/v2_DepthDuration_HTML.html#332,332,1536,864,1536,864,9-3-2022,9-48-40,131,depth_duration_stimuli/002549_2014-06-24_13-41-39_094959634447_rgbf000022-resize_3/002549_2014-06-24_13-41-39_094959634447_rgbf000022-resize_3-target.png,125,1.476,3,2461,122,feet,jsons/VE125_randls_10.json,521236,848151,30,Man
131,511757,DepthScenes,duration_manipulation_targetAtFixation,jsons/VE125_randls_10.json,http://54.235.29.9/FacialAge/BNav_EC2/DepthDuration/v2_depth_duration_MTurk/v2_DepthDuration_HTML.html#332,332,1536,864,1536,864,9-3-2022,9-48-40,132,depth_duration_stimuli/002750_2014-06-22_19-08-03_094959634447_rgbf000094-resize_4/002750_2014-06-22_19-08-03_094959634447_rgbf000094-resize_4-target.png,125,2.354,8,2051,124,feet,jsons/VE125_randls_10.json,521236,848151,30,Man
132,511757,DepthScenes,duration_manipulation_targetAtFixation,jsons/VE125_randls_10.json,http://54.235.29.9/FacialAge/BNav_EC2/DepthDuration/v2_depth_duration_MTurk/v2_DepthDuration_HTML.html#332,332,1536,864,1536,864,9-3-2022,9-48-40,133,depth_duration_stimuli/002445_2014-06-28_20-32-16_260595134347_rgbf000029-resize_4/002445_2014-06-28_20-32-16_260595134347_rgbf000029-resize_4-target.png,125,2.5315,4,1693,122,feet,jsons/VE125_randls_10.json,521236,848151,30,Man
133,511757,DepthScenes,duration_manipulation_targetAtFixation,jsons/VE125_randls_10.json,http://54.235.29.9/FacialAge/BNav_EC2/DepthDuration/v2_depth_duration_MTurk/v2_DepthDuration_HTML.html#332,332,1536,864,1536,864,9-3-2022,9-48-40,134,depth_duration_stimuli/000780_2014-06-08_22-28-29_260595134347_rgbf000126-resize_1/000780_2014-06-08_22-28-29_260595134347_rgbf000126-resize_1-target.png,125,3.3825,10,2042,138,feet,jsons/VE125_randls_10.json,521236,848151,30,Man
134,511757,DepthScenes,duration_manipulation_targetAtFixation,jsons/VE125_randls_10.json,http://54.235.29.9/FacialAge/BNav_EC2/DepthDuration/v2_depth_duration_MTurk/v2_DepthDuration_HTML.html#332,332,1536,864,1536,864,9-3-2022,9-48-40,135,depth_duration_stimuli/002072_2014-06-24_21-48-06_260595134347_rgbf000115-resize_0/002072_2014-06-24_21-48-06_260595134347_rgbf000115-resize-original.jpg,125,4.702,0,1840,124,feet,jsons/VE125_randls_10.json,521236,848151,30,Man
135,511757,DepthScenes,duration_manipulation_targetAtFixation,jsons/VE125_randls_10.json,http://54.235.29.9/FacialAge/BNav_EC2/DepthDuration/v2_depth_duration_MTurk/v2_DepthDuration_HTML.html#332,332,1536,864,1536,864,9-3-2022,9-48-40,136,depth_duration_stimuli/000414_2014-06-04_19-49-13_260595134347_rgbf000044-resize_0/000414_2014-06-04_19-49-13_260595134347_rgbf000044-resize_0-target.png,125,4.329,8,1834,110,feet,jsons/VE125_randls_10.json,521236,848151,30,Man
136,511757,DepthScenes,duration_manipulation_targetAtFixation,jsons/VE125_randls_10.json,http://54.235.29.9/FacialAge/BNav_EC2/DepthDuration/v2_depth_duration_MTurk/v2_DepthDuration_HTML.html#332,332,1536,864,1536,864,9-3-2022,9-48-40,137,depth_duration_stimuli/003129_2014-05-12_10-48-10_094959634447_rgbf000100-resize_0/003129_2014-05-12_10-48-10_094959634447_rgbf000100-resize_0-target.png,125,4.9305,9,1712,123,feet,jsons/VE125_randls_10.json,521236,848151,30,Man
137,511757,DepthScenes,duration_manipulation_targetAtFixation,jsons/VE125_randls_10.json,http://54.235.29.9/FacialAge/BNav_EC2/DepthDuration/v2_depth_duration_MTurk/v2_DepthDuration_HTML.html#332,332,1536,864,1536,864,9-3-2022,9-48-40,138,depth_duration_stimuli/000506_2014-06-08_23-21-00_260595134347_rgbf000070-resize_7/000506_2014-06-08_23-21-00_260595134347_rgbf000070-resize_7-target.png,125,4.0585,5,1580,127,feet,jsons/VE125_randls_10.json,521236,848151,30,Man
138,511757,DepthScenes,duration_manipulation_targetAtFixation,jsons/VE125_randls_10.json,http://54.235.29.9/FacialAge/BNav_EC2/DepthDuration/v2_depth_duration_MTurk/v2_DepthDuration_HTML.html#332,332,1536,864,1536,864,9-3-2022,9-48-40,139,depth_duration_stimuli/003079_2014-06-15_15-18-20_094959634447_rgbf000152-resize_8/003079_2014-06-15_15-18-20_094959634447_rgbf000152-resize_8-target.png,125,2.8775,4,1687,125,feet,jsons/VE125_randls_10.json,521236,848151,30,Man
139,511757,DepthScenes,duration_manipulation_targetAtFixation,jsons/VE125_randls_10.json,http://54.235.29.9/FacialAge/BNav_EC2/DepthDuration/v2_depth_duration_MTurk/v2_DepthDuration_HTML.html#332,332,1536,864,1536,864,9-3-2022,9-48-40,140,depth_duration_stimuli/003492_2014-05-21_15-50-55_094959634447_rgbf000828-resize_1/003492_2014-05-21_15-50-55_094959634447_rgbf000828-resize_1-target.png,125,4.06875,7,1651,124,feet,jsons/VE125_randls_10.json,521236,848151,30,Man
140,511757,DepthScenes,duration_manipulation_targetAtFixation,jsons/VE125_randls_10.json,http://54.235.29.9/FacialAge/BNav_EC2/DepthDuration/v2_depth_duration_MTurk/v2_DepthDuration_HTML.html#332,332,1536,864,1536,864,9-3-2022,9-48-40,141,depth_duration_stimuli/002568_2014-06-24_13-59-21_094959634447_rgbf000062-resize_4/002568_2014-06-24_13-59-21_094959634447_rgbf000062-resize_4-target.png,125,3.015,8,3620,123,feet,jsons/VE125_randls_10.json,521236,848151,30,Man
141,511757,DepthScenes,duration_manipulation_targetAtFixation,jsons/VE125_randls_10.json,http://54.235.29.9/FacialAge/BNav_EC2/DepthDuration/v2_depth_duration_MTurk/v2_DepthDuration_HTML.html#332,332,1536,864,1536,864,9-3-2022,9-48-40,142,depth_duration_stimuli/002763_2014-06-22_19-13-10_094959634447_rgbf000075-resize_4/002763_2014-06-22_19-13-10_094959634447_rgbf000075-resize_4-target.png,125,1.68375,5,2454,124,feet,jsons/VE125_randls_10.json,521236,848151,30,Man
142,511757,DepthScenes,duration_manipulation_targetAtFixation,jsons/VE125_randls_10.json,http://54.235.29.9/FacialAge/BNav_EC2/DepthDuration/v2_depth_duration_MTurk/v2_DepthDuration_HTML.html#332,332,1536,864,1536,864,9-3-2022,9-48-40,143,depth_duration_stimuli/002209_2014-06-28_18-36-10_260595134347_rgbf000051-resize_1/002209_2014-06-28_18-36-10_260595134347_rgbf000051-resize_1-target.png,125,2.057,3,2439,119,feet,jsons/VE125_randls_10.json,521236,848151,30,Man
143,511757,DepthScenes,duration_manipulation_targetAtFixation,jsons/VE125_randls_10.json,http://54.235.29.9/FacialAge/BNav_EC2/DepthDuration/v2_depth_duration_MTurk/v2_DepthDuration_HTML.html#332,332,1536,864,1536,864,9-3-2022,9-48-40,144,depth_duration_stimuli/002153_2014-06-25_21-27-18_260595134347_rgbf000038-resize_5/002153_2014-06-25_21-27-18_260595134347_rgbf000038-resize_5-target.png,125,2.505,5,2013,123,feet,jsons/VE125_randls_10.json,521236,848151,30,Man
144,511757,DepthScenes,duration_manipulation_targetAtFixation,jsons/VE125_randls_10.json,http://54.235.29.9/FacialAge/BNav_EC2/DepthDuration/v2_depth_duration_MTurk/v2_DepthDuration_HTML.html#332,332,1536,864,1536,864,9-3-2022,9-48-40,145,depth_duration_stimuli/002660_2014-06-13_15-44-18_094959634447_rgbf001878-resize_2/002660_2014-06-13_15-44-18_094959634447_rgbf001878-resize_2-target.png,125,3.576,8,1792,139,feet,jsons/VE125_randls_10.json,521236,848151,30,Man
145,511757,DepthScenes,duration_manipulation_targetAtFixation,jsons/VE125_randls_10.json,http://54.235.29.9/FacialAge/BNav_EC2/DepthDuration/v2_depth_duration_MTurk/v2_DepthDuration_HTML.html#332,332,1536,864,1536,864,9-3-2022,9-48-40,146,depth_duration_stimuli/001498_2014-06-19_17-45-14_260595134347_rgbf000129-resize_4/001498_2014-06-19_17-45-14_260595134347_rgbf000129-resize-original.jpg,125,1.4075,0,1842,124,feet,jsons/VE125_randls_10.json,521236,848151,30,Man
146,511757,DepthScenes,duration_manipulation_targetAtFixation,jsons/VE125_randls_10.json,http://54.235.29.9/FacialAge/BNav_EC2/DepthDuration/v2_depth_duration_MTurk/v2_DepthDuration_HTML.html#332,332,1536,864,1536,864,9-3-2022,9-48-40,147,depth_duration_stimuli/002039_2014-06-24_20-22-38_260595134347_rgbf000084-resize_1/002039_2014-06-24_20-22-38_260595134347_rgbf000084-resize_1-target.png,125,4.408,9,2982,113,feet,jsons/VE125_randls_10.json,521236,848151,30,Man
147,511757,DepthScenes,duration_manipulation_targetAtFixation,jsons/VE125_randls_10.json,http://54.235.29.9/FacialAge/BNav_EC2/DepthDuration/v2_depth_duration_MTurk/v2_DepthDuration_HTML.html#332,332,1536,864,1536,864,9-3-2022,9-48-40,148,depth_duration_stimuli/002103_2014-06-25_20-00-40_260595134347_rgbf000049-resize_0/002103_2014-06-25_20-00-40_260595134347_rgbf000049-resize_0-target.png,125,4.105,6,2177,123,feet,jsons/VE125_randls_10.json,521236,848151,30,Man
148,511757,DepthScenes,duration_manipulation_targetAtFixation,jsons/VE125_randls_10.json,http://54.235.29.9/FacialAge/BNav_EC2/DepthDuration/v2_depth_duration_MTurk/v2_DepthDuration_HTML.html#332,332,1536,864,1536,864,9-3-2022,9-48-40,149,depth_duration_stimuli/003621_2014-05-23_18-06-08_094959634447_rgbf000101-resize_1/003621_2014-05-23_18-06-08_094959634447_rgbf000101-resize_1-target.png,125,3.9835,5,2022,122,feet,jsons/VE125_randls_10.json,521236,848151,30,Man
149,511757,DepthScenes,duration_manipulation_targetAtFixation,jsons/VE125_randls_10.json,http://54.235.29.9/FacialAge/BNav_EC2/DepthDuration/v2_depth_duration_MTurk/v2_DepthDuration_HTML.html#332,332,1536,864,1536,864,9-3-2022,9-48-40,150,depth_duration_stimuli/001584_2014-06-20_11-07-43_260595134347_rgbf000002-resize_1/001584_2014-06-20_11-07-43_260595134347_rgbf000002-resize_1-target.png,125,3.53,8,1763,123,feet,jsons/VE125_randls_10.json,521236,848151,30,Man
150,511757,DepthScenes,duration_manipulation_targetAtFixation,jsons/VE125_randls_10.json,http://54.235.29.9/FacialAge/BNav_EC2/DepthDuration/v2_depth_duration_MTurk/v2_DepthDuration_HTML.html#332,332,1536,864,1536,864,9-3-2022,9-48-40,151,depth_duration_stimuli/001016_2014-06-09_16-16-10_260595134347_rgbf000112-resize_5/001016_2014-06-09_16-16-10_260595134347_rgbf000112-resize_5-target.png,125,1.6565,7,2470,125,feet,jsons/VE125_randls_10.json,521236,848151,30,Man
151,511757,DepthScenes,duration_manipulation_targetAtFixation,jsons/VE125_randls_10.json,http://54.235.29.9/FacialAge/BNav_EC2/DepthDuration/v2_depth_duration_MTurk/v2_DepthDuration_HTML.html#332,332,1536,864,1536,864,9-3-2022,9-48-40,152,depth_duration_stimuli/002340_2014-06-28_20-05-46_260595134347_rgbf000113-resize_0/002340_2014-06-28_20-05-46_260595134347_rgbf000113-resize_0-target.png,125,2.4735,9,1850,111,feet,jsons/VE125_randls_10.json,521236,848151,30,Man
152,511757,DepthScenes,duration_manipulation_targetAtFixation,jsons/VE125_randls_10.json,http://54.235.29.9/FacialAge/BNav_EC2/DepthDuration/v2_depth_duration_MTurk/v2_DepthDuration_HTML.html#332,332,1536,864,1536,864,9-3-2022,9-48-40,153,depth_duration_stimuli/000736_2014-06-08_18-24-15_260595134347_rgbf000206-resize_3/000736_2014-06-08_18-24-15_260595134347_rgbf000206-resize_3-target.png,125,3.515,8,1703,140,feet,jsons/VE125_randls_10.json,521236,848151,30,Man
153,511757,DepthScenes,duration_manipulation_targetAtFixation,jsons/VE125_randls_10.json,http://54.235.29.9/FacialAge/BNav_EC2/DepthDuration/v2_depth_duration_MTurk/v2_DepthDuration_HTML.html#332,332,1536,864,1536,864,9-3-2022,9-48-40,154,depth_duration_stimuli/000137_2014-05-20_17-04-49_260595134347_rgbf000120-resize_1/000137_2014-05-20_17-04-49_260595134347_rgbf000120-resize_1-target.png,125,3.786,7,3967,126,feet,jsons/VE125_randls_10.json,521236,848151,30,Man
154,511757,DepthScenes,duration_manipulation_targetAtFixation,jsons/VE125_randls_10.json,http://54.235.29.9/FacialAge/BNav_EC2/DepthDuration/v2_depth_duration_MTurk/v2_DepthDuration_HTML.html#332,332,1536,864,1536,864,9-3-2022,9-48-40,155,depth_duration_stimuli/001175_2014-06-17_15-45-55_260595134347_rgbf000129-resize_4/001175_2014-06-17_15-45-55_260595134347_rgbf000129-resize_4-target.png,125,4.255,8,1991,125,feet,jsons/VE125_randls_10.json,521236,848151,30,Man
155,511757,DepthScenes,duration_manipulation_targetAtFixation,jsons/VE125_randls_10.json,http://54.235.29.9/FacialAge/BNav_EC2/DepthDuration/v2_depth_duration_MTurk/v2_DepthDuration_HTML.html#332,332,1536,864,1536,864,9-3-2022,9-48-40,156,depth_duration_stimuli/003490_2014-05-21_15-50-11_094959634447_rgbf000101-resize_3/003490_2014-05-21_15-50-11_094959634447_rgbf000101-resize_3-target.png,125,3.6445,9,1721,123,feet,jsons/VE125_randls_10.json,521236,848151,30,Man
156,511757,DepthScenes,duration_manipulation_targetAtFixation,jsons/VE125_randls_10.json,http://54.235.29.9/FacialAge/BNav_EC2/DepthDuration/v2_depth_duration_MTurk/v2_DepthDuration_HTML.html#332,332,1536,864,1536,864,9-3-2022,9-48-40,157,depth_duration_stimuli/001164_2014-06-17_15-35-46_260595134347_rgbf000085-resize_3/001164_2014-06-17_15-35-46_260595134347_rgbf000085-resize_3-target.png,125,2.354,8,1618,122,feet,jsons/VE125_randls_10.json,521236,848151,30,Man
157,511757,DepthScenes,duration_manipulation_targetAtFixation,jsons/VE125_randls_10.json,http://54.235.29.9/FacialAge/BNav_EC2/DepthDuration/v2_depth_duration_MTurk/v2_DepthDuration_HTML.html#332,332,1536,864,1536,864,9-3-2022,9-48-40,158,depth_duration_stimuli/001136_2014-06-17_15-19-41_260595134347_rgbf000076-resize_3/001136_2014-06-17_15-19-41_260595134347_rgbf000076-resize_3-target.png,125,1.8655,5,3210,137,feet,jsons/VE125_randls_10.json,521236,848151,30,Man
158,511757,DepthScenes,duration_manipulation_targetAtFixation,jsons/VE125_randls_10.json,http://54.235.29.9/FacialAge/BNav_EC2/DepthDuration/v2_depth_duration_MTurk/v2_DepthDuration_HTML.html#332,332,1536,864,1536,864,9-3-2022,9-48-40,159,depth_duration_stimuli/001092_2014-06-15_17-34-58_260595134347_rgbf000171-resize_3/001092_2014-06-15_17-34-58_260595134347_rgbf000171-resize_3-target.png,125,2.6935,4,1639,124,feet,jsons/VE125_randls_10.json,521236,848151,30,Man
159,511757,DepthScenes,duration_manipulation_targetAtFixation,jsons/VE125_randls_10.json,http://54.235.29.9/FacialAge/BNav_EC2/DepthDuration/v2_depth_duration_MTurk/v2_DepthDuration_HTML.html#332,332,1536,864,1536,864,9-3-2022,9-48-40,160,depth_duration_stimuli/002545_2014-06-24_13-38-53_094959634447_rgbf000080-resize_4/002545_2014-06-24_13-38-53_094959634447_rgbf000080-resize_4-target.png,125,1.9205,4,1941,124,feet,jsons/VE125_randls_10.json,521236,848151,30,Man
160,511757,DepthScenes,duration_manipulation_targetAtFixation,jsons/VE125_randls_10.json,http://54.235.29.9/FacialAge/BNav_EC2/DepthDuration/v2_depth_duration_MTurk/v2_DepthDuration_HTML.html#332,332,1536,864,1536,864,9-3-2022,9-48-40,161,depth_duration_stimuli/001244_2014-06-17_16-47-45_260595134347_rgbf000030-resize_4/001244_2014-06-17_16-47-45_260595134347_rgbf000030-resize_4-target.png,125,2.0425,4,1678,123,feet,jsons/VE125_randls_10.json,521236,848151,30,Man
161,511757,DepthScenes,duration_manipulation_targetAtFixation,jsons/VE125_randls_10.json,http://54.235.29.9/FacialAge/BNav_EC2/DepthDuration/v2_depth_duration_MTurk/v2_DepthDuration_HTML.html#332,332,1536,864,1536,864,9-3-2022,9-48-40,162,depth_duration_stimuli/003495_2014-05-21_16-01-51_094959634447_rgbf000100-resize_3/003495_2014-05-21_16-01-51_094959634447_rgbf000100-resize_3-target.png,125,1.6255,2,1683,123,feet,jsons/VE125_randls_10.json,521236,848151,30,Man
162,511757,DepthScenes,duration_manipulation_targetAtFixation,jsons/VE125_randls_10.json,http://54.235.29.9/FacialAge/BNav_EC2/DepthDuration/v2_depth_duration_MTurk/v2_DepthDuration_HTML.html#332,332,1536,864,1536,864,9-3-2022,9-48-40,163,depth_duration_stimuli/002905_2014-06-03_18-04-43_094959634447_rgbf000151-resize_2/002905_2014-06-03_18-04-43_094959634447_rgbf000151-resize_2-target.png,125,2.0295,5,2876,123,feet,jsons/VE125_randls_10.json,521236,848151,30,Man
163,511757,DepthScenes,duration_manipulation_targetAtFixation,jsons/VE125_randls_10.json,http://54.235.29.9/FacialAge/BNav_EC2/DepthDuration/v2_depth_duration_MTurk/v2_DepthDuration_HTML.html#332,332,1536,864,1536,864,9-3-2022,9-48-40,164,depth_duration_stimuli/003423_2014-05-21_10-23-26_094959634447_rgbf002665-resize_2/003423_2014-05-21_10-23-26_094959634447_rgbf002665-resize_2-target.png,125,3.2575,8,2223,124,feet,jsons/VE125_randls_10.json,521236,848151,30,Man
