,subjID,experimentName,versionName,sequenceName,url,selected_row,windowWidth,windowHeight,screenWidth,screenHeight,startDate,startTime,trial,stimulus,duration,actual_depth,depth_estimate,trial_RT,log_sceneDuration,unitSelection,seq_filepath,experimentTime,totalTime,age,gender
0,513267,DepthScenes,duration_manipulation_targetAtFixation,jsons/VE125_randls_37.json,http://54.235.29.9/FacialAge/BNav_EC2/DepthDuration/v2_depth_duration_MTurk/v2_DepthDuration_HTML.html#418,418,1364,625,1364,768,8-29-2022,6-42-11,1,depth_duration_stimuli/002279_2014-06-28_18-55-32_260595134347_rgbf000040-resize_5/002279_2014-06-28_18-55-32_260595134347_rgbf000040-resize_5-target.png,125,1.5043333333333,2.0,7375,124,meters,jsons/VE125_randls_37.json,1378183,2350542,47,Woman
1,513267,DepthScenes,duration_manipulation_targetAtFixation,jsons/VE125_randls_37.json,http://54.235.29.9/FacialAge/BNav_EC2/DepthDuration/v2_depth_duration_MTurk/v2_DepthDuration_HTML.html#418,418,1364,625,1364,768,8-29-2022,6-42-11,2,depth_duration_stimuli/000635_2014-06-08_16-38-42_260595134347_rgbf000106-resize_1/000635_2014-06-08_16-38-42_260595134347_rgbf000106-resize_1-target.png,125,2.074,5.0,6195,124,meters,jsons/VE125_randls_37.json,1378183,2350542,47,Woman
2,513267,DepthScenes,duration_manipulation_targetAtFixation,jsons/VE125_randls_37.json,http://54.235.29.9/FacialAge/BNav_EC2/DepthDuration/v2_depth_duration_MTurk/v2_DepthDuration_HTML.html#418,418,1364,625,1364,768,8-29-2022,6-42-11,3,depth_duration_stimuli/002988_2014-06-15_12-24-20_094959634447_rgbf000150-resize_1/002988_2014-06-15_12-24-20_094959634447_rgbf000150-resize_1-target.png,125,4.7669999999999995,5.5,8342,125,meters,jsons/VE125_randls_37.json,1378183,2350542,47,Woman
3,513267,DepthScenes,duration_manipulation_targetAtFixation,jsons/VE125_randls_37.json,http://54.235.29.9/FacialAge/BNav_EC2/DepthDuration/v2_depth_duration_MTurk/v2_DepthDuration_HTML.html#418,418,1364,625,1364,768,8-29-2022,6-42-11,4,depth_duration_stimuli/001052_2014-06-08_18-24-54_260595134347_rgbf000130-resize_1/001052_2014-06-08_18-24-54_260595134347_rgbf000130-resize_1-target.png,125,4.1045,5.0,5338,115,meters,jsons/VE125_randls_37.json,1378183,2350542,47,Woman
4,513267,DepthScenes,duration_manipulation_targetAtFixation,jsons/VE125_randls_37.json,http://54.235.29.9/FacialAge/BNav_EC2/DepthDuration/v2_depth_duration_MTurk/v2_DepthDuration_HTML.html#418,418,1364,625,1364,768,8-29-2022,6-42-11,5,depth_duration_stimuli/001092_2014-06-15_17-34-58_260595134347_rgbf000171-resize_3/001092_2014-06-15_17-34-58_260595134347_rgbf000171-resize_3-target.png,125,2.6935,4.0,6383,130,meters,jsons/VE125_randls_37.json,1378183,2350542,47,Woman
5,513267,DepthScenes,duration_manipulation_targetAtFixation,jsons/VE125_randls_37.json,http://54.235.29.9/FacialAge/BNav_EC2/DepthDuration/v2_depth_duration_MTurk/v2_DepthDuration_HTML.html#418,418,1364,625,1364,768,8-29-2022,6-42-11,6,depth_duration_stimuli/002545_2014-06-24_13-38-53_094959634447_rgbf000080-resize_4/002545_2014-06-24_13-38-53_094959634447_rgbf000080-resize_4-target.png,125,1.9205,3.0,9494,138,meters,jsons/VE125_randls_37.json,1378183,2350542,47,Woman
6,513267,DepthScenes,duration_manipulation_targetAtFixation,jsons/VE125_randls_37.json,http://54.235.29.9/FacialAge/BNav_EC2/DepthDuration/v2_depth_duration_MTurk/v2_DepthDuration_HTML.html#418,418,1364,625,1364,768,8-29-2022,6-42-11,7,depth_duration_stimuli/000906_2014-06-08_13-35-43_260595134347_rgbf000155-resize_1/000906_2014-06-08_13-35-43_260595134347_rgbf000155-resize_1-target.png,125,2.8489999999999998,4.0,8397,124,meters,jsons/VE125_randls_37.json,1378183,2350542,47,Woman
7,513267,DepthScenes,duration_manipulation_targetAtFixation,jsons/VE125_randls_37.json,http://54.235.29.9/FacialAge/BNav_EC2/DepthDuration/v2_depth_duration_MTurk/v2_DepthDuration_HTML.html#418,418,1364,625,1364,768,8-29-2022,6-42-11,8,depth_duration_stimuli/002805_2014-06-22_19-54-03_094959634447_rgbf000079-resize_1/002805_2014-06-22_19-54-03_094959634447_rgbf000079-resize_1-target.png,125,3.1439999999999997,3.5,8523,116,meters,jsons/VE125_randls_37.json,1378183,2350542,47,Woman
8,513267,DepthScenes,duration_manipulation_targetAtFixation,jsons/VE125_randls_37.json,http://54.235.29.9/FacialAge/BNav_EC2/DepthDuration/v2_depth_duration_MTurk/v2_DepthDuration_HTML.html#418,418,1364,625,1364,768,8-29-2022,6-42-11,9,depth_duration_stimuli/002600_2014-06-24_14-27-04_094959634447_rgbf000074-resize_2/002600_2014-06-24_14-27-04_094959634447_rgbf000074-resize_2-target.png,125,2.7575,2.0,10909,134,meters,jsons/VE125_randls_37.json,1378183,2350542,47,Woman
9,513267,DepthScenes,duration_manipulation_targetAtFixation,jsons/VE125_randls_37.json,http://54.235.29.9/FacialAge/BNav_EC2/DepthDuration/v2_depth_duration_MTurk/v2_DepthDuration_HTML.html#418,418,1364,625,1364,768,8-29-2022,6-42-11,10,depth_duration_stimuli/003228_2014-05-14_13-42-35_094959634447_rgbf000101-resize_1/003228_2014-05-14_13-42-35_094959634447_rgbf000101-resize_1-target.png,125,1.9680000000000002,10.0,7206,124,meters,jsons/VE125_randls_37.json,1378183,2350542,47,Woman
10,513267,DepthScenes,duration_manipulation_targetAtFixation,jsons/VE125_randls_37.json,http://54.235.29.9/FacialAge/BNav_EC2/DepthDuration/v2_depth_duration_MTurk/v2_DepthDuration_HTML.html#418,418,1364,625,1364,768,8-29-2022,6-42-11,11,depth_duration_stimuli/002057_2014-06-24_21-00-13_260595134347_rgbf000120-resize_1/002057_2014-06-24_21-00-13_260595134347_rgbf000120-resize_1-target.png,125,2.967,30.0,9633,145,meters,jsons/VE125_randls_37.json,1378183,2350542,47,Woman
11,513267,DepthScenes,duration_manipulation_targetAtFixation,jsons/VE125_randls_37.json,http://54.235.29.9/FacialAge/BNav_EC2/DepthDuration/v2_depth_duration_MTurk/v2_DepthDuration_HTML.html#418,418,1364,625,1364,768,8-29-2022,6-42-11,12,depth_duration_stimuli/000709_2014-06-08_13-51-55_260595134347_rgbf000068-resize_3/000709_2014-06-08_13-51-55_260595134347_rgbf000068-resize_3-target.png,125,1.8030000000000002,3.0,12013,142,meters,jsons/VE125_randls_37.json,1378183,2350542,47,Woman
12,513267,DepthScenes,duration_manipulation_targetAtFixation,jsons/VE125_randls_37.json,http://54.235.29.9/FacialAge/BNav_EC2/DepthDuration/v2_depth_duration_MTurk/v2_DepthDuration_HTML.html#418,418,1364,625,1364,768,8-29-2022,6-42-11,13,depth_duration_stimuli/000569_2014-06-09_22-51-47_260595134347_rgbf000141-resize_3/000569_2014-06-09_22-51-47_260595134347_rgbf000141-resize-original.jpg,125,4.512,0.0,7584,124,meters,jsons/VE125_randls_37.json,1378183,2350542,47,Woman
13,513267,DepthScenes,duration_manipulation_targetAtFixation,jsons/VE125_randls_37.json,http://54.235.29.9/FacialAge/BNav_EC2/DepthDuration/v2_depth_duration_MTurk/v2_DepthDuration_HTML.html#418,418,1364,625,1364,768,8-29-2022,6-42-11,14,depth_duration_stimuli/001066_2014-06-08_22-03-20_260595134347_rgbf000066-resize_4/001066_2014-06-08_22-03-20_260595134347_rgbf000066-resize_4-target.png,125,4.2330000000000005,3.0,89778,116,meters,jsons/VE125_randls_37.json,1378183,2350542,47,Woman
14,513267,DepthScenes,duration_manipulation_targetAtFixation,jsons/VE125_randls_37.json,http://54.235.29.9/FacialAge/BNav_EC2/DepthDuration/v2_depth_duration_MTurk/v2_DepthDuration_HTML.html#418,418,1364,625,1364,768,8-29-2022,6-42-11,15,depth_duration_stimuli/000742_2014-06-08_18-48-09_260595134347_rgbf000164-resize_4/000742_2014-06-08_18-48-09_260595134347_rgbf000164-resize_4-target.png,125,4.632,4.0,6394,122,meters,jsons/VE125_randls_37.json,1378183,2350542,47,Woman
15,513267,DepthScenes,duration_manipulation_targetAtFixation,jsons/VE125_randls_37.json,http://54.235.29.9/FacialAge/BNav_EC2/DepthDuration/v2_depth_duration_MTurk/v2_DepthDuration_HTML.html#418,418,1364,625,1364,768,8-29-2022,6-42-11,16,depth_duration_stimuli/001059_2014-06-08_21-53-27_260595134347_rgbf000061-resize_4/001059_2014-06-08_21-53-27_260595134347_rgbf000061-resize_4-target.png,125,2.4185,2.5,11745,125,meters,jsons/VE125_randls_37.json,1378183,2350542,47,Woman
16,513267,DepthScenes,duration_manipulation_targetAtFixation,jsons/VE125_randls_37.json,http://54.235.29.9/FacialAge/BNav_EC2/DepthDuration/v2_depth_duration_MTurk/v2_DepthDuration_HTML.html#418,418,1364,625,1364,768,8-29-2022,6-42-11,17,depth_duration_stimuli/001032_2014-06-08_13-23-17_260595134347_rgbf000021-resize_3/001032_2014-06-08_13-23-17_260595134347_rgbf000021-resize_3-target.png,125,3.2725,3.0,26737,119,meters,jsons/VE125_randls_37.json,1378183,2350542,47,Woman
17,513267,DepthScenes,duration_manipulation_targetAtFixation,jsons/VE125_randls_37.json,http://54.235.29.9/FacialAge/BNav_EC2/DepthDuration/v2_depth_duration_MTurk/v2_DepthDuration_HTML.html#418,418,1364,625,1364,768,8-29-2022,6-42-11,18,depth_duration_stimuli/000009_2014-05-26_14-32-05_260595134347_rgbf000034-resize_3/000009_2014-05-26_14-32-05_260595134347_rgbf000034-resize_3-target.png,125,3.8715,6.0,7296,122,meters,jsons/VE125_randls_37.json,1378183,2350542,47,Woman
18,513267,DepthScenes,duration_manipulation_targetAtFixation,jsons/VE125_randls_37.json,http://54.235.29.9/FacialAge/BNav_EC2/DepthDuration/v2_depth_duration_MTurk/v2_DepthDuration_HTML.html#418,418,1364,625,1364,768,8-29-2022,6-42-11,19,depth_duration_stimuli/001828_2014-06-26_21-40-03_260595134347_rgbf000024-resize_0/001828_2014-06-26_21-40-03_260595134347_rgbf000024-resize_0-target.png,125,4.8260000000000005,7.0,5553,98,meters,jsons/VE125_randls_37.json,1378183,2350542,47,Woman
19,513267,DepthScenes,duration_manipulation_targetAtFixation,jsons/VE125_randls_37.json,http://54.235.29.9/FacialAge/BNav_EC2/DepthDuration/v2_depth_duration_MTurk/v2_DepthDuration_HTML.html#418,418,1364,625,1364,768,8-29-2022,6-42-11,20,depth_duration_stimuli/000522_2014-06-08_13-35-06_260595134347_rgbf000244-resize_1/000522_2014-06-08_13-35-06_260595134347_rgbf000244-resize_1-target.png,125,2.3715,3.0,6825,125,meters,jsons/VE125_randls_37.json,1378183,2350542,47,Woman
20,513267,DepthScenes,duration_manipulation_targetAtFixation,jsons/VE125_randls_37.json,http://54.235.29.9/FacialAge/BNav_EC2/DepthDuration/v2_depth_duration_MTurk/v2_DepthDuration_HTML.html#418,418,1364,625,1364,768,8-29-2022,6-42-11,21,depth_duration_stimuli/002949_2014-06-26_15-57-42_094959634447_rgbf000079-resize_1/002949_2014-06-26_15-57-42_094959634447_rgbf000079-resize_1-target.png,125,1.8915,4.0,4497,140,meters,jsons/VE125_randls_37.json,1378183,2350542,47,Woman
21,513267,DepthScenes,duration_manipulation_targetAtFixation,jsons/VE125_randls_37.json,http://54.235.29.9/FacialAge/BNav_EC2/DepthDuration/v2_depth_duration_MTurk/v2_DepthDuration_HTML.html#418,418,1364,625,1364,768,8-29-2022,6-42-11,22,depth_duration_stimuli/002153_2014-06-25_21-27-18_260595134347_rgbf000038-resize_5/002153_2014-06-25_21-27-18_260595134347_rgbf000038-resize_5-target.png,125,2.505,1.5,7456,124,meters,jsons/VE125_randls_37.json,1378183,2350542,47,Woman
22,513267,DepthScenes,duration_manipulation_targetAtFixation,jsons/VE125_randls_37.json,http://54.235.29.9/FacialAge/BNav_EC2/DepthDuration/v2_depth_duration_MTurk/v2_DepthDuration_HTML.html#418,418,1364,625,1364,768,8-29-2022,6-42-11,23,depth_duration_stimuli/002660_2014-06-13_15-44-18_094959634447_rgbf001878-resize_2/002660_2014-06-13_15-44-18_094959634447_rgbf001878-resize_2-target.png,125,3.576,4.0,5238,139,meters,jsons/VE125_randls_37.json,1378183,2350542,47,Woman
23,513267,DepthScenes,duration_manipulation_targetAtFixation,jsons/VE125_randls_37.json,http://54.235.29.9/FacialAge/BNav_EC2/DepthDuration/v2_depth_duration_MTurk/v2_DepthDuration_HTML.html#418,418,1364,625,1364,768,8-29-2022,6-42-11,24,depth_duration_stimuli/000773_2014-06-08_22-24-54_260595134347_rgbf000093-resize_1/000773_2014-06-08_22-24-54_260595134347_rgbf000093-resize_1-target.png,125,4.973,3.0,7037,141,meters,jsons/VE125_randls_37.json,1378183,2350542,47,Woman
24,513267,DepthScenes,duration_manipulation_targetAtFixation,jsons/VE125_randls_37.json,http://54.235.29.9/FacialAge/BNav_EC2/DepthDuration/v2_depth_duration_MTurk/v2_DepthDuration_HTML.html#418,418,1364,625,1364,768,8-29-2022,6-42-11,25,depth_duration_stimuli/002414_2014-06-28_20-24-58_260595134347_rgbf000067-resize_4/002414_2014-06-28_20-24-58_260595134347_rgbf000067-resize_4-target.png,125,4.363,4.0,7783,123,meters,jsons/VE125_randls_37.json,1378183,2350542,47,Woman
25,513267,DepthScenes,duration_manipulation_targetAtFixation,jsons/VE125_randls_37.json,http://54.235.29.9/FacialAge/BNav_EC2/DepthDuration/v2_depth_duration_MTurk/v2_DepthDuration_HTML.html#418,418,1364,625,1364,768,8-29-2022,6-42-11,26,depth_duration_stimuli/000447_2014-06-08_16-15-46_260595134347_rgbf000130-resize_1/000447_2014-06-08_16-15-46_260595134347_rgbf000130-resize_1-target.png,125,4.479,5.0,8436,137,meters,jsons/VE125_randls_37.json,1378183,2350542,47,Woman
26,513267,DepthScenes,duration_manipulation_targetAtFixation,jsons/VE125_randls_37.json,http://54.235.29.9/FacialAge/BNav_EC2/DepthDuration/v2_depth_duration_MTurk/v2_DepthDuration_HTML.html#418,418,1364,625,1364,768,8-29-2022,6-42-11,27,depth_duration_stimuli/001447_2014-06-19_17-00-32_260595134347_rgbf000082-resize_5/001447_2014-06-19_17-00-32_260595134347_rgbf000082-resize_5-target.png,125,4.13775,3.5,7077,123,meters,jsons/VE125_randls_37.json,1378183,2350542,47,Woman
27,513267,DepthScenes,duration_manipulation_targetAtFixation,jsons/VE125_randls_37.json,http://54.235.29.9/FacialAge/BNav_EC2/DepthDuration/v2_depth_duration_MTurk/v2_DepthDuration_HTML.html#418,418,1364,625,1364,768,8-29-2022,6-42-11,28,depth_duration_stimuli/000758_2014-06-08_22-05-08_260595134347_rgbf000085-resize_0/000758_2014-06-08_22-05-08_260595134347_rgbf000085-resize_0-target.png,125,3.3810000000000002,4.0,5649,122,meters,jsons/VE125_randls_37.json,1378183,2350542,47,Woman
28,513267,DepthScenes,duration_manipulation_targetAtFixation,jsons/VE125_randls_37.json,http://54.235.29.9/FacialAge/BNav_EC2/DepthDuration/v2_depth_duration_MTurk/v2_DepthDuration_HTML.html#418,418,1364,625,1364,768,8-29-2022,6-42-11,29,depth_duration_stimuli/000854_2014-06-09_19-43-13_260595134347_rgbf000066-resize_0/000854_2014-06-09_19-43-13_260595134347_rgbf000066-resize_0-target.png,125,3.068,0.0,4948,124,meters,jsons/VE125_randls_37.json,1378183,2350542,47,Woman
29,513267,DepthScenes,duration_manipulation_targetAtFixation,jsons/VE125_randls_37.json,http://54.235.29.9/FacialAge/BNav_EC2/DepthDuration/v2_depth_duration_MTurk/v2_DepthDuration_HTML.html#418,418,1364,625,1364,768,8-29-2022,6-42-11,30,depth_duration_stimuli/000375_2014-06-08_11-17-29_260595134347_rgbf000133-resize_2/000375_2014-06-08_11-17-29_260595134347_rgbf000133-resize-original.jpg,125,4.718,0.0,6979,126,meters,jsons/VE125_randls_37.json,1378183,2350542,47,Woman
30,513267,DepthScenes,duration_manipulation_targetAtFixation,jsons/VE125_randls_37.json,http://54.235.29.9/FacialAge/BNav_EC2/DepthDuration/v2_depth_duration_MTurk/v2_DepthDuration_HTML.html#418,418,1364,625,1364,768,8-29-2022,6-42-11,31,depth_duration_stimuli/000506_2014-06-08_23-21-00_260595134347_rgbf000070-resize_7/000506_2014-06-08_23-21-00_260595134347_rgbf000070-resize_7-target.png,125,4.0585,5.0,6910,116,meters,jsons/VE125_randls_37.json,1378183,2350542,47,Woman
31,513267,DepthScenes,duration_manipulation_targetAtFixation,jsons/VE125_randls_37.json,http://54.235.29.9/FacialAge/BNav_EC2/DepthDuration/v2_depth_duration_MTurk/v2_DepthDuration_HTML.html#418,418,1364,625,1364,768,8-29-2022,6-42-11,32,depth_duration_stimuli/003079_2014-06-15_15-18-20_094959634447_rgbf000152-resize_8/003079_2014-06-15_15-18-20_094959634447_rgbf000152-resize_8-target.png,125,2.8775,6.0,4898,124,meters,jsons/VE125_randls_37.json,1378183,2350542,47,Woman
32,513267,DepthScenes,duration_manipulation_targetAtFixation,jsons/VE125_randls_37.json,http://54.235.29.9/FacialAge/BNav_EC2/DepthDuration/v2_depth_duration_MTurk/v2_DepthDuration_HTML.html#418,418,1364,625,1364,768,8-29-2022,6-42-11,33,depth_duration_stimuli/003292_2014-05-14_21-53-49_094959634447_rgbf000100-resize_2/003292_2014-05-14_21-53-49_094959634447_rgbf000100-resize_2-target.png,125,3.4815,4.0,5379,124,meters,jsons/VE125_randls_37.json,1378183,2350542,47,Woman
33,513267,DepthScenes,duration_manipulation_targetAtFixation,jsons/VE125_randls_37.json,http://54.235.29.9/FacialAge/BNav_EC2/DepthDuration/v2_depth_duration_MTurk/v2_DepthDuration_HTML.html#418,418,1364,625,1364,768,8-29-2022,6-42-11,34,depth_duration_stimuli/002639_2014-06-24_14-51-37_094959634447_rgbf000074-resize_4/002639_2014-06-24_14-51-37_094959634447_rgbf000074-resize_4-target.png,125,4.0375,0.0,4196,124,meters,jsons/VE125_randls_37.json,1378183,2350542,47,Woman
34,513267,DepthScenes,duration_manipulation_targetAtFixation,jsons/VE125_randls_37.json,http://54.235.29.9/FacialAge/BNav_EC2/DepthDuration/v2_depth_duration_MTurk/v2_DepthDuration_HTML.html#418,418,1364,625,1364,768,8-29-2022,6-42-11,35,depth_duration_stimuli/002213_2014-06-28_18-37-58_260595134347_rgbf000055-resize_1/002213_2014-06-28_18-37-58_260595134347_rgbf000055-resize_1-target.png,125,3.62,7.0,6719,116,meters,jsons/VE125_randls_37.json,1378183,2350542,47,Woman
35,513267,DepthScenes,duration_manipulation_targetAtFixation,jsons/VE125_randls_37.json,http://54.235.29.9/FacialAge/BNav_EC2/DepthDuration/v2_depth_duration_MTurk/v2_DepthDuration_HTML.html#418,418,1364,625,1364,768,8-29-2022,6-42-11,36,depth_duration_stimuli/000691_2014-06-08_13-08-50_260595134347_rgbf000132-resize_3/000691_2014-06-08_13-08-50_260595134347_rgbf000132-resize_3-target.png,125,4.1530000000000005,0.0,6123,126,meters,jsons/VE125_randls_37.json,1378183,2350542,47,Woman
36,513267,DepthScenes,duration_manipulation_targetAtFixation,jsons/VE125_randls_37.json,http://54.235.29.9/FacialAge/BNav_EC2/DepthDuration/v2_depth_duration_MTurk/v2_DepthDuration_HTML.html#418,418,1364,625,1364,768,8-29-2022,6-42-11,37,depth_duration_stimuli/002748_2014-06-22_19-07-22_094959634447_rgbf000078-resize_1/002748_2014-06-22_19-07-22_094959634447_rgbf000078-resize_1-target.png,125,4.6705,7.0,5625,108,meters,jsons/VE125_randls_37.json,1378183,2350542,47,Woman
37,513267,DepthScenes,duration_manipulation_targetAtFixation,jsons/VE125_randls_37.json,http://54.235.29.9/FacialAge/BNav_EC2/DepthDuration/v2_depth_duration_MTurk/v2_DepthDuration_HTML.html#418,418,1364,625,1364,768,8-29-2022,6-42-11,38,depth_duration_stimuli/002995_2014-06-15_12-31-26_094959634447_rgbf000150-resize_1/002995_2014-06-15_12-31-26_094959634447_rgbf000150-resize_1-target.png,125,3.8360000000000003,8.0,5031,118,meters,jsons/VE125_randls_37.json,1378183,2350542,47,Woman
38,513267,DepthScenes,duration_manipulation_targetAtFixation,jsons/VE125_randls_37.json,http://54.235.29.9/FacialAge/BNav_EC2/DepthDuration/v2_depth_duration_MTurk/v2_DepthDuration_HTML.html#418,418,1364,625,1364,768,8-29-2022,6-42-11,39,depth_duration_stimuli/000810_2014-06-08_17-20-01_260595134347_rgbf000105-resize_0/000810_2014-06-08_17-20-01_260595134347_rgbf000105-resize_0-target.png,125,1.4865,3.0,4679,124,meters,jsons/VE125_randls_37.json,1378183,2350542,47,Woman
39,513267,DepthScenes,duration_manipulation_targetAtFixation,jsons/VE125_randls_37.json,http://54.235.29.9/FacialAge/BNav_EC2/DepthDuration/v2_depth_duration_MTurk/v2_DepthDuration_HTML.html#418,418,1364,625,1364,768,8-29-2022,6-42-11,40,depth_duration_stimuli/001214_2014-06-17_16-13-55_260595134347_rgbf000111-resize_0/001214_2014-06-17_16-13-55_260595134347_rgbf000111-resize_0-target.png,125,2.6505,4.0,11578,139,meters,jsons/VE125_randls_37.json,1378183,2350542,47,Woman
40,513267,DepthScenes,duration_manipulation_targetAtFixation,jsons/VE125_randls_37.json,http://54.235.29.9/FacialAge/BNav_EC2/DepthDuration/v2_depth_duration_MTurk/v2_DepthDuration_HTML.html#418,418,1364,625,1364,768,8-29-2022,6-42-11,41,depth_duration_stimuli/002039_2014-06-24_20-22-38_260595134347_rgbf000084-resize_1/002039_2014-06-24_20-22-38_260595134347_rgbf000084-resize_1-target.png,125,4.408,5.0,6939,118,meters,jsons/VE125_randls_37.json,1378183,2350542,47,Woman
41,513267,DepthScenes,duration_manipulation_targetAtFixation,jsons/VE125_randls_37.json,http://54.235.29.9/FacialAge/BNav_EC2/DepthDuration/v2_depth_duration_MTurk/v2_DepthDuration_HTML.html#418,418,1364,625,1364,768,8-29-2022,6-42-11,42,depth_duration_stimuli/002103_2014-06-25_20-00-40_260595134347_rgbf000049-resize_0/002103_2014-06-25_20-00-40_260595134347_rgbf000049-resize_0-target.png,125,4.105,0.0,4954,113,meters,jsons/VE125_randls_37.json,1378183,2350542,47,Woman
42,513267,DepthScenes,duration_manipulation_targetAtFixation,jsons/VE125_randls_37.json,http://54.235.29.9/FacialAge/BNav_EC2/DepthDuration/v2_depth_duration_MTurk/v2_DepthDuration_HTML.html#418,418,1364,625,1364,768,8-29-2022,6-42-11,43,depth_duration_stimuli/001011_2014-06-08_23-18-54_260595134347_rgbf000044-resize_4/001011_2014-06-08_23-18-54_260595134347_rgbf000044-resize_4-target.png,125,2.4730000000000003,5.0,4703,124,meters,jsons/VE125_randls_37.json,1378183,2350542,47,Woman
43,513267,DepthScenes,duration_manipulation_targetAtFixation,jsons/VE125_randls_37.json,http://54.235.29.9/FacialAge/BNav_EC2/DepthDuration/v2_depth_duration_MTurk/v2_DepthDuration_HTML.html#418,418,1364,625,1364,768,8-29-2022,6-42-11,44,depth_duration_stimuli/002875_2014-06-01_15-19-00_094959634447_rgbf000151-resize_1/002875_2014-06-01_15-19-00_094959634447_rgbf000151-resize_1-target.png,125,1.9675,0.0,4291,135,meters,jsons/VE125_randls_37.json,1378183,2350542,47,Woman
44,513267,DepthScenes,duration_manipulation_targetAtFixation,jsons/VE125_randls_37.json,http://54.235.29.9/FacialAge/BNav_EC2/DepthDuration/v2_depth_duration_MTurk/v2_DepthDuration_HTML.html#418,418,1364,625,1364,768,8-29-2022,6-42-11,45,depth_duration_stimuli/000787_2014-06-08_22-33-53_260595134347_rgbf000175-resize_1/000787_2014-06-08_22-33-53_260595134347_rgbf000175-resize-original.jpg,125,4.784,0.0,5250,124,meters,jsons/VE125_randls_37.json,1378183,2350542,47,Woman
45,513267,DepthScenes,duration_manipulation_targetAtFixation,jsons/VE125_randls_37.json,http://54.235.29.9/FacialAge/BNav_EC2/DepthDuration/v2_depth_duration_MTurk/v2_DepthDuration_HTML.html#418,418,1364,625,1364,768,8-29-2022,6-42-11,46,depth_duration_stimuli/002272_2014-06-28_18-53-56_260595134347_rgbf000067-resize_2/002272_2014-06-28_18-53-56_260595134347_rgbf000067-resize_2-target.png,125,1.138,2.0,4473,108,meters,jsons/VE125_randls_37.json,1378183,2350542,47,Woman
46,513267,DepthScenes,duration_manipulation_targetAtFixation,jsons/VE125_randls_37.json,http://54.235.29.9/FacialAge/BNav_EC2/DepthDuration/v2_depth_duration_MTurk/v2_DepthDuration_HTML.html#418,418,1364,625,1364,768,8-29-2022,6-42-11,47,depth_duration_stimuli/001571_2014-06-20_17-21-32_260595134347_rgbf000089-resize_1/001571_2014-06-20_17-21-32_260595134347_rgbf000089-resize_1-target.png,125,1.86,3.0,6579,118,meters,jsons/VE125_randls_37.json,1378183,2350542,47,Woman
47,513267,DepthScenes,duration_manipulation_targetAtFixation,jsons/VE125_randls_37.json,http://54.235.29.9/FacialAge/BNav_EC2/DepthDuration/v2_depth_duration_MTurk/v2_DepthDuration_HTML.html#418,418,1364,625,1364,768,8-29-2022,6-42-11,48,depth_duration_stimuli/002989_2014-06-15_12-25-03_094959634447_rgbf000150-resize_3/002989_2014-06-15_12-25-03_094959634447_rgbf000150-resize_3-target.png,125,4.1975,8.0,8750,121,meters,jsons/VE125_randls_37.json,1378183,2350542,47,Woman
48,513267,DepthScenes,duration_manipulation_targetAtFixation,jsons/VE125_randls_37.json,http://54.235.29.9/FacialAge/BNav_EC2/DepthDuration/v2_depth_duration_MTurk/v2_DepthDuration_HTML.html#418,418,1364,625,1364,768,8-29-2022,6-42-11,49,depth_duration_stimuli/000866_2014-06-09_20-45-42_260595134347_rgbf000139-resize_1/000866_2014-06-09_20-45-42_260595134347_rgbf000139-resize_1-target.png,125,3.2155,0.0,5227,123,meters,jsons/VE125_randls_37.json,1378183,2350542,47,Woman
49,513267,DepthScenes,duration_manipulation_targetAtFixation,jsons/VE125_randls_37.json,http://54.235.29.9/FacialAge/BNav_EC2/DepthDuration/v2_depth_duration_MTurk/v2_DepthDuration_HTML.html#418,418,1364,625,1364,768,8-29-2022,6-42-11,50,depth_duration_stimuli/002549_2014-06-24_13-41-39_094959634447_rgbf000022-resize_3/002549_2014-06-24_13-41-39_094959634447_rgbf000022-resize_3-target.png,125,1.476,3.0,5491,125,meters,jsons/VE125_randls_37.json,1378183,2350542,47,Woman
50,513267,DepthScenes,duration_manipulation_targetAtFixation,jsons/VE125_randls_37.json,http://54.235.29.9/FacialAge/BNav_EC2/DepthDuration/v2_depth_duration_MTurk/v2_DepthDuration_HTML.html#418,418,1364,625,1364,768,8-29-2022,6-42-11,51,depth_duration_stimuli/002750_2014-06-22_19-08-03_094959634447_rgbf000094-resize_4/002750_2014-06-22_19-08-03_094959634447_rgbf000094-resize_4-target.png,125,2.354,0.0,4031,125,meters,jsons/VE125_randls_37.json,1378183,2350542,47,Woman
51,513267,DepthScenes,duration_manipulation_targetAtFixation,jsons/VE125_randls_37.json,http://54.235.29.9/FacialAge/BNav_EC2/DepthDuration/v2_depth_duration_MTurk/v2_DepthDuration_HTML.html#418,418,1364,625,1364,768,8-29-2022,6-42-11,52,depth_duration_stimuli/001016_2014-06-09_16-16-10_260595134347_rgbf000112-resize_5/001016_2014-06-09_16-16-10_260595134347_rgbf000112-resize_5-target.png,125,1.6565,4.0,4913,124,meters,jsons/VE125_randls_37.json,1378183,2350542,47,Woman
52,513267,DepthScenes,duration_manipulation_targetAtFixation,jsons/VE125_randls_37.json,http://54.235.29.9/FacialAge/BNav_EC2/DepthDuration/v2_depth_duration_MTurk/v2_DepthDuration_HTML.html#418,418,1364,625,1364,768,8-29-2022,6-42-11,53,depth_duration_stimuli/002340_2014-06-28_20-05-46_260595134347_rgbf000113-resize_0/002340_2014-06-28_20-05-46_260595134347_rgbf000113-resize_0-target.png,125,2.4735,0.0,5219,116,meters,jsons/VE125_randls_37.json,1378183,2350542,47,Woman
53,513267,DepthScenes,duration_manipulation_targetAtFixation,jsons/VE125_randls_37.json,http://54.235.29.9/FacialAge/BNav_EC2/DepthDuration/v2_depth_duration_MTurk/v2_DepthDuration_HTML.html#418,418,1364,625,1364,768,8-29-2022,6-42-11,54,depth_duration_stimuli/000469_2014-06-09_19-42-10_260595134347_rgbf000081-resize_1/000469_2014-06-09_19-42-10_260595134347_rgbf000081-resize_1-target.png,125,1.652,1.5,5829,140,meters,jsons/VE125_randls_37.json,1378183,2350542,47,Woman
54,513267,DepthScenes,duration_manipulation_targetAtFixation,jsons/VE125_randls_37.json,http://54.235.29.9/FacialAge/BNav_EC2/DepthDuration/v2_depth_duration_MTurk/v2_DepthDuration_HTML.html#418,418,1364,625,1364,768,8-29-2022,6-42-11,55,depth_duration_stimuli/000483_2014-06-09_20-41-45_260595134347_rgbf000116-resize_4/000483_2014-06-09_20-41-45_260595134347_rgbf000116-resize_4-target.png,125,1.337,3.0,6251,110,meters,jsons/VE125_randls_37.json,1378183,2350542,47,Woman
55,513267,DepthScenes,duration_manipulation_targetAtFixation,jsons/VE125_randls_37.json,http://54.235.29.9/FacialAge/BNav_EC2/DepthDuration/v2_depth_duration_MTurk/v2_DepthDuration_HTML.html#418,418,1364,625,1364,768,8-29-2022,6-42-11,56,depth_duration_stimuli/002118_2014-06-25_20-32-08_260595134347_rgbf000078-resize_1/002118_2014-06-25_20-32-08_260595134347_rgbf000078-resize_1-target.png,125,2.6460000000000004,2.0,5125,124,meters,jsons/VE125_randls_37.json,1378183,2350542,47,Woman
56,513267,DepthScenes,duration_manipulation_targetAtFixation,jsons/VE125_randls_37.json,http://54.235.29.9/FacialAge/BNav_EC2/DepthDuration/v2_depth_duration_MTurk/v2_DepthDuration_HTML.html#418,418,1364,625,1364,768,8-29-2022,6-42-11,57,depth_duration_stimuli/001516_2014-06-20_16-25-09_260595134347_rgbf000076-resize_2/001516_2014-06-20_16-25-09_260595134347_rgbf000076-resize_2-target.png,125,1.7445,0.0,4016,125,meters,jsons/VE125_randls_37.json,1378183,2350542,47,Woman
57,513267,DepthScenes,duration_manipulation_targetAtFixation,jsons/VE125_randls_37.json,http://54.235.29.9/FacialAge/BNav_EC2/DepthDuration/v2_depth_duration_MTurk/v2_DepthDuration_HTML.html#418,418,1364,625,1364,768,8-29-2022,6-42-11,58,depth_duration_stimuli/002663_2014-06-13_15-50-26_094959634447_rgbf000075-resize_1/002663_2014-06-13_15-50-26_094959634447_rgbf000075-resize_1-target.png,125,4.7495,5.0,50234,111,meters,jsons/VE125_randls_37.json,1378183,2350542,47,Woman
58,513267,DepthScenes,duration_manipulation_targetAtFixation,jsons/VE125_randls_37.json,http://54.235.29.9/FacialAge/BNav_EC2/DepthDuration/v2_depth_duration_MTurk/v2_DepthDuration_HTML.html#418,418,1364,625,1364,768,8-29-2022,6-42-11,59,depth_duration_stimuli/000409_2014-06-04_19-23-33_260595134347_rgbf000067-resize_0/000409_2014-06-04_19-23-33_260595134347_rgbf000067-resize_0-target.png,125,3.7335,3.0,3923,124,meters,jsons/VE125_randls_37.json,1378183,2350542,47,Woman
59,513267,DepthScenes,duration_manipulation_targetAtFixation,jsons/VE125_randls_37.json,http://54.235.29.9/FacialAge/BNav_EC2/DepthDuration/v2_depth_duration_MTurk/v2_DepthDuration_HTML.html#418,418,1364,625,1364,768,8-29-2022,6-42-11,60,depth_duration_stimuli/002509_2014-06-24_13-19-22_094959634447_rgbf000077-resize_0/002509_2014-06-24_13-19-22_094959634447_rgbf000077-resize_0-target.png,125,1.3065,4.0,4359,124,meters,jsons/VE125_randls_37.json,1378183,2350542,47,Woman
60,513267,DepthScenes,duration_manipulation_targetAtFixation,jsons/VE125_randls_37.json,http://54.235.29.9/FacialAge/BNav_EC2/DepthDuration/v2_depth_duration_MTurk/v2_DepthDuration_HTML.html#418,418,1364,625,1364,768,8-29-2022,6-42-11,61,depth_duration_stimuli/003338_2014-05-20_11-01-23_094959634447_rgbf000051-resize_6/003338_2014-05-20_11-01-23_094959634447_rgbf000051-resize_6-target.png,125,1.693,0.0,6047,125,meters,jsons/VE125_randls_37.json,1378183,2350542,47,Woman
61,513267,DepthScenes,duration_manipulation_targetAtFixation,jsons/VE125_randls_37.json,http://54.235.29.9/FacialAge/BNav_EC2/DepthDuration/v2_depth_duration_MTurk/v2_DepthDuration_HTML.html#418,418,1364,625,1364,768,8-29-2022,6-42-11,62,depth_duration_stimuli/001570_2014-06-20_17-21-09_260595134347_rgbf000135-resize_4/001570_2014-06-20_17-21-09_260595134347_rgbf000135-resize_4-target.png,125,4.467,4.0,7109,139,meters,jsons/VE125_randls_37.json,1378183,2350542,47,Woman
62,513267,DepthScenes,duration_manipulation_targetAtFixation,jsons/VE125_randls_37.json,http://54.235.29.9/FacialAge/BNav_EC2/DepthDuration/v2_depth_duration_MTurk/v2_DepthDuration_HTML.html#418,418,1364,625,1364,768,8-29-2022,6-42-11,63,depth_duration_stimuli/001392_2014-06-19_16-07-59_260595134347_rgbf000046-resize_1/001392_2014-06-19_16-07-59_260595134347_rgbf000046-resize_1-target.png,125,4.135,8.0,4525,115,meters,jsons/VE125_randls_37.json,1378183,2350542,47,Woman
63,513267,DepthScenes,duration_manipulation_targetAtFixation,jsons/VE125_randls_37.json,http://54.235.29.9/FacialAge/BNav_EC2/DepthDuration/v2_depth_duration_MTurk/v2_DepthDuration_HTML.html#418,418,1364,625,1364,768,8-29-2022,6-42-11,64,depth_duration_stimuli/000682_2014-06-08_23-14-58_260595134347_rgbf000041-resize_5/000682_2014-06-08_23-14-58_260595134347_rgbf000041-resize_5-target.png,125,2.7239999999999998,3.0,5500,120,meters,jsons/VE125_randls_37.json,1378183,2350542,47,Woman
64,513267,DepthScenes,duration_manipulation_targetAtFixation,jsons/VE125_randls_37.json,http://54.235.29.9/FacialAge/BNav_EC2/DepthDuration/v2_depth_duration_MTurk/v2_DepthDuration_HTML.html#418,418,1364,625,1364,768,8-29-2022,6-42-11,65,depth_duration_stimuli/001650_2014-06-20_12-09-00_260595134347_rgbf000087-resize_3/001650_2014-06-20_12-09-00_260595134347_rgbf000087-resize_3-target.png,125,1.9505,1.0,3548,139,meters,jsons/VE125_randls_37.json,1378183,2350542,47,Woman
65,513267,DepthScenes,duration_manipulation_targetAtFixation,jsons/VE125_randls_37.json,http://54.235.29.9/FacialAge/BNav_EC2/DepthDuration/v2_depth_duration_MTurk/v2_DepthDuration_HTML.html#418,418,1364,625,1364,768,8-29-2022,6-42-11,66,depth_duration_stimuli/001222_2014-06-17_16-24-06_260595134347_rgbf000073-resize_0/001222_2014-06-17_16-24-06_260595134347_rgbf000073-resize-original.jpg,125,1.4385,0.0,4876,123,meters,jsons/VE125_randls_37.json,1378183,2350542,47,Woman
66,513267,DepthScenes,duration_manipulation_targetAtFixation,jsons/VE125_randls_37.json,http://54.235.29.9/FacialAge/BNav_EC2/DepthDuration/v2_depth_duration_MTurk/v2_DepthDuration_HTML.html#418,418,1364,625,1364,768,8-29-2022,6-42-11,67,depth_duration_stimuli/000917_2014-06-09_22-45-29_260595134347_rgbf000149-resize_3/000917_2014-06-09_22-45-29_260595134347_rgbf000149-resize_3-target.png,125,4.1865,5.0,4188,153,meters,jsons/VE125_randls_37.json,1378183,2350542,47,Woman
67,513267,DepthScenes,duration_manipulation_targetAtFixation,jsons/VE125_randls_37.json,http://54.235.29.9/FacialAge/BNav_EC2/DepthDuration/v2_depth_duration_MTurk/v2_DepthDuration_HTML.html#418,418,1364,625,1364,768,8-29-2022,6-42-11,68,depth_duration_stimuli/002323_2014-06-28_20-01-54_260595134347_rgbf000051-resize_4/002323_2014-06-28_20-01-54_260595134347_rgbf000051-resize_4-target.png,125,3.7310000000000003,7.0,3978,124,meters,jsons/VE125_randls_37.json,1378183,2350542,47,Woman
68,513267,DepthScenes,duration_manipulation_targetAtFixation,jsons/VE125_randls_37.json,http://54.235.29.9/FacialAge/BNav_EC2/DepthDuration/v2_depth_duration_MTurk/v2_DepthDuration_HTML.html#418,418,1364,625,1364,768,8-29-2022,6-42-11,69,depth_duration_stimuli/001029_2014-06-08_13-17-57_260595134347_rgbf000065-resize_1/001029_2014-06-08_13-17-57_260595134347_rgbf000065-resize_1-target.png,125,3.0835,6.0,4141,120,meters,jsons/VE125_randls_37.json,1378183,2350542,47,Woman
69,513267,DepthScenes,duration_manipulation_targetAtFixation,jsons/VE125_randls_37.json,http://54.235.29.9/FacialAge/BNav_EC2/DepthDuration/v2_depth_duration_MTurk/v2_DepthDuration_HTML.html#418,418,1364,625,1364,768,8-29-2022,6-42-11,70,depth_duration_stimuli/000677_2014-06-08_23-10-32_260595134347_rgbf000158-resize_6/000677_2014-06-08_23-10-32_260595134347_rgbf000158-resize_6-target.png,125,3.556,0.0,3906,124,meters,jsons/VE125_randls_37.json,1378183,2350542,47,Woman
70,513267,DepthScenes,duration_manipulation_targetAtFixation,jsons/VE125_randls_37.json,http://54.235.29.9/FacialAge/BNav_EC2/DepthDuration/v2_depth_duration_MTurk/v2_DepthDuration_HTML.html#418,418,1364,625,1364,768,8-29-2022,6-42-11,71,depth_duration_stimuli/000739_2014-06-08_18-45-58_260595134347_rgbf000068-resize_1/000739_2014-06-08_18-45-58_260595134347_rgbf000068-resize_1-target.png,125,3.534,6.0,5194,120,meters,jsons/VE125_randls_37.json,1378183,2350542,47,Woman
71,513267,DepthScenes,duration_manipulation_targetAtFixation,jsons/VE125_randls_37.json,http://54.235.29.9/FacialAge/BNav_EC2/DepthDuration/v2_depth_duration_MTurk/v2_DepthDuration_HTML.html#418,418,1364,625,1364,768,8-29-2022,6-42-11,72,depth_duration_stimuli/000734_2014-06-08_17-39-11_260595134347_rgbf000128-resize_2/000734_2014-06-08_17-39-11_260595134347_rgbf000128-resize_2-target.png,125,4.098,5.0,3102,132,meters,jsons/VE125_randls_37.json,1378183,2350542,47,Woman
72,513267,DepthScenes,duration_manipulation_targetAtFixation,jsons/VE125_randls_37.json,http://54.235.29.9/FacialAge/BNav_EC2/DepthDuration/v2_depth_duration_MTurk/v2_DepthDuration_HTML.html#418,418,1364,625,1364,768,8-29-2022,6-42-11,73,depth_duration_stimuli/001808_2014-06-26_20-50-58_260595134347_rgbf000029-resize_1/001808_2014-06-26_20-50-58_260595134347_rgbf000029-resize_1-target.png,125,4.249,7.0,7004,125,meters,jsons/VE125_randls_37.json,1378183,2350542,47,Woman
73,513267,DepthScenes,duration_manipulation_targetAtFixation,jsons/VE125_randls_37.json,http://54.235.29.9/FacialAge/BNav_EC2/DepthDuration/v2_depth_duration_MTurk/v2_DepthDuration_HTML.html#418,418,1364,625,1364,768,8-29-2022,6-42-11,74,depth_duration_stimuli/001815_2014-06-26_20-52-55_260595134347_rgbf000020-resize_0/001815_2014-06-26_20-52-55_260595134347_rgbf000020-resize_0-target.png,125,3.3865,0.0,3804,122,meters,jsons/VE125_randls_37.json,1378183,2350542,47,Woman
74,513267,DepthScenes,duration_manipulation_targetAtFixation,jsons/VE125_randls_37.json,http://54.235.29.9/FacialAge/BNav_EC2/DepthDuration/v2_depth_duration_MTurk/v2_DepthDuration_HTML.html#418,418,1364,625,1364,768,8-29-2022,6-42-11,75,depth_duration_stimuli/001199_2014-06-17_16-03-48_260595134347_rgbf000077-resize_0/001199_2014-06-17_16-03-48_260595134347_rgbf000077-resize_0-target.png,125,3.4375,7.0,7072,95,meters,jsons/VE125_randls_37.json,1378183,2350542,47,Woman
75,513267,DepthScenes,duration_manipulation_targetAtFixation,jsons/VE125_randls_37.json,http://54.235.29.9/FacialAge/BNav_EC2/DepthDuration/v2_depth_duration_MTurk/v2_DepthDuration_HTML.html#418,418,1364,625,1364,768,8-29-2022,6-42-11,76,depth_duration_stimuli/000502_2014-06-08_23-02-32_260595134347_rgbf000063-resize_4/000502_2014-06-08_23-02-32_260595134347_rgbf000063-resize_4-target.png,125,2.431,0.0,6739,124,meters,jsons/VE125_randls_37.json,1378183,2350542,47,Woman
76,513267,DepthScenes,duration_manipulation_targetAtFixation,jsons/VE125_randls_37.json,http://54.235.29.9/FacialAge/BNav_EC2/DepthDuration/v2_depth_duration_MTurk/v2_DepthDuration_HTML.html#418,418,1364,625,1364,768,8-29-2022,6-42-11,77,depth_duration_stimuli/001167_2014-06-17_15-38-07_260595134347_rgbf000108-resize_0/001167_2014-06-17_15-38-07_260595134347_rgbf000108-resize_0-target.png,125,1.8505,2.0,4953,110,meters,jsons/VE125_randls_37.json,1378183,2350542,47,Woman
77,513267,DepthScenes,duration_manipulation_targetAtFixation,jsons/VE125_randls_37.json,http://54.235.29.9/FacialAge/BNav_EC2/DepthDuration/v2_depth_duration_MTurk/v2_DepthDuration_HTML.html#418,418,1364,625,1364,768,8-29-2022,6-42-11,78,depth_duration_stimuli/003587_2014-05-23_16-48-02_094959634447_rgbf002384-resize_2/003587_2014-05-23_16-48-02_094959634447_rgbf002384-resize_2-target.png,125,1.357,0.0,7813,109,meters,jsons/VE125_randls_37.json,1378183,2350542,47,Woman
78,513267,DepthScenes,duration_manipulation_targetAtFixation,jsons/VE125_randls_37.json,http://54.235.29.9/FacialAge/BNav_EC2/DepthDuration/v2_depth_duration_MTurk/v2_DepthDuration_HTML.html#418,418,1364,625,1364,768,8-29-2022,6-42-11,79,depth_duration_stimuli/002784_2014-06-22_19-26-30_094959634447_rgbf000083-resize_3/002784_2014-06-22_19-26-30_094959634447_rgbf000083-resize_3-target.png,125,1.8046666666667,1.0,4572,124,meters,jsons/VE125_randls_37.json,1378183,2350542,47,Woman
79,513267,DepthScenes,duration_manipulation_targetAtFixation,jsons/VE125_randls_37.json,http://54.235.29.9/FacialAge/BNav_EC2/DepthDuration/v2_depth_duration_MTurk/v2_DepthDuration_HTML.html#418,418,1364,625,1364,768,8-29-2022,6-42-11,80,depth_duration_stimuli/001100_2014-06-15_17-46-26_260595134347_rgbf000225-resize_2/001100_2014-06-15_17-46-26_260595134347_rgbf000225-resize_2-target.png,125,2.24,0.0,4656,139,meters,jsons/VE125_randls_37.json,1378183,2350542,47,Woman
80,513267,DepthScenes,duration_manipulation_targetAtFixation,jsons/VE125_randls_37.json,http://54.235.29.9/FacialAge/BNav_EC2/DepthDuration/v2_depth_duration_MTurk/v2_DepthDuration_HTML.html#418,418,1364,625,1364,768,8-29-2022,6-42-11,81,depth_duration_stimuli/001806_2014-06-26_20-50-20_260595134347_rgbf000091-resize_1/001806_2014-06-26_20-50-20_260595134347_rgbf000091-resize_1-target.png,125,2.7305,2.0,4673,122,meters,jsons/VE125_randls_37.json,1378183,2350542,47,Woman
81,513267,DepthScenes,duration_manipulation_targetAtFixation,jsons/VE125_randls_37.json,http://54.235.29.9/FacialAge/BNav_EC2/DepthDuration/v2_depth_duration_MTurk/v2_DepthDuration_HTML.html#418,418,1364,625,1364,768,8-29-2022,6-42-11,82,depth_duration_stimuli/001617_2014-06-20_11-35-32_260595134347_rgbf000066-resize_1/001617_2014-06-20_11-35-32_260595134347_rgbf000066-resize_1-target.png,125,3.7910000000000004,0.0,3750,110,meters,jsons/VE125_randls_37.json,1378183,2350542,47,Woman
82,513267,DepthScenes,duration_manipulation_targetAtFixation,jsons/VE125_randls_37.json,http://54.235.29.9/FacialAge/BNav_EC2/DepthDuration/v2_depth_duration_MTurk/v2_DepthDuration_HTML.html#418,418,1364,625,1364,768,8-29-2022,6-42-11,83,depth_duration_stimuli/001150_2014-06-17_15-27-34_260595134347_rgbf000108-resize_2/001150_2014-06-17_15-27-34_260595134347_rgbf000108-resize_2-target.png,125,4.0325,5.0,4375,88,meters,jsons/VE125_randls_37.json,1378183,2350542,47,Woman
83,513267,DepthScenes,duration_manipulation_targetAtFixation,jsons/VE125_randls_37.json,http://54.235.29.9/FacialAge/BNav_EC2/DepthDuration/v2_depth_duration_MTurk/v2_DepthDuration_HTML.html#418,418,1364,625,1364,768,8-29-2022,6-42-11,84,depth_duration_stimuli/000665_2014-06-09_20-42-35_260595134347_rgbf000110-resize_1/000665_2014-06-09_20-42-35_260595134347_rgbf000110-resize_1-target.png,125,3.057,0.0,5109,122,meters,jsons/VE125_randls_37.json,1378183,2350542,47,Woman
84,513267,DepthScenes,duration_manipulation_targetAtFixation,jsons/VE125_randls_37.json,http://54.235.29.9/FacialAge/BNav_EC2/DepthDuration/v2_depth_duration_MTurk/v2_DepthDuration_HTML.html#418,418,1364,625,1364,768,8-29-2022,6-42-11,85,depth_duration_stimuli/001158_2014-06-17_15-32-16_260595134347_rgbf000138-resize_2/001158_2014-06-17_15-32-16_260595134347_rgbf000138-resize_2-target.png,125,4.5315,3.0,58890,140,meters,jsons/VE125_randls_37.json,1378183,2350542,47,Woman
85,513267,DepthScenes,duration_manipulation_targetAtFixation,jsons/VE125_randls_37.json,http://54.235.29.9/FacialAge/BNav_EC2/DepthDuration/v2_depth_duration_MTurk/v2_DepthDuration_HTML.html#418,418,1364,625,1364,768,8-29-2022,6-42-11,86,depth_duration_stimuli/000556_2014-06-09_22-42-56_260595134347_rgbf000214-resize_1/000556_2014-06-09_22-42-56_260595134347_rgbf000214-resize_1-target.png,125,4.8415,0.0,6890,124,meters,jsons/VE125_randls_37.json,1378183,2350542,47,Woman
86,513267,DepthScenes,duration_manipulation_targetAtFixation,jsons/VE125_randls_37.json,http://54.235.29.9/FacialAge/BNav_EC2/DepthDuration/v2_depth_duration_MTurk/v2_DepthDuration_HTML.html#418,418,1364,625,1364,768,8-29-2022,6-42-11,87,depth_duration_stimuli/000368_2014-06-09_15-53-01_260595134347_rgbf000155-resize_2/000368_2014-06-09_15-53-01_260595134347_rgbf000155-resize_2-target.png,125,2.4859999999999998,0.0,10431,124,meters,jsons/VE125_randls_37.json,1378183,2350542,47,Woman
87,513267,DepthScenes,duration_manipulation_targetAtFixation,jsons/VE125_randls_37.json,http://54.235.29.9/FacialAge/BNav_EC2/DepthDuration/v2_depth_duration_MTurk/v2_DepthDuration_HTML.html#418,418,1364,625,1364,768,8-29-2022,6-42-11,88,depth_duration_stimuli/002678_2014-06-13_16-15-32_094959634447_rgbf000151-resize_6/002678_2014-06-13_16-15-32_094959634447_rgbf000151-resize_6-target.png,125,2.1830000000000003,4.0,14525,123,meters,jsons/VE125_randls_37.json,1378183,2350542,47,Woman
88,513267,DepthScenes,duration_manipulation_targetAtFixation,jsons/VE125_randls_37.json,http://54.235.29.9/FacialAge/BNav_EC2/DepthDuration/v2_depth_duration_MTurk/v2_DepthDuration_HTML.html#418,418,1364,625,1364,768,8-29-2022,6-42-11,89,depth_duration_stimuli/002964_2014-06-08_17-46-11_094959634447_rgbf000091-resize_4/002964_2014-06-08_17-46-11_094959634447_rgbf000091-resize_4-target.png,125,1.6909999999999998,5.0,4468,123,meters,jsons/VE125_randls_37.json,1378183,2350542,47,Woman
89,513267,DepthScenes,duration_manipulation_targetAtFixation,jsons/VE125_randls_37.json,http://54.235.29.9/FacialAge/BNav_EC2/DepthDuration/v2_depth_duration_MTurk/v2_DepthDuration_HTML.html#418,418,1364,625,1364,768,8-29-2022,6-42-11,90,depth_duration_stimuli/002136_2014-06-25_21-18-03_260595134347_rgbf000109-resize_3/002136_2014-06-25_21-18-03_260595134347_rgbf000109-resize_3-target.png,125,1.9569999999999999,7.0,4432,109,meters,jsons/VE125_randls_37.json,1378183,2350542,47,Woman
90,513267,DepthScenes,duration_manipulation_targetAtFixation,jsons/VE125_randls_37.json,http://54.235.29.9/FacialAge/BNav_EC2/DepthDuration/v2_depth_duration_MTurk/v2_DepthDuration_HTML.html#418,418,1364,625,1364,768,8-29-2022,6-42-11,91,depth_duration_stimuli/001244_2014-06-17_16-47-45_260595134347_rgbf000030-resize_4/001244_2014-06-17_16-47-45_260595134347_rgbf000030-resize_4-target.png,125,2.0425,5.0,4395,145,meters,jsons/VE125_randls_37.json,1378183,2350542,47,Woman
91,513267,DepthScenes,duration_manipulation_targetAtFixation,jsons/VE125_randls_37.json,http://54.235.29.9/FacialAge/BNav_EC2/DepthDuration/v2_depth_duration_MTurk/v2_DepthDuration_HTML.html#418,418,1364,625,1364,768,8-29-2022,6-42-11,92,depth_duration_stimuli/003495_2014-05-21_16-01-51_094959634447_rgbf000100-resize_3/003495_2014-05-21_16-01-51_094959634447_rgbf000100-resize_3-target.png,125,1.6255,0.0,8079,108,meters,jsons/VE125_randls_37.json,1378183,2350542,47,Woman
92,513267,DepthScenes,duration_manipulation_targetAtFixation,jsons/VE125_randls_37.json,http://54.235.29.9/FacialAge/BNav_EC2/DepthDuration/v2_depth_duration_MTurk/v2_DepthDuration_HTML.html#418,418,1364,625,1364,768,8-29-2022,6-42-11,93,depth_duration_stimuli/002375_2014-06-28_20-13-44_260595134347_rgbf000032-resize_1/002375_2014-06-28_20-13-44_260595134347_rgbf000032-resize_1-target.png,125,4.0175,2.0,5246,124,meters,jsons/VE125_randls_37.json,1378183,2350542,47,Woman
93,513267,DepthScenes,duration_manipulation_targetAtFixation,jsons/VE125_randls_37.json,http://54.235.29.9/FacialAge/BNav_EC2/DepthDuration/v2_depth_duration_MTurk/v2_DepthDuration_HTML.html#418,418,1364,625,1364,768,8-29-2022,6-42-11,94,depth_duration_stimuli/002657_2014-06-13_15-29-54_094959634447_rgbf000150-resize_1/002657_2014-06-13_15-29-54_094959634447_rgbf000150-resize_1-target.png,125,4.919,3.0,4143,125,meters,jsons/VE125_randls_37.json,1378183,2350542,47,Woman
94,513267,DepthScenes,duration_manipulation_targetAtFixation,jsons/VE125_randls_37.json,http://54.235.29.9/FacialAge/BNav_EC2/DepthDuration/v2_depth_duration_MTurk/v2_DepthDuration_HTML.html#418,418,1364,625,1364,768,8-29-2022,6-42-11,95,depth_duration_stimuli/003534_2014-05-22_15-06-10_094959634447_rgbf000102-resize_4/003534_2014-05-22_15-06-10_094959634447_rgbf000102-resize_4-target.png,125,1.426,1.0,3891,124,meters,jsons/VE125_randls_37.json,1378183,2350542,47,Woman
95,513267,DepthScenes,duration_manipulation_targetAtFixation,jsons/VE125_randls_37.json,http://54.235.29.9/FacialAge/BNav_EC2/DepthDuration/v2_depth_duration_MTurk/v2_DepthDuration_HTML.html#418,418,1364,625,1364,768,8-29-2022,6-42-11,96,depth_duration_stimuli/002637_2014-06-24_14-51-13_094959634447_rgbf000066-resize_4/002637_2014-06-24_14-51-13_094959634447_rgbf000066-resize_4-target.png,125,1.9955,0.0,3579,124,meters,jsons/VE125_randls_37.json,1378183,2350542,47,Woman
96,513267,DepthScenes,duration_manipulation_targetAtFixation,jsons/VE125_randls_37.json,http://54.235.29.9/FacialAge/BNav_EC2/DepthDuration/v2_depth_duration_MTurk/v2_DepthDuration_HTML.html#418,418,1364,625,1364,768,8-29-2022,6-42-11,97,depth_duration_stimuli/001449_2014-06-19_17-01-27_260595134347_rgbf000116-resize_2/001449_2014-06-19_17-01-27_260595134347_rgbf000116-resize_2-target.png,125,3.452,4.0,3531,114,meters,jsons/VE125_randls_37.json,1378183,2350542,47,Woman
97,513267,DepthScenes,duration_manipulation_targetAtFixation,jsons/VE125_randls_37.json,http://54.235.29.9/FacialAge/BNav_EC2/DepthDuration/v2_depth_duration_MTurk/v2_DepthDuration_HTML.html#418,418,1364,625,1364,768,8-29-2022,6-42-11,98,depth_duration_stimuli/001450_2014-06-19_17-02-03_260595134347_rgbf000203-resize_4/001450_2014-06-19_17-02-03_260595134347_rgbf000203-resize_4-target.png,125,4.0106666666667,0.0,3110,125,meters,jsons/VE125_randls_37.json,1378183,2350542,47,Woman
98,513267,DepthScenes,duration_manipulation_targetAtFixation,jsons/VE125_randls_37.json,http://54.235.29.9/FacialAge/BNav_EC2/DepthDuration/v2_depth_duration_MTurk/v2_DepthDuration_HTML.html#418,418,1364,625,1364,768,8-29-2022,6-42-11,99,depth_duration_stimuli/001540_2014-06-20_17-01-05_260595134347_rgbf000086-resize_2/001540_2014-06-20_17-01-05_260595134347_rgbf000086-resize-original.jpg,125,1.459,0.0,3531,123,meters,jsons/VE125_randls_37.json,1378183,2350542,47,Woman
99,513267,DepthScenes,duration_manipulation_targetAtFixation,jsons/VE125_randls_37.json,http://54.235.29.9/FacialAge/BNav_EC2/DepthDuration/v2_depth_duration_MTurk/v2_DepthDuration_HTML.html#418,418,1364,625,1364,768,8-29-2022,6-42-11,100,depth_duration_stimuli/000788_2014-06-08_22-34-36_260595134347_rgbf000131-resize_1/000788_2014-06-08_22-34-36_260595134347_rgbf000131-resize_1-target.png,125,3.359,3.0,4046,94,meters,jsons/VE125_randls_37.json,1378183,2350542,47,Woman
100,513267,DepthScenes,duration_manipulation_targetAtFixation,jsons/VE125_randls_37.json,http://54.235.29.9/FacialAge/BNav_EC2/DepthDuration/v2_depth_duration_MTurk/v2_DepthDuration_HTML.html#418,418,1364,625,1364,768,8-29-2022,6-42-11,101,depth_duration_stimuli/001235_2014-06-17_16-37-36_260595134347_rgbf000084-resize_4/001235_2014-06-17_16-37-36_260595134347_rgbf000084-resize_4-target.png,125,3.6605,0.0,4001,139,meters,jsons/VE125_randls_37.json,1378183,2350542,47,Woman
101,513267,DepthScenes,duration_manipulation_targetAtFixation,jsons/VE125_randls_37.json,http://54.235.29.9/FacialAge/BNav_EC2/DepthDuration/v2_depth_duration_MTurk/v2_DepthDuration_HTML.html#418,418,1364,625,1364,768,8-29-2022,6-42-11,102,depth_duration_stimuli/001417_2014-06-19_16-25-36_260595134347_rgbf000115-resize_5/001417_2014-06-19_16-25-36_260595134347_rgbf000115-resize_5-target.png,125,4.6255,7.0,8781,108,meters,jsons/VE125_randls_37.json,1378183,2350542,47,Woman
102,513267,DepthScenes,duration_manipulation_targetAtFixation,jsons/VE125_randls_37.json,http://54.235.29.9/FacialAge/BNav_EC2/DepthDuration/v2_depth_duration_MTurk/v2_DepthDuration_HTML.html#418,418,1364,625,1364,768,8-29-2022,6-42-11,103,depth_duration_stimuli/003081_2014-06-15_15-19-16_094959634447_rgbf000150-resize_1/003081_2014-06-15_15-19-16_094959634447_rgbf000150-resize_1-target.png,125,3.9125,7.0,5812,122,meters,jsons/VE125_randls_37.json,1378183,2350542,47,Woman
103,513267,DepthScenes,duration_manipulation_targetAtFixation,jsons/VE125_randls_37.json,http://54.235.29.9/FacialAge/BNav_EC2/DepthDuration/v2_depth_duration_MTurk/v2_DepthDuration_HTML.html#418,418,1364,625,1364,768,8-29-2022,6-42-11,104,depth_duration_stimuli/000878_2014-06-08_22-52-45_260595134347_rgbf000045-resize_2/000878_2014-06-08_22-52-45_260595134347_rgbf000045-resize_2-target.png,125,2.092,12.0,5016,109,meters,jsons/VE125_randls_37.json,1378183,2350542,47,Woman
104,513267,DepthScenes,duration_manipulation_targetAtFixation,jsons/VE125_randls_37.json,http://54.235.29.9/FacialAge/BNav_EC2/DepthDuration/v2_depth_duration_MTurk/v2_DepthDuration_HTML.html#418,418,1364,625,1364,768,8-29-2022,6-42-11,105,depth_duration_stimuli/002953_2014-06-08_17-32-18_094959634447_rgbf000059-resize_5/002953_2014-06-08_17-32-18_094959634447_rgbf000059-resize_5-target.png,125,1.551,0.0,3000,124,meters,jsons/VE125_randls_37.json,1378183,2350542,47,Woman
105,513267,DepthScenes,duration_manipulation_targetAtFixation,jsons/VE125_randls_37.json,http://54.235.29.9/FacialAge/BNav_EC2/DepthDuration/v2_depth_duration_MTurk/v2_DepthDuration_HTML.html#418,418,1364,625,1364,768,8-29-2022,6-42-11,106,depth_duration_stimuli/000736_2014-06-08_18-24-15_260595134347_rgbf000206-resize_3/000736_2014-06-08_18-24-15_260595134347_rgbf000206-resize_3-target.png,125,3.515,2.0,3875,126,meters,jsons/VE125_randls_37.json,1378183,2350542,47,Woman
106,513267,DepthScenes,duration_manipulation_targetAtFixation,jsons/VE125_randls_37.json,http://54.235.29.9/FacialAge/BNav_EC2/DepthDuration/v2_depth_duration_MTurk/v2_DepthDuration_HTML.html#418,418,1364,625,1364,768,8-29-2022,6-42-11,107,depth_duration_stimuli/000137_2014-05-20_17-04-49_260595134347_rgbf000120-resize_1/000137_2014-05-20_17-04-49_260595134347_rgbf000120-resize_1-target.png,125,3.786,0.0,3812,139,meters,jsons/VE125_randls_37.json,1378183,2350542,47,Woman
107,513267,DepthScenes,duration_manipulation_targetAtFixation,jsons/VE125_randls_37.json,http://54.235.29.9/FacialAge/BNav_EC2/DepthDuration/v2_depth_duration_MTurk/v2_DepthDuration_HTML.html#418,418,1364,625,1364,768,8-29-2022,6-42-11,108,depth_duration_stimuli/001055_2014-06-08_18-45-35_260595134347_rgbf000111-resize_4/001055_2014-06-08_18-45-35_260595134347_rgbf000111-resize_4-target.png,125,2.4290000000000003,4.0,4654,125,meters,jsons/VE125_randls_37.json,1378183,2350542,47,Woman
108,513267,DepthScenes,duration_manipulation_targetAtFixation,jsons/VE125_randls_37.json,http://54.235.29.9/FacialAge/BNav_EC2/DepthDuration/v2_depth_duration_MTurk/v2_DepthDuration_HTML.html#418,418,1364,625,1364,768,8-29-2022,6-42-11,109,depth_duration_stimuli/000549_2014-06-08_22-10-24_260595134347_rgbf000247-resize_3/000549_2014-06-08_22-10-24_260595134347_rgbf000247-resize_3-target.png,125,1.841,0.0,3866,140,meters,jsons/VE125_randls_37.json,1378183,2350542,47,Woman
109,513267,DepthScenes,duration_manipulation_targetAtFixation,jsons/VE125_randls_37.json,http://54.235.29.9/FacialAge/BNav_EC2/DepthDuration/v2_depth_duration_MTurk/v2_DepthDuration_HTML.html#418,418,1364,625,1364,768,8-29-2022,6-42-11,110,depth_duration_stimuli/000486_2014-06-09_20-47-20_260595134347_rgbf000143-resize_2/000486_2014-06-09_20-47-20_260595134347_rgbf000143-resize_2-target.png,125,4.8325,5.0,7718,139,meters,jsons/VE125_randls_37.json,1378183,2350542,47,Woman
110,513267,DepthScenes,duration_manipulation_targetAtFixation,jsons/VE125_randls_37.json,http://54.235.29.9/FacialAge/BNav_EC2/DepthDuration/v2_depth_duration_MTurk/v2_DepthDuration_HTML.html#418,418,1364,625,1364,768,8-29-2022,6-42-11,111,depth_duration_stimuli/003083_2014-06-15_15-21-03_094959634447_rgbf000063-resize_1/003083_2014-06-15_15-21-03_094959634447_rgbf000063-resize_1-target.png,125,4.1405,0.0,9781,123,meters,jsons/VE125_randls_37.json,1378183,2350542,47,Woman
111,513267,DepthScenes,duration_manipulation_targetAtFixation,jsons/VE125_randls_37.json,http://54.235.29.9/FacialAge/BNav_EC2/DepthDuration/v2_depth_duration_MTurk/v2_DepthDuration_HTML.html#418,418,1364,625,1364,768,8-29-2022,6-42-11,112,depth_duration_stimuli/002788_2014-06-22_19-36-03_094959634447_rgbf000088-resize_2/002788_2014-06-22_19-36-03_094959634447_rgbf000088-resize_2-target.png,125,1.6465,2.0,6082,124,meters,jsons/VE125_randls_37.json,1378183,2350542,47,Woman
112,513267,DepthScenes,duration_manipulation_targetAtFixation,jsons/VE125_randls_37.json,http://54.235.29.9/FacialAge/BNav_EC2/DepthDuration/v2_depth_duration_MTurk/v2_DepthDuration_HTML.html#418,418,1364,625,1364,768,8-29-2022,6-42-11,113,depth_duration_stimuli/000749_2014-06-08_21-55-06_260595134347_rgbf000070-resize_2/000749_2014-06-08_21-55-06_260595134347_rgbf000070-resize_2-target.png,125,2.331,0.0,5938,124,meters,jsons/VE125_randls_37.json,1378183,2350542,47,Woman
113,513267,DepthScenes,duration_manipulation_targetAtFixation,jsons/VE125_randls_37.json,http://54.235.29.9/FacialAge/BNav_EC2/DepthDuration/v2_depth_duration_MTurk/v2_DepthDuration_HTML.html#418,418,1364,625,1364,768,8-29-2022,6-42-11,114,depth_duration_stimuli/000414_2014-06-04_19-49-13_260595134347_rgbf000044-resize_0/000414_2014-06-04_19-49-13_260595134347_rgbf000044-resize_0-target.png,125,4.329,6.0,23578,140,meters,jsons/VE125_randls_37.json,1378183,2350542,47,Woman
114,513267,DepthScenes,duration_manipulation_targetAtFixation,jsons/VE125_randls_37.json,http://54.235.29.9/FacialAge/BNav_EC2/DepthDuration/v2_depth_duration_MTurk/v2_DepthDuration_HTML.html#418,418,1364,625,1364,768,8-29-2022,6-42-11,115,depth_duration_stimuli/003129_2014-05-12_10-48-10_094959634447_rgbf000100-resize_0/003129_2014-05-12_10-48-10_094959634447_rgbf000100-resize_0-target.png,125,4.9305,3.0,11245,124,meters,jsons/VE125_randls_37.json,1378183,2350542,47,Woman
115,513267,DepthScenes,duration_manipulation_targetAtFixation,jsons/VE125_randls_37.json,http://54.235.29.9/FacialAge/BNav_EC2/DepthDuration/v2_depth_duration_MTurk/v2_DepthDuration_HTML.html#418,418,1364,625,1364,768,8-29-2022,6-42-11,116,depth_duration_stimuli/001170_2014-06-17_15-43-44_260595134347_rgbf000096-resize_6/001170_2014-06-17_15-43-44_260595134347_rgbf000096-resize-original.jpg,125,1.1909999999999998,0.0,4526,124,meters,jsons/VE125_randls_37.json,1378183,2350542,47,Woman
116,513267,DepthScenes,duration_manipulation_targetAtFixation,jsons/VE125_randls_37.json,http://54.235.29.9/FacialAge/BNav_EC2/DepthDuration/v2_depth_duration_MTurk/v2_DepthDuration_HTML.html#418,418,1364,625,1364,768,8-29-2022,6-42-11,117,depth_duration_stimuli/002763_2014-06-22_19-13-10_094959634447_rgbf000075-resize_4/002763_2014-06-22_19-13-10_094959634447_rgbf000075-resize_4-target.png,125,1.68375,4.0,4993,140,meters,jsons/VE125_randls_37.json,1378183,2350542,47,Woman
117,513267,DepthScenes,duration_manipulation_targetAtFixation,jsons/VE125_randls_37.json,http://54.235.29.9/FacialAge/BNav_EC2/DepthDuration/v2_depth_duration_MTurk/v2_DepthDuration_HTML.html#418,418,1364,625,1364,768,8-29-2022,6-42-11,118,depth_duration_stimuli/002209_2014-06-28_18-36-10_260595134347_rgbf000051-resize_1/002209_2014-06-28_18-36-10_260595134347_rgbf000051-resize_1-target.png,125,2.057,5.0,3938,139,meters,jsons/VE125_randls_37.json,1378183,2350542,47,Woman
118,513267,DepthScenes,duration_manipulation_targetAtFixation,jsons/VE125_randls_37.json,http://54.235.29.9/FacialAge/BNav_EC2/DepthDuration/v2_depth_duration_MTurk/v2_DepthDuration_HTML.html#418,418,1364,625,1364,768,8-29-2022,6-42-11,119,depth_duration_stimuli/000436_2014-06-09_22-25-11_260595134347_rgbf000137-resize_1/000436_2014-06-09_22-25-11_260595134347_rgbf000137-resize_1-target.png,125,4.0705,7.0,7735,115,meters,jsons/VE125_randls_37.json,1378183,2350542,47,Woman
119,513267,DepthScenes,duration_manipulation_targetAtFixation,jsons/VE125_randls_37.json,http://54.235.29.9/FacialAge/BNav_EC2/DepthDuration/v2_depth_duration_MTurk/v2_DepthDuration_HTML.html#418,418,1364,625,1364,768,8-29-2022,6-42-11,120,depth_duration_stimuli/002444_2014-06-28_20-32-08_260595134347_rgbf000027-resize_0/002444_2014-06-28_20-32-08_260595134347_rgbf000027-resize_0-target.png,125,4.388999999999999,4.0,18202,114,meters,jsons/VE125_randls_37.json,1378183,2350542,47,Woman
120,513267,DepthScenes,duration_manipulation_targetAtFixation,jsons/VE125_randls_37.json,http://54.235.29.9/FacialAge/BNav_EC2/DepthDuration/v2_depth_duration_MTurk/v2_DepthDuration_HTML.html#418,418,1364,625,1364,768,8-29-2022,6-42-11,121,depth_duration_stimuli/002570_2014-06-24_13-59-54_094959634447_rgbf000059-resize_0/002570_2014-06-24_13-59-54_094959634447_rgbf000059-resize_0-target.png,125,4.037,3.0,5172,110,meters,jsons/VE125_randls_37.json,1378183,2350542,47,Woman
121,513267,DepthScenes,duration_manipulation_targetAtFixation,jsons/VE125_randls_37.json,http://54.235.29.9/FacialAge/BNav_EC2/DepthDuration/v2_depth_duration_MTurk/v2_DepthDuration_HTML.html#418,418,1364,625,1364,768,8-29-2022,6-42-11,122,depth_duration_stimuli/002467_2014-06-28_20-38-07_260595134347_rgbf000026-resize_2/002467_2014-06-28_20-38-07_260595134347_rgbf000026-resize_2-target.png,125,4.742,5.0,3969,113,meters,jsons/VE125_randls_37.json,1378183,2350542,47,Woman
122,513267,DepthScenes,duration_manipulation_targetAtFixation,jsons/VE125_randls_37.json,http://54.235.29.9/FacialAge/BNav_EC2/DepthDuration/v2_depth_duration_MTurk/v2_DepthDuration_HTML.html#418,418,1364,625,1364,768,8-29-2022,6-42-11,123,depth_duration_stimuli/003621_2014-05-23_18-06-08_094959634447_rgbf000101-resize_1/003621_2014-05-23_18-06-08_094959634447_rgbf000101-resize_1-target.png,125,3.9835,4.0,5750,124,meters,jsons/VE125_randls_37.json,1378183,2350542,47,Woman
123,513267,DepthScenes,duration_manipulation_targetAtFixation,jsons/VE125_randls_37.json,http://54.235.29.9/FacialAge/BNav_EC2/DepthDuration/v2_depth_duration_MTurk/v2_DepthDuration_HTML.html#418,418,1364,625,1364,768,8-29-2022,6-42-11,124,depth_duration_stimuli/001584_2014-06-20_11-07-43_260595134347_rgbf000002-resize_1/001584_2014-06-20_11-07-43_260595134347_rgbf000002-resize_1-target.png,125,3.53,0.0,3754,114,meters,jsons/VE125_randls_37.json,1378183,2350542,47,Woman
124,513267,DepthScenes,duration_manipulation_targetAtFixation,jsons/VE125_randls_37.json,http://54.235.29.9/FacialAge/BNav_EC2/DepthDuration/v2_depth_duration_MTurk/v2_DepthDuration_HTML.html#418,418,1364,625,1364,768,8-29-2022,6-42-11,125,depth_duration_stimuli/001555_2014-06-20_17-12-10_260595134347_rgbf000065-resize_4/001555_2014-06-20_17-12-10_260595134347_rgbf000065-resize_4-target.png,125,1.633,2.0,3839,140,meters,jsons/VE125_randls_37.json,1378183,2350542,47,Woman
125,513267,DepthScenes,duration_manipulation_targetAtFixation,jsons/VE125_randls_37.json,http://54.235.29.9/FacialAge/BNav_EC2/DepthDuration/v2_depth_duration_MTurk/v2_DepthDuration_HTML.html#418,418,1364,625,1364,768,8-29-2022,6-42-11,126,depth_duration_stimuli/000103_2014-05-14_22-01-17_260595134347_rgbf000152-resize_5/000103_2014-05-14_22-01-17_260595134347_rgbf000152-resize_5-target.png,125,1.993,0.0,3125,140,meters,jsons/VE125_randls_37.json,1378183,2350542,47,Woman
126,513267,DepthScenes,duration_manipulation_targetAtFixation,jsons/VE125_randls_37.json,http://54.235.29.9/FacialAge/BNav_EC2/DepthDuration/v2_depth_duration_MTurk/v2_DepthDuration_HTML.html#418,418,1364,625,1364,768,8-29-2022,6-42-11,127,depth_duration_stimuli/002630_2014-06-24_14-47-50_094959634447_rgbf000055-resize_1/002630_2014-06-24_14-47-50_094959634447_rgbf000055-resize_1-target.png,125,3.0095,6.0,4000,117,meters,jsons/VE125_randls_37.json,1378183,2350542,47,Woman
127,513267,DepthScenes,duration_manipulation_targetAtFixation,jsons/VE125_randls_37.json,http://54.235.29.9/FacialAge/BNav_EC2/DepthDuration/v2_depth_duration_MTurk/v2_DepthDuration_HTML.html#418,418,1364,625,1364,768,8-29-2022,6-42-11,128,depth_duration_stimuli/002758_2014-06-22_19-11-20_094959634447_rgbf000128-resize_1/002758_2014-06-22_19-11-20_094959634447_rgbf000128-resize_1-target.png,125,2.555,2.0,18948,139,meters,jsons/VE125_randls_37.json,1378183,2350542,47,Woman
128,513267,DepthScenes,duration_manipulation_targetAtFixation,jsons/VE125_randls_37.json,http://54.235.29.9/FacialAge/BNav_EC2/DepthDuration/v2_depth_duration_MTurk/v2_DepthDuration_HTML.html#418,418,1364,625,1364,768,8-29-2022,6-42-11,129,depth_duration_stimuli/001110_2014-06-15_17-25-28_260595134347_rgbf000150-resize_1/001110_2014-06-15_17-25-28_260595134347_rgbf000150-resize_1-target.png,125,1.7115,4.0,5235,119,meters,jsons/VE125_randls_37.json,1378183,2350542,47,Woman
129,513267,DepthScenes,duration_manipulation_targetAtFixation,jsons/VE125_randls_37.json,http://54.235.29.9/FacialAge/BNav_EC2/DepthDuration/v2_depth_duration_MTurk/v2_DepthDuration_HTML.html#418,418,1364,625,1364,768,8-29-2022,6-42-11,130,depth_duration_stimuli/000927_2014-06-09_16-32-30_260595134347_rgbf000123-resize_3/000927_2014-06-09_16-32-30_260595134347_rgbf000123-resize_3-target.png,125,2.6785,0.0,3813,119,meters,jsons/VE125_randls_37.json,1378183,2350542,47,Woman
130,513267,DepthScenes,duration_manipulation_targetAtFixation,jsons/VE125_randls_37.json,http://54.235.29.9/FacialAge/BNav_EC2/DepthDuration/v2_depth_duration_MTurk/v2_DepthDuration_HTML.html#418,418,1364,625,1364,768,8-29-2022,6-42-11,131,depth_duration_stimuli/000470_2014-06-09_19-42-40_260595134347_rgbf000094-resize_1/000470_2014-06-09_19-42-40_260595134347_rgbf000094-resize_1-target.png,125,1.831,2.0,4728,141,meters,jsons/VE125_randls_37.json,1378183,2350542,47,Woman
131,513267,DepthScenes,duration_manipulation_targetAtFixation,jsons/VE125_randls_37.json,http://54.235.29.9/FacialAge/BNav_EC2/DepthDuration/v2_depth_duration_MTurk/v2_DepthDuration_HTML.html#418,418,1364,625,1364,768,8-29-2022,6-42-11,132,depth_duration_stimuli/000109_2014-05-14_23-41-52_260595134347_rgbf000035-resize_9/000109_2014-05-14_23-41-52_260595134347_rgbf000035-resize_9-target.png,125,1.3545,2.0,3980,124,meters,jsons/VE125_randls_37.json,1378183,2350542,47,Woman
132,513267,DepthScenes,duration_manipulation_targetAtFixation,jsons/VE125_randls_37.json,http://54.235.29.9/FacialAge/BNav_EC2/DepthDuration/v2_depth_duration_MTurk/v2_DepthDuration_HTML.html#418,418,1364,625,1364,768,8-29-2022,6-42-11,133,depth_duration_stimuli/003492_2014-05-21_15-50-55_094959634447_rgbf000828-resize_1/003492_2014-05-21_15-50-55_094959634447_rgbf000828-resize_1-target.png,125,4.06875,5.0,5448,123,meters,jsons/VE125_randls_37.json,1378183,2350542,47,Woman
133,513267,DepthScenes,duration_manipulation_targetAtFixation,jsons/VE125_randls_37.json,http://54.235.29.9/FacialAge/BNav_EC2/DepthDuration/v2_depth_duration_MTurk/v2_DepthDuration_HTML.html#418,418,1364,625,1364,768,8-29-2022,6-42-11,134,depth_duration_stimuli/002568_2014-06-24_13-59-21_094959634447_rgbf000062-resize_4/002568_2014-06-24_13-59-21_094959634447_rgbf000062-resize_4-target.png,125,3.015,3.0,13846,124,meters,jsons/VE125_randls_37.json,1378183,2350542,47,Woman
134,513267,DepthScenes,duration_manipulation_targetAtFixation,jsons/VE125_randls_37.json,http://54.235.29.9/FacialAge/BNav_EC2/DepthDuration/v2_depth_duration_MTurk/v2_DepthDuration_HTML.html#418,418,1364,625,1364,768,8-29-2022,6-42-11,135,depth_duration_stimuli/002072_2014-06-24_21-48-06_260595134347_rgbf000115-resize_0/002072_2014-06-24_21-48-06_260595134347_rgbf000115-resize-original.jpg,125,4.702,0.0,6506,108,meters,jsons/VE125_randls_37.json,1378183,2350542,47,Woman
135,513267,DepthScenes,duration_manipulation_targetAtFixation,jsons/VE125_randls_37.json,http://54.235.29.9/FacialAge/BNav_EC2/DepthDuration/v2_depth_duration_MTurk/v2_DepthDuration_HTML.html#418,418,1364,625,1364,768,8-29-2022,6-42-11,136,depth_duration_stimuli/000692_2014-06-08_13-09-42_260595134347_rgbf000199-resize_2/000692_2014-06-08_13-09-42_260595134347_rgbf000199-resize_2-target.png,125,3.661,4.0,7523,125,meters,jsons/VE125_randls_37.json,1378183,2350542,47,Woman
136,513267,DepthScenes,duration_manipulation_targetAtFixation,jsons/VE125_randls_37.json,http://54.235.29.9/FacialAge/BNav_EC2/DepthDuration/v2_depth_duration_MTurk/v2_DepthDuration_HTML.html#418,418,1364,625,1364,768,8-29-2022,6-42-11,137,depth_duration_stimuli/001094_2014-06-15_17-36-00_260595134347_rgbf000205-resize_0/001094_2014-06-15_17-36-00_260595134347_rgbf000205-resize_0-target.png,125,4.2175,0.0,13031,122,meters,jsons/VE125_randls_37.json,1378183,2350542,47,Woman
137,513267,DepthScenes,duration_manipulation_targetAtFixation,jsons/VE125_randls_37.json,http://54.235.29.9/FacialAge/BNav_EC2/DepthDuration/v2_depth_duration_MTurk/v2_DepthDuration_HTML.html#418,418,1364,625,1364,768,8-29-2022,6-42-11,138,depth_duration_stimuli/001164_2014-06-17_15-35-46_260595134347_rgbf000085-resize_3/001164_2014-06-17_15-35-46_260595134347_rgbf000085-resize_3-target.png,125,2.354,5.0,8672,123,meters,jsons/VE125_randls_37.json,1378183,2350542,47,Woman
138,513267,DepthScenes,duration_manipulation_targetAtFixation,jsons/VE125_randls_37.json,http://54.235.29.9/FacialAge/BNav_EC2/DepthDuration/v2_depth_duration_MTurk/v2_DepthDuration_HTML.html#418,418,1364,625,1364,768,8-29-2022,6-42-11,139,depth_duration_stimuli/001136_2014-06-17_15-19-41_260595134347_rgbf000076-resize_3/001136_2014-06-17_15-19-41_260595134347_rgbf000076-resize_3-target.png,125,1.8655,7.0,4390,125,meters,jsons/VE125_randls_37.json,1378183,2350542,47,Woman
139,513267,DepthScenes,duration_manipulation_targetAtFixation,jsons/VE125_randls_37.json,http://54.235.29.9/FacialAge/BNav_EC2/DepthDuration/v2_depth_duration_MTurk/v2_DepthDuration_HTML.html#418,418,1364,625,1364,768,8-29-2022,6-42-11,140,depth_duration_stimuli/002725_2014-06-22_11-47-51_094959634447_rgbf000070-resize_1/002725_2014-06-22_11-47-51_094959634447_rgbf000070-resize_1-target.png,125,2.195,5.0,4562,125,meters,jsons/VE125_randls_37.json,1378183,2350542,47,Woman
140,513267,DepthScenes,duration_manipulation_targetAtFixation,jsons/VE125_randls_37.json,http://54.235.29.9/FacialAge/BNav_EC2/DepthDuration/v2_depth_duration_MTurk/v2_DepthDuration_HTML.html#418,418,1364,625,1364,768,8-29-2022,6-42-11,141,depth_duration_stimuli/002344_2014-06-28_20-06-29_260595134347_rgbf000030-resize_1/002344_2014-06-28_20-06-29_260595134347_rgbf000030-resize_1-target.png,125,1.5795,0.0,3734,125,meters,jsons/VE125_randls_37.json,1378183,2350542,47,Woman
141,513267,DepthScenes,duration_manipulation_targetAtFixation,jsons/VE125_randls_37.json,http://54.235.29.9/FacialAge/BNav_EC2/DepthDuration/v2_depth_duration_MTurk/v2_DepthDuration_HTML.html#418,418,1364,625,1364,768,8-29-2022,6-42-11,142,depth_duration_stimuli/000929_2014-06-09_16-33-19_260595134347_rgbf000139-resize_0/000929_2014-06-09_16-33-19_260595134347_rgbf000139-resize_0-target.png,125,2.8680000000000003,3.0,5406,113,meters,jsons/VE125_randls_37.json,1378183,2350542,47,Woman
142,513267,DepthScenes,duration_manipulation_targetAtFixation,jsons/VE125_randls_37.json,http://54.235.29.9/FacialAge/BNav_EC2/DepthDuration/v2_depth_duration_MTurk/v2_DepthDuration_HTML.html#418,418,1364,625,1364,768,8-29-2022,6-42-11,143,depth_duration_stimuli/000457_2014-06-08_16-52-43_260595134347_rgbf000199-resize_1/000457_2014-06-08_16-52-43_260595134347_rgbf000199-resize_1-target.png,125,3.6489999999999996,0.0,28558,111,meters,jsons/VE125_randls_37.json,1378183,2350542,47,Woman
143,513267,DepthScenes,duration_manipulation_targetAtFixation,jsons/VE125_randls_37.json,http://54.235.29.9/FacialAge/BNav_EC2/DepthDuration/v2_depth_duration_MTurk/v2_DepthDuration_HTML.html#418,418,1364,625,1364,768,8-29-2022,6-42-11,144,depth_duration_stimuli/002445_2014-06-28_20-32-16_260595134347_rgbf000029-resize_4/002445_2014-06-28_20-32-16_260595134347_rgbf000029-resize_4-target.png,125,2.5315,2.0,6908,124,meters,jsons/VE125_randls_37.json,1378183,2350542,47,Woman
144,513267,DepthScenes,duration_manipulation_targetAtFixation,jsons/VE125_randls_37.json,http://54.235.29.9/FacialAge/BNav_EC2/DepthDuration/v2_depth_duration_MTurk/v2_DepthDuration_HTML.html#418,418,1364,625,1364,768,8-29-2022,6-42-11,145,depth_duration_stimuli/000780_2014-06-08_22-28-29_260595134347_rgbf000126-resize_1/000780_2014-06-08_22-28-29_260595134347_rgbf000126-resize_1-target.png,125,3.3825,0.0,5518,126,meters,jsons/VE125_randls_37.json,1378183,2350542,47,Woman
145,513267,DepthScenes,duration_manipulation_targetAtFixation,jsons/VE125_randls_37.json,http://54.235.29.9/FacialAge/BNav_EC2/DepthDuration/v2_depth_duration_MTurk/v2_DepthDuration_HTML.html#418,418,1364,625,1364,768,8-29-2022,6-42-11,146,depth_duration_stimuli/001498_2014-06-19_17-45-14_260595134347_rgbf000129-resize_4/001498_2014-06-19_17-45-14_260595134347_rgbf000129-resize-original.jpg,125,1.4075,0.0,6849,125,meters,jsons/VE125_randls_37.json,1378183,2350542,47,Woman
146,513267,DepthScenes,duration_manipulation_targetAtFixation,jsons/VE125_randls_37.json,http://54.235.29.9/FacialAge/BNav_EC2/DepthDuration/v2_depth_duration_MTurk/v2_DepthDuration_HTML.html#418,418,1364,625,1364,768,8-29-2022,6-42-11,147,depth_duration_stimuli/001175_2014-06-17_15-45-55_260595134347_rgbf000129-resize_4/001175_2014-06-17_15-45-55_260595134347_rgbf000129-resize_4-target.png,125,4.255,4.0,8813,141,meters,jsons/VE125_randls_37.json,1378183,2350542,47,Woman
147,513267,DepthScenes,duration_manipulation_targetAtFixation,jsons/VE125_randls_37.json,http://54.235.29.9/FacialAge/BNav_EC2/DepthDuration/v2_depth_duration_MTurk/v2_DepthDuration_HTML.html#418,418,1364,625,1364,768,8-29-2022,6-42-11,148,depth_duration_stimuli/003490_2014-05-21_15-50-11_094959634447_rgbf000101-resize_3/003490_2014-05-21_15-50-11_094959634447_rgbf000101-resize_3-target.png,125,3.6445,0.0,4406,96,meters,jsons/VE125_randls_37.json,1378183,2350542,47,Woman
148,513267,DepthScenes,duration_manipulation_targetAtFixation,jsons/VE125_randls_37.json,http://54.235.29.9/FacialAge/BNav_EC2/DepthDuration/v2_depth_duration_MTurk/v2_DepthDuration_HTML.html#418,418,1364,625,1364,768,8-29-2022,6-42-11,149,depth_duration_stimuli/003070_2014-06-15_14-58-27_094959634447_rgbf000150-resize_3/003070_2014-06-15_14-58-27_094959634447_rgbf000150-resize_3-target.png,125,2.9415,0.0,17937,127,meters,jsons/VE125_randls_37.json,1378183,2350542,47,Woman
149,513267,DepthScenes,duration_manipulation_targetAtFixation,jsons/VE125_randls_37.json,http://54.235.29.9/FacialAge/BNav_EC2/DepthDuration/v2_depth_duration_MTurk/v2_DepthDuration_HTML.html#418,418,1364,625,1364,768,8-29-2022,6-42-11,150,depth_duration_stimuli/000943_2014-06-09_19-31-07_260595134347_rgbf000128-resize_1/000943_2014-06-09_19-31-07_260595134347_rgbf000128-resize_1-target.png,125,1.9765,6.0,4110,124,meters,jsons/VE125_randls_37.json,1378183,2350542,47,Woman
150,513267,DepthScenes,duration_manipulation_targetAtFixation,jsons/VE125_randls_37.json,http://54.235.29.9/FacialAge/BNav_EC2/DepthDuration/v2_depth_duration_MTurk/v2_DepthDuration_HTML.html#418,418,1364,625,1364,768,8-29-2022,6-42-11,151,depth_duration_stimuli/001133_2014-06-17_14-49-16_260595134347_rgbf000100-resize_0/001133_2014-06-17_14-49-16_260595134347_rgbf000100-resize_0-target.png,125,4.2115,2.0,6199,126,meters,jsons/VE125_randls_37.json,1378183,2350542,47,Woman
151,513267,DepthScenes,duration_manipulation_targetAtFixation,jsons/VE125_randls_37.json,http://54.235.29.9/FacialAge/BNav_EC2/DepthDuration/v2_depth_duration_MTurk/v2_DepthDuration_HTML.html#418,418,1364,625,1364,768,8-29-2022,6-42-11,152,depth_duration_stimuli/001132_2014-06-17_14-48-54_260595134347_rgbf000100-resize_2/001132_2014-06-17_14-48-54_260595134347_rgbf000100-resize_2-target.png,125,3.753,2.0,15031,126,meters,jsons/VE125_randls_37.json,1378183,2350542,47,Woman
152,513267,DepthScenes,duration_manipulation_targetAtFixation,jsons/VE125_randls_37.json,http://54.235.29.9/FacialAge/BNav_EC2/DepthDuration/v2_depth_duration_MTurk/v2_DepthDuration_HTML.html#418,418,1364,625,1364,768,8-29-2022,6-42-11,153,depth_duration_stimuli/001810_2014-06-26_20-51-35_260595134347_rgbf000040-resize_3/001810_2014-06-26_20-51-35_260595134347_rgbf000040-resize_3-target.png,125,2.2525,3.0,5688,121,meters,jsons/VE125_randls_37.json,1378183,2350542,47,Woman
153,513267,DepthScenes,duration_manipulation_targetAtFixation,jsons/VE125_randls_37.json,http://54.235.29.9/FacialAge/BNav_EC2/DepthDuration/v2_depth_duration_MTurk/v2_DepthDuration_HTML.html#418,418,1364,625,1364,768,8-29-2022,6-42-11,154,depth_duration_stimuli/003010_2014-06-15_12-54-35_094959634447_rgbf000112-resize_0/003010_2014-06-15_12-54-35_094959634447_rgbf000112-resize_0-target.png,125,3.1185,4.0,4194,110,meters,jsons/VE125_randls_37.json,1378183,2350542,47,Woman
154,513267,DepthScenes,duration_manipulation_targetAtFixation,jsons/VE125_randls_37.json,http://54.235.29.9/FacialAge/BNav_EC2/DepthDuration/v2_depth_duration_MTurk/v2_DepthDuration_HTML.html#418,418,1364,625,1364,768,8-29-2022,6-42-11,155,depth_duration_stimuli/000642_2014-06-08_16-59-25_260595134347_rgbf000098-resize_2/000642_2014-06-08_16-59-25_260595134347_rgbf000098-resize_2-target.png,125,2.8815,3.0,4771,110,meters,jsons/VE125_randls_37.json,1378183,2350542,47,Woman
155,513267,DepthScenes,duration_manipulation_targetAtFixation,jsons/VE125_randls_37.json,http://54.235.29.9/FacialAge/BNav_EC2/DepthDuration/v2_depth_duration_MTurk/v2_DepthDuration_HTML.html#418,418,1364,625,1364,768,8-29-2022,6-42-11,156,depth_duration_stimuli/002425_2014-06-28_20-27-29_260595134347_rgbf000031-resize_8/002425_2014-06-28_20-27-29_260595134347_rgbf000031-resize_8-target.png,125,3.8960000000000004,0.0,3360,117,meters,jsons/VE125_randls_37.json,1378183,2350542,47,Woman
156,513267,DepthScenes,duration_manipulation_targetAtFixation,jsons/VE125_randls_37.json,http://54.235.29.9/FacialAge/BNav_EC2/DepthDuration/v2_depth_duration_MTurk/v2_DepthDuration_HTML.html#418,418,1364,625,1364,768,8-29-2022,6-42-11,157,depth_duration_stimuli/002905_2014-06-03_18-04-43_094959634447_rgbf000151-resize_2/002905_2014-06-03_18-04-43_094959634447_rgbf000151-resize_2-target.png,125,2.0295,3.0,5055,124,meters,jsons/VE125_randls_37.json,1378183,2350542,47,Woman
157,513267,DepthScenes,duration_manipulation_targetAtFixation,jsons/VE125_randls_37.json,http://54.235.29.9/FacialAge/BNav_EC2/DepthDuration/v2_depth_duration_MTurk/v2_DepthDuration_HTML.html#418,418,1364,625,1364,768,8-29-2022,6-42-11,158,depth_duration_stimuli/003423_2014-05-21_10-23-26_094959634447_rgbf002665-resize_2/003423_2014-05-21_10-23-26_094959634447_rgbf002665-resize_2-target.png,125,3.2575,0.0,2794,125,meters,jsons/VE125_randls_37.json,1378183,2350542,47,Woman
158,513267,DepthScenes,duration_manipulation_targetAtFixation,jsons/VE125_randls_37.json,http://54.235.29.9/FacialAge/BNav_EC2/DepthDuration/v2_depth_duration_MTurk/v2_DepthDuration_HTML.html#418,418,1364,625,1364,768,8-29-2022,6-42-11,159,depth_duration_stimuli/001056_2014-06-08_18-46-44_260595134347_rgbf000068-resize_0/001056_2014-06-08_18-46-44_260595134347_rgbf000068-resize_0-target.png,125,2.6625,4.0,3473,102,meters,jsons/VE125_randls_37.json,1378183,2350542,47,Woman
159,513267,DepthScenes,duration_manipulation_targetAtFixation,jsons/VE125_randls_37.json,http://54.235.29.9/FacialAge/BNav_EC2/DepthDuration/v2_depth_duration_MTurk/v2_DepthDuration_HTML.html#418,418,1364,625,1364,768,8-29-2022,6-42-11,160,depth_duration_stimuli/002199_2014-06-28_18-33-56_260595134347_rgbf000074-resize_0/002199_2014-06-28_18-33-56_260595134347_rgbf000074-resize_0-target.png,125,1.996,0.0,3798,123,meters,jsons/VE125_randls_37.json,1378183,2350542,47,Woman
160,513267,DepthScenes,duration_manipulation_targetAtFixation,jsons/VE125_randls_37.json,http://54.235.29.9/FacialAge/BNav_EC2/DepthDuration/v2_depth_duration_MTurk/v2_DepthDuration_HTML.html#418,418,1364,625,1364,768,8-29-2022,6-42-11,161,depth_duration_stimuli/002043_2014-06-24_20-29-38_260595134347_rgbf000039-resize_4/002043_2014-06-24_20-29-38_260595134347_rgbf000039-resize_4-target.png,125,2.8435,2.0,5922,111,meters,jsons/VE125_randls_37.json,1378183,2350542,47,Woman
161,513267,DepthScenes,duration_manipulation_targetAtFixation,jsons/VE125_randls_37.json,http://54.235.29.9/FacialAge/BNav_EC2/DepthDuration/v2_depth_duration_MTurk/v2_DepthDuration_HTML.html#418,418,1364,625,1364,768,8-29-2022,6-42-11,162,depth_duration_stimuli/003048_2014-06-15_13-49-43_094959634447_rgbf000150-resize_1/003048_2014-06-15_13-49-43_094959634447_rgbf000150-resize_1-target.png,125,4.0035,0.0,22199,112,meters,jsons/VE125_randls_37.json,1378183,2350542,47,Woman
162,513267,DepthScenes,duration_manipulation_targetAtFixation,jsons/VE125_randls_37.json,http://54.235.29.9/FacialAge/BNav_EC2/DepthDuration/v2_depth_duration_MTurk/v2_DepthDuration_HTML.html#418,418,1364,625,1364,768,8-29-2022,6-42-11,163,depth_duration_stimuli/000493_2014-06-09_21-01-18_260595134347_rgbf000196-resize_3/000493_2014-06-09_21-01-18_260595134347_rgbf000196-resize_3-target.png,125,3.44,3.0,6968,124,meters,jsons/VE125_randls_37.json,1378183,2350542,47,Woman
163,513267,DepthScenes,duration_manipulation_targetAtFixation,jsons/VE125_randls_37.json,http://54.235.29.9/FacialAge/BNav_EC2/DepthDuration/v2_depth_duration_MTurk/v2_DepthDuration_HTML.html#418,418,1364,625,1364,768,8-29-2022,6-42-11,164,depth_duration_stimuli/000191_2014-05-12_17-07-38_260595134347_rgbf000199-resize_0/000191_2014-05-12_17-07-38_260595134347_rgbf000199-resize_0-target.png,125,3.7995,3.0,33409,120,meters,jsons/VE125_randls_37.json,1378183,2350542,47,Woman
