,subjID,experimentName,versionName,sequenceName,url,selected_row,windowWidth,windowHeight,screenWidth,screenHeight,startDate,startTime,trial,stimulus,duration,actual_depth,depth_estimate,trial_RT,log_sceneDuration,unitSelection,seq_filepath,experimentTime,totalTime,age,gender
0,515034,DepthScenes,duration_manipulation_targetAtFixation,jsons/VE125_randls_63.json,http://54.235.29.9/FacialAge/BNav_EC2/DepthDuration/v2_depth_duration_MTurk/v2_DepthDuration_HTML.html#24,24,2560,1440,2560,1440,8-21-2022,10-4-24,1,depth_duration_stimuli/003292_2014-05-14_21-53-49_094959634447_rgbf000100-resize_2/003292_2014-05-14_21-53-49_094959634447_rgbf000100-resize_2-target.png,125,3.4815,6,3373,123,feet,jsons/VE125_randls_63.json,425093,588177,25,trangender woman
1,515034,DepthScenes,duration_manipulation_targetAtFixation,jsons/VE125_randls_63.json,http://54.235.29.9/FacialAge/BNav_EC2/DepthDuration/v2_depth_duration_MTurk/v2_DepthDuration_HTML.html#24,24,2560,1440,2560,1440,8-21-2022,10-4-24,2,depth_duration_stimuli/002639_2014-06-24_14-51-37_094959634447_rgbf000074-resize_4/002639_2014-06-24_14-51-37_094959634447_rgbf000074-resize_4-target.png,125,4.0375,10,3896,124,feet,jsons/VE125_randls_63.json,425093,588177,25,trangender woman
2,515034,DepthScenes,duration_manipulation_targetAtFixation,jsons/VE125_randls_63.json,http://54.235.29.9/FacialAge/BNav_EC2/DepthDuration/v2_depth_duration_MTurk/v2_DepthDuration_HTML.html#24,24,2560,1440,2560,1440,8-21-2022,10-4-24,3,depth_duration_stimuli/000739_2014-06-08_18-45-58_260595134347_rgbf000068-resize_1/000739_2014-06-08_18-45-58_260595134347_rgbf000068-resize_1-target.png,125,3.534,6,2985,123,feet,jsons/VE125_randls_63.json,425093,588177,25,trangender woman
3,515034,DepthScenes,duration_manipulation_targetAtFixation,jsons/VE125_randls_63.json,http://54.235.29.9/FacialAge/BNav_EC2/DepthDuration/v2_depth_duration_MTurk/v2_DepthDuration_HTML.html#24,24,2560,1440,2560,1440,8-21-2022,10-4-24,4,depth_duration_stimuli/000734_2014-06-08_17-39-11_260595134347_rgbf000128-resize_2/000734_2014-06-08_17-39-11_260595134347_rgbf000128-resize_2-target.png,125,4.098,9,3170,123,feet,jsons/VE125_randls_63.json,425093,588177,25,trangender woman
4,515034,DepthScenes,duration_manipulation_targetAtFixation,jsons/VE125_randls_63.json,http://54.235.29.9/FacialAge/BNav_EC2/DepthDuration/v2_depth_duration_MTurk/v2_DepthDuration_HTML.html#24,24,2560,1440,2560,1440,8-21-2022,10-4-24,5,depth_duration_stimuli/002445_2014-06-28_20-32-16_260595134347_rgbf000029-resize_4/002445_2014-06-28_20-32-16_260595134347_rgbf000029-resize_4-target.png,125,2.5315,3,2705,124,feet,jsons/VE125_randls_63.json,425093,588177,25,trangender woman
5,515034,DepthScenes,duration_manipulation_targetAtFixation,jsons/VE125_randls_63.json,http://54.235.29.9/FacialAge/BNav_EC2/DepthDuration/v2_depth_duration_MTurk/v2_DepthDuration_HTML.html#24,24,2560,1440,2560,1440,8-21-2022,10-4-24,6,depth_duration_stimuli/000780_2014-06-08_22-28-29_260595134347_rgbf000126-resize_1/000780_2014-06-08_22-28-29_260595134347_rgbf000126-resize_1-target.png,125,3.3825,5,3402,124,feet,jsons/VE125_randls_63.json,425093,588177,25,trangender woman
6,515034,DepthScenes,duration_manipulation_targetAtFixation,jsons/VE125_randls_63.json,http://54.235.29.9/FacialAge/BNav_EC2/DepthDuration/v2_depth_duration_MTurk/v2_DepthDuration_HTML.html#24,24,2560,1440,2560,1440,8-21-2022,10-4-24,7,depth_duration_stimuli/002988_2014-06-15_12-24-20_094959634447_rgbf000150-resize_1/002988_2014-06-15_12-24-20_094959634447_rgbf000150-resize_1-target.png,125,4.7669999999999995,8,3842,123,feet,jsons/VE125_randls_63.json,425093,588177,25,trangender woman
7,515034,DepthScenes,duration_manipulation_targetAtFixation,jsons/VE125_randls_63.json,http://54.235.29.9/FacialAge/BNav_EC2/DepthDuration/v2_depth_duration_MTurk/v2_DepthDuration_HTML.html#24,24,2560,1440,2560,1440,8-21-2022,10-4-24,8,depth_duration_stimuli/001052_2014-06-08_18-24-54_260595134347_rgbf000130-resize_1/001052_2014-06-08_18-24-54_260595134347_rgbf000130-resize_1-target.png,125,4.1045,3,4934,122,feet,jsons/VE125_randls_63.json,425093,588177,25,trangender woman
8,515034,DepthScenes,duration_manipulation_targetAtFixation,jsons/VE125_randls_63.json,http://54.235.29.9/FacialAge/BNav_EC2/DepthDuration/v2_depth_duration_MTurk/v2_DepthDuration_HTML.html#24,24,2560,1440,2560,1440,8-21-2022,10-4-24,9,depth_duration_stimuli/001029_2014-06-08_13-17-57_260595134347_rgbf000065-resize_1/001029_2014-06-08_13-17-57_260595134347_rgbf000065-resize_1-target.png,125,3.0835,5,1896,123,feet,jsons/VE125_randls_63.json,425093,588177,25,trangender woman
9,515034,DepthScenes,duration_manipulation_targetAtFixation,jsons/VE125_randls_63.json,http://54.235.29.9/FacialAge/BNav_EC2/DepthDuration/v2_depth_duration_MTurk/v2_DepthDuration_HTML.html#24,24,2560,1440,2560,1440,8-21-2022,10-4-24,10,depth_duration_stimuli/000677_2014-06-08_23-10-32_260595134347_rgbf000158-resize_6/000677_2014-06-08_23-10-32_260595134347_rgbf000158-resize_6-target.png,125,3.556,5,1600,124,feet,jsons/VE125_randls_63.json,425093,588177,25,trangender woman
10,515034,DepthScenes,duration_manipulation_targetAtFixation,jsons/VE125_randls_63.json,http://54.235.29.9/FacialAge/BNav_EC2/DepthDuration/v2_depth_duration_MTurk/v2_DepthDuration_HTML.html#24,24,2560,1440,2560,1440,8-21-2022,10-4-24,11,depth_duration_stimuli/003492_2014-05-21_15-50-55_094959634447_rgbf000828-resize_1/003492_2014-05-21_15-50-55_094959634447_rgbf000828-resize_1-target.png,125,4.06875,9,2598,139,feet,jsons/VE125_randls_63.json,425093,588177,25,trangender woman
11,515034,DepthScenes,duration_manipulation_targetAtFixation,jsons/VE125_randls_63.json,http://54.235.29.9/FacialAge/BNav_EC2/DepthDuration/v2_depth_duration_MTurk/v2_DepthDuration_HTML.html#24,24,2560,1440,2560,1440,8-21-2022,10-4-24,12,depth_duration_stimuli/002568_2014-06-24_13-59-21_094959634447_rgbf000062-resize_4/002568_2014-06-24_13-59-21_094959634447_rgbf000062-resize_4-target.png,125,3.015,5,2020,124,feet,jsons/VE125_randls_63.json,425093,588177,25,trangender woman
12,515034,DepthScenes,duration_manipulation_targetAtFixation,jsons/VE125_randls_63.json,http://54.235.29.9/FacialAge/BNav_EC2/DepthDuration/v2_depth_duration_MTurk/v2_DepthDuration_HTML.html#24,24,2560,1440,2560,1440,8-21-2022,10-4-24,13,depth_duration_stimuli/000569_2014-06-09_22-51-47_260595134347_rgbf000141-resize_3/000569_2014-06-09_22-51-47_260595134347_rgbf000141-resize-original.jpg,125,4.512,0,2136,124,feet,jsons/VE125_randls_63.json,425093,588177,25,trangender woman
13,515034,DepthScenes,duration_manipulation_targetAtFixation,jsons/VE125_randls_63.json,http://54.235.29.9/FacialAge/BNav_EC2/DepthDuration/v2_depth_duration_MTurk/v2_DepthDuration_HTML.html#24,24,2560,1440,2560,1440,8-21-2022,10-4-24,14,depth_duration_stimuli/000929_2014-06-09_16-33-19_260595134347_rgbf000139-resize_0/000929_2014-06-09_16-33-19_260595134347_rgbf000139-resize_0-target.png,125,2.8680000000000003,7,3754,122,feet,jsons/VE125_randls_63.json,425093,588177,25,trangender woman
14,515034,DepthScenes,duration_manipulation_targetAtFixation,jsons/VE125_randls_63.json,http://54.235.29.9/FacialAge/BNav_EC2/DepthDuration/v2_depth_duration_MTurk/v2_DepthDuration_HTML.html#24,24,2560,1440,2560,1440,8-21-2022,10-4-24,15,depth_duration_stimuli/000457_2014-06-08_16-52-43_260595134347_rgbf000199-resize_1/000457_2014-06-08_16-52-43_260595134347_rgbf000199-resize_1-target.png,125,3.6489999999999996,5,2560,123,feet,jsons/VE125_randls_63.json,425093,588177,25,trangender woman
15,515034,DepthScenes,duration_manipulation_targetAtFixation,jsons/VE125_randls_63.json,http://54.235.29.9/FacialAge/BNav_EC2/DepthDuration/v2_depth_duration_MTurk/v2_DepthDuration_HTML.html#24,24,2560,1440,2560,1440,8-21-2022,10-4-24,16,depth_duration_stimuli/000469_2014-06-09_19-42-10_260595134347_rgbf000081-resize_1/000469_2014-06-09_19-42-10_260595134347_rgbf000081-resize_1-target.png,125,1.652,4,2910,123,feet,jsons/VE125_randls_63.json,425093,588177,25,trangender woman
16,515034,DepthScenes,duration_manipulation_targetAtFixation,jsons/VE125_randls_63.json,http://54.235.29.9/FacialAge/BNav_EC2/DepthDuration/v2_depth_duration_MTurk/v2_DepthDuration_HTML.html#24,24,2560,1440,2560,1440,8-21-2022,10-4-24,17,depth_duration_stimuli/000483_2014-06-09_20-41-45_260595134347_rgbf000116-resize_4/000483_2014-06-09_20-41-45_260595134347_rgbf000116-resize_4-target.png,125,1.337,3,1771,123,feet,jsons/VE125_randls_63.json,425093,588177,25,trangender woman
17,515034,DepthScenes,duration_manipulation_targetAtFixation,jsons/VE125_randls_63.json,http://54.235.29.9/FacialAge/BNav_EC2/DepthDuration/v2_depth_duration_MTurk/v2_DepthDuration_HTML.html#24,24,2560,1440,2560,1440,8-21-2022,10-4-24,18,depth_duration_stimuli/002964_2014-06-08_17-46-11_094959634447_rgbf000091-resize_4/002964_2014-06-08_17-46-11_094959634447_rgbf000091-resize_4-target.png,125,1.6909999999999998,3,2371,123,feet,jsons/VE125_randls_63.json,425093,588177,25,trangender woman
18,515034,DepthScenes,duration_manipulation_targetAtFixation,jsons/VE125_randls_63.json,http://54.235.29.9/FacialAge/BNav_EC2/DepthDuration/v2_depth_duration_MTurk/v2_DepthDuration_HTML.html#24,24,2560,1440,2560,1440,8-21-2022,10-4-24,19,depth_duration_stimuli/002136_2014-06-25_21-18-03_260595134347_rgbf000109-resize_3/002136_2014-06-25_21-18-03_260595134347_rgbf000109-resize_3-target.png,125,1.9569999999999999,3,2898,139,feet,jsons/VE125_randls_63.json,425093,588177,25,trangender woman
19,515034,DepthScenes,duration_manipulation_targetAtFixation,jsons/VE125_randls_63.json,http://54.235.29.9/FacialAge/BNav_EC2/DepthDuration/v2_depth_duration_MTurk/v2_DepthDuration_HTML.html#24,24,2560,1440,2560,1440,8-21-2022,10-4-24,20,depth_duration_stimuli/000506_2014-06-08_23-21-00_260595134347_rgbf000070-resize_7/000506_2014-06-08_23-21-00_260595134347_rgbf000070-resize_7-target.png,125,4.0585,0,4023,124,feet,jsons/VE125_randls_63.json,425093,588177,25,trangender woman
20,515034,DepthScenes,duration_manipulation_targetAtFixation,jsons/VE125_randls_63.json,http://54.235.29.9/FacialAge/BNav_EC2/DepthDuration/v2_depth_duration_MTurk/v2_DepthDuration_HTML.html#24,24,2560,1440,2560,1440,8-21-2022,10-4-24,21,depth_duration_stimuli/003079_2014-06-15_15-18-20_094959634447_rgbf000152-resize_8/003079_2014-06-15_15-18-20_094959634447_rgbf000152-resize_8-target.png,125,2.8775,3,2711,124,feet,jsons/VE125_randls_63.json,425093,588177,25,trangender woman
21,515034,DepthScenes,duration_manipulation_targetAtFixation,jsons/VE125_randls_63.json,http://54.235.29.9/FacialAge/BNav_EC2/DepthDuration/v2_depth_duration_MTurk/v2_DepthDuration_HTML.html#24,24,2560,1440,2560,1440,8-21-2022,10-4-24,22,depth_duration_stimuli/001449_2014-06-19_17-01-27_260595134347_rgbf000116-resize_2/001449_2014-06-19_17-01-27_260595134347_rgbf000116-resize_2-target.png,125,3.452,8,2910,124,feet,jsons/VE125_randls_63.json,425093,588177,25,trangender woman
22,515034,DepthScenes,duration_manipulation_targetAtFixation,jsons/VE125_randls_63.json,http://54.235.29.9/FacialAge/BNav_EC2/DepthDuration/v2_depth_duration_MTurk/v2_DepthDuration_HTML.html#24,24,2560,1440,2560,1440,8-21-2022,10-4-24,23,depth_duration_stimuli/001450_2014-06-19_17-02-03_260595134347_rgbf000203-resize_4/001450_2014-06-19_17-02-03_260595134347_rgbf000203-resize_4-target.png,125,4.0106666666667,9,2018,124,feet,jsons/VE125_randls_63.json,425093,588177,25,trangender woman
23,515034,DepthScenes,duration_manipulation_targetAtFixation,jsons/VE125_randls_63.json,http://54.235.29.9/FacialAge/BNav_EC2/DepthDuration/v2_depth_duration_MTurk/v2_DepthDuration_HTML.html#24,24,2560,1440,2560,1440,8-21-2022,10-4-24,24,depth_duration_stimuli/001016_2014-06-09_16-16-10_260595134347_rgbf000112-resize_5/001016_2014-06-09_16-16-10_260595134347_rgbf000112-resize_5-target.png,125,1.6565,3,1548,123,feet,jsons/VE125_randls_63.json,425093,588177,25,trangender woman
24,515034,DepthScenes,duration_manipulation_targetAtFixation,jsons/VE125_randls_63.json,http://54.235.29.9/FacialAge/BNav_EC2/DepthDuration/v2_depth_duration_MTurk/v2_DepthDuration_HTML.html#24,24,2560,1440,2560,1440,8-21-2022,10-4-24,25,depth_duration_stimuli/002340_2014-06-28_20-05-46_260595134347_rgbf000113-resize_0/002340_2014-06-28_20-05-46_260595134347_rgbf000113-resize_0-target.png,125,2.4735,9,1519,124,feet,jsons/VE125_randls_63.json,425093,588177,25,trangender woman
25,515034,DepthScenes,duration_manipulation_targetAtFixation,jsons/VE125_randls_63.json,http://54.235.29.9/FacialAge/BNav_EC2/DepthDuration/v2_depth_duration_MTurk/v2_DepthDuration_HTML.html#24,24,2560,1440,2560,1440,8-21-2022,10-4-24,26,depth_duration_stimuli/002788_2014-06-22_19-36-03_094959634447_rgbf000088-resize_2/002788_2014-06-22_19-36-03_094959634447_rgbf000088-resize_2-target.png,125,1.6465,6,2128,123,feet,jsons/VE125_randls_63.json,425093,588177,25,trangender woman
26,515034,DepthScenes,duration_manipulation_targetAtFixation,jsons/VE125_randls_63.json,http://54.235.29.9/FacialAge/BNav_EC2/DepthDuration/v2_depth_duration_MTurk/v2_DepthDuration_HTML.html#24,24,2560,1440,2560,1440,8-21-2022,10-4-24,27,depth_duration_stimuli/000749_2014-06-08_21-55-06_260595134347_rgbf000070-resize_2/000749_2014-06-08_21-55-06_260595134347_rgbf000070-resize_2-target.png,125,2.331,5,1687,124,feet,jsons/VE125_randls_63.json,425093,588177,25,trangender woman
27,515034,DepthScenes,duration_manipulation_targetAtFixation,jsons/VE125_randls_63.json,http://54.235.29.9/FacialAge/BNav_EC2/DepthDuration/v2_depth_duration_MTurk/v2_DepthDuration_HTML.html#24,24,2560,1440,2560,1440,8-21-2022,10-4-24,28,depth_duration_stimuli/003534_2014-05-22_15-06-10_094959634447_rgbf000102-resize_4/003534_2014-05-22_15-06-10_094959634447_rgbf000102-resize_4-target.png,125,1.426,3,1394,124,feet,jsons/VE125_randls_63.json,425093,588177,25,trangender woman
28,515034,DepthScenes,duration_manipulation_targetAtFixation,jsons/VE125_randls_63.json,http://54.235.29.9/FacialAge/BNav_EC2/DepthDuration/v2_depth_duration_MTurk/v2_DepthDuration_HTML.html#24,24,2560,1440,2560,1440,8-21-2022,10-4-24,29,depth_duration_stimuli/002637_2014-06-24_14-51-13_094959634447_rgbf000066-resize_4/002637_2014-06-24_14-51-13_094959634447_rgbf000066-resize_4-target.png,125,1.9955,4,2232,123,feet,jsons/VE125_randls_63.json,425093,588177,25,trangender woman
29,515034,DepthScenes,duration_manipulation_targetAtFixation,jsons/VE125_randls_63.json,http://54.235.29.9/FacialAge/BNav_EC2/DepthDuration/v2_depth_duration_MTurk/v2_DepthDuration_HTML.html#24,24,2560,1440,2560,1440,8-21-2022,10-4-24,30,depth_duration_stimuli/000375_2014-06-08_11-17-29_260595134347_rgbf000133-resize_2/000375_2014-06-08_11-17-29_260595134347_rgbf000133-resize-original.jpg,125,4.718,0,3310,139,feet,jsons/VE125_randls_63.json,425093,588177,25,trangender woman
30,515034,DepthScenes,duration_manipulation_targetAtFixation,jsons/VE125_randls_63.json,http://54.235.29.9/FacialAge/BNav_EC2/DepthDuration/v2_depth_duration_MTurk/v2_DepthDuration_HTML.html#24,24,2560,1440,2560,1440,8-21-2022,10-4-24,31,depth_duration_stimuli/001056_2014-06-08_18-46-44_260595134347_rgbf000068-resize_0/001056_2014-06-08_18-46-44_260595134347_rgbf000068-resize_0-target.png,125,2.6625,6,2181,123,feet,jsons/VE125_randls_63.json,425093,588177,25,trangender woman
31,515034,DepthScenes,duration_manipulation_targetAtFixation,jsons/VE125_randls_63.json,http://54.235.29.9/FacialAge/BNav_EC2/DepthDuration/v2_depth_duration_MTurk/v2_DepthDuration_HTML.html#24,24,2560,1440,2560,1440,8-21-2022,10-4-24,32,depth_duration_stimuli/002199_2014-06-28_18-33-56_260595134347_rgbf000074-resize_0/002199_2014-06-28_18-33-56_260595134347_rgbf000074-resize_0-target.png,125,1.996,3,1982,123,feet,jsons/VE125_randls_63.json,425093,588177,25,trangender woman
32,515034,DepthScenes,duration_manipulation_targetAtFixation,jsons/VE125_randls_63.json,http://54.235.29.9/FacialAge/BNav_EC2/DepthDuration/v2_depth_duration_MTurk/v2_DepthDuration_HTML.html#24,24,2560,1440,2560,1440,8-21-2022,10-4-24,33,depth_duration_stimuli/000522_2014-06-08_13-35-06_260595134347_rgbf000244-resize_1/000522_2014-06-08_13-35-06_260595134347_rgbf000244-resize_1-target.png,125,2.3715,2,1470,123,feet,jsons/VE125_randls_63.json,425093,588177,25,trangender woman
33,515034,DepthScenes,duration_manipulation_targetAtFixation,jsons/VE125_randls_63.json,http://54.235.29.9/FacialAge/BNav_EC2/DepthDuration/v2_depth_duration_MTurk/v2_DepthDuration_HTML.html#24,24,2560,1440,2560,1440,8-21-2022,10-4-24,34,depth_duration_stimuli/002949_2014-06-26_15-57-42_094959634447_rgbf000079-resize_1/002949_2014-06-26_15-57-42_094959634447_rgbf000079-resize_1-target.png,125,1.8915,3,1401,123,feet,jsons/VE125_randls_63.json,425093,588177,25,trangender woman
34,515034,DepthScenes,duration_manipulation_targetAtFixation,jsons/VE125_randls_63.json,http://54.235.29.9/FacialAge/BNav_EC2/DepthDuration/v2_depth_duration_MTurk/v2_DepthDuration_HTML.html#24,24,2560,1440,2560,1440,8-21-2022,10-4-24,35,depth_duration_stimuli/001066_2014-06-08_22-03-20_260595134347_rgbf000066-resize_4/001066_2014-06-08_22-03-20_260595134347_rgbf000066-resize_4-target.png,125,4.2330000000000005,9,2136,123,feet,jsons/VE125_randls_63.json,425093,588177,25,trangender woman
35,515034,DepthScenes,duration_manipulation_targetAtFixation,jsons/VE125_randls_63.json,http://54.235.29.9/FacialAge/BNav_EC2/DepthDuration/v2_depth_duration_MTurk/v2_DepthDuration_HTML.html#24,24,2560,1440,2560,1440,8-21-2022,10-4-24,36,depth_duration_stimuli/000742_2014-06-08_18-48-09_260595134347_rgbf000164-resize_4/000742_2014-06-08_18-48-09_260595134347_rgbf000164-resize_4-target.png,125,4.632,3,1279,123,feet,jsons/VE125_randls_63.json,425093,588177,25,trangender woman
36,515034,DepthScenes,duration_manipulation_targetAtFixation,jsons/VE125_randls_63.json,http://54.235.29.9/FacialAge/BNav_EC2/DepthDuration/v2_depth_duration_MTurk/v2_DepthDuration_HTML.html#24,24,2560,1440,2560,1440,8-21-2022,10-4-24,37,depth_duration_stimuli/001011_2014-06-08_23-18-54_260595134347_rgbf000044-resize_4/001011_2014-06-08_23-18-54_260595134347_rgbf000044-resize_4-target.png,125,2.4730000000000003,6,1949,123,feet,jsons/VE125_randls_63.json,425093,588177,25,trangender woman
37,515034,DepthScenes,duration_manipulation_targetAtFixation,jsons/VE125_randls_63.json,http://54.235.29.9/FacialAge/BNav_EC2/DepthDuration/v2_depth_duration_MTurk/v2_DepthDuration_HTML.html#24,24,2560,1440,2560,1440,8-21-2022,10-4-24,38,depth_duration_stimuli/002875_2014-06-01_15-19-00_094959634447_rgbf000151-resize_1/002875_2014-06-01_15-19-00_094959634447_rgbf000151-resize_1-target.png,125,1.9675,3,1764,123,feet,jsons/VE125_randls_63.json,425093,588177,25,trangender woman
38,515034,DepthScenes,duration_manipulation_targetAtFixation,jsons/VE125_randls_63.json,http://54.235.29.9/FacialAge/BNav_EC2/DepthDuration/v2_depth_duration_MTurk/v2_DepthDuration_HTML.html#24,24,2560,1440,2560,1440,8-21-2022,10-4-24,39,depth_duration_stimuli/000692_2014-06-08_13-09-42_260595134347_rgbf000199-resize_2/000692_2014-06-08_13-09-42_260595134347_rgbf000199-resize_2-target.png,125,3.661,5,1708,123,feet,jsons/VE125_randls_63.json,425093,588177,25,trangender woman
39,515034,DepthScenes,duration_manipulation_targetAtFixation,jsons/VE125_randls_63.json,http://54.235.29.9/FacialAge/BNav_EC2/DepthDuration/v2_depth_duration_MTurk/v2_DepthDuration_HTML.html#24,24,2560,1440,2560,1440,8-21-2022,10-4-24,40,depth_duration_stimuli/001094_2014-06-15_17-36-00_260595134347_rgbf000205-resize_0/001094_2014-06-15_17-36-00_260595134347_rgbf000205-resize_0-target.png,125,4.2175,7,2609,124,feet,jsons/VE125_randls_63.json,425093,588177,25,trangender woman
40,515034,DepthScenes,duration_manipulation_targetAtFixation,jsons/VE125_randls_63.json,http://54.235.29.9/FacialAge/BNav_EC2/DepthDuration/v2_depth_duration_MTurk/v2_DepthDuration_HTML.html#24,24,2560,1440,2560,1440,8-21-2022,10-4-24,41,depth_duration_stimuli/000682_2014-06-08_23-14-58_260595134347_rgbf000041-resize_5/000682_2014-06-08_23-14-58_260595134347_rgbf000041-resize_5-target.png,125,2.7239999999999998,4,1337,123,feet,jsons/VE125_randls_63.json,425093,588177,25,trangender woman
41,515034,DepthScenes,duration_manipulation_targetAtFixation,jsons/VE125_randls_63.json,http://54.235.29.9/FacialAge/BNav_EC2/DepthDuration/v2_depth_duration_MTurk/v2_DepthDuration_HTML.html#24,24,2560,1440,2560,1440,8-21-2022,10-4-24,42,depth_duration_stimuli/001650_2014-06-20_12-09-00_260595134347_rgbf000087-resize_3/001650_2014-06-20_12-09-00_260595134347_rgbf000087-resize_3-target.png,125,1.9505,3,1637,123,feet,jsons/VE125_randls_63.json,425093,588177,25,trangender woman
42,515034,DepthScenes,duration_manipulation_targetAtFixation,jsons/VE125_randls_63.json,http://54.235.29.9/FacialAge/BNav_EC2/DepthDuration/v2_depth_duration_MTurk/v2_DepthDuration_HTML.html#24,24,2560,1440,2560,1440,8-21-2022,10-4-24,43,depth_duration_stimuli/002043_2014-06-24_20-29-38_260595134347_rgbf000039-resize_4/002043_2014-06-24_20-29-38_260595134347_rgbf000039-resize_4-target.png,125,2.8435,3,1641,123,feet,jsons/VE125_randls_63.json,425093,588177,25,trangender woman
43,515034,DepthScenes,duration_manipulation_targetAtFixation,jsons/VE125_randls_63.json,http://54.235.29.9/FacialAge/BNav_EC2/DepthDuration/v2_depth_duration_MTurk/v2_DepthDuration_HTML.html#24,24,2560,1440,2560,1440,8-21-2022,10-4-24,44,depth_duration_stimuli/003048_2014-06-15_13-49-43_094959634447_rgbf000150-resize_1/003048_2014-06-15_13-49-43_094959634447_rgbf000150-resize_1-target.png,125,4.0035,7,2144,124,feet,jsons/VE125_randls_63.json,425093,588177,25,trangender woman
44,515034,DepthScenes,duration_manipulation_targetAtFixation,jsons/VE125_randls_63.json,http://54.235.29.9/FacialAge/BNav_EC2/DepthDuration/v2_depth_duration_MTurk/v2_DepthDuration_HTML.html#24,24,2560,1440,2560,1440,8-21-2022,10-4-24,45,depth_duration_stimuli/000787_2014-06-08_22-33-53_260595134347_rgbf000175-resize_1/000787_2014-06-08_22-33-53_260595134347_rgbf000175-resize-original.jpg,125,4.784,0,1614,124,feet,jsons/VE125_randls_63.json,425093,588177,25,trangender woman
45,515034,DepthScenes,duration_manipulation_targetAtFixation,jsons/VE125_randls_63.json,http://54.235.29.9/FacialAge/BNav_EC2/DepthDuration/v2_depth_duration_MTurk/v2_DepthDuration_HTML.html#24,24,2560,1440,2560,1440,8-21-2022,10-4-24,46,depth_duration_stimuli/002549_2014-06-24_13-41-39_094959634447_rgbf000022-resize_3/002549_2014-06-24_13-41-39_094959634447_rgbf000022-resize_3-target.png,125,1.476,3,1911,123,feet,jsons/VE125_randls_63.json,425093,588177,25,trangender woman
46,515034,DepthScenes,duration_manipulation_targetAtFixation,jsons/VE125_randls_63.json,http://54.235.29.9/FacialAge/BNav_EC2/DepthDuration/v2_depth_duration_MTurk/v2_DepthDuration_HTML.html#24,24,2560,1440,2560,1440,8-21-2022,10-4-24,47,depth_duration_stimuli/002750_2014-06-22_19-08-03_094959634447_rgbf000094-resize_4/002750_2014-06-22_19-08-03_094959634447_rgbf000094-resize_4-target.png,125,2.354,2,2912,139,feet,jsons/VE125_randls_63.json,425093,588177,25,trangender woman
47,515034,DepthScenes,duration_manipulation_targetAtFixation,jsons/VE125_randls_63.json,http://54.235.29.9/FacialAge/BNav_EC2/DepthDuration/v2_depth_duration_MTurk/v2_DepthDuration_HTML.html#24,24,2560,1440,2560,1440,8-21-2022,10-4-24,48,depth_duration_stimuli/001808_2014-06-26_20-50-58_260595134347_rgbf000029-resize_1/001808_2014-06-26_20-50-58_260595134347_rgbf000029-resize_1-target.png,125,4.249,7,2096,124,feet,jsons/VE125_randls_63.json,425093,588177,25,trangender woman
48,515034,DepthScenes,duration_manipulation_targetAtFixation,jsons/VE125_randls_63.json,http://54.235.29.9/FacialAge/BNav_EC2/DepthDuration/v2_depth_duration_MTurk/v2_DepthDuration_HTML.html#24,24,2560,1440,2560,1440,8-21-2022,10-4-24,49,depth_duration_stimuli/001815_2014-06-26_20-52-55_260595134347_rgbf000020-resize_0/001815_2014-06-26_20-52-55_260595134347_rgbf000020-resize_0-target.png,125,3.3865,6,1698,139,feet,jsons/VE125_randls_63.json,425093,588177,25,trangender woman
49,515034,DepthScenes,duration_manipulation_targetAtFixation,jsons/VE125_randls_63.json,http://54.235.29.9/FacialAge/BNav_EC2/DepthDuration/v2_depth_duration_MTurk/v2_DepthDuration_HTML.html#24,24,2560,1440,2560,1440,8-21-2022,10-4-24,50,depth_duration_stimuli/001570_2014-06-20_17-21-09_260595134347_rgbf000135-resize_4/001570_2014-06-20_17-21-09_260595134347_rgbf000135-resize_4-target.png,125,4.467,9,1851,124,feet,jsons/VE125_randls_63.json,425093,588177,25,trangender woman
50,515034,DepthScenes,duration_manipulation_targetAtFixation,jsons/VE125_randls_63.json,http://54.235.29.9/FacialAge/BNav_EC2/DepthDuration/v2_depth_duration_MTurk/v2_DepthDuration_HTML.html#24,24,2560,1440,2560,1440,8-21-2022,10-4-24,51,depth_duration_stimuli/001392_2014-06-19_16-07-59_260595134347_rgbf000046-resize_1/001392_2014-06-19_16-07-59_260595134347_rgbf000046-resize_1-target.png,125,4.135,3,2511,139,feet,jsons/VE125_randls_63.json,425093,588177,25,trangender woman
51,515034,DepthScenes,duration_manipulation_targetAtFixation,jsons/VE125_randls_63.json,http://54.235.29.9/FacialAge/BNav_EC2/DepthDuration/v2_depth_duration_MTurk/v2_DepthDuration_HTML.html#24,24,2560,1440,2560,1440,8-21-2022,10-4-24,52,depth_duration_stimuli/000436_2014-06-09_22-25-11_260595134347_rgbf000137-resize_1/000436_2014-06-09_22-25-11_260595134347_rgbf000137-resize_1-target.png,125,4.0705,3,1634,124,feet,jsons/VE125_randls_63.json,425093,588177,25,trangender woman
52,515034,DepthScenes,duration_manipulation_targetAtFixation,jsons/VE125_randls_63.json,http://54.235.29.9/FacialAge/BNav_EC2/DepthDuration/v2_depth_duration_MTurk/v2_DepthDuration_HTML.html#24,24,2560,1440,2560,1440,8-21-2022,10-4-24,53,depth_duration_stimuli/002444_2014-06-28_20-32-08_260595134347_rgbf000027-resize_0/002444_2014-06-28_20-32-08_260595134347_rgbf000027-resize_0-target.png,125,4.388999999999999,6,2476,124,feet,jsons/VE125_randls_63.json,425093,588177,25,trangender woman
53,515034,DepthScenes,duration_manipulation_targetAtFixation,jsons/VE125_randls_63.json,http://54.235.29.9/FacialAge/BNav_EC2/DepthDuration/v2_depth_duration_MTurk/v2_DepthDuration_HTML.html#24,24,2560,1440,2560,1440,8-21-2022,10-4-24,54,depth_duration_stimuli/000642_2014-06-08_16-59-25_260595134347_rgbf000098-resize_2/000642_2014-06-08_16-59-25_260595134347_rgbf000098-resize_2-target.png,125,2.8815,3,2606,123,feet,jsons/VE125_randls_63.json,425093,588177,25,trangender woman
54,515034,DepthScenes,duration_manipulation_targetAtFixation,jsons/VE125_randls_63.json,http://54.235.29.9/FacialAge/BNav_EC2/DepthDuration/v2_depth_duration_MTurk/v2_DepthDuration_HTML.html#24,24,2560,1440,2560,1440,8-21-2022,10-4-24,55,depth_duration_stimuli/002425_2014-06-28_20-27-29_260595134347_rgbf000031-resize_8/002425_2014-06-28_20-27-29_260595134347_rgbf000031-resize_8-target.png,125,3.8960000000000004,7,2560,123,feet,jsons/VE125_randls_63.json,425093,588177,25,trangender woman
55,515034,DepthScenes,duration_manipulation_targetAtFixation,jsons/VE125_randls_63.json,http://54.235.29.9/FacialAge/BNav_EC2/DepthDuration/v2_depth_duration_MTurk/v2_DepthDuration_HTML.html#24,24,2560,1440,2560,1440,8-21-2022,10-4-24,56,depth_duration_stimuli/001150_2014-06-17_15-27-34_260595134347_rgbf000108-resize_2/001150_2014-06-17_15-27-34_260595134347_rgbf000108-resize_2-target.png,125,4.0325,6,2112,139,feet,jsons/VE125_randls_63.json,425093,588177,25,trangender woman
56,515034,DepthScenes,duration_manipulation_targetAtFixation,jsons/VE125_randls_63.json,http://54.235.29.9/FacialAge/BNav_EC2/DepthDuration/v2_depth_duration_MTurk/v2_DepthDuration_HTML.html#24,24,2560,1440,2560,1440,8-21-2022,10-4-24,57,depth_duration_stimuli/000665_2014-06-09_20-42-35_260595134347_rgbf000110-resize_1/000665_2014-06-09_20-42-35_260595134347_rgbf000110-resize_1-target.png,125,3.057,4,2101,124,feet,jsons/VE125_randls_63.json,425093,588177,25,trangender woman
57,515034,DepthScenes,duration_manipulation_targetAtFixation,jsons/VE125_randls_63.json,http://54.235.29.9/FacialAge/BNav_EC2/DepthDuration/v2_depth_duration_MTurk/v2_DepthDuration_HTML.html#24,24,2560,1440,2560,1440,8-21-2022,10-4-24,58,depth_duration_stimuli/002630_2014-06-24_14-47-50_094959634447_rgbf000055-resize_1/002630_2014-06-24_14-47-50_094959634447_rgbf000055-resize_1-target.png,125,3.0095,5,2187,124,feet,jsons/VE125_randls_63.json,425093,588177,25,trangender woman
58,515034,DepthScenes,duration_manipulation_targetAtFixation,jsons/VE125_randls_63.json,http://54.235.29.9/FacialAge/BNav_EC2/DepthDuration/v2_depth_duration_MTurk/v2_DepthDuration_HTML.html#24,24,2560,1440,2560,1440,8-21-2022,10-4-24,59,depth_duration_stimuli/002758_2014-06-22_19-11-20_094959634447_rgbf000128-resize_1/002758_2014-06-22_19-11-20_094959634447_rgbf000128-resize_1-target.png,125,2.555,4,1725,140,feet,jsons/VE125_randls_63.json,425093,588177,25,trangender woman
59,515034,DepthScenes,duration_manipulation_targetAtFixation,jsons/VE125_randls_63.json,http://54.235.29.9/FacialAge/BNav_EC2/DepthDuration/v2_depth_duration_MTurk/v2_DepthDuration_HTML.html#24,24,2560,1440,2560,1440,8-21-2022,10-4-24,60,depth_duration_stimuli/002375_2014-06-28_20-13-44_260595134347_rgbf000032-resize_1/002375_2014-06-28_20-13-44_260595134347_rgbf000032-resize_1-target.png,125,4.0175,4,1759,124,feet,jsons/VE125_randls_63.json,425093,588177,25,trangender woman
60,515034,DepthScenes,duration_manipulation_targetAtFixation,jsons/VE125_randls_63.json,http://54.235.29.9/FacialAge/BNav_EC2/DepthDuration/v2_depth_duration_MTurk/v2_DepthDuration_HTML.html#24,24,2560,1440,2560,1440,8-21-2022,10-4-24,61,depth_duration_stimuli/002657_2014-06-13_15-29-54_094959634447_rgbf000150-resize_1/002657_2014-06-13_15-29-54_094959634447_rgbf000150-resize_1-target.png,125,4.919,4,1876,123,feet,jsons/VE125_randls_63.json,425093,588177,25,trangender woman
61,515034,DepthScenes,duration_manipulation_targetAtFixation,jsons/VE125_randls_63.json,http://54.235.29.9/FacialAge/BNav_EC2/DepthDuration/v2_depth_duration_MTurk/v2_DepthDuration_HTML.html#24,24,2560,1440,2560,1440,8-21-2022,10-4-24,62,depth_duration_stimuli/001417_2014-06-19_16-25-36_260595134347_rgbf000115-resize_5/001417_2014-06-19_16-25-36_260595134347_rgbf000115-resize_5-target.png,125,4.6255,5,2672,123,feet,jsons/VE125_randls_63.json,425093,588177,25,trangender woman
62,515034,DepthScenes,duration_manipulation_targetAtFixation,jsons/VE125_randls_63.json,http://54.235.29.9/FacialAge/BNav_EC2/DepthDuration/v2_depth_duration_MTurk/v2_DepthDuration_HTML.html#24,24,2560,1440,2560,1440,8-21-2022,10-4-24,63,depth_duration_stimuli/003081_2014-06-15_15-19-16_094959634447_rgbf000150-resize_1/003081_2014-06-15_15-19-16_094959634447_rgbf000150-resize_1-target.png,125,3.9125,6,1851,123,feet,jsons/VE125_randls_63.json,425093,588177,25,trangender woman
63,515034,DepthScenes,duration_manipulation_targetAtFixation,jsons/VE125_randls_63.json,http://54.235.29.9/FacialAge/BNav_EC2/DepthDuration/v2_depth_duration_MTurk/v2_DepthDuration_HTML.html#24,24,2560,1440,2560,1440,8-21-2022,10-4-24,64,depth_duration_stimuli/000493_2014-06-09_21-01-18_260595134347_rgbf000196-resize_3/000493_2014-06-09_21-01-18_260595134347_rgbf000196-resize_3-target.png,125,3.44,4,1439,124,feet,jsons/VE125_randls_63.json,425093,588177,25,trangender woman
64,515034,DepthScenes,duration_manipulation_targetAtFixation,jsons/VE125_randls_63.json,http://54.235.29.9/FacialAge/BNav_EC2/DepthDuration/v2_depth_duration_MTurk/v2_DepthDuration_HTML.html#24,24,2560,1440,2560,1440,8-21-2022,10-4-24,65,depth_duration_stimuli/000191_2014-05-12_17-07-38_260595134347_rgbf000199-resize_0/000191_2014-05-12_17-07-38_260595134347_rgbf000199-resize_0-target.png,125,3.7995,6,1920,124,feet,jsons/VE125_randls_63.json,425093,588177,25,trangender woman
65,515034,DepthScenes,duration_manipulation_targetAtFixation,jsons/VE125_randls_63.json,http://54.235.29.9/FacialAge/BNav_EC2/DepthDuration/v2_depth_duration_MTurk/v2_DepthDuration_HTML.html#24,24,2560,1440,2560,1440,8-21-2022,10-4-24,66,depth_duration_stimuli/001222_2014-06-17_16-24-06_260595134347_rgbf000073-resize_0/001222_2014-06-17_16-24-06_260595134347_rgbf000073-resize-original.jpg,125,1.4385,0,1904,124,feet,jsons/VE125_randls_63.json,425093,588177,25,trangender woman
66,515034,DepthScenes,duration_manipulation_targetAtFixation,jsons/VE125_randls_63.json,http://54.235.29.9/FacialAge/BNav_EC2/DepthDuration/v2_depth_duration_MTurk/v2_DepthDuration_HTML.html#24,24,2560,1440,2560,1440,8-21-2022,10-4-24,67,depth_duration_stimuli/002039_2014-06-24_20-22-38_260595134347_rgbf000084-resize_1/002039_2014-06-24_20-22-38_260595134347_rgbf000084-resize_1-target.png,125,4.408,4,1522,123,feet,jsons/VE125_randls_63.json,425093,588177,25,trangender woman
67,515034,DepthScenes,duration_manipulation_targetAtFixation,jsons/VE125_randls_63.json,http://54.235.29.9/FacialAge/BNav_EC2/DepthDuration/v2_depth_duration_MTurk/v2_DepthDuration_HTML.html#24,24,2560,1440,2560,1440,8-21-2022,10-4-24,68,depth_duration_stimuli/002103_2014-06-25_20-00-40_260595134347_rgbf000049-resize_0/002103_2014-06-25_20-00-40_260595134347_rgbf000049-resize_0-target.png,125,4.105,4,1795,124,feet,jsons/VE125_randls_63.json,425093,588177,25,trangender woman
68,515034,DepthScenes,duration_manipulation_targetAtFixation,jsons/VE125_randls_63.json,http://54.235.29.9/FacialAge/BNav_EC2/DepthDuration/v2_depth_duration_MTurk/v2_DepthDuration_HTML.html#24,24,2560,1440,2560,1440,8-21-2022,10-4-24,69,depth_duration_stimuli/003070_2014-06-15_14-58-27_094959634447_rgbf000150-resize_3/003070_2014-06-15_14-58-27_094959634447_rgbf000150-resize_3-target.png,125,2.9415,6,1994,124,feet,jsons/VE125_randls_63.json,425093,588177,25,trangender woman
69,515034,DepthScenes,duration_manipulation_targetAtFixation,jsons/VE125_randls_63.json,http://54.235.29.9/FacialAge/BNav_EC2/DepthDuration/v2_depth_duration_MTurk/v2_DepthDuration_HTML.html#24,24,2560,1440,2560,1440,8-21-2022,10-4-24,70,depth_duration_stimuli/000943_2014-06-09_19-31-07_260595134347_rgbf000128-resize_1/000943_2014-06-09_19-31-07_260595134347_rgbf000128-resize_1-target.png,125,1.9765,6,1849,123,feet,jsons/VE125_randls_63.json,425093,588177,25,trangender woman
70,515034,DepthScenes,duration_manipulation_targetAtFixation,jsons/VE125_randls_63.json,http://54.235.29.9/FacialAge/BNav_EC2/DepthDuration/v2_depth_duration_MTurk/v2_DepthDuration_HTML.html#24,24,2560,1440,2560,1440,8-21-2022,10-4-24,71,depth_duration_stimuli/001175_2014-06-17_15-45-55_260595134347_rgbf000129-resize_4/001175_2014-06-17_15-45-55_260595134347_rgbf000129-resize_4-target.png,125,4.255,8,1925,139,feet,jsons/VE125_randls_63.json,425093,588177,25,trangender woman
71,515034,DepthScenes,duration_manipulation_targetAtFixation,jsons/VE125_randls_63.json,http://54.235.29.9/FacialAge/BNav_EC2/DepthDuration/v2_depth_duration_MTurk/v2_DepthDuration_HTML.html#24,24,2560,1440,2560,1440,8-21-2022,10-4-24,72,depth_duration_stimuli/003490_2014-05-21_15-50-11_094959634447_rgbf000101-resize_3/003490_2014-05-21_15-50-11_094959634447_rgbf000101-resize_3-target.png,125,3.6445,7,2910,139,feet,jsons/VE125_randls_63.json,425093,588177,25,trangender woman
72,515034,DepthScenes,duration_manipulation_targetAtFixation,jsons/VE125_randls_63.json,http://54.235.29.9/FacialAge/BNav_EC2/DepthDuration/v2_depth_duration_MTurk/v2_DepthDuration_HTML.html#24,24,2560,1440,2560,1440,8-21-2022,10-4-24,73,depth_duration_stimuli/001133_2014-06-17_14-49-16_260595134347_rgbf000100-resize_0/001133_2014-06-17_14-49-16_260595134347_rgbf000100-resize_0-target.png,125,4.2115,6,4059,123,feet,jsons/VE125_randls_63.json,425093,588177,25,trangender woman
73,515034,DepthScenes,duration_manipulation_targetAtFixation,jsons/VE125_randls_63.json,http://54.235.29.9/FacialAge/BNav_EC2/DepthDuration/v2_depth_duration_MTurk/v2_DepthDuration_HTML.html#24,24,2560,1440,2560,1440,8-21-2022,10-4-24,74,depth_duration_stimuli/001132_2014-06-17_14-48-54_260595134347_rgbf000100-resize_2/001132_2014-06-17_14-48-54_260595134347_rgbf000100-resize_2-target.png,125,3.753,6,1848,123,feet,jsons/VE125_randls_63.json,425093,588177,25,trangender woman
74,515034,DepthScenes,duration_manipulation_targetAtFixation,jsons/VE125_randls_63.json,http://54.235.29.9/FacialAge/BNav_EC2/DepthDuration/v2_depth_duration_MTurk/v2_DepthDuration_HTML.html#24,24,2560,1440,2560,1440,8-21-2022,10-4-24,75,depth_duration_stimuli/000368_2014-06-09_15-53-01_260595134347_rgbf000155-resize_2/000368_2014-06-09_15-53-01_260595134347_rgbf000155-resize_2-target.png,125,2.4859999999999998,4,1972,124,feet,jsons/VE125_randls_63.json,425093,588177,25,trangender woman
75,515034,DepthScenes,duration_manipulation_targetAtFixation,jsons/VE125_randls_63.json,http://54.235.29.9/FacialAge/BNav_EC2/DepthDuration/v2_depth_duration_MTurk/v2_DepthDuration_HTML.html#24,24,2560,1440,2560,1440,8-21-2022,10-4-24,76,depth_duration_stimuli/002678_2014-06-13_16-15-32_094959634447_rgbf000151-resize_6/002678_2014-06-13_16-15-32_094959634447_rgbf000151-resize_6-target.png,125,2.1830000000000003,4,1799,139,feet,jsons/VE125_randls_63.json,425093,588177,25,trangender woman
76,515034,DepthScenes,duration_manipulation_targetAtFixation,jsons/VE125_randls_63.json,http://54.235.29.9/FacialAge/BNav_EC2/DepthDuration/v2_depth_duration_MTurk/v2_DepthDuration_HTML.html#24,24,2560,1440,2560,1440,8-21-2022,10-4-24,77,depth_duration_stimuli/000878_2014-06-08_22-52-45_260595134347_rgbf000045-resize_2/000878_2014-06-08_22-52-45_260595134347_rgbf000045-resize_2-target.png,125,2.092,3,1888,139,feet,jsons/VE125_randls_63.json,425093,588177,25,trangender woman
77,515034,DepthScenes,duration_manipulation_targetAtFixation,jsons/VE125_randls_63.json,http://54.235.29.9/FacialAge/BNav_EC2/DepthDuration/v2_depth_duration_MTurk/v2_DepthDuration_HTML.html#24,24,2560,1440,2560,1440,8-21-2022,10-4-24,78,depth_duration_stimuli/002953_2014-06-08_17-32-18_094959634447_rgbf000059-resize_5/002953_2014-06-08_17-32-18_094959634447_rgbf000059-resize_5-target.png,125,1.551,4,3054,124,feet,jsons/VE125_randls_63.json,425093,588177,25,trangender woman
78,515034,DepthScenes,duration_manipulation_targetAtFixation,jsons/VE125_randls_63.json,http://54.235.29.9/FacialAge/BNav_EC2/DepthDuration/v2_depth_duration_MTurk/v2_DepthDuration_HTML.html#24,24,2560,1440,2560,1440,8-21-2022,10-4-24,79,depth_duration_stimuli/002663_2014-06-13_15-50-26_094959634447_rgbf000075-resize_1/002663_2014-06-13_15-50-26_094959634447_rgbf000075-resize_1-target.png,125,4.7495,9,2376,124,feet,jsons/VE125_randls_63.json,425093,588177,25,trangender woman
79,515034,DepthScenes,duration_manipulation_targetAtFixation,jsons/VE125_randls_63.json,http://54.235.29.9/FacialAge/BNav_EC2/DepthDuration/v2_depth_duration_MTurk/v2_DepthDuration_HTML.html#24,24,2560,1440,2560,1440,8-21-2022,10-4-24,80,depth_duration_stimuli/000409_2014-06-04_19-23-33_260595134347_rgbf000067-resize_0/000409_2014-06-04_19-23-33_260595134347_rgbf000067-resize_0-target.png,125,3.7335,6,1764,124,feet,jsons/VE125_randls_63.json,425093,588177,25,trangender woman
80,515034,DepthScenes,duration_manipulation_targetAtFixation,jsons/VE125_randls_63.json,http://54.235.29.9/FacialAge/BNav_EC2/DepthDuration/v2_depth_duration_MTurk/v2_DepthDuration_HTML.html#24,24,2560,1440,2560,1440,8-21-2022,10-4-24,81,depth_duration_stimuli/002279_2014-06-28_18-55-32_260595134347_rgbf000040-resize_5/002279_2014-06-28_18-55-32_260595134347_rgbf000040-resize_5-target.png,125,1.5043333333333,4,1303,123,feet,jsons/VE125_randls_63.json,425093,588177,25,trangender woman
81,515034,DepthScenes,duration_manipulation_targetAtFixation,jsons/VE125_randls_63.json,http://54.235.29.9/FacialAge/BNav_EC2/DepthDuration/v2_depth_duration_MTurk/v2_DepthDuration_HTML.html#24,24,2560,1440,2560,1440,8-21-2022,10-4-24,82,depth_duration_stimuli/000635_2014-06-08_16-38-42_260595134347_rgbf000106-resize_1/000635_2014-06-08_16-38-42_260595134347_rgbf000106-resize_1-target.png,125,2.074,3,2472,123,feet,jsons/VE125_randls_63.json,425093,588177,25,trangender woman
82,515034,DepthScenes,duration_manipulation_targetAtFixation,jsons/VE125_randls_63.json,http://54.235.29.9/FacialAge/BNav_EC2/DepthDuration/v2_depth_duration_MTurk/v2_DepthDuration_HTML.html#24,24,2560,1440,2560,1440,8-21-2022,10-4-24,83,depth_duration_stimuli/001055_2014-06-08_18-45-35_260595134347_rgbf000111-resize_4/001055_2014-06-08_18-45-35_260595134347_rgbf000111-resize_4-target.png,125,2.4290000000000003,4,1504,123,feet,jsons/VE125_randls_63.json,425093,588177,25,trangender woman
83,515034,DepthScenes,duration_manipulation_targetAtFixation,jsons/VE125_randls_63.json,http://54.235.29.9/FacialAge/BNav_EC2/DepthDuration/v2_depth_duration_MTurk/v2_DepthDuration_HTML.html#24,24,2560,1440,2560,1440,8-21-2022,10-4-24,84,depth_duration_stimuli/000549_2014-06-08_22-10-24_260595134347_rgbf000247-resize_3/000549_2014-06-08_22-10-24_260595134347_rgbf000247-resize_3-target.png,125,1.841,4,1858,124,feet,jsons/VE125_randls_63.json,425093,588177,25,trangender woman
84,515034,DepthScenes,duration_manipulation_targetAtFixation,jsons/VE125_randls_63.json,http://54.235.29.9/FacialAge/BNav_EC2/DepthDuration/v2_depth_duration_MTurk/v2_DepthDuration_HTML.html#24,24,2560,1440,2560,1440,8-21-2022,10-4-24,85,depth_duration_stimuli/001244_2014-06-17_16-47-45_260595134347_rgbf000030-resize_4/001244_2014-06-17_16-47-45_260595134347_rgbf000030-resize_4-target.png,125,2.0425,5,1529,124,feet,jsons/VE125_randls_63.json,425093,588177,25,trangender woman
85,515034,DepthScenes,duration_manipulation_targetAtFixation,jsons/VE125_randls_63.json,http://54.235.29.9/FacialAge/BNav_EC2/DepthDuration/v2_depth_duration_MTurk/v2_DepthDuration_HTML.html#24,24,2560,1440,2560,1440,8-21-2022,10-4-24,86,depth_duration_stimuli/003495_2014-05-21_16-01-51_094959634447_rgbf000100-resize_3/003495_2014-05-21_16-01-51_094959634447_rgbf000100-resize_3-target.png,125,1.6255,4,1402,124,feet,jsons/VE125_randls_63.json,425093,588177,25,trangender woman
86,515034,DepthScenes,duration_manipulation_targetAtFixation,jsons/VE125_randls_63.json,http://54.235.29.9/FacialAge/BNav_EC2/DepthDuration/v2_depth_duration_MTurk/v2_DepthDuration_HTML.html#24,24,2560,1440,2560,1440,8-21-2022,10-4-24,87,depth_duration_stimuli/000009_2014-05-26_14-32-05_260595134347_rgbf000034-resize_3/000009_2014-05-26_14-32-05_260595134347_rgbf000034-resize_3-target.png,125,3.8715,7,2761,123,feet,jsons/VE125_randls_63.json,425093,588177,25,trangender woman
87,515034,DepthScenes,duration_manipulation_targetAtFixation,jsons/VE125_randls_63.json,http://54.235.29.9/FacialAge/BNav_EC2/DepthDuration/v2_depth_duration_MTurk/v2_DepthDuration_HTML.html#24,24,2560,1440,2560,1440,8-21-2022,10-4-24,88,depth_duration_stimuli/001828_2014-06-26_21-40-03_260595134347_rgbf000024-resize_0/001828_2014-06-26_21-40-03_260595134347_rgbf000024-resize_0-target.png,125,4.8260000000000005,6,1725,123,feet,jsons/VE125_randls_63.json,425093,588177,25,trangender woman
88,515034,DepthScenes,duration_manipulation_targetAtFixation,jsons/VE125_randls_63.json,http://54.235.29.9/FacialAge/BNav_EC2/DepthDuration/v2_depth_duration_MTurk/v2_DepthDuration_HTML.html#24,24,2560,1440,2560,1440,8-21-2022,10-4-24,89,depth_duration_stimuli/000917_2014-06-09_22-45-29_260595134347_rgbf000149-resize_3/000917_2014-06-09_22-45-29_260595134347_rgbf000149-resize_3-target.png,125,4.1865,9,4335,123,feet,jsons/VE125_randls_63.json,425093,588177,25,trangender woman
89,515034,DepthScenes,duration_manipulation_targetAtFixation,jsons/VE125_randls_63.json,http://54.235.29.9/FacialAge/BNav_EC2/DepthDuration/v2_depth_duration_MTurk/v2_DepthDuration_HTML.html#24,24,2560,1440,2560,1440,8-21-2022,10-4-24,90,depth_duration_stimuli/002323_2014-06-28_20-01-54_260595134347_rgbf000051-resize_4/002323_2014-06-28_20-01-54_260595134347_rgbf000051-resize_4-target.png,125,3.7310000000000003,9,1511,139,feet,jsons/VE125_randls_63.json,425093,588177,25,trangender woman
90,515034,DepthScenes,duration_manipulation_targetAtFixation,jsons/VE125_randls_63.json,http://54.235.29.9/FacialAge/BNav_EC2/DepthDuration/v2_depth_duration_MTurk/v2_DepthDuration_HTML.html#24,24,2560,1440,2560,1440,8-21-2022,10-4-24,91,depth_duration_stimuli/002725_2014-06-22_11-47-51_094959634447_rgbf000070-resize_1/002725_2014-06-22_11-47-51_094959634447_rgbf000070-resize_1-target.png,125,2.195,4,2187,139,feet,jsons/VE125_randls_63.json,425093,588177,25,trangender woman
91,515034,DepthScenes,duration_manipulation_targetAtFixation,jsons/VE125_randls_63.json,http://54.235.29.9/FacialAge/BNav_EC2/DepthDuration/v2_depth_duration_MTurk/v2_DepthDuration_HTML.html#24,24,2560,1440,2560,1440,8-21-2022,10-4-24,92,depth_duration_stimuli/002344_2014-06-28_20-06-29_260595134347_rgbf000030-resize_1/002344_2014-06-28_20-06-29_260595134347_rgbf000030-resize_1-target.png,125,1.5795,4,1671,124,feet,jsons/VE125_randls_63.json,425093,588177,25,trangender woman
92,515034,DepthScenes,duration_manipulation_targetAtFixation,jsons/VE125_randls_63.json,http://54.235.29.9/FacialAge/BNav_EC2/DepthDuration/v2_depth_duration_MTurk/v2_DepthDuration_HTML.html#24,24,2560,1440,2560,1440,8-21-2022,10-4-24,93,depth_duration_stimuli/001092_2014-06-15_17-34-58_260595134347_rgbf000171-resize_3/001092_2014-06-15_17-34-58_260595134347_rgbf000171-resize_3-target.png,125,2.6935,3,1556,123,feet,jsons/VE125_randls_63.json,425093,588177,25,trangender woman
93,515034,DepthScenes,duration_manipulation_targetAtFixation,jsons/VE125_randls_63.json,http://54.235.29.9/FacialAge/BNav_EC2/DepthDuration/v2_depth_duration_MTurk/v2_DepthDuration_HTML.html#24,24,2560,1440,2560,1440,8-21-2022,10-4-24,94,depth_duration_stimuli/002545_2014-06-24_13-38-53_094959634447_rgbf000080-resize_4/002545_2014-06-24_13-38-53_094959634447_rgbf000080-resize_4-target.png,125,1.9205,4,1437,124,feet,jsons/VE125_randls_63.json,425093,588177,25,trangender woman
94,515034,DepthScenes,duration_manipulation_targetAtFixation,jsons/VE125_randls_63.json,http://54.235.29.9/FacialAge/BNav_EC2/DepthDuration/v2_depth_duration_MTurk/v2_DepthDuration_HTML.html#24,24,2560,1440,2560,1440,8-21-2022,10-4-24,95,depth_duration_stimuli/002057_2014-06-24_21-00-13_260595134347_rgbf000120-resize_1/002057_2014-06-24_21-00-13_260595134347_rgbf000120-resize_1-target.png,125,2.967,8,1829,124,feet,jsons/VE125_randls_63.json,425093,588177,25,trangender woman
95,515034,DepthScenes,duration_manipulation_targetAtFixation,jsons/VE125_randls_63.json,http://54.235.29.9/FacialAge/BNav_EC2/DepthDuration/v2_depth_duration_MTurk/v2_DepthDuration_HTML.html#24,24,2560,1440,2560,1440,8-21-2022,10-4-24,96,depth_duration_stimuli/000709_2014-06-08_13-51-55_260595134347_rgbf000068-resize_3/000709_2014-06-08_13-51-55_260595134347_rgbf000068-resize_3-target.png,125,1.8030000000000002,4,1957,124,feet,jsons/VE125_randls_63.json,425093,588177,25,trangender woman
96,515034,DepthScenes,duration_manipulation_targetAtFixation,jsons/VE125_randls_63.json,http://54.235.29.9/FacialAge/BNav_EC2/DepthDuration/v2_depth_duration_MTurk/v2_DepthDuration_HTML.html#24,24,2560,1440,2560,1440,8-21-2022,10-4-24,97,depth_duration_stimuli/001158_2014-06-17_15-32-16_260595134347_rgbf000138-resize_2/001158_2014-06-17_15-32-16_260595134347_rgbf000138-resize_2-target.png,125,4.5315,9,1501,124,feet,jsons/VE125_randls_63.json,425093,588177,25,trangender woman
97,515034,DepthScenes,duration_manipulation_targetAtFixation,jsons/VE125_randls_63.json,http://54.235.29.9/FacialAge/BNav_EC2/DepthDuration/v2_depth_duration_MTurk/v2_DepthDuration_HTML.html#24,24,2560,1440,2560,1440,8-21-2022,10-4-24,98,depth_duration_stimuli/000556_2014-06-09_22-42-56_260595134347_rgbf000214-resize_1/000556_2014-06-09_22-42-56_260595134347_rgbf000214-resize_1-target.png,125,4.8415,8,1777,124,feet,jsons/VE125_randls_63.json,425093,588177,25,trangender woman
98,515034,DepthScenes,duration_manipulation_targetAtFixation,jsons/VE125_randls_63.json,http://54.235.29.9/FacialAge/BNav_EC2/DepthDuration/v2_depth_duration_MTurk/v2_DepthDuration_HTML.html#24,24,2560,1440,2560,1440,8-21-2022,10-4-24,99,depth_duration_stimuli/001540_2014-06-20_17-01-05_260595134347_rgbf000086-resize_2/001540_2014-06-20_17-01-05_260595134347_rgbf000086-resize-original.jpg,125,1.459,0,2759,123,feet,jsons/VE125_randls_63.json,425093,588177,25,trangender woman
99,515034,DepthScenes,duration_manipulation_targetAtFixation,jsons/VE125_randls_63.json,http://54.235.29.9/FacialAge/BNav_EC2/DepthDuration/v2_depth_duration_MTurk/v2_DepthDuration_HTML.html#24,24,2560,1440,2560,1440,8-21-2022,10-4-24,100,depth_duration_stimuli/001199_2014-06-17_16-03-48_260595134347_rgbf000077-resize_0/001199_2014-06-17_16-03-48_260595134347_rgbf000077-resize_0-target.png,125,3.4375,5,2099,138,feet,jsons/VE125_randls_63.json,425093,588177,25,trangender woman
100,515034,DepthScenes,duration_manipulation_targetAtFixation,jsons/VE125_randls_63.json,http://54.235.29.9/FacialAge/BNav_EC2/DepthDuration/v2_depth_duration_MTurk/v2_DepthDuration_HTML.html#24,24,2560,1440,2560,1440,8-21-2022,10-4-24,101,depth_duration_stimuli/000502_2014-06-08_23-02-32_260595134347_rgbf000063-resize_4/000502_2014-06-08_23-02-32_260595134347_rgbf000063-resize_4-target.png,125,2.431,3,1598,124,feet,jsons/VE125_randls_63.json,425093,588177,25,trangender woman
101,515034,DepthScenes,duration_manipulation_targetAtFixation,jsons/VE125_randls_63.json,http://54.235.29.9/FacialAge/BNav_EC2/DepthDuration/v2_depth_duration_MTurk/v2_DepthDuration_HTML.html#24,24,2560,1440,2560,1440,8-21-2022,10-4-24,102,depth_duration_stimuli/001555_2014-06-20_17-12-10_260595134347_rgbf000065-resize_4/001555_2014-06-20_17-12-10_260595134347_rgbf000065-resize_4-target.png,125,1.633,3,1336,139,feet,jsons/VE125_randls_63.json,425093,588177,25,trangender woman
102,515034,DepthScenes,duration_manipulation_targetAtFixation,jsons/VE125_randls_63.json,http://54.235.29.9/FacialAge/BNav_EC2/DepthDuration/v2_depth_duration_MTurk/v2_DepthDuration_HTML.html#24,24,2560,1440,2560,1440,8-21-2022,10-4-24,103,depth_duration_stimuli/000103_2014-05-14_22-01-17_260595134347_rgbf000152-resize_5/000103_2014-05-14_22-01-17_260595134347_rgbf000152-resize_5-target.png,125,1.993,3,2272,123,feet,jsons/VE125_randls_63.json,425093,588177,25,trangender woman
103,515034,DepthScenes,duration_manipulation_targetAtFixation,jsons/VE125_randls_63.json,http://54.235.29.9/FacialAge/BNav_EC2/DepthDuration/v2_depth_duration_MTurk/v2_DepthDuration_HTML.html#24,24,2560,1440,2560,1440,8-21-2022,10-4-24,104,depth_duration_stimuli/002153_2014-06-25_21-27-18_260595134347_rgbf000038-resize_5/002153_2014-06-25_21-27-18_260595134347_rgbf000038-resize_5-target.png,125,2.505,4,1915,123,feet,jsons/VE125_randls_63.json,425093,588177,25,trangender woman
104,515034,DepthScenes,duration_manipulation_targetAtFixation,jsons/VE125_randls_63.json,http://54.235.29.9/FacialAge/BNav_EC2/DepthDuration/v2_depth_duration_MTurk/v2_DepthDuration_HTML.html#24,24,2560,1440,2560,1440,8-21-2022,10-4-24,105,depth_duration_stimuli/002660_2014-06-13_15-44-18_094959634447_rgbf001878-resize_2/002660_2014-06-13_15-44-18_094959634447_rgbf001878-resize_2-target.png,125,3.576,8,1454,123,feet,jsons/VE125_randls_63.json,425093,588177,25,trangender woman
105,515034,DepthScenes,duration_manipulation_targetAtFixation,jsons/VE125_randls_63.json,http://54.235.29.9/FacialAge/BNav_EC2/DepthDuration/v2_depth_duration_MTurk/v2_DepthDuration_HTML.html#24,24,2560,1440,2560,1440,8-21-2022,10-4-24,106,depth_duration_stimuli/002272_2014-06-28_18-53-56_260595134347_rgbf000067-resize_2/002272_2014-06-28_18-53-56_260595134347_rgbf000067-resize_2-target.png,125,1.138,2,2853,124,feet,jsons/VE125_randls_63.json,425093,588177,25,trangender woman
106,515034,DepthScenes,duration_manipulation_targetAtFixation,jsons/VE125_randls_63.json,http://54.235.29.9/FacialAge/BNav_EC2/DepthDuration/v2_depth_duration_MTurk/v2_DepthDuration_HTML.html#24,24,2560,1440,2560,1440,8-21-2022,10-4-24,107,depth_duration_stimuli/001571_2014-06-20_17-21-32_260595134347_rgbf000089-resize_1/001571_2014-06-20_17-21-32_260595134347_rgbf000089-resize_1-target.png,125,1.86,2,1548,139,feet,jsons/VE125_randls_63.json,425093,588177,25,trangender woman
107,515034,DepthScenes,duration_manipulation_targetAtFixation,jsons/VE125_randls_63.json,http://54.235.29.9/FacialAge/BNav_EC2/DepthDuration/v2_depth_duration_MTurk/v2_DepthDuration_HTML.html#24,24,2560,1440,2560,1440,8-21-2022,10-4-24,108,depth_duration_stimuli/000736_2014-06-08_18-24-15_260595134347_rgbf000206-resize_3/000736_2014-06-08_18-24-15_260595134347_rgbf000206-resize_3-target.png,125,3.515,4,1416,123,feet,jsons/VE125_randls_63.json,425093,588177,25,trangender woman
108,515034,DepthScenes,duration_manipulation_targetAtFixation,jsons/VE125_randls_63.json,http://54.235.29.9/FacialAge/BNav_EC2/DepthDuration/v2_depth_duration_MTurk/v2_DepthDuration_HTML.html#24,24,2560,1440,2560,1440,8-21-2022,10-4-24,109,depth_duration_stimuli/000137_2014-05-20_17-04-49_260595134347_rgbf000120-resize_1/000137_2014-05-20_17-04-49_260595134347_rgbf000120-resize_1-target.png,125,3.786,44,1549,139,feet,jsons/VE125_randls_63.json,425093,588177,25,trangender woman
109,515034,DepthScenes,duration_manipulation_targetAtFixation,jsons/VE125_randls_63.json,http://54.235.29.9/FacialAge/BNav_EC2/DepthDuration/v2_depth_duration_MTurk/v2_DepthDuration_HTML.html#24,24,2560,1440,2560,1440,8-21-2022,10-4-24,110,depth_duration_stimuli/000758_2014-06-08_22-05-08_260595134347_rgbf000085-resize_0/000758_2014-06-08_22-05-08_260595134347_rgbf000085-resize_0-target.png,125,3.3810000000000002,3,3106,123,feet,jsons/VE125_randls_63.json,425093,588177,25,trangender woman
110,515034,DepthScenes,duration_manipulation_targetAtFixation,jsons/VE125_randls_63.json,http://54.235.29.9/FacialAge/BNav_EC2/DepthDuration/v2_depth_duration_MTurk/v2_DepthDuration_HTML.html#24,24,2560,1440,2560,1440,8-21-2022,10-4-24,111,depth_duration_stimuli/000854_2014-06-09_19-43-13_260595134347_rgbf000066-resize_0/000854_2014-06-09_19-43-13_260595134347_rgbf000066-resize_0-target.png,125,3.068,3,1401,124,feet,jsons/VE125_randls_63.json,425093,588177,25,trangender woman
111,515034,DepthScenes,duration_manipulation_targetAtFixation,jsons/VE125_randls_63.json,http://54.235.29.9/FacialAge/BNav_EC2/DepthDuration/v2_depth_duration_MTurk/v2_DepthDuration_HTML.html#24,24,2560,1440,2560,1440,8-21-2022,10-4-24,112,depth_duration_stimuli/002118_2014-06-25_20-32-08_260595134347_rgbf000078-resize_1/002118_2014-06-25_20-32-08_260595134347_rgbf000078-resize_1-target.png,125,2.6460000000000004,6,3197,123,feet,jsons/VE125_randls_63.json,425093,588177,25,trangender woman
112,515034,DepthScenes,duration_manipulation_targetAtFixation,jsons/VE125_randls_63.json,http://54.235.29.9/FacialAge/BNav_EC2/DepthDuration/v2_depth_duration_MTurk/v2_DepthDuration_HTML.html#24,24,2560,1440,2560,1440,8-21-2022,10-4-24,113,depth_duration_stimuli/001516_2014-06-20_16-25-09_260595134347_rgbf000076-resize_2/001516_2014-06-20_16-25-09_260595134347_rgbf000076-resize_2-target.png,125,1.7445,3,2254,124,feet,jsons/VE125_randls_63.json,425093,588177,25,trangender woman
113,515034,DepthScenes,duration_manipulation_targetAtFixation,jsons/VE125_randls_63.json,http://54.235.29.9/FacialAge/BNav_EC2/DepthDuration/v2_depth_duration_MTurk/v2_DepthDuration_HTML.html#24,24,2560,1440,2560,1440,8-21-2022,10-4-24,114,depth_duration_stimuli/000788_2014-06-08_22-34-36_260595134347_rgbf000131-resize_1/000788_2014-06-08_22-34-36_260595134347_rgbf000131-resize_1-target.png,125,3.359,3,1450,123,feet,jsons/VE125_randls_63.json,425093,588177,25,trangender woman
114,515034,DepthScenes,duration_manipulation_targetAtFixation,jsons/VE125_randls_63.json,http://54.235.29.9/FacialAge/BNav_EC2/DepthDuration/v2_depth_duration_MTurk/v2_DepthDuration_HTML.html#24,24,2560,1440,2560,1440,8-21-2022,10-4-24,115,depth_duration_stimuli/001235_2014-06-17_16-37-36_260595134347_rgbf000084-resize_4/001235_2014-06-17_16-37-36_260595134347_rgbf000084-resize_4-target.png,125,3.6605,3,1788,124,feet,jsons/VE125_randls_63.json,425093,588177,25,trangender woman
115,515034,DepthScenes,duration_manipulation_targetAtFixation,jsons/VE125_randls_63.json,http://54.235.29.9/FacialAge/BNav_EC2/DepthDuration/v2_depth_duration_MTurk/v2_DepthDuration_HTML.html#24,24,2560,1440,2560,1440,8-21-2022,10-4-24,116,depth_duration_stimuli/001170_2014-06-17_15-43-44_260595134347_rgbf000096-resize_6/001170_2014-06-17_15-43-44_260595134347_rgbf000096-resize-original.jpg,125,1.1909999999999998,9,1850,122,feet,jsons/VE125_randls_63.json,425093,588177,25,trangender woman
116,515034,DepthScenes,duration_manipulation_targetAtFixation,jsons/VE125_randls_63.json,http://54.235.29.9/FacialAge/BNav_EC2/DepthDuration/v2_depth_duration_MTurk/v2_DepthDuration_HTML.html#24,24,2560,1440,2560,1440,8-21-2022,10-4-24,117,depth_duration_stimuli/001059_2014-06-08_21-53-27_260595134347_rgbf000061-resize_4/001059_2014-06-08_21-53-27_260595134347_rgbf000061-resize_4-target.png,125,2.4185,3,1952,123,feet,jsons/VE125_randls_63.json,425093,588177,25,trangender woman
117,515034,DepthScenes,duration_manipulation_targetAtFixation,jsons/VE125_randls_63.json,http://54.235.29.9/FacialAge/BNav_EC2/DepthDuration/v2_depth_duration_MTurk/v2_DepthDuration_HTML.html#24,24,2560,1440,2560,1440,8-21-2022,10-4-24,118,depth_duration_stimuli/001032_2014-06-08_13-23-17_260595134347_rgbf000021-resize_3/001032_2014-06-08_13-23-17_260595134347_rgbf000021-resize_3-target.png,125,3.2725,3,1734,123,feet,jsons/VE125_randls_63.json,425093,588177,25,trangender woman
118,515034,DepthScenes,duration_manipulation_targetAtFixation,jsons/VE125_randls_63.json,http://54.235.29.9/FacialAge/BNav_EC2/DepthDuration/v2_depth_duration_MTurk/v2_DepthDuration_HTML.html#24,24,2560,1440,2560,1440,8-21-2022,10-4-24,119,depth_duration_stimuli/002784_2014-06-22_19-26-30_094959634447_rgbf000083-resize_3/002784_2014-06-22_19-26-30_094959634447_rgbf000083-resize_3-target.png,125,1.8046666666667,3,1678,124,feet,jsons/VE125_randls_63.json,425093,588177,25,trangender woman
119,515034,DepthScenes,duration_manipulation_targetAtFixation,jsons/VE125_randls_63.json,http://54.235.29.9/FacialAge/BNav_EC2/DepthDuration/v2_depth_duration_MTurk/v2_DepthDuration_HTML.html#24,24,2560,1440,2560,1440,8-21-2022,10-4-24,120,depth_duration_stimuli/001100_2014-06-15_17-46-26_260595134347_rgbf000225-resize_2/001100_2014-06-15_17-46-26_260595134347_rgbf000225-resize_2-target.png,125,2.24,3,1849,138,feet,jsons/VE125_randls_63.json,425093,588177,25,trangender woman
120,515034,DepthScenes,duration_manipulation_targetAtFixation,jsons/VE125_randls_63.json,http://54.235.29.9/FacialAge/BNav_EC2/DepthDuration/v2_depth_duration_MTurk/v2_DepthDuration_HTML.html#24,24,2560,1440,2560,1440,8-21-2022,10-4-24,121,depth_duration_stimuli/001110_2014-06-15_17-25-28_260595134347_rgbf000150-resize_1/001110_2014-06-15_17-25-28_260595134347_rgbf000150-resize_1-target.png,125,1.7115,4,2122,123,feet,jsons/VE125_randls_63.json,425093,588177,25,trangender woman
121,515034,DepthScenes,duration_manipulation_targetAtFixation,jsons/VE125_randls_63.json,http://54.235.29.9/FacialAge/BNav_EC2/DepthDuration/v2_depth_duration_MTurk/v2_DepthDuration_HTML.html#24,24,2560,1440,2560,1440,8-21-2022,10-4-24,122,depth_duration_stimuli/000927_2014-06-09_16-32-30_260595134347_rgbf000123-resize_3/000927_2014-06-09_16-32-30_260595134347_rgbf000123-resize_3-target.png,125,2.6785,5,1483,124,feet,jsons/VE125_randls_63.json,425093,588177,25,trangender woman
122,515034,DepthScenes,duration_manipulation_targetAtFixation,jsons/VE125_randls_63.json,http://54.235.29.9/FacialAge/BNav_EC2/DepthDuration/v2_depth_duration_MTurk/v2_DepthDuration_HTML.html#24,24,2560,1440,2560,1440,8-21-2022,10-4-24,123,depth_duration_stimuli/002989_2014-06-15_12-25-03_094959634447_rgbf000150-resize_3/002989_2014-06-15_12-25-03_094959634447_rgbf000150-resize_3-target.png,125,4.1975,9,1406,124,feet,jsons/VE125_randls_63.json,425093,588177,25,trangender woman
123,515034,DepthScenes,duration_manipulation_targetAtFixation,jsons/VE125_randls_63.json,http://54.235.29.9/FacialAge/BNav_EC2/DepthDuration/v2_depth_duration_MTurk/v2_DepthDuration_HTML.html#24,24,2560,1440,2560,1440,8-21-2022,10-4-24,124,depth_duration_stimuli/000866_2014-06-09_20-45-42_260595134347_rgbf000139-resize_1/000866_2014-06-09_20-45-42_260595134347_rgbf000139-resize_1-target.png,125,3.2155,6,2227,124,feet,jsons/VE125_randls_63.json,425093,588177,25,trangender woman
124,515034,DepthScenes,duration_manipulation_targetAtFixation,jsons/VE125_randls_63.json,http://54.235.29.9/FacialAge/BNav_EC2/DepthDuration/v2_depth_duration_MTurk/v2_DepthDuration_HTML.html#24,24,2560,1440,2560,1440,8-21-2022,10-4-24,125,depth_duration_stimuli/001806_2014-06-26_20-50-20_260595134347_rgbf000091-resize_1/001806_2014-06-26_20-50-20_260595134347_rgbf000091-resize_1-target.png,125,2.7305,4,2285,123,feet,jsons/VE125_randls_63.json,425093,588177,25,trangender woman
125,515034,DepthScenes,duration_manipulation_targetAtFixation,jsons/VE125_randls_63.json,http://54.235.29.9/FacialAge/BNav_EC2/DepthDuration/v2_depth_duration_MTurk/v2_DepthDuration_HTML.html#24,24,2560,1440,2560,1440,8-21-2022,10-4-24,126,depth_duration_stimuli/001617_2014-06-20_11-35-32_260595134347_rgbf000066-resize_1/001617_2014-06-20_11-35-32_260595134347_rgbf000066-resize_1-target.png,125,3.7910000000000004,6,1987,124,feet,jsons/VE125_randls_63.json,425093,588177,25,trangender woman
126,515034,DepthScenes,duration_manipulation_targetAtFixation,jsons/VE125_randls_63.json,http://54.235.29.9/FacialAge/BNav_EC2/DepthDuration/v2_depth_duration_MTurk/v2_DepthDuration_HTML.html#24,24,2560,1440,2560,1440,8-21-2022,10-4-24,127,depth_duration_stimuli/000486_2014-06-09_20-47-20_260595134347_rgbf000143-resize_2/000486_2014-06-09_20-47-20_260595134347_rgbf000143-resize_2-target.png,125,4.8325,4,2397,123,feet,jsons/VE125_randls_63.json,425093,588177,25,trangender woman
127,515034,DepthScenes,duration_manipulation_targetAtFixation,jsons/VE125_randls_63.json,http://54.235.29.9/FacialAge/BNav_EC2/DepthDuration/v2_depth_duration_MTurk/v2_DepthDuration_HTML.html#24,24,2560,1440,2560,1440,8-21-2022,10-4-24,128,depth_duration_stimuli/003083_2014-06-15_15-21-03_094959634447_rgbf000063-resize_1/003083_2014-06-15_15-21-03_094959634447_rgbf000063-resize_1-target.png,125,4.1405,7,2408,124,feet,jsons/VE125_randls_63.json,425093,588177,25,trangender woman
128,515034,DepthScenes,duration_manipulation_targetAtFixation,jsons/VE125_randls_63.json,http://54.235.29.9/FacialAge/BNav_EC2/DepthDuration/v2_depth_duration_MTurk/v2_DepthDuration_HTML.html#24,24,2560,1440,2560,1440,8-21-2022,10-4-24,129,depth_duration_stimuli/002213_2014-06-28_18-37-58_260595134347_rgbf000055-resize_1/002213_2014-06-28_18-37-58_260595134347_rgbf000055-resize_1-target.png,125,3.62,9,2061,123,feet,jsons/VE125_randls_63.json,425093,588177,25,trangender woman
129,515034,DepthScenes,duration_manipulation_targetAtFixation,jsons/VE125_randls_63.json,http://54.235.29.9/FacialAge/BNav_EC2/DepthDuration/v2_depth_duration_MTurk/v2_DepthDuration_HTML.html#24,24,2560,1440,2560,1440,8-21-2022,10-4-24,130,depth_duration_stimuli/000691_2014-06-08_13-08-50_260595134347_rgbf000132-resize_3/000691_2014-06-08_13-08-50_260595134347_rgbf000132-resize_3-target.png,125,4.1530000000000005,7,1447,123,feet,jsons/VE125_randls_63.json,425093,588177,25,trangender woman
130,515034,DepthScenes,duration_manipulation_targetAtFixation,jsons/VE125_randls_63.json,http://54.235.29.9/FacialAge/BNav_EC2/DepthDuration/v2_depth_duration_MTurk/v2_DepthDuration_HTML.html#24,24,2560,1440,2560,1440,8-21-2022,10-4-24,131,depth_duration_stimuli/002905_2014-06-03_18-04-43_094959634447_rgbf000151-resize_2/002905_2014-06-03_18-04-43_094959634447_rgbf000151-resize_2-target.png,125,2.0295,5,1524,124,feet,jsons/VE125_randls_63.json,425093,588177,25,trangender woman
131,515034,DepthScenes,duration_manipulation_targetAtFixation,jsons/VE125_randls_63.json,http://54.235.29.9/FacialAge/BNav_EC2/DepthDuration/v2_depth_duration_MTurk/v2_DepthDuration_HTML.html#24,24,2560,1440,2560,1440,8-21-2022,10-4-24,132,depth_duration_stimuli/003423_2014-05-21_10-23-26_094959634447_rgbf002665-resize_2/003423_2014-05-21_10-23-26_094959634447_rgbf002665-resize_2-target.png,125,3.2575,9,1762,125,feet,jsons/VE125_randls_63.json,425093,588177,25,trangender woman
132,515034,DepthScenes,duration_manipulation_targetAtFixation,jsons/VE125_randls_63.json,http://54.235.29.9/FacialAge/BNav_EC2/DepthDuration/v2_depth_duration_MTurk/v2_DepthDuration_HTML.html#24,24,2560,1440,2560,1440,8-21-2022,10-4-24,133,depth_duration_stimuli/000773_2014-06-08_22-24-54_260595134347_rgbf000093-resize_1/000773_2014-06-08_22-24-54_260595134347_rgbf000093-resize_1-target.png,125,4.973,9,1857,124,feet,jsons/VE125_randls_63.json,425093,588177,25,trangender woman
133,515034,DepthScenes,duration_manipulation_targetAtFixation,jsons/VE125_randls_63.json,http://54.235.29.9/FacialAge/BNav_EC2/DepthDuration/v2_depth_duration_MTurk/v2_DepthDuration_HTML.html#24,24,2560,1440,2560,1440,8-21-2022,10-4-24,134,depth_duration_stimuli/002414_2014-06-28_20-24-58_260595134347_rgbf000067-resize_4/002414_2014-06-28_20-24-58_260595134347_rgbf000067-resize_4-target.png,125,4.363,9,1539,123,feet,jsons/VE125_randls_63.json,425093,588177,25,trangender woman
134,515034,DepthScenes,duration_manipulation_targetAtFixation,jsons/VE125_randls_63.json,http://54.235.29.9/FacialAge/BNav_EC2/DepthDuration/v2_depth_duration_MTurk/v2_DepthDuration_HTML.html#24,24,2560,1440,2560,1440,8-21-2022,10-4-24,135,depth_duration_stimuli/002072_2014-06-24_21-48-06_260595134347_rgbf000115-resize_0/002072_2014-06-24_21-48-06_260595134347_rgbf000115-resize-original.jpg,125,4.702,0,1485,123,feet,jsons/VE125_randls_63.json,425093,588177,25,trangender woman
135,515034,DepthScenes,duration_manipulation_targetAtFixation,jsons/VE125_randls_63.json,http://54.235.29.9/FacialAge/BNav_EC2/DepthDuration/v2_depth_duration_MTurk/v2_DepthDuration_HTML.html#24,24,2560,1440,2560,1440,8-21-2022,10-4-24,136,depth_duration_stimuli/000810_2014-06-08_17-20-01_260595134347_rgbf000105-resize_0/000810_2014-06-08_17-20-01_260595134347_rgbf000105-resize_0-target.png,125,1.4865,4,3505,123,feet,jsons/VE125_randls_63.json,425093,588177,25,trangender woman
136,515034,DepthScenes,duration_manipulation_targetAtFixation,jsons/VE125_randls_63.json,http://54.235.29.9/FacialAge/BNav_EC2/DepthDuration/v2_depth_duration_MTurk/v2_DepthDuration_HTML.html#24,24,2560,1440,2560,1440,8-21-2022,10-4-24,137,depth_duration_stimuli/001214_2014-06-17_16-13-55_260595134347_rgbf000111-resize_0/001214_2014-06-17_16-13-55_260595134347_rgbf000111-resize_0-target.png,125,2.6505,5,1848,124,feet,jsons/VE125_randls_63.json,425093,588177,25,trangender woman
137,515034,DepthScenes,duration_manipulation_targetAtFixation,jsons/VE125_randls_63.json,http://54.235.29.9/FacialAge/BNav_EC2/DepthDuration/v2_depth_duration_MTurk/v2_DepthDuration_HTML.html#24,24,2560,1440,2560,1440,8-21-2022,10-4-24,138,depth_duration_stimuli/002763_2014-06-22_19-13-10_094959634447_rgbf000075-resize_4/002763_2014-06-22_19-13-10_094959634447_rgbf000075-resize_4-target.png,125,1.68375,4,1835,124,feet,jsons/VE125_randls_63.json,425093,588177,25,trangender woman
138,515034,DepthScenes,duration_manipulation_targetAtFixation,jsons/VE125_randls_63.json,http://54.235.29.9/FacialAge/BNav_EC2/DepthDuration/v2_depth_duration_MTurk/v2_DepthDuration_HTML.html#24,24,2560,1440,2560,1440,8-21-2022,10-4-24,139,depth_duration_stimuli/002209_2014-06-28_18-36-10_260595134347_rgbf000051-resize_1/002209_2014-06-28_18-36-10_260595134347_rgbf000051-resize_1-target.png,125,2.057,4,1874,123,feet,jsons/VE125_randls_63.json,425093,588177,25,trangender woman
139,515034,DepthScenes,duration_manipulation_targetAtFixation,jsons/VE125_randls_63.json,http://54.235.29.9/FacialAge/BNav_EC2/DepthDuration/v2_depth_duration_MTurk/v2_DepthDuration_HTML.html#24,24,2560,1440,2560,1440,8-21-2022,10-4-24,140,depth_duration_stimuli/002570_2014-06-24_13-59-54_094959634447_rgbf000059-resize_0/002570_2014-06-24_13-59-54_094959634447_rgbf000059-resize_0-target.png,125,4.037,3,1683,123,feet,jsons/VE125_randls_63.json,425093,588177,25,trangender woman
140,515034,DepthScenes,duration_manipulation_targetAtFixation,jsons/VE125_randls_63.json,http://54.235.29.9/FacialAge/BNav_EC2/DepthDuration/v2_depth_duration_MTurk/v2_DepthDuration_HTML.html#24,24,2560,1440,2560,1440,8-21-2022,10-4-24,141,depth_duration_stimuli/002467_2014-06-28_20-38-07_260595134347_rgbf000026-resize_2/002467_2014-06-28_20-38-07_260595134347_rgbf000026-resize_2-target.png,125,4.742,3,1374,122,feet,jsons/VE125_randls_63.json,425093,588177,25,trangender woman
141,515034,DepthScenes,duration_manipulation_targetAtFixation,jsons/VE125_randls_63.json,http://54.235.29.9/FacialAge/BNav_EC2/DepthDuration/v2_depth_duration_MTurk/v2_DepthDuration_HTML.html#24,24,2560,1440,2560,1440,8-21-2022,10-4-24,142,depth_duration_stimuli/001164_2014-06-17_15-35-46_260595134347_rgbf000085-resize_3/001164_2014-06-17_15-35-46_260595134347_rgbf000085-resize_3-target.png,125,2.354,4,1288,124,feet,jsons/VE125_randls_63.json,425093,588177,25,trangender woman
142,515034,DepthScenes,duration_manipulation_targetAtFixation,jsons/VE125_randls_63.json,http://54.235.29.9/FacialAge/BNav_EC2/DepthDuration/v2_depth_duration_MTurk/v2_DepthDuration_HTML.html#24,24,2560,1440,2560,1440,8-21-2022,10-4-24,143,depth_duration_stimuli/001136_2014-06-17_15-19-41_260595134347_rgbf000076-resize_3/001136_2014-06-17_15-19-41_260595134347_rgbf000076-resize_3-target.png,125,1.8655,4,2135,124,feet,jsons/VE125_randls_63.json,425093,588177,25,trangender woman
143,515034,DepthScenes,duration_manipulation_targetAtFixation,jsons/VE125_randls_63.json,http://54.235.29.9/FacialAge/BNav_EC2/DepthDuration/v2_depth_duration_MTurk/v2_DepthDuration_HTML.html#24,24,2560,1440,2560,1440,8-21-2022,10-4-24,144,depth_duration_stimuli/000447_2014-06-08_16-15-46_260595134347_rgbf000130-resize_1/000447_2014-06-08_16-15-46_260595134347_rgbf000130-resize_1-target.png,125,4.479,3,1380,124,feet,jsons/VE125_randls_63.json,425093,588177,25,trangender woman
144,515034,DepthScenes,duration_manipulation_targetAtFixation,jsons/VE125_randls_63.json,http://54.235.29.9/FacialAge/BNav_EC2/DepthDuration/v2_depth_duration_MTurk/v2_DepthDuration_HTML.html#24,24,2560,1440,2560,1440,8-21-2022,10-4-24,145,depth_duration_stimuli/001447_2014-06-19_17-00-32_260595134347_rgbf000082-resize_5/001447_2014-06-19_17-00-32_260595134347_rgbf000082-resize_5-target.png,125,4.13775,8,2158,124,feet,jsons/VE125_randls_63.json,425093,588177,25,trangender woman
145,515034,DepthScenes,duration_manipulation_targetAtFixation,jsons/VE125_randls_63.json,http://54.235.29.9/FacialAge/BNav_EC2/DepthDuration/v2_depth_duration_MTurk/v2_DepthDuration_HTML.html#24,24,2560,1440,2560,1440,8-21-2022,10-4-24,146,depth_duration_stimuli/001498_2014-06-19_17-45-14_260595134347_rgbf000129-resize_4/001498_2014-06-19_17-45-14_260595134347_rgbf000129-resize-original.jpg,125,1.4075,0,2548,124,feet,jsons/VE125_randls_63.json,425093,588177,25,trangender woman
146,515034,DepthScenes,duration_manipulation_targetAtFixation,jsons/VE125_randls_63.json,http://54.235.29.9/FacialAge/BNav_EC2/DepthDuration/v2_depth_duration_MTurk/v2_DepthDuration_HTML.html#24,24,2560,1440,2560,1440,8-21-2022,10-4-24,147,depth_duration_stimuli/003621_2014-05-23_18-06-08_094959634447_rgbf000101-resize_1/003621_2014-05-23_18-06-08_094959634447_rgbf000101-resize_1-target.png,125,3.9835,8,1527,123,feet,jsons/VE125_randls_63.json,425093,588177,25,trangender woman
147,515034,DepthScenes,duration_manipulation_targetAtFixation,jsons/VE125_randls_63.json,http://54.235.29.9/FacialAge/BNav_EC2/DepthDuration/v2_depth_duration_MTurk/v2_DepthDuration_HTML.html#24,24,2560,1440,2560,1440,8-21-2022,10-4-24,148,depth_duration_stimuli/001584_2014-06-20_11-07-43_260595134347_rgbf000002-resize_1/001584_2014-06-20_11-07-43_260595134347_rgbf000002-resize_1-target.png,125,3.53,8,2538,123,feet,jsons/VE125_randls_63.json,425093,588177,25,trangender woman
148,515034,DepthScenes,duration_manipulation_targetAtFixation,jsons/VE125_randls_63.json,http://54.235.29.9/FacialAge/BNav_EC2/DepthDuration/v2_depth_duration_MTurk/v2_DepthDuration_HTML.html#24,24,2560,1440,2560,1440,8-21-2022,10-4-24,149,depth_duration_stimuli/002748_2014-06-22_19-07-22_094959634447_rgbf000078-resize_1/002748_2014-06-22_19-07-22_094959634447_rgbf000078-resize_1-target.png,125,4.6705,9,2069,123,feet,jsons/VE125_randls_63.json,425093,588177,25,trangender woman
149,515034,DepthScenes,duration_manipulation_targetAtFixation,jsons/VE125_randls_63.json,http://54.235.29.9/FacialAge/BNav_EC2/DepthDuration/v2_depth_duration_MTurk/v2_DepthDuration_HTML.html#24,24,2560,1440,2560,1440,8-21-2022,10-4-24,150,depth_duration_stimuli/002995_2014-06-15_12-31-26_094959634447_rgbf000150-resize_1/002995_2014-06-15_12-31-26_094959634447_rgbf000150-resize_1-target.png,125,3.8360000000000003,9,1805,123,feet,jsons/VE125_randls_63.json,425093,588177,25,trangender woman
150,515034,DepthScenes,duration_manipulation_targetAtFixation,jsons/VE125_randls_63.json,http://54.235.29.9/FacialAge/BNav_EC2/DepthDuration/v2_depth_duration_MTurk/v2_DepthDuration_HTML.html#24,24,2560,1440,2560,1440,8-21-2022,10-4-24,151,depth_duration_stimuli/001167_2014-06-17_15-38-07_260595134347_rgbf000108-resize_0/001167_2014-06-17_15-38-07_260595134347_rgbf000108-resize_0-target.png,125,1.8505,4,1262,123,feet,jsons/VE125_randls_63.json,425093,588177,25,trangender woman
151,515034,DepthScenes,duration_manipulation_targetAtFixation,jsons/VE125_randls_63.json,http://54.235.29.9/FacialAge/BNav_EC2/DepthDuration/v2_depth_duration_MTurk/v2_DepthDuration_HTML.html#24,24,2560,1440,2560,1440,8-21-2022,10-4-24,152,depth_duration_stimuli/003587_2014-05-23_16-48-02_094959634447_rgbf002384-resize_2/003587_2014-05-23_16-48-02_094959634447_rgbf002384-resize_2-target.png,125,1.357,3,1834,123,feet,jsons/VE125_randls_63.json,425093,588177,25,trangender woman
152,515034,DepthScenes,duration_manipulation_targetAtFixation,jsons/VE125_randls_63.json,http://54.235.29.9/FacialAge/BNav_EC2/DepthDuration/v2_depth_duration_MTurk/v2_DepthDuration_HTML.html#24,24,2560,1440,2560,1440,8-21-2022,10-4-24,153,depth_duration_stimuli/000906_2014-06-08_13-35-43_260595134347_rgbf000155-resize_1/000906_2014-06-08_13-35-43_260595134347_rgbf000155-resize_1-target.png,125,2.8489999999999998,9,1563,123,feet,jsons/VE125_randls_63.json,425093,588177,25,trangender woman
153,515034,DepthScenes,duration_manipulation_targetAtFixation,jsons/VE125_randls_63.json,http://54.235.29.9/FacialAge/BNav_EC2/DepthDuration/v2_depth_duration_MTurk/v2_DepthDuration_HTML.html#24,24,2560,1440,2560,1440,8-21-2022,10-4-24,154,depth_duration_stimuli/002805_2014-06-22_19-54-03_094959634447_rgbf000079-resize_1/002805_2014-06-22_19-54-03_094959634447_rgbf000079-resize_1-target.png,125,3.1439999999999997,9,1529,123,feet,jsons/VE125_randls_63.json,425093,588177,25,trangender woman
154,515034,DepthScenes,duration_manipulation_targetAtFixation,jsons/VE125_randls_63.json,http://54.235.29.9/FacialAge/BNav_EC2/DepthDuration/v2_depth_duration_MTurk/v2_DepthDuration_HTML.html#24,24,2560,1440,2560,1440,8-21-2022,10-4-24,155,depth_duration_stimuli/002600_2014-06-24_14-27-04_094959634447_rgbf000074-resize_2/002600_2014-06-24_14-27-04_094959634447_rgbf000074-resize_2-target.png,125,2.7575,2,2531,123,feet,jsons/VE125_randls_63.json,425093,588177,25,trangender woman
155,515034,DepthScenes,duration_manipulation_targetAtFixation,jsons/VE125_randls_63.json,http://54.235.29.9/FacialAge/BNav_EC2/DepthDuration/v2_depth_duration_MTurk/v2_DepthDuration_HTML.html#24,24,2560,1440,2560,1440,8-21-2022,10-4-24,156,depth_duration_stimuli/003228_2014-05-14_13-42-35_094959634447_rgbf000101-resize_1/003228_2014-05-14_13-42-35_094959634447_rgbf000101-resize_1-target.png,125,1.9680000000000002,4,1452,123,feet,jsons/VE125_randls_63.json,425093,588177,25,trangender woman
156,515034,DepthScenes,duration_manipulation_targetAtFixation,jsons/VE125_randls_63.json,http://54.235.29.9/FacialAge/BNav_EC2/DepthDuration/v2_depth_duration_MTurk/v2_DepthDuration_HTML.html#24,24,2560,1440,2560,1440,8-21-2022,10-4-24,157,depth_duration_stimuli/001810_2014-06-26_20-51-35_260595134347_rgbf000040-resize_3/001810_2014-06-26_20-51-35_260595134347_rgbf000040-resize_3-target.png,125,2.2525,4,1793,123,feet,jsons/VE125_randls_63.json,425093,588177,25,trangender woman
157,515034,DepthScenes,duration_manipulation_targetAtFixation,jsons/VE125_randls_63.json,http://54.235.29.9/FacialAge/BNav_EC2/DepthDuration/v2_depth_duration_MTurk/v2_DepthDuration_HTML.html#24,24,2560,1440,2560,1440,8-21-2022,10-4-24,158,depth_duration_stimuli/003010_2014-06-15_12-54-35_094959634447_rgbf000112-resize_0/003010_2014-06-15_12-54-35_094959634447_rgbf000112-resize_0-target.png,125,3.1185,6,1577,123,feet,jsons/VE125_randls_63.json,425093,588177,25,trangender woman
158,515034,DepthScenes,duration_manipulation_targetAtFixation,jsons/VE125_randls_63.json,http://54.235.29.9/FacialAge/BNav_EC2/DepthDuration/v2_depth_duration_MTurk/v2_DepthDuration_HTML.html#24,24,2560,1440,2560,1440,8-21-2022,10-4-24,159,depth_duration_stimuli/002509_2014-06-24_13-19-22_094959634447_rgbf000077-resize_0/002509_2014-06-24_13-19-22_094959634447_rgbf000077-resize_0-target.png,125,1.3065,3,1581,122,feet,jsons/VE125_randls_63.json,425093,588177,25,trangender woman
159,515034,DepthScenes,duration_manipulation_targetAtFixation,jsons/VE125_randls_63.json,http://54.235.29.9/FacialAge/BNav_EC2/DepthDuration/v2_depth_duration_MTurk/v2_DepthDuration_HTML.html#24,24,2560,1440,2560,1440,8-21-2022,10-4-24,160,depth_duration_stimuli/003338_2014-05-20_11-01-23_094959634447_rgbf000051-resize_6/003338_2014-05-20_11-01-23_094959634447_rgbf000051-resize_6-target.png,125,1.693,2,1559,123,feet,jsons/VE125_randls_63.json,425093,588177,25,trangender woman
160,515034,DepthScenes,duration_manipulation_targetAtFixation,jsons/VE125_randls_63.json,http://54.235.29.9/FacialAge/BNav_EC2/DepthDuration/v2_depth_duration_MTurk/v2_DepthDuration_HTML.html#24,24,2560,1440,2560,1440,8-21-2022,10-4-24,161,depth_duration_stimuli/000470_2014-06-09_19-42-40_260595134347_rgbf000094-resize_1/000470_2014-06-09_19-42-40_260595134347_rgbf000094-resize_1-target.png,125,1.831,3,2499,124,feet,jsons/VE125_randls_63.json,425093,588177,25,trangender woman
161,515034,DepthScenes,duration_manipulation_targetAtFixation,jsons/VE125_randls_63.json,http://54.235.29.9/FacialAge/BNav_EC2/DepthDuration/v2_depth_duration_MTurk/v2_DepthDuration_HTML.html#24,24,2560,1440,2560,1440,8-21-2022,10-4-24,162,depth_duration_stimuli/000109_2014-05-14_23-41-52_260595134347_rgbf000035-resize_9/000109_2014-05-14_23-41-52_260595134347_rgbf000035-resize_9-target.png,125,1.3545,3,2076,124,feet,jsons/VE125_randls_63.json,425093,588177,25,trangender woman
162,515034,DepthScenes,duration_manipulation_targetAtFixation,jsons/VE125_randls_63.json,http://54.235.29.9/FacialAge/BNav_EC2/DepthDuration/v2_depth_duration_MTurk/v2_DepthDuration_HTML.html#24,24,2560,1440,2560,1440,8-21-2022,10-4-24,163,depth_duration_stimuli/000414_2014-06-04_19-49-13_260595134347_rgbf000044-resize_0/000414_2014-06-04_19-49-13_260595134347_rgbf000044-resize_0-target.png,125,4.329,4,2333,124,feet,jsons/VE125_randls_63.json,425093,588177,25,trangender woman
163,515034,DepthScenes,duration_manipulation_targetAtFixation,jsons/VE125_randls_63.json,http://54.235.29.9/FacialAge/BNav_EC2/DepthDuration/v2_depth_duration_MTurk/v2_DepthDuration_HTML.html#24,24,2560,1440,2560,1440,8-21-2022,10-4-24,164,depth_duration_stimuli/003129_2014-05-12_10-48-10_094959634447_rgbf000100-resize_0/003129_2014-05-12_10-48-10_094959634447_rgbf000100-resize_0-target.png,125,4.9305,3,1551,123,feet,jsons/VE125_randls_63.json,425093,588177,25,trangender woman
