,subjID,experimentName,versionName,sequenceName,url,selected_row,windowWidth,windowHeight,screenWidth,screenHeight,startDate,startTime,trial,stimulus,duration,actual_depth,depth_estimate,trial_RT,log_sceneDuration,unitSelection,seq_filepath,experimentTime,totalTime,age,gender
0,521471,DepthScenes,duration_manipulation_targetAtFixation,jsons/VE125_randls_36_rotated.json,http://54.235.29.9/FacialAge/BNav_EC2/DepthDuration/v2_depth_duration_MTurk/v2_DepthDuration_HTML.html#188,188,1364,625,1364,768,8-29-2022,13-24-57,1,depth_duration_stimuli/002750_2014-06-22_19-08-03_094959634447_rgbf000094-resize_4/002750_2014-06-22_19-08-03_094959634447_rgbf000094-resize_4-target.png,125,2.354,1,2929,145,meters,jsons/VE125_randls_36_rotated.json,1295703,1524830,35,Man
1,521471,DepthScenes,duration_manipulation_targetAtFixation,jsons/VE125_randls_36_rotated.json,http://54.235.29.9/FacialAge/BNav_EC2/DepthDuration/v2_depth_duration_MTurk/v2_DepthDuration_HTML.html#188,188,1364,625,1364,768,8-29-2022,13-24-57,2,depth_duration_stimuli/002549_2014-06-24_13-41-39_094959634447_rgbf000022-resize_3/002549_2014-06-24_13-41-39_094959634447_rgbf000022-resize_3-target.png,125,1.476,0,3378,107,meters,jsons/VE125_randls_36_rotated.json,1295703,1524830,35,Man
2,521471,DepthScenes,duration_manipulation_targetAtFixation,jsons/VE125_randls_36_rotated.json,http://54.235.29.9/FacialAge/BNav_EC2/DepthDuration/v2_depth_duration_MTurk/v2_DepthDuration_HTML.html#188,188,1364,625,1364,768,8-29-2022,13-24-57,3,depth_duration_stimuli/003490_2014-05-21_15-50-11_094959634447_rgbf000101-resize_3/003490_2014-05-21_15-50-11_094959634447_rgbf000101-resize_3-target.png,125,3.6445,1,4921,128,meters,jsons/VE125_randls_36_rotated.json,1295703,1524830,35,Man
3,521471,DepthScenes,duration_manipulation_targetAtFixation,jsons/VE125_randls_36_rotated.json,http://54.235.29.9/FacialAge/BNav_EC2/DepthDuration/v2_depth_duration_MTurk/v2_DepthDuration_HTML.html#188,188,1364,625,1364,768,8-29-2022,13-24-57,4,depth_duration_stimuli/001175_2014-06-17_15-45-55_260595134347_rgbf000129-resize_4/001175_2014-06-17_15-45-55_260595134347_rgbf000129-resize_4-target.png,125,4.255,1,2648,113,meters,jsons/VE125_randls_36_rotated.json,1295703,1524830,35,Man
4,521471,DepthScenes,duration_manipulation_targetAtFixation,jsons/VE125_randls_36_rotated.json,http://54.235.29.9/FacialAge/BNav_EC2/DepthDuration/v2_depth_duration_MTurk/v2_DepthDuration_HTML.html#188,188,1364,625,1364,768,8-29-2022,13-24-57,5,depth_duration_stimuli/003495_2014-05-21_16-01-51_094959634447_rgbf000100-resize_3/003495_2014-05-21_16-01-51_094959634447_rgbf000100-resize_3-target.png,125,1.6255,1,2698,122,meters,jsons/VE125_randls_36_rotated.json,1295703,1524830,35,Man
5,521471,DepthScenes,duration_manipulation_targetAtFixation,jsons/VE125_randls_36_rotated.json,http://54.235.29.9/FacialAge/BNav_EC2/DepthDuration/v2_depth_duration_MTurk/v2_DepthDuration_HTML.html#188,188,1364,625,1364,768,8-29-2022,13-24-57,6,depth_duration_stimuli/001244_2014-06-17_16-47-45_260595134347_rgbf000030-resize_4/001244_2014-06-17_16-47-45_260595134347_rgbf000030-resize_4-target.png,125,2.0425,1,13836,130,meters,jsons/VE125_randls_36_rotated.json,1295703,1524830,35,Man
6,521471,DepthScenes,duration_manipulation_targetAtFixation,jsons/VE125_randls_36_rotated.json,http://54.235.29.9/FacialAge/BNav_EC2/DepthDuration/v2_depth_duration_MTurk/v2_DepthDuration_HTML.html#188,188,1364,625,1364,768,8-29-2022,13-24-57,7,depth_duration_stimuli/001571_2014-06-20_17-21-32_260595134347_rgbf000089-resize_1/001571_2014-06-20_17-21-32_260595134347_rgbf000089-resize_1-target.png,125,1.86,1,3637,140,meters,jsons/VE125_randls_36_rotated.json,1295703,1524830,35,Man
7,521471,DepthScenes,duration_manipulation_targetAtFixation,jsons/VE125_randls_36_rotated.json,http://54.235.29.9/FacialAge/BNav_EC2/DepthDuration/v2_depth_duration_MTurk/v2_DepthDuration_HTML.html#188,188,1364,625,1364,768,8-29-2022,13-24-57,8,depth_duration_stimuli/002272_2014-06-28_18-53-56_260595134347_rgbf000067-resize_2/002272_2014-06-28_18-53-56_260595134347_rgbf000067-resize_2-target.png,125,1.138,1,3804,132,meters,jsons/VE125_randls_36_rotated.json,1295703,1524830,35,Man
8,521471,DepthScenes,duration_manipulation_targetAtFixation,jsons/VE125_randls_36_rotated.json,http://54.235.29.9/FacialAge/BNav_EC2/DepthDuration/v2_depth_duration_MTurk/v2_DepthDuration_HTML.html#188,188,1364,625,1364,768,8-29-2022,13-24-57,9,depth_duration_stimuli/002103_2014-06-25_20-00-40_260595134347_rgbf000049-resize_0/002103_2014-06-25_20-00-40_260595134347_rgbf000049-resize_0-target.png,125,4.105,1,4552,79,meters,jsons/VE125_randls_36_rotated.json,1295703,1524830,35,Man
9,521471,DepthScenes,duration_manipulation_targetAtFixation,jsons/VE125_randls_36_rotated.json,http://54.235.29.9/FacialAge/BNav_EC2/DepthDuration/v2_depth_duration_MTurk/v2_DepthDuration_HTML.html#188,188,1364,625,1364,768,8-29-2022,13-24-57,10,depth_duration_stimuli/002039_2014-06-24_20-22-38_260595134347_rgbf000084-resize_1/002039_2014-06-24_20-22-38_260595134347_rgbf000084-resize_1-target.png,125,4.408,1,8503,93,meters,jsons/VE125_randls_36_rotated.json,1295703,1524830,35,Man
10,521471,DepthScenes,duration_manipulation_targetAtFixation,jsons/VE125_randls_36_rotated.json,http://54.235.29.9/FacialAge/BNav_EC2/DepthDuration/v2_depth_duration_MTurk/v2_DepthDuration_HTML.html#188,188,1364,625,1364,768,8-29-2022,13-24-57,11,depth_duration_stimuli/002657_2014-06-13_15-29-54_094959634447_rgbf000150-resize_1/002657_2014-06-13_15-29-54_094959634447_rgbf000150-resize_1-target.png,125,4.919,1,54876,83,meters,jsons/VE125_randls_36_rotated.json,1295703,1524830,35,Man
11,521471,DepthScenes,duration_manipulation_targetAtFixation,jsons/VE125_randls_36_rotated.json,http://54.235.29.9/FacialAge/BNav_EC2/DepthDuration/v2_depth_duration_MTurk/v2_DepthDuration_HTML.html#188,188,1364,625,1364,768,8-29-2022,13-24-57,12,depth_duration_stimuli/002375_2014-06-28_20-13-44_260595134347_rgbf000032-resize_1/002375_2014-06-28_20-13-44_260595134347_rgbf000032-resize_1-target.png,125,4.0175,1,3315,118,meters,jsons/VE125_randls_36_rotated.json,1295703,1524830,35,Man
12,521471,DepthScenes,duration_manipulation_targetAtFixation,jsons/VE125_randls_36_rotated.json,http://54.235.29.9/FacialAge/BNav_EC2/DepthDuration/v2_depth_duration_MTurk/v2_DepthDuration_HTML.html#188,188,1364,625,1364,768,8-29-2022,13-24-57,13,depth_duration_stimuli/002758_2014-06-22_19-11-20_094959634447_rgbf000128-resize_1/002758_2014-06-22_19-11-20_094959634447_rgbf000128-resize_1-target.png,125,2.555,1,3669,124,meters,jsons/VE125_randls_36_rotated.json,1295703,1524830,35,Man
13,521471,DepthScenes,duration_manipulation_targetAtFixation,jsons/VE125_randls_36_rotated.json,http://54.235.29.9/FacialAge/BNav_EC2/DepthDuration/v2_depth_duration_MTurk/v2_DepthDuration_HTML.html#188,188,1364,625,1364,768,8-29-2022,13-24-57,14,depth_duration_stimuli/002630_2014-06-24_14-47-50_094959634447_rgbf000055-resize_1/002630_2014-06-24_14-47-50_094959634447_rgbf000055-resize_1-target.png,125,3.0095,1,2804,476,meters,jsons/VE125_randls_36_rotated.json,1295703,1524830,35,Man
14,521471,DepthScenes,duration_manipulation_targetAtFixation,jsons/VE125_randls_36_rotated.json,http://54.235.29.9/FacialAge/BNav_EC2/DepthDuration/v2_depth_duration_MTurk/v2_DepthDuration_HTML.html#188,188,1364,625,1364,768,8-29-2022,13-24-57,15,depth_duration_stimuli/002340_2014-06-28_20-05-46_260595134347_rgbf000113-resize_0/002340_2014-06-28_20-05-46_260595134347_rgbf000113-resize_0-target.png,125,2.4735,1,2774,125,meters,jsons/VE125_randls_36_rotated.json,1295703,1524830,35,Man
15,521471,DepthScenes,duration_manipulation_targetAtFixation,jsons/VE125_randls_36_rotated.json,http://54.235.29.9/FacialAge/BNav_EC2/DepthDuration/v2_depth_duration_MTurk/v2_DepthDuration_HTML.html#188,188,1364,625,1364,768,8-29-2022,13-24-57,16,depth_duration_stimuli/001016_2014-06-09_16-16-10_260595134347_rgbf000112-resize_5/001016_2014-06-09_16-16-10_260595134347_rgbf000112-resize_5-target.png,125,1.6565,1,5065,125,meters,jsons/VE125_randls_36_rotated.json,1295703,1524830,35,Man
16,521471,DepthScenes,duration_manipulation_targetAtFixation,jsons/VE125_randls_36_rotated.json,http://54.235.29.9/FacialAge/BNav_EC2/DepthDuration/v2_depth_duration_MTurk/v2_DepthDuration_HTML.html#188,188,1364,625,1364,768,8-29-2022,13-24-57,17,depth_duration_stimuli/000502_2014-06-08_23-02-32_260595134347_rgbf000063-resize_4/000502_2014-06-08_23-02-32_260595134347_rgbf000063-resize_4-target.png,125,2.431,1,3328,177,meters,jsons/VE125_randls_36_rotated.json,1295703,1524830,35,Man
17,521471,DepthScenes,duration_manipulation_targetAtFixation,jsons/VE125_randls_36_rotated.json,http://54.235.29.9/FacialAge/BNav_EC2/DepthDuration/v2_depth_duration_MTurk/v2_DepthDuration_HTML.html#188,188,1364,625,1364,768,8-29-2022,13-24-57,18,depth_duration_stimuli/001199_2014-06-17_16-03-48_260595134347_rgbf000077-resize_0/001199_2014-06-17_16-03-48_260595134347_rgbf000077-resize_0-target.png,125,3.4375,1,7827,124,meters,jsons/VE125_randls_36_rotated.json,1295703,1524830,35,Man
18,521471,DepthScenes,duration_manipulation_targetAtFixation,jsons/VE125_randls_36_rotated.json,http://54.235.29.9/FacialAge/BNav_EC2/DepthDuration/v2_depth_duration_MTurk/v2_DepthDuration_HTML.html#188,188,1364,625,1364,768,8-29-2022,13-24-57,19,depth_duration_stimuli/001498_2014-06-19_17-45-14_260595134347_rgbf000129-resize_4/001498_2014-06-19_17-45-14_260595134347_rgbf000129-resize-original.jpg,125,1.4075,1,16029,108,meters,jsons/VE125_randls_36_rotated.json,1295703,1524830,35,Man
19,521471,DepthScenes,duration_manipulation_targetAtFixation,jsons/VE125_randls_36_rotated.json,http://54.235.29.9/FacialAge/BNav_EC2/DepthDuration/v2_depth_duration_MTurk/v2_DepthDuration_HTML.html#188,188,1364,625,1364,768,8-29-2022,13-24-57,20,depth_duration_stimuli/000191_2014-05-12_17-07-38_260595134347_rgbf000199-resize_0/000191_2014-05-12_17-07-38_260595134347_rgbf000199-resize_0-target.png,125,3.7995,1,2731,110,meters,jsons/VE125_randls_36_rotated.json,1295703,1524830,35,Man
20,521471,DepthScenes,duration_manipulation_targetAtFixation,jsons/VE125_randls_36_rotated.json,http://54.235.29.9/FacialAge/BNav_EC2/DepthDuration/v2_depth_duration_MTurk/v2_DepthDuration_HTML.html#188,188,1364,625,1364,768,8-29-2022,13-24-57,21,depth_duration_stimuli/000493_2014-06-09_21-01-18_260595134347_rgbf000196-resize_3/000493_2014-06-09_21-01-18_260595134347_rgbf000196-resize_3-target.png,125,3.44,1,3182,96,meters,jsons/VE125_randls_36_rotated.json,1295703,1524830,35,Man
21,521471,DepthScenes,duration_manipulation_targetAtFixation,jsons/VE125_randls_36_rotated.json,http://54.235.29.9/FacialAge/BNav_EC2/DepthDuration/v2_depth_duration_MTurk/v2_DepthDuration_HTML.html#188,188,1364,625,1364,768,8-29-2022,13-24-57,22,depth_duration_stimuli/002995_2014-06-15_12-31-26_094959634447_rgbf000150-resize_1/002995_2014-06-15_12-31-26_094959634447_rgbf000150-resize_1-target.png,125,3.8360000000000003,1,3280,117,meters,jsons/VE125_randls_36_rotated.json,1295703,1524830,35,Man
22,521471,DepthScenes,duration_manipulation_targetAtFixation,jsons/VE125_randls_36_rotated.json,http://54.235.29.9/FacialAge/BNav_EC2/DepthDuration/v2_depth_duration_MTurk/v2_DepthDuration_HTML.html#188,188,1364,625,1364,768,8-29-2022,13-24-57,23,depth_duration_stimuli/002748_2014-06-22_19-07-22_094959634447_rgbf000078-resize_1/002748_2014-06-22_19-07-22_094959634447_rgbf000078-resize_1-target.png,125,4.6705,1,2665,125,meters,jsons/VE125_randls_36_rotated.json,1295703,1524830,35,Man
23,521471,DepthScenes,duration_manipulation_targetAtFixation,jsons/VE125_randls_36_rotated.json,http://54.235.29.9/FacialAge/BNav_EC2/DepthDuration/v2_depth_duration_MTurk/v2_DepthDuration_HTML.html#188,188,1364,625,1364,768,8-29-2022,13-24-57,24,depth_duration_stimuli/001094_2014-06-15_17-36-00_260595134347_rgbf000205-resize_0/001094_2014-06-15_17-36-00_260595134347_rgbf000205-resize_0-target.png,125,4.2175,1,3470,121,meters,jsons/VE125_randls_36_rotated.json,1295703,1524830,35,Man
24,521471,DepthScenes,duration_manipulation_targetAtFixation,jsons/VE125_randls_36_rotated.json,http://54.235.29.9/FacialAge/BNav_EC2/DepthDuration/v2_depth_duration_MTurk/v2_DepthDuration_HTML.html#188,188,1364,625,1364,768,8-29-2022,13-24-57,25,depth_duration_stimuli/000692_2014-06-08_13-09-42_260595134347_rgbf000199-resize_2/000692_2014-06-08_13-09-42_260595134347_rgbf000199-resize_2-target.png,125,3.661,1,7506,125,meters,jsons/VE125_randls_36_rotated.json,1295703,1524830,35,Man
25,521471,DepthScenes,duration_manipulation_targetAtFixation,jsons/VE125_randls_36_rotated.json,http://54.235.29.9/FacialAge/BNav_EC2/DepthDuration/v2_depth_duration_MTurk/v2_DepthDuration_HTML.html#188,188,1364,625,1364,768,8-29-2022,13-24-57,26,depth_duration_stimuli/002639_2014-06-24_14-51-37_094959634447_rgbf000074-resize_4/002639_2014-06-24_14-51-37_094959634447_rgbf000074-resize_4-target.png,125,4.0375,1,3162,116,meters,jsons/VE125_randls_36_rotated.json,1295703,1524830,35,Man
26,521471,DepthScenes,duration_manipulation_targetAtFixation,jsons/VE125_randls_36_rotated.json,http://54.235.29.9/FacialAge/BNav_EC2/DepthDuration/v2_depth_duration_MTurk/v2_DepthDuration_HTML.html#188,188,1364,625,1364,768,8-29-2022,13-24-57,27,depth_duration_stimuli/003292_2014-05-14_21-53-49_094959634447_rgbf000100-resize_2/003292_2014-05-14_21-53-49_094959634447_rgbf000100-resize_2-target.png,125,3.4815,1,2996,73,meters,jsons/VE125_randls_36_rotated.json,1295703,1524830,35,Man
27,521471,DepthScenes,duration_manipulation_targetAtFixation,jsons/VE125_randls_36_rotated.json,http://54.235.29.9/FacialAge/BNav_EC2/DepthDuration/v2_depth_duration_MTurk/v2_DepthDuration_HTML.html#188,188,1364,625,1364,768,8-29-2022,13-24-57,28,depth_duration_stimuli/000409_2014-06-04_19-23-33_260595134347_rgbf000067-resize_0/000409_2014-06-04_19-23-33_260595134347_rgbf000067-resize_0-target.png,125,3.7335,1,5742,132,meters,jsons/VE125_randls_36_rotated.json,1295703,1524830,35,Man
28,521471,DepthScenes,duration_manipulation_targetAtFixation,jsons/VE125_randls_36_rotated.json,http://54.235.29.9/FacialAge/BNav_EC2/DepthDuration/v2_depth_duration_MTurk/v2_DepthDuration_HTML.html#188,188,1364,625,1364,768,8-29-2022,13-24-57,29,depth_duration_stimuli/002663_2014-06-13_15-50-26_094959634447_rgbf000075-resize_1/002663_2014-06-13_15-50-26_094959634447_rgbf000075-resize_1-target.png,125,4.7495,1,3642,125,meters,jsons/VE125_randls_36_rotated.json,1295703,1524830,35,Man
29,521471,DepthScenes,duration_manipulation_targetAtFixation,jsons/VE125_randls_36_rotated.json,http://54.235.29.9/FacialAge/BNav_EC2/DepthDuration/v2_depth_duration_MTurk/v2_DepthDuration_HTML.html#188,188,1364,625,1364,768,8-29-2022,13-24-57,30,depth_duration_stimuli/002072_2014-06-24_21-48-06_260595134347_rgbf000115-resize_0/002072_2014-06-24_21-48-06_260595134347_rgbf000115-resize-original.jpg,125,4.702,1,3892,121,meters,jsons/VE125_randls_36_rotated.json,1295703,1524830,35,Man
30,521471,DepthScenes,duration_manipulation_targetAtFixation,jsons/VE125_randls_36_rotated.json,http://54.235.29.9/FacialAge/BNav_EC2/DepthDuration/v2_depth_duration_MTurk/v2_DepthDuration_HTML.html#188,188,1364,625,1364,768,8-29-2022,13-24-57,31,depth_duration_stimuli/000109_2014-05-14_23-41-52_260595134347_rgbf000035-resize_9/000109_2014-05-14_23-41-52_260595134347_rgbf000035-resize_9-target.png,125,1.3545,1,36706,117,meters,jsons/VE125_randls_36_rotated.json,1295703,1524830,35,Man
31,521471,DepthScenes,duration_manipulation_targetAtFixation,jsons/VE125_randls_36_rotated.json,http://54.235.29.9/FacialAge/BNav_EC2/DepthDuration/v2_depth_duration_MTurk/v2_DepthDuration_HTML.html#188,188,1364,625,1364,768,8-29-2022,13-24-57,32,depth_duration_stimuli/000470_2014-06-09_19-42-40_260595134347_rgbf000094-resize_1/000470_2014-06-09_19-42-40_260595134347_rgbf000094-resize_1-target.png,125,1.831,0,11066,368,meters,jsons/VE125_randls_36_rotated.json,1295703,1524830,35,Man
32,521471,DepthScenes,duration_manipulation_targetAtFixation,jsons/VE125_randls_36_rotated.json,http://54.235.29.9/FacialAge/BNav_EC2/DepthDuration/v2_depth_duration_MTurk/v2_DepthDuration_HTML.html#188,188,1364,625,1364,768,8-29-2022,13-24-57,33,depth_duration_stimuli/001650_2014-06-20_12-09-00_260595134347_rgbf000087-resize_3/001650_2014-06-20_12-09-00_260595134347_rgbf000087-resize_3-target.png,125,1.9505,1,5706,26,meters,jsons/VE125_randls_36_rotated.json,1295703,1524830,35,Man
33,521471,DepthScenes,duration_manipulation_targetAtFixation,jsons/VE125_randls_36_rotated.json,http://54.235.29.9/FacialAge/BNav_EC2/DepthDuration/v2_depth_duration_MTurk/v2_DepthDuration_HTML.html#188,188,1364,625,1364,768,8-29-2022,13-24-57,34,depth_duration_stimuli/000682_2014-06-08_23-14-58_260595134347_rgbf000041-resize_5/000682_2014-06-08_23-14-58_260595134347_rgbf000041-resize_5-target.png,125,2.7239999999999998,0,3371,116,meters,jsons/VE125_randls_36_rotated.json,1295703,1524830,35,Man
34,521471,DepthScenes,duration_manipulation_targetAtFixation,jsons/VE125_randls_36_rotated.json,http://54.235.29.9/FacialAge/BNav_EC2/DepthDuration/v2_depth_duration_MTurk/v2_DepthDuration_HTML.html#188,188,1364,625,1364,768,8-29-2022,13-24-57,35,depth_duration_stimuli/000103_2014-05-14_22-01-17_260595134347_rgbf000152-resize_5/000103_2014-05-14_22-01-17_260595134347_rgbf000152-resize_5-target.png,125,1.993,1,3954,123,meters,jsons/VE125_randls_36_rotated.json,1295703,1524830,35,Man
35,521471,DepthScenes,duration_manipulation_targetAtFixation,jsons/VE125_randls_36_rotated.json,http://54.235.29.9/FacialAge/BNav_EC2/DepthDuration/v2_depth_duration_MTurk/v2_DepthDuration_HTML.html#188,188,1364,625,1364,768,8-29-2022,13-24-57,36,depth_duration_stimuli/001555_2014-06-20_17-12-10_260595134347_rgbf000065-resize_4/001555_2014-06-20_17-12-10_260595134347_rgbf000065-resize_4-target.png,125,1.633,1,13859,123,meters,jsons/VE125_randls_36_rotated.json,1295703,1524830,35,Man
36,521471,DepthScenes,duration_manipulation_targetAtFixation,jsons/VE125_randls_36_rotated.json,http://54.235.29.9/FacialAge/BNav_EC2/DepthDuration/v2_depth_duration_MTurk/v2_DepthDuration_HTML.html#188,188,1364,625,1364,768,8-29-2022,13-24-57,37,depth_duration_stimuli/001214_2014-06-17_16-13-55_260595134347_rgbf000111-resize_0/001214_2014-06-17_16-13-55_260595134347_rgbf000111-resize_0-target.png,125,2.6505,1,3938,27,meters,jsons/VE125_randls_36_rotated.json,1295703,1524830,35,Man
37,521471,DepthScenes,duration_manipulation_targetAtFixation,jsons/VE125_randls_36_rotated.json,http://54.235.29.9/FacialAge/BNav_EC2/DepthDuration/v2_depth_duration_MTurk/v2_DepthDuration_HTML.html#188,188,1364,625,1364,768,8-29-2022,13-24-57,38,depth_duration_stimuli/000810_2014-06-08_17-20-01_260595134347_rgbf000105-resize_0/000810_2014-06-08_17-20-01_260595134347_rgbf000105-resize_0-target.png,125,1.4865,0,7297,149,meters,jsons/VE125_randls_36_rotated.json,1295703,1524830,35,Man
38,521471,DepthScenes,duration_manipulation_targetAtFixation,jsons/VE125_randls_36_rotated.json,http://54.235.29.9/FacialAge/BNav_EC2/DepthDuration/v2_depth_duration_MTurk/v2_DepthDuration_HTML.html#188,188,1364,625,1364,768,8-29-2022,13-24-57,39,depth_duration_stimuli/000677_2014-06-08_23-10-32_260595134347_rgbf000158-resize_6/000677_2014-06-08_23-10-32_260595134347_rgbf000158-resize_6-target.png,125,3.556,1,3130,208,meters,jsons/VE125_randls_36_rotated.json,1295703,1524830,35,Man
39,521471,DepthScenes,duration_manipulation_targetAtFixation,jsons/VE125_randls_36_rotated.json,http://54.235.29.9/FacialAge/BNav_EC2/DepthDuration/v2_depth_duration_MTurk/v2_DepthDuration_HTML.html#188,188,1364,625,1364,768,8-29-2022,13-24-57,40,depth_duration_stimuli/001029_2014-06-08_13-17-57_260595134347_rgbf000065-resize_1/001029_2014-06-08_13-17-57_260595134347_rgbf000065-resize_1-target.png,125,3.0835,1,14178,122,meters,jsons/VE125_randls_36_rotated.json,1295703,1524830,35,Man
40,521471,DepthScenes,duration_manipulation_targetAtFixation,jsons/VE125_randls_36_rotated.json,http://54.235.29.9/FacialAge/BNav_EC2/DepthDuration/v2_depth_duration_MTurk/v2_DepthDuration_HTML.html#188,188,1364,625,1364,768,8-29-2022,13-24-57,41,depth_duration_stimuli/002637_2014-06-24_14-51-13_094959634447_rgbf000066-resize_4/002637_2014-06-24_14-51-13_094959634447_rgbf000066-resize_4-target.png,125,1.9955,1,4056,125,meters,jsons/VE125_randls_36_rotated.json,1295703,1524830,35,Man
41,521471,DepthScenes,duration_manipulation_targetAtFixation,jsons/VE125_randls_36_rotated.json,http://54.235.29.9/FacialAge/BNav_EC2/DepthDuration/v2_depth_duration_MTurk/v2_DepthDuration_HTML.html#188,188,1364,625,1364,768,8-29-2022,13-24-57,42,depth_duration_stimuli/003534_2014-05-22_15-06-10_094959634447_rgbf000102-resize_4/003534_2014-05-22_15-06-10_094959634447_rgbf000102-resize_4-target.png,125,1.426,0,30059,124,meters,jsons/VE125_randls_36_rotated.json,1295703,1524830,35,Man
42,521471,DepthScenes,duration_manipulation_targetAtFixation,jsons/VE125_randls_36_rotated.json,http://54.235.29.9/FacialAge/BNav_EC2/DepthDuration/v2_depth_duration_MTurk/v2_DepthDuration_HTML.html#188,188,1364,625,1364,768,8-29-2022,13-24-57,43,depth_duration_stimuli/001584_2014-06-20_11-07-43_260595134347_rgbf000002-resize_1/001584_2014-06-20_11-07-43_260595134347_rgbf000002-resize_1-target.png,125,3.53,1,3323,103,meters,jsons/VE125_randls_36_rotated.json,1295703,1524830,35,Man
43,521471,DepthScenes,duration_manipulation_targetAtFixation,jsons/VE125_randls_36_rotated.json,http://54.235.29.9/FacialAge/BNav_EC2/DepthDuration/v2_depth_duration_MTurk/v2_DepthDuration_HTML.html#188,188,1364,625,1364,768,8-29-2022,13-24-57,44,depth_duration_stimuli/003621_2014-05-23_18-06-08_094959634447_rgbf000101-resize_1/003621_2014-05-23_18-06-08_094959634447_rgbf000101-resize_1-target.png,125,3.9835,1,12838,98,meters,jsons/VE125_randls_36_rotated.json,1295703,1524830,35,Man
44,521471,DepthScenes,duration_manipulation_targetAtFixation,jsons/VE125_randls_36_rotated.json,http://54.235.29.9/FacialAge/BNav_EC2/DepthDuration/v2_depth_duration_MTurk/v2_DepthDuration_HTML.html#188,188,1364,625,1364,768,8-29-2022,13-24-57,45,depth_duration_stimuli/002678_2014-06-13_16-15-32_094959634447_rgbf000151-resize_6/002678_2014-06-13_16-15-32_094959634447_rgbf000151-resize_6-target.png,125,2.1830000000000003,1,5498,116,meters,jsons/VE125_randls_36_rotated.json,1295703,1524830,35,Man
45,521471,DepthScenes,duration_manipulation_targetAtFixation,jsons/VE125_randls_36_rotated.json,http://54.235.29.9/FacialAge/BNav_EC2/DepthDuration/v2_depth_duration_MTurk/v2_DepthDuration_HTML.html#188,188,1364,625,1364,768,8-29-2022,13-24-57,46,depth_duration_stimuli/000368_2014-06-09_15-53-01_260595134347_rgbf000155-resize_2/000368_2014-06-09_15-53-01_260595134347_rgbf000155-resize_2-target.png,125,2.4859999999999998,1,4054,124,meters,jsons/VE125_randls_36_rotated.json,1295703,1524830,35,Man
46,521471,DepthScenes,duration_manipulation_targetAtFixation,jsons/VE125_randls_36_rotated.json,http://54.235.29.9/FacialAge/BNav_EC2/DepthDuration/v2_depth_duration_MTurk/v2_DepthDuration_HTML.html#188,188,1364,625,1364,768,8-29-2022,13-24-57,47,depth_duration_stimuli/003083_2014-06-15_15-21-03_094959634447_rgbf000063-resize_1/003083_2014-06-15_15-21-03_094959634447_rgbf000063-resize_1-target.png,125,4.1405,1,6875,223,meters,jsons/VE125_randls_36_rotated.json,1295703,1524830,35,Man
47,521471,DepthScenes,duration_manipulation_targetAtFixation,jsons/VE125_randls_36_rotated.json,http://54.235.29.9/FacialAge/BNav_EC2/DepthDuration/v2_depth_duration_MTurk/v2_DepthDuration_HTML.html#188,188,1364,625,1364,768,8-29-2022,13-24-57,48,depth_duration_stimuli/000486_2014-06-09_20-47-20_260595134347_rgbf000143-resize_2/000486_2014-06-09_20-47-20_260595134347_rgbf000143-resize_2-target.png,125,4.8325,1,3046,120,meters,jsons/VE125_randls_36_rotated.json,1295703,1524830,35,Man
48,521471,DepthScenes,duration_manipulation_targetAtFixation,jsons/VE125_randls_36_rotated.json,http://54.235.29.9/FacialAge/BNav_EC2/DepthDuration/v2_depth_duration_MTurk/v2_DepthDuration_HTML.html#188,188,1364,625,1364,768,8-29-2022,13-24-57,49,depth_duration_stimuli/001170_2014-06-17_15-43-44_260595134347_rgbf000096-resize_6/001170_2014-06-17_15-43-44_260595134347_rgbf000096-resize-original.jpg,125,1.1909999999999998,0,4186,219,meters,jsons/VE125_randls_36_rotated.json,1295703,1524830,35,Man
49,521471,DepthScenes,duration_manipulation_targetAtFixation,jsons/VE125_randls_36_rotated.json,http://54.235.29.9/FacialAge/BNav_EC2/DepthDuration/v2_depth_duration_MTurk/v2_DepthDuration_HTML.html#188,188,1364,625,1364,768,8-29-2022,13-24-57,50,depth_duration_stimuli/000709_2014-06-08_13-51-55_260595134347_rgbf000068-resize_3/000709_2014-06-08_13-51-55_260595134347_rgbf000068-resize_3-target.png,125,1.8030000000000002,0,23635,123,meters,jsons/VE125_randls_36_rotated.json,1295703,1524830,35,Man
50,521471,DepthScenes,duration_manipulation_targetAtFixation,jsons/VE125_randls_36_rotated.json,http://54.235.29.9/FacialAge/BNav_EC2/DepthDuration/v2_depth_duration_MTurk/v2_DepthDuration_HTML.html#188,188,1364,625,1364,768,8-29-2022,13-24-57,51,depth_duration_stimuli/002057_2014-06-24_21-00-13_260595134347_rgbf000120-resize_1/002057_2014-06-24_21-00-13_260595134347_rgbf000120-resize_1-target.png,125,2.967,1,3207,110,meters,jsons/VE125_randls_36_rotated.json,1295703,1524830,35,Man
51,521471,DepthScenes,duration_manipulation_targetAtFixation,jsons/VE125_randls_36_rotated.json,http://54.235.29.9/FacialAge/BNav_EC2/DepthDuration/v2_depth_duration_MTurk/v2_DepthDuration_HTML.html#188,188,1364,625,1364,768,8-29-2022,13-24-57,52,depth_duration_stimuli/002444_2014-06-28_20-32-08_260595134347_rgbf000027-resize_0/002444_2014-06-28_20-32-08_260595134347_rgbf000027-resize_0-target.png,125,4.388999999999999,1,6651,123,meters,jsons/VE125_randls_36_rotated.json,1295703,1524830,35,Man
52,521471,DepthScenes,duration_manipulation_targetAtFixation,jsons/VE125_randls_36_rotated.json,http://54.235.29.9/FacialAge/BNav_EC2/DepthDuration/v2_depth_duration_MTurk/v2_DepthDuration_HTML.html#188,188,1364,625,1364,768,8-29-2022,13-24-57,53,depth_duration_stimuli/000436_2014-06-09_22-25-11_260595134347_rgbf000137-resize_1/000436_2014-06-09_22-25-11_260595134347_rgbf000137-resize_1-target.png,125,4.0705,0,15611,138,meters,jsons/VE125_randls_36_rotated.json,1295703,1524830,35,Man
53,521471,DepthScenes,duration_manipulation_targetAtFixation,jsons/VE125_randls_36_rotated.json,http://54.235.29.9/FacialAge/BNav_EC2/DepthDuration/v2_depth_duration_MTurk/v2_DepthDuration_HTML.html#188,188,1364,625,1364,768,8-29-2022,13-24-57,54,depth_duration_stimuli/000780_2014-06-08_22-28-29_260595134347_rgbf000126-resize_1/000780_2014-06-08_22-28-29_260595134347_rgbf000126-resize_1-target.png,125,3.3825,0,4134,114,meters,jsons/VE125_randls_36_rotated.json,1295703,1524830,35,Man
54,521471,DepthScenes,duration_manipulation_targetAtFixation,jsons/VE125_randls_36_rotated.json,http://54.235.29.9/FacialAge/BNav_EC2/DepthDuration/v2_depth_duration_MTurk/v2_DepthDuration_HTML.html#188,188,1364,625,1364,768,8-29-2022,13-24-57,55,depth_duration_stimuli/002445_2014-06-28_20-32-16_260595134347_rgbf000029-resize_4/002445_2014-06-28_20-32-16_260595134347_rgbf000029-resize_4-target.png,125,2.5315,0,2388,124,meters,jsons/VE125_randls_36_rotated.json,1295703,1524830,35,Man
55,521471,DepthScenes,duration_manipulation_targetAtFixation,jsons/VE125_randls_36_rotated.json,http://54.235.29.9/FacialAge/BNav_EC2/DepthDuration/v2_depth_duration_MTurk/v2_DepthDuration_HTML.html#188,188,1364,625,1364,768,8-29-2022,13-24-57,56,depth_duration_stimuli/003587_2014-05-23_16-48-02_094959634447_rgbf002384-resize_2/003587_2014-05-23_16-48-02_094959634447_rgbf002384-resize_2-target.png,125,1.357,0,4944,73,meters,jsons/VE125_randls_36_rotated.json,1295703,1524830,35,Man
56,521471,DepthScenes,duration_manipulation_targetAtFixation,jsons/VE125_randls_36_rotated.json,http://54.235.29.9/FacialAge/BNav_EC2/DepthDuration/v2_depth_duration_MTurk/v2_DepthDuration_HTML.html#188,188,1364,625,1364,768,8-29-2022,13-24-57,57,depth_duration_stimuli/001167_2014-06-17_15-38-07_260595134347_rgbf000108-resize_0/001167_2014-06-17_15-38-07_260595134347_rgbf000108-resize_0-target.png,125,1.8505,1,8781,110,meters,jsons/VE125_randls_36_rotated.json,1295703,1524830,35,Man
57,521471,DepthScenes,duration_manipulation_targetAtFixation,jsons/VE125_randls_36_rotated.json,http://54.235.29.9/FacialAge/BNav_EC2/DepthDuration/v2_depth_duration_MTurk/v2_DepthDuration_HTML.html#188,188,1364,625,1364,768,8-29-2022,13-24-57,58,depth_duration_stimuli/002467_2014-06-28_20-38-07_260595134347_rgbf000026-resize_2/002467_2014-06-28_20-38-07_260595134347_rgbf000026-resize_2-target.png,125,4.742,0,5493,103,meters,jsons/VE125_randls_36_rotated.json,1295703,1524830,35,Man
58,521471,DepthScenes,duration_manipulation_targetAtFixation,jsons/VE125_randls_36_rotated.json,http://54.235.29.9/FacialAge/BNav_EC2/DepthDuration/v2_depth_duration_MTurk/v2_DepthDuration_HTML.html#188,188,1364,625,1364,768,8-29-2022,13-24-57,59,depth_duration_stimuli/002570_2014-06-24_13-59-54_094959634447_rgbf000059-resize_0/002570_2014-06-24_13-59-54_094959634447_rgbf000059-resize_0-target.png,125,4.037,1,3210,125,meters,jsons/VE125_randls_36_rotated.json,1295703,1524830,35,Man
59,521471,DepthScenes,duration_manipulation_targetAtFixation,jsons/VE125_randls_36_rotated.json,http://54.235.29.9/FacialAge/BNav_EC2/DepthDuration/v2_depth_duration_MTurk/v2_DepthDuration_HTML.html#188,188,1364,625,1364,768,8-29-2022,13-24-57,60,depth_duration_stimuli/002425_2014-06-28_20-27-29_260595134347_rgbf000031-resize_8/002425_2014-06-28_20-27-29_260595134347_rgbf000031-resize_8-target.png,125,3.8960000000000004,1,4880,126,meters,jsons/VE125_randls_36_rotated.json,1295703,1524830,35,Man
60,521471,DepthScenes,duration_manipulation_targetAtFixation,jsons/VE125_randls_36_rotated.json,http://54.235.29.9/FacialAge/BNav_EC2/DepthDuration/v2_depth_duration_MTurk/v2_DepthDuration_HTML.html#188,188,1364,625,1364,768,8-29-2022,13-24-57,61,depth_duration_stimuli/000642_2014-06-08_16-59-25_260595134347_rgbf000098-resize_2/000642_2014-06-08_16-59-25_260595134347_rgbf000098-resize_2-target.png,125,2.8815,1,5184,126,meters,jsons/VE125_randls_36_rotated.json,1295703,1524830,35,Man
61,521471,DepthScenes,duration_manipulation_targetAtFixation,jsons/VE125_randls_36_rotated.json,http://54.235.29.9/FacialAge/BNav_EC2/DepthDuration/v2_depth_duration_MTurk/v2_DepthDuration_HTML.html#188,188,1364,625,1364,768,8-29-2022,13-24-57,62,depth_duration_stimuli/001815_2014-06-26_20-52-55_260595134347_rgbf000020-resize_0/001815_2014-06-26_20-52-55_260595134347_rgbf000020-resize_0-target.png,125,3.3865,1,14175,131,meters,jsons/VE125_randls_36_rotated.json,1295703,1524830,35,Man
62,521471,DepthScenes,duration_manipulation_targetAtFixation,jsons/VE125_randls_36_rotated.json,http://54.235.29.9/FacialAge/BNav_EC2/DepthDuration/v2_depth_duration_MTurk/v2_DepthDuration_HTML.html#188,188,1364,625,1364,768,8-29-2022,13-24-57,63,depth_duration_stimuli/001808_2014-06-26_20-50-58_260595134347_rgbf000029-resize_1/001808_2014-06-26_20-50-58_260595134347_rgbf000029-resize_1-target.png,125,4.249,1,22863,114,meters,jsons/VE125_randls_36_rotated.json,1295703,1524830,35,Man
63,521471,DepthScenes,duration_manipulation_targetAtFixation,jsons/VE125_randls_36_rotated.json,http://54.235.29.9/FacialAge/BNav_EC2/DepthDuration/v2_depth_duration_MTurk/v2_DepthDuration_HTML.html#188,188,1364,625,1364,768,8-29-2022,13-24-57,64,depth_duration_stimuli/003423_2014-05-21_10-23-26_094959634447_rgbf002665-resize_2/003423_2014-05-21_10-23-26_094959634447_rgbf002665-resize_2-target.png,125,3.2575,1,3371,196,meters,jsons/VE125_randls_36_rotated.json,1295703,1524830,35,Man
64,521471,DepthScenes,duration_manipulation_targetAtFixation,jsons/VE125_randls_36_rotated.json,http://54.235.29.9/FacialAge/BNav_EC2/DepthDuration/v2_depth_duration_MTurk/v2_DepthDuration_HTML.html#188,188,1364,625,1364,768,8-29-2022,13-24-57,65,depth_duration_stimuli/002905_2014-06-03_18-04-43_094959634447_rgbf000151-resize_2/002905_2014-06-03_18-04-43_094959634447_rgbf000151-resize_2-target.png,125,2.0295,0,4779,125,meters,jsons/VE125_randls_36_rotated.json,1295703,1524830,35,Man
65,521471,DepthScenes,duration_manipulation_targetAtFixation,jsons/VE125_randls_36_rotated.json,http://54.235.29.9/FacialAge/BNav_EC2/DepthDuration/v2_depth_duration_MTurk/v2_DepthDuration_HTML.html#188,188,1364,625,1364,768,8-29-2022,13-24-57,66,depth_duration_stimuli/001540_2014-06-20_17-01-05_260595134347_rgbf000086-resize_2/001540_2014-06-20_17-01-05_260595134347_rgbf000086-resize-original.jpg,125,1.459,0,3273,125,meters,jsons/VE125_randls_36_rotated.json,1295703,1524830,35,Man
66,521471,DepthScenes,duration_manipulation_targetAtFixation,jsons/VE125_randls_36_rotated.json,http://54.235.29.9/FacialAge/BNav_EC2/DepthDuration/v2_depth_duration_MTurk/v2_DepthDuration_HTML.html#188,188,1364,625,1364,768,8-29-2022,13-24-57,67,depth_duration_stimuli/000943_2014-06-09_19-31-07_260595134347_rgbf000128-resize_1/000943_2014-06-09_19-31-07_260595134347_rgbf000128-resize_1-target.png,125,1.9765,1,5405,128,meters,jsons/VE125_randls_36_rotated.json,1295703,1524830,35,Man
67,521471,DepthScenes,duration_manipulation_targetAtFixation,jsons/VE125_randls_36_rotated.json,http://54.235.29.9/FacialAge/BNav_EC2/DepthDuration/v2_depth_duration_MTurk/v2_DepthDuration_HTML.html#188,188,1364,625,1364,768,8-29-2022,13-24-57,68,depth_duration_stimuli/003070_2014-06-15_14-58-27_094959634447_rgbf000150-resize_3/003070_2014-06-15_14-58-27_094959634447_rgbf000150-resize_3-target.png,125,2.9415,1,9515,99,meters,jsons/VE125_randls_36_rotated.json,1295703,1524830,35,Man
68,521471,DepthScenes,duration_manipulation_targetAtFixation,jsons/VE125_randls_36_rotated.json,http://54.235.29.9/FacialAge/BNav_EC2/DepthDuration/v2_depth_duration_MTurk/v2_DepthDuration_HTML.html#188,188,1364,625,1364,768,8-29-2022,13-24-57,69,depth_duration_stimuli/000691_2014-06-08_13-08-50_260595134347_rgbf000132-resize_3/000691_2014-06-08_13-08-50_260595134347_rgbf000132-resize_3-target.png,125,4.1530000000000005,0,2952,111,meters,jsons/VE125_randls_36_rotated.json,1295703,1524830,35,Man
69,521471,DepthScenes,duration_manipulation_targetAtFixation,jsons/VE125_randls_36_rotated.json,http://54.235.29.9/FacialAge/BNav_EC2/DepthDuration/v2_depth_duration_MTurk/v2_DepthDuration_HTML.html#188,188,1364,625,1364,768,8-29-2022,13-24-57,70,depth_duration_stimuli/002213_2014-06-28_18-37-58_260595134347_rgbf000055-resize_1/002213_2014-06-28_18-37-58_260595134347_rgbf000055-resize_1-target.png,125,3.62,1,2324,115,meters,jsons/VE125_randls_36_rotated.json,1295703,1524830,35,Man
70,521471,DepthScenes,duration_manipulation_targetAtFixation,jsons/VE125_randls_36_rotated.json,http://54.235.29.9/FacialAge/BNav_EC2/DepthDuration/v2_depth_duration_MTurk/v2_DepthDuration_HTML.html#188,188,1364,625,1364,768,8-29-2022,13-24-57,71,depth_duration_stimuli/001828_2014-06-26_21-40-03_260595134347_rgbf000024-resize_0/001828_2014-06-26_21-40-03_260595134347_rgbf000024-resize_0-target.png,125,4.8260000000000005,0,2857,113,meters,jsons/VE125_randls_36_rotated.json,1295703,1524830,35,Man
71,521471,DepthScenes,duration_manipulation_targetAtFixation,jsons/VE125_randls_36_rotated.json,http://54.235.29.9/FacialAge/BNav_EC2/DepthDuration/v2_depth_duration_MTurk/v2_DepthDuration_HTML.html#188,188,1364,625,1364,768,8-29-2022,13-24-57,72,depth_duration_stimuli/000009_2014-05-26_14-32-05_260595134347_rgbf000034-resize_3/000009_2014-05-26_14-32-05_260595134347_rgbf000034-resize_3-target.png,125,3.8715,0,2262,105,meters,jsons/VE125_randls_36_rotated.json,1295703,1524830,35,Man
72,521471,DepthScenes,duration_manipulation_targetAtFixation,jsons/VE125_randls_36_rotated.json,http://54.235.29.9/FacialAge/BNav_EC2/DepthDuration/v2_depth_duration_MTurk/v2_DepthDuration_HTML.html#188,188,1364,625,1364,768,8-29-2022,13-24-57,73,depth_duration_stimuli/002953_2014-06-08_17-32-18_094959634447_rgbf000059-resize_5/002953_2014-06-08_17-32-18_094959634447_rgbf000059-resize_5-target.png,125,1.551,1,3612,124,meters,jsons/VE125_randls_36_rotated.json,1295703,1524830,35,Man
73,521471,DepthScenes,duration_manipulation_targetAtFixation,jsons/VE125_randls_36_rotated.json,http://54.235.29.9/FacialAge/BNav_EC2/DepthDuration/v2_depth_duration_MTurk/v2_DepthDuration_HTML.html#188,188,1364,625,1364,768,8-29-2022,13-24-57,74,depth_duration_stimuli/000878_2014-06-08_22-52-45_260595134347_rgbf000045-resize_2/000878_2014-06-08_22-52-45_260595134347_rgbf000045-resize_2-target.png,125,2.092,0,2936,124,meters,jsons/VE125_randls_36_rotated.json,1295703,1524830,35,Man
74,521471,DepthScenes,duration_manipulation_targetAtFixation,jsons/VE125_randls_36_rotated.json,http://54.235.29.9/FacialAge/BNav_EC2/DepthDuration/v2_depth_duration_MTurk/v2_DepthDuration_HTML.html#188,188,1364,625,1364,768,8-29-2022,13-24-57,75,depth_duration_stimuli/000483_2014-06-09_20-41-45_260595134347_rgbf000116-resize_4/000483_2014-06-09_20-41-45_260595134347_rgbf000116-resize_4-target.png,125,1.337,0,4339,127,meters,jsons/VE125_randls_36_rotated.json,1295703,1524830,35,Man
75,521471,DepthScenes,duration_manipulation_targetAtFixation,jsons/VE125_randls_36_rotated.json,http://54.235.29.9/FacialAge/BNav_EC2/DepthDuration/v2_depth_duration_MTurk/v2_DepthDuration_HTML.html#188,188,1364,625,1364,768,8-29-2022,13-24-57,76,depth_duration_stimuli/000469_2014-06-09_19-42-10_260595134347_rgbf000081-resize_1/000469_2014-06-09_19-42-10_260595134347_rgbf000081-resize_1-target.png,125,1.652,1,2049,49,meters,jsons/VE125_randls_36_rotated.json,1295703,1524830,35,Man
76,521471,DepthScenes,duration_manipulation_targetAtFixation,jsons/VE125_randls_36_rotated.json,http://54.235.29.9/FacialAge/BNav_EC2/DepthDuration/v2_depth_duration_MTurk/v2_DepthDuration_HTML.html#188,188,1364,625,1364,768,8-29-2022,13-24-57,77,depth_duration_stimuli/003129_2014-05-12_10-48-10_094959634447_rgbf000100-resize_0/003129_2014-05-12_10-48-10_094959634447_rgbf000100-resize_0-target.png,125,4.9305,1,3895,110,meters,jsons/VE125_randls_36_rotated.json,1295703,1524830,35,Man
77,521471,DepthScenes,duration_manipulation_targetAtFixation,jsons/VE125_randls_36_rotated.json,http://54.235.29.9/FacialAge/BNav_EC2/DepthDuration/v2_depth_duration_MTurk/v2_DepthDuration_HTML.html#188,188,1364,625,1364,768,8-29-2022,13-24-57,78,depth_duration_stimuli/000414_2014-06-04_19-49-13_260595134347_rgbf000044-resize_0/000414_2014-06-04_19-49-13_260595134347_rgbf000044-resize_0-target.png,125,4.329,1,2651,114,meters,jsons/VE125_randls_36_rotated.json,1295703,1524830,35,Man
78,521471,DepthScenes,duration_manipulation_targetAtFixation,jsons/VE125_randls_36_rotated.json,http://54.235.29.9/FacialAge/BNav_EC2/DepthDuration/v2_depth_duration_MTurk/v2_DepthDuration_HTML.html#188,188,1364,625,1364,768,8-29-2022,13-24-57,79,depth_duration_stimuli/001100_2014-06-15_17-46-26_260595134347_rgbf000225-resize_2/001100_2014-06-15_17-46-26_260595134347_rgbf000225-resize_2-target.png,125,2.24,0,3574,205,meters,jsons/VE125_randls_36_rotated.json,1295703,1524830,35,Man
79,521471,DepthScenes,duration_manipulation_targetAtFixation,jsons/VE125_randls_36_rotated.json,http://54.235.29.9/FacialAge/BNav_EC2/DepthDuration/v2_depth_duration_MTurk/v2_DepthDuration_HTML.html#188,188,1364,625,1364,768,8-29-2022,13-24-57,80,depth_duration_stimuli/002784_2014-06-22_19-26-30_094959634447_rgbf000083-resize_3/002784_2014-06-22_19-26-30_094959634447_rgbf000083-resize_3-target.png,125,1.8046666666667,1,2367,361,meters,jsons/VE125_randls_36_rotated.json,1295703,1524830,35,Man
80,521471,DepthScenes,duration_manipulation_targetAtFixation,jsons/VE125_randls_36_rotated.json,http://54.235.29.9/FacialAge/BNav_EC2/DepthDuration/v2_depth_duration_MTurk/v2_DepthDuration_HTML.html#188,188,1364,625,1364,768,8-29-2022,13-24-57,81,depth_duration_stimuli/000866_2014-06-09_20-45-42_260595134347_rgbf000139-resize_1/000866_2014-06-09_20-45-42_260595134347_rgbf000139-resize_1-target.png,125,3.2155,0,3027,116,meters,jsons/VE125_randls_36_rotated.json,1295703,1524830,35,Man
81,521471,DepthScenes,duration_manipulation_targetAtFixation,jsons/VE125_randls_36_rotated.json,http://54.235.29.9/FacialAge/BNav_EC2/DepthDuration/v2_depth_duration_MTurk/v2_DepthDuration_HTML.html#188,188,1364,625,1364,768,8-29-2022,13-24-57,82,depth_duration_stimuli/002989_2014-06-15_12-25-03_094959634447_rgbf000150-resize_3/002989_2014-06-15_12-25-03_094959634447_rgbf000150-resize_3-target.png,125,4.1975,0,8142,118,meters,jsons/VE125_randls_36_rotated.json,1295703,1524830,35,Man
82,521471,DepthScenes,duration_manipulation_targetAtFixation,jsons/VE125_randls_36_rotated.json,http://54.235.29.9/FacialAge/BNav_EC2/DepthDuration/v2_depth_duration_MTurk/v2_DepthDuration_HTML.html#188,188,1364,625,1364,768,8-29-2022,13-24-57,83,depth_duration_stimuli/002209_2014-06-28_18-36-10_260595134347_rgbf000051-resize_1/002209_2014-06-28_18-36-10_260595134347_rgbf000051-resize_1-target.png,125,2.057,1,24391,48,meters,jsons/VE125_randls_36_rotated.json,1295703,1524830,35,Man
83,521471,DepthScenes,duration_manipulation_targetAtFixation,jsons/VE125_randls_36_rotated.json,http://54.235.29.9/FacialAge/BNav_EC2/DepthDuration/v2_depth_duration_MTurk/v2_DepthDuration_HTML.html#188,188,1364,625,1364,768,8-29-2022,13-24-57,84,depth_duration_stimuli/002763_2014-06-22_19-13-10_094959634447_rgbf000075-resize_4/002763_2014-06-22_19-13-10_094959634447_rgbf000075-resize_4-target.png,125,1.68375,0,4601,109,meters,jsons/VE125_randls_36_rotated.json,1295703,1524830,35,Man
84,521471,DepthScenes,duration_manipulation_targetAtFixation,jsons/VE125_randls_36_rotated.json,http://54.235.29.9/FacialAge/BNav_EC2/DepthDuration/v2_depth_duration_MTurk/v2_DepthDuration_HTML.html#188,188,1364,625,1364,768,8-29-2022,13-24-57,85,depth_duration_stimuli/002545_2014-06-24_13-38-53_094959634447_rgbf000080-resize_4/002545_2014-06-24_13-38-53_094959634447_rgbf000080-resize_4-target.png,125,1.9205,1,6434,122,meters,jsons/VE125_randls_36_rotated.json,1295703,1524830,35,Man
85,521471,DepthScenes,duration_manipulation_targetAtFixation,jsons/VE125_randls_36_rotated.json,http://54.235.29.9/FacialAge/BNav_EC2/DepthDuration/v2_depth_duration_MTurk/v2_DepthDuration_HTML.html#188,188,1364,625,1364,768,8-29-2022,13-24-57,86,depth_duration_stimuli/001092_2014-06-15_17-34-58_260595134347_rgbf000171-resize_3/001092_2014-06-15_17-34-58_260595134347_rgbf000171-resize_3-target.png,125,2.6935,0,2492,106,meters,jsons/VE125_randls_36_rotated.json,1295703,1524830,35,Man
86,521471,DepthScenes,duration_manipulation_targetAtFixation,jsons/VE125_randls_36_rotated.json,http://54.235.29.9/FacialAge/BNav_EC2/DepthDuration/v2_depth_duration_MTurk/v2_DepthDuration_HTML.html#188,188,1364,625,1364,768,8-29-2022,13-24-57,87,depth_duration_stimuli/002805_2014-06-22_19-54-03_094959634447_rgbf000079-resize_1/002805_2014-06-22_19-54-03_094959634447_rgbf000079-resize_1-target.png,125,3.1439999999999997,1,3230,126,meters,jsons/VE125_randls_36_rotated.json,1295703,1524830,35,Man
87,521471,DepthScenes,duration_manipulation_targetAtFixation,jsons/VE125_randls_36_rotated.json,http://54.235.29.9/FacialAge/BNav_EC2/DepthDuration/v2_depth_duration_MTurk/v2_DepthDuration_HTML.html#188,188,1364,625,1364,768,8-29-2022,13-24-57,88,depth_duration_stimuli/000906_2014-06-08_13-35-43_260595134347_rgbf000155-resize_1/000906_2014-06-08_13-35-43_260595134347_rgbf000155-resize_1-target.png,125,2.8489999999999998,0,4010,116,meters,jsons/VE125_randls_36_rotated.json,1295703,1524830,35,Man
88,521471,DepthScenes,duration_manipulation_targetAtFixation,jsons/VE125_randls_36_rotated.json,http://54.235.29.9/FacialAge/BNav_EC2/DepthDuration/v2_depth_duration_MTurk/v2_DepthDuration_HTML.html#188,188,1364,625,1364,768,8-29-2022,13-24-57,89,depth_duration_stimuli/003010_2014-06-15_12-54-35_094959634447_rgbf000112-resize_0/003010_2014-06-15_12-54-35_094959634447_rgbf000112-resize_0-target.png,125,3.1185,1,3039,72,meters,jsons/VE125_randls_36_rotated.json,1295703,1524830,35,Man
89,521471,DepthScenes,duration_manipulation_targetAtFixation,jsons/VE125_randls_36_rotated.json,http://54.235.29.9/FacialAge/BNav_EC2/DepthDuration/v2_depth_duration_MTurk/v2_DepthDuration_HTML.html#188,188,1364,625,1364,768,8-29-2022,13-24-57,90,depth_duration_stimuli/001810_2014-06-26_20-51-35_260595134347_rgbf000040-resize_3/001810_2014-06-26_20-51-35_260595134347_rgbf000040-resize_3-target.png,125,2.2525,1,8262,156,meters,jsons/VE125_randls_36_rotated.json,1295703,1524830,35,Man
90,521471,DepthScenes,duration_manipulation_targetAtFixation,jsons/VE125_randls_36_rotated.json,http://54.235.29.9/FacialAge/BNav_EC2/DepthDuration/v2_depth_duration_MTurk/v2_DepthDuration_HTML.html#188,188,1364,625,1364,768,8-29-2022,13-24-57,91,depth_duration_stimuli/000854_2014-06-09_19-43-13_260595134347_rgbf000066-resize_0/000854_2014-06-09_19-43-13_260595134347_rgbf000066-resize_0-target.png,125,3.068,0,4720,158,meters,jsons/VE125_randls_36_rotated.json,1295703,1524830,35,Man
91,521471,DepthScenes,duration_manipulation_targetAtFixation,jsons/VE125_randls_36_rotated.json,http://54.235.29.9/FacialAge/BNav_EC2/DepthDuration/v2_depth_duration_MTurk/v2_DepthDuration_HTML.html#188,188,1364,625,1364,768,8-29-2022,13-24-57,92,depth_duration_stimuli/000758_2014-06-08_22-05-08_260595134347_rgbf000085-resize_0/000758_2014-06-08_22-05-08_260595134347_rgbf000085-resize_0-target.png,125,3.3810000000000002,1,2659,164,meters,jsons/VE125_randls_36_rotated.json,1295703,1524830,35,Man
92,521471,DepthScenes,duration_manipulation_targetAtFixation,jsons/VE125_randls_36_rotated.json,http://54.235.29.9/FacialAge/BNav_EC2/DepthDuration/v2_depth_duration_MTurk/v2_DepthDuration_HTML.html#188,188,1364,625,1364,768,8-29-2022,13-24-57,93,depth_duration_stimuli/000635_2014-06-08_16-38-42_260595134347_rgbf000106-resize_1/000635_2014-06-08_16-38-42_260595134347_rgbf000106-resize_1-target.png,125,2.074,0,17677,119,meters,jsons/VE125_randls_36_rotated.json,1295703,1524830,35,Man
93,521471,DepthScenes,duration_manipulation_targetAtFixation,jsons/VE125_randls_36_rotated.json,http://54.235.29.9/FacialAge/BNav_EC2/DepthDuration/v2_depth_duration_MTurk/v2_DepthDuration_HTML.html#188,188,1364,625,1364,768,8-29-2022,13-24-57,94,depth_duration_stimuli/002279_2014-06-28_18-55-32_260595134347_rgbf000040-resize_5/002279_2014-06-28_18-55-32_260595134347_rgbf000040-resize_5-target.png,125,1.5043333333333,0,5254,125,meters,jsons/VE125_randls_36_rotated.json,1295703,1524830,35,Man
94,521471,DepthScenes,duration_manipulation_targetAtFixation,jsons/VE125_randls_36_rotated.json,http://54.235.29.9/FacialAge/BNav_EC2/DepthDuration/v2_depth_duration_MTurk/v2_DepthDuration_HTML.html#188,188,1364,625,1364,768,8-29-2022,13-24-57,95,depth_duration_stimuli/002344_2014-06-28_20-06-29_260595134347_rgbf000030-resize_1/002344_2014-06-28_20-06-29_260595134347_rgbf000030-resize_1-target.png,125,1.5795,0,6200,56,meters,jsons/VE125_randls_36_rotated.json,1295703,1524830,35,Man
95,521471,DepthScenes,duration_manipulation_targetAtFixation,jsons/VE125_randls_36_rotated.json,http://54.235.29.9/FacialAge/BNav_EC2/DepthDuration/v2_depth_duration_MTurk/v2_DepthDuration_HTML.html#188,188,1364,625,1364,768,8-29-2022,13-24-57,96,depth_duration_stimuli/002725_2014-06-22_11-47-51_094959634447_rgbf000070-resize_1/002725_2014-06-22_11-47-51_094959634447_rgbf000070-resize_1-target.png,125,2.195,1,28125,124,meters,jsons/VE125_randls_36_rotated.json,1295703,1524830,35,Man
96,521471,DepthScenes,duration_manipulation_targetAtFixation,jsons/VE125_randls_36_rotated.json,http://54.235.29.9/FacialAge/BNav_EC2/DepthDuration/v2_depth_duration_MTurk/v2_DepthDuration_HTML.html#188,188,1364,625,1364,768,8-29-2022,13-24-57,97,depth_duration_stimuli/001516_2014-06-20_16-25-09_260595134347_rgbf000076-resize_2/001516_2014-06-20_16-25-09_260595134347_rgbf000076-resize_2-target.png,125,1.7445,1,3159,114,meters,jsons/VE125_randls_36_rotated.json,1295703,1524830,35,Man
97,521471,DepthScenes,duration_manipulation_targetAtFixation,jsons/VE125_randls_36_rotated.json,http://54.235.29.9/FacialAge/BNav_EC2/DepthDuration/v2_depth_duration_MTurk/v2_DepthDuration_HTML.html#188,188,1364,625,1364,768,8-29-2022,13-24-57,98,depth_duration_stimuli/002118_2014-06-25_20-32-08_260595134347_rgbf000078-resize_1/002118_2014-06-25_20-32-08_260595134347_rgbf000078-resize_1-target.png,125,2.6460000000000004,0,2632,122,meters,jsons/VE125_randls_36_rotated.json,1295703,1524830,35,Man
98,521471,DepthScenes,duration_manipulation_targetAtFixation,jsons/VE125_randls_36_rotated.json,http://54.235.29.9/FacialAge/BNav_EC2/DepthDuration/v2_depth_duration_MTurk/v2_DepthDuration_HTML.html#188,188,1364,625,1364,768,8-29-2022,13-24-57,99,depth_duration_stimuli/001222_2014-06-17_16-24-06_260595134347_rgbf000073-resize_0/001222_2014-06-17_16-24-06_260595134347_rgbf000073-resize-original.jpg,125,1.4385,0,6574,131,meters,jsons/VE125_randls_36_rotated.json,1295703,1524830,35,Man
99,521471,DepthScenes,duration_manipulation_targetAtFixation,jsons/VE125_randls_36_rotated.json,http://54.235.29.9/FacialAge/BNav_EC2/DepthDuration/v2_depth_duration_MTurk/v2_DepthDuration_HTML.html#188,188,1364,625,1364,768,8-29-2022,13-24-57,100,depth_duration_stimuli/003081_2014-06-15_15-19-16_094959634447_rgbf000150-resize_1/003081_2014-06-15_15-19-16_094959634447_rgbf000150-resize_1-target.png,125,3.9125,1,3977,123,meters,jsons/VE125_randls_36_rotated.json,1295703,1524830,35,Man
100,521471,DepthScenes,duration_manipulation_targetAtFixation,jsons/VE125_randls_36_rotated.json,http://54.235.29.9/FacialAge/BNav_EC2/DepthDuration/v2_depth_duration_MTurk/v2_DepthDuration_HTML.html#188,188,1364,625,1364,768,8-29-2022,13-24-57,101,depth_duration_stimuli/001417_2014-06-19_16-25-36_260595134347_rgbf000115-resize_5/001417_2014-06-19_16-25-36_260595134347_rgbf000115-resize_5-target.png,125,4.6255,0,8160,118,meters,jsons/VE125_randls_36_rotated.json,1295703,1524830,35,Man
101,521471,DepthScenes,duration_manipulation_targetAtFixation,jsons/VE125_randls_36_rotated.json,http://54.235.29.9/FacialAge/BNav_EC2/DepthDuration/v2_depth_duration_MTurk/v2_DepthDuration_HTML.html#188,188,1364,625,1364,768,8-29-2022,13-24-57,102,depth_duration_stimuli/001032_2014-06-08_13-23-17_260595134347_rgbf000021-resize_3/001032_2014-06-08_13-23-17_260595134347_rgbf000021-resize_3-target.png,125,3.2725,1,3001,124,meters,jsons/VE125_randls_36_rotated.json,1295703,1524830,35,Man
102,521471,DepthScenes,duration_manipulation_targetAtFixation,jsons/VE125_randls_36_rotated.json,http://54.235.29.9/FacialAge/BNav_EC2/DepthDuration/v2_depth_duration_MTurk/v2_DepthDuration_HTML.html#188,188,1364,625,1364,768,8-29-2022,13-24-57,103,depth_duration_stimuli/001059_2014-06-08_21-53-27_260595134347_rgbf000061-resize_4/001059_2014-06-08_21-53-27_260595134347_rgbf000061-resize_4-target.png,125,2.4185,0,2285,111,meters,jsons/VE125_randls_36_rotated.json,1295703,1524830,35,Man
103,521471,DepthScenes,duration_manipulation_targetAtFixation,jsons/VE125_randls_36_rotated.json,http://54.235.29.9/FacialAge/BNav_EC2/DepthDuration/v2_depth_duration_MTurk/v2_DepthDuration_HTML.html#188,188,1364,625,1364,768,8-29-2022,13-24-57,104,depth_duration_stimuli/002875_2014-06-01_15-19-00_094959634447_rgbf000151-resize_1/002875_2014-06-01_15-19-00_094959634447_rgbf000151-resize_1-target.png,125,1.9675,1,2521,84,meters,jsons/VE125_randls_36_rotated.json,1295703,1524830,35,Man
104,521471,DepthScenes,duration_manipulation_targetAtFixation,jsons/VE125_randls_36_rotated.json,http://54.235.29.9/FacialAge/BNav_EC2/DepthDuration/v2_depth_duration_MTurk/v2_DepthDuration_HTML.html#188,188,1364,625,1364,768,8-29-2022,13-24-57,105,depth_duration_stimuli/001011_2014-06-08_23-18-54_260595134347_rgbf000044-resize_4/001011_2014-06-08_23-18-54_260595134347_rgbf000044-resize_4-target.png,125,2.4730000000000003,0,2054,165,meters,jsons/VE125_randls_36_rotated.json,1295703,1524830,35,Man
105,521471,DepthScenes,duration_manipulation_targetAtFixation,jsons/VE125_randls_36_rotated.json,http://54.235.29.9/FacialAge/BNav_EC2/DepthDuration/v2_depth_duration_MTurk/v2_DepthDuration_HTML.html#188,188,1364,625,1364,768,8-29-2022,13-24-57,106,depth_duration_stimuli/003079_2014-06-15_15-18-20_094959634447_rgbf000152-resize_8/003079_2014-06-15_15-18-20_094959634447_rgbf000152-resize_8-target.png,125,2.8775,1,2747,118,meters,jsons/VE125_randls_36_rotated.json,1295703,1524830,35,Man
106,521471,DepthScenes,duration_manipulation_targetAtFixation,jsons/VE125_randls_36_rotated.json,http://54.235.29.9/FacialAge/BNav_EC2/DepthDuration/v2_depth_duration_MTurk/v2_DepthDuration_HTML.html#188,188,1364,625,1364,768,8-29-2022,13-24-57,107,depth_duration_stimuli/000506_2014-06-08_23-21-00_260595134347_rgbf000070-resize_7/000506_2014-06-08_23-21-00_260595134347_rgbf000070-resize_7-target.png,125,4.0585,0,2276,228,meters,jsons/VE125_randls_36_rotated.json,1295703,1524830,35,Man
107,521471,DepthScenes,duration_manipulation_targetAtFixation,jsons/VE125_randls_36_rotated.json,http://54.235.29.9/FacialAge/BNav_EC2/DepthDuration/v2_depth_duration_MTurk/v2_DepthDuration_HTML.html#188,188,1364,625,1364,768,8-29-2022,13-24-57,108,depth_duration_stimuli/001132_2014-06-17_14-48-54_260595134347_rgbf000100-resize_2/001132_2014-06-17_14-48-54_260595134347_rgbf000100-resize_2-target.png,125,3.753,1,3749,110,meters,jsons/VE125_randls_36_rotated.json,1295703,1524830,35,Man
108,521471,DepthScenes,duration_manipulation_targetAtFixation,jsons/VE125_randls_36_rotated.json,http://54.235.29.9/FacialAge/BNav_EC2/DepthDuration/v2_depth_duration_MTurk/v2_DepthDuration_HTML.html#188,188,1364,625,1364,768,8-29-2022,13-24-57,109,depth_duration_stimuli/001133_2014-06-17_14-49-16_260595134347_rgbf000100-resize_0/001133_2014-06-17_14-49-16_260595134347_rgbf000100-resize_0-target.png,125,4.2115,0,2500,97,meters,jsons/VE125_randls_36_rotated.json,1295703,1524830,35,Man
109,521471,DepthScenes,duration_manipulation_targetAtFixation,jsons/VE125_randls_36_rotated.json,http://54.235.29.9/FacialAge/BNav_EC2/DepthDuration/v2_depth_duration_MTurk/v2_DepthDuration_HTML.html#188,188,1364,625,1364,768,8-29-2022,13-24-57,110,depth_duration_stimuli/000927_2014-06-09_16-32-30_260595134347_rgbf000123-resize_3/000927_2014-06-09_16-32-30_260595134347_rgbf000123-resize_3-target.png,125,2.6785,0,7129,133,meters,jsons/VE125_randls_36_rotated.json,1295703,1524830,35,Man
110,521471,DepthScenes,duration_manipulation_targetAtFixation,jsons/VE125_randls_36_rotated.json,http://54.235.29.9/FacialAge/BNav_EC2/DepthDuration/v2_depth_duration_MTurk/v2_DepthDuration_HTML.html#188,188,1364,625,1364,768,8-29-2022,13-24-57,111,depth_duration_stimuli/001110_2014-06-15_17-25-28_260595134347_rgbf000150-resize_1/001110_2014-06-15_17-25-28_260595134347_rgbf000150-resize_1-target.png,125,1.7115,1,4559,125,meters,jsons/VE125_randls_36_rotated.json,1295703,1524830,35,Man
111,521471,DepthScenes,duration_manipulation_targetAtFixation,jsons/VE125_randls_36_rotated.json,http://54.235.29.9/FacialAge/BNav_EC2/DepthDuration/v2_depth_duration_MTurk/v2_DepthDuration_HTML.html#188,188,1364,625,1364,768,8-29-2022,13-24-57,112,depth_duration_stimuli/001136_2014-06-17_15-19-41_260595134347_rgbf000076-resize_3/001136_2014-06-17_15-19-41_260595134347_rgbf000076-resize_3-target.png,125,1.8655,1,24576,128,meters,jsons/VE125_randls_36_rotated.json,1295703,1524830,35,Man
112,521471,DepthScenes,duration_manipulation_targetAtFixation,jsons/VE125_randls_36_rotated.json,http://54.235.29.9/FacialAge/BNav_EC2/DepthDuration/v2_depth_duration_MTurk/v2_DepthDuration_HTML.html#188,188,1364,625,1364,768,8-29-2022,13-24-57,113,depth_duration_stimuli/001164_2014-06-17_15-35-46_260595134347_rgbf000085-resize_3/001164_2014-06-17_15-35-46_260595134347_rgbf000085-resize_3-target.png,125,2.354,0,2352,139,meters,jsons/VE125_randls_36_rotated.json,1295703,1524830,35,Man
113,521471,DepthScenes,duration_manipulation_targetAtFixation,jsons/VE125_randls_36_rotated.json,http://54.235.29.9/FacialAge/BNav_EC2/DepthDuration/v2_depth_duration_MTurk/v2_DepthDuration_HTML.html#188,188,1364,625,1364,768,8-29-2022,13-24-57,114,depth_duration_stimuli/001450_2014-06-19_17-02-03_260595134347_rgbf000203-resize_4/001450_2014-06-19_17-02-03_260595134347_rgbf000203-resize_4-target.png,125,4.0106666666667,1,3129,124,meters,jsons/VE125_randls_36_rotated.json,1295703,1524830,35,Man
114,521471,DepthScenes,duration_manipulation_targetAtFixation,jsons/VE125_randls_36_rotated.json,http://54.235.29.9/FacialAge/BNav_EC2/DepthDuration/v2_depth_duration_MTurk/v2_DepthDuration_HTML.html#188,188,1364,625,1364,768,8-29-2022,13-24-57,115,depth_duration_stimuli/001449_2014-06-19_17-01-27_260595134347_rgbf000116-resize_2/001449_2014-06-19_17-01-27_260595134347_rgbf000116-resize_2-target.png,125,3.452,0,4381,149,meters,jsons/VE125_randls_36_rotated.json,1295703,1524830,35,Man
115,521471,DepthScenes,duration_manipulation_targetAtFixation,jsons/VE125_randls_36_rotated.json,http://54.235.29.9/FacialAge/BNav_EC2/DepthDuration/v2_depth_duration_MTurk/v2_DepthDuration_HTML.html#188,188,1364,625,1364,768,8-29-2022,13-24-57,116,depth_duration_stimuli/000734_2014-06-08_17-39-11_260595134347_rgbf000128-resize_2/000734_2014-06-08_17-39-11_260595134347_rgbf000128-resize_2-target.png,125,4.098,1,3004,123,meters,jsons/VE125_randls_36_rotated.json,1295703,1524830,35,Man
116,521471,DepthScenes,duration_manipulation_targetAtFixation,jsons/VE125_randls_36_rotated.json,http://54.235.29.9/FacialAge/BNav_EC2/DepthDuration/v2_depth_duration_MTurk/v2_DepthDuration_HTML.html#188,188,1364,625,1364,768,8-29-2022,13-24-57,117,depth_duration_stimuli/000739_2014-06-08_18-45-58_260595134347_rgbf000068-resize_1/000739_2014-06-08_18-45-58_260595134347_rgbf000068-resize_1-target.png,125,3.534,0,2804,282,meters,jsons/VE125_randls_36_rotated.json,1295703,1524830,35,Man
117,521471,DepthScenes,duration_manipulation_targetAtFixation,jsons/VE125_randls_36_rotated.json,http://54.235.29.9/FacialAge/BNav_EC2/DepthDuration/v2_depth_duration_MTurk/v2_DepthDuration_HTML.html#188,188,1364,625,1364,768,8-29-2022,13-24-57,118,depth_duration_stimuli/000742_2014-06-08_18-48-09_260595134347_rgbf000164-resize_4/000742_2014-06-08_18-48-09_260595134347_rgbf000164-resize_4-target.png,125,4.632,1,3121,106,meters,jsons/VE125_randls_36_rotated.json,1295703,1524830,35,Man
118,521471,DepthScenes,duration_manipulation_targetAtFixation,jsons/VE125_randls_36_rotated.json,http://54.235.29.9/FacialAge/BNav_EC2/DepthDuration/v2_depth_duration_MTurk/v2_DepthDuration_HTML.html#188,188,1364,625,1364,768,8-29-2022,13-24-57,119,depth_duration_stimuli/001066_2014-06-08_22-03-20_260595134347_rgbf000066-resize_4/001066_2014-06-08_22-03-20_260595134347_rgbf000066-resize_4-target.png,125,4.2330000000000005,0,2213,132,meters,jsons/VE125_randls_36_rotated.json,1295703,1524830,35,Man
119,521471,DepthScenes,duration_manipulation_targetAtFixation,jsons/VE125_randls_36_rotated.json,http://54.235.29.9/FacialAge/BNav_EC2/DepthDuration/v2_depth_duration_MTurk/v2_DepthDuration_HTML.html#188,188,1364,625,1364,768,8-29-2022,13-24-57,120,depth_duration_stimuli/000787_2014-06-08_22-33-53_260595134347_rgbf000175-resize_1/000787_2014-06-08_22-33-53_260595134347_rgbf000175-resize-original.jpg,125,4.784,0,3614,128,meters,jsons/VE125_randls_36_rotated.json,1295703,1524830,35,Man
120,521471,DepthScenes,duration_manipulation_targetAtFixation,jsons/VE125_randls_36_rotated.json,http://54.235.29.9/FacialAge/BNav_EC2/DepthDuration/v2_depth_duration_MTurk/v2_DepthDuration_HTML.html#188,188,1364,625,1364,768,8-29-2022,13-24-57,121,depth_duration_stimuli/003338_2014-05-20_11-01-23_094959634447_rgbf000051-resize_6/003338_2014-05-20_11-01-23_094959634447_rgbf000051-resize_6-target.png,125,1.693,0,20683,112,meters,jsons/VE125_randls_36_rotated.json,1295703,1524830,35,Man
121,521471,DepthScenes,duration_manipulation_targetAtFixation,jsons/VE125_randls_36_rotated.json,http://54.235.29.9/FacialAge/BNav_EC2/DepthDuration/v2_depth_duration_MTurk/v2_DepthDuration_HTML.html#188,188,1364,625,1364,768,8-29-2022,13-24-57,122,depth_duration_stimuli/002509_2014-06-24_13-19-22_094959634447_rgbf000077-resize_0/002509_2014-06-24_13-19-22_094959634447_rgbf000077-resize_0-target.png,125,1.3065,1,3165,120,meters,jsons/VE125_randls_36_rotated.json,1295703,1524830,35,Man
122,521471,DepthScenes,duration_manipulation_targetAtFixation,jsons/VE125_randls_36_rotated.json,http://54.235.29.9/FacialAge/BNav_EC2/DepthDuration/v2_depth_duration_MTurk/v2_DepthDuration_HTML.html#188,188,1364,625,1364,768,8-29-2022,13-24-57,123,depth_duration_stimuli/002199_2014-06-28_18-33-56_260595134347_rgbf000074-resize_0/002199_2014-06-28_18-33-56_260595134347_rgbf000074-resize_0-target.png,125,1.996,1,3273,124,meters,jsons/VE125_randls_36_rotated.json,1295703,1524830,35,Man
123,521471,DepthScenes,duration_manipulation_targetAtFixation,jsons/VE125_randls_36_rotated.json,http://54.235.29.9/FacialAge/BNav_EC2/DepthDuration/v2_depth_duration_MTurk/v2_DepthDuration_HTML.html#188,188,1364,625,1364,768,8-29-2022,13-24-57,124,depth_duration_stimuli/001056_2014-06-08_18-46-44_260595134347_rgbf000068-resize_0/001056_2014-06-08_18-46-44_260595134347_rgbf000068-resize_0-target.png,125,2.6625,1,6593,131,meters,jsons/VE125_randls_36_rotated.json,1295703,1524830,35,Man
124,521471,DepthScenes,duration_manipulation_targetAtFixation,jsons/VE125_randls_36_rotated.json,http://54.235.29.9/FacialAge/BNav_EC2/DepthDuration/v2_depth_duration_MTurk/v2_DepthDuration_HTML.html#188,188,1364,625,1364,768,8-29-2022,13-24-57,125,depth_duration_stimuli/001052_2014-06-08_18-24-54_260595134347_rgbf000130-resize_1/001052_2014-06-08_18-24-54_260595134347_rgbf000130-resize_1-target.png,125,4.1045,0,2990,123,meters,jsons/VE125_randls_36_rotated.json,1295703,1524830,35,Man
125,521471,DepthScenes,duration_manipulation_targetAtFixation,jsons/VE125_randls_36_rotated.json,http://54.235.29.9/FacialAge/BNav_EC2/DepthDuration/v2_depth_duration_MTurk/v2_DepthDuration_HTML.html#188,188,1364,625,1364,768,8-29-2022,13-24-57,126,depth_duration_stimuli/002988_2014-06-15_12-24-20_094959634447_rgbf000150-resize_1/002988_2014-06-15_12-24-20_094959634447_rgbf000150-resize_1-target.png,125,4.7669999999999995,1,2030,32,meters,jsons/VE125_randls_36_rotated.json,1295703,1524830,35,Man
126,521471,DepthScenes,duration_manipulation_targetAtFixation,jsons/VE125_randls_36_rotated.json,http://54.235.29.9/FacialAge/BNav_EC2/DepthDuration/v2_depth_duration_MTurk/v2_DepthDuration_HTML.html#188,188,1364,625,1364,768,8-29-2022,13-24-57,127,depth_duration_stimuli/001617_2014-06-20_11-35-32_260595134347_rgbf000066-resize_1/001617_2014-06-20_11-35-32_260595134347_rgbf000066-resize_1-target.png,125,3.7910000000000004,0,2974,44,meters,jsons/VE125_randls_36_rotated.json,1295703,1524830,35,Man
127,521471,DepthScenes,duration_manipulation_targetAtFixation,jsons/VE125_randls_36_rotated.json,http://54.235.29.9/FacialAge/BNav_EC2/DepthDuration/v2_depth_duration_MTurk/v2_DepthDuration_HTML.html#188,188,1364,625,1364,768,8-29-2022,13-24-57,128,depth_duration_stimuli/001806_2014-06-26_20-50-20_260595134347_rgbf000091-resize_1/001806_2014-06-26_20-50-20_260595134347_rgbf000091-resize_1-target.png,125,2.7305,1,2272,77,meters,jsons/VE125_randls_36_rotated.json,1295703,1524830,35,Man
128,521471,DepthScenes,duration_manipulation_targetAtFixation,jsons/VE125_randls_36_rotated.json,http://54.235.29.9/FacialAge/BNav_EC2/DepthDuration/v2_depth_duration_MTurk/v2_DepthDuration_HTML.html#188,188,1364,625,1364,768,8-29-2022,13-24-57,129,depth_duration_stimuli/001447_2014-06-19_17-00-32_260595134347_rgbf000082-resize_5/001447_2014-06-19_17-00-32_260595134347_rgbf000082-resize_5-target.png,125,4.13775,1,3711,150,meters,jsons/VE125_randls_36_rotated.json,1295703,1524830,35,Man
129,521471,DepthScenes,duration_manipulation_targetAtFixation,jsons/VE125_randls_36_rotated.json,http://54.235.29.9/FacialAge/BNav_EC2/DepthDuration/v2_depth_duration_MTurk/v2_DepthDuration_HTML.html#188,188,1364,625,1364,768,8-29-2022,13-24-57,130,depth_duration_stimuli/000447_2014-06-08_16-15-46_260595134347_rgbf000130-resize_1/000447_2014-06-08_16-15-46_260595134347_rgbf000130-resize_1-target.png,125,4.479,0,2296,117,meters,jsons/VE125_randls_36_rotated.json,1295703,1524830,35,Man
130,521471,DepthScenes,duration_manipulation_targetAtFixation,jsons/VE125_randls_36_rotated.json,http://54.235.29.9/FacialAge/BNav_EC2/DepthDuration/v2_depth_duration_MTurk/v2_DepthDuration_HTML.html#188,188,1364,625,1364,768,8-29-2022,13-24-57,131,depth_duration_stimuli/000556_2014-06-09_22-42-56_260595134347_rgbf000214-resize_1/000556_2014-06-09_22-42-56_260595134347_rgbf000214-resize_1-target.png,125,4.8415,1,7942,146,meters,jsons/VE125_randls_36_rotated.json,1295703,1524830,35,Man
131,521471,DepthScenes,duration_manipulation_targetAtFixation,jsons/VE125_randls_36_rotated.json,http://54.235.29.9/FacialAge/BNav_EC2/DepthDuration/v2_depth_duration_MTurk/v2_DepthDuration_HTML.html#188,188,1364,625,1364,768,8-29-2022,13-24-57,132,depth_duration_stimuli/001158_2014-06-17_15-32-16_260595134347_rgbf000138-resize_2/001158_2014-06-17_15-32-16_260595134347_rgbf000138-resize_2-target.png,125,4.5315,0,2600,129,meters,jsons/VE125_randls_36_rotated.json,1295703,1524830,35,Man
132,521471,DepthScenes,duration_manipulation_targetAtFixation,jsons/VE125_randls_36_rotated.json,http://54.235.29.9/FacialAge/BNav_EC2/DepthDuration/v2_depth_duration_MTurk/v2_DepthDuration_HTML.html#188,188,1364,625,1364,768,8-29-2022,13-24-57,133,depth_duration_stimuli/000549_2014-06-08_22-10-24_260595134347_rgbf000247-resize_3/000549_2014-06-08_22-10-24_260595134347_rgbf000247-resize_3-target.png,125,1.841,0,3476,101,meters,jsons/VE125_randls_36_rotated.json,1295703,1524830,35,Man
133,521471,DepthScenes,duration_manipulation_targetAtFixation,jsons/VE125_randls_36_rotated.json,http://54.235.29.9/FacialAge/BNav_EC2/DepthDuration/v2_depth_duration_MTurk/v2_DepthDuration_HTML.html#188,188,1364,625,1364,768,8-29-2022,13-24-57,134,depth_duration_stimuli/001055_2014-06-08_18-45-35_260595134347_rgbf000111-resize_4/001055_2014-06-08_18-45-35_260595134347_rgbf000111-resize_4-target.png,125,2.4290000000000003,1,10912,139,meters,jsons/VE125_randls_36_rotated.json,1295703,1524830,35,Man
134,521471,DepthScenes,duration_manipulation_targetAtFixation,jsons/VE125_randls_36_rotated.json,http://54.235.29.9/FacialAge/BNav_EC2/DepthDuration/v2_depth_duration_MTurk/v2_DepthDuration_HTML.html#188,188,1364,625,1364,768,8-29-2022,13-24-57,135,depth_duration_stimuli/000375_2014-06-08_11-17-29_260595134347_rgbf000133-resize_2/000375_2014-06-08_11-17-29_260595134347_rgbf000133-resize-original.jpg,125,4.718,0,2949,168,meters,jsons/VE125_randls_36_rotated.json,1295703,1524830,35,Man
135,521471,DepthScenes,duration_manipulation_targetAtFixation,jsons/VE125_randls_36_rotated.json,http://54.235.29.9/FacialAge/BNav_EC2/DepthDuration/v2_depth_duration_MTurk/v2_DepthDuration_HTML.html#188,188,1364,625,1364,768,8-29-2022,13-24-57,136,depth_duration_stimuli/002568_2014-06-24_13-59-21_094959634447_rgbf000062-resize_4/002568_2014-06-24_13-59-21_094959634447_rgbf000062-resize_4-target.png,125,3.015,0,3657,127,meters,jsons/VE125_randls_36_rotated.json,1295703,1524830,35,Man
136,521471,DepthScenes,duration_manipulation_targetAtFixation,jsons/VE125_randls_36_rotated.json,http://54.235.29.9/FacialAge/BNav_EC2/DepthDuration/v2_depth_duration_MTurk/v2_DepthDuration_HTML.html#188,188,1364,625,1364,768,8-29-2022,13-24-57,137,depth_duration_stimuli/003492_2014-05-21_15-50-55_094959634447_rgbf000828-resize_1/003492_2014-05-21_15-50-55_094959634447_rgbf000828-resize_1-target.png,125,4.06875,1,20671,122,meters,jsons/VE125_randls_36_rotated.json,1295703,1524830,35,Man
137,521471,DepthScenes,duration_manipulation_targetAtFixation,jsons/VE125_randls_36_rotated.json,http://54.235.29.9/FacialAge/BNav_EC2/DepthDuration/v2_depth_duration_MTurk/v2_DepthDuration_HTML.html#188,188,1364,625,1364,768,8-29-2022,13-24-57,138,depth_duration_stimuli/003048_2014-06-15_13-49-43_094959634447_rgbf000150-resize_1/003048_2014-06-15_13-49-43_094959634447_rgbf000150-resize_1-target.png,125,4.0035,0,23567,138,meters,jsons/VE125_randls_36_rotated.json,1295703,1524830,35,Man
138,521471,DepthScenes,duration_manipulation_targetAtFixation,jsons/VE125_randls_36_rotated.json,http://54.235.29.9/FacialAge/BNav_EC2/DepthDuration/v2_depth_duration_MTurk/v2_DepthDuration_HTML.html#188,188,1364,625,1364,768,8-29-2022,13-24-57,139,depth_duration_stimuli/002043_2014-06-24_20-29-38_260595134347_rgbf000039-resize_4/002043_2014-06-24_20-29-38_260595134347_rgbf000039-resize_4-target.png,125,2.8435,1,2732,119,meters,jsons/VE125_randls_36_rotated.json,1295703,1524830,35,Man
139,521471,DepthScenes,duration_manipulation_targetAtFixation,jsons/VE125_randls_36_rotated.json,http://54.235.29.9/FacialAge/BNav_EC2/DepthDuration/v2_depth_duration_MTurk/v2_DepthDuration_HTML.html#188,188,1364,625,1364,768,8-29-2022,13-24-57,140,depth_duration_stimuli/000665_2014-06-09_20-42-35_260595134347_rgbf000110-resize_1/000665_2014-06-09_20-42-35_260595134347_rgbf000110-resize_1-target.png,125,3.057,0,3312,122,meters,jsons/VE125_randls_36_rotated.json,1295703,1524830,35,Man
140,521471,DepthScenes,duration_manipulation_targetAtFixation,jsons/VE125_randls_36_rotated.json,http://54.235.29.9/FacialAge/BNav_EC2/DepthDuration/v2_depth_duration_MTurk/v2_DepthDuration_HTML.html#188,188,1364,625,1364,768,8-29-2022,13-24-57,141,depth_duration_stimuli/001150_2014-06-17_15-27-34_260595134347_rgbf000108-resize_2/001150_2014-06-17_15-27-34_260595134347_rgbf000108-resize_2-target.png,125,4.0325,1,111619,124,meters,jsons/VE125_randls_36_rotated.json,1295703,1524830,35,Man
141,521471,DepthScenes,duration_manipulation_targetAtFixation,jsons/VE125_randls_36_rotated.json,http://54.235.29.9/FacialAge/BNav_EC2/DepthDuration/v2_depth_duration_MTurk/v2_DepthDuration_HTML.html#188,188,1364,625,1364,768,8-29-2022,13-24-57,142,depth_duration_stimuli/003228_2014-05-14_13-42-35_094959634447_rgbf000101-resize_1/003228_2014-05-14_13-42-35_094959634447_rgbf000101-resize_1-target.png,125,1.9680000000000002,1,3021,128,meters,jsons/VE125_randls_36_rotated.json,1295703,1524830,35,Man
142,521471,DepthScenes,duration_manipulation_targetAtFixation,jsons/VE125_randls_36_rotated.json,http://54.235.29.9/FacialAge/BNav_EC2/DepthDuration/v2_depth_duration_MTurk/v2_DepthDuration_HTML.html#188,188,1364,625,1364,768,8-29-2022,13-24-57,143,depth_duration_stimuli/002600_2014-06-24_14-27-04_094959634447_rgbf000074-resize_2/002600_2014-06-24_14-27-04_094959634447_rgbf000074-resize_2-target.png,125,2.7575,0,10011,125,meters,jsons/VE125_randls_36_rotated.json,1295703,1524830,35,Man
143,521471,DepthScenes,duration_manipulation_targetAtFixation,jsons/VE125_randls_36_rotated.json,http://54.235.29.9/FacialAge/BNav_EC2/DepthDuration/v2_depth_duration_MTurk/v2_DepthDuration_HTML.html#188,188,1364,625,1364,768,8-29-2022,13-24-57,144,depth_duration_stimuli/002323_2014-06-28_20-01-54_260595134347_rgbf000051-resize_4/002323_2014-06-28_20-01-54_260595134347_rgbf000051-resize_4-target.png,125,3.7310000000000003,1,3146,121,meters,jsons/VE125_randls_36_rotated.json,1295703,1524830,35,Man
144,521471,DepthScenes,duration_manipulation_targetAtFixation,jsons/VE125_randls_36_rotated.json,http://54.235.29.9/FacialAge/BNav_EC2/DepthDuration/v2_depth_duration_MTurk/v2_DepthDuration_HTML.html#188,188,1364,625,1364,768,8-29-2022,13-24-57,145,depth_duration_stimuli/000917_2014-06-09_22-45-29_260595134347_rgbf000149-resize_3/000917_2014-06-09_22-45-29_260595134347_rgbf000149-resize_3-target.png,125,4.1865,0,2822,61,meters,jsons/VE125_randls_36_rotated.json,1295703,1524830,35,Man
145,521471,DepthScenes,duration_manipulation_targetAtFixation,jsons/VE125_randls_36_rotated.json,http://54.235.29.9/FacialAge/BNav_EC2/DepthDuration/v2_depth_duration_MTurk/v2_DepthDuration_HTML.html#188,188,1364,625,1364,768,8-29-2022,13-24-57,146,depth_duration_stimuli/001235_2014-06-17_16-37-36_260595134347_rgbf000084-resize_4/001235_2014-06-17_16-37-36_260595134347_rgbf000084-resize_4-target.png,125,3.6605,1,3414,167,meters,jsons/VE125_randls_36_rotated.json,1295703,1524830,35,Man
146,521471,DepthScenes,duration_manipulation_targetAtFixation,jsons/VE125_randls_36_rotated.json,http://54.235.29.9/FacialAge/BNav_EC2/DepthDuration/v2_depth_duration_MTurk/v2_DepthDuration_HTML.html#188,188,1364,625,1364,768,8-29-2022,13-24-57,147,depth_duration_stimuli/000788_2014-06-08_22-34-36_260595134347_rgbf000131-resize_1/000788_2014-06-08_22-34-36_260595134347_rgbf000131-resize_1-target.png,125,3.359,1,9299,126,meters,jsons/VE125_randls_36_rotated.json,1295703,1524830,35,Man
147,521471,DepthScenes,duration_manipulation_targetAtFixation,jsons/VE125_randls_36_rotated.json,http://54.235.29.9/FacialAge/BNav_EC2/DepthDuration/v2_depth_duration_MTurk/v2_DepthDuration_HTML.html#188,188,1364,625,1364,768,8-29-2022,13-24-57,148,depth_duration_stimuli/000457_2014-06-08_16-52-43_260595134347_rgbf000199-resize_1/000457_2014-06-08_16-52-43_260595134347_rgbf000199-resize_1-target.png,125,3.6489999999999996,0,8406,129,meters,jsons/VE125_randls_36_rotated.json,1295703,1524830,35,Man
148,521471,DepthScenes,duration_manipulation_targetAtFixation,jsons/VE125_randls_36_rotated.json,http://54.235.29.9/FacialAge/BNav_EC2/DepthDuration/v2_depth_duration_MTurk/v2_DepthDuration_HTML.html#188,188,1364,625,1364,768,8-29-2022,13-24-57,149,depth_duration_stimuli/000929_2014-06-09_16-33-19_260595134347_rgbf000139-resize_0/000929_2014-06-09_16-33-19_260595134347_rgbf000139-resize_0-target.png,125,2.8680000000000003,1,7210,125,meters,jsons/VE125_randls_36_rotated.json,1295703,1524830,35,Man
149,521471,DepthScenes,duration_manipulation_targetAtFixation,jsons/VE125_randls_36_rotated.json,http://54.235.29.9/FacialAge/BNav_EC2/DepthDuration/v2_depth_duration_MTurk/v2_DepthDuration_HTML.html#188,188,1364,625,1364,768,8-29-2022,13-24-57,150,depth_duration_stimuli/002414_2014-06-28_20-24-58_260595134347_rgbf000067-resize_4/002414_2014-06-28_20-24-58_260595134347_rgbf000067-resize_4-target.png,125,4.363,0,4018,125,meters,jsons/VE125_randls_36_rotated.json,1295703,1524830,35,Man
150,521471,DepthScenes,duration_manipulation_targetAtFixation,jsons/VE125_randls_36_rotated.json,http://54.235.29.9/FacialAge/BNav_EC2/DepthDuration/v2_depth_duration_MTurk/v2_DepthDuration_HTML.html#188,188,1364,625,1364,768,8-29-2022,13-24-57,151,depth_duration_stimuli/000773_2014-06-08_22-24-54_260595134347_rgbf000093-resize_1/000773_2014-06-08_22-24-54_260595134347_rgbf000093-resize_1-target.png,125,4.973,1,2519,228,meters,jsons/VE125_randls_36_rotated.json,1295703,1524830,35,Man
151,521471,DepthScenes,duration_manipulation_targetAtFixation,jsons/VE125_randls_36_rotated.json,http://54.235.29.9/FacialAge/BNav_EC2/DepthDuration/v2_depth_duration_MTurk/v2_DepthDuration_HTML.html#188,188,1364,625,1364,768,8-29-2022,13-24-57,152,depth_duration_stimuli/000569_2014-06-09_22-51-47_260595134347_rgbf000141-resize_3/000569_2014-06-09_22-51-47_260595134347_rgbf000141-resize-original.jpg,125,4.512,0,2313,141,meters,jsons/VE125_randls_36_rotated.json,1295703,1524830,35,Man
152,521471,DepthScenes,duration_manipulation_targetAtFixation,jsons/VE125_randls_36_rotated.json,http://54.235.29.9/FacialAge/BNav_EC2/DepthDuration/v2_depth_duration_MTurk/v2_DepthDuration_HTML.html#188,188,1364,625,1364,768,8-29-2022,13-24-57,153,depth_duration_stimuli/002949_2014-06-26_15-57-42_094959634447_rgbf000079-resize_1/002949_2014-06-26_15-57-42_094959634447_rgbf000079-resize_1-target.png,125,1.8915,0,15429,112,meters,jsons/VE125_randls_36_rotated.json,1295703,1524830,35,Man
153,521471,DepthScenes,duration_manipulation_targetAtFixation,jsons/VE125_randls_36_rotated.json,http://54.235.29.9/FacialAge/BNav_EC2/DepthDuration/v2_depth_duration_MTurk/v2_DepthDuration_HTML.html#188,188,1364,625,1364,768,8-29-2022,13-24-57,154,depth_duration_stimuli/000522_2014-06-08_13-35-06_260595134347_rgbf000244-resize_1/000522_2014-06-08_13-35-06_260595134347_rgbf000244-resize_1-target.png,125,2.3715,1,2844,127,meters,jsons/VE125_randls_36_rotated.json,1295703,1524830,35,Man
154,521471,DepthScenes,duration_manipulation_targetAtFixation,jsons/VE125_randls_36_rotated.json,http://54.235.29.9/FacialAge/BNav_EC2/DepthDuration/v2_depth_duration_MTurk/v2_DepthDuration_HTML.html#188,188,1364,625,1364,768,8-29-2022,13-24-57,155,depth_duration_stimuli/002660_2014-06-13_15-44-18_094959634447_rgbf001878-resize_2/002660_2014-06-13_15-44-18_094959634447_rgbf001878-resize_2-target.png,125,3.576,1,5310,71,meters,jsons/VE125_randls_36_rotated.json,1295703,1524830,35,Man
155,521471,DepthScenes,duration_manipulation_targetAtFixation,jsons/VE125_randls_36_rotated.json,http://54.235.29.9/FacialAge/BNav_EC2/DepthDuration/v2_depth_duration_MTurk/v2_DepthDuration_HTML.html#188,188,1364,625,1364,768,8-29-2022,13-24-57,156,depth_duration_stimuli/002153_2014-06-25_21-27-18_260595134347_rgbf000038-resize_5/002153_2014-06-25_21-27-18_260595134347_rgbf000038-resize_5-target.png,125,2.505,0,6720,127,meters,jsons/VE125_randls_36_rotated.json,1295703,1524830,35,Man
156,521471,DepthScenes,duration_manipulation_targetAtFixation,jsons/VE125_randls_36_rotated.json,http://54.235.29.9/FacialAge/BNav_EC2/DepthDuration/v2_depth_duration_MTurk/v2_DepthDuration_HTML.html#188,188,1364,625,1364,768,8-29-2022,13-24-57,157,depth_duration_stimuli/002136_2014-06-25_21-18-03_260595134347_rgbf000109-resize_3/002136_2014-06-25_21-18-03_260595134347_rgbf000109-resize_3-target.png,125,1.9569999999999999,1,14984,127,meters,jsons/VE125_randls_36_rotated.json,1295703,1524830,35,Man
157,521471,DepthScenes,duration_manipulation_targetAtFixation,jsons/VE125_randls_36_rotated.json,http://54.235.29.9/FacialAge/BNav_EC2/DepthDuration/v2_depth_duration_MTurk/v2_DepthDuration_HTML.html#188,188,1364,625,1364,768,8-29-2022,13-24-57,158,depth_duration_stimuli/002964_2014-06-08_17-46-11_094959634447_rgbf000091-resize_4/002964_2014-06-08_17-46-11_094959634447_rgbf000091-resize_4-target.png,125,1.6909999999999998,0,7537,124,meters,jsons/VE125_randls_36_rotated.json,1295703,1524830,35,Man
158,521471,DepthScenes,duration_manipulation_targetAtFixation,jsons/VE125_randls_36_rotated.json,http://54.235.29.9/FacialAge/BNav_EC2/DepthDuration/v2_depth_duration_MTurk/v2_DepthDuration_HTML.html#188,188,1364,625,1364,768,8-29-2022,13-24-57,159,depth_duration_stimuli/001392_2014-06-19_16-07-59_260595134347_rgbf000046-resize_1/001392_2014-06-19_16-07-59_260595134347_rgbf000046-resize_1-target.png,125,4.135,1,10559,114,meters,jsons/VE125_randls_36_rotated.json,1295703,1524830,35,Man
159,521471,DepthScenes,duration_manipulation_targetAtFixation,jsons/VE125_randls_36_rotated.json,http://54.235.29.9/FacialAge/BNav_EC2/DepthDuration/v2_depth_duration_MTurk/v2_DepthDuration_HTML.html#188,188,1364,625,1364,768,8-29-2022,13-24-57,160,depth_duration_stimuli/001570_2014-06-20_17-21-09_260595134347_rgbf000135-resize_4/001570_2014-06-20_17-21-09_260595134347_rgbf000135-resize_4-target.png,125,4.467,0,2712,123,meters,jsons/VE125_randls_36_rotated.json,1295703,1524830,35,Man
160,521471,DepthScenes,duration_manipulation_targetAtFixation,jsons/VE125_randls_36_rotated.json,http://54.235.29.9/FacialAge/BNav_EC2/DepthDuration/v2_depth_duration_MTurk/v2_DepthDuration_HTML.html#188,188,1364,625,1364,768,8-29-2022,13-24-57,161,depth_duration_stimuli/000137_2014-05-20_17-04-49_260595134347_rgbf000120-resize_1/000137_2014-05-20_17-04-49_260595134347_rgbf000120-resize_1-target.png,125,3.786,1,29273,139,meters,jsons/VE125_randls_36_rotated.json,1295703,1524830,35,Man
161,521471,DepthScenes,duration_manipulation_targetAtFixation,jsons/VE125_randls_36_rotated.json,http://54.235.29.9/FacialAge/BNav_EC2/DepthDuration/v2_depth_duration_MTurk/v2_DepthDuration_HTML.html#188,188,1364,625,1364,768,8-29-2022,13-24-57,162,depth_duration_stimuli/000736_2014-06-08_18-24-15_260595134347_rgbf000206-resize_3/000736_2014-06-08_18-24-15_260595134347_rgbf000206-resize_3-target.png,125,3.515,0,7736,120,meters,jsons/VE125_randls_36_rotated.json,1295703,1524830,35,Man
162,521471,DepthScenes,duration_manipulation_targetAtFixation,jsons/VE125_randls_36_rotated.json,http://54.235.29.9/FacialAge/BNav_EC2/DepthDuration/v2_depth_duration_MTurk/v2_DepthDuration_HTML.html#188,188,1364,625,1364,768,8-29-2022,13-24-57,163,depth_duration_stimuli/000749_2014-06-08_21-55-06_260595134347_rgbf000070-resize_2/000749_2014-06-08_21-55-06_260595134347_rgbf000070-resize_2-target.png,125,2.331,1,3763,125,meters,jsons/VE125_randls_36_rotated.json,1295703,1524830,35,Man
163,521471,DepthScenes,duration_manipulation_targetAtFixation,jsons/VE125_randls_36_rotated.json,http://54.235.29.9/FacialAge/BNav_EC2/DepthDuration/v2_depth_duration_MTurk/v2_DepthDuration_HTML.html#188,188,1364,625,1364,768,8-29-2022,13-24-57,164,depth_duration_stimuli/002788_2014-06-22_19-36-03_094959634447_rgbf000088-resize_2/002788_2014-06-22_19-36-03_094959634447_rgbf000088-resize_2-target.png,125,1.6465,1,8238,77,meters,jsons/VE125_randls_36_rotated.json,1295703,1524830,35,Man
