,subjID,experimentName,versionName,sequenceName,url,selected_row,windowWidth,windowHeight,screenWidth,screenHeight,startDate,startTime,trial,stimulus,duration,actual_depth,depth_estimate,trial_RT,log_sceneDuration,unitSelection,seq_filepath,experimentTime,totalTime,age,gender
0,522070,DepthScenes,duration_manipulation_targetAtFixation,jsons/VE125_randls_25.json,http://54.235.29.9/FacialAge/BNav_EC2/DepthDuration/v2_depth_duration_MTurk/v2_DepthDuration_HTML.html#42,42,1030,560,1536,864,8-21-2022,9-54-40,1,depth_duration_stimuli/001059_2014-06-08_21-53-27_260595134347_rgbf000061-resize_4/001059_2014-06-08_21-53-27_260595134347_rgbf000061-resize_4-target.png,125,2.4185,7,9935,136,feet,jsons/VE125_randls_25.json,761103,961670,49,Man
1,522070,DepthScenes,duration_manipulation_targetAtFixation,jsons/VE125_randls_25.json,http://54.235.29.9/FacialAge/BNav_EC2/DepthDuration/v2_depth_duration_MTurk/v2_DepthDuration_HTML.html#42,42,1030,560,1536,864,8-21-2022,9-54-40,2,depth_duration_stimuli/001032_2014-06-08_13-23-17_260595134347_rgbf000021-resize_3/001032_2014-06-08_13-23-17_260595134347_rgbf000021-resize_3-target.png,125,3.2725,7,32354,124,feet,jsons/VE125_randls_25.json,761103,961670,49,Man
2,522070,DepthScenes,duration_manipulation_targetAtFixation,jsons/VE125_randls_25.json,http://54.235.29.9/FacialAge/BNav_EC2/DepthDuration/v2_depth_duration_MTurk/v2_DepthDuration_HTML.html#42,42,1030,560,1536,864,8-21-2022,9-54-40,3,depth_duration_stimuli/001066_2014-06-08_22-03-20_260595134347_rgbf000066-resize_4/001066_2014-06-08_22-03-20_260595134347_rgbf000066-resize_4-target.png,125,4.2330000000000005,12,7717,125,feet,jsons/VE125_randls_25.json,761103,961670,49,Man
3,522070,DepthScenes,duration_manipulation_targetAtFixation,jsons/VE125_randls_25.json,http://54.235.29.9/FacialAge/BNav_EC2/DepthDuration/v2_depth_duration_MTurk/v2_DepthDuration_HTML.html#42,42,1030,560,1536,864,8-21-2022,9-54-40,4,depth_duration_stimuli/000742_2014-06-08_18-48-09_260595134347_rgbf000164-resize_4/000742_2014-06-08_18-48-09_260595134347_rgbf000164-resize_4-target.png,125,4.632,15,6042,126,feet,jsons/VE125_randls_25.json,761103,961670,49,Man
4,522070,DepthScenes,duration_manipulation_targetAtFixation,jsons/VE125_randls_25.json,http://54.235.29.9/FacialAge/BNav_EC2/DepthDuration/v2_depth_duration_MTurk/v2_DepthDuration_HTML.html#42,42,1030,560,1536,864,8-21-2022,9-54-40,5,depth_duration_stimuli/002663_2014-06-13_15-50-26_094959634447_rgbf000075-resize_1/002663_2014-06-13_15-50-26_094959634447_rgbf000075-resize_1-target.png,125,4.7495,20,6379,123,feet,jsons/VE125_randls_25.json,761103,961670,49,Man
5,522070,DepthScenes,duration_manipulation_targetAtFixation,jsons/VE125_randls_25.json,http://54.235.29.9/FacialAge/BNav_EC2/DepthDuration/v2_depth_duration_MTurk/v2_DepthDuration_HTML.html#42,42,1030,560,1536,864,8-21-2022,9-54-40,6,depth_duration_stimuli/000409_2014-06-04_19-23-33_260595134347_rgbf000067-resize_0/000409_2014-06-04_19-23-33_260595134347_rgbf000067-resize_0-target.png,125,3.7335,15,6672,125,feet,jsons/VE125_randls_25.json,761103,961670,49,Man
6,522070,DepthScenes,duration_manipulation_targetAtFixation,jsons/VE125_randls_25.json,http://54.235.29.9/FacialAge/BNav_EC2/DepthDuration/v2_depth_duration_MTurk/v2_DepthDuration_HTML.html#42,42,1030,560,1536,864,8-21-2022,9-54-40,7,depth_duration_stimuli/000642_2014-06-08_16-59-25_260595134347_rgbf000098-resize_2/000642_2014-06-08_16-59-25_260595134347_rgbf000098-resize_2-target.png,125,2.8815,7,5344,125,feet,jsons/VE125_randls_25.json,761103,961670,49,Man
7,522070,DepthScenes,duration_manipulation_targetAtFixation,jsons/VE125_randls_25.json,http://54.235.29.9/FacialAge/BNav_EC2/DepthDuration/v2_depth_duration_MTurk/v2_DepthDuration_HTML.html#42,42,1030,560,1536,864,8-21-2022,9-54-40,8,depth_duration_stimuli/002425_2014-06-28_20-27-29_260595134347_rgbf000031-resize_8/002425_2014-06-28_20-27-29_260595134347_rgbf000031-resize_8-target.png,125,3.8960000000000004,15,4709,122,feet,jsons/VE125_randls_25.json,761103,961670,49,Man
8,522070,DepthScenes,duration_manipulation_targetAtFixation,jsons/VE125_randls_25.json,http://54.235.29.9/FacialAge/BNav_EC2/DepthDuration/v2_depth_duration_MTurk/v2_DepthDuration_HTML.html#42,42,1030,560,1536,864,8-21-2022,9-54-40,9,depth_duration_stimuli/001810_2014-06-26_20-51-35_260595134347_rgbf000040-resize_3/001810_2014-06-26_20-51-35_260595134347_rgbf000040-resize_3-target.png,125,2.2525,8,3350,125,feet,jsons/VE125_randls_25.json,761103,961670,49,Man
9,522070,DepthScenes,duration_manipulation_targetAtFixation,jsons/VE125_randls_25.json,http://54.235.29.9/FacialAge/BNav_EC2/DepthDuration/v2_depth_duration_MTurk/v2_DepthDuration_HTML.html#42,42,1030,560,1536,864,8-21-2022,9-54-40,10,depth_duration_stimuli/003010_2014-06-15_12-54-35_094959634447_rgbf000112-resize_0/003010_2014-06-15_12-54-35_094959634447_rgbf000112-resize_0-target.png,125,3.1185,15,3891,124,feet,jsons/VE125_randls_25.json,761103,961670,49,Man
10,522070,DepthScenes,duration_manipulation_targetAtFixation,jsons/VE125_randls_25.json,http://54.235.29.9/FacialAge/BNav_EC2/DepthDuration/v2_depth_duration_MTurk/v2_DepthDuration_HTML.html#42,42,1030,560,1536,864,8-21-2022,9-54-40,11,depth_duration_stimuli/002445_2014-06-28_20-32-16_260595134347_rgbf000029-resize_4/002445_2014-06-28_20-32-16_260595134347_rgbf000029-resize_4-target.png,125,2.5315,6,3259,125,feet,jsons/VE125_randls_25.json,761103,961670,49,Man
11,522070,DepthScenes,duration_manipulation_targetAtFixation,jsons/VE125_randls_25.json,http://54.235.29.9/FacialAge/BNav_EC2/DepthDuration/v2_depth_duration_MTurk/v2_DepthDuration_HTML.html#42,42,1030,560,1536,864,8-21-2022,9-54-40,12,depth_duration_stimuli/000780_2014-06-08_22-28-29_260595134347_rgbf000126-resize_1/000780_2014-06-08_22-28-29_260595134347_rgbf000126-resize_1-target.png,125,3.3825,18,4494,125,feet,jsons/VE125_randls_25.json,761103,961670,49,Man
12,522070,DepthScenes,duration_manipulation_targetAtFixation,jsons/VE125_randls_25.json,http://54.235.29.9/FacialAge/BNav_EC2/DepthDuration/v2_depth_duration_MTurk/v2_DepthDuration_HTML.html#42,42,1030,560,1536,864,8-21-2022,9-54-40,13,depth_duration_stimuli/000569_2014-06-09_22-51-47_260595134347_rgbf000141-resize_3/000569_2014-06-09_22-51-47_260595134347_rgbf000141-resize-original.jpg,125,4.512,0,3711,125,feet,jsons/VE125_randls_25.json,761103,961670,49,Man
13,522070,DepthScenes,duration_manipulation_targetAtFixation,jsons/VE125_randls_25.json,http://54.235.29.9/FacialAge/BNav_EC2/DepthDuration/v2_depth_duration_MTurk/v2_DepthDuration_HTML.html#42,42,1030,560,1536,864,8-21-2022,9-54-40,14,depth_duration_stimuli/001244_2014-06-17_16-47-45_260595134347_rgbf000030-resize_4/001244_2014-06-17_16-47-45_260595134347_rgbf000030-resize_4-target.png,125,2.0425,8,3527,137,feet,jsons/VE125_randls_25.json,761103,961670,49,Man
14,522070,DepthScenes,duration_manipulation_targetAtFixation,jsons/VE125_randls_25.json,http://54.235.29.9/FacialAge/BNav_EC2/DepthDuration/v2_depth_duration_MTurk/v2_DepthDuration_HTML.html#42,42,1030,560,1536,864,8-21-2022,9-54-40,15,depth_duration_stimuli/003495_2014-05-21_16-01-51_094959634447_rgbf000100-resize_3/003495_2014-05-21_16-01-51_094959634447_rgbf000100-resize_3-target.png,125,1.6255,5,5418,109,feet,jsons/VE125_randls_25.json,761103,961670,49,Man
15,522070,DepthScenes,duration_manipulation_targetAtFixation,jsons/VE125_randls_25.json,http://54.235.29.9/FacialAge/BNav_EC2/DepthDuration/v2_depth_duration_MTurk/v2_DepthDuration_HTML.html#42,42,1030,560,1536,864,8-21-2022,9-54-40,16,depth_duration_stimuli/003292_2014-05-14_21-53-49_094959634447_rgbf000100-resize_2/003292_2014-05-14_21-53-49_094959634447_rgbf000100-resize_2-target.png,125,3.4815,7,7435,125,feet,jsons/VE125_randls_25.json,761103,961670,49,Man
16,522070,DepthScenes,duration_manipulation_targetAtFixation,jsons/VE125_randls_25.json,http://54.235.29.9/FacialAge/BNav_EC2/DepthDuration/v2_depth_duration_MTurk/v2_DepthDuration_HTML.html#42,42,1030,560,1536,864,8-21-2022,9-54-40,17,depth_duration_stimuli/002639_2014-06-24_14-51-37_094959634447_rgbf000074-resize_4/002639_2014-06-24_14-51-37_094959634447_rgbf000074-resize_4-target.png,125,4.0375,12,4542,125,feet,jsons/VE125_randls_25.json,761103,961670,49,Man
17,522070,DepthScenes,duration_manipulation_targetAtFixation,jsons/VE125_randls_25.json,http://54.235.29.9/FacialAge/BNav_EC2/DepthDuration/v2_depth_duration_MTurk/v2_DepthDuration_HTML.html#42,42,1030,560,1536,864,8-21-2022,9-54-40,18,depth_duration_stimuli/000368_2014-06-09_15-53-01_260595134347_rgbf000155-resize_2/000368_2014-06-09_15-53-01_260595134347_rgbf000155-resize_2-target.png,125,2.4859999999999998,12,6558,125,feet,jsons/VE125_randls_25.json,761103,961670,49,Man
18,522070,DepthScenes,duration_manipulation_targetAtFixation,jsons/VE125_randls_25.json,http://54.235.29.9/FacialAge/BNav_EC2/DepthDuration/v2_depth_duration_MTurk/v2_DepthDuration_HTML.html#42,42,1030,560,1536,864,8-21-2022,9-54-40,19,depth_duration_stimuli/002678_2014-06-13_16-15-32_094959634447_rgbf000151-resize_6/002678_2014-06-13_16-15-32_094959634447_rgbf000151-resize_6-target.png,125,2.1830000000000003,20,2988,127,feet,jsons/VE125_randls_25.json,761103,961670,49,Man
19,522070,DepthScenes,duration_manipulation_targetAtFixation,jsons/VE125_randls_25.json,http://54.235.29.9/FacialAge/BNav_EC2/DepthDuration/v2_depth_duration_MTurk/v2_DepthDuration_HTML.html#42,42,1030,560,1536,864,8-21-2022,9-54-40,20,depth_duration_stimuli/002784_2014-06-22_19-26-30_094959634447_rgbf000083-resize_3/002784_2014-06-22_19-26-30_094959634447_rgbf000083-resize_3-target.png,125,1.8046666666667,5,3270,124,feet,jsons/VE125_randls_25.json,761103,961670,49,Man
20,522070,DepthScenes,duration_manipulation_targetAtFixation,jsons/VE125_randls_25.json,http://54.235.29.9/FacialAge/BNav_EC2/DepthDuration/v2_depth_duration_MTurk/v2_DepthDuration_HTML.html#42,42,1030,560,1536,864,8-21-2022,9-54-40,21,depth_duration_stimuli/001100_2014-06-15_17-46-26_260595134347_rgbf000225-resize_2/001100_2014-06-15_17-46-26_260595134347_rgbf000225-resize_2-target.png,125,2.24,7,6460,124,feet,jsons/VE125_randls_25.json,761103,961670,49,Man
21,522070,DepthScenes,duration_manipulation_targetAtFixation,jsons/VE125_randls_25.json,http://54.235.29.9/FacialAge/BNav_EC2/DepthDuration/v2_depth_duration_MTurk/v2_DepthDuration_HTML.html#42,42,1030,560,1536,864,8-21-2022,9-54-40,22,depth_duration_stimuli/002630_2014-06-24_14-47-50_094959634447_rgbf000055-resize_1/002630_2014-06-24_14-47-50_094959634447_rgbf000055-resize_1-target.png,125,3.0095,20,6983,126,feet,jsons/VE125_randls_25.json,761103,961670,49,Man
22,522070,DepthScenes,duration_manipulation_targetAtFixation,jsons/VE125_randls_25.json,http://54.235.29.9/FacialAge/BNav_EC2/DepthDuration/v2_depth_duration_MTurk/v2_DepthDuration_HTML.html#42,42,1030,560,1536,864,8-21-2022,9-54-40,23,depth_duration_stimuli/002758_2014-06-22_19-11-20_094959634447_rgbf000128-resize_1/002758_2014-06-22_19-11-20_094959634447_rgbf000128-resize_1-target.png,125,2.555,9,3826,125,feet,jsons/VE125_randls_25.json,761103,961670,49,Man
23,522070,DepthScenes,duration_manipulation_targetAtFixation,jsons/VE125_randls_25.json,http://54.235.29.9/FacialAge/BNav_EC2/DepthDuration/v2_depth_duration_MTurk/v2_DepthDuration_HTML.html#42,42,1030,560,1536,864,8-21-2022,9-54-40,24,depth_duration_stimuli/001449_2014-06-19_17-01-27_260595134347_rgbf000116-resize_2/001449_2014-06-19_17-01-27_260595134347_rgbf000116-resize_2-target.png,125,3.452,12,3367,123,feet,jsons/VE125_randls_25.json,761103,961670,49,Man
24,522070,DepthScenes,duration_manipulation_targetAtFixation,jsons/VE125_randls_25.json,http://54.235.29.9/FacialAge/BNav_EC2/DepthDuration/v2_depth_duration_MTurk/v2_DepthDuration_HTML.html#42,42,1030,560,1536,864,8-21-2022,9-54-40,25,depth_duration_stimuli/001450_2014-06-19_17-02-03_260595134347_rgbf000203-resize_4/001450_2014-06-19_17-02-03_260595134347_rgbf000203-resize_4-target.png,125,4.0106666666667,20,4997,126,feet,jsons/VE125_randls_25.json,761103,961670,49,Man
25,522070,DepthScenes,duration_manipulation_targetAtFixation,jsons/VE125_randls_25.json,http://54.235.29.9/FacialAge/BNav_EC2/DepthDuration/v2_depth_duration_MTurk/v2_DepthDuration_HTML.html#42,42,1030,560,1536,864,8-21-2022,9-54-40,26,depth_duration_stimuli/002905_2014-06-03_18-04-43_094959634447_rgbf000151-resize_2/002905_2014-06-03_18-04-43_094959634447_rgbf000151-resize_2-target.png,125,2.0295,20,4602,125,feet,jsons/VE125_randls_25.json,761103,961670,49,Man
26,522070,DepthScenes,duration_manipulation_targetAtFixation,jsons/VE125_randls_25.json,http://54.235.29.9/FacialAge/BNav_EC2/DepthDuration/v2_depth_duration_MTurk/v2_DepthDuration_HTML.html#42,42,1030,560,1536,864,8-21-2022,9-54-40,27,depth_duration_stimuli/003423_2014-05-21_10-23-26_094959634447_rgbf002665-resize_2/003423_2014-05-21_10-23-26_094959634447_rgbf002665-resize_2-target.png,125,3.2575,25,3381,124,feet,jsons/VE125_randls_25.json,761103,961670,49,Man
27,522070,DepthScenes,duration_manipulation_targetAtFixation,jsons/VE125_randls_25.json,http://54.235.29.9/FacialAge/BNav_EC2/DepthDuration/v2_depth_duration_MTurk/v2_DepthDuration_HTML.html#42,42,1030,560,1536,864,8-21-2022,9-54-40,28,depth_duration_stimuli/000788_2014-06-08_22-34-36_260595134347_rgbf000131-resize_1/000788_2014-06-08_22-34-36_260595134347_rgbf000131-resize_1-target.png,125,3.359,11,4524,123,feet,jsons/VE125_randls_25.json,761103,961670,49,Man
28,522070,DepthScenes,duration_manipulation_targetAtFixation,jsons/VE125_randls_25.json,http://54.235.29.9/FacialAge/BNav_EC2/DepthDuration/v2_depth_duration_MTurk/v2_DepthDuration_HTML.html#42,42,1030,560,1536,864,8-21-2022,9-54-40,29,depth_duration_stimuli/001235_2014-06-17_16-37-36_260595134347_rgbf000084-resize_4/001235_2014-06-17_16-37-36_260595134347_rgbf000084-resize_4-target.png,125,3.6605,15,5813,124,feet,jsons/VE125_randls_25.json,761103,961670,49,Man
29,522070,DepthScenes,duration_manipulation_targetAtFixation,jsons/VE125_randls_25.json,http://54.235.29.9/FacialAge/BNav_EC2/DepthDuration/v2_depth_duration_MTurk/v2_DepthDuration_HTML.html#42,42,1030,560,1536,864,8-21-2022,9-54-40,30,depth_duration_stimuli/000375_2014-06-08_11-17-29_260595134347_rgbf000133-resize_2/000375_2014-06-08_11-17-29_260595134347_rgbf000133-resize-original.jpg,125,4.718,0,3780,138,feet,jsons/VE125_randls_25.json,761103,961670,49,Man
30,522070,DepthScenes,duration_manipulation_targetAtFixation,jsons/VE125_randls_25.json,http://54.235.29.9/FacialAge/BNav_EC2/DepthDuration/v2_depth_duration_MTurk/v2_DepthDuration_HTML.html#42,42,1030,560,1536,864,8-21-2022,9-54-40,31,depth_duration_stimuli/000447_2014-06-08_16-15-46_260595134347_rgbf000130-resize_1/000447_2014-06-08_16-15-46_260595134347_rgbf000130-resize_1-target.png,125,4.479,15,3317,125,feet,jsons/VE125_randls_25.json,761103,961670,49,Man
31,522070,DepthScenes,duration_manipulation_targetAtFixation,jsons/VE125_randls_25.json,http://54.235.29.9/FacialAge/BNav_EC2/DepthDuration/v2_depth_duration_MTurk/v2_DepthDuration_HTML.html#42,42,1030,560,1536,864,8-21-2022,9-54-40,32,depth_duration_stimuli/001447_2014-06-19_17-00-32_260595134347_rgbf000082-resize_5/001447_2014-06-19_17-00-32_260595134347_rgbf000082-resize_5-target.png,125,4.13775,12,2913,124,feet,jsons/VE125_randls_25.json,761103,961670,49,Man
32,522070,DepthScenes,duration_manipulation_targetAtFixation,jsons/VE125_randls_25.json,http://54.235.29.9/FacialAge/BNav_EC2/DepthDuration/v2_depth_duration_MTurk/v2_DepthDuration_HTML.html#42,42,1030,560,1536,864,8-21-2022,9-54-40,33,depth_duration_stimuli/000906_2014-06-08_13-35-43_260595134347_rgbf000155-resize_1/000906_2014-06-08_13-35-43_260595134347_rgbf000155-resize_1-target.png,125,2.8489999999999998,20,2654,125,feet,jsons/VE125_randls_25.json,761103,961670,49,Man
33,522070,DepthScenes,duration_manipulation_targetAtFixation,jsons/VE125_randls_25.json,http://54.235.29.9/FacialAge/BNav_EC2/DepthDuration/v2_depth_duration_MTurk/v2_DepthDuration_HTML.html#42,42,1030,560,1536,864,8-21-2022,9-54-40,34,depth_duration_stimuli/002805_2014-06-22_19-54-03_094959634447_rgbf000079-resize_1/002805_2014-06-22_19-54-03_094959634447_rgbf000079-resize_1-target.png,125,3.1439999999999997,15,5098,124,feet,jsons/VE125_randls_25.json,761103,961670,49,Man
34,522070,DepthScenes,duration_manipulation_targetAtFixation,jsons/VE125_randls_25.json,http://54.235.29.9/FacialAge/BNav_EC2/DepthDuration/v2_depth_duration_MTurk/v2_DepthDuration_HTML.html#42,42,1030,560,1536,864,8-21-2022,9-54-40,35,depth_duration_stimuli/002043_2014-06-24_20-29-38_260595134347_rgbf000039-resize_4/002043_2014-06-24_20-29-38_260595134347_rgbf000039-resize_4-target.png,125,2.8435,12,3085,124,feet,jsons/VE125_randls_25.json,761103,961670,49,Man
35,522070,DepthScenes,duration_manipulation_targetAtFixation,jsons/VE125_randls_25.json,http://54.235.29.9/FacialAge/BNav_EC2/DepthDuration/v2_depth_duration_MTurk/v2_DepthDuration_HTML.html#42,42,1030,560,1536,864,8-21-2022,9-54-40,36,depth_duration_stimuli/003048_2014-06-15_13-49-43_094959634447_rgbf000150-resize_1/003048_2014-06-15_13-49-43_094959634447_rgbf000150-resize_1-target.png,125,4.0035,25,3248,123,feet,jsons/VE125_randls_25.json,761103,961670,49,Man
36,522070,DepthScenes,duration_manipulation_targetAtFixation,jsons/VE125_randls_25.json,http://54.235.29.9/FacialAge/BNav_EC2/DepthDuration/v2_depth_duration_MTurk/v2_DepthDuration_HTML.html#42,42,1030,560,1536,864,8-21-2022,9-54-40,37,depth_duration_stimuli/002725_2014-06-22_11-47-51_094959634447_rgbf000070-resize_1/002725_2014-06-22_11-47-51_094959634447_rgbf000070-resize_1-target.png,125,2.195,18,3404,110,feet,jsons/VE125_randls_25.json,761103,961670,49,Man
37,522070,DepthScenes,duration_manipulation_targetAtFixation,jsons/VE125_randls_25.json,http://54.235.29.9/FacialAge/BNav_EC2/DepthDuration/v2_depth_duration_MTurk/v2_DepthDuration_HTML.html#42,42,1030,560,1536,864,8-21-2022,9-54-40,38,depth_duration_stimuli/002344_2014-06-28_20-06-29_260595134347_rgbf000030-resize_1/002344_2014-06-28_20-06-29_260595134347_rgbf000030-resize_1-target.png,125,1.5795,6,3256,125,feet,jsons/VE125_randls_25.json,761103,961670,49,Man
38,522070,DepthScenes,duration_manipulation_targetAtFixation,jsons/VE125_randls_25.json,http://54.235.29.9/FacialAge/BNav_EC2/DepthDuration/v2_depth_duration_MTurk/v2_DepthDuration_HTML.html#42,42,1030,560,1536,864,8-21-2022,9-54-40,39,depth_duration_stimuli/001158_2014-06-17_15-32-16_260595134347_rgbf000138-resize_2/001158_2014-06-17_15-32-16_260595134347_rgbf000138-resize_2-target.png,125,4.5315,25,3773,124,feet,jsons/VE125_randls_25.json,761103,961670,49,Man
39,522070,DepthScenes,duration_manipulation_targetAtFixation,jsons/VE125_randls_25.json,http://54.235.29.9/FacialAge/BNav_EC2/DepthDuration/v2_depth_duration_MTurk/v2_DepthDuration_HTML.html#42,42,1030,560,1536,864,8-21-2022,9-54-40,40,depth_duration_stimuli/000556_2014-06-09_22-42-56_260595134347_rgbf000214-resize_1/000556_2014-06-09_22-42-56_260595134347_rgbf000214-resize_1-target.png,125,4.8415,20,3488,124,feet,jsons/VE125_randls_25.json,761103,961670,49,Man
40,522070,DepthScenes,duration_manipulation_targetAtFixation,jsons/VE125_randls_25.json,http://54.235.29.9/FacialAge/BNav_EC2/DepthDuration/v2_depth_duration_MTurk/v2_DepthDuration_HTML.html#42,42,1030,560,1536,864,8-21-2022,9-54-40,41,depth_duration_stimuli/003534_2014-05-22_15-06-10_094959634447_rgbf000102-resize_4/003534_2014-05-22_15-06-10_094959634447_rgbf000102-resize_4-target.png,125,1.426,7,7295,124,feet,jsons/VE125_randls_25.json,761103,961670,49,Man
41,522070,DepthScenes,duration_manipulation_targetAtFixation,jsons/VE125_randls_25.json,http://54.235.29.9/FacialAge/BNav_EC2/DepthDuration/v2_depth_duration_MTurk/v2_DepthDuration_HTML.html#42,42,1030,560,1536,864,8-21-2022,9-54-40,42,depth_duration_stimuli/002637_2014-06-24_14-51-13_094959634447_rgbf000066-resize_4/002637_2014-06-24_14-51-13_094959634447_rgbf000066-resize_4-target.png,125,1.9955,7,3499,126,feet,jsons/VE125_randls_25.json,761103,961670,49,Man
42,522070,DepthScenes,duration_manipulation_targetAtFixation,jsons/VE125_randls_25.json,http://54.235.29.9/FacialAge/BNav_EC2/DepthDuration/v2_depth_duration_MTurk/v2_DepthDuration_HTML.html#42,42,1030,560,1536,864,8-21-2022,9-54-40,43,depth_duration_stimuli/000522_2014-06-08_13-35-06_260595134347_rgbf000244-resize_1/000522_2014-06-08_13-35-06_260595134347_rgbf000244-resize_1-target.png,125,2.3715,4,6053,125,feet,jsons/VE125_randls_25.json,761103,961670,49,Man
43,522070,DepthScenes,duration_manipulation_targetAtFixation,jsons/VE125_randls_25.json,http://54.235.29.9/FacialAge/BNav_EC2/DepthDuration/v2_depth_duration_MTurk/v2_DepthDuration_HTML.html#42,42,1030,560,1536,864,8-21-2022,9-54-40,44,depth_duration_stimuli/002949_2014-06-26_15-57-42_094959634447_rgbf000079-resize_1/002949_2014-06-26_15-57-42_094959634447_rgbf000079-resize_1-target.png,125,1.8915,5,3973,125,feet,jsons/VE125_randls_25.json,761103,961670,49,Man
44,522070,DepthScenes,duration_manipulation_targetAtFixation,jsons/VE125_randls_25.json,http://54.235.29.9/FacialAge/BNav_EC2/DepthDuration/v2_depth_duration_MTurk/v2_DepthDuration_HTML.html#42,42,1030,560,1536,864,8-21-2022,9-54-40,45,depth_duration_stimuli/000787_2014-06-08_22-33-53_260595134347_rgbf000175-resize_1/000787_2014-06-08_22-33-53_260595134347_rgbf000175-resize-original.jpg,125,4.784,25,3856,110,feet,jsons/VE125_randls_25.json,761103,961670,49,Man
45,522070,DepthScenes,duration_manipulation_targetAtFixation,jsons/VE125_randls_25.json,http://54.235.29.9/FacialAge/BNav_EC2/DepthDuration/v2_depth_duration_MTurk/v2_DepthDuration_HTML.html#42,42,1030,560,1536,864,8-21-2022,9-54-40,46,depth_duration_stimuli/000810_2014-06-08_17-20-01_260595134347_rgbf000105-resize_0/000810_2014-06-08_17-20-01_260595134347_rgbf000105-resize_0-target.png,125,1.4865,8,3341,123,feet,jsons/VE125_randls_25.json,761103,961670,49,Man
46,522070,DepthScenes,duration_manipulation_targetAtFixation,jsons/VE125_randls_25.json,http://54.235.29.9/FacialAge/BNav_EC2/DepthDuration/v2_depth_duration_MTurk/v2_DepthDuration_HTML.html#42,42,1030,560,1536,864,8-21-2022,9-54-40,47,depth_duration_stimuli/001214_2014-06-17_16-13-55_260595134347_rgbf000111-resize_0/001214_2014-06-17_16-13-55_260595134347_rgbf000111-resize_0-target.png,125,2.6505,7,3268,124,feet,jsons/VE125_randls_25.json,761103,961670,49,Man
47,522070,DepthScenes,duration_manipulation_targetAtFixation,jsons/VE125_randls_25.json,http://54.235.29.9/FacialAge/BNav_EC2/DepthDuration/v2_depth_duration_MTurk/v2_DepthDuration_HTML.html#42,42,1030,560,1536,864,8-21-2022,9-54-40,48,depth_duration_stimuli/000758_2014-06-08_22-05-08_260595134347_rgbf000085-resize_0/000758_2014-06-08_22-05-08_260595134347_rgbf000085-resize_0-target.png,125,3.3810000000000002,15,3559,124,feet,jsons/VE125_randls_25.json,761103,961670,49,Man
48,522070,DepthScenes,duration_manipulation_targetAtFixation,jsons/VE125_randls_25.json,http://54.235.29.9/FacialAge/BNav_EC2/DepthDuration/v2_depth_duration_MTurk/v2_DepthDuration_HTML.html#42,42,1030,560,1536,864,8-21-2022,9-54-40,49,depth_duration_stimuli/000854_2014-06-09_19-43-13_260595134347_rgbf000066-resize_0/000854_2014-06-09_19-43-13_260595134347_rgbf000066-resize_0-target.png,125,3.068,15,5820,124,feet,jsons/VE125_randls_25.json,761103,961670,49,Man
49,522070,DepthScenes,duration_manipulation_targetAtFixation,jsons/VE125_randls_25.json,http://54.235.29.9/FacialAge/BNav_EC2/DepthDuration/v2_depth_duration_MTurk/v2_DepthDuration_HTML.html#42,42,1030,560,1536,864,8-21-2022,9-54-40,50,depth_duration_stimuli/000692_2014-06-08_13-09-42_260595134347_rgbf000199-resize_2/000692_2014-06-08_13-09-42_260595134347_rgbf000199-resize_2-target.png,125,3.661,25,3381,126,feet,jsons/VE125_randls_25.json,761103,961670,49,Man
50,522070,DepthScenes,duration_manipulation_targetAtFixation,jsons/VE125_randls_25.json,http://54.235.29.9/FacialAge/BNav_EC2/DepthDuration/v2_depth_duration_MTurk/v2_DepthDuration_HTML.html#42,42,1030,560,1536,864,8-21-2022,9-54-40,51,depth_duration_stimuli/001094_2014-06-15_17-36-00_260595134347_rgbf000205-resize_0/001094_2014-06-15_17-36-00_260595134347_rgbf000205-resize_0-target.png,125,4.2175,35,3914,125,feet,jsons/VE125_randls_25.json,761103,961670,49,Man
51,522070,DepthScenes,duration_manipulation_targetAtFixation,jsons/VE125_randls_25.json,http://54.235.29.9/FacialAge/BNav_EC2/DepthDuration/v2_depth_duration_MTurk/v2_DepthDuration_HTML.html#42,42,1030,560,1536,864,8-21-2022,9-54-40,52,depth_duration_stimuli/001133_2014-06-17_14-49-16_260595134347_rgbf000100-resize_0/001133_2014-06-17_14-49-16_260595134347_rgbf000100-resize_0-target.png,125,4.2115,25,7058,124,feet,jsons/VE125_randls_25.json,761103,961670,49,Man
52,522070,DepthScenes,duration_manipulation_targetAtFixation,jsons/VE125_randls_25.json,http://54.235.29.9/FacialAge/BNav_EC2/DepthDuration/v2_depth_duration_MTurk/v2_DepthDuration_HTML.html#42,42,1030,560,1536,864,8-21-2022,9-54-40,53,depth_duration_stimuli/001132_2014-06-17_14-48-54_260595134347_rgbf000100-resize_2/001132_2014-06-17_14-48-54_260595134347_rgbf000100-resize_2-target.png,125,3.753,20,3510,125,feet,jsons/VE125_randls_25.json,761103,961670,49,Man
53,522070,DepthScenes,duration_manipulation_targetAtFixation,jsons/VE125_randls_25.json,http://54.235.29.9/FacialAge/BNav_EC2/DepthDuration/v2_depth_duration_MTurk/v2_DepthDuration_HTML.html#42,42,1030,560,1536,864,8-21-2022,9-54-40,54,depth_duration_stimuli/001555_2014-06-20_17-12-10_260595134347_rgbf000065-resize_4/001555_2014-06-20_17-12-10_260595134347_rgbf000065-resize_4-target.png,125,1.633,6,4212,112,feet,jsons/VE125_randls_25.json,761103,961670,49,Man
54,522070,DepthScenes,duration_manipulation_targetAtFixation,jsons/VE125_randls_25.json,http://54.235.29.9/FacialAge/BNav_EC2/DepthDuration/v2_depth_duration_MTurk/v2_DepthDuration_HTML.html#42,42,1030,560,1536,864,8-21-2022,9-54-40,55,depth_duration_stimuli/000103_2014-05-14_22-01-17_260595134347_rgbf000152-resize_5/000103_2014-05-14_22-01-17_260595134347_rgbf000152-resize_5-target.png,125,1.993,20,3981,125,feet,jsons/VE125_randls_25.json,761103,961670,49,Man
55,522070,DepthScenes,duration_manipulation_targetAtFixation,jsons/VE125_randls_25.json,http://54.235.29.9/FacialAge/BNav_EC2/DepthDuration/v2_depth_duration_MTurk/v2_DepthDuration_HTML.html#42,42,1030,560,1536,864,8-21-2022,9-54-40,56,depth_duration_stimuli/002570_2014-06-24_13-59-54_094959634447_rgbf000059-resize_0/002570_2014-06-24_13-59-54_094959634447_rgbf000059-resize_0-target.png,125,4.037,15,4748,126,feet,jsons/VE125_randls_25.json,761103,961670,49,Man
56,522070,DepthScenes,duration_manipulation_targetAtFixation,jsons/VE125_randls_25.json,http://54.235.29.9/FacialAge/BNav_EC2/DepthDuration/v2_depth_duration_MTurk/v2_DepthDuration_HTML.html#42,42,1030,560,1536,864,8-21-2022,9-54-40,57,depth_duration_stimuli/002467_2014-06-28_20-38-07_260595134347_rgbf000026-resize_2/002467_2014-06-28_20-38-07_260595134347_rgbf000026-resize_2-target.png,125,4.742,0,5828,123,feet,jsons/VE125_randls_25.json,761103,961670,49,Man
57,522070,DepthScenes,duration_manipulation_targetAtFixation,jsons/VE125_randls_25.json,http://54.235.29.9/FacialAge/BNav_EC2/DepthDuration/v2_depth_duration_MTurk/v2_DepthDuration_HTML.html#42,42,1030,560,1536,864,8-21-2022,9-54-40,58,depth_duration_stimuli/001570_2014-06-20_17-21-09_260595134347_rgbf000135-resize_4/001570_2014-06-20_17-21-09_260595134347_rgbf000135-resize_4-target.png,125,4.467,25,3869,124,feet,jsons/VE125_randls_25.json,761103,961670,49,Man
58,522070,DepthScenes,duration_manipulation_targetAtFixation,jsons/VE125_randls_25.json,http://54.235.29.9/FacialAge/BNav_EC2/DepthDuration/v2_depth_duration_MTurk/v2_DepthDuration_HTML.html#42,42,1030,560,1536,864,8-21-2022,9-54-40,59,depth_duration_stimuli/001392_2014-06-19_16-07-59_260595134347_rgbf000046-resize_1/001392_2014-06-19_16-07-59_260595134347_rgbf000046-resize_1-target.png,125,4.135,25,4544,124,feet,jsons/VE125_randls_25.json,761103,961670,49,Man
59,522070,DepthScenes,duration_manipulation_targetAtFixation,jsons/VE125_randls_25.json,http://54.235.29.9/FacialAge/BNav_EC2/DepthDuration/v2_depth_duration_MTurk/v2_DepthDuration_HTML.html#42,42,1030,560,1536,864,8-21-2022,9-54-40,60,depth_duration_stimuli/002549_2014-06-24_13-41-39_094959634447_rgbf000022-resize_3/002549_2014-06-24_13-41-39_094959634447_rgbf000022-resize_3-target.png,125,1.476,15,3680,123,feet,jsons/VE125_randls_25.json,761103,961670,49,Man
60,522070,DepthScenes,duration_manipulation_targetAtFixation,jsons/VE125_randls_25.json,http://54.235.29.9/FacialAge/BNav_EC2/DepthDuration/v2_depth_duration_MTurk/v2_DepthDuration_HTML.html#42,42,1030,560,1536,864,8-21-2022,9-54-40,61,depth_duration_stimuli/002750_2014-06-22_19-08-03_094959634447_rgbf000094-resize_4/002750_2014-06-22_19-08-03_094959634447_rgbf000094-resize_4-target.png,125,2.354,0,3879,124,feet,jsons/VE125_randls_25.json,761103,961670,49,Man
61,522070,DepthScenes,duration_manipulation_targetAtFixation,jsons/VE125_randls_25.json,http://54.235.29.9/FacialAge/BNav_EC2/DepthDuration/v2_depth_duration_MTurk/v2_DepthDuration_HTML.html#42,42,1030,560,1536,864,8-21-2022,9-54-40,62,depth_duration_stimuli/001110_2014-06-15_17-25-28_260595134347_rgbf000150-resize_1/001110_2014-06-15_17-25-28_260595134347_rgbf000150-resize_1-target.png,125,1.7115,15,3649,125,feet,jsons/VE125_randls_25.json,761103,961670,49,Man
62,522070,DepthScenes,duration_manipulation_targetAtFixation,jsons/VE125_randls_25.json,http://54.235.29.9/FacialAge/BNav_EC2/DepthDuration/v2_depth_duration_MTurk/v2_DepthDuration_HTML.html#42,42,1030,560,1536,864,8-21-2022,9-54-40,63,depth_duration_stimuli/000927_2014-06-09_16-32-30_260595134347_rgbf000123-resize_3/000927_2014-06-09_16-32-30_260595134347_rgbf000123-resize_3-target.png,125,2.6785,20,2826,124,feet,jsons/VE125_randls_25.json,761103,961670,49,Man
63,522070,DepthScenes,duration_manipulation_targetAtFixation,jsons/VE125_randls_25.json,http://54.235.29.9/FacialAge/BNav_EC2/DepthDuration/v2_depth_duration_MTurk/v2_DepthDuration_HTML.html#42,42,1030,560,1536,864,8-21-2022,9-54-40,64,depth_duration_stimuli/002763_2014-06-22_19-13-10_094959634447_rgbf000075-resize_4/002763_2014-06-22_19-13-10_094959634447_rgbf000075-resize_4-target.png,125,1.68375,10,3325,124,feet,jsons/VE125_randls_25.json,761103,961670,49,Man
64,522070,DepthScenes,duration_manipulation_targetAtFixation,jsons/VE125_randls_25.json,http://54.235.29.9/FacialAge/BNav_EC2/DepthDuration/v2_depth_duration_MTurk/v2_DepthDuration_HTML.html#42,42,1030,560,1536,864,8-21-2022,9-54-40,65,depth_duration_stimuli/002209_2014-06-28_18-36-10_260595134347_rgbf000051-resize_1/002209_2014-06-28_18-36-10_260595134347_rgbf000051-resize_1-target.png,125,2.057,8,3403,125,feet,jsons/VE125_randls_25.json,761103,961670,49,Man
65,522070,DepthScenes,duration_manipulation_targetAtFixation,jsons/VE125_randls_25.json,http://54.235.29.9/FacialAge/BNav_EC2/DepthDuration/v2_depth_duration_MTurk/v2_DepthDuration_HTML.html#42,42,1030,560,1536,864,8-21-2022,9-54-40,66,depth_duration_stimuli/001222_2014-06-17_16-24-06_260595134347_rgbf000073-resize_0/001222_2014-06-17_16-24-06_260595134347_rgbf000073-resize-original.jpg,125,1.4385,0,3843,124,feet,jsons/VE125_randls_25.json,761103,961670,49,Man
66,522070,DepthScenes,duration_manipulation_targetAtFixation,jsons/VE125_randls_25.json,http://54.235.29.9/FacialAge/BNav_EC2/DepthDuration/v2_depth_duration_MTurk/v2_DepthDuration_HTML.html#42,42,1030,560,1536,864,8-21-2022,9-54-40,67,depth_duration_stimuli/000436_2014-06-09_22-25-11_260595134347_rgbf000137-resize_1/000436_2014-06-09_22-25-11_260595134347_rgbf000137-resize_1-target.png,125,4.0705,25,3559,126,feet,jsons/VE125_randls_25.json,761103,961670,49,Man
67,522070,DepthScenes,duration_manipulation_targetAtFixation,jsons/VE125_randls_25.json,http://54.235.29.9/FacialAge/BNav_EC2/DepthDuration/v2_depth_duration_MTurk/v2_DepthDuration_HTML.html#42,42,1030,560,1536,864,8-21-2022,9-54-40,68,depth_duration_stimuli/002444_2014-06-28_20-32-08_260595134347_rgbf000027-resize_0/002444_2014-06-28_20-32-08_260595134347_rgbf000027-resize_0-target.png,125,4.388999999999999,20,3294,110,feet,jsons/VE125_randls_25.json,761103,961670,49,Man
68,522070,DepthScenes,duration_manipulation_targetAtFixation,jsons/VE125_randls_25.json,http://54.235.29.9/FacialAge/BNav_EC2/DepthDuration/v2_depth_duration_MTurk/v2_DepthDuration_HTML.html#42,42,1030,560,1536,864,8-21-2022,9-54-40,69,depth_duration_stimuli/002988_2014-06-15_12-24-20_094959634447_rgbf000150-resize_1/002988_2014-06-15_12-24-20_094959634447_rgbf000150-resize_1-target.png,125,4.7669999999999995,25,4193,124,feet,jsons/VE125_randls_25.json,761103,961670,49,Man
69,522070,DepthScenes,duration_manipulation_targetAtFixation,jsons/VE125_randls_25.json,http://54.235.29.9/FacialAge/BNav_EC2/DepthDuration/v2_depth_duration_MTurk/v2_DepthDuration_HTML.html#42,42,1030,560,1536,864,8-21-2022,9-54-40,70,depth_duration_stimuli/001052_2014-06-08_18-24-54_260595134347_rgbf000130-resize_1/001052_2014-06-08_18-24-54_260595134347_rgbf000130-resize_1-target.png,125,4.1045,20,3824,126,feet,jsons/VE125_randls_25.json,761103,961670,49,Man
70,522070,DepthScenes,duration_manipulation_targetAtFixation,jsons/VE125_randls_25.json,http://54.235.29.9/FacialAge/BNav_EC2/DepthDuration/v2_depth_duration_MTurk/v2_DepthDuration_HTML.html#42,42,1030,560,1536,864,8-21-2022,9-54-40,71,depth_duration_stimuli/001150_2014-06-17_15-27-34_260595134347_rgbf000108-resize_2/001150_2014-06-17_15-27-34_260595134347_rgbf000108-resize_2-target.png,125,4.0325,25,3044,125,feet,jsons/VE125_randls_25.json,761103,961670,49,Man
71,522070,DepthScenes,duration_manipulation_targetAtFixation,jsons/VE125_randls_25.json,http://54.235.29.9/FacialAge/BNav_EC2/DepthDuration/v2_depth_duration_MTurk/v2_DepthDuration_HTML.html#42,42,1030,560,1536,864,8-21-2022,9-54-40,72,depth_duration_stimuli/000665_2014-06-09_20-42-35_260595134347_rgbf000110-resize_1/000665_2014-06-09_20-42-35_260595134347_rgbf000110-resize_1-target.png,125,3.057,15,2945,140,feet,jsons/VE125_randls_25.json,761103,961670,49,Man
72,522070,DepthScenes,duration_manipulation_targetAtFixation,jsons/VE125_randls_25.json,http://54.235.29.9/FacialAge/BNav_EC2/DepthDuration/v2_depth_duration_MTurk/v2_DepthDuration_HTML.html#42,42,1030,560,1536,864,8-21-2022,9-54-40,73,depth_duration_stimuli/001055_2014-06-08_18-45-35_260595134347_rgbf000111-resize_4/001055_2014-06-08_18-45-35_260595134347_rgbf000111-resize_4-target.png,125,2.4290000000000003,25,3588,125,feet,jsons/VE125_randls_25.json,761103,961670,49,Man
73,522070,DepthScenes,duration_manipulation_targetAtFixation,jsons/VE125_randls_25.json,http://54.235.29.9/FacialAge/BNav_EC2/DepthDuration/v2_depth_duration_MTurk/v2_DepthDuration_HTML.html#42,42,1030,560,1536,864,8-21-2022,9-54-40,74,depth_duration_stimuli/000549_2014-06-08_22-10-24_260595134347_rgbf000247-resize_3/000549_2014-06-08_22-10-24_260595134347_rgbf000247-resize_3-target.png,125,1.841,5,3192,126,feet,jsons/VE125_randls_25.json,761103,961670,49,Man
74,522070,DepthScenes,duration_manipulation_targetAtFixation,jsons/VE125_randls_25.json,http://54.235.29.9/FacialAge/BNav_EC2/DepthDuration/v2_depth_duration_MTurk/v2_DepthDuration_HTML.html#42,42,1030,560,1536,864,8-21-2022,9-54-40,75,depth_duration_stimuli/000917_2014-06-09_22-45-29_260595134347_rgbf000149-resize_3/000917_2014-06-09_22-45-29_260595134347_rgbf000149-resize_3-target.png,125,4.1865,20,2631,125,feet,jsons/VE125_randls_25.json,761103,961670,49,Man
75,522070,DepthScenes,duration_manipulation_targetAtFixation,jsons/VE125_randls_25.json,http://54.235.29.9/FacialAge/BNav_EC2/DepthDuration/v2_depth_duration_MTurk/v2_DepthDuration_HTML.html#42,42,1030,560,1536,864,8-21-2022,9-54-40,76,depth_duration_stimuli/002323_2014-06-28_20-01-54_260595134347_rgbf000051-resize_4/002323_2014-06-28_20-01-54_260595134347_rgbf000051-resize_4-target.png,125,3.7310000000000003,25,3232,123,feet,jsons/VE125_randls_25.json,761103,961670,49,Man
76,522070,DepthScenes,duration_manipulation_targetAtFixation,jsons/VE125_randls_25.json,http://54.235.29.9/FacialAge/BNav_EC2/DepthDuration/v2_depth_duration_MTurk/v2_DepthDuration_HTML.html#42,42,1030,560,1536,864,8-21-2022,9-54-40,77,depth_duration_stimuli/003621_2014-05-23_18-06-08_094959634447_rgbf000101-resize_1/003621_2014-05-23_18-06-08_094959634447_rgbf000101-resize_1-target.png,125,3.9835,25,3052,123,feet,jsons/VE125_randls_25.json,761103,961670,49,Man
77,522070,DepthScenes,duration_manipulation_targetAtFixation,jsons/VE125_randls_25.json,http://54.235.29.9/FacialAge/BNav_EC2/DepthDuration/v2_depth_duration_MTurk/v2_DepthDuration_HTML.html#42,42,1030,560,1536,864,8-21-2022,9-54-40,78,depth_duration_stimuli/001584_2014-06-20_11-07-43_260595134347_rgbf000002-resize_1/001584_2014-06-20_11-07-43_260595134347_rgbf000002-resize_1-target.png,125,3.53,15,2617,125,feet,jsons/VE125_randls_25.json,761103,961670,49,Man
78,522070,DepthScenes,duration_manipulation_targetAtFixation,jsons/VE125_randls_25.json,http://54.235.29.9/FacialAge/BNav_EC2/DepthDuration/v2_depth_duration_MTurk/v2_DepthDuration_HTML.html#42,42,1030,560,1536,864,8-21-2022,9-54-40,79,depth_duration_stimuli/001417_2014-06-19_16-25-36_260595134347_rgbf000115-resize_5/001417_2014-06-19_16-25-36_260595134347_rgbf000115-resize_5-target.png,125,4.6255,0,4267,125,feet,jsons/VE125_randls_25.json,761103,961670,49,Man
79,522070,DepthScenes,duration_manipulation_targetAtFixation,jsons/VE125_randls_25.json,http://54.235.29.9/FacialAge/BNav_EC2/DepthDuration/v2_depth_duration_MTurk/v2_DepthDuration_HTML.html#42,42,1030,560,1536,864,8-21-2022,9-54-40,80,depth_duration_stimuli/003081_2014-06-15_15-19-16_094959634447_rgbf000150-resize_1/003081_2014-06-15_15-19-16_094959634447_rgbf000150-resize_1-target.png,125,3.9125,24,2754,123,feet,jsons/VE125_randls_25.json,761103,961670,49,Man
80,522070,DepthScenes,duration_manipulation_targetAtFixation,jsons/VE125_randls_25.json,http://54.235.29.9/FacialAge/BNav_EC2/DepthDuration/v2_depth_duration_MTurk/v2_DepthDuration_HTML.html#42,42,1030,560,1536,864,8-21-2022,9-54-40,81,depth_duration_stimuli/001011_2014-06-08_23-18-54_260595134347_rgbf000044-resize_4/001011_2014-06-08_23-18-54_260595134347_rgbf000044-resize_4-target.png,125,2.4730000000000003,8,3011,125,feet,jsons/VE125_randls_25.json,761103,961670,49,Man
81,522070,DepthScenes,duration_manipulation_targetAtFixation,jsons/VE125_randls_25.json,http://54.235.29.9/FacialAge/BNav_EC2/DepthDuration/v2_depth_duration_MTurk/v2_DepthDuration_HTML.html#42,42,1030,560,1536,864,8-21-2022,9-54-40,82,depth_duration_stimuli/002875_2014-06-01_15-19-00_094959634447_rgbf000151-resize_1/002875_2014-06-01_15-19-00_094959634447_rgbf000151-resize_1-target.png,125,1.9675,20,4370,123,feet,jsons/VE125_randls_25.json,761103,961670,49,Man
82,522070,DepthScenes,duration_manipulation_targetAtFixation,jsons/VE125_randls_25.json,http://54.235.29.9/FacialAge/BNav_EC2/DepthDuration/v2_depth_duration_MTurk/v2_DepthDuration_HTML.html#42,42,1030,560,1536,864,8-21-2022,9-54-40,83,depth_duration_stimuli/001199_2014-06-17_16-03-48_260595134347_rgbf000077-resize_0/001199_2014-06-17_16-03-48_260595134347_rgbf000077-resize_0-target.png,125,3.4375,25,4094,124,feet,jsons/VE125_randls_25.json,761103,961670,49,Man
83,522070,DepthScenes,duration_manipulation_targetAtFixation,jsons/VE125_randls_25.json,http://54.235.29.9/FacialAge/BNav_EC2/DepthDuration/v2_depth_duration_MTurk/v2_DepthDuration_HTML.html#42,42,1030,560,1536,864,8-21-2022,9-54-40,84,depth_duration_stimuli/000502_2014-06-08_23-02-32_260595134347_rgbf000063-resize_4/000502_2014-06-08_23-02-32_260595134347_rgbf000063-resize_4-target.png,125,2.431,12,3265,125,feet,jsons/VE125_randls_25.json,761103,961670,49,Man
84,522070,DepthScenes,duration_manipulation_targetAtFixation,jsons/VE125_randls_25.json,http://54.235.29.9/FacialAge/BNav_EC2/DepthDuration/v2_depth_duration_MTurk/v2_DepthDuration_HTML.html#42,42,1030,560,1536,864,8-21-2022,9-54-40,85,depth_duration_stimuli/000506_2014-06-08_23-21-00_260595134347_rgbf000070-resize_7/000506_2014-06-08_23-21-00_260595134347_rgbf000070-resize_7-target.png,125,4.0585,25,2889,125,feet,jsons/VE125_randls_25.json,761103,961670,49,Man
85,522070,DepthScenes,duration_manipulation_targetAtFixation,jsons/VE125_randls_25.json,http://54.235.29.9/FacialAge/BNav_EC2/DepthDuration/v2_depth_duration_MTurk/v2_DepthDuration_HTML.html#42,42,1030,560,1536,864,8-21-2022,9-54-40,86,depth_duration_stimuli/003079_2014-06-15_15-18-20_094959634447_rgbf000152-resize_8/003079_2014-06-15_15-18-20_094959634447_rgbf000152-resize_8-target.png,125,2.8775,25,2743,125,feet,jsons/VE125_randls_25.json,761103,961670,49,Man
86,522070,DepthScenes,duration_manipulation_targetAtFixation,jsons/VE125_randls_25.json,http://54.235.29.9/FacialAge/BNav_EC2/DepthDuration/v2_depth_duration_MTurk/v2_DepthDuration_HTML.html#42,42,1030,560,1536,864,8-21-2022,9-54-40,87,depth_duration_stimuli/003492_2014-05-21_15-50-55_094959634447_rgbf000828-resize_1/003492_2014-05-21_15-50-55_094959634447_rgbf000828-resize_1-target.png,125,4.06875,30,3691,125,feet,jsons/VE125_randls_25.json,761103,961670,49,Man
87,522070,DepthScenes,duration_manipulation_targetAtFixation,jsons/VE125_randls_25.json,http://54.235.29.9/FacialAge/BNav_EC2/DepthDuration/v2_depth_duration_MTurk/v2_DepthDuration_HTML.html#42,42,1030,560,1536,864,8-21-2022,9-54-40,88,depth_duration_stimuli/002568_2014-06-24_13-59-21_094959634447_rgbf000062-resize_4/002568_2014-06-24_13-59-21_094959634447_rgbf000062-resize_4-target.png,125,3.015,15,2562,124,feet,jsons/VE125_randls_25.json,761103,961670,49,Man
88,522070,DepthScenes,duration_manipulation_targetAtFixation,jsons/VE125_randls_25.json,http://54.235.29.9/FacialAge/BNav_EC2/DepthDuration/v2_depth_duration_MTurk/v2_DepthDuration_HTML.html#42,42,1030,560,1536,864,8-21-2022,9-54-40,89,depth_duration_stimuli/001806_2014-06-26_20-50-20_260595134347_rgbf000091-resize_1/001806_2014-06-26_20-50-20_260595134347_rgbf000091-resize_1-target.png,125,2.7305,7,2664,126,feet,jsons/VE125_randls_25.json,761103,961670,49,Man
89,522070,DepthScenes,duration_manipulation_targetAtFixation,jsons/VE125_randls_25.json,http://54.235.29.9/FacialAge/BNav_EC2/DepthDuration/v2_depth_duration_MTurk/v2_DepthDuration_HTML.html#42,42,1030,560,1536,864,8-21-2022,9-54-40,90,depth_duration_stimuli/001617_2014-06-20_11-35-32_260595134347_rgbf000066-resize_1/001617_2014-06-20_11-35-32_260595134347_rgbf000066-resize_1-target.png,125,3.7910000000000004,20,2859,125,feet,jsons/VE125_randls_25.json,761103,961670,49,Man
90,522070,DepthScenes,duration_manipulation_targetAtFixation,jsons/VE125_randls_25.json,http://54.235.29.9/FacialAge/BNav_EC2/DepthDuration/v2_depth_duration_MTurk/v2_DepthDuration_HTML.html#42,42,1030,560,1536,864,8-21-2022,9-54-40,91,depth_duration_stimuli/000493_2014-06-09_21-01-18_260595134347_rgbf000196-resize_3/000493_2014-06-09_21-01-18_260595134347_rgbf000196-resize_3-target.png,125,3.44,15,4575,125,feet,jsons/VE125_randls_25.json,761103,961670,49,Man
91,522070,DepthScenes,duration_manipulation_targetAtFixation,jsons/VE125_randls_25.json,http://54.235.29.9/FacialAge/BNav_EC2/DepthDuration/v2_depth_duration_MTurk/v2_DepthDuration_HTML.html#42,42,1030,560,1536,864,8-21-2022,9-54-40,92,depth_duration_stimuli/000191_2014-05-12_17-07-38_260595134347_rgbf000199-resize_0/000191_2014-05-12_17-07-38_260595134347_rgbf000199-resize_0-target.png,125,3.7995,20,3534,123,feet,jsons/VE125_randls_25.json,761103,961670,49,Man
92,522070,DepthScenes,duration_manipulation_targetAtFixation,jsons/VE125_randls_25.json,http://54.235.29.9/FacialAge/BNav_EC2/DepthDuration/v2_depth_duration_MTurk/v2_DepthDuration_HTML.html#42,42,1030,560,1536,864,8-21-2022,9-54-40,93,depth_duration_stimuli/002039_2014-06-24_20-22-38_260595134347_rgbf000084-resize_1/002039_2014-06-24_20-22-38_260595134347_rgbf000084-resize_1-target.png,125,4.408,20,3532,124,feet,jsons/VE125_randls_25.json,761103,961670,49,Man
93,522070,DepthScenes,duration_manipulation_targetAtFixation,jsons/VE125_randls_25.json,http://54.235.29.9/FacialAge/BNav_EC2/DepthDuration/v2_depth_duration_MTurk/v2_DepthDuration_HTML.html#42,42,1030,560,1536,864,8-21-2022,9-54-40,94,depth_duration_stimuli/002103_2014-06-25_20-00-40_260595134347_rgbf000049-resize_0/002103_2014-06-25_20-00-40_260595134347_rgbf000049-resize_0-target.png,125,4.105,15,3520,123,feet,jsons/VE125_randls_25.json,761103,961670,49,Man
94,522070,DepthScenes,duration_manipulation_targetAtFixation,jsons/VE125_randls_25.json,http://54.235.29.9/FacialAge/BNav_EC2/DepthDuration/v2_depth_duration_MTurk/v2_DepthDuration_HTML.html#42,42,1030,560,1536,864,8-21-2022,9-54-40,95,depth_duration_stimuli/002989_2014-06-15_12-25-03_094959634447_rgbf000150-resize_3/002989_2014-06-15_12-25-03_094959634447_rgbf000150-resize_3-target.png,125,4.1975,25,2802,125,feet,jsons/VE125_randls_25.json,761103,961670,49,Man
95,522070,DepthScenes,duration_manipulation_targetAtFixation,jsons/VE125_randls_25.json,http://54.235.29.9/FacialAge/BNav_EC2/DepthDuration/v2_depth_duration_MTurk/v2_DepthDuration_HTML.html#42,42,1030,560,1536,864,8-21-2022,9-54-40,96,depth_duration_stimuli/000866_2014-06-09_20-45-42_260595134347_rgbf000139-resize_1/000866_2014-06-09_20-45-42_260595134347_rgbf000139-resize_1-target.png,125,3.2155,25,2980,124,feet,jsons/VE125_randls_25.json,761103,961670,49,Man
96,522070,DepthScenes,duration_manipulation_targetAtFixation,jsons/VE125_randls_25.json,http://54.235.29.9/FacialAge/BNav_EC2/DepthDuration/v2_depth_duration_MTurk/v2_DepthDuration_HTML.html#42,42,1030,560,1536,864,8-21-2022,9-54-40,97,depth_duration_stimuli/001164_2014-06-17_15-35-46_260595134347_rgbf000085-resize_3/001164_2014-06-17_15-35-46_260595134347_rgbf000085-resize_3-target.png,125,2.354,10,2616,125,feet,jsons/VE125_randls_25.json,761103,961670,49,Man
97,522070,DepthScenes,duration_manipulation_targetAtFixation,jsons/VE125_randls_25.json,http://54.235.29.9/FacialAge/BNav_EC2/DepthDuration/v2_depth_duration_MTurk/v2_DepthDuration_HTML.html#42,42,1030,560,1536,864,8-21-2022,9-54-40,98,depth_duration_stimuli/001136_2014-06-17_15-19-41_260595134347_rgbf000076-resize_3/001136_2014-06-17_15-19-41_260595134347_rgbf000076-resize_3-target.png,125,1.8655,8,2737,124,feet,jsons/VE125_randls_25.json,761103,961670,49,Man
98,522070,DepthScenes,duration_manipulation_targetAtFixation,jsons/VE125_randls_25.json,http://54.235.29.9/FacialAge/BNav_EC2/DepthDuration/v2_depth_duration_MTurk/v2_DepthDuration_HTML.html#42,42,1030,560,1536,864,8-21-2022,9-54-40,99,depth_duration_stimuli/001540_2014-06-20_17-01-05_260595134347_rgbf000086-resize_2/001540_2014-06-20_17-01-05_260595134347_rgbf000086-resize-original.jpg,125,1.459,0,4067,116,feet,jsons/VE125_randls_25.json,761103,961670,49,Man
99,522070,DepthScenes,duration_manipulation_targetAtFixation,jsons/VE125_randls_25.json,http://54.235.29.9/FacialAge/BNav_EC2/DepthDuration/v2_depth_duration_MTurk/v2_DepthDuration_HTML.html#42,42,1030,560,1536,864,8-21-2022,9-54-40,100,depth_duration_stimuli/002118_2014-06-25_20-32-08_260595134347_rgbf000078-resize_1/002118_2014-06-25_20-32-08_260595134347_rgbf000078-resize_1-target.png,125,2.6460000000000004,12,2918,123,feet,jsons/VE125_randls_25.json,761103,961670,49,Man
100,522070,DepthScenes,duration_manipulation_targetAtFixation,jsons/VE125_randls_25.json,http://54.235.29.9/FacialAge/BNav_EC2/DepthDuration/v2_depth_duration_MTurk/v2_DepthDuration_HTML.html#42,42,1030,560,1536,864,8-21-2022,9-54-40,101,depth_duration_stimuli/001516_2014-06-20_16-25-09_260595134347_rgbf000076-resize_2/001516_2014-06-20_16-25-09_260595134347_rgbf000076-resize_2-target.png,125,1.7445,8,2466,126,feet,jsons/VE125_randls_25.json,761103,961670,49,Man
101,522070,DepthScenes,duration_manipulation_targetAtFixation,jsons/VE125_randls_25.json,http://54.235.29.9/FacialAge/BNav_EC2/DepthDuration/v2_depth_duration_MTurk/v2_DepthDuration_HTML.html#42,42,1030,560,1536,864,8-21-2022,9-54-40,102,depth_duration_stimuli/002788_2014-06-22_19-36-03_094959634447_rgbf000088-resize_2/002788_2014-06-22_19-36-03_094959634447_rgbf000088-resize_2-target.png,125,1.6465,12,2580,124,feet,jsons/VE125_randls_25.json,761103,961670,49,Man
102,522070,DepthScenes,duration_manipulation_targetAtFixation,jsons/VE125_randls_25.json,http://54.235.29.9/FacialAge/BNav_EC2/DepthDuration/v2_depth_duration_MTurk/v2_DepthDuration_HTML.html#42,42,1030,560,1536,864,8-21-2022,9-54-40,103,depth_duration_stimuli/000749_2014-06-08_21-55-06_260595134347_rgbf000070-resize_2/000749_2014-06-08_21-55-06_260595134347_rgbf000070-resize_2-target.png,125,2.331,12,2978,123,feet,jsons/VE125_randls_25.json,761103,961670,49,Man
103,522070,DepthScenes,duration_manipulation_targetAtFixation,jsons/VE125_randls_25.json,http://54.235.29.9/FacialAge/BNav_EC2/DepthDuration/v2_depth_duration_MTurk/v2_DepthDuration_HTML.html#42,42,1030,560,1536,864,8-21-2022,9-54-40,104,depth_duration_stimuli/001016_2014-06-09_16-16-10_260595134347_rgbf000112-resize_5/001016_2014-06-09_16-16-10_260595134347_rgbf000112-resize_5-target.png,125,1.6565,8,3047,139,feet,jsons/VE125_randls_25.json,761103,961670,49,Man
104,522070,DepthScenes,duration_manipulation_targetAtFixation,jsons/VE125_randls_25.json,http://54.235.29.9/FacialAge/BNav_EC2/DepthDuration/v2_depth_duration_MTurk/v2_DepthDuration_HTML.html#42,42,1030,560,1536,864,8-21-2022,9-54-40,105,depth_duration_stimuli/002340_2014-06-28_20-05-46_260595134347_rgbf000113-resize_0/002340_2014-06-28_20-05-46_260595134347_rgbf000113-resize_0-target.png,125,2.4735,15,5107,124,feet,jsons/VE125_randls_25.json,761103,961670,49,Man
105,522070,DepthScenes,duration_manipulation_targetAtFixation,jsons/VE125_randls_25.json,http://54.235.29.9/FacialAge/BNav_EC2/DepthDuration/v2_depth_duration_MTurk/v2_DepthDuration_HTML.html#42,42,1030,560,1536,864,8-21-2022,9-54-40,106,depth_duration_stimuli/000009_2014-05-26_14-32-05_260595134347_rgbf000034-resize_3/000009_2014-05-26_14-32-05_260595134347_rgbf000034-resize_3-target.png,125,3.8715,20,2994,124,feet,jsons/VE125_randls_25.json,761103,961670,49,Man
106,522070,DepthScenes,duration_manipulation_targetAtFixation,jsons/VE125_randls_25.json,http://54.235.29.9/FacialAge/BNav_EC2/DepthDuration/v2_depth_duration_MTurk/v2_DepthDuration_HTML.html#42,42,1030,560,1536,864,8-21-2022,9-54-40,107,depth_duration_stimuli/001828_2014-06-26_21-40-03_260595134347_rgbf000024-resize_0/001828_2014-06-26_21-40-03_260595134347_rgbf000024-resize_0-target.png,125,4.8260000000000005,20,2857,125,feet,jsons/VE125_randls_25.json,761103,961670,49,Man
107,522070,DepthScenes,duration_manipulation_targetAtFixation,jsons/VE125_randls_25.json,http://54.235.29.9/FacialAge/BNav_EC2/DepthDuration/v2_depth_duration_MTurk/v2_DepthDuration_HTML.html#42,42,1030,560,1536,864,8-21-2022,9-54-40,108,depth_duration_stimuli/002153_2014-06-25_21-27-18_260595134347_rgbf000038-resize_5/002153_2014-06-25_21-27-18_260595134347_rgbf000038-resize_5-target.png,125,2.505,12,2879,125,feet,jsons/VE125_randls_25.json,761103,961670,49,Man
108,522070,DepthScenes,duration_manipulation_targetAtFixation,jsons/VE125_randls_25.json,http://54.235.29.9/FacialAge/BNav_EC2/DepthDuration/v2_depth_duration_MTurk/v2_DepthDuration_HTML.html#42,42,1030,560,1536,864,8-21-2022,9-54-40,109,depth_duration_stimuli/002660_2014-06-13_15-44-18_094959634447_rgbf001878-resize_2/002660_2014-06-13_15-44-18_094959634447_rgbf001878-resize_2-target.png,125,3.576,15,2856,126,feet,jsons/VE125_randls_25.json,761103,961670,49,Man
109,522070,DepthScenes,duration_manipulation_targetAtFixation,jsons/VE125_randls_25.json,http://54.235.29.9/FacialAge/BNav_EC2/DepthDuration/v2_depth_duration_MTurk/v2_DepthDuration_HTML.html#42,42,1030,560,1536,864,8-21-2022,9-54-40,110,depth_duration_stimuli/000469_2014-06-09_19-42-10_260595134347_rgbf000081-resize_1/000469_2014-06-09_19-42-10_260595134347_rgbf000081-resize_1-target.png,125,1.652,7,2332,123,feet,jsons/VE125_randls_25.json,761103,961670,49,Man
110,522070,DepthScenes,duration_manipulation_targetAtFixation,jsons/VE125_randls_25.json,http://54.235.29.9/FacialAge/BNav_EC2/DepthDuration/v2_depth_duration_MTurk/v2_DepthDuration_HTML.html#42,42,1030,560,1536,864,8-21-2022,9-54-40,111,depth_duration_stimuli/000483_2014-06-09_20-41-45_260595134347_rgbf000116-resize_4/000483_2014-06-09_20-41-45_260595134347_rgbf000116-resize_4-target.png,125,1.337,8,5272,123,feet,jsons/VE125_randls_25.json,761103,961670,49,Man
111,522070,DepthScenes,duration_manipulation_targetAtFixation,jsons/VE125_randls_25.json,http://54.235.29.9/FacialAge/BNav_EC2/DepthDuration/v2_depth_duration_MTurk/v2_DepthDuration_HTML.html#42,42,1030,560,1536,864,8-21-2022,9-54-40,112,depth_duration_stimuli/001056_2014-06-08_18-46-44_260595134347_rgbf000068-resize_0/001056_2014-06-08_18-46-44_260595134347_rgbf000068-resize_0-target.png,125,2.6625,10,3066,145,feet,jsons/VE125_randls_25.json,761103,961670,49,Man
112,522070,DepthScenes,duration_manipulation_targetAtFixation,jsons/VE125_randls_25.json,http://54.235.29.9/FacialAge/BNav_EC2/DepthDuration/v2_depth_duration_MTurk/v2_DepthDuration_HTML.html#42,42,1030,560,1536,864,8-21-2022,9-54-40,113,depth_duration_stimuli/002199_2014-06-28_18-33-56_260595134347_rgbf000074-resize_0/002199_2014-06-28_18-33-56_260595134347_rgbf000074-resize_0-target.png,125,1.996,8,4659,122,feet,jsons/VE125_randls_25.json,761103,961670,49,Man
113,522070,DepthScenes,duration_manipulation_targetAtFixation,jsons/VE125_randls_25.json,http://54.235.29.9/FacialAge/BNav_EC2/DepthDuration/v2_depth_duration_MTurk/v2_DepthDuration_HTML.html#42,42,1030,560,1536,864,8-21-2022,9-54-40,114,depth_duration_stimuli/001092_2014-06-15_17-34-58_260595134347_rgbf000171-resize_3/001092_2014-06-15_17-34-58_260595134347_rgbf000171-resize_3-target.png,125,2.6935,0,3492,110,feet,jsons/VE125_randls_25.json,761103,961670,49,Man
114,522070,DepthScenes,duration_manipulation_targetAtFixation,jsons/VE125_randls_25.json,http://54.235.29.9/FacialAge/BNav_EC2/DepthDuration/v2_depth_duration_MTurk/v2_DepthDuration_HTML.html#42,42,1030,560,1536,864,8-21-2022,9-54-40,115,depth_duration_stimuli/002545_2014-06-24_13-38-53_094959634447_rgbf000080-resize_4/002545_2014-06-24_13-38-53_094959634447_rgbf000080-resize_4-target.png,125,1.9205,1,2689,125,feet,jsons/VE125_randls_25.json,761103,961670,49,Man
115,522070,DepthScenes,duration_manipulation_targetAtFixation,jsons/VE125_randls_25.json,http://54.235.29.9/FacialAge/BNav_EC2/DepthDuration/v2_depth_duration_MTurk/v2_DepthDuration_HTML.html#42,42,1030,560,1536,864,8-21-2022,9-54-40,116,depth_duration_stimuli/001170_2014-06-17_15-43-44_260595134347_rgbf000096-resize_6/001170_2014-06-17_15-43-44_260595134347_rgbf000096-resize-original.jpg,125,1.1909999999999998,8,8851,124,feet,jsons/VE125_randls_25.json,761103,961670,49,Man
116,522070,DepthScenes,duration_manipulation_targetAtFixation,jsons/VE125_randls_25.json,http://54.235.29.9/FacialAge/BNav_EC2/DepthDuration/v2_depth_duration_MTurk/v2_DepthDuration_HTML.html#42,42,1030,560,1536,864,8-21-2022,9-54-40,117,depth_duration_stimuli/000878_2014-06-08_22-52-45_260595134347_rgbf000045-resize_2/000878_2014-06-08_22-52-45_260595134347_rgbf000045-resize_2-target.png,125,2.092,20,3287,110,feet,jsons/VE125_randls_25.json,761103,961670,49,Man
117,522070,DepthScenes,duration_manipulation_targetAtFixation,jsons/VE125_randls_25.json,http://54.235.29.9/FacialAge/BNav_EC2/DepthDuration/v2_depth_duration_MTurk/v2_DepthDuration_HTML.html#42,42,1030,560,1536,864,8-21-2022,9-54-40,118,depth_duration_stimuli/002953_2014-06-08_17-32-18_094959634447_rgbf000059-resize_5/002953_2014-06-08_17-32-18_094959634447_rgbf000059-resize_5-target.png,125,1.551,8,23919,124,feet,jsons/VE125_randls_25.json,761103,961670,49,Man
118,522070,DepthScenes,duration_manipulation_targetAtFixation,jsons/VE125_randls_25.json,http://54.235.29.9/FacialAge/BNav_EC2/DepthDuration/v2_depth_duration_MTurk/v2_DepthDuration_HTML.html#42,42,1030,560,1536,864,8-21-2022,9-54-40,119,depth_duration_stimuli/002600_2014-06-24_14-27-04_094959634447_rgbf000074-resize_2/002600_2014-06-24_14-27-04_094959634447_rgbf000074-resize_2-target.png,125,2.7575,15,4602,124,feet,jsons/VE125_randls_25.json,761103,961670,49,Man
119,522070,DepthScenes,duration_manipulation_targetAtFixation,jsons/VE125_randls_25.json,http://54.235.29.9/FacialAge/BNav_EC2/DepthDuration/v2_depth_duration_MTurk/v2_DepthDuration_HTML.html#42,42,1030,560,1536,864,8-21-2022,9-54-40,120,depth_duration_stimuli/003228_2014-05-14_13-42-35_094959634447_rgbf000101-resize_1/003228_2014-05-14_13-42-35_094959634447_rgbf000101-resize_1-target.png,125,1.9680000000000002,10,3407,124,feet,jsons/VE125_randls_25.json,761103,961670,49,Man
120,522070,DepthScenes,duration_manipulation_targetAtFixation,jsons/VE125_randls_25.json,http://54.235.29.9/FacialAge/BNav_EC2/DepthDuration/v2_depth_duration_MTurk/v2_DepthDuration_HTML.html#42,42,1030,560,1536,864,8-21-2022,9-54-40,121,depth_duration_stimuli/002375_2014-06-28_20-13-44_260595134347_rgbf000032-resize_1/002375_2014-06-28_20-13-44_260595134347_rgbf000032-resize_1-target.png,125,4.0175,15,3531,124,feet,jsons/VE125_randls_25.json,761103,961670,49,Man
121,522070,DepthScenes,duration_manipulation_targetAtFixation,jsons/VE125_randls_25.json,http://54.235.29.9/FacialAge/BNav_EC2/DepthDuration/v2_depth_duration_MTurk/v2_DepthDuration_HTML.html#42,42,1030,560,1536,864,8-21-2022,9-54-40,122,depth_duration_stimuli/002657_2014-06-13_15-29-54_094959634447_rgbf000150-resize_1/002657_2014-06-13_15-29-54_094959634447_rgbf000150-resize_1-target.png,125,4.919,15,3533,124,feet,jsons/VE125_randls_25.json,761103,961670,49,Man
122,522070,DepthScenes,duration_manipulation_targetAtFixation,jsons/VE125_randls_25.json,http://54.235.29.9/FacialAge/BNav_EC2/DepthDuration/v2_depth_duration_MTurk/v2_DepthDuration_HTML.html#42,42,1030,560,1536,864,8-21-2022,9-54-40,123,depth_duration_stimuli/002509_2014-06-24_13-19-22_094959634447_rgbf000077-resize_0/002509_2014-06-24_13-19-22_094959634447_rgbf000077-resize_0-target.png,125,1.3065,15,8403,122,feet,jsons/VE125_randls_25.json,761103,961670,49,Man
123,522070,DepthScenes,duration_manipulation_targetAtFixation,jsons/VE125_randls_25.json,http://54.235.29.9/FacialAge/BNav_EC2/DepthDuration/v2_depth_duration_MTurk/v2_DepthDuration_HTML.html#42,42,1030,560,1536,864,8-21-2022,9-54-40,124,depth_duration_stimuli/003338_2014-05-20_11-01-23_094959634447_rgbf000051-resize_6/003338_2014-05-20_11-01-23_094959634447_rgbf000051-resize_6-target.png,125,1.693,10,3644,125,feet,jsons/VE125_randls_25.json,761103,961670,49,Man
124,522070,DepthScenes,duration_manipulation_targetAtFixation,jsons/VE125_randls_25.json,http://54.235.29.9/FacialAge/BNav_EC2/DepthDuration/v2_depth_duration_MTurk/v2_DepthDuration_HTML.html#42,42,1030,560,1536,864,8-21-2022,9-54-40,125,depth_duration_stimuli/000470_2014-06-09_19-42-40_260595134347_rgbf000094-resize_1/000470_2014-06-09_19-42-40_260595134347_rgbf000094-resize_1-target.png,125,1.831,8,3596,125,feet,jsons/VE125_randls_25.json,761103,961670,49,Man
125,522070,DepthScenes,duration_manipulation_targetAtFixation,jsons/VE125_randls_25.json,http://54.235.29.9/FacialAge/BNav_EC2/DepthDuration/v2_depth_duration_MTurk/v2_DepthDuration_HTML.html#42,42,1030,560,1536,864,8-21-2022,9-54-40,126,depth_duration_stimuli/000109_2014-05-14_23-41-52_260595134347_rgbf000035-resize_9/000109_2014-05-14_23-41-52_260595134347_rgbf000035-resize_9-target.png,125,1.3545,7,3278,111,feet,jsons/VE125_randls_25.json,761103,961670,49,Man
126,522070,DepthScenes,duration_manipulation_targetAtFixation,jsons/VE125_randls_25.json,http://54.235.29.9/FacialAge/BNav_EC2/DepthDuration/v2_depth_duration_MTurk/v2_DepthDuration_HTML.html#42,42,1030,560,1536,864,8-21-2022,9-54-40,127,depth_duration_stimuli/001175_2014-06-17_15-45-55_260595134347_rgbf000129-resize_4/001175_2014-06-17_15-45-55_260595134347_rgbf000129-resize_4-target.png,125,4.255,25,3056,125,feet,jsons/VE125_randls_25.json,761103,961670,49,Man
127,522070,DepthScenes,duration_manipulation_targetAtFixation,jsons/VE125_randls_25.json,http://54.235.29.9/FacialAge/BNav_EC2/DepthDuration/v2_depth_duration_MTurk/v2_DepthDuration_HTML.html#42,42,1030,560,1536,864,8-21-2022,9-54-40,128,depth_duration_stimuli/003490_2014-05-21_15-50-11_094959634447_rgbf000101-resize_3/003490_2014-05-21_15-50-11_094959634447_rgbf000101-resize_3-target.png,125,3.6445,25,3097,124,feet,jsons/VE125_randls_25.json,761103,961670,49,Man
128,522070,DepthScenes,duration_manipulation_targetAtFixation,jsons/VE125_randls_25.json,http://54.235.29.9/FacialAge/BNav_EC2/DepthDuration/v2_depth_duration_MTurk/v2_DepthDuration_HTML.html#42,42,1030,560,1536,864,8-21-2022,9-54-40,129,depth_duration_stimuli/002057_2014-06-24_21-00-13_260595134347_rgbf000120-resize_1/002057_2014-06-24_21-00-13_260595134347_rgbf000120-resize_1-target.png,125,2.967,20,3047,124,feet,jsons/VE125_randls_25.json,761103,961670,49,Man
129,522070,DepthScenes,duration_manipulation_targetAtFixation,jsons/VE125_randls_25.json,http://54.235.29.9/FacialAge/BNav_EC2/DepthDuration/v2_depth_duration_MTurk/v2_DepthDuration_HTML.html#42,42,1030,560,1536,864,8-21-2022,9-54-40,130,depth_duration_stimuli/000709_2014-06-08_13-51-55_260595134347_rgbf000068-resize_3/000709_2014-06-08_13-51-55_260595134347_rgbf000068-resize_3-target.png,125,1.8030000000000002,15,3855,124,feet,jsons/VE125_randls_25.json,761103,961670,49,Man
130,522070,DepthScenes,duration_manipulation_targetAtFixation,jsons/VE125_randls_25.json,http://54.235.29.9/FacialAge/BNav_EC2/DepthDuration/v2_depth_duration_MTurk/v2_DepthDuration_HTML.html#42,42,1030,560,1536,864,8-21-2022,9-54-40,131,depth_duration_stimuli/002748_2014-06-22_19-07-22_094959634447_rgbf000078-resize_1/002748_2014-06-22_19-07-22_094959634447_rgbf000078-resize_1-target.png,125,4.6705,25,3164,110,feet,jsons/VE125_randls_25.json,761103,961670,49,Man
131,522070,DepthScenes,duration_manipulation_targetAtFixation,jsons/VE125_randls_25.json,http://54.235.29.9/FacialAge/BNav_EC2/DepthDuration/v2_depth_duration_MTurk/v2_DepthDuration_HTML.html#42,42,1030,560,1536,864,8-21-2022,9-54-40,132,depth_duration_stimuli/002995_2014-06-15_12-31-26_094959634447_rgbf000150-resize_1/002995_2014-06-15_12-31-26_094959634447_rgbf000150-resize_1-target.png,125,3.8360000000000003,25,3254,125,feet,jsons/VE125_randls_25.json,761103,961670,49,Man
132,522070,DepthScenes,duration_manipulation_targetAtFixation,jsons/VE125_randls_25.json,http://54.235.29.9/FacialAge/BNav_EC2/DepthDuration/v2_depth_duration_MTurk/v2_DepthDuration_HTML.html#42,42,1030,560,1536,864,8-21-2022,9-54-40,133,depth_duration_stimuli/000736_2014-06-08_18-24-15_260595134347_rgbf000206-resize_3/000736_2014-06-08_18-24-15_260595134347_rgbf000206-resize_3-target.png,125,3.515,15,2568,111,feet,jsons/VE125_randls_25.json,761103,961670,49,Man
133,522070,DepthScenes,duration_manipulation_targetAtFixation,jsons/VE125_randls_25.json,http://54.235.29.9/FacialAge/BNav_EC2/DepthDuration/v2_depth_duration_MTurk/v2_DepthDuration_HTML.html#42,42,1030,560,1536,864,8-21-2022,9-54-40,134,depth_duration_stimuli/000137_2014-05-20_17-04-49_260595134347_rgbf000120-resize_1/000137_2014-05-20_17-04-49_260595134347_rgbf000120-resize_1-target.png,125,3.786,20,2764,124,feet,jsons/VE125_randls_25.json,761103,961670,49,Man
134,522070,DepthScenes,duration_manipulation_targetAtFixation,jsons/VE125_randls_25.json,http://54.235.29.9/FacialAge/BNav_EC2/DepthDuration/v2_depth_duration_MTurk/v2_DepthDuration_HTML.html#42,42,1030,560,1536,864,8-21-2022,9-54-40,135,depth_duration_stimuli/002072_2014-06-24_21-48-06_260595134347_rgbf000115-resize_0/002072_2014-06-24_21-48-06_260595134347_rgbf000115-resize-original.jpg,125,4.702,20,3490,123,feet,jsons/VE125_randls_25.json,761103,961670,49,Man
135,522070,DepthScenes,duration_manipulation_targetAtFixation,jsons/VE125_randls_25.json,http://54.235.29.9/FacialAge/BNav_EC2/DepthDuration/v2_depth_duration_MTurk/v2_DepthDuration_HTML.html#42,42,1030,560,1536,864,8-21-2022,9-54-40,136,depth_duration_stimuli/002279_2014-06-28_18-55-32_260595134347_rgbf000040-resize_5/002279_2014-06-28_18-55-32_260595134347_rgbf000040-resize_5-target.png,125,1.5043333333333,8,3476,124,feet,jsons/VE125_randls_25.json,761103,961670,49,Man
136,522070,DepthScenes,duration_manipulation_targetAtFixation,jsons/VE125_randls_25.json,http://54.235.29.9/FacialAge/BNav_EC2/DepthDuration/v2_depth_duration_MTurk/v2_DepthDuration_HTML.html#42,42,1030,560,1536,864,8-21-2022,9-54-40,137,depth_duration_stimuli/000635_2014-06-08_16-38-42_260595134347_rgbf000106-resize_1/000635_2014-06-08_16-38-42_260595134347_rgbf000106-resize_1-target.png,125,2.074,8,5325,125,feet,jsons/VE125_randls_25.json,761103,961670,49,Man
137,522070,DepthScenes,duration_manipulation_targetAtFixation,jsons/VE125_randls_25.json,http://54.235.29.9/FacialAge/BNav_EC2/DepthDuration/v2_depth_duration_MTurk/v2_DepthDuration_HTML.html#42,42,1030,560,1536,864,8-21-2022,9-54-40,138,depth_duration_stimuli/000414_2014-06-04_19-49-13_260595134347_rgbf000044-resize_0/000414_2014-06-04_19-49-13_260595134347_rgbf000044-resize_0-target.png,125,4.329,20,3918,124,feet,jsons/VE125_randls_25.json,761103,961670,49,Man
138,522070,DepthScenes,duration_manipulation_targetAtFixation,jsons/VE125_randls_25.json,http://54.235.29.9/FacialAge/BNav_EC2/DepthDuration/v2_depth_duration_MTurk/v2_DepthDuration_HTML.html#42,42,1030,560,1536,864,8-21-2022,9-54-40,139,depth_duration_stimuli/003129_2014-05-12_10-48-10_094959634447_rgbf000100-resize_0/003129_2014-05-12_10-48-10_094959634447_rgbf000100-resize_0-target.png,125,4.9305,20,4234,124,feet,jsons/VE125_randls_25.json,761103,961670,49,Man
139,522070,DepthScenes,duration_manipulation_targetAtFixation,jsons/VE125_randls_25.json,http://54.235.29.9/FacialAge/BNav_EC2/DepthDuration/v2_depth_duration_MTurk/v2_DepthDuration_HTML.html#42,42,1030,560,1536,864,8-21-2022,9-54-40,140,depth_duration_stimuli/001808_2014-06-26_20-50-58_260595134347_rgbf000029-resize_1/001808_2014-06-26_20-50-58_260595134347_rgbf000029-resize_1-target.png,125,4.249,0,4733,124,feet,jsons/VE125_randls_25.json,761103,961670,49,Man
140,522070,DepthScenes,duration_manipulation_targetAtFixation,jsons/VE125_randls_25.json,http://54.235.29.9/FacialAge/BNav_EC2/DepthDuration/v2_depth_duration_MTurk/v2_DepthDuration_HTML.html#42,42,1030,560,1536,864,8-21-2022,9-54-40,141,depth_duration_stimuli/001815_2014-06-26_20-52-55_260595134347_rgbf000020-resize_0/001815_2014-06-26_20-52-55_260595134347_rgbf000020-resize_0-target.png,125,3.3865,25,3105,124,feet,jsons/VE125_randls_25.json,761103,961670,49,Man
141,522070,DepthScenes,duration_manipulation_targetAtFixation,jsons/VE125_randls_25.json,http://54.235.29.9/FacialAge/BNav_EC2/DepthDuration/v2_depth_duration_MTurk/v2_DepthDuration_HTML.html#42,42,1030,560,1536,864,8-21-2022,9-54-40,142,depth_duration_stimuli/000486_2014-06-09_20-47-20_260595134347_rgbf000143-resize_2/000486_2014-06-09_20-47-20_260595134347_rgbf000143-resize_2-target.png,125,4.8325,15,2706,138,feet,jsons/VE125_randls_25.json,761103,961670,49,Man
142,522070,DepthScenes,duration_manipulation_targetAtFixation,jsons/VE125_randls_25.json,http://54.235.29.9/FacialAge/BNav_EC2/DepthDuration/v2_depth_duration_MTurk/v2_DepthDuration_HTML.html#42,42,1030,560,1536,864,8-21-2022,9-54-40,143,depth_duration_stimuli/003083_2014-06-15_15-21-03_094959634447_rgbf000063-resize_1/003083_2014-06-15_15-21-03_094959634447_rgbf000063-resize_1-target.png,125,4.1405,20,2456,124,feet,jsons/VE125_randls_25.json,761103,961670,49,Man
143,522070,DepthScenes,duration_manipulation_targetAtFixation,jsons/VE125_randls_25.json,http://54.235.29.9/FacialAge/BNav_EC2/DepthDuration/v2_depth_duration_MTurk/v2_DepthDuration_HTML.html#42,42,1030,560,1536,864,8-21-2022,9-54-40,144,depth_duration_stimuli/002213_2014-06-28_18-37-58_260595134347_rgbf000055-resize_1/002213_2014-06-28_18-37-58_260595134347_rgbf000055-resize_1-target.png,125,3.62,20,2527,123,feet,jsons/VE125_randls_25.json,761103,961670,49,Man
144,522070,DepthScenes,duration_manipulation_targetAtFixation,jsons/VE125_randls_25.json,http://54.235.29.9/FacialAge/BNav_EC2/DepthDuration/v2_depth_duration_MTurk/v2_DepthDuration_HTML.html#42,42,1030,560,1536,864,8-21-2022,9-54-40,145,depth_duration_stimuli/000691_2014-06-08_13-08-50_260595134347_rgbf000132-resize_3/000691_2014-06-08_13-08-50_260595134347_rgbf000132-resize_3-target.png,125,4.1530000000000005,15,3064,124,feet,jsons/VE125_randls_25.json,761103,961670,49,Man
145,522070,DepthScenes,duration_manipulation_targetAtFixation,jsons/VE125_randls_25.json,http://54.235.29.9/FacialAge/BNav_EC2/DepthDuration/v2_depth_duration_MTurk/v2_DepthDuration_HTML.html#42,42,1030,560,1536,864,8-21-2022,9-54-40,146,depth_duration_stimuli/001498_2014-06-19_17-45-14_260595134347_rgbf000129-resize_4/001498_2014-06-19_17-45-14_260595134347_rgbf000129-resize-original.jpg,125,1.4075,8,2844,125,feet,jsons/VE125_randls_25.json,761103,961670,49,Man
146,522070,DepthScenes,duration_manipulation_targetAtFixation,jsons/VE125_randls_25.json,http://54.235.29.9/FacialAge/BNav_EC2/DepthDuration/v2_depth_duration_MTurk/v2_DepthDuration_HTML.html#42,42,1030,560,1536,864,8-21-2022,9-54-40,147,depth_duration_stimuli/000739_2014-06-08_18-45-58_260595134347_rgbf000068-resize_1/000739_2014-06-08_18-45-58_260595134347_rgbf000068-resize_1-target.png,125,3.534,15,2428,125,feet,jsons/VE125_randls_25.json,761103,961670,49,Man
147,522070,DepthScenes,duration_manipulation_targetAtFixation,jsons/VE125_randls_25.json,http://54.235.29.9/FacialAge/BNav_EC2/DepthDuration/v2_depth_duration_MTurk/v2_DepthDuration_HTML.html#42,42,1030,560,1536,864,8-21-2022,9-54-40,148,depth_duration_stimuli/000734_2014-06-08_17-39-11_260595134347_rgbf000128-resize_2/000734_2014-06-08_17-39-11_260595134347_rgbf000128-resize_2-target.png,125,4.098,15,2597,126,feet,jsons/VE125_randls_25.json,761103,961670,49,Man
148,522070,DepthScenes,duration_manipulation_targetAtFixation,jsons/VE125_randls_25.json,http://54.235.29.9/FacialAge/BNav_EC2/DepthDuration/v2_depth_duration_MTurk/v2_DepthDuration_HTML.html#42,42,1030,560,1536,864,8-21-2022,9-54-40,149,depth_duration_stimuli/002964_2014-06-08_17-46-11_094959634447_rgbf000091-resize_4/002964_2014-06-08_17-46-11_094959634447_rgbf000091-resize_4-target.png,125,1.6909999999999998,7,2670,125,feet,jsons/VE125_randls_25.json,761103,961670,49,Man
149,522070,DepthScenes,duration_manipulation_targetAtFixation,jsons/VE125_randls_25.json,http://54.235.29.9/FacialAge/BNav_EC2/DepthDuration/v2_depth_duration_MTurk/v2_DepthDuration_HTML.html#42,42,1030,560,1536,864,8-21-2022,9-54-40,150,depth_duration_stimuli/002136_2014-06-25_21-18-03_260595134347_rgbf000109-resize_3/002136_2014-06-25_21-18-03_260595134347_rgbf000109-resize_3-target.png,125,1.9569999999999999,7,3532,122,feet,jsons/VE125_randls_25.json,761103,961670,49,Man
150,522070,DepthScenes,duration_manipulation_targetAtFixation,jsons/VE125_randls_25.json,http://54.235.29.9/FacialAge/BNav_EC2/DepthDuration/v2_depth_duration_MTurk/v2_DepthDuration_HTML.html#42,42,1030,560,1536,864,8-21-2022,9-54-40,151,depth_duration_stimuli/000929_2014-06-09_16-33-19_260595134347_rgbf000139-resize_0/000929_2014-06-09_16-33-19_260595134347_rgbf000139-resize_0-target.png,125,2.8680000000000003,12,2430,123,feet,jsons/VE125_randls_25.json,761103,961670,49,Man
151,522070,DepthScenes,duration_manipulation_targetAtFixation,jsons/VE125_randls_25.json,http://54.235.29.9/FacialAge/BNav_EC2/DepthDuration/v2_depth_duration_MTurk/v2_DepthDuration_HTML.html#42,42,1030,560,1536,864,8-21-2022,9-54-40,152,depth_duration_stimuli/000457_2014-06-08_16-52-43_260595134347_rgbf000199-resize_1/000457_2014-06-08_16-52-43_260595134347_rgbf000199-resize_1-target.png,125,3.6489999999999996,15,4026,124,feet,jsons/VE125_randls_25.json,761103,961670,49,Man
152,522070,DepthScenes,duration_manipulation_targetAtFixation,jsons/VE125_randls_25.json,http://54.235.29.9/FacialAge/BNav_EC2/DepthDuration/v2_depth_duration_MTurk/v2_DepthDuration_HTML.html#42,42,1030,560,1536,864,8-21-2022,9-54-40,153,depth_duration_stimuli/001029_2014-06-08_13-17-57_260595134347_rgbf000065-resize_1/001029_2014-06-08_13-17-57_260595134347_rgbf000065-resize_1-target.png,125,3.0835,10,4938,124,feet,jsons/VE125_randls_25.json,761103,961670,49,Man
153,522070,DepthScenes,duration_manipulation_targetAtFixation,jsons/VE125_randls_25.json,http://54.235.29.9/FacialAge/BNav_EC2/DepthDuration/v2_depth_duration_MTurk/v2_DepthDuration_HTML.html#42,42,1030,560,1536,864,8-21-2022,9-54-40,154,depth_duration_stimuli/000677_2014-06-08_23-10-32_260595134347_rgbf000158-resize_6/000677_2014-06-08_23-10-32_260595134347_rgbf000158-resize_6-target.png,125,3.556,10,4278,125,feet,jsons/VE125_randls_25.json,761103,961670,49,Man
154,522070,DepthScenes,duration_manipulation_targetAtFixation,jsons/VE125_randls_25.json,http://54.235.29.9/FacialAge/BNav_EC2/DepthDuration/v2_depth_duration_MTurk/v2_DepthDuration_HTML.html#42,42,1030,560,1536,864,8-21-2022,9-54-40,155,depth_duration_stimuli/001167_2014-06-17_15-38-07_260595134347_rgbf000108-resize_0/001167_2014-06-17_15-38-07_260595134347_rgbf000108-resize_0-target.png,125,1.8505,7,2744,125,feet,jsons/VE125_randls_25.json,761103,961670,49,Man
155,522070,DepthScenes,duration_manipulation_targetAtFixation,jsons/VE125_randls_25.json,http://54.235.29.9/FacialAge/BNav_EC2/DepthDuration/v2_depth_duration_MTurk/v2_DepthDuration_HTML.html#42,42,1030,560,1536,864,8-21-2022,9-54-40,156,depth_duration_stimuli/003587_2014-05-23_16-48-02_094959634447_rgbf002384-resize_2/003587_2014-05-23_16-48-02_094959634447_rgbf002384-resize_2-target.png,125,1.357,5,2705,125,feet,jsons/VE125_randls_25.json,761103,961670,49,Man
156,522070,DepthScenes,duration_manipulation_targetAtFixation,jsons/VE125_randls_25.json,http://54.235.29.9/FacialAge/BNav_EC2/DepthDuration/v2_depth_duration_MTurk/v2_DepthDuration_HTML.html#42,42,1030,560,1536,864,8-21-2022,9-54-40,157,depth_duration_stimuli/003070_2014-06-15_14-58-27_094959634447_rgbf000150-resize_3/003070_2014-06-15_14-58-27_094959634447_rgbf000150-resize_3-target.png,125,2.9415,15,2909,123,feet,jsons/VE125_randls_25.json,761103,961670,49,Man
157,522070,DepthScenes,duration_manipulation_targetAtFixation,jsons/VE125_randls_25.json,http://54.235.29.9/FacialAge/BNav_EC2/DepthDuration/v2_depth_duration_MTurk/v2_DepthDuration_HTML.html#42,42,1030,560,1536,864,8-21-2022,9-54-40,158,depth_duration_stimuli/000943_2014-06-09_19-31-07_260595134347_rgbf000128-resize_1/000943_2014-06-09_19-31-07_260595134347_rgbf000128-resize_1-target.png,125,1.9765,10,2447,124,feet,jsons/VE125_randls_25.json,761103,961670,49,Man
158,522070,DepthScenes,duration_manipulation_targetAtFixation,jsons/VE125_randls_25.json,http://54.235.29.9/FacialAge/BNav_EC2/DepthDuration/v2_depth_duration_MTurk/v2_DepthDuration_HTML.html#42,42,1030,560,1536,864,8-21-2022,9-54-40,159,depth_duration_stimuli/000773_2014-06-08_22-24-54_260595134347_rgbf000093-resize_1/000773_2014-06-08_22-24-54_260595134347_rgbf000093-resize_1-target.png,125,4.973,20,2332,123,feet,jsons/VE125_randls_25.json,761103,961670,49,Man
159,522070,DepthScenes,duration_manipulation_targetAtFixation,jsons/VE125_randls_25.json,http://54.235.29.9/FacialAge/BNav_EC2/DepthDuration/v2_depth_duration_MTurk/v2_DepthDuration_HTML.html#42,42,1030,560,1536,864,8-21-2022,9-54-40,160,depth_duration_stimuli/002414_2014-06-28_20-24-58_260595134347_rgbf000067-resize_4/002414_2014-06-28_20-24-58_260595134347_rgbf000067-resize_4-target.png,125,4.363,15,2521,125,feet,jsons/VE125_randls_25.json,761103,961670,49,Man
160,522070,DepthScenes,duration_manipulation_targetAtFixation,jsons/VE125_randls_25.json,http://54.235.29.9/FacialAge/BNav_EC2/DepthDuration/v2_depth_duration_MTurk/v2_DepthDuration_HTML.html#42,42,1030,560,1536,864,8-21-2022,9-54-40,161,depth_duration_stimuli/000682_2014-06-08_23-14-58_260595134347_rgbf000041-resize_5/000682_2014-06-08_23-14-58_260595134347_rgbf000041-resize_5-target.png,125,2.7239999999999998,8,2491,125,feet,jsons/VE125_randls_25.json,761103,961670,49,Man
161,522070,DepthScenes,duration_manipulation_targetAtFixation,jsons/VE125_randls_25.json,http://54.235.29.9/FacialAge/BNav_EC2/DepthDuration/v2_depth_duration_MTurk/v2_DepthDuration_HTML.html#42,42,1030,560,1536,864,8-21-2022,9-54-40,162,depth_duration_stimuli/001650_2014-06-20_12-09-00_260595134347_rgbf000087-resize_3/001650_2014-06-20_12-09-00_260595134347_rgbf000087-resize_3-target.png,125,1.9505,7,2560,123,feet,jsons/VE125_randls_25.json,761103,961670,49,Man
162,522070,DepthScenes,duration_manipulation_targetAtFixation,jsons/VE125_randls_25.json,http://54.235.29.9/FacialAge/BNav_EC2/DepthDuration/v2_depth_duration_MTurk/v2_DepthDuration_HTML.html#42,42,1030,560,1536,864,8-21-2022,9-54-40,163,depth_duration_stimuli/002272_2014-06-28_18-53-56_260595134347_rgbf000067-resize_2/002272_2014-06-28_18-53-56_260595134347_rgbf000067-resize_2-target.png,125,1.138,8,5529,109,feet,jsons/VE125_randls_25.json,761103,961670,49,Man
163,522070,DepthScenes,duration_manipulation_targetAtFixation,jsons/VE125_randls_25.json,http://54.235.29.9/FacialAge/BNav_EC2/DepthDuration/v2_depth_duration_MTurk/v2_DepthDuration_HTML.html#42,42,1030,560,1536,864,8-21-2022,9-54-40,164,depth_duration_stimuli/001571_2014-06-20_17-21-32_260595134347_rgbf000089-resize_1/001571_2014-06-20_17-21-32_260595134347_rgbf000089-resize_1-target.png,125,1.86,7,3079,127,feet,jsons/VE125_randls_25.json,761103,961670,49,Man
