,subjID,experimentName,versionName,sequenceName,url,selected_row,windowWidth,windowHeight,screenWidth,screenHeight,startDate,startTime,trial,stimulus,duration,actual_depth,depth_estimate,trial_RT,log_sceneDuration,unitSelection,seq_filepath,experimentTime,totalTime,age,gender
0,523472,DepthScenes,duration_manipulation_targetAtFixation,jsons/v1_VE250_randls_62_rotated.json,http://54.235.29.9/FacialAge/BNav_EC2/DepthDuration/v2_depth_duration_MTurk/v2_DepthDuration_HTML.html#40,40,1920,1009,1920,1080,8-20-2022,11-54-14,1,depth_duration_stimuli/001214_2014-06-17_16-13-55_260595134347_rgbf000111-resize_0/001214_2014-06-17_16-13-55_260595134347_rgbf000111-resize_0-target.png,250,2.6505,5,3145,249,feet,jsons/v1_VE250_randls_62_rotated.json,522063,899803,43,Man
1,523472,DepthScenes,duration_manipulation_targetAtFixation,jsons/v1_VE250_randls_62_rotated.json,http://54.235.29.9/FacialAge/BNav_EC2/DepthDuration/v2_depth_duration_MTurk/v2_DepthDuration_HTML.html#40,40,1920,1009,1920,1080,8-20-2022,11-54-14,2,depth_duration_stimuli/000810_2014-06-08_17-20-01_260595134347_rgbf000105-resize_0/000810_2014-06-08_17-20-01_260595134347_rgbf000105-resize_0-target.png,250,1.4865,4,2813,246,feet,jsons/v1_VE250_randls_62_rotated.json,522063,899803,43,Man
2,523472,DepthScenes,duration_manipulation_targetAtFixation,jsons/v1_VE250_randls_62_rotated.json,http://54.235.29.9/FacialAge/BNav_EC2/DepthDuration/v2_depth_duration_MTurk/v2_DepthDuration_HTML.html#40,40,1920,1009,1920,1080,8-20-2022,11-54-14,3,depth_duration_stimuli/002953_2014-06-08_17-32-18_094959634447_rgbf000059-resize_5/002953_2014-06-08_17-32-18_094959634447_rgbf000059-resize_5-target.png,250,1.551,3,2535,264,feet,jsons/v1_VE250_randls_62_rotated.json,522063,899803,43,Man
3,523472,DepthScenes,duration_manipulation_targetAtFixation,jsons/v1_VE250_randls_62_rotated.json,http://54.235.29.9/FacialAge/BNav_EC2/DepthDuration/v2_depth_duration_MTurk/v2_DepthDuration_HTML.html#40,40,1920,1009,1920,1080,8-20-2022,11-54-14,4,depth_duration_stimuli/000878_2014-06-08_22-52-45_260595134347_rgbf000045-resize_2/000878_2014-06-08_22-52-45_260595134347_rgbf000045-resize_2-target.png,250,2.092,5,2914,244,feet,jsons/v1_VE250_randls_62_rotated.json,522063,899803,43,Man
4,523472,DepthScenes,duration_manipulation_targetAtFixation,jsons/v1_VE250_randls_62_rotated.json,http://54.235.29.9/FacialAge/BNav_EC2/DepthDuration/v2_depth_duration_MTurk/v2_DepthDuration_HTML.html#40,40,1920,1009,1920,1080,8-20-2022,11-54-14,5,depth_duration_stimuli/001516_2014-06-20_16-25-09_260595134347_rgbf000076-resize_2/001516_2014-06-20_16-25-09_260595134347_rgbf000076-resize_2-target.png,250,1.7445,5,2465,247,feet,jsons/v1_VE250_randls_62_rotated.json,522063,899803,43,Man
5,523472,DepthScenes,duration_manipulation_targetAtFixation,jsons/v1_VE250_randls_62_rotated.json,http://54.235.29.9/FacialAge/BNav_EC2/DepthDuration/v2_depth_duration_MTurk/v2_DepthDuration_HTML.html#40,40,1920,1009,1920,1080,8-20-2022,11-54-14,6,depth_duration_stimuli/002118_2014-06-25_20-32-08_260595134347_rgbf000078-resize_1/002118_2014-06-25_20-32-08_260595134347_rgbf000078-resize_1-target.png,250,2.6460000000000004,7,2900,249,feet,jsons/v1_VE250_randls_62_rotated.json,522063,899803,43,Man
6,523472,DepthScenes,duration_manipulation_targetAtFixation,jsons/v1_VE250_randls_62_rotated.json,http://54.235.29.9/FacialAge/BNav_EC2/DepthDuration/v2_depth_duration_MTurk/v2_DepthDuration_HTML.html#40,40,1920,1009,1920,1080,8-20-2022,11-54-14,7,depth_duration_stimuli/003490_2014-05-21_15-50-11_094959634447_rgbf000101-resize_3/003490_2014-05-21_15-50-11_094959634447_rgbf000101-resize_3-target.png,250,3.6445,10,3859,249,feet,jsons/v1_VE250_randls_62_rotated.json,522063,899803,43,Man
7,523472,DepthScenes,duration_manipulation_targetAtFixation,jsons/v1_VE250_randls_62_rotated.json,http://54.235.29.9/FacialAge/BNav_EC2/DepthDuration/v2_depth_duration_MTurk/v2_DepthDuration_HTML.html#40,40,1920,1009,1920,1080,8-20-2022,11-54-14,8,depth_duration_stimuli/001175_2014-06-17_15-45-55_260595134347_rgbf000129-resize_4/001175_2014-06-17_15-45-55_260595134347_rgbf000129-resize_4-target.png,250,4.255,11,3184,249,feet,jsons/v1_VE250_randls_62_rotated.json,522063,899803,43,Man
8,523472,DepthScenes,duration_manipulation_targetAtFixation,jsons/v1_VE250_randls_62_rotated.json,http://54.235.29.9/FacialAge/BNav_EC2/DepthDuration/v2_depth_duration_MTurk/v2_DepthDuration_HTML.html#40,40,1920,1009,1920,1080,8-20-2022,11-54-14,9,depth_duration_stimuli/001450_2014-06-19_17-02-03_260595134347_rgbf000203-resize_4/001450_2014-06-19_17-02-03_260595134347_rgbf000203-resize_4-target.png,250,4.0106666666667,12,2381,261,feet,jsons/v1_VE250_randls_62_rotated.json,522063,899803,43,Man
9,523472,DepthScenes,duration_manipulation_targetAtFixation,jsons/v1_VE250_randls_62_rotated.json,http://54.235.29.9/FacialAge/BNav_EC2/DepthDuration/v2_depth_duration_MTurk/v2_DepthDuration_HTML.html#40,40,1920,1009,1920,1080,8-20-2022,11-54-14,10,depth_duration_stimuli/001449_2014-06-19_17-01-27_260595134347_rgbf000116-resize_2/001449_2014-06-19_17-01-27_260595134347_rgbf000116-resize_2-target.png,250,3.452,8,3229,249,feet,jsons/v1_VE250_randls_62_rotated.json,522063,899803,43,Man
10,523472,DepthScenes,duration_manipulation_targetAtFixation,jsons/v1_VE250_randls_62_rotated.json,http://54.235.29.9/FacialAge/BNav_EC2/DepthDuration/v2_depth_duration_MTurk/v2_DepthDuration_HTML.html#40,40,1920,1009,1920,1080,8-20-2022,11-54-14,11,depth_duration_stimuli/003083_2014-06-15_15-21-03_094959634447_rgbf000063-resize_1/003083_2014-06-15_15-21-03_094959634447_rgbf000063-resize_1-target.png,250,4.1405,10,2847,248,feet,jsons/v1_VE250_randls_62_rotated.json,522063,899803,43,Man
11,523472,DepthScenes,duration_manipulation_targetAtFixation,jsons/v1_VE250_randls_62_rotated.json,http://54.235.29.9/FacialAge/BNav_EC2/DepthDuration/v2_depth_duration_MTurk/v2_DepthDuration_HTML.html#40,40,1920,1009,1920,1080,8-20-2022,11-54-14,12,depth_duration_stimuli/000486_2014-06-09_20-47-20_260595134347_rgbf000143-resize_2/000486_2014-06-09_20-47-20_260595134347_rgbf000143-resize_2-target.png,250,4.8325,9,3325,249,feet,jsons/v1_VE250_randls_62_rotated.json,522063,899803,43,Man
12,523472,DepthScenes,duration_manipulation_targetAtFixation,jsons/v1_VE250_randls_62_rotated.json,http://54.235.29.9/FacialAge/BNav_EC2/DepthDuration/v2_depth_duration_MTurk/v2_DepthDuration_HTML.html#40,40,1920,1009,1920,1080,8-20-2022,11-54-14,13,depth_duration_stimuli/000556_2014-06-09_22-42-56_260595134347_rgbf000214-resize_1/000556_2014-06-09_22-42-56_260595134347_rgbf000214-resize_1-target.png,250,4.8415,10,3246,249,feet,jsons/v1_VE250_randls_62_rotated.json,522063,899803,43,Man
13,523472,DepthScenes,duration_manipulation_targetAtFixation,jsons/v1_VE250_randls_62_rotated.json,http://54.235.29.9/FacialAge/BNav_EC2/DepthDuration/v2_depth_duration_MTurk/v2_DepthDuration_HTML.html#40,40,1920,1009,1920,1080,8-20-2022,11-54-14,14,depth_duration_stimuli/001158_2014-06-17_15-32-16_260595134347_rgbf000138-resize_2/001158_2014-06-17_15-32-16_260595134347_rgbf000138-resize_2-target.png,250,4.5315,12,2399,250,feet,jsons/v1_VE250_randls_62_rotated.json,522063,899803,43,Man
14,523472,DepthScenes,duration_manipulation_targetAtFixation,jsons/v1_VE250_randls_62_rotated.json,http://54.235.29.9/FacialAge/BNav_EC2/DepthDuration/v2_depth_duration_MTurk/v2_DepthDuration_HTML.html#40,40,1920,1009,1920,1080,8-20-2022,11-54-14,15,depth_duration_stimuli/000457_2014-06-08_16-52-43_260595134347_rgbf000199-resize_1/000457_2014-06-08_16-52-43_260595134347_rgbf000199-resize_1-target.png,250,3.6489999999999996,9,3188,260,feet,jsons/v1_VE250_randls_62_rotated.json,522063,899803,43,Man
15,523472,DepthScenes,duration_manipulation_targetAtFixation,jsons/v1_VE250_randls_62_rotated.json,http://54.235.29.9/FacialAge/BNav_EC2/DepthDuration/v2_depth_duration_MTurk/v2_DepthDuration_HTML.html#40,40,1920,1009,1920,1080,8-20-2022,11-54-14,16,depth_duration_stimuli/000929_2014-06-09_16-33-19_260595134347_rgbf000139-resize_0/000929_2014-06-09_16-33-19_260595134347_rgbf000139-resize_0-target.png,250,2.8680000000000003,9,2803,250,feet,jsons/v1_VE250_randls_62_rotated.json,522063,899803,43,Man
16,523472,DepthScenes,duration_manipulation_targetAtFixation,jsons/v1_VE250_randls_62_rotated.json,http://54.235.29.9/FacialAge/BNav_EC2/DepthDuration/v2_depth_duration_MTurk/v2_DepthDuration_HTML.html#40,40,1920,1009,1920,1080,8-20-2022,11-54-14,17,depth_duration_stimuli/002340_2014-06-28_20-05-46_260595134347_rgbf000113-resize_0/002340_2014-06-28_20-05-46_260595134347_rgbf000113-resize_0-target.png,250,2.4735,8,2886,248,feet,jsons/v1_VE250_randls_62_rotated.json,522063,899803,43,Man
17,523472,DepthScenes,duration_manipulation_targetAtFixation,jsons/v1_VE250_randls_62_rotated.json,http://54.235.29.9/FacialAge/BNav_EC2/DepthDuration/v2_depth_duration_MTurk/v2_DepthDuration_HTML.html#40,40,1920,1009,1920,1080,8-20-2022,11-54-14,18,depth_duration_stimuli/001016_2014-06-09_16-16-10_260595134347_rgbf000112-resize_5/001016_2014-06-09_16-16-10_260595134347_rgbf000112-resize_5-target.png,250,1.6565,6,2542,250,feet,jsons/v1_VE250_randls_62_rotated.json,522063,899803,43,Man
18,523472,DepthScenes,duration_manipulation_targetAtFixation,jsons/v1_VE250_randls_62_rotated.json,http://54.235.29.9/FacialAge/BNav_EC2/DepthDuration/v2_depth_duration_MTurk/v2_DepthDuration_HTML.html#40,40,1920,1009,1920,1080,8-20-2022,11-54-14,19,depth_duration_stimuli/001498_2014-06-19_17-45-14_260595134347_rgbf000129-resize_4/001498_2014-06-19_17-45-14_260595134347_rgbf000129-resize-original.jpg,250,1.4075,0,2760,248,feet,jsons/v1_VE250_randls_62_rotated.json,522063,899803,43,Man
19,523472,DepthScenes,duration_manipulation_targetAtFixation,jsons/v1_VE250_randls_62_rotated.json,http://54.235.29.9/FacialAge/BNav_EC2/DepthDuration/v2_depth_duration_MTurk/v2_DepthDuration_HTML.html#40,40,1920,1009,1920,1080,8-20-2022,11-54-14,20,depth_duration_stimuli/000854_2014-06-09_19-43-13_260595134347_rgbf000066-resize_0/000854_2014-06-09_19-43-13_260595134347_rgbf000066-resize_0-target.png,250,3.068,6,2783,250,feet,jsons/v1_VE250_randls_62_rotated.json,522063,899803,43,Man
20,523472,DepthScenes,duration_manipulation_targetAtFixation,jsons/v1_VE250_randls_62_rotated.json,http://54.235.29.9/FacialAge/BNav_EC2/DepthDuration/v2_depth_duration_MTurk/v2_DepthDuration_HTML.html#40,40,1920,1009,1920,1080,8-20-2022,11-54-14,21,depth_duration_stimuli/000758_2014-06-08_22-05-08_260595134347_rgbf000085-resize_0/000758_2014-06-08_22-05-08_260595134347_rgbf000085-resize_0-target.png,250,3.3810000000000002,10,2885,249,feet,jsons/v1_VE250_randls_62_rotated.json,522063,899803,43,Man
21,523472,DepthScenes,duration_manipulation_targetAtFixation,jsons/v1_VE250_randls_62_rotated.json,http://54.235.29.9/FacialAge/BNav_EC2/DepthDuration/v2_depth_duration_MTurk/v2_DepthDuration_HTML.html#40,40,1920,1009,1920,1080,8-20-2022,11-54-14,22,depth_duration_stimuli/001650_2014-06-20_12-09-00_260595134347_rgbf000087-resize_3/001650_2014-06-20_12-09-00_260595134347_rgbf000087-resize_3-target.png,250,1.9505,2,2168,248,feet,jsons/v1_VE250_randls_62_rotated.json,522063,899803,43,Man
22,523472,DepthScenes,duration_manipulation_targetAtFixation,jsons/v1_VE250_randls_62_rotated.json,http://54.235.29.9/FacialAge/BNav_EC2/DepthDuration/v2_depth_duration_MTurk/v2_DepthDuration_HTML.html#40,40,1920,1009,1920,1080,8-20-2022,11-54-14,23,depth_duration_stimuli/000682_2014-06-08_23-14-58_260595134347_rgbf000041-resize_5/000682_2014-06-08_23-14-58_260595134347_rgbf000041-resize_5-target.png,250,2.7239999999999998,4,2743,250,feet,jsons/v1_VE250_randls_62_rotated.json,522063,899803,43,Man
23,523472,DepthScenes,duration_manipulation_targetAtFixation,jsons/v1_VE250_randls_62_rotated.json,http://54.235.29.9/FacialAge/BNav_EC2/DepthDuration/v2_depth_duration_MTurk/v2_DepthDuration_HTML.html#40,40,1920,1009,1920,1080,8-20-2022,11-54-14,24,depth_duration_stimuli/001617_2014-06-20_11-35-32_260595134347_rgbf000066-resize_1/001617_2014-06-20_11-35-32_260595134347_rgbf000066-resize_1-target.png,250,3.7910000000000004,9,2766,249,feet,jsons/v1_VE250_randls_62_rotated.json,522063,899803,43,Man
24,523472,DepthScenes,duration_manipulation_targetAtFixation,jsons/v1_VE250_randls_62_rotated.json,http://54.235.29.9/FacialAge/BNav_EC2/DepthDuration/v2_depth_duration_MTurk/v2_DepthDuration_HTML.html#40,40,1920,1009,1920,1080,8-20-2022,11-54-14,25,depth_duration_stimuli/001806_2014-06-26_20-50-20_260595134347_rgbf000091-resize_1/001806_2014-06-26_20-50-20_260595134347_rgbf000091-resize_1-target.png,250,2.7305,5,2841,248,feet,jsons/v1_VE250_randls_62_rotated.json,522063,899803,43,Man
25,523472,DepthScenes,duration_manipulation_targetAtFixation,jsons/v1_VE250_randls_62_rotated.json,http://54.235.29.9/FacialAge/BNav_EC2/DepthDuration/v2_depth_duration_MTurk/v2_DepthDuration_HTML.html#40,40,1920,1009,1920,1080,8-20-2022,11-54-14,26,depth_duration_stimuli/001815_2014-06-26_20-52-55_260595134347_rgbf000020-resize_0/001815_2014-06-26_20-52-55_260595134347_rgbf000020-resize_0-target.png,250,3.3865,9,3169,261,feet,jsons/v1_VE250_randls_62_rotated.json,522063,899803,43,Man
26,523472,DepthScenes,duration_manipulation_targetAtFixation,jsons/v1_VE250_randls_62_rotated.json,http://54.235.29.9/FacialAge/BNav_EC2/DepthDuration/v2_depth_duration_MTurk/v2_DepthDuration_HTML.html#40,40,1920,1009,1920,1080,8-20-2022,11-54-14,27,depth_duration_stimuli/001808_2014-06-26_20-50-58_260595134347_rgbf000029-resize_1/001808_2014-06-26_20-50-58_260595134347_rgbf000029-resize_1-target.png,250,4.249,10,2877,249,feet,jsons/v1_VE250_randls_62_rotated.json,522063,899803,43,Man
27,523472,DepthScenes,duration_manipulation_targetAtFixation,jsons/v1_VE250_randls_62_rotated.json,http://54.235.29.9/FacialAge/BNav_EC2/DepthDuration/v2_depth_duration_MTurk/v2_DepthDuration_HTML.html#40,40,1920,1009,1920,1080,8-20-2022,11-54-14,28,depth_duration_stimuli/002444_2014-06-28_20-32-08_260595134347_rgbf000027-resize_0/002444_2014-06-28_20-32-08_260595134347_rgbf000027-resize_0-target.png,250,4.388999999999999,9,2744,258,feet,jsons/v1_VE250_randls_62_rotated.json,522063,899803,43,Man
28,523472,DepthScenes,duration_manipulation_targetAtFixation,jsons/v1_VE250_randls_62_rotated.json,http://54.235.29.9/FacialAge/BNav_EC2/DepthDuration/v2_depth_duration_MTurk/v2_DepthDuration_HTML.html#40,40,1920,1009,1920,1080,8-20-2022,11-54-14,29,depth_duration_stimuli/000436_2014-06-09_22-25-11_260595134347_rgbf000137-resize_1/000436_2014-06-09_22-25-11_260595134347_rgbf000137-resize_1-target.png,250,4.0705,11,2339,252,feet,jsons/v1_VE250_randls_62_rotated.json,522063,899803,43,Man
29,523472,DepthScenes,duration_manipulation_targetAtFixation,jsons/v1_VE250_randls_62_rotated.json,http://54.235.29.9/FacialAge/BNav_EC2/DepthDuration/v2_depth_duration_MTurk/v2_DepthDuration_HTML.html#40,40,1920,1009,1920,1080,8-20-2022,11-54-14,30,depth_duration_stimuli/002072_2014-06-24_21-48-06_260595134347_rgbf000115-resize_0/002072_2014-06-24_21-48-06_260595134347_rgbf000115-resize-original.jpg,250,4.702,0,2596,252,feet,jsons/v1_VE250_randls_62_rotated.json,522063,899803,43,Man
30,523472,DepthScenes,duration_manipulation_targetAtFixation,jsons/v1_VE250_randls_62_rotated.json,http://54.235.29.9/FacialAge/BNav_EC2/DepthDuration/v2_depth_duration_MTurk/v2_DepthDuration_HTML.html#40,40,1920,1009,1920,1080,8-20-2022,11-54-14,31,depth_duration_stimuli/000665_2014-06-09_20-42-35_260595134347_rgbf000110-resize_1/000665_2014-06-09_20-42-35_260595134347_rgbf000110-resize_1-target.png,250,3.057,7,2527,250,feet,jsons/v1_VE250_randls_62_rotated.json,522063,899803,43,Man
31,523472,DepthScenes,duration_manipulation_targetAtFixation,jsons/v1_VE250_randls_62_rotated.json,http://54.235.29.9/FacialAge/BNav_EC2/DepthDuration/v2_depth_duration_MTurk/v2_DepthDuration_HTML.html#40,40,1920,1009,1920,1080,8-20-2022,11-54-14,32,depth_duration_stimuli/001150_2014-06-17_15-27-34_260595134347_rgbf000108-resize_2/001150_2014-06-17_15-27-34_260595134347_rgbf000108-resize_2-target.png,250,4.0325,9,2649,264,feet,jsons/v1_VE250_randls_62_rotated.json,522063,899803,43,Man
32,523472,DepthScenes,duration_manipulation_targetAtFixation,jsons/v1_VE250_randls_62_rotated.json,http://54.235.29.9/FacialAge/BNav_EC2/DepthDuration/v2_depth_duration_MTurk/v2_DepthDuration_HTML.html#40,40,1920,1009,1920,1080,8-20-2022,11-54-14,33,depth_duration_stimuli/000691_2014-06-08_13-08-50_260595134347_rgbf000132-resize_3/000691_2014-06-08_13-08-50_260595134347_rgbf000132-resize_3-target.png,250,4.1530000000000005,10,2867,249,feet,jsons/v1_VE250_randls_62_rotated.json,522063,899803,43,Man
33,523472,DepthScenes,duration_manipulation_targetAtFixation,jsons/v1_VE250_randls_62_rotated.json,http://54.235.29.9/FacialAge/BNav_EC2/DepthDuration/v2_depth_duration_MTurk/v2_DepthDuration_HTML.html#40,40,1920,1009,1920,1080,8-20-2022,11-54-14,34,depth_duration_stimuli/002213_2014-06-28_18-37-58_260595134347_rgbf000055-resize_1/002213_2014-06-28_18-37-58_260595134347_rgbf000055-resize_1-target.png,250,3.62,11,2230,250,feet,jsons/v1_VE250_randls_62_rotated.json,522063,899803,43,Man
34,523472,DepthScenes,duration_manipulation_targetAtFixation,jsons/v1_VE250_randls_62_rotated.json,http://54.235.29.9/FacialAge/BNav_EC2/DepthDuration/v2_depth_duration_MTurk/v2_DepthDuration_HTML.html#40,40,1920,1009,1920,1080,8-20-2022,11-54-14,35,depth_duration_stimuli/000409_2014-06-04_19-23-33_260595134347_rgbf000067-resize_0/000409_2014-06-04_19-23-33_260595134347_rgbf000067-resize_0-target.png,250,3.7335,7,2826,246,feet,jsons/v1_VE250_randls_62_rotated.json,522063,899803,43,Man
35,523472,DepthScenes,duration_manipulation_targetAtFixation,jsons/v1_VE250_randls_62_rotated.json,http://54.235.29.9/FacialAge/BNav_EC2/DepthDuration/v2_depth_duration_MTurk/v2_DepthDuration_HTML.html#40,40,1920,1009,1920,1080,8-20-2022,11-54-14,36,depth_duration_stimuli/002663_2014-06-13_15-50-26_094959634447_rgbf000075-resize_1/002663_2014-06-13_15-50-26_094959634447_rgbf000075-resize_1-target.png,250,4.7495,9,2663,256,feet,jsons/v1_VE250_randls_62_rotated.json,522063,899803,43,Man
36,523472,DepthScenes,duration_manipulation_targetAtFixation,jsons/v1_VE250_randls_62_rotated.json,http://54.235.29.9/FacialAge/BNav_EC2/DepthDuration/v2_depth_duration_MTurk/v2_DepthDuration_HTML.html#40,40,1920,1009,1920,1080,8-20-2022,11-54-14,37,depth_duration_stimuli/002660_2014-06-13_15-44-18_094959634447_rgbf001878-resize_2/002660_2014-06-13_15-44-18_094959634447_rgbf001878-resize_2-target.png,250,3.576,9,2590,248,feet,jsons/v1_VE250_randls_62_rotated.json,522063,899803,43,Man
37,523472,DepthScenes,duration_manipulation_targetAtFixation,jsons/v1_VE250_randls_62_rotated.json,http://54.235.29.9/FacialAge/BNav_EC2/DepthDuration/v2_depth_duration_MTurk/v2_DepthDuration_HTML.html#40,40,1920,1009,1920,1080,8-20-2022,11-54-14,38,depth_duration_stimuli/002153_2014-06-25_21-27-18_260595134347_rgbf000038-resize_5/002153_2014-06-25_21-27-18_260595134347_rgbf000038-resize_5-target.png,250,2.505,7,2635,251,feet,jsons/v1_VE250_randls_62_rotated.json,522063,899803,43,Man
38,523472,DepthScenes,duration_manipulation_targetAtFixation,jsons/v1_VE250_randls_62_rotated.json,http://54.235.29.9/FacialAge/BNav_EC2/DepthDuration/v2_depth_duration_MTurk/v2_DepthDuration_HTML.html#40,40,1920,1009,1920,1080,8-20-2022,11-54-14,39,depth_duration_stimuli/002875_2014-06-01_15-19-00_094959634447_rgbf000151-resize_1/002875_2014-06-01_15-19-00_094959634447_rgbf000151-resize_1-target.png,250,1.9675,9,2959,252,feet,jsons/v1_VE250_randls_62_rotated.json,522063,899803,43,Man
39,523472,DepthScenes,duration_manipulation_targetAtFixation,jsons/v1_VE250_randls_62_rotated.json,http://54.235.29.9/FacialAge/BNav_EC2/DepthDuration/v2_depth_duration_MTurk/v2_DepthDuration_HTML.html#40,40,1920,1009,1920,1080,8-20-2022,11-54-14,40,depth_duration_stimuli/001011_2014-06-08_23-18-54_260595134347_rgbf000044-resize_4/001011_2014-06-08_23-18-54_260595134347_rgbf000044-resize_4-target.png,250,2.4730000000000003,8,2699,255,feet,jsons/v1_VE250_randls_62_rotated.json,522063,899803,43,Man
40,523472,DepthScenes,duration_manipulation_targetAtFixation,jsons/v1_VE250_randls_62_rotated.json,http://54.235.29.9/FacialAge/BNav_EC2/DepthDuration/v2_depth_duration_MTurk/v2_DepthDuration_HTML.html#40,40,1920,1009,1920,1080,8-20-2022,11-54-14,41,depth_duration_stimuli/002657_2014-06-13_15-29-54_094959634447_rgbf000150-resize_1/002657_2014-06-13_15-29-54_094959634447_rgbf000150-resize_1-target.png,250,4.919,10,2835,259,feet,jsons/v1_VE250_randls_62_rotated.json,522063,899803,43,Man
41,523472,DepthScenes,duration_manipulation_targetAtFixation,jsons/v1_VE250_randls_62_rotated.json,http://54.235.29.9/FacialAge/BNav_EC2/DepthDuration/v2_depth_duration_MTurk/v2_DepthDuration_HTML.html#40,40,1920,1009,1920,1080,8-20-2022,11-54-14,42,depth_duration_stimuli/002375_2014-06-28_20-13-44_260595134347_rgbf000032-resize_1/002375_2014-06-28_20-13-44_260595134347_rgbf000032-resize_1-target.png,250,4.0175,7,2679,246,feet,jsons/v1_VE250_randls_62_rotated.json,522063,899803,43,Man
42,523472,DepthScenes,duration_manipulation_targetAtFixation,jsons/v1_VE250_randls_62_rotated.json,http://54.235.29.9/FacialAge/BNav_EC2/DepthDuration/v2_depth_duration_MTurk/v2_DepthDuration_HTML.html#40,40,1920,1009,1920,1080,8-20-2022,11-54-14,43,depth_duration_stimuli/002425_2014-06-28_20-27-29_260595134347_rgbf000031-resize_8/002425_2014-06-28_20-27-29_260595134347_rgbf000031-resize_8-target.png,250,3.8960000000000004,10,2750,246,feet,jsons/v1_VE250_randls_62_rotated.json,522063,899803,43,Man
43,523472,DepthScenes,duration_manipulation_targetAtFixation,jsons/v1_VE250_randls_62_rotated.json,http://54.235.29.9/FacialAge/BNav_EC2/DepthDuration/v2_depth_duration_MTurk/v2_DepthDuration_HTML.html#40,40,1920,1009,1920,1080,8-20-2022,11-54-14,44,depth_duration_stimuli/000642_2014-06-08_16-59-25_260595134347_rgbf000098-resize_2/000642_2014-06-08_16-59-25_260595134347_rgbf000098-resize_2-target.png,250,2.8815,7,2705,250,feet,jsons/v1_VE250_randls_62_rotated.json,522063,899803,43,Man
44,523472,DepthScenes,duration_manipulation_targetAtFixation,jsons/v1_VE250_randls_62_rotated.json,http://54.235.29.9/FacialAge/BNav_EC2/DepthDuration/v2_depth_duration_MTurk/v2_DepthDuration_HTML.html#40,40,1920,1009,1920,1080,8-20-2022,11-54-14,45,depth_duration_stimuli/002805_2014-06-22_19-54-03_094959634447_rgbf000079-resize_1/002805_2014-06-22_19-54-03_094959634447_rgbf000079-resize_1-target.png,250,3.1439999999999997,10,3700,250,feet,jsons/v1_VE250_randls_62_rotated.json,522063,899803,43,Man
45,523472,DepthScenes,duration_manipulation_targetAtFixation,jsons/v1_VE250_randls_62_rotated.json,http://54.235.29.9/FacialAge/BNav_EC2/DepthDuration/v2_depth_duration_MTurk/v2_DepthDuration_HTML.html#40,40,1920,1009,1920,1080,8-20-2022,11-54-14,46,depth_duration_stimuli/000906_2014-06-08_13-35-43_260595134347_rgbf000155-resize_1/000906_2014-06-08_13-35-43_260595134347_rgbf000155-resize_1-target.png,250,2.8489999999999998,11,2211,264,feet,jsons/v1_VE250_randls_62_rotated.json,522063,899803,43,Man
46,523472,DepthScenes,duration_manipulation_targetAtFixation,jsons/v1_VE250_randls_62_rotated.json,http://54.235.29.9/FacialAge/BNav_EC2/DepthDuration/v2_depth_duration_MTurk/v2_DepthDuration_HTML.html#40,40,1920,1009,1920,1080,8-20-2022,11-54-14,47,depth_duration_stimuli/003495_2014-05-21_16-01-51_094959634447_rgbf000100-resize_3/003495_2014-05-21_16-01-51_094959634447_rgbf000100-resize_3-target.png,250,1.6255,3,2696,261,feet,jsons/v1_VE250_randls_62_rotated.json,522063,899803,43,Man
47,523472,DepthScenes,duration_manipulation_targetAtFixation,jsons/v1_VE250_randls_62_rotated.json,http://54.235.29.9/FacialAge/BNav_EC2/DepthDuration/v2_depth_duration_MTurk/v2_DepthDuration_HTML.html#40,40,1920,1009,1920,1080,8-20-2022,11-54-14,48,depth_duration_stimuli/001244_2014-06-17_16-47-45_260595134347_rgbf000030-resize_4/001244_2014-06-17_16-47-45_260595134347_rgbf000030-resize_4-target.png,250,2.0425,5,2850,248,feet,jsons/v1_VE250_randls_62_rotated.json,522063,899803,43,Man
48,523472,DepthScenes,duration_manipulation_targetAtFixation,jsons/v1_VE250_randls_62_rotated.json,http://54.235.29.9/FacialAge/BNav_EC2/DepthDuration/v2_depth_duration_MTurk/v2_DepthDuration_HTML.html#40,40,1920,1009,1920,1080,8-20-2022,11-54-14,49,depth_duration_stimuli/001170_2014-06-17_15-43-44_260595134347_rgbf000096-resize_6/001170_2014-06-17_15-43-44_260595134347_rgbf000096-resize-original.jpg,250,1.1909999999999998,0,2575,252,feet,jsons/v1_VE250_randls_62_rotated.json,522063,899803,43,Man
49,523472,DepthScenes,duration_manipulation_targetAtFixation,jsons/v1_VE250_randls_62_rotated.json,http://54.235.29.9/FacialAge/BNav_EC2/DepthDuration/v2_depth_duration_MTurk/v2_DepthDuration_HTML.html#40,40,1920,1009,1920,1080,8-20-2022,11-54-14,50,depth_duration_stimuli/003228_2014-05-14_13-42-35_094959634447_rgbf000101-resize_1/003228_2014-05-14_13-42-35_094959634447_rgbf000101-resize_1-target.png,250,1.9680000000000002,3,2570,248,feet,jsons/v1_VE250_randls_62_rotated.json,522063,899803,43,Man
50,523472,DepthScenes,duration_manipulation_targetAtFixation,jsons/v1_VE250_randls_62_rotated.json,http://54.235.29.9/FacialAge/BNav_EC2/DepthDuration/v2_depth_duration_MTurk/v2_DepthDuration_HTML.html#40,40,1920,1009,1920,1080,8-20-2022,11-54-14,51,depth_duration_stimuli/002600_2014-06-24_14-27-04_094959634447_rgbf000074-resize_2/002600_2014-06-24_14-27-04_094959634447_rgbf000074-resize_2-target.png,250,2.7575,8,3040,255,feet,jsons/v1_VE250_randls_62_rotated.json,522063,899803,43,Man
51,523472,DepthScenes,duration_manipulation_targetAtFixation,jsons/v1_VE250_randls_62_rotated.json,http://54.235.29.9/FacialAge/BNav_EC2/DepthDuration/v2_depth_duration_MTurk/v2_DepthDuration_HTML.html#40,40,1920,1009,1920,1080,8-20-2022,11-54-14,52,depth_duration_stimuli/000866_2014-06-09_20-45-42_260595134347_rgbf000139-resize_1/000866_2014-06-09_20-45-42_260595134347_rgbf000139-resize_1-target.png,250,3.2155,7,2506,249,feet,jsons/v1_VE250_randls_62_rotated.json,522063,899803,43,Man
52,523472,DepthScenes,duration_manipulation_targetAtFixation,jsons/v1_VE250_randls_62_rotated.json,http://54.235.29.9/FacialAge/BNav_EC2/DepthDuration/v2_depth_duration_MTurk/v2_DepthDuration_HTML.html#40,40,1920,1009,1920,1080,8-20-2022,11-54-14,53,depth_duration_stimuli/002989_2014-06-15_12-25-03_094959634447_rgbf000150-resize_3/002989_2014-06-15_12-25-03_094959634447_rgbf000150-resize_3-target.png,250,4.1975,10,2831,246,feet,jsons/v1_VE250_randls_62_rotated.json,522063,899803,43,Man
53,523472,DepthScenes,duration_manipulation_targetAtFixation,jsons/v1_VE250_randls_62_rotated.json,http://54.235.29.9/FacialAge/BNav_EC2/DepthDuration/v2_depth_duration_MTurk/v2_DepthDuration_HTML.html#40,40,1920,1009,1920,1080,8-20-2022,11-54-14,54,depth_duration_stimuli/001571_2014-06-20_17-21-32_260595134347_rgbf000089-resize_1/001571_2014-06-20_17-21-32_260595134347_rgbf000089-resize_1-target.png,250,1.86,9,2905,250,feet,jsons/v1_VE250_randls_62_rotated.json,522063,899803,43,Man
54,523472,DepthScenes,duration_manipulation_targetAtFixation,jsons/v1_VE250_randls_62_rotated.json,http://54.235.29.9/FacialAge/BNav_EC2/DepthDuration/v2_depth_duration_MTurk/v2_DepthDuration_HTML.html#40,40,1920,1009,1920,1080,8-20-2022,11-54-14,55,depth_duration_stimuli/002272_2014-06-28_18-53-56_260595134347_rgbf000067-resize_2/002272_2014-06-28_18-53-56_260595134347_rgbf000067-resize_2-target.png,250,1.138,4,2502,264,feet,jsons/v1_VE250_randls_62_rotated.json,522063,899803,43,Man
55,523472,DepthScenes,duration_manipulation_targetAtFixation,jsons/v1_VE250_randls_62_rotated.json,http://54.235.29.9/FacialAge/BNav_EC2/DepthDuration/v2_depth_duration_MTurk/v2_DepthDuration_HTML.html#40,40,1920,1009,1920,1080,8-20-2022,11-54-14,56,depth_duration_stimuli/000677_2014-06-08_23-10-32_260595134347_rgbf000158-resize_6/000677_2014-06-08_23-10-32_260595134347_rgbf000158-resize_6-target.png,250,3.556,8,2655,250,feet,jsons/v1_VE250_randls_62_rotated.json,522063,899803,43,Man
56,523472,DepthScenes,duration_manipulation_targetAtFixation,jsons/v1_VE250_randls_62_rotated.json,http://54.235.29.9/FacialAge/BNav_EC2/DepthDuration/v2_depth_duration_MTurk/v2_DepthDuration_HTML.html#40,40,1920,1009,1920,1080,8-20-2022,11-54-14,57,depth_duration_stimuli/001029_2014-06-08_13-17-57_260595134347_rgbf000065-resize_1/001029_2014-06-08_13-17-57_260595134347_rgbf000065-resize_1-target.png,250,3.0835,9,2620,250,feet,jsons/v1_VE250_randls_62_rotated.json,522063,899803,43,Man
57,523472,DepthScenes,duration_manipulation_targetAtFixation,jsons/v1_VE250_randls_62_rotated.json,http://54.235.29.9/FacialAge/BNav_EC2/DepthDuration/v2_depth_duration_MTurk/v2_DepthDuration_HTML.html#40,40,1920,1009,1920,1080,8-20-2022,11-54-14,58,depth_duration_stimuli/002199_2014-06-28_18-33-56_260595134347_rgbf000074-resize_0/002199_2014-06-28_18-33-56_260595134347_rgbf000074-resize_0-target.png,250,1.996,3,2459,250,feet,jsons/v1_VE250_randls_62_rotated.json,522063,899803,43,Man
58,523472,DepthScenes,duration_manipulation_targetAtFixation,jsons/v1_VE250_randls_62_rotated.json,http://54.235.29.9/FacialAge/BNav_EC2/DepthDuration/v2_depth_duration_MTurk/v2_DepthDuration_HTML.html#40,40,1920,1009,1920,1080,8-20-2022,11-54-14,59,depth_duration_stimuli/001056_2014-06-08_18-46-44_260595134347_rgbf000068-resize_0/001056_2014-06-08_18-46-44_260595134347_rgbf000068-resize_0-target.png,250,2.6625,5,3269,249,feet,jsons/v1_VE250_randls_62_rotated.json,522063,899803,43,Man
59,523472,DepthScenes,duration_manipulation_targetAtFixation,jsons/v1_VE250_randls_62_rotated.json,http://54.235.29.9/FacialAge/BNav_EC2/DepthDuration/v2_depth_duration_MTurk/v2_DepthDuration_HTML.html#40,40,1920,1009,1920,1080,8-20-2022,11-54-14,60,depth_duration_stimuli/002995_2014-06-15_12-31-26_094959634447_rgbf000150-resize_1/002995_2014-06-15_12-31-26_094959634447_rgbf000150-resize_1-target.png,250,3.8360000000000003,9,2526,249,feet,jsons/v1_VE250_randls_62_rotated.json,522063,899803,43,Man
60,523472,DepthScenes,duration_manipulation_targetAtFixation,jsons/v1_VE250_randls_62_rotated.json,http://54.235.29.9/FacialAge/BNav_EC2/DepthDuration/v2_depth_duration_MTurk/v2_DepthDuration_HTML.html#40,40,1920,1009,1920,1080,8-20-2022,11-54-14,61,depth_duration_stimuli/002748_2014-06-22_19-07-22_094959634447_rgbf000078-resize_1/002748_2014-06-22_19-07-22_094959634447_rgbf000078-resize_1-target.png,250,4.6705,11,3183,247,feet,jsons/v1_VE250_randls_62_rotated.json,522063,899803,43,Man
61,523472,DepthScenes,duration_manipulation_targetAtFixation,jsons/v1_VE250_randls_62_rotated.json,http://54.235.29.9/FacialAge/BNav_EC2/DepthDuration/v2_depth_duration_MTurk/v2_DepthDuration_HTML.html#40,40,1920,1009,1920,1080,8-20-2022,11-54-14,62,depth_duration_stimuli/002637_2014-06-24_14-51-13_094959634447_rgbf000066-resize_4/002637_2014-06-24_14-51-13_094959634447_rgbf000066-resize_4-target.png,250,1.9955,6,2778,254,feet,jsons/v1_VE250_randls_62_rotated.json,522063,899803,43,Man
62,523472,DepthScenes,duration_manipulation_targetAtFixation,jsons/v1_VE250_randls_62_rotated.json,http://54.235.29.9/FacialAge/BNav_EC2/DepthDuration/v2_depth_duration_MTurk/v2_DepthDuration_HTML.html#40,40,1920,1009,1920,1080,8-20-2022,11-54-14,63,depth_duration_stimuli/003534_2014-05-22_15-06-10_094959634447_rgbf000102-resize_4/003534_2014-05-22_15-06-10_094959634447_rgbf000102-resize_4-target.png,250,1.426,4,2768,261,feet,jsons/v1_VE250_randls_62_rotated.json,522063,899803,43,Man
63,523472,DepthScenes,duration_manipulation_targetAtFixation,jsons/v1_VE250_randls_62_rotated.json,http://54.235.29.9/FacialAge/BNav_EC2/DepthDuration/v2_depth_duration_MTurk/v2_DepthDuration_HTML.html#40,40,1920,1009,1920,1080,8-20-2022,11-54-14,64,depth_duration_stimuli/002414_2014-06-28_20-24-58_260595134347_rgbf000067-resize_4/002414_2014-06-28_20-24-58_260595134347_rgbf000067-resize_4-target.png,250,4.363,11,2323,261,feet,jsons/v1_VE250_randls_62_rotated.json,522063,899803,43,Man
64,523472,DepthScenes,duration_manipulation_targetAtFixation,jsons/v1_VE250_randls_62_rotated.json,http://54.235.29.9/FacialAge/BNav_EC2/DepthDuration/v2_depth_duration_MTurk/v2_DepthDuration_HTML.html#40,40,1920,1009,1920,1080,8-20-2022,11-54-14,65,depth_duration_stimuli/000773_2014-06-08_22-24-54_260595134347_rgbf000093-resize_1/000773_2014-06-08_22-24-54_260595134347_rgbf000093-resize_1-target.png,250,4.973,12,2119,263,feet,jsons/v1_VE250_randls_62_rotated.json,522063,899803,43,Man
65,523472,DepthScenes,duration_manipulation_targetAtFixation,jsons/v1_VE250_randls_62_rotated.json,http://54.235.29.9/FacialAge/BNav_EC2/DepthDuration/v2_depth_duration_MTurk/v2_DepthDuration_HTML.html#40,40,1920,1009,1920,1080,8-20-2022,11-54-14,66,depth_duration_stimuli/001540_2014-06-20_17-01-05_260595134347_rgbf000086-resize_2/001540_2014-06-20_17-01-05_260595134347_rgbf000086-resize-original.jpg,250,1.459,0,2517,249,feet,jsons/v1_VE250_randls_62_rotated.json,522063,899803,43,Man
66,523472,DepthScenes,duration_manipulation_targetAtFixation,jsons/v1_VE250_randls_62_rotated.json,http://54.235.29.9/FacialAge/BNav_EC2/DepthDuration/v2_depth_duration_MTurk/v2_DepthDuration_HTML.html#40,40,1920,1009,1920,1080,8-20-2022,11-54-14,67,depth_duration_stimuli/000549_2014-06-08_22-10-24_260595134347_rgbf000247-resize_3/000549_2014-06-08_22-10-24_260595134347_rgbf000247-resize_3-target.png,250,1.841,3,2460,238,feet,jsons/v1_VE250_randls_62_rotated.json,522063,899803,43,Man
67,523472,DepthScenes,duration_manipulation_targetAtFixation,jsons/v1_VE250_randls_62_rotated.json,http://54.235.29.9/FacialAge/BNav_EC2/DepthDuration/v2_depth_duration_MTurk/v2_DepthDuration_HTML.html#40,40,1920,1009,1920,1080,8-20-2022,11-54-14,68,depth_duration_stimuli/001055_2014-06-08_18-45-35_260595134347_rgbf000111-resize_4/001055_2014-06-08_18-45-35_260595134347_rgbf000111-resize_4-target.png,250,2.4290000000000003,8,2521,253,feet,jsons/v1_VE250_randls_62_rotated.json,522063,899803,43,Man
68,523472,DepthScenes,duration_manipulation_targetAtFixation,jsons/v1_VE250_randls_62_rotated.json,http://54.235.29.9/FacialAge/BNav_EC2/DepthDuration/v2_depth_duration_MTurk/v2_DepthDuration_HTML.html#40,40,1920,1009,1920,1080,8-20-2022,11-54-14,69,depth_duration_stimuli/000927_2014-06-09_16-32-30_260595134347_rgbf000123-resize_3/000927_2014-06-09_16-32-30_260595134347_rgbf000123-resize_3-target.png,250,2.6785,7,2691,249,feet,jsons/v1_VE250_randls_62_rotated.json,522063,899803,43,Man
69,523472,DepthScenes,duration_manipulation_targetAtFixation,jsons/v1_VE250_randls_62_rotated.json,http://54.235.29.9/FacialAge/BNav_EC2/DepthDuration/v2_depth_duration_MTurk/v2_DepthDuration_HTML.html#40,40,1920,1009,1920,1080,8-20-2022,11-54-14,70,depth_duration_stimuli/001110_2014-06-15_17-25-28_260595134347_rgbf000150-resize_1/001110_2014-06-15_17-25-28_260595134347_rgbf000150-resize_1-target.png,250,1.7115,5,2571,248,feet,jsons/v1_VE250_randls_62_rotated.json,522063,899803,43,Man
70,523472,DepthScenes,duration_manipulation_targetAtFixation,jsons/v1_VE250_randls_62_rotated.json,http://54.235.29.9/FacialAge/BNav_EC2/DepthDuration/v2_depth_duration_MTurk/v2_DepthDuration_HTML.html#40,40,1920,1009,1920,1080,8-20-2022,11-54-14,71,depth_duration_stimuli/000483_2014-06-09_20-41-45_260595134347_rgbf000116-resize_4/000483_2014-06-09_20-41-45_260595134347_rgbf000116-resize_4-target.png,250,1.337,4,2788,247,feet,jsons/v1_VE250_randls_62_rotated.json,522063,899803,43,Man
71,523472,DepthScenes,duration_manipulation_targetAtFixation,jsons/v1_VE250_randls_62_rotated.json,http://54.235.29.9/FacialAge/BNav_EC2/DepthDuration/v2_depth_duration_MTurk/v2_DepthDuration_HTML.html#40,40,1920,1009,1920,1080,8-20-2022,11-54-14,72,depth_duration_stimuli/000469_2014-06-09_19-42-10_260595134347_rgbf000081-resize_1/000469_2014-06-09_19-42-10_260595134347_rgbf000081-resize_1-target.png,250,1.652,3,2698,249,feet,jsons/v1_VE250_randls_62_rotated.json,522063,899803,43,Man
72,523472,DepthScenes,duration_manipulation_targetAtFixation,jsons/v1_VE250_randls_62_rotated.json,http://54.235.29.9/FacialAge/BNav_EC2/DepthDuration/v2_depth_duration_MTurk/v2_DepthDuration_HTML.html#40,40,1920,1009,1920,1080,8-20-2022,11-54-14,73,depth_duration_stimuli/000749_2014-06-08_21-55-06_260595134347_rgbf000070-resize_2/000749_2014-06-08_21-55-06_260595134347_rgbf000070-resize_2-target.png,250,2.331,6,2707,260,feet,jsons/v1_VE250_randls_62_rotated.json,522063,899803,43,Man
73,523472,DepthScenes,duration_manipulation_targetAtFixation,jsons/v1_VE250_randls_62_rotated.json,http://54.235.29.9/FacialAge/BNav_EC2/DepthDuration/v2_depth_duration_MTurk/v2_DepthDuration_HTML.html#40,40,1920,1009,1920,1080,8-20-2022,11-54-14,74,depth_duration_stimuli/002788_2014-06-22_19-36-03_094959634447_rgbf000088-resize_2/002788_2014-06-22_19-36-03_094959634447_rgbf000088-resize_2-target.png,250,1.6465,8,2684,264,feet,jsons/v1_VE250_randls_62_rotated.json,522063,899803,43,Man
74,523472,DepthScenes,duration_manipulation_targetAtFixation,jsons/v1_VE250_randls_62_rotated.json,http://54.235.29.9/FacialAge/BNav_EC2/DepthDuration/v2_depth_duration_MTurk/v2_DepthDuration_HTML.html#40,40,1920,1009,1920,1080,8-20-2022,11-54-14,75,depth_duration_stimuli/001584_2014-06-20_11-07-43_260595134347_rgbf000002-resize_1/001584_2014-06-20_11-07-43_260595134347_rgbf000002-resize_1-target.png,250,3.53,8,2530,245,feet,jsons/v1_VE250_randls_62_rotated.json,522063,899803,43,Man
75,523472,DepthScenes,duration_manipulation_targetAtFixation,jsons/v1_VE250_randls_62_rotated.json,http://54.235.29.9/FacialAge/BNav_EC2/DepthDuration/v2_depth_duration_MTurk/v2_DepthDuration_HTML.html#40,40,1920,1009,1920,1080,8-20-2022,11-54-14,76,depth_duration_stimuli/003621_2014-05-23_18-06-08_094959634447_rgbf000101-resize_1/003621_2014-05-23_18-06-08_094959634447_rgbf000101-resize_1-target.png,250,3.9835,11,2504,248,feet,jsons/v1_VE250_randls_62_rotated.json,522063,899803,43,Man
76,523472,DepthScenes,duration_manipulation_targetAtFixation,jsons/v1_VE250_randls_62_rotated.json,http://54.235.29.9/FacialAge/BNav_EC2/DepthDuration/v2_depth_duration_MTurk/v2_DepthDuration_HTML.html#40,40,1920,1009,1920,1080,8-20-2022,11-54-14,77,depth_duration_stimuli/000109_2014-05-14_23-41-52_260595134347_rgbf000035-resize_9/000109_2014-05-14_23-41-52_260595134347_rgbf000035-resize_9-target.png,250,1.3545,3,2400,247,feet,jsons/v1_VE250_randls_62_rotated.json,522063,899803,43,Man
77,523472,DepthScenes,duration_manipulation_targetAtFixation,jsons/v1_VE250_randls_62_rotated.json,http://54.235.29.9/FacialAge/BNav_EC2/DepthDuration/v2_depth_duration_MTurk/v2_DepthDuration_HTML.html#40,40,1920,1009,1920,1080,8-20-2022,11-54-14,78,depth_duration_stimuli/000470_2014-06-09_19-42-40_260595134347_rgbf000094-resize_1/000470_2014-06-09_19-42-40_260595134347_rgbf000094-resize_1-target.png,250,1.831,4,2246,246,feet,jsons/v1_VE250_randls_62_rotated.json,522063,899803,43,Man
78,523472,DepthScenes,duration_manipulation_targetAtFixation,jsons/v1_VE250_randls_62_rotated.json,http://54.235.29.9/FacialAge/BNav_EC2/DepthDuration/v2_depth_duration_MTurk/v2_DepthDuration_HTML.html#40,40,1920,1009,1920,1080,8-20-2022,11-54-14,79,depth_duration_stimuli/003587_2014-05-23_16-48-02_094959634447_rgbf002384-resize_2/003587_2014-05-23_16-48-02_094959634447_rgbf002384-resize_2-target.png,250,1.357,2,1880,237,feet,jsons/v1_VE250_randls_62_rotated.json,522063,899803,43,Man
79,523472,DepthScenes,duration_manipulation_targetAtFixation,jsons/v1_VE250_randls_62_rotated.json,http://54.235.29.9/FacialAge/BNav_EC2/DepthDuration/v2_depth_duration_MTurk/v2_DepthDuration_HTML.html#40,40,1920,1009,1920,1080,8-20-2022,11-54-14,80,depth_duration_stimuli/001167_2014-06-17_15-38-07_260595134347_rgbf000108-resize_0/001167_2014-06-17_15-38-07_260595134347_rgbf000108-resize_0-target.png,250,1.8505,0,2828,249,feet,jsons/v1_VE250_randls_62_rotated.json,522063,899803,43,Man
80,523472,DepthScenes,duration_manipulation_targetAtFixation,jsons/v1_VE250_randls_62_rotated.json,http://54.235.29.9/FacialAge/BNav_EC2/DepthDuration/v2_depth_duration_MTurk/v2_DepthDuration_HTML.html#40,40,1920,1009,1920,1080,8-20-2022,11-54-14,81,depth_duration_stimuli/002639_2014-06-24_14-51-37_094959634447_rgbf000074-resize_4/002639_2014-06-24_14-51-37_094959634447_rgbf000074-resize_4-target.png,250,4.0375,9,2936,249,feet,jsons/v1_VE250_randls_62_rotated.json,522063,899803,43,Man
81,523472,DepthScenes,duration_manipulation_targetAtFixation,jsons/v1_VE250_randls_62_rotated.json,http://54.235.29.9/FacialAge/BNav_EC2/DepthDuration/v2_depth_duration_MTurk/v2_DepthDuration_HTML.html#40,40,1920,1009,1920,1080,8-20-2022,11-54-14,82,depth_duration_stimuli/003292_2014-05-14_21-53-49_094959634447_rgbf000100-resize_2/003292_2014-05-14_21-53-49_094959634447_rgbf000100-resize_2-target.png,250,3.4815,8,2767,245,feet,jsons/v1_VE250_randls_62_rotated.json,522063,899803,43,Man
82,523472,DepthScenes,duration_manipulation_targetAtFixation,jsons/v1_VE250_randls_62_rotated.json,http://54.235.29.9/FacialAge/BNav_EC2/DepthDuration/v2_depth_duration_MTurk/v2_DepthDuration_HTML.html#40,40,1920,1009,1920,1080,8-20-2022,11-54-14,83,depth_duration_stimuli/003079_2014-06-15_15-18-20_094959634447_rgbf000152-resize_8/003079_2014-06-15_15-18-20_094959634447_rgbf000152-resize_8-target.png,250,2.8775,8,2833,246,feet,jsons/v1_VE250_randls_62_rotated.json,522063,899803,43,Man
83,523472,DepthScenes,duration_manipulation_targetAtFixation,jsons/v1_VE250_randls_62_rotated.json,http://54.235.29.9/FacialAge/BNav_EC2/DepthDuration/v2_depth_duration_MTurk/v2_DepthDuration_HTML.html#40,40,1920,1009,1920,1080,8-20-2022,11-54-14,84,depth_duration_stimuli/000506_2014-06-08_23-21-00_260595134347_rgbf000070-resize_7/000506_2014-06-08_23-21-00_260595134347_rgbf000070-resize_7-target.png,250,4.0585,10,2958,235,feet,jsons/v1_VE250_randls_62_rotated.json,522063,899803,43,Man
84,523472,DepthScenes,duration_manipulation_targetAtFixation,jsons/v1_VE250_randls_62_rotated.json,http://54.235.29.9/FacialAge/BNav_EC2/DepthDuration/v2_depth_duration_MTurk/v2_DepthDuration_HTML.html#40,40,1920,1009,1920,1080,8-20-2022,11-54-14,85,depth_duration_stimuli/001392_2014-06-19_16-07-59_260595134347_rgbf000046-resize_1/001392_2014-06-19_16-07-59_260595134347_rgbf000046-resize_1-target.png,250,4.135,10,3028,247,feet,jsons/v1_VE250_randls_62_rotated.json,522063,899803,43,Man
85,523472,DepthScenes,duration_manipulation_targetAtFixation,jsons/v1_VE250_randls_62_rotated.json,http://54.235.29.9/FacialAge/BNav_EC2/DepthDuration/v2_depth_duration_MTurk/v2_DepthDuration_HTML.html#40,40,1920,1009,1920,1080,8-20-2022,11-54-14,86,depth_duration_stimuli/001570_2014-06-20_17-21-09_260595134347_rgbf000135-resize_4/001570_2014-06-20_17-21-09_260595134347_rgbf000135-resize_4-target.png,250,4.467,12,2359,250,feet,jsons/v1_VE250_randls_62_rotated.json,522063,899803,43,Man
86,523472,DepthScenes,duration_manipulation_targetAtFixation,jsons/v1_VE250_randls_62_rotated.json,http://54.235.29.9/FacialAge/BNav_EC2/DepthDuration/v2_depth_duration_MTurk/v2_DepthDuration_HTML.html#40,40,1920,1009,1920,1080,8-20-2022,11-54-14,87,depth_duration_stimuli/002136_2014-06-25_21-18-03_260595134347_rgbf000109-resize_3/002136_2014-06-25_21-18-03_260595134347_rgbf000109-resize_3-target.png,250,1.9569999999999999,4,2750,247,feet,jsons/v1_VE250_randls_62_rotated.json,522063,899803,43,Man
87,523472,DepthScenes,duration_manipulation_targetAtFixation,jsons/v1_VE250_randls_62_rotated.json,http://54.235.29.9/FacialAge/BNav_EC2/DepthDuration/v2_depth_duration_MTurk/v2_DepthDuration_HTML.html#40,40,1920,1009,1920,1080,8-20-2022,11-54-14,88,depth_duration_stimuli/002964_2014-06-08_17-46-11_094959634447_rgbf000091-resize_4/002964_2014-06-08_17-46-11_094959634447_rgbf000091-resize_4-target.png,250,1.6909999999999998,4,3242,247,feet,jsons/v1_VE250_randls_62_rotated.json,522063,899803,43,Man
88,523472,DepthScenes,duration_manipulation_targetAtFixation,jsons/v1_VE250_randls_62_rotated.json,http://54.235.29.9/FacialAge/BNav_EC2/DepthDuration/v2_depth_duration_MTurk/v2_DepthDuration_HTML.html#40,40,1920,1009,1920,1080,8-20-2022,11-54-14,89,depth_duration_stimuli/000191_2014-05-12_17-07-38_260595134347_rgbf000199-resize_0/000191_2014-05-12_17-07-38_260595134347_rgbf000199-resize_0-target.png,250,3.7995,11,2429,245,feet,jsons/v1_VE250_randls_62_rotated.json,522063,899803,43,Man
89,523472,DepthScenes,duration_manipulation_targetAtFixation,jsons/v1_VE250_randls_62_rotated.json,http://54.235.29.9/FacialAge/BNav_EC2/DepthDuration/v2_depth_duration_MTurk/v2_DepthDuration_HTML.html#40,40,1920,1009,1920,1080,8-20-2022,11-54-14,90,depth_duration_stimuli/000493_2014-06-09_21-01-18_260595134347_rgbf000196-resize_3/000493_2014-06-09_21-01-18_260595134347_rgbf000196-resize_3-target.png,250,3.44,10,3187,241,feet,jsons/v1_VE250_randls_62_rotated.json,522063,899803,43,Man
90,523472,DepthScenes,duration_manipulation_targetAtFixation,jsons/v1_VE250_randls_62_rotated.json,http://54.235.29.9/FacialAge/BNav_EC2/DepthDuration/v2_depth_duration_MTurk/v2_DepthDuration_HTML.html#40,40,1920,1009,1920,1080,8-20-2022,11-54-14,91,depth_duration_stimuli/000943_2014-06-09_19-31-07_260595134347_rgbf000128-resize_1/000943_2014-06-09_19-31-07_260595134347_rgbf000128-resize_1-target.png,250,1.9765,4,2504,260,feet,jsons/v1_VE250_randls_62_rotated.json,522063,899803,43,Man
91,523472,DepthScenes,duration_manipulation_targetAtFixation,jsons/v1_VE250_randls_62_rotated.json,http://54.235.29.9/FacialAge/BNav_EC2/DepthDuration/v2_depth_duration_MTurk/v2_DepthDuration_HTML.html#40,40,1920,1009,1920,1080,8-20-2022,11-54-14,92,depth_duration_stimuli/003070_2014-06-15_14-58-27_094959634447_rgbf000150-resize_3/003070_2014-06-15_14-58-27_094959634447_rgbf000150-resize_3-target.png,250,2.9415,9,2927,263,feet,jsons/v1_VE250_randls_62_rotated.json,522063,899803,43,Man
92,523472,DepthScenes,duration_manipulation_targetAtFixation,jsons/v1_VE250_randls_62_rotated.json,http://54.235.29.9/FacialAge/BNav_EC2/DepthDuration/v2_depth_duration_MTurk/v2_DepthDuration_HTML.html#40,40,1920,1009,1920,1080,8-20-2022,11-54-14,93,depth_duration_stimuli/001132_2014-06-17_14-48-54_260595134347_rgbf000100-resize_2/001132_2014-06-17_14-48-54_260595134347_rgbf000100-resize_2-target.png,250,3.753,8,2728,250,feet,jsons/v1_VE250_randls_62_rotated.json,522063,899803,43,Man
93,523472,DepthScenes,duration_manipulation_targetAtFixation,jsons/v1_VE250_randls_62_rotated.json,http://54.235.29.9/FacialAge/BNav_EC2/DepthDuration/v2_depth_duration_MTurk/v2_DepthDuration_HTML.html#40,40,1920,1009,1920,1080,8-20-2022,11-54-14,94,depth_duration_stimuli/001133_2014-06-17_14-49-16_260595134347_rgbf000100-resize_0/001133_2014-06-17_14-49-16_260595134347_rgbf000100-resize_0-target.png,250,4.2115,10,2555,248,feet,jsons/v1_VE250_randls_62_rotated.json,522063,899803,43,Man
94,523472,DepthScenes,duration_manipulation_targetAtFixation,jsons/v1_VE250_randls_62_rotated.json,http://54.235.29.9/FacialAge/BNav_EC2/DepthDuration/v2_depth_duration_MTurk/v2_DepthDuration_HTML.html#40,40,1920,1009,1920,1080,8-20-2022,11-54-14,95,depth_duration_stimuli/002323_2014-06-28_20-01-54_260595134347_rgbf000051-resize_4/002323_2014-06-28_20-01-54_260595134347_rgbf000051-resize_4-target.png,250,3.7310000000000003,13,2239,250,feet,jsons/v1_VE250_randls_62_rotated.json,522063,899803,43,Man
95,523472,DepthScenes,duration_manipulation_targetAtFixation,jsons/v1_VE250_randls_62_rotated.json,http://54.235.29.9/FacialAge/BNav_EC2/DepthDuration/v2_depth_duration_MTurk/v2_DepthDuration_HTML.html#40,40,1920,1009,1920,1080,8-20-2022,11-54-14,96,depth_duration_stimuli/000917_2014-06-09_22-45-29_260595134347_rgbf000149-resize_3/000917_2014-06-09_22-45-29_260595134347_rgbf000149-resize_3-target.png,250,4.1865,9,2565,248,feet,jsons/v1_VE250_randls_62_rotated.json,522063,899803,43,Man
96,523472,DepthScenes,duration_manipulation_targetAtFixation,jsons/v1_VE250_randls_62_rotated.json,http://54.235.29.9/FacialAge/BNav_EC2/DepthDuration/v2_depth_duration_MTurk/v2_DepthDuration_HTML.html#40,40,1920,1009,1920,1080,8-20-2022,11-54-14,97,depth_duration_stimuli/002209_2014-06-28_18-36-10_260595134347_rgbf000051-resize_1/002209_2014-06-28_18-36-10_260595134347_rgbf000051-resize_1-target.png,250,2.057,5,2501,250,feet,jsons/v1_VE250_randls_62_rotated.json,522063,899803,43,Man
97,523472,DepthScenes,duration_manipulation_targetAtFixation,jsons/v1_VE250_randls_62_rotated.json,http://54.235.29.9/FacialAge/BNav_EC2/DepthDuration/v2_depth_duration_MTurk/v2_DepthDuration_HTML.html#40,40,1920,1009,1920,1080,8-20-2022,11-54-14,98,depth_duration_stimuli/002763_2014-06-22_19-13-10_094959634447_rgbf000075-resize_4/002763_2014-06-22_19-13-10_094959634447_rgbf000075-resize_4-target.png,250,1.68375,4,2733,252,feet,jsons/v1_VE250_randls_62_rotated.json,522063,899803,43,Man
98,523472,DepthScenes,duration_manipulation_targetAtFixation,jsons/v1_VE250_randls_62_rotated.json,http://54.235.29.9/FacialAge/BNav_EC2/DepthDuration/v2_depth_duration_MTurk/v2_DepthDuration_HTML.html#40,40,1920,1009,1920,1080,8-20-2022,11-54-14,99,depth_duration_stimuli/001222_2014-06-17_16-24-06_260595134347_rgbf000073-resize_0/001222_2014-06-17_16-24-06_260595134347_rgbf000073-resize-original.jpg,250,1.4385,0,2417,251,feet,jsons/v1_VE250_randls_62_rotated.json,522063,899803,43,Man
99,523472,DepthScenes,duration_manipulation_targetAtFixation,jsons/v1_VE250_randls_62_rotated.json,http://54.235.29.9/FacialAge/BNav_EC2/DepthDuration/v2_depth_duration_MTurk/v2_DepthDuration_HTML.html#40,40,1920,1009,1920,1080,8-20-2022,11-54-14,100,depth_duration_stimuli/000137_2014-05-20_17-04-49_260595134347_rgbf000120-resize_1/000137_2014-05-20_17-04-49_260595134347_rgbf000120-resize_1-target.png,250,3.786,9,2448,253,feet,jsons/v1_VE250_randls_62_rotated.json,522063,899803,43,Man
100,523472,DepthScenes,duration_manipulation_targetAtFixation,jsons/v1_VE250_randls_62_rotated.json,http://54.235.29.9/FacialAge/BNav_EC2/DepthDuration/v2_depth_duration_MTurk/v2_DepthDuration_HTML.html#40,40,1920,1009,1920,1080,8-20-2022,11-54-14,101,depth_duration_stimuli/000736_2014-06-08_18-24-15_260595134347_rgbf000206-resize_3/000736_2014-06-08_18-24-15_260595134347_rgbf000206-resize_3-target.png,250,3.515,6,3061,251,feet,jsons/v1_VE250_randls_62_rotated.json,522063,899803,43,Man
101,523472,DepthScenes,duration_manipulation_targetAtFixation,jsons/v1_VE250_randls_62_rotated.json,http://54.235.29.9/FacialAge/BNav_EC2/DepthDuration/v2_depth_duration_MTurk/v2_DepthDuration_HTML.html#40,40,1920,1009,1920,1080,8-20-2022,11-54-14,102,depth_duration_stimuli/002678_2014-06-13_16-15-32_094959634447_rgbf000151-resize_6/002678_2014-06-13_16-15-32_094959634447_rgbf000151-resize_6-target.png,250,2.1830000000000003,5,2754,248,feet,jsons/v1_VE250_randls_62_rotated.json,522063,899803,43,Man
102,523472,DepthScenes,duration_manipulation_targetAtFixation,jsons/v1_VE250_randls_62_rotated.json,http://54.235.29.9/FacialAge/BNav_EC2/DepthDuration/v2_depth_duration_MTurk/v2_DepthDuration_HTML.html#40,40,1920,1009,1920,1080,8-20-2022,11-54-14,103,depth_duration_stimuli/000368_2014-06-09_15-53-01_260595134347_rgbf000155-resize_2/000368_2014-06-09_15-53-01_260595134347_rgbf000155-resize_2-target.png,250,2.4859999999999998,4,2453,246,feet,jsons/v1_VE250_randls_62_rotated.json,522063,899803,43,Man
103,523472,DepthScenes,duration_manipulation_targetAtFixation,jsons/v1_VE250_randls_62_rotated.json,http://54.235.29.9/FacialAge/BNav_EC2/DepthDuration/v2_depth_duration_MTurk/v2_DepthDuration_HTML.html#40,40,1920,1009,1920,1080,8-20-2022,11-54-14,104,depth_duration_stimuli/003010_2014-06-15_12-54-35_094959634447_rgbf000112-resize_0/003010_2014-06-15_12-54-35_094959634447_rgbf000112-resize_0-target.png,250,3.1185,6,3198,247,feet,jsons/v1_VE250_randls_62_rotated.json,522063,899803,43,Man
104,523472,DepthScenes,duration_manipulation_targetAtFixation,jsons/v1_VE250_randls_62_rotated.json,http://54.235.29.9/FacialAge/BNav_EC2/DepthDuration/v2_depth_duration_MTurk/v2_DepthDuration_HTML.html#40,40,1920,1009,1920,1080,8-20-2022,11-54-14,105,depth_duration_stimuli/001810_2014-06-26_20-51-35_260595134347_rgbf000040-resize_3/001810_2014-06-26_20-51-35_260595134347_rgbf000040-resize_3-target.png,250,2.2525,4,2580,247,feet,jsons/v1_VE250_randls_62_rotated.json,522063,899803,43,Man
105,523472,DepthScenes,duration_manipulation_targetAtFixation,jsons/v1_VE250_randls_62_rotated.json,http://54.235.29.9/FacialAge/BNav_EC2/DepthDuration/v2_depth_duration_MTurk/v2_DepthDuration_HTML.html#40,40,1920,1009,1920,1080,8-20-2022,11-54-14,106,depth_duration_stimuli/000780_2014-06-08_22-28-29_260595134347_rgbf000126-resize_1/000780_2014-06-08_22-28-29_260595134347_rgbf000126-resize_1-target.png,250,3.3825,9,2953,251,feet,jsons/v1_VE250_randls_62_rotated.json,522063,899803,43,Man
106,523472,DepthScenes,duration_manipulation_targetAtFixation,jsons/v1_VE250_randls_62_rotated.json,http://54.235.29.9/FacialAge/BNav_EC2/DepthDuration/v2_depth_duration_MTurk/v2_DepthDuration_HTML.html#40,40,1920,1009,1920,1080,8-20-2022,11-54-14,107,depth_duration_stimuli/002445_2014-06-28_20-32-16_260595134347_rgbf000029-resize_4/002445_2014-06-28_20-32-16_260595134347_rgbf000029-resize_4-target.png,250,2.5315,6,2630,246,feet,jsons/v1_VE250_randls_62_rotated.json,522063,899803,43,Man
107,523472,DepthScenes,duration_manipulation_targetAtFixation,jsons/v1_VE250_randls_62_rotated.json,http://54.235.29.9/FacialAge/BNav_EC2/DepthDuration/v2_depth_duration_MTurk/v2_DepthDuration_HTML.html#40,40,1920,1009,1920,1080,8-20-2022,11-54-14,108,depth_duration_stimuli/003338_2014-05-20_11-01-23_094959634447_rgbf000051-resize_6/003338_2014-05-20_11-01-23_094959634447_rgbf000051-resize_6-target.png,250,1.693,4,2439,250,feet,jsons/v1_VE250_randls_62_rotated.json,522063,899803,43,Man
108,523472,DepthScenes,duration_manipulation_targetAtFixation,jsons/v1_VE250_randls_62_rotated.json,http://54.235.29.9/FacialAge/BNav_EC2/DepthDuration/v2_depth_duration_MTurk/v2_DepthDuration_HTML.html#40,40,1920,1009,1920,1080,8-20-2022,11-54-14,109,depth_duration_stimuli/002509_2014-06-24_13-19-22_094959634447_rgbf000077-resize_0/002509_2014-06-24_13-19-22_094959634447_rgbf000077-resize_0-target.png,250,1.3065,3,2495,247,feet,jsons/v1_VE250_randls_62_rotated.json,522063,899803,43,Man
109,523472,DepthScenes,duration_manipulation_targetAtFixation,jsons/v1_VE250_randls_62_rotated.json,http://54.235.29.9/FacialAge/BNav_EC2/DepthDuration/v2_depth_duration_MTurk/v2_DepthDuration_HTML.html#40,40,1920,1009,1920,1080,8-20-2022,11-54-14,110,depth_duration_stimuli/001136_2014-06-17_15-19-41_260595134347_rgbf000076-resize_3/001136_2014-06-17_15-19-41_260595134347_rgbf000076-resize_3-target.png,250,1.8655,4,2316,248,feet,jsons/v1_VE250_randls_62_rotated.json,522063,899803,43,Man
110,523472,DepthScenes,duration_manipulation_targetAtFixation,jsons/v1_VE250_randls_62_rotated.json,http://54.235.29.9/FacialAge/BNav_EC2/DepthDuration/v2_depth_duration_MTurk/v2_DepthDuration_HTML.html#40,40,1920,1009,1920,1080,8-20-2022,11-54-14,111,depth_duration_stimuli/001164_2014-06-17_15-35-46_260595134347_rgbf000085-resize_3/001164_2014-06-17_15-35-46_260595134347_rgbf000085-resize_3-target.png,250,2.354,5,2590,250,feet,jsons/v1_VE250_randls_62_rotated.json,522063,899803,43,Man
111,523472,DepthScenes,duration_manipulation_targetAtFixation,jsons/v1_VE250_randls_62_rotated.json,http://54.235.29.9/FacialAge/BNav_EC2/DepthDuration/v2_depth_duration_MTurk/v2_DepthDuration_HTML.html#40,40,1920,1009,1920,1080,8-20-2022,11-54-14,112,depth_duration_stimuli/000502_2014-06-08_23-02-32_260595134347_rgbf000063-resize_4/000502_2014-06-08_23-02-32_260595134347_rgbf000063-resize_4-target.png,250,2.431,6,2495,250,feet,jsons/v1_VE250_randls_62_rotated.json,522063,899803,43,Man
112,523472,DepthScenes,duration_manipulation_targetAtFixation,jsons/v1_VE250_randls_62_rotated.json,http://54.235.29.9/FacialAge/BNav_EC2/DepthDuration/v2_depth_duration_MTurk/v2_DepthDuration_HTML.html#40,40,1920,1009,1920,1080,8-20-2022,11-54-14,113,depth_duration_stimuli/001199_2014-06-17_16-03-48_260595134347_rgbf000077-resize_0/001199_2014-06-17_16-03-48_260595134347_rgbf000077-resize_0-target.png,250,3.4375,12,2665,249,feet,jsons/v1_VE250_randls_62_rotated.json,522063,899803,43,Man
113,523472,DepthScenes,duration_manipulation_targetAtFixation,jsons/v1_VE250_randls_62_rotated.json,http://54.235.29.9/FacialAge/BNav_EC2/DepthDuration/v2_depth_duration_MTurk/v2_DepthDuration_HTML.html#40,40,1920,1009,1920,1080,8-20-2022,11-54-14,114,depth_duration_stimuli/002758_2014-06-22_19-11-20_094959634447_rgbf000128-resize_1/002758_2014-06-22_19-11-20_094959634447_rgbf000128-resize_1-target.png,250,2.555,6,2571,250,feet,jsons/v1_VE250_randls_62_rotated.json,522063,899803,43,Man
114,523472,DepthScenes,duration_manipulation_targetAtFixation,jsons/v1_VE250_randls_62_rotated.json,http://54.235.29.9/FacialAge/BNav_EC2/DepthDuration/v2_depth_duration_MTurk/v2_DepthDuration_HTML.html#40,40,1920,1009,1920,1080,8-20-2022,11-54-14,115,depth_duration_stimuli/002630_2014-06-24_14-47-50_094959634447_rgbf000055-resize_1/002630_2014-06-24_14-47-50_094959634447_rgbf000055-resize_1-target.png,250,3.0095,11,2367,248,feet,jsons/v1_VE250_randls_62_rotated.json,522063,899803,43,Man
115,523472,DepthScenes,duration_manipulation_targetAtFixation,jsons/v1_VE250_randls_62_rotated.json,http://54.235.29.9/FacialAge/BNav_EC2/DepthDuration/v2_depth_duration_MTurk/v2_DepthDuration_HTML.html#40,40,1920,1009,1920,1080,8-20-2022,11-54-14,116,depth_duration_stimuli/002344_2014-06-28_20-06-29_260595134347_rgbf000030-resize_1/002344_2014-06-28_20-06-29_260595134347_rgbf000030-resize_1-target.png,250,1.5795,5,3424,248,feet,jsons/v1_VE250_randls_62_rotated.json,522063,899803,43,Man
116,523472,DepthScenes,duration_manipulation_targetAtFixation,jsons/v1_VE250_randls_62_rotated.json,http://54.235.29.9/FacialAge/BNav_EC2/DepthDuration/v2_depth_duration_MTurk/v2_DepthDuration_HTML.html#40,40,1920,1009,1920,1080,8-20-2022,11-54-14,117,depth_duration_stimuli/002725_2014-06-22_11-47-51_094959634447_rgbf000070-resize_1/002725_2014-06-22_11-47-51_094959634447_rgbf000070-resize_1-target.png,250,2.195,7,2966,247,feet,jsons/v1_VE250_randls_62_rotated.json,522063,899803,43,Man
117,523472,DepthScenes,duration_manipulation_targetAtFixation,jsons/v1_VE250_randls_62_rotated.json,http://54.235.29.9/FacialAge/BNav_EC2/DepthDuration/v2_depth_duration_MTurk/v2_DepthDuration_HTML.html#40,40,1920,1009,1920,1080,8-20-2022,11-54-14,118,depth_duration_stimuli/001447_2014-06-19_17-00-32_260595134347_rgbf000082-resize_5/001447_2014-06-19_17-00-32_260595134347_rgbf000082-resize_5-target.png,250,4.13775,8,2838,250,feet,jsons/v1_VE250_randls_62_rotated.json,522063,899803,43,Man
118,523472,DepthScenes,duration_manipulation_targetAtFixation,jsons/v1_VE250_randls_62_rotated.json,http://54.235.29.9/FacialAge/BNav_EC2/DepthDuration/v2_depth_duration_MTurk/v2_DepthDuration_HTML.html#40,40,1920,1009,1920,1080,8-20-2022,11-54-14,119,depth_duration_stimuli/000447_2014-06-08_16-15-46_260595134347_rgbf000130-resize_1/000447_2014-06-08_16-15-46_260595134347_rgbf000130-resize_1-target.png,250,4.479,11,2259,245,feet,jsons/v1_VE250_randls_62_rotated.json,522063,899803,43,Man
119,523472,DepthScenes,duration_manipulation_targetAtFixation,jsons/v1_VE250_randls_62_rotated.json,http://54.235.29.9/FacialAge/BNav_EC2/DepthDuration/v2_depth_duration_MTurk/v2_DepthDuration_HTML.html#40,40,1920,1009,1920,1080,8-20-2022,11-54-14,120,depth_duration_stimuli/000787_2014-06-08_22-33-53_260595134347_rgbf000175-resize_1/000787_2014-06-08_22-33-53_260595134347_rgbf000175-resize-original.jpg,250,4.784,0,2620,255,feet,jsons/v1_VE250_randls_62_rotated.json,522063,899803,43,Man
120,523472,DepthScenes,duration_manipulation_targetAtFixation,jsons/v1_VE250_randls_62_rotated.json,http://54.235.29.9/FacialAge/BNav_EC2/DepthDuration/v2_depth_duration_MTurk/v2_DepthDuration_HTML.html#40,40,1920,1009,1920,1080,8-20-2022,11-54-14,121,depth_duration_stimuli/001052_2014-06-08_18-24-54_260595134347_rgbf000130-resize_1/001052_2014-06-08_18-24-54_260595134347_rgbf000130-resize_1-target.png,250,4.1045,11,2612,254,feet,jsons/v1_VE250_randls_62_rotated.json,522063,899803,43,Man
121,523472,DepthScenes,duration_manipulation_targetAtFixation,jsons/v1_VE250_randls_62_rotated.json,http://54.235.29.9/FacialAge/BNav_EC2/DepthDuration/v2_depth_duration_MTurk/v2_DepthDuration_HTML.html#40,40,1920,1009,1920,1080,8-20-2022,11-54-14,122,depth_duration_stimuli/002988_2014-06-15_12-24-20_094959634447_rgbf000150-resize_1/002988_2014-06-15_12-24-20_094959634447_rgbf000150-resize_1-target.png,250,4.7669999999999995,10,3281,251,feet,jsons/v1_VE250_randls_62_rotated.json,522063,899803,43,Man
122,523472,DepthScenes,duration_manipulation_targetAtFixation,jsons/v1_VE250_randls_62_rotated.json,http://54.235.29.9/FacialAge/BNav_EC2/DepthDuration/v2_depth_duration_MTurk/v2_DepthDuration_HTML.html#40,40,1920,1009,1920,1080,8-20-2022,11-54-14,123,depth_duration_stimuli/000734_2014-06-08_17-39-11_260595134347_rgbf000128-resize_2/000734_2014-06-08_17-39-11_260595134347_rgbf000128-resize_2-target.png,250,4.098,9,2482,234,feet,jsons/v1_VE250_randls_62_rotated.json,522063,899803,43,Man
123,523472,DepthScenes,duration_manipulation_targetAtFixation,jsons/v1_VE250_randls_62_rotated.json,http://54.235.29.9/FacialAge/BNav_EC2/DepthDuration/v2_depth_duration_MTurk/v2_DepthDuration_HTML.html#40,40,1920,1009,1920,1080,8-20-2022,11-54-14,124,depth_duration_stimuli/000739_2014-06-08_18-45-58_260595134347_rgbf000068-resize_1/000739_2014-06-08_18-45-58_260595134347_rgbf000068-resize_1-target.png,250,3.534,9,2522,249,feet,jsons/v1_VE250_randls_62_rotated.json,522063,899803,43,Man
124,523472,DepthScenes,duration_manipulation_targetAtFixation,jsons/v1_VE250_randls_62_rotated.json,http://54.235.29.9/FacialAge/BNav_EC2/DepthDuration/v2_depth_duration_MTurk/v2_DepthDuration_HTML.html#40,40,1920,1009,1920,1080,8-20-2022,11-54-14,125,depth_duration_stimuli/003048_2014-06-15_13-49-43_094959634447_rgbf000150-resize_1/003048_2014-06-15_13-49-43_094959634447_rgbf000150-resize_1-target.png,250,4.0035,8,2522,259,feet,jsons/v1_VE250_randls_62_rotated.json,522063,899803,43,Man
125,523472,DepthScenes,duration_manipulation_targetAtFixation,jsons/v1_VE250_randls_62_rotated.json,http://54.235.29.9/FacialAge/BNav_EC2/DepthDuration/v2_depth_duration_MTurk/v2_DepthDuration_HTML.html#40,40,1920,1009,1920,1080,8-20-2022,11-54-14,126,depth_duration_stimuli/002043_2014-06-24_20-29-38_260595134347_rgbf000039-resize_4/002043_2014-06-24_20-29-38_260595134347_rgbf000039-resize_4-target.png,250,2.8435,9,2675,257,feet,jsons/v1_VE250_randls_62_rotated.json,522063,899803,43,Man
126,523472,DepthScenes,duration_manipulation_targetAtFixation,jsons/v1_VE250_randls_62_rotated.json,http://54.235.29.9/FacialAge/BNav_EC2/DepthDuration/v2_depth_duration_MTurk/v2_DepthDuration_HTML.html#40,40,1920,1009,1920,1080,8-20-2022,11-54-14,127,depth_duration_stimuli/001094_2014-06-15_17-36-00_260595134347_rgbf000205-resize_0/001094_2014-06-15_17-36-00_260595134347_rgbf000205-resize_0-target.png,250,4.2175,11,2241,258,feet,jsons/v1_VE250_randls_62_rotated.json,522063,899803,43,Man
127,523472,DepthScenes,duration_manipulation_targetAtFixation,jsons/v1_VE250_randls_62_rotated.json,http://54.235.29.9/FacialAge/BNav_EC2/DepthDuration/v2_depth_duration_MTurk/v2_DepthDuration_HTML.html#40,40,1920,1009,1920,1080,8-20-2022,11-54-14,128,depth_duration_stimuli/000692_2014-06-08_13-09-42_260595134347_rgbf000199-resize_2/000692_2014-06-08_13-09-42_260595134347_rgbf000199-resize_2-target.png,250,3.661,14,2713,250,feet,jsons/v1_VE250_randls_62_rotated.json,522063,899803,43,Man
128,523472,DepthScenes,duration_manipulation_targetAtFixation,jsons/v1_VE250_randls_62_rotated.json,http://54.235.29.9/FacialAge/BNav_EC2/DepthDuration/v2_depth_duration_MTurk/v2_DepthDuration_HTML.html#40,40,1920,1009,1920,1080,8-20-2022,11-54-14,129,depth_duration_stimuli/001100_2014-06-15_17-46-26_260595134347_rgbf000225-resize_2/001100_2014-06-15_17-46-26_260595134347_rgbf000225-resize_2-target.png,250,2.24,3,2149,250,feet,jsons/v1_VE250_randls_62_rotated.json,522063,899803,43,Man
129,523472,DepthScenes,duration_manipulation_targetAtFixation,jsons/v1_VE250_randls_62_rotated.json,http://54.235.29.9/FacialAge/BNav_EC2/DepthDuration/v2_depth_duration_MTurk/v2_DepthDuration_HTML.html#40,40,1920,1009,1920,1080,8-20-2022,11-54-14,130,depth_duration_stimuli/002784_2014-06-22_19-26-30_094959634447_rgbf000083-resize_3/002784_2014-06-22_19-26-30_094959634447_rgbf000083-resize_3-target.png,250,1.8046666666667,4,2231,249,feet,jsons/v1_VE250_randls_62_rotated.json,522063,899803,43,Man
130,523472,DepthScenes,duration_manipulation_targetAtFixation,jsons/v1_VE250_randls_62_rotated.json,http://54.235.29.9/FacialAge/BNav_EC2/DepthDuration/v2_depth_duration_MTurk/v2_DepthDuration_HTML.html#40,40,1920,1009,1920,1080,8-20-2022,11-54-14,131,depth_duration_stimuli/002467_2014-06-28_20-38-07_260595134347_rgbf000026-resize_2/002467_2014-06-28_20-38-07_260595134347_rgbf000026-resize_2-target.png,250,4.742,12,2500,249,feet,jsons/v1_VE250_randls_62_rotated.json,522063,899803,43,Man
131,523472,DepthScenes,duration_manipulation_targetAtFixation,jsons/v1_VE250_randls_62_rotated.json,http://54.235.29.9/FacialAge/BNav_EC2/DepthDuration/v2_depth_duration_MTurk/v2_DepthDuration_HTML.html#40,40,1920,1009,1920,1080,8-20-2022,11-54-14,132,depth_duration_stimuli/002570_2014-06-24_13-59-54_094959634447_rgbf000059-resize_0/002570_2014-06-24_13-59-54_094959634447_rgbf000059-resize_0-target.png,250,4.037,11,2934,245,feet,jsons/v1_VE250_randls_62_rotated.json,522063,899803,43,Man
132,523472,DepthScenes,duration_manipulation_targetAtFixation,jsons/v1_VE250_randls_62_rotated.json,http://54.235.29.9/FacialAge/BNav_EC2/DepthDuration/v2_depth_duration_MTurk/v2_DepthDuration_HTML.html#40,40,1920,1009,1920,1080,8-20-2022,11-54-14,133,depth_duration_stimuli/001032_2014-06-08_13-23-17_260595134347_rgbf000021-resize_3/001032_2014-06-08_13-23-17_260595134347_rgbf000021-resize_3-target.png,250,3.2725,8,2719,250,feet,jsons/v1_VE250_randls_62_rotated.json,522063,899803,43,Man
133,523472,DepthScenes,duration_manipulation_targetAtFixation,jsons/v1_VE250_randls_62_rotated.json,http://54.235.29.9/FacialAge/BNav_EC2/DepthDuration/v2_depth_duration_MTurk/v2_DepthDuration_HTML.html#40,40,1920,1009,1920,1080,8-20-2022,11-54-14,134,depth_duration_stimuli/001059_2014-06-08_21-53-27_260595134347_rgbf000061-resize_4/001059_2014-06-08_21-53-27_260595134347_rgbf000061-resize_4-target.png,250,2.4185,7,2664,252,feet,jsons/v1_VE250_randls_62_rotated.json,522063,899803,43,Man
134,523472,DepthScenes,duration_manipulation_targetAtFixation,jsons/v1_VE250_randls_62_rotated.json,http://54.235.29.9/FacialAge/BNav_EC2/DepthDuration/v2_depth_duration_MTurk/v2_DepthDuration_HTML.html#40,40,1920,1009,1920,1080,8-20-2022,11-54-14,135,depth_duration_stimuli/000375_2014-06-08_11-17-29_260595134347_rgbf000133-resize_2/000375_2014-06-08_11-17-29_260595134347_rgbf000133-resize-original.jpg,250,4.718,0,3229,251,feet,jsons/v1_VE250_randls_62_rotated.json,522063,899803,43,Man
135,523472,DepthScenes,duration_manipulation_targetAtFixation,jsons/v1_VE250_randls_62_rotated.json,http://54.235.29.9/FacialAge/BNav_EC2/DepthDuration/v2_depth_duration_MTurk/v2_DepthDuration_HTML.html#40,40,1920,1009,1920,1080,8-20-2022,11-54-14,136,depth_duration_stimuli/000635_2014-06-08_16-38-42_260595134347_rgbf000106-resize_1/000635_2014-06-08_16-38-42_260595134347_rgbf000106-resize_1-target.png,250,2.074,7,2819,247,feet,jsons/v1_VE250_randls_62_rotated.json,522063,899803,43,Man
136,523472,DepthScenes,duration_manipulation_targetAtFixation,jsons/v1_VE250_randls_62_rotated.json,http://54.235.29.9/FacialAge/BNav_EC2/DepthDuration/v2_depth_duration_MTurk/v2_DepthDuration_HTML.html#40,40,1920,1009,1920,1080,8-20-2022,11-54-14,137,depth_duration_stimuli/002279_2014-06-28_18-55-32_260595134347_rgbf000040-resize_5/002279_2014-06-28_18-55-32_260595134347_rgbf000040-resize_5-target.png,250,1.5043333333333,5,2448,248,feet,jsons/v1_VE250_randls_62_rotated.json,522063,899803,43,Man
137,523472,DepthScenes,duration_manipulation_targetAtFixation,jsons/v1_VE250_randls_62_rotated.json,http://54.235.29.9/FacialAge/BNav_EC2/DepthDuration/v2_depth_duration_MTurk/v2_DepthDuration_HTML.html#40,40,1920,1009,1920,1080,8-20-2022,11-54-14,138,depth_duration_stimuli/001235_2014-06-17_16-37-36_260595134347_rgbf000084-resize_4/001235_2014-06-17_16-37-36_260595134347_rgbf000084-resize_4-target.png,250,3.6605,8,2613,246,feet,jsons/v1_VE250_randls_62_rotated.json,522063,899803,43,Man
138,523472,DepthScenes,duration_manipulation_targetAtFixation,jsons/v1_VE250_randls_62_rotated.json,http://54.235.29.9/FacialAge/BNav_EC2/DepthDuration/v2_depth_duration_MTurk/v2_DepthDuration_HTML.html#40,40,1920,1009,1920,1080,8-20-2022,11-54-14,139,depth_duration_stimuli/000788_2014-06-08_22-34-36_260595134347_rgbf000131-resize_1/000788_2014-06-08_22-34-36_260595134347_rgbf000131-resize_1-target.png,250,3.359,8,2581,249,feet,jsons/v1_VE250_randls_62_rotated.json,522063,899803,43,Man
139,523472,DepthScenes,duration_manipulation_targetAtFixation,jsons/v1_VE250_randls_62_rotated.json,http://54.235.29.9/FacialAge/BNav_EC2/DepthDuration/v2_depth_duration_MTurk/v2_DepthDuration_HTML.html#40,40,1920,1009,1920,1080,8-20-2022,11-54-14,140,depth_duration_stimuli/002750_2014-06-22_19-08-03_094959634447_rgbf000094-resize_4/002750_2014-06-22_19-08-03_094959634447_rgbf000094-resize_4-target.png,250,2.354,8,2534,252,feet,jsons/v1_VE250_randls_62_rotated.json,522063,899803,43,Man
140,523472,DepthScenes,duration_manipulation_targetAtFixation,jsons/v1_VE250_randls_62_rotated.json,http://54.235.29.9/FacialAge/BNav_EC2/DepthDuration/v2_depth_duration_MTurk/v2_DepthDuration_HTML.html#40,40,1920,1009,1920,1080,8-20-2022,11-54-14,141,depth_duration_stimuli/002549_2014-06-24_13-41-39_094959634447_rgbf000022-resize_3/002549_2014-06-24_13-41-39_094959634447_rgbf000022-resize_3-target.png,250,1.476,4,2429,252,feet,jsons/v1_VE250_randls_62_rotated.json,522063,899803,43,Man
141,523472,DepthScenes,duration_manipulation_targetAtFixation,jsons/v1_VE250_randls_62_rotated.json,http://54.235.29.9/FacialAge/BNav_EC2/DepthDuration/v2_depth_duration_MTurk/v2_DepthDuration_HTML.html#40,40,1920,1009,1920,1080,8-20-2022,11-54-14,142,depth_duration_stimuli/000709_2014-06-08_13-51-55_260595134347_rgbf000068-resize_3/000709_2014-06-08_13-51-55_260595134347_rgbf000068-resize_3-target.png,250,1.8030000000000002,6,2622,236,feet,jsons/v1_VE250_randls_62_rotated.json,522063,899803,43,Man
142,523472,DepthScenes,duration_manipulation_targetAtFixation,jsons/v1_VE250_randls_62_rotated.json,http://54.235.29.9/FacialAge/BNav_EC2/DepthDuration/v2_depth_duration_MTurk/v2_DepthDuration_HTML.html#40,40,1920,1009,1920,1080,8-20-2022,11-54-14,143,depth_duration_stimuli/002057_2014-06-24_21-00-13_260595134347_rgbf000120-resize_1/002057_2014-06-24_21-00-13_260595134347_rgbf000120-resize_1-target.png,250,2.967,8,3131,250,feet,jsons/v1_VE250_randls_62_rotated.json,522063,899803,43,Man
143,523472,DepthScenes,duration_manipulation_targetAtFixation,jsons/v1_VE250_randls_62_rotated.json,http://54.235.29.9/FacialAge/BNav_EC2/DepthDuration/v2_depth_duration_MTurk/v2_DepthDuration_HTML.html#40,40,1920,1009,1920,1080,8-20-2022,11-54-14,144,depth_duration_stimuli/000742_2014-06-08_18-48-09_260595134347_rgbf000164-resize_4/000742_2014-06-08_18-48-09_260595134347_rgbf000164-resize_4-target.png,250,4.632,11,2552,250,feet,jsons/v1_VE250_randls_62_rotated.json,522063,899803,43,Man
144,523472,DepthScenes,duration_manipulation_targetAtFixation,jsons/v1_VE250_randls_62_rotated.json,http://54.235.29.9/FacialAge/BNav_EC2/DepthDuration/v2_depth_duration_MTurk/v2_DepthDuration_HTML.html#40,40,1920,1009,1920,1080,8-20-2022,11-54-14,145,depth_duration_stimuli/001066_2014-06-08_22-03-20_260595134347_rgbf000066-resize_4/001066_2014-06-08_22-03-20_260595134347_rgbf000066-resize_4-target.png,250,4.2330000000000005,12,1973,235,feet,jsons/v1_VE250_randls_62_rotated.json,522063,899803,43,Man
145,523472,DepthScenes,duration_manipulation_targetAtFixation,jsons/v1_VE250_randls_62_rotated.json,http://54.235.29.9/FacialAge/BNav_EC2/DepthDuration/v2_depth_duration_MTurk/v2_DepthDuration_HTML.html#40,40,1920,1009,1920,1080,8-20-2022,11-54-14,146,depth_duration_stimuli/003129_2014-05-12_10-48-10_094959634447_rgbf000100-resize_0/003129_2014-05-12_10-48-10_094959634447_rgbf000100-resize_0-target.png,250,4.9305,13,2419,238,feet,jsons/v1_VE250_randls_62_rotated.json,522063,899803,43,Man
146,523472,DepthScenes,duration_manipulation_targetAtFixation,jsons/v1_VE250_randls_62_rotated.json,http://54.235.29.9/FacialAge/BNav_EC2/DepthDuration/v2_depth_duration_MTurk/v2_DepthDuration_HTML.html#40,40,1920,1009,1920,1080,8-20-2022,11-54-14,147,depth_duration_stimuli/000414_2014-06-04_19-49-13_260595134347_rgbf000044-resize_0/000414_2014-06-04_19-49-13_260595134347_rgbf000044-resize_0-target.png,250,4.329,13,2403,252,feet,jsons/v1_VE250_randls_62_rotated.json,522063,899803,43,Man
147,523472,DepthScenes,duration_manipulation_targetAtFixation,jsons/v1_VE250_randls_62_rotated.json,http://54.235.29.9/FacialAge/BNav_EC2/DepthDuration/v2_depth_duration_MTurk/v2_DepthDuration_HTML.html#40,40,1920,1009,1920,1080,8-20-2022,11-54-14,148,depth_duration_stimuli/002103_2014-06-25_20-00-40_260595134347_rgbf000049-resize_0/002103_2014-06-25_20-00-40_260595134347_rgbf000049-resize_0-target.png,250,4.105,12,2184,250,feet,jsons/v1_VE250_randls_62_rotated.json,522063,899803,43,Man
148,523472,DepthScenes,duration_manipulation_targetAtFixation,jsons/v1_VE250_randls_62_rotated.json,http://54.235.29.9/FacialAge/BNav_EC2/DepthDuration/v2_depth_duration_MTurk/v2_DepthDuration_HTML.html#40,40,1920,1009,1920,1080,8-20-2022,11-54-14,149,depth_duration_stimuli/002039_2014-06-24_20-22-38_260595134347_rgbf000084-resize_1/002039_2014-06-24_20-22-38_260595134347_rgbf000084-resize_1-target.png,250,4.408,12,2364,246,feet,jsons/v1_VE250_randls_62_rotated.json,522063,899803,43,Man
149,523472,DepthScenes,duration_manipulation_targetAtFixation,jsons/v1_VE250_randls_62_rotated.json,http://54.235.29.9/FacialAge/BNav_EC2/DepthDuration/v2_depth_duration_MTurk/v2_DepthDuration_HTML.html#40,40,1920,1009,1920,1080,8-20-2022,11-54-14,150,depth_duration_stimuli/001828_2014-06-26_21-40-03_260595134347_rgbf000024-resize_0/001828_2014-06-26_21-40-03_260595134347_rgbf000024-resize_0-target.png,250,4.8260000000000005,12,2312,248,feet,jsons/v1_VE250_randls_62_rotated.json,522063,899803,43,Man
150,523472,DepthScenes,duration_manipulation_targetAtFixation,jsons/v1_VE250_randls_62_rotated.json,http://54.235.29.9/FacialAge/BNav_EC2/DepthDuration/v2_depth_duration_MTurk/v2_DepthDuration_HTML.html#40,40,1920,1009,1920,1080,8-20-2022,11-54-14,151,depth_duration_stimuli/000009_2014-05-26_14-32-05_260595134347_rgbf000034-resize_3/000009_2014-05-26_14-32-05_260595134347_rgbf000034-resize_3-target.png,250,3.8715,14,2612,248,feet,jsons/v1_VE250_randls_62_rotated.json,522063,899803,43,Man
151,523472,DepthScenes,duration_manipulation_targetAtFixation,jsons/v1_VE250_randls_62_rotated.json,http://54.235.29.9/FacialAge/BNav_EC2/DepthDuration/v2_depth_duration_MTurk/v2_DepthDuration_HTML.html#40,40,1920,1009,1920,1080,8-20-2022,11-54-14,152,depth_duration_stimuli/000569_2014-06-09_22-51-47_260595134347_rgbf000141-resize_3/000569_2014-06-09_22-51-47_260595134347_rgbf000141-resize-original.jpg,250,4.512,0,2803,246,feet,jsons/v1_VE250_randls_62_rotated.json,522063,899803,43,Man
152,523472,DepthScenes,duration_manipulation_targetAtFixation,jsons/v1_VE250_randls_62_rotated.json,http://54.235.29.9/FacialAge/BNav_EC2/DepthDuration/v2_depth_duration_MTurk/v2_DepthDuration_HTML.html#40,40,1920,1009,1920,1080,8-20-2022,11-54-14,153,depth_duration_stimuli/002545_2014-06-24_13-38-53_094959634447_rgbf000080-resize_4/002545_2014-06-24_13-38-53_094959634447_rgbf000080-resize_4-target.png,250,1.9205,6,2536,249,feet,jsons/v1_VE250_randls_62_rotated.json,522063,899803,43,Man
153,523472,DepthScenes,duration_manipulation_targetAtFixation,jsons/v1_VE250_randls_62_rotated.json,http://54.235.29.9/FacialAge/BNav_EC2/DepthDuration/v2_depth_duration_MTurk/v2_DepthDuration_HTML.html#40,40,1920,1009,1920,1080,8-20-2022,11-54-14,154,depth_duration_stimuli/001092_2014-06-15_17-34-58_260595134347_rgbf000171-resize_3/001092_2014-06-15_17-34-58_260595134347_rgbf000171-resize_3-target.png,250,2.6935,6,2566,246,feet,jsons/v1_VE250_randls_62_rotated.json,522063,899803,43,Man
154,523472,DepthScenes,duration_manipulation_targetAtFixation,jsons/v1_VE250_randls_62_rotated.json,http://54.235.29.9/FacialAge/BNav_EC2/DepthDuration/v2_depth_duration_MTurk/v2_DepthDuration_HTML.html#40,40,1920,1009,1920,1080,8-20-2022,11-54-14,155,depth_duration_stimuli/003423_2014-05-21_10-23-26_094959634447_rgbf002665-resize_2/003423_2014-05-21_10-23-26_094959634447_rgbf002665-resize_2-target.png,250,3.2575,8,2555,251,feet,jsons/v1_VE250_randls_62_rotated.json,522063,899803,43,Man
155,523472,DepthScenes,duration_manipulation_targetAtFixation,jsons/v1_VE250_randls_62_rotated.json,http://54.235.29.9/FacialAge/BNav_EC2/DepthDuration/v2_depth_duration_MTurk/v2_DepthDuration_HTML.html#40,40,1920,1009,1920,1080,8-20-2022,11-54-14,156,depth_duration_stimuli/002905_2014-06-03_18-04-43_094959634447_rgbf000151-resize_2/002905_2014-06-03_18-04-43_094959634447_rgbf000151-resize_2-target.png,250,2.0295,5,2771,247,feet,jsons/v1_VE250_randls_62_rotated.json,522063,899803,43,Man
156,523472,DepthScenes,duration_manipulation_targetAtFixation,jsons/v1_VE250_randls_62_rotated.json,http://54.235.29.9/FacialAge/BNav_EC2/DepthDuration/v2_depth_duration_MTurk/v2_DepthDuration_HTML.html#40,40,1920,1009,1920,1080,8-20-2022,11-54-14,157,depth_duration_stimuli/002568_2014-06-24_13-59-21_094959634447_rgbf000062-resize_4/002568_2014-06-24_13-59-21_094959634447_rgbf000062-resize_4-target.png,250,3.015,8,2705,249,feet,jsons/v1_VE250_randls_62_rotated.json,522063,899803,43,Man
157,523472,DepthScenes,duration_manipulation_targetAtFixation,jsons/v1_VE250_randls_62_rotated.json,http://54.235.29.9/FacialAge/BNav_EC2/DepthDuration/v2_depth_duration_MTurk/v2_DepthDuration_HTML.html#40,40,1920,1009,1920,1080,8-20-2022,11-54-14,158,depth_duration_stimuli/003492_2014-05-21_15-50-55_094959634447_rgbf000828-resize_1/003492_2014-05-21_15-50-55_094959634447_rgbf000828-resize_1-target.png,250,4.06875,12,2082,247,feet,jsons/v1_VE250_randls_62_rotated.json,522063,899803,43,Man
158,523472,DepthScenes,duration_manipulation_targetAtFixation,jsons/v1_VE250_randls_62_rotated.json,http://54.235.29.9/FacialAge/BNav_EC2/DepthDuration/v2_depth_duration_MTurk/v2_DepthDuration_HTML.html#40,40,1920,1009,1920,1080,8-20-2022,11-54-14,159,depth_duration_stimuli/003081_2014-06-15_15-19-16_094959634447_rgbf000150-resize_1/003081_2014-06-15_15-19-16_094959634447_rgbf000150-resize_1-target.png,250,3.9125,13,2122,248,feet,jsons/v1_VE250_randls_62_rotated.json,522063,899803,43,Man
159,523472,DepthScenes,duration_manipulation_targetAtFixation,jsons/v1_VE250_randls_62_rotated.json,http://54.235.29.9/FacialAge/BNav_EC2/DepthDuration/v2_depth_duration_MTurk/v2_DepthDuration_HTML.html#40,40,1920,1009,1920,1080,8-20-2022,11-54-14,160,depth_duration_stimuli/001417_2014-06-19_16-25-36_260595134347_rgbf000115-resize_5/001417_2014-06-19_16-25-36_260595134347_rgbf000115-resize_5-target.png,250,4.6255,13,3490,248,feet,jsons/v1_VE250_randls_62_rotated.json,522063,899803,43,Man
160,523472,DepthScenes,duration_manipulation_targetAtFixation,jsons/v1_VE250_randls_62_rotated.json,http://54.235.29.9/FacialAge/BNav_EC2/DepthDuration/v2_depth_duration_MTurk/v2_DepthDuration_HTML.html#40,40,1920,1009,1920,1080,8-20-2022,11-54-14,161,depth_duration_stimuli/002949_2014-06-26_15-57-42_094959634447_rgbf000079-resize_1/002949_2014-06-26_15-57-42_094959634447_rgbf000079-resize_1-target.png,250,1.8915,6,2625,245,feet,jsons/v1_VE250_randls_62_rotated.json,522063,899803,43,Man
161,523472,DepthScenes,duration_manipulation_targetAtFixation,jsons/v1_VE250_randls_62_rotated.json,http://54.235.29.9/FacialAge/BNav_EC2/DepthDuration/v2_depth_duration_MTurk/v2_DepthDuration_HTML.html#40,40,1920,1009,1920,1080,8-20-2022,11-54-14,162,depth_duration_stimuli/000522_2014-06-08_13-35-06_260595134347_rgbf000244-resize_1/000522_2014-06-08_13-35-06_260595134347_rgbf000244-resize_1-target.png,250,2.3715,3,2375,247,feet,jsons/v1_VE250_randls_62_rotated.json,522063,899803,43,Man
162,523472,DepthScenes,duration_manipulation_targetAtFixation,jsons/v1_VE250_randls_62_rotated.json,http://54.235.29.9/FacialAge/BNav_EC2/DepthDuration/v2_depth_duration_MTurk/v2_DepthDuration_HTML.html#40,40,1920,1009,1920,1080,8-20-2022,11-54-14,163,depth_duration_stimuli/000103_2014-05-14_22-01-17_260595134347_rgbf000152-resize_5/000103_2014-05-14_22-01-17_260595134347_rgbf000152-resize_5-target.png,250,1.993,7,2945,248,feet,jsons/v1_VE250_randls_62_rotated.json,522063,899803,43,Man
163,523472,DepthScenes,duration_manipulation_targetAtFixation,jsons/v1_VE250_randls_62_rotated.json,http://54.235.29.9/FacialAge/BNav_EC2/DepthDuration/v2_depth_duration_MTurk/v2_DepthDuration_HTML.html#40,40,1920,1009,1920,1080,8-20-2022,11-54-14,164,depth_duration_stimuli/001555_2014-06-20_17-12-10_260595134347_rgbf000065-resize_4/001555_2014-06-20_17-12-10_260595134347_rgbf000065-resize_4-target.png,250,1.633,3,2011,250,feet,jsons/v1_VE250_randls_62_rotated.json,522063,899803,43,Man
