,subjID,experimentName,versionName,sequenceName,url,selected_row,windowWidth,windowHeight,screenWidth,screenHeight,startDate,startTime,trial,stimulus,duration,actual_depth,depth_estimate,trial_RT,log_sceneDuration,unitSelection,seq_filepath,experimentTime,totalTime,age,gender
0,523983,DepthScenes,duration_manipulation_targetAtFixation,jsons/VE125_randls_40_rotated.json,http://54.235.29.9/FacialAge/BNav_EC2/DepthDuration/v2_depth_duration_MTurk/v2_DepthDuration_HTML.html#222,222,1364,625,1364,768,8-29-2022,11-25-34,1,depth_duration_stimuli/001094_2014-06-15_17-36-00_260595134347_rgbf000205-resize_0/001094_2014-06-15_17-36-00_260595134347_rgbf000205-resize_0-target.png,125,4.2175,10,6682,125,feet,jsons/VE125_randls_40_rotated.json,1140630,2139192,56,Man
1,523983,DepthScenes,duration_manipulation_targetAtFixation,jsons/VE125_randls_40_rotated.json,http://54.235.29.9/FacialAge/BNav_EC2/DepthDuration/v2_depth_duration_MTurk/v2_DepthDuration_HTML.html#222,222,1364,625,1364,768,8-29-2022,11-25-34,2,depth_duration_stimuli/000692_2014-06-08_13-09-42_260595134347_rgbf000199-resize_2/000692_2014-06-08_13-09-42_260595134347_rgbf000199-resize_2-target.png,125,3.661,8,4861,125,feet,jsons/VE125_randls_40_rotated.json,1140630,2139192,56,Man
2,523983,DepthScenes,duration_manipulation_targetAtFixation,jsons/VE125_randls_40_rotated.json,http://54.235.29.9/FacialAge/BNav_EC2/DepthDuration/v2_depth_duration_MTurk/v2_DepthDuration_HTML.html#222,222,1364,625,1364,768,8-29-2022,11-25-34,3,depth_duration_stimuli/003423_2014-05-21_10-23-26_094959634447_rgbf002665-resize_2/003423_2014-05-21_10-23-26_094959634447_rgbf002665-resize_2-target.png,125,3.2575,9,5235,125,feet,jsons/VE125_randls_40_rotated.json,1140630,2139192,56,Man
3,523983,DepthScenes,duration_manipulation_targetAtFixation,jsons/VE125_randls_40_rotated.json,http://54.235.29.9/FacialAge/BNav_EC2/DepthDuration/v2_depth_duration_MTurk/v2_DepthDuration_HTML.html#222,222,1364,625,1364,768,8-29-2022,11-25-34,4,depth_duration_stimuli/002905_2014-06-03_18-04-43_094959634447_rgbf000151-resize_2/002905_2014-06-03_18-04-43_094959634447_rgbf000151-resize_2-target.png,125,2.0295,5,3904,125,feet,jsons/VE125_randls_40_rotated.json,1140630,2139192,56,Man
4,523983,DepthScenes,duration_manipulation_targetAtFixation,jsons/VE125_randls_40_rotated.json,http://54.235.29.9/FacialAge/BNav_EC2/DepthDuration/v2_depth_duration_MTurk/v2_DepthDuration_HTML.html#222,222,1364,625,1364,768,8-29-2022,11-25-34,5,depth_duration_stimuli/001100_2014-06-15_17-46-26_260595134347_rgbf000225-resize_2/001100_2014-06-15_17-46-26_260595134347_rgbf000225-resize_2-target.png,125,2.24,4,4748,125,feet,jsons/VE125_randls_40_rotated.json,1140630,2139192,56,Man
5,523983,DepthScenes,duration_manipulation_targetAtFixation,jsons/VE125_randls_40_rotated.json,http://54.235.29.9/FacialAge/BNav_EC2/DepthDuration/v2_depth_duration_MTurk/v2_DepthDuration_HTML.html#222,222,1364,625,1364,768,8-29-2022,11-25-34,6,depth_duration_stimuli/002784_2014-06-22_19-26-30_094959634447_rgbf000083-resize_3/002784_2014-06-22_19-26-30_094959634447_rgbf000083-resize_3-target.png,125,1.8046666666667,0,3902,124,feet,jsons/VE125_randls_40_rotated.json,1140630,2139192,56,Man
6,523983,DepthScenes,duration_manipulation_targetAtFixation,jsons/VE125_randls_40_rotated.json,http://54.235.29.9/FacialAge/BNav_EC2/DepthDuration/v2_depth_duration_MTurk/v2_DepthDuration_HTML.html#222,222,1364,625,1364,768,8-29-2022,11-25-34,7,depth_duration_stimuli/000709_2014-06-08_13-51-55_260595134347_rgbf000068-resize_3/000709_2014-06-08_13-51-55_260595134347_rgbf000068-resize_3-target.png,125,1.8030000000000002,6,4305,125,feet,jsons/VE125_randls_40_rotated.json,1140630,2139192,56,Man
7,523983,DepthScenes,duration_manipulation_targetAtFixation,jsons/VE125_randls_40_rotated.json,http://54.235.29.9/FacialAge/BNav_EC2/DepthDuration/v2_depth_duration_MTurk/v2_DepthDuration_HTML.html#222,222,1364,625,1364,768,8-29-2022,11-25-34,8,depth_duration_stimuli/002057_2014-06-24_21-00-13_260595134347_rgbf000120-resize_1/002057_2014-06-24_21-00-13_260595134347_rgbf000120-resize_1-target.png,125,2.967,0,3604,125,feet,jsons/VE125_randls_40_rotated.json,1140630,2139192,56,Man
8,523983,DepthScenes,duration_manipulation_targetAtFixation,jsons/VE125_randls_40_rotated.json,http://54.235.29.9/FacialAge/BNav_EC2/DepthDuration/v2_depth_duration_MTurk/v2_DepthDuration_HTML.html#222,222,1364,625,1364,768,8-29-2022,11-25-34,9,depth_duration_stimuli/003079_2014-06-15_15-18-20_094959634447_rgbf000152-resize_8/003079_2014-06-15_15-18-20_094959634447_rgbf000152-resize_8-target.png,125,2.8775,10,5113,124,feet,jsons/VE125_randls_40_rotated.json,1140630,2139192,56,Man
9,523983,DepthScenes,duration_manipulation_targetAtFixation,jsons/VE125_randls_40_rotated.json,http://54.235.29.9/FacialAge/BNav_EC2/DepthDuration/v2_depth_duration_MTurk/v2_DepthDuration_HTML.html#222,222,1364,625,1364,768,8-29-2022,11-25-34,10,depth_duration_stimuli/000506_2014-06-08_23-21-00_260595134347_rgbf000070-resize_7/000506_2014-06-08_23-21-00_260595134347_rgbf000070-resize_7-target.png,125,4.0585,0,3567,124,feet,jsons/VE125_randls_40_rotated.json,1140630,2139192,56,Man
10,523983,DepthScenes,duration_manipulation_targetAtFixation,jsons/VE125_randls_40_rotated.json,http://54.235.29.9/FacialAge/BNav_EC2/DepthDuration/v2_depth_duration_MTurk/v2_DepthDuration_HTML.html#222,222,1364,625,1364,768,8-29-2022,11-25-34,11,depth_duration_stimuli/002444_2014-06-28_20-32-08_260595134347_rgbf000027-resize_0/002444_2014-06-28_20-32-08_260595134347_rgbf000027-resize_0-target.png,125,4.388999999999999,10,4503,125,feet,jsons/VE125_randls_40_rotated.json,1140630,2139192,56,Man
11,523983,DepthScenes,duration_manipulation_targetAtFixation,jsons/VE125_randls_40_rotated.json,http://54.235.29.9/FacialAge/BNav_EC2/DepthDuration/v2_depth_duration_MTurk/v2_DepthDuration_HTML.html#222,222,1364,625,1364,768,8-29-2022,11-25-34,12,depth_duration_stimuli/000436_2014-06-09_22-25-11_260595134347_rgbf000137-resize_1/000436_2014-06-09_22-25-11_260595134347_rgbf000137-resize_1-target.png,125,4.0705,10,3169,124,feet,jsons/VE125_randls_40_rotated.json,1140630,2139192,56,Man
12,523983,DepthScenes,duration_manipulation_targetAtFixation,jsons/VE125_randls_40_rotated.json,http://54.235.29.9/FacialAge/BNav_EC2/DepthDuration/v2_depth_duration_MTurk/v2_DepthDuration_HTML.html#222,222,1364,625,1364,768,8-29-2022,11-25-34,13,depth_duration_stimuli/002953_2014-06-08_17-32-18_094959634447_rgbf000059-resize_5/002953_2014-06-08_17-32-18_094959634447_rgbf000059-resize_5-target.png,125,1.551,4,3789,125,feet,jsons/VE125_randls_40_rotated.json,1140630,2139192,56,Man
13,523983,DepthScenes,duration_manipulation_targetAtFixation,jsons/VE125_randls_40_rotated.json,http://54.235.29.9/FacialAge/BNav_EC2/DepthDuration/v2_depth_duration_MTurk/v2_DepthDuration_HTML.html#222,222,1364,625,1364,768,8-29-2022,11-25-34,14,depth_duration_stimuli/000878_2014-06-08_22-52-45_260595134347_rgbf000045-resize_2/000878_2014-06-08_22-52-45_260595134347_rgbf000045-resize_2-target.png,125,2.092,6,3304,124,feet,jsons/VE125_randls_40_rotated.json,1140630,2139192,56,Man
14,523983,DepthScenes,duration_manipulation_targetAtFixation,jsons/VE125_randls_40_rotated.json,http://54.235.29.9/FacialAge/BNav_EC2/DepthDuration/v2_depth_duration_MTurk/v2_DepthDuration_HTML.html#222,222,1364,625,1364,768,8-29-2022,11-25-34,15,depth_duration_stimuli/000691_2014-06-08_13-08-50_260595134347_rgbf000132-resize_3/000691_2014-06-08_13-08-50_260595134347_rgbf000132-resize_3-target.png,125,4.1530000000000005,9,4013,123,feet,jsons/VE125_randls_40_rotated.json,1140630,2139192,56,Man
15,523983,DepthScenes,duration_manipulation_targetAtFixation,jsons/VE125_randls_40_rotated.json,http://54.235.29.9/FacialAge/BNav_EC2/DepthDuration/v2_depth_duration_MTurk/v2_DepthDuration_HTML.html#222,222,1364,625,1364,768,8-29-2022,11-25-34,16,depth_duration_stimuli/002213_2014-06-28_18-37-58_260595134347_rgbf000055-resize_1/002213_2014-06-28_18-37-58_260595134347_rgbf000055-resize_1-target.png,125,3.62,0,2956,125,feet,jsons/VE125_randls_40_rotated.json,1140630,2139192,56,Man
16,523983,DepthScenes,duration_manipulation_targetAtFixation,jsons/VE125_randls_40_rotated.json,http://54.235.29.9/FacialAge/BNav_EC2/DepthDuration/v2_depth_duration_MTurk/v2_DepthDuration_HTML.html#222,222,1364,625,1364,768,8-29-2022,11-25-34,17,depth_duration_stimuli/001617_2014-06-20_11-35-32_260595134347_rgbf000066-resize_1/001617_2014-06-20_11-35-32_260595134347_rgbf000066-resize_1-target.png,125,3.7910000000000004,10,3993,125,feet,jsons/VE125_randls_40_rotated.json,1140630,2139192,56,Man
17,523983,DepthScenes,duration_manipulation_targetAtFixation,jsons/VE125_randls_40_rotated.json,http://54.235.29.9/FacialAge/BNav_EC2/DepthDuration/v2_depth_duration_MTurk/v2_DepthDuration_HTML.html#222,222,1364,625,1364,768,8-29-2022,11-25-34,18,depth_duration_stimuli/001806_2014-06-26_20-50-20_260595134347_rgbf000091-resize_1/001806_2014-06-26_20-50-20_260595134347_rgbf000091-resize_1-target.png,125,2.7305,7,5704,125,feet,jsons/VE125_randls_40_rotated.json,1140630,2139192,56,Man
18,523983,DepthScenes,duration_manipulation_targetAtFixation,jsons/VE125_randls_40_rotated.json,http://54.235.29.9/FacialAge/BNav_EC2/DepthDuration/v2_depth_duration_MTurk/v2_DepthDuration_HTML.html#222,222,1364,625,1364,768,8-29-2022,11-25-34,19,depth_duration_stimuli/001498_2014-06-19_17-45-14_260595134347_rgbf000129-resize_4/001498_2014-06-19_17-45-14_260595134347_rgbf000129-resize-original.jpg,125,1.4075,0,4033,126,feet,jsons/VE125_randls_40_rotated.json,1140630,2139192,56,Man
19,523983,DepthScenes,duration_manipulation_targetAtFixation,jsons/VE125_randls_40_rotated.json,http://54.235.29.9/FacialAge/BNav_EC2/DepthDuration/v2_depth_duration_MTurk/v2_DepthDuration_HTML.html#222,222,1364,625,1364,768,8-29-2022,11-25-34,20,depth_duration_stimuli/000502_2014-06-08_23-02-32_260595134347_rgbf000063-resize_4/000502_2014-06-08_23-02-32_260595134347_rgbf000063-resize_4-target.png,125,2.431,6,4022,126,feet,jsons/VE125_randls_40_rotated.json,1140630,2139192,56,Man
20,523983,DepthScenes,duration_manipulation_targetAtFixation,jsons/VE125_randls_40_rotated.json,http://54.235.29.9/FacialAge/BNav_EC2/DepthDuration/v2_depth_duration_MTurk/v2_DepthDuration_HTML.html#222,222,1364,625,1364,768,8-29-2022,11-25-34,21,depth_duration_stimuli/001199_2014-06-17_16-03-48_260595134347_rgbf000077-resize_0/001199_2014-06-17_16-03-48_260595134347_rgbf000077-resize_0-target.png,125,3.4375,0,2949,125,feet,jsons/VE125_randls_40_rotated.json,1140630,2139192,56,Man
21,523983,DepthScenes,duration_manipulation_targetAtFixation,jsons/VE125_randls_40_rotated.json,http://54.235.29.9/FacialAge/BNav_EC2/DepthDuration/v2_depth_duration_MTurk/v2_DepthDuration_HTML.html#222,222,1364,625,1364,768,8-29-2022,11-25-34,22,depth_duration_stimuli/002660_2014-06-13_15-44-18_094959634447_rgbf001878-resize_2/002660_2014-06-13_15-44-18_094959634447_rgbf001878-resize_2-target.png,125,3.576,8,3682,126,feet,jsons/VE125_randls_40_rotated.json,1140630,2139192,56,Man
22,523983,DepthScenes,duration_manipulation_targetAtFixation,jsons/VE125_randls_40_rotated.json,http://54.235.29.9/FacialAge/BNav_EC2/DepthDuration/v2_depth_duration_MTurk/v2_DepthDuration_HTML.html#222,222,1364,625,1364,768,8-29-2022,11-25-34,23,depth_duration_stimuli/002153_2014-06-25_21-27-18_260595134347_rgbf000038-resize_5/002153_2014-06-25_21-27-18_260595134347_rgbf000038-resize_5-target.png,125,2.505,6,3337,124,feet,jsons/VE125_randls_40_rotated.json,1140630,2139192,56,Man
23,523983,DepthScenes,duration_manipulation_targetAtFixation,jsons/VE125_randls_40_rotated.json,http://54.235.29.9/FacialAge/BNav_EC2/DepthDuration/v2_depth_duration_MTurk/v2_DepthDuration_HTML.html#222,222,1364,625,1364,768,8-29-2022,11-25-34,24,depth_duration_stimuli/003338_2014-05-20_11-01-23_094959634447_rgbf000051-resize_6/003338_2014-05-20_11-01-23_094959634447_rgbf000051-resize_6-target.png,125,1.693,4,3862,125,feet,jsons/VE125_randls_40_rotated.json,1140630,2139192,56,Man
24,523983,DepthScenes,duration_manipulation_targetAtFixation,jsons/VE125_randls_40_rotated.json,http://54.235.29.9/FacialAge/BNav_EC2/DepthDuration/v2_depth_duration_MTurk/v2_DepthDuration_HTML.html#222,222,1364,625,1364,768,8-29-2022,11-25-34,25,depth_duration_stimuli/002509_2014-06-24_13-19-22_094959634447_rgbf000077-resize_0/002509_2014-06-24_13-19-22_094959634447_rgbf000077-resize_0-target.png,125,1.3065,0,2831,125,feet,jsons/VE125_randls_40_rotated.json,1140630,2139192,56,Man
25,523983,DepthScenes,duration_manipulation_targetAtFixation,jsons/VE125_randls_40_rotated.json,http://54.235.29.9/FacialAge/BNav_EC2/DepthDuration/v2_depth_duration_MTurk/v2_DepthDuration_HTML.html#222,222,1364,625,1364,768,8-29-2022,11-25-34,26,depth_duration_stimuli/002545_2014-06-24_13-38-53_094959634447_rgbf000080-resize_4/002545_2014-06-24_13-38-53_094959634447_rgbf000080-resize_4-target.png,125,1.9205,8,6063,115,feet,jsons/VE125_randls_40_rotated.json,1140630,2139192,56,Man
26,523983,DepthScenes,duration_manipulation_targetAtFixation,jsons/VE125_randls_40_rotated.json,http://54.235.29.9/FacialAge/BNav_EC2/DepthDuration/v2_depth_duration_MTurk/v2_DepthDuration_HTML.html#222,222,1364,625,1364,768,8-29-2022,11-25-34,27,depth_duration_stimuli/001092_2014-06-15_17-34-58_260595134347_rgbf000171-resize_3/001092_2014-06-15_17-34-58_260595134347_rgbf000171-resize_3-target.png,125,2.6935,0,3122,126,feet,jsons/VE125_randls_40_rotated.json,1140630,2139192,56,Man
27,523983,DepthScenes,duration_manipulation_targetAtFixation,jsons/VE125_randls_40_rotated.json,http://54.235.29.9/FacialAge/BNav_EC2/DepthDuration/v2_depth_duration_MTurk/v2_DepthDuration_HTML.html#222,222,1364,625,1364,768,8-29-2022,11-25-34,28,depth_duration_stimuli/002199_2014-06-28_18-33-56_260595134347_rgbf000074-resize_0/002199_2014-06-28_18-33-56_260595134347_rgbf000074-resize_0-target.png,125,1.996,0,7267,125,feet,jsons/VE125_randls_40_rotated.json,1140630,2139192,56,Man
28,523983,DepthScenes,duration_manipulation_targetAtFixation,jsons/VE125_randls_40_rotated.json,http://54.235.29.9/FacialAge/BNav_EC2/DepthDuration/v2_depth_duration_MTurk/v2_DepthDuration_HTML.html#222,222,1364,625,1364,768,8-29-2022,11-25-34,29,depth_duration_stimuli/001056_2014-06-08_18-46-44_260595134347_rgbf000068-resize_0/001056_2014-06-08_18-46-44_260595134347_rgbf000068-resize_0-target.png,125,2.6625,0,3184,125,feet,jsons/VE125_randls_40_rotated.json,1140630,2139192,56,Man
29,523983,DepthScenes,duration_manipulation_targetAtFixation,jsons/VE125_randls_40_rotated.json,http://54.235.29.9/FacialAge/BNav_EC2/DepthDuration/v2_depth_duration_MTurk/v2_DepthDuration_HTML.html#222,222,1364,625,1364,768,8-29-2022,11-25-34,30,depth_duration_stimuli/002072_2014-06-24_21-48-06_260595134347_rgbf000115-resize_0/002072_2014-06-24_21-48-06_260595134347_rgbf000115-resize-original.jpg,125,4.702,0,2938,124,feet,jsons/VE125_randls_40_rotated.json,1140630,2139192,56,Man
30,523983,DepthScenes,duration_manipulation_targetAtFixation,jsons/VE125_randls_40_rotated.json,http://54.235.29.9/FacialAge/BNav_EC2/DepthDuration/v2_depth_duration_MTurk/v2_DepthDuration_HTML.html#222,222,1364,625,1364,768,8-29-2022,11-25-34,31,depth_duration_stimuli/002637_2014-06-24_14-51-13_094959634447_rgbf000066-resize_4/002637_2014-06-24_14-51-13_094959634447_rgbf000066-resize_4-target.png,125,1.9955,6,3066,124,feet,jsons/VE125_randls_40_rotated.json,1140630,2139192,56,Man
31,523983,DepthScenes,duration_manipulation_targetAtFixation,jsons/VE125_randls_40_rotated.json,http://54.235.29.9/FacialAge/BNav_EC2/DepthDuration/v2_depth_duration_MTurk/v2_DepthDuration_HTML.html#222,222,1364,625,1364,768,8-29-2022,11-25-34,32,depth_duration_stimuli/003534_2014-05-22_15-06-10_094959634447_rgbf000102-resize_4/003534_2014-05-22_15-06-10_094959634447_rgbf000102-resize_4-target.png,125,1.426,0,2833,125,feet,jsons/VE125_randls_40_rotated.json,1140630,2139192,56,Man
32,523983,DepthScenes,duration_manipulation_targetAtFixation,jsons/VE125_randls_40_rotated.json,http://54.235.29.9/FacialAge/BNav_EC2/DepthDuration/v2_depth_duration_MTurk/v2_DepthDuration_HTML.html#222,222,1364,625,1364,768,8-29-2022,11-25-34,33,depth_duration_stimuli/003495_2014-05-21_16-01-51_094959634447_rgbf000100-resize_3/003495_2014-05-21_16-01-51_094959634447_rgbf000100-resize_3-target.png,125,1.6255,6,3370,125,feet,jsons/VE125_randls_40_rotated.json,1140630,2139192,56,Man
33,523983,DepthScenes,duration_manipulation_targetAtFixation,jsons/VE125_randls_40_rotated.json,http://54.235.29.9/FacialAge/BNav_EC2/DepthDuration/v2_depth_duration_MTurk/v2_DepthDuration_HTML.html#222,222,1364,625,1364,768,8-29-2022,11-25-34,34,depth_duration_stimuli/001244_2014-06-17_16-47-45_260595134347_rgbf000030-resize_4/001244_2014-06-17_16-47-45_260595134347_rgbf000030-resize_4-target.png,125,2.0425,6,3708,125,feet,jsons/VE125_randls_40_rotated.json,1140630,2139192,56,Man
34,523983,DepthScenes,duration_manipulation_targetAtFixation,jsons/VE125_randls_40_rotated.json,http://54.235.29.9/FacialAge/BNav_EC2/DepthDuration/v2_depth_duration_MTurk/v2_DepthDuration_HTML.html#222,222,1364,625,1364,768,8-29-2022,11-25-34,35,depth_duration_stimuli/002103_2014-06-25_20-00-40_260595134347_rgbf000049-resize_0/002103_2014-06-25_20-00-40_260595134347_rgbf000049-resize_0-target.png,125,4.105,9,4672,125,feet,jsons/VE125_randls_40_rotated.json,1140630,2139192,56,Man
35,523983,DepthScenes,duration_manipulation_targetAtFixation,jsons/VE125_randls_40_rotated.json,http://54.235.29.9/FacialAge/BNav_EC2/DepthDuration/v2_depth_duration_MTurk/v2_DepthDuration_HTML.html#222,222,1364,625,1364,768,8-29-2022,11-25-34,36,depth_duration_stimuli/002039_2014-06-24_20-22-38_260595134347_rgbf000084-resize_1/002039_2014-06-24_20-22-38_260595134347_rgbf000084-resize_1-target.png,125,4.408,0,3460,125,feet,jsons/VE125_randls_40_rotated.json,1140630,2139192,56,Man
36,523983,DepthScenes,duration_manipulation_targetAtFixation,jsons/VE125_randls_40_rotated.json,http://54.235.29.9/FacialAge/BNav_EC2/DepthDuration/v2_depth_duration_MTurk/v2_DepthDuration_HTML.html#222,222,1364,625,1364,768,8-29-2022,11-25-34,37,depth_duration_stimuli/000780_2014-06-08_22-28-29_260595134347_rgbf000126-resize_1/000780_2014-06-08_22-28-29_260595134347_rgbf000126-resize_1-target.png,125,3.3825,9,5207,126,feet,jsons/VE125_randls_40_rotated.json,1140630,2139192,56,Man
37,523983,DepthScenes,duration_manipulation_targetAtFixation,jsons/VE125_randls_40_rotated.json,http://54.235.29.9/FacialAge/BNav_EC2/DepthDuration/v2_depth_duration_MTurk/v2_DepthDuration_HTML.html#222,222,1364,625,1364,768,8-29-2022,11-25-34,38,depth_duration_stimuli/002445_2014-06-28_20-32-16_260595134347_rgbf000029-resize_4/002445_2014-06-28_20-32-16_260595134347_rgbf000029-resize_4-target.png,125,2.5315,0,3509,125,feet,jsons/VE125_randls_40_rotated.json,1140630,2139192,56,Man
38,523983,DepthScenes,duration_manipulation_targetAtFixation,jsons/VE125_randls_40_rotated.json,http://54.235.29.9/FacialAge/BNav_EC2/DepthDuration/v2_depth_duration_MTurk/v2_DepthDuration_HTML.html#222,222,1364,625,1364,768,8-29-2022,11-25-34,39,depth_duration_stimuli/002805_2014-06-22_19-54-03_094959634447_rgbf000079-resize_1/002805_2014-06-22_19-54-03_094959634447_rgbf000079-resize_1-target.png,125,3.1439999999999997,10,3577,126,feet,jsons/VE125_randls_40_rotated.json,1140630,2139192,56,Man
39,523983,DepthScenes,duration_manipulation_targetAtFixation,jsons/VE125_randls_40_rotated.json,http://54.235.29.9/FacialAge/BNav_EC2/DepthDuration/v2_depth_duration_MTurk/v2_DepthDuration_HTML.html#222,222,1364,625,1364,768,8-29-2022,11-25-34,40,depth_duration_stimuli/000906_2014-06-08_13-35-43_260595134347_rgbf000155-resize_1/000906_2014-06-08_13-35-43_260595134347_rgbf000155-resize_1-target.png,125,2.8489999999999998,0,3288,125,feet,jsons/VE125_randls_40_rotated.json,1140630,2139192,56,Man
40,523983,DepthScenes,duration_manipulation_targetAtFixation,jsons/VE125_randls_40_rotated.json,http://54.235.29.9/FacialAge/BNav_EC2/DepthDuration/v2_depth_duration_MTurk/v2_DepthDuration_HTML.html#222,222,1364,625,1364,768,8-29-2022,11-25-34,41,depth_duration_stimuli/003081_2014-06-15_15-19-16_094959634447_rgbf000150-resize_1/003081_2014-06-15_15-19-16_094959634447_rgbf000150-resize_1-target.png,125,3.9125,10,3270,123,feet,jsons/VE125_randls_40_rotated.json,1140630,2139192,56,Man
41,523983,DepthScenes,duration_manipulation_targetAtFixation,jsons/VE125_randls_40_rotated.json,http://54.235.29.9/FacialAge/BNav_EC2/DepthDuration/v2_depth_duration_MTurk/v2_DepthDuration_HTML.html#222,222,1364,625,1364,768,8-29-2022,11-25-34,42,depth_duration_stimuli/001417_2014-06-19_16-25-36_260595134347_rgbf000115-resize_5/001417_2014-06-19_16-25-36_260595134347_rgbf000115-resize_5-target.png,125,4.6255,0,2625,125,feet,jsons/VE125_randls_40_rotated.json,1140630,2139192,56,Man
42,523983,DepthScenes,duration_manipulation_targetAtFixation,jsons/VE125_randls_40_rotated.json,http://54.235.29.9/FacialAge/BNav_EC2/DepthDuration/v2_depth_duration_MTurk/v2_DepthDuration_HTML.html#222,222,1364,625,1364,768,8-29-2022,11-25-34,43,depth_duration_stimuli/000943_2014-06-09_19-31-07_260595134347_rgbf000128-resize_1/000943_2014-06-09_19-31-07_260595134347_rgbf000128-resize_1-target.png,125,1.9765,5,3693,125,feet,jsons/VE125_randls_40_rotated.json,1140630,2139192,56,Man
43,523983,DepthScenes,duration_manipulation_targetAtFixation,jsons/VE125_randls_40_rotated.json,http://54.235.29.9/FacialAge/BNav_EC2/DepthDuration/v2_depth_duration_MTurk/v2_DepthDuration_HTML.html#222,222,1364,625,1364,768,8-29-2022,11-25-34,44,depth_duration_stimuli/003070_2014-06-15_14-58-27_094959634447_rgbf000150-resize_3/003070_2014-06-15_14-58-27_094959634447_rgbf000150-resize_3-target.png,125,2.9415,0,2873,125,feet,jsons/VE125_randls_40_rotated.json,1140630,2139192,56,Man
44,523983,DepthScenes,duration_manipulation_targetAtFixation,jsons/VE125_randls_40_rotated.json,http://54.235.29.9/FacialAge/BNav_EC2/DepthDuration/v2_depth_duration_MTurk/v2_DepthDuration_HTML.html#222,222,1364,625,1364,768,8-29-2022,11-25-34,45,depth_duration_stimuli/002949_2014-06-26_15-57-42_094959634447_rgbf000079-resize_1/002949_2014-06-26_15-57-42_094959634447_rgbf000079-resize_1-target.png,125,1.8915,4,3388,125,feet,jsons/VE125_randls_40_rotated.json,1140630,2139192,56,Man
45,523983,DepthScenes,duration_manipulation_targetAtFixation,jsons/VE125_randls_40_rotated.json,http://54.235.29.9/FacialAge/BNav_EC2/DepthDuration/v2_depth_duration_MTurk/v2_DepthDuration_HTML.html#222,222,1364,625,1364,768,8-29-2022,11-25-34,46,depth_duration_stimuli/000522_2014-06-08_13-35-06_260595134347_rgbf000244-resize_1/000522_2014-06-08_13-35-06_260595134347_rgbf000244-resize_1-target.png,125,2.3715,0,3243,125,feet,jsons/VE125_randls_40_rotated.json,1140630,2139192,56,Man
46,523983,DepthScenes,duration_manipulation_targetAtFixation,jsons/VE125_randls_40_rotated.json,http://54.235.29.9/FacialAge/BNav_EC2/DepthDuration/v2_depth_duration_MTurk/v2_DepthDuration_HTML.html#222,222,1364,625,1364,768,8-29-2022,11-25-34,47,depth_duration_stimuli/000927_2014-06-09_16-32-30_260595134347_rgbf000123-resize_3/000927_2014-06-09_16-32-30_260595134347_rgbf000123-resize_3-target.png,125,2.6785,7,3785,124,feet,jsons/VE125_randls_40_rotated.json,1140630,2139192,56,Man
47,523983,DepthScenes,duration_manipulation_targetAtFixation,jsons/VE125_randls_40_rotated.json,http://54.235.29.9/FacialAge/BNav_EC2/DepthDuration/v2_depth_duration_MTurk/v2_DepthDuration_HTML.html#222,222,1364,625,1364,768,8-29-2022,11-25-34,48,depth_duration_stimuli/001110_2014-06-15_17-25-28_260595134347_rgbf000150-resize_1/001110_2014-06-15_17-25-28_260595134347_rgbf000150-resize_1-target.png,125,1.7115,0,3398,125,feet,jsons/VE125_randls_40_rotated.json,1140630,2139192,56,Man
48,523983,DepthScenes,duration_manipulation_targetAtFixation,jsons/VE125_randls_40_rotated.json,http://54.235.29.9/FacialAge/BNav_EC2/DepthDuration/v2_depth_duration_MTurk/v2_DepthDuration_HTML.html#222,222,1364,625,1364,768,8-29-2022,11-25-34,49,depth_duration_stimuli/001170_2014-06-17_15-43-44_260595134347_rgbf000096-resize_6/001170_2014-06-17_15-43-44_260595134347_rgbf000096-resize-original.jpg,125,1.1909999999999998,0,3194,125,feet,jsons/VE125_randls_40_rotated.json,1140630,2139192,56,Man
49,523983,DepthScenes,duration_manipulation_targetAtFixation,jsons/VE125_randls_40_rotated.json,http://54.235.29.9/FacialAge/BNav_EC2/DepthDuration/v2_depth_duration_MTurk/v2_DepthDuration_HTML.html#222,222,1364,625,1364,768,8-29-2022,11-25-34,50,depth_duration_stimuli/002750_2014-06-22_19-08-03_094959634447_rgbf000094-resize_4/002750_2014-06-22_19-08-03_094959634447_rgbf000094-resize_4-target.png,125,2.354,8,3899,125,feet,jsons/VE125_randls_40_rotated.json,1140630,2139192,56,Man
50,523983,DepthScenes,duration_manipulation_targetAtFixation,jsons/VE125_randls_40_rotated.json,http://54.235.29.9/FacialAge/BNav_EC2/DepthDuration/v2_depth_duration_MTurk/v2_DepthDuration_HTML.html#222,222,1364,625,1364,768,8-29-2022,11-25-34,51,depth_duration_stimuli/002549_2014-06-24_13-41-39_094959634447_rgbf000022-resize_3/002549_2014-06-24_13-41-39_094959634447_rgbf000022-resize_3-target.png,125,1.476,0,2900,125,feet,jsons/VE125_randls_40_rotated.json,1140630,2139192,56,Man
51,523983,DepthScenes,duration_manipulation_targetAtFixation,jsons/VE125_randls_40_rotated.json,http://54.235.29.9/FacialAge/BNav_EC2/DepthDuration/v2_depth_duration_MTurk/v2_DepthDuration_HTML.html#222,222,1364,625,1364,768,8-29-2022,11-25-34,52,depth_duration_stimuli/002467_2014-06-28_20-38-07_260595134347_rgbf000026-resize_2/002467_2014-06-28_20-38-07_260595134347_rgbf000026-resize_2-target.png,125,4.742,11,3692,125,feet,jsons/VE125_randls_40_rotated.json,1140630,2139192,56,Man
52,523983,DepthScenes,duration_manipulation_targetAtFixation,jsons/VE125_randls_40_rotated.json,http://54.235.29.9/FacialAge/BNav_EC2/DepthDuration/v2_depth_duration_MTurk/v2_DepthDuration_HTML.html#222,222,1364,625,1364,768,8-29-2022,11-25-34,53,depth_duration_stimuli/002570_2014-06-24_13-59-54_094959634447_rgbf000059-resize_0/002570_2014-06-24_13-59-54_094959634447_rgbf000059-resize_0-target.png,125,4.037,0,3060,125,feet,jsons/VE125_randls_40_rotated.json,1140630,2139192,56,Man
53,523983,DepthScenes,duration_manipulation_targetAtFixation,jsons/VE125_randls_40_rotated.json,http://54.235.29.9/FacialAge/BNav_EC2/DepthDuration/v2_depth_duration_MTurk/v2_DepthDuration_HTML.html#222,222,1364,625,1364,768,8-29-2022,11-25-34,54,depth_duration_stimuli/000742_2014-06-08_18-48-09_260595134347_rgbf000164-resize_4/000742_2014-06-08_18-48-09_260595134347_rgbf000164-resize_4-target.png,125,4.632,10,3798,125,feet,jsons/VE125_randls_40_rotated.json,1140630,2139192,56,Man
54,523983,DepthScenes,duration_manipulation_targetAtFixation,jsons/VE125_randls_40_rotated.json,http://54.235.29.9/FacialAge/BNav_EC2/DepthDuration/v2_depth_duration_MTurk/v2_DepthDuration_HTML.html#222,222,1364,625,1364,768,8-29-2022,11-25-34,55,depth_duration_stimuli/001066_2014-06-08_22-03-20_260595134347_rgbf000066-resize_4/001066_2014-06-08_22-03-20_260595134347_rgbf000066-resize_4-target.png,125,4.2330000000000005,0,22677,125,feet,jsons/VE125_randls_40_rotated.json,1140630,2139192,56,Man
55,523983,DepthScenes,duration_manipulation_targetAtFixation,jsons/VE125_randls_40_rotated.json,http://54.235.29.9/FacialAge/BNav_EC2/DepthDuration/v2_depth_duration_MTurk/v2_DepthDuration_HTML.html#222,222,1364,625,1364,768,8-29-2022,11-25-34,56,depth_duration_stimuli/000749_2014-06-08_21-55-06_260595134347_rgbf000070-resize_2/000749_2014-06-08_21-55-06_260595134347_rgbf000070-resize_2-target.png,125,2.331,8,4114,124,feet,jsons/VE125_randls_40_rotated.json,1140630,2139192,56,Man
56,523983,DepthScenes,duration_manipulation_targetAtFixation,jsons/VE125_randls_40_rotated.json,http://54.235.29.9/FacialAge/BNav_EC2/DepthDuration/v2_depth_duration_MTurk/v2_DepthDuration_HTML.html#222,222,1364,625,1364,768,8-29-2022,11-25-34,57,depth_duration_stimuli/002788_2014-06-22_19-36-03_094959634447_rgbf000088-resize_2/002788_2014-06-22_19-36-03_094959634447_rgbf000088-resize_2-target.png,125,1.6465,8,3259,125,feet,jsons/VE125_randls_40_rotated.json,1140630,2139192,56,Man
57,523983,DepthScenes,duration_manipulation_targetAtFixation,jsons/VE125_randls_40_rotated.json,http://54.235.29.9/FacialAge/BNav_EC2/DepthDuration/v2_depth_duration_MTurk/v2_DepthDuration_HTML.html#222,222,1364,625,1364,768,8-29-2022,11-25-34,58,depth_duration_stimuli/001132_2014-06-17_14-48-54_260595134347_rgbf000100-resize_2/001132_2014-06-17_14-48-54_260595134347_rgbf000100-resize_2-target.png,125,3.753,8,3971,125,feet,jsons/VE125_randls_40_rotated.json,1140630,2139192,56,Man
58,523983,DepthScenes,duration_manipulation_targetAtFixation,jsons/VE125_randls_40_rotated.json,http://54.235.29.9/FacialAge/BNav_EC2/DepthDuration/v2_depth_duration_MTurk/v2_DepthDuration_HTML.html#222,222,1364,625,1364,768,8-29-2022,11-25-34,59,depth_duration_stimuli/001133_2014-06-17_14-49-16_260595134347_rgbf000100-resize_0/001133_2014-06-17_14-49-16_260595134347_rgbf000100-resize_0-target.png,125,4.2115,0,3325,125,feet,jsons/VE125_randls_40_rotated.json,1140630,2139192,56,Man
59,523983,DepthScenes,duration_manipulation_targetAtFixation,jsons/VE125_randls_40_rotated.json,http://54.235.29.9/FacialAge/BNav_EC2/DepthDuration/v2_depth_duration_MTurk/v2_DepthDuration_HTML.html#222,222,1364,625,1364,768,8-29-2022,11-25-34,60,depth_duration_stimuli/000137_2014-05-20_17-04-49_260595134347_rgbf000120-resize_1/000137_2014-05-20_17-04-49_260595134347_rgbf000120-resize_1-target.png,125,3.786,10,3329,125,feet,jsons/VE125_randls_40_rotated.json,1140630,2139192,56,Man
60,523983,DepthScenes,duration_manipulation_targetAtFixation,jsons/VE125_randls_40_rotated.json,http://54.235.29.9/FacialAge/BNav_EC2/DepthDuration/v2_depth_duration_MTurk/v2_DepthDuration_HTML.html#222,222,1364,625,1364,768,8-29-2022,11-25-34,61,depth_duration_stimuli/000736_2014-06-08_18-24-15_260595134347_rgbf000206-resize_3/000736_2014-06-08_18-24-15_260595134347_rgbf000206-resize_3-target.png,125,3.515,0,3145,125,feet,jsons/VE125_randls_40_rotated.json,1140630,2139192,56,Man
61,523983,DepthScenes,duration_manipulation_targetAtFixation,jsons/VE125_randls_40_rotated.json,http://54.235.29.9/FacialAge/BNav_EC2/DepthDuration/v2_depth_duration_MTurk/v2_DepthDuration_HTML.html#222,222,1364,625,1364,768,8-29-2022,11-25-34,62,depth_duration_stimuli/002678_2014-06-13_16-15-32_094959634447_rgbf000151-resize_6/002678_2014-06-13_16-15-32_094959634447_rgbf000151-resize_6-target.png,125,2.1830000000000003,10,3275,128,feet,jsons/VE125_randls_40_rotated.json,1140630,2139192,56,Man
62,523983,DepthScenes,duration_manipulation_targetAtFixation,jsons/VE125_randls_40_rotated.json,http://54.235.29.9/FacialAge/BNav_EC2/DepthDuration/v2_depth_duration_MTurk/v2_DepthDuration_HTML.html#222,222,1364,625,1364,768,8-29-2022,11-25-34,63,depth_duration_stimuli/000368_2014-06-09_15-53-01_260595134347_rgbf000155-resize_2/000368_2014-06-09_15-53-01_260595134347_rgbf000155-resize_2-target.png,125,2.4859999999999998,0,4454,123,feet,jsons/VE125_randls_40_rotated.json,1140630,2139192,56,Man
63,523983,DepthScenes,duration_manipulation_targetAtFixation,jsons/VE125_randls_40_rotated.json,http://54.235.29.9/FacialAge/BNav_EC2/DepthDuration/v2_depth_duration_MTurk/v2_DepthDuration_HTML.html#222,222,1364,625,1364,768,8-29-2022,11-25-34,64,depth_duration_stimuli/002425_2014-06-28_20-27-29_260595134347_rgbf000031-resize_8/002425_2014-06-28_20-27-29_260595134347_rgbf000031-resize_8-target.png,125,3.8960000000000004,10,3591,125,feet,jsons/VE125_randls_40_rotated.json,1140630,2139192,56,Man
64,523983,DepthScenes,duration_manipulation_targetAtFixation,jsons/VE125_randls_40_rotated.json,http://54.235.29.9/FacialAge/BNav_EC2/DepthDuration/v2_depth_duration_MTurk/v2_DepthDuration_HTML.html#222,222,1364,625,1364,768,8-29-2022,11-25-34,65,depth_duration_stimuli/000642_2014-06-08_16-59-25_260595134347_rgbf000098-resize_2/000642_2014-06-08_16-59-25_260595134347_rgbf000098-resize_2-target.png,125,2.8815,0,3165,126,feet,jsons/VE125_randls_40_rotated.json,1140630,2139192,56,Man
65,523983,DepthScenes,duration_manipulation_targetAtFixation,jsons/VE125_randls_40_rotated.json,http://54.235.29.9/FacialAge/BNav_EC2/DepthDuration/v2_depth_duration_MTurk/v2_DepthDuration_HTML.html#222,222,1364,625,1364,768,8-29-2022,11-25-34,66,depth_duration_stimuli/001540_2014-06-20_17-01-05_260595134347_rgbf000086-resize_2/001540_2014-06-20_17-01-05_260595134347_rgbf000086-resize-original.jpg,125,1.459,0,3962,125,feet,jsons/VE125_randls_40_rotated.json,1140630,2139192,56,Man
66,523983,DepthScenes,duration_manipulation_targetAtFixation,jsons/VE125_randls_40_rotated.json,http://54.235.29.9/FacialAge/BNav_EC2/DepthDuration/v2_depth_duration_MTurk/v2_DepthDuration_HTML.html#222,222,1364,625,1364,768,8-29-2022,11-25-34,67,depth_duration_stimuli/000457_2014-06-08_16-52-43_260595134347_rgbf000199-resize_1/000457_2014-06-08_16-52-43_260595134347_rgbf000199-resize_1-target.png,125,3.6489999999999996,10,3973,124,feet,jsons/VE125_randls_40_rotated.json,1140630,2139192,56,Man
67,523983,DepthScenes,duration_manipulation_targetAtFixation,jsons/VE125_randls_40_rotated.json,http://54.235.29.9/FacialAge/BNav_EC2/DepthDuration/v2_depth_duration_MTurk/v2_DepthDuration_HTML.html#222,222,1364,625,1364,768,8-29-2022,11-25-34,68,depth_duration_stimuli/000929_2014-06-09_16-33-19_260595134347_rgbf000139-resize_0/000929_2014-06-09_16-33-19_260595134347_rgbf000139-resize_0-target.png,125,2.8680000000000003,0,2956,125,feet,jsons/VE125_randls_40_rotated.json,1140630,2139192,56,Man
68,523983,DepthScenes,duration_manipulation_targetAtFixation,jsons/VE125_randls_40_rotated.json,http://54.235.29.9/FacialAge/BNav_EC2/DepthDuration/v2_depth_duration_MTurk/v2_DepthDuration_HTML.html#222,222,1364,625,1364,768,8-29-2022,11-25-34,69,depth_duration_stimuli/002136_2014-06-25_21-18-03_260595134347_rgbf000109-resize_3/002136_2014-06-25_21-18-03_260595134347_rgbf000109-resize_3-target.png,125,1.9569999999999999,5,3466,126,feet,jsons/VE125_randls_40_rotated.json,1140630,2139192,56,Man
69,523983,DepthScenes,duration_manipulation_targetAtFixation,jsons/VE125_randls_40_rotated.json,http://54.235.29.9/FacialAge/BNav_EC2/DepthDuration/v2_depth_duration_MTurk/v2_DepthDuration_HTML.html#222,222,1364,625,1364,768,8-29-2022,11-25-34,70,depth_duration_stimuli/002964_2014-06-08_17-46-11_094959634447_rgbf000091-resize_4/002964_2014-06-08_17-46-11_094959634447_rgbf000091-resize_4-target.png,125,1.6909999999999998,0,2972,124,feet,jsons/VE125_randls_40_rotated.json,1140630,2139192,56,Man
70,523983,DepthScenes,duration_manipulation_targetAtFixation,jsons/VE125_randls_40_rotated.json,http://54.235.29.9/FacialAge/BNav_EC2/DepthDuration/v2_depth_duration_MTurk/v2_DepthDuration_HTML.html#222,222,1364,625,1364,768,8-29-2022,11-25-34,71,depth_duration_stimuli/003587_2014-05-23_16-48-02_094959634447_rgbf002384-resize_2/003587_2014-05-23_16-48-02_094959634447_rgbf002384-resize_2-target.png,125,1.357,4,4688,124,feet,jsons/VE125_randls_40_rotated.json,1140630,2139192,56,Man
71,523983,DepthScenes,duration_manipulation_targetAtFixation,jsons/VE125_randls_40_rotated.json,http://54.235.29.9/FacialAge/BNav_EC2/DepthDuration/v2_depth_duration_MTurk/v2_DepthDuration_HTML.html#222,222,1364,625,1364,768,8-29-2022,11-25-34,72,depth_duration_stimuli/001167_2014-06-17_15-38-07_260595134347_rgbf000108-resize_0/001167_2014-06-17_15-38-07_260595134347_rgbf000108-resize_0-target.png,125,1.8505,0,2834,125,feet,jsons/VE125_randls_40_rotated.json,1140630,2139192,56,Man
72,523983,DepthScenes,duration_manipulation_targetAtFixation,jsons/VE125_randls_40_rotated.json,http://54.235.29.9/FacialAge/BNav_EC2/DepthDuration/v2_depth_duration_MTurk/v2_DepthDuration_HTML.html#222,222,1364,625,1364,768,8-29-2022,11-25-34,73,depth_duration_stimuli/002568_2014-06-24_13-59-21_094959634447_rgbf000062-resize_4/002568_2014-06-24_13-59-21_094959634447_rgbf000062-resize_4-target.png,125,3.015,6,2874,125,feet,jsons/VE125_randls_40_rotated.json,1140630,2139192,56,Man
73,523983,DepthScenes,duration_manipulation_targetAtFixation,jsons/VE125_randls_40_rotated.json,http://54.235.29.9/FacialAge/BNav_EC2/DepthDuration/v2_depth_duration_MTurk/v2_DepthDuration_HTML.html#222,222,1364,625,1364,768,8-29-2022,11-25-34,74,depth_duration_stimuli/003492_2014-05-21_15-50-55_094959634447_rgbf000828-resize_1/003492_2014-05-21_15-50-55_094959634447_rgbf000828-resize_1-target.png,125,4.06875,0,2518,126,feet,jsons/VE125_randls_40_rotated.json,1140630,2139192,56,Man
74,523983,DepthScenes,duration_manipulation_targetAtFixation,jsons/VE125_randls_40_rotated.json,http://54.235.29.9/FacialAge/BNav_EC2/DepthDuration/v2_depth_duration_MTurk/v2_DepthDuration_HTML.html#222,222,1364,625,1364,768,8-29-2022,11-25-34,75,depth_duration_stimuli/001032_2014-06-08_13-23-17_260595134347_rgbf000021-resize_3/001032_2014-06-08_13-23-17_260595134347_rgbf000021-resize_3-target.png,125,3.2725,6,3897,125,feet,jsons/VE125_randls_40_rotated.json,1140630,2139192,56,Man
75,523983,DepthScenes,duration_manipulation_targetAtFixation,jsons/VE125_randls_40_rotated.json,http://54.235.29.9/FacialAge/BNav_EC2/DepthDuration/v2_depth_duration_MTurk/v2_DepthDuration_HTML.html#222,222,1364,625,1364,768,8-29-2022,11-25-34,76,depth_duration_stimuli/001059_2014-06-08_21-53-27_260595134347_rgbf000061-resize_4/001059_2014-06-08_21-53-27_260595134347_rgbf000061-resize_4-target.png,125,2.4185,0,3134,125,feet,jsons/VE125_randls_40_rotated.json,1140630,2139192,56,Man
76,523983,DepthScenes,duration_manipulation_targetAtFixation,jsons/VE125_randls_40_rotated.json,http://54.235.29.9/FacialAge/BNav_EC2/DepthDuration/v2_depth_duration_MTurk/v2_DepthDuration_HTML.html#222,222,1364,625,1364,768,8-29-2022,11-25-34,77,depth_duration_stimuli/002340_2014-06-28_20-05-46_260595134347_rgbf000113-resize_0/002340_2014-06-28_20-05-46_260595134347_rgbf000113-resize_0-target.png,125,2.4735,8,4770,125,feet,jsons/VE125_randls_40_rotated.json,1140630,2139192,56,Man
77,523983,DepthScenes,duration_manipulation_targetAtFixation,jsons/VE125_randls_40_rotated.json,http://54.235.29.9/FacialAge/BNav_EC2/DepthDuration/v2_depth_duration_MTurk/v2_DepthDuration_HTML.html#222,222,1364,625,1364,768,8-29-2022,11-25-34,78,depth_duration_stimuli/001016_2014-06-09_16-16-10_260595134347_rgbf000112-resize_5/001016_2014-06-09_16-16-10_260595134347_rgbf000112-resize_5-target.png,125,1.6565,0,134191,125,feet,jsons/VE125_randls_40_rotated.json,1140630,2139192,56,Man
78,523983,DepthScenes,duration_manipulation_targetAtFixation,jsons/VE125_randls_40_rotated.json,http://54.235.29.9/FacialAge/BNav_EC2/DepthDuration/v2_depth_duration_MTurk/v2_DepthDuration_HTML.html#222,222,1364,625,1364,768,8-29-2022,11-25-34,79,depth_duration_stimuli/003010_2014-06-15_12-54-35_094959634447_rgbf000112-resize_0/003010_2014-06-15_12-54-35_094959634447_rgbf000112-resize_0-target.png,125,3.1185,8,15018,124,feet,jsons/VE125_randls_40_rotated.json,1140630,2139192,56,Man
79,523983,DepthScenes,duration_manipulation_targetAtFixation,jsons/VE125_randls_40_rotated.json,http://54.235.29.9/FacialAge/BNav_EC2/DepthDuration/v2_depth_duration_MTurk/v2_DepthDuration_HTML.html#222,222,1364,625,1364,768,8-29-2022,11-25-34,80,depth_duration_stimuli/001810_2014-06-26_20-51-35_260595134347_rgbf000040-resize_3/001810_2014-06-26_20-51-35_260595134347_rgbf000040-resize_3-target.png,125,2.2525,0,3904,125,feet,jsons/VE125_randls_40_rotated.json,1140630,2139192,56,Man
80,523983,DepthScenes,duration_manipulation_targetAtFixation,jsons/VE125_randls_40_rotated.json,http://54.235.29.9/FacialAge/BNav_EC2/DepthDuration/v2_depth_duration_MTurk/v2_DepthDuration_HTML.html#222,222,1364,625,1364,768,8-29-2022,11-25-34,81,depth_duration_stimuli/000734_2014-06-08_17-39-11_260595134347_rgbf000128-resize_2/000734_2014-06-08_17-39-11_260595134347_rgbf000128-resize_2-target.png,125,4.098,8,3549,126,feet,jsons/VE125_randls_40_rotated.json,1140630,2139192,56,Man
81,523983,DepthScenes,duration_manipulation_targetAtFixation,jsons/VE125_randls_40_rotated.json,http://54.235.29.9/FacialAge/BNav_EC2/DepthDuration/v2_depth_duration_MTurk/v2_DepthDuration_HTML.html#222,222,1364,625,1364,768,8-29-2022,11-25-34,82,depth_duration_stimuli/000739_2014-06-08_18-45-58_260595134347_rgbf000068-resize_1/000739_2014-06-08_18-45-58_260595134347_rgbf000068-resize_1-target.png,125,3.534,0,2635,125,feet,jsons/VE125_randls_40_rotated.json,1140630,2139192,56,Man
82,523983,DepthScenes,duration_manipulation_targetAtFixation,jsons/VE125_randls_40_rotated.json,http://54.235.29.9/FacialAge/BNav_EC2/DepthDuration/v2_depth_duration_MTurk/v2_DepthDuration_HTML.html#222,222,1364,625,1364,768,8-29-2022,11-25-34,83,depth_duration_stimuli/001235_2014-06-17_16-37-36_260595134347_rgbf000084-resize_4/001235_2014-06-17_16-37-36_260595134347_rgbf000084-resize_4-target.png,125,3.6605,8,3056,125,feet,jsons/VE125_randls_40_rotated.json,1140630,2139192,56,Man
83,523983,DepthScenes,duration_manipulation_targetAtFixation,jsons/VE125_randls_40_rotated.json,http://54.235.29.9/FacialAge/BNav_EC2/DepthDuration/v2_depth_duration_MTurk/v2_DepthDuration_HTML.html#222,222,1364,625,1364,768,8-29-2022,11-25-34,84,depth_duration_stimuli/000788_2014-06-08_22-34-36_260595134347_rgbf000131-resize_1/000788_2014-06-08_22-34-36_260595134347_rgbf000131-resize_1-target.png,125,3.359,0,2804,125,feet,jsons/VE125_randls_40_rotated.json,1140630,2139192,56,Man
84,523983,DepthScenes,duration_manipulation_targetAtFixation,jsons/VE125_randls_40_rotated.json,http://54.235.29.9/FacialAge/BNav_EC2/DepthDuration/v2_depth_duration_MTurk/v2_DepthDuration_HTML.html#222,222,1364,625,1364,768,8-29-2022,11-25-34,85,depth_duration_stimuli/000549_2014-06-08_22-10-24_260595134347_rgbf000247-resize_3/000549_2014-06-08_22-10-24_260595134347_rgbf000247-resize_3-target.png,125,1.841,4,3882,125,feet,jsons/VE125_randls_40_rotated.json,1140630,2139192,56,Man
85,523983,DepthScenes,duration_manipulation_targetAtFixation,jsons/VE125_randls_40_rotated.json,http://54.235.29.9/FacialAge/BNav_EC2/DepthDuration/v2_depth_duration_MTurk/v2_DepthDuration_HTML.html#222,222,1364,625,1364,768,8-29-2022,11-25-34,86,depth_duration_stimuli/001055_2014-06-08_18-45-35_260595134347_rgbf000111-resize_4/001055_2014-06-08_18-45-35_260595134347_rgbf000111-resize_4-target.png,125,2.4290000000000003,0,2901,124,feet,jsons/VE125_randls_40_rotated.json,1140630,2139192,56,Man
86,523983,DepthScenes,duration_manipulation_targetAtFixation,jsons/VE125_randls_40_rotated.json,http://54.235.29.9/FacialAge/BNav_EC2/DepthDuration/v2_depth_duration_MTurk/v2_DepthDuration_HTML.html#222,222,1364,625,1364,768,8-29-2022,11-25-34,87,depth_duration_stimuli/003228_2014-05-14_13-42-35_094959634447_rgbf000101-resize_1/003228_2014-05-14_13-42-35_094959634447_rgbf000101-resize_1-target.png,125,1.9680000000000002,3,4431,125,feet,jsons/VE125_randls_40_rotated.json,1140630,2139192,56,Man
87,523983,DepthScenes,duration_manipulation_targetAtFixation,jsons/VE125_randls_40_rotated.json,http://54.235.29.9/FacialAge/BNav_EC2/DepthDuration/v2_depth_duration_MTurk/v2_DepthDuration_HTML.html#222,222,1364,625,1364,768,8-29-2022,11-25-34,88,depth_duration_stimuli/002600_2014-06-24_14-27-04_094959634447_rgbf000074-resize_2/002600_2014-06-24_14-27-04_094959634447_rgbf000074-resize_2-target.png,125,2.7575,0,4340,124,feet,jsons/VE125_randls_40_rotated.json,1140630,2139192,56,Man
88,523983,DepthScenes,duration_manipulation_targetAtFixation,jsons/VE125_randls_40_rotated.json,http://54.235.29.9/FacialAge/BNav_EC2/DepthDuration/v2_depth_duration_MTurk/v2_DepthDuration_HTML.html#222,222,1364,625,1364,768,8-29-2022,11-25-34,89,depth_duration_stimuli/001052_2014-06-08_18-24-54_260595134347_rgbf000130-resize_1/001052_2014-06-08_18-24-54_260595134347_rgbf000130-resize_1-target.png,125,4.1045,0,9660,123,feet,jsons/VE125_randls_40_rotated.json,1140630,2139192,56,Man
89,523983,DepthScenes,duration_manipulation_targetAtFixation,jsons/VE125_randls_40_rotated.json,http://54.235.29.9/FacialAge/BNav_EC2/DepthDuration/v2_depth_duration_MTurk/v2_DepthDuration_HTML.html#222,222,1364,625,1364,768,8-29-2022,11-25-34,90,depth_duration_stimuli/002988_2014-06-15_12-24-20_094959634447_rgbf000150-resize_1/002988_2014-06-15_12-24-20_094959634447_rgbf000150-resize_1-target.png,125,4.7669999999999995,3,4833,124,feet,jsons/VE125_randls_40_rotated.json,1140630,2139192,56,Man
90,523983,DepthScenes,duration_manipulation_targetAtFixation,jsons/VE125_randls_40_rotated.json,http://54.235.29.9/FacialAge/BNav_EC2/DepthDuration/v2_depth_duration_MTurk/v2_DepthDuration_HTML.html#222,222,1364,625,1364,768,8-29-2022,11-25-34,91,depth_duration_stimuli/001214_2014-06-17_16-13-55_260595134347_rgbf000111-resize_0/001214_2014-06-17_16-13-55_260595134347_rgbf000111-resize_0-target.png,125,2.6505,6,3473,125,feet,jsons/VE125_randls_40_rotated.json,1140630,2139192,56,Man
91,523983,DepthScenes,duration_manipulation_targetAtFixation,jsons/VE125_randls_40_rotated.json,http://54.235.29.9/FacialAge/BNav_EC2/DepthDuration/v2_depth_duration_MTurk/v2_DepthDuration_HTML.html#222,222,1364,625,1364,768,8-29-2022,11-25-34,92,depth_duration_stimuli/000810_2014-06-08_17-20-01_260595134347_rgbf000105-resize_0/000810_2014-06-08_17-20-01_260595134347_rgbf000105-resize_0-target.png,125,1.4865,0,33106,124,feet,jsons/VE125_randls_40_rotated.json,1140630,2139192,56,Man
92,523983,DepthScenes,duration_manipulation_targetAtFixation,jsons/VE125_randls_40_rotated.json,http://54.235.29.9/FacialAge/BNav_EC2/DepthDuration/v2_depth_duration_MTurk/v2_DepthDuration_HTML.html#222,222,1364,625,1364,768,8-29-2022,11-25-34,93,depth_duration_stimuli/002758_2014-06-22_19-11-20_094959634447_rgbf000128-resize_1/002758_2014-06-22_19-11-20_094959634447_rgbf000128-resize_1-target.png,125,2.555,5,119911,125,feet,jsons/VE125_randls_40_rotated.json,1140630,2139192,56,Man
93,523983,DepthScenes,duration_manipulation_targetAtFixation,jsons/VE125_randls_40_rotated.json,http://54.235.29.9/FacialAge/BNav_EC2/DepthDuration/v2_depth_duration_MTurk/v2_DepthDuration_HTML.html#222,222,1364,625,1364,768,8-29-2022,11-25-34,94,depth_duration_stimuli/002630_2014-06-24_14-47-50_094959634447_rgbf000055-resize_1/002630_2014-06-24_14-47-50_094959634447_rgbf000055-resize_1-target.png,125,3.0095,0,4085,126,feet,jsons/VE125_randls_40_rotated.json,1140630,2139192,56,Man
94,523983,DepthScenes,duration_manipulation_targetAtFixation,jsons/VE125_randls_40_rotated.json,http://54.235.29.9/FacialAge/BNav_EC2/DepthDuration/v2_depth_duration_MTurk/v2_DepthDuration_HTML.html#222,222,1364,625,1364,768,8-29-2022,11-25-34,95,depth_duration_stimuli/000665_2014-06-09_20-42-35_260595134347_rgbf000110-resize_1/000665_2014-06-09_20-42-35_260595134347_rgbf000110-resize_1-target.png,125,3.057,9,5966,127,feet,jsons/VE125_randls_40_rotated.json,1140630,2139192,56,Man
95,523983,DepthScenes,duration_manipulation_targetAtFixation,jsons/VE125_randls_40_rotated.json,http://54.235.29.9/FacialAge/BNav_EC2/DepthDuration/v2_depth_duration_MTurk/v2_DepthDuration_HTML.html#222,222,1364,625,1364,768,8-29-2022,11-25-34,96,depth_duration_stimuli/001150_2014-06-17_15-27-34_260595134347_rgbf000108-resize_2/001150_2014-06-17_15-27-34_260595134347_rgbf000108-resize_2-target.png,125,4.0325,11,4569,126,feet,jsons/VE125_randls_40_rotated.json,1140630,2139192,56,Man
96,523983,DepthScenes,duration_manipulation_targetAtFixation,jsons/VE125_randls_40_rotated.json,http://54.235.29.9/FacialAge/BNav_EC2/DepthDuration/v2_depth_duration_MTurk/v2_DepthDuration_HTML.html#222,222,1364,625,1364,768,8-29-2022,11-25-34,97,depth_duration_stimuli/000635_2014-06-08_16-38-42_260595134347_rgbf000106-resize_1/000635_2014-06-08_16-38-42_260595134347_rgbf000106-resize_1-target.png,125,2.074,10,5037,125,feet,jsons/VE125_randls_40_rotated.json,1140630,2139192,56,Man
97,523983,DepthScenes,duration_manipulation_targetAtFixation,jsons/VE125_randls_40_rotated.json,http://54.235.29.9/FacialAge/BNav_EC2/DepthDuration/v2_depth_duration_MTurk/v2_DepthDuration_HTML.html#222,222,1364,625,1364,768,8-29-2022,11-25-34,98,depth_duration_stimuli/002279_2014-06-28_18-55-32_260595134347_rgbf000040-resize_5/002279_2014-06-28_18-55-32_260595134347_rgbf000040-resize_5-target.png,125,1.5043333333333,5,4017,125,feet,jsons/VE125_randls_40_rotated.json,1140630,2139192,56,Man
98,523983,DepthScenes,duration_manipulation_targetAtFixation,jsons/VE125_randls_40_rotated.json,http://54.235.29.9/FacialAge/BNav_EC2/DepthDuration/v2_depth_duration_MTurk/v2_DepthDuration_HTML.html#222,222,1364,625,1364,768,8-29-2022,11-25-34,99,depth_duration_stimuli/001222_2014-06-17_16-24-06_260595134347_rgbf000073-resize_0/001222_2014-06-17_16-24-06_260595134347_rgbf000073-resize-original.jpg,125,1.4385,0,4452,125,feet,jsons/VE125_randls_40_rotated.json,1140630,2139192,56,Man
99,523983,DepthScenes,duration_manipulation_targetAtFixation,jsons/VE125_randls_40_rotated.json,http://54.235.29.9/FacialAge/BNav_EC2/DepthDuration/v2_depth_duration_MTurk/v2_DepthDuration_HTML.html#222,222,1364,625,1364,768,8-29-2022,11-25-34,100,depth_duration_stimuli/001392_2014-06-19_16-07-59_260595134347_rgbf000046-resize_1/001392_2014-06-19_16-07-59_260595134347_rgbf000046-resize_1-target.png,125,4.135,12,5123,124,feet,jsons/VE125_randls_40_rotated.json,1140630,2139192,56,Man
100,523983,DepthScenes,duration_manipulation_targetAtFixation,jsons/VE125_randls_40_rotated.json,http://54.235.29.9/FacialAge/BNav_EC2/DepthDuration/v2_depth_duration_MTurk/v2_DepthDuration_HTML.html#222,222,1364,625,1364,768,8-29-2022,11-25-34,101,depth_duration_stimuli/001570_2014-06-20_17-21-09_260595134347_rgbf000135-resize_4/001570_2014-06-20_17-21-09_260595134347_rgbf000135-resize_4-target.png,125,4.467,14,4465,125,feet,jsons/VE125_randls_40_rotated.json,1140630,2139192,56,Man
101,523983,DepthScenes,duration_manipulation_targetAtFixation,jsons/VE125_randls_40_rotated.json,http://54.235.29.9/FacialAge/BNav_EC2/DepthDuration/v2_depth_duration_MTurk/v2_DepthDuration_HTML.html#222,222,1364,625,1364,768,8-29-2022,11-25-34,102,depth_duration_stimuli/001650_2014-06-20_12-09-00_260595134347_rgbf000087-resize_3/001650_2014-06-20_12-09-00_260595134347_rgbf000087-resize_3-target.png,125,1.9505,3,4195,124,feet,jsons/VE125_randls_40_rotated.json,1140630,2139192,56,Man
102,523983,DepthScenes,duration_manipulation_targetAtFixation,jsons/VE125_randls_40_rotated.json,http://54.235.29.9/FacialAge/BNav_EC2/DepthDuration/v2_depth_duration_MTurk/v2_DepthDuration_HTML.html#222,222,1364,625,1364,768,8-29-2022,11-25-34,103,depth_duration_stimuli/000682_2014-06-08_23-14-58_260595134347_rgbf000041-resize_5/000682_2014-06-08_23-14-58_260595134347_rgbf000041-resize_5-target.png,125,2.7239999999999998,6,3330,125,feet,jsons/VE125_randls_40_rotated.json,1140630,2139192,56,Man
103,523983,DepthScenes,duration_manipulation_targetAtFixation,jsons/VE125_randls_40_rotated.json,http://54.235.29.9/FacialAge/BNav_EC2/DepthDuration/v2_depth_duration_MTurk/v2_DepthDuration_HTML.html#222,222,1364,625,1364,768,8-29-2022,11-25-34,104,depth_duration_stimuli/002209_2014-06-28_18-36-10_260595134347_rgbf000051-resize_1/002209_2014-06-28_18-36-10_260595134347_rgbf000051-resize_1-target.png,125,2.057,7,4106,124,feet,jsons/VE125_randls_40_rotated.json,1140630,2139192,56,Man
104,523983,DepthScenes,duration_manipulation_targetAtFixation,jsons/VE125_randls_40_rotated.json,http://54.235.29.9/FacialAge/BNav_EC2/DepthDuration/v2_depth_duration_MTurk/v2_DepthDuration_HTML.html#222,222,1364,625,1364,768,8-29-2022,11-25-34,105,depth_duration_stimuli/002763_2014-06-22_19-13-10_094959634447_rgbf000075-resize_4/002763_2014-06-22_19-13-10_094959634447_rgbf000075-resize_4-target.png,125,1.68375,6,4345,123,feet,jsons/VE125_randls_40_rotated.json,1140630,2139192,56,Man
105,523983,DepthScenes,duration_manipulation_targetAtFixation,jsons/VE125_randls_40_rotated.json,http://54.235.29.9/FacialAge/BNav_EC2/DepthDuration/v2_depth_duration_MTurk/v2_DepthDuration_HTML.html#222,222,1364,625,1364,768,8-29-2022,11-25-34,106,depth_duration_stimuli/001571_2014-06-20_17-21-32_260595134347_rgbf000089-resize_1/001571_2014-06-20_17-21-32_260595134347_rgbf000089-resize_1-target.png,125,1.86,6,4698,125,feet,jsons/VE125_randls_40_rotated.json,1140630,2139192,56,Man
106,523983,DepthScenes,duration_manipulation_targetAtFixation,jsons/VE125_randls_40_rotated.json,http://54.235.29.9/FacialAge/BNav_EC2/DepthDuration/v2_depth_duration_MTurk/v2_DepthDuration_HTML.html#222,222,1364,625,1364,768,8-29-2022,11-25-34,107,depth_duration_stimuli/002272_2014-06-28_18-53-56_260595134347_rgbf000067-resize_2/002272_2014-06-28_18-53-56_260595134347_rgbf000067-resize_2-target.png,125,1.138,5,3524,125,feet,jsons/VE125_randls_40_rotated.json,1140630,2139192,56,Man
107,523983,DepthScenes,duration_manipulation_targetAtFixation,jsons/VE125_randls_40_rotated.json,http://54.235.29.9/FacialAge/BNav_EC2/DepthDuration/v2_depth_duration_MTurk/v2_DepthDuration_HTML.html#222,222,1364,625,1364,768,8-29-2022,11-25-34,108,depth_duration_stimuli/003048_2014-06-15_13-49-43_094959634447_rgbf000150-resize_1/003048_2014-06-15_13-49-43_094959634447_rgbf000150-resize_1-target.png,125,4.0035,12,4330,125,feet,jsons/VE125_randls_40_rotated.json,1140630,2139192,56,Man
108,523983,DepthScenes,duration_manipulation_targetAtFixation,jsons/VE125_randls_40_rotated.json,http://54.235.29.9/FacialAge/BNav_EC2/DepthDuration/v2_depth_duration_MTurk/v2_DepthDuration_HTML.html#222,222,1364,625,1364,768,8-29-2022,11-25-34,109,depth_duration_stimuli/002043_2014-06-24_20-29-38_260595134347_rgbf000039-resize_4/002043_2014-06-24_20-29-38_260595134347_rgbf000039-resize_4-target.png,125,2.8435,8,3510,125,feet,jsons/VE125_randls_40_rotated.json,1140630,2139192,56,Man
109,523983,DepthScenes,duration_manipulation_targetAtFixation,jsons/VE125_randls_40_rotated.json,http://54.235.29.9/FacialAge/BNav_EC2/DepthDuration/v2_depth_duration_MTurk/v2_DepthDuration_HTML.html#222,222,1364,625,1364,768,8-29-2022,11-25-34,110,depth_duration_stimuli/003129_2014-05-12_10-48-10_094959634447_rgbf000100-resize_0/003129_2014-05-12_10-48-10_094959634447_rgbf000100-resize_0-target.png,125,4.9305,11,4488,124,feet,jsons/VE125_randls_40_rotated.json,1140630,2139192,56,Man
110,523983,DepthScenes,duration_manipulation_targetAtFixation,jsons/VE125_randls_40_rotated.json,http://54.235.29.9/FacialAge/BNav_EC2/DepthDuration/v2_depth_duration_MTurk/v2_DepthDuration_HTML.html#222,222,1364,625,1364,768,8-29-2022,11-25-34,111,depth_duration_stimuli/000414_2014-06-04_19-49-13_260595134347_rgbf000044-resize_0/000414_2014-06-04_19-49-13_260595134347_rgbf000044-resize_0-target.png,125,4.329,0,3007,125,feet,jsons/VE125_randls_40_rotated.json,1140630,2139192,56,Man
111,523983,DepthScenes,duration_manipulation_targetAtFixation,jsons/VE125_randls_40_rotated.json,http://54.235.29.9/FacialAge/BNav_EC2/DepthDuration/v2_depth_duration_MTurk/v2_DepthDuration_HTML.html#222,222,1364,625,1364,768,8-29-2022,11-25-34,112,depth_duration_stimuli/002344_2014-06-28_20-06-29_260595134347_rgbf000030-resize_1/002344_2014-06-28_20-06-29_260595134347_rgbf000030-resize_1-target.png,125,1.5795,5,3667,124,feet,jsons/VE125_randls_40_rotated.json,1140630,2139192,56,Man
112,523983,DepthScenes,duration_manipulation_targetAtFixation,jsons/VE125_randls_40_rotated.json,http://54.235.29.9/FacialAge/BNav_EC2/DepthDuration/v2_depth_duration_MTurk/v2_DepthDuration_HTML.html#222,222,1364,625,1364,768,8-29-2022,11-25-34,113,depth_duration_stimuli/002725_2014-06-22_11-47-51_094959634447_rgbf000070-resize_1/002725_2014-06-22_11-47-51_094959634447_rgbf000070-resize_1-target.png,125,2.195,0,2962,124,feet,jsons/VE125_randls_40_rotated.json,1140630,2139192,56,Man
113,523983,DepthScenes,duration_manipulation_targetAtFixation,jsons/VE125_randls_40_rotated.json,http://54.235.29.9/FacialAge/BNav_EC2/DepthDuration/v2_depth_duration_MTurk/v2_DepthDuration_HTML.html#222,222,1364,625,1364,768,8-29-2022,11-25-34,114,depth_duration_stimuli/000556_2014-06-09_22-42-56_260595134347_rgbf000214-resize_1/000556_2014-06-09_22-42-56_260595134347_rgbf000214-resize_1-target.png,125,4.8415,8,3993,125,feet,jsons/VE125_randls_40_rotated.json,1140630,2139192,56,Man
114,523983,DepthScenes,duration_manipulation_targetAtFixation,jsons/VE125_randls_40_rotated.json,http://54.235.29.9/FacialAge/BNav_EC2/DepthDuration/v2_depth_duration_MTurk/v2_DepthDuration_HTML.html#222,222,1364,625,1364,768,8-29-2022,11-25-34,115,depth_duration_stimuli/001158_2014-06-17_15-32-16_260595134347_rgbf000138-resize_2/001158_2014-06-17_15-32-16_260595134347_rgbf000138-resize_2-target.png,125,4.5315,6,3535,124,feet,jsons/VE125_randls_40_rotated.json,1140630,2139192,56,Man
115,523983,DepthScenes,duration_manipulation_targetAtFixation,jsons/VE125_randls_40_rotated.json,http://54.235.29.9/FacialAge/BNav_EC2/DepthDuration/v2_depth_duration_MTurk/v2_DepthDuration_HTML.html#222,222,1364,625,1364,768,8-29-2022,11-25-34,116,depth_duration_stimuli/000103_2014-05-14_22-01-17_260595134347_rgbf000152-resize_5/000103_2014-05-14_22-01-17_260595134347_rgbf000152-resize_5-target.png,125,1.993,10,4092,125,feet,jsons/VE125_randls_40_rotated.json,1140630,2139192,56,Man
116,523983,DepthScenes,duration_manipulation_targetAtFixation,jsons/VE125_randls_40_rotated.json,http://54.235.29.9/FacialAge/BNav_EC2/DepthDuration/v2_depth_duration_MTurk/v2_DepthDuration_HTML.html#222,222,1364,625,1364,768,8-29-2022,11-25-34,117,depth_duration_stimuli/001555_2014-06-20_17-12-10_260595134347_rgbf000065-resize_4/001555_2014-06-20_17-12-10_260595134347_rgbf000065-resize_4-target.png,125,1.633,0,3698,125,feet,jsons/VE125_randls_40_rotated.json,1140630,2139192,56,Man
117,523983,DepthScenes,duration_manipulation_targetAtFixation,jsons/VE125_randls_40_rotated.json,http://54.235.29.9/FacialAge/BNav_EC2/DepthDuration/v2_depth_duration_MTurk/v2_DepthDuration_HTML.html#222,222,1364,625,1364,768,8-29-2022,11-25-34,118,depth_duration_stimuli/001136_2014-06-17_15-19-41_260595134347_rgbf000076-resize_3/001136_2014-06-17_15-19-41_260595134347_rgbf000076-resize_3-target.png,125,1.8655,7,5450,125,feet,jsons/VE125_randls_40_rotated.json,1140630,2139192,56,Man
118,523983,DepthScenes,duration_manipulation_targetAtFixation,jsons/VE125_randls_40_rotated.json,http://54.235.29.9/FacialAge/BNav_EC2/DepthDuration/v2_depth_duration_MTurk/v2_DepthDuration_HTML.html#222,222,1364,625,1364,768,8-29-2022,11-25-34,119,depth_duration_stimuli/001164_2014-06-17_15-35-46_260595134347_rgbf000085-resize_3/001164_2014-06-17_15-35-46_260595134347_rgbf000085-resize_3-target.png,125,2.354,0,3254,126,feet,jsons/VE125_randls_40_rotated.json,1140630,2139192,56,Man
119,523983,DepthScenes,duration_manipulation_targetAtFixation,jsons/VE125_randls_40_rotated.json,http://54.235.29.9/FacialAge/BNav_EC2/DepthDuration/v2_depth_duration_MTurk/v2_DepthDuration_HTML.html#222,222,1364,625,1364,768,8-29-2022,11-25-34,120,depth_duration_stimuli/000787_2014-06-08_22-33-53_260595134347_rgbf000175-resize_1/000787_2014-06-08_22-33-53_260595134347_rgbf000175-resize-original.jpg,125,4.784,0,3432,125,feet,jsons/VE125_randls_40_rotated.json,1140630,2139192,56,Man
120,523983,DepthScenes,duration_manipulation_targetAtFixation,jsons/VE125_randls_40_rotated.json,http://54.235.29.9/FacialAge/BNav_EC2/DepthDuration/v2_depth_duration_MTurk/v2_DepthDuration_HTML.html#222,222,1364,625,1364,768,8-29-2022,11-25-34,121,depth_duration_stimuli/001447_2014-06-19_17-00-32_260595134347_rgbf000082-resize_5/001447_2014-06-19_17-00-32_260595134347_rgbf000082-resize_5-target.png,125,4.13775,8,3827,125,feet,jsons/VE125_randls_40_rotated.json,1140630,2139192,56,Man
121,523983,DepthScenes,duration_manipulation_targetAtFixation,jsons/VE125_randls_40_rotated.json,http://54.235.29.9/FacialAge/BNav_EC2/DepthDuration/v2_depth_duration_MTurk/v2_DepthDuration_HTML.html#222,222,1364,625,1364,768,8-29-2022,11-25-34,122,depth_duration_stimuli/000447_2014-06-08_16-15-46_260595134347_rgbf000130-resize_1/000447_2014-06-08_16-15-46_260595134347_rgbf000130-resize_1-target.png,125,4.479,6,2977,125,feet,jsons/VE125_randls_40_rotated.json,1140630,2139192,56,Man
122,523983,DepthScenes,duration_manipulation_targetAtFixation,jsons/VE125_randls_40_rotated.json,http://54.235.29.9/FacialAge/BNav_EC2/DepthDuration/v2_depth_duration_MTurk/v2_DepthDuration_HTML.html#222,222,1364,625,1364,768,8-29-2022,11-25-34,123,depth_duration_stimuli/001815_2014-06-26_20-52-55_260595134347_rgbf000020-resize_0/001815_2014-06-26_20-52-55_260595134347_rgbf000020-resize_0-target.png,125,3.3865,10,5358,125,feet,jsons/VE125_randls_40_rotated.json,1140630,2139192,56,Man
123,523983,DepthScenes,duration_manipulation_targetAtFixation,jsons/VE125_randls_40_rotated.json,http://54.235.29.9/FacialAge/BNav_EC2/DepthDuration/v2_depth_duration_MTurk/v2_DepthDuration_HTML.html#222,222,1364,625,1364,768,8-29-2022,11-25-34,124,depth_duration_stimuli/001808_2014-06-26_20-50-58_260595134347_rgbf000029-resize_1/001808_2014-06-26_20-50-58_260595134347_rgbf000029-resize_1-target.png,125,4.249,10,3386,126,feet,jsons/VE125_randls_40_rotated.json,1140630,2139192,56,Man
124,523983,DepthScenes,duration_manipulation_targetAtFixation,jsons/VE125_randls_40_rotated.json,http://54.235.29.9/FacialAge/BNav_EC2/DepthDuration/v2_depth_duration_MTurk/v2_DepthDuration_HTML.html#222,222,1364,625,1364,768,8-29-2022,11-25-34,125,depth_duration_stimuli/000866_2014-06-09_20-45-42_260595134347_rgbf000139-resize_1/000866_2014-06-09_20-45-42_260595134347_rgbf000139-resize_1-target.png,125,3.2155,10,4600,120,feet,jsons/VE125_randls_40_rotated.json,1140630,2139192,56,Man
125,523983,DepthScenes,duration_manipulation_targetAtFixation,jsons/VE125_randls_40_rotated.json,http://54.235.29.9/FacialAge/BNav_EC2/DepthDuration/v2_depth_duration_MTurk/v2_DepthDuration_HTML.html#222,222,1364,625,1364,768,8-29-2022,11-25-34,126,depth_duration_stimuli/002989_2014-06-15_12-25-03_094959634447_rgbf000150-resize_3/002989_2014-06-15_12-25-03_094959634447_rgbf000150-resize_3-target.png,125,4.1975,12,3460,126,feet,jsons/VE125_randls_40_rotated.json,1140630,2139192,56,Man
126,523983,DepthScenes,duration_manipulation_targetAtFixation,jsons/VE125_randls_40_rotated.json,http://54.235.29.9/FacialAge/BNav_EC2/DepthDuration/v2_depth_duration_MTurk/v2_DepthDuration_HTML.html#222,222,1364,625,1364,768,8-29-2022,11-25-34,127,depth_duration_stimuli/003490_2014-05-21_15-50-11_094959634447_rgbf000101-resize_3/003490_2014-05-21_15-50-11_094959634447_rgbf000101-resize_3-target.png,125,3.6445,12,5078,125,feet,jsons/VE125_randls_40_rotated.json,1140630,2139192,56,Man
127,523983,DepthScenes,duration_manipulation_targetAtFixation,jsons/VE125_randls_40_rotated.json,http://54.235.29.9/FacialAge/BNav_EC2/DepthDuration/v2_depth_duration_MTurk/v2_DepthDuration_HTML.html#222,222,1364,625,1364,768,8-29-2022,11-25-34,128,depth_duration_stimuli/001175_2014-06-17_15-45-55_260595134347_rgbf000129-resize_4/001175_2014-06-17_15-45-55_260595134347_rgbf000129-resize_4-target.png,125,4.255,14,3633,127,feet,jsons/VE125_randls_40_rotated.json,1140630,2139192,56,Man
128,523983,DepthScenes,duration_manipulation_targetAtFixation,jsons/VE125_randls_40_rotated.json,http://54.235.29.9/FacialAge/BNav_EC2/DepthDuration/v2_depth_duration_MTurk/v2_DepthDuration_HTML.html#222,222,1364,625,1364,768,8-29-2022,11-25-34,129,depth_duration_stimuli/001516_2014-06-20_16-25-09_260595134347_rgbf000076-resize_2/001516_2014-06-20_16-25-09_260595134347_rgbf000076-resize_2-target.png,125,1.7445,7,4530,126,feet,jsons/VE125_randls_40_rotated.json,1140630,2139192,56,Man
129,523983,DepthScenes,duration_manipulation_targetAtFixation,jsons/VE125_randls_40_rotated.json,http://54.235.29.9/FacialAge/BNav_EC2/DepthDuration/v2_depth_duration_MTurk/v2_DepthDuration_HTML.html#222,222,1364,625,1364,768,8-29-2022,11-25-34,130,depth_duration_stimuli/002118_2014-06-25_20-32-08_260595134347_rgbf000078-resize_1/002118_2014-06-25_20-32-08_260595134347_rgbf000078-resize_1-target.png,125,2.6460000000000004,4,32131,124,feet,jsons/VE125_randls_40_rotated.json,1140630,2139192,56,Man
130,523983,DepthScenes,duration_manipulation_targetAtFixation,jsons/VE125_randls_40_rotated.json,http://54.235.29.9/FacialAge/BNav_EC2/DepthDuration/v2_depth_duration_MTurk/v2_DepthDuration_HTML.html#222,222,1364,625,1364,768,8-29-2022,11-25-34,131,depth_duration_stimuli/000677_2014-06-08_23-10-32_260595134347_rgbf000158-resize_6/000677_2014-06-08_23-10-32_260595134347_rgbf000158-resize_6-target.png,125,3.556,8,5478,124,feet,jsons/VE125_randls_40_rotated.json,1140630,2139192,56,Man
131,523983,DepthScenes,duration_manipulation_targetAtFixation,jsons/VE125_randls_40_rotated.json,http://54.235.29.9/FacialAge/BNav_EC2/DepthDuration/v2_depth_duration_MTurk/v2_DepthDuration_HTML.html#222,222,1364,625,1364,768,8-29-2022,11-25-34,132,depth_duration_stimuli/001029_2014-06-08_13-17-57_260595134347_rgbf000065-resize_1/001029_2014-06-08_13-17-57_260595134347_rgbf000065-resize_1-target.png,125,3.0835,8,17311,124,feet,jsons/VE125_randls_40_rotated.json,1140630,2139192,56,Man
132,523983,DepthScenes,duration_manipulation_targetAtFixation,jsons/VE125_randls_40_rotated.json,http://54.235.29.9/FacialAge/BNav_EC2/DepthDuration/v2_depth_duration_MTurk/v2_DepthDuration_HTML.html#222,222,1364,625,1364,768,8-29-2022,11-25-34,133,depth_duration_stimuli/001584_2014-06-20_11-07-43_260595134347_rgbf000002-resize_1/001584_2014-06-20_11-07-43_260595134347_rgbf000002-resize_1-target.png,125,3.53,10,4704,125,feet,jsons/VE125_randls_40_rotated.json,1140630,2139192,56,Man
133,523983,DepthScenes,duration_manipulation_targetAtFixation,jsons/VE125_randls_40_rotated.json,http://54.235.29.9/FacialAge/BNav_EC2/DepthDuration/v2_depth_duration_MTurk/v2_DepthDuration_HTML.html#222,222,1364,625,1364,768,8-29-2022,11-25-34,134,depth_duration_stimuli/003621_2014-05-23_18-06-08_094959634447_rgbf000101-resize_1/003621_2014-05-23_18-06-08_094959634447_rgbf000101-resize_1-target.png,125,3.9835,0,2675,124,feet,jsons/VE125_randls_40_rotated.json,1140630,2139192,56,Man
134,523983,DepthScenes,duration_manipulation_targetAtFixation,jsons/VE125_randls_40_rotated.json,http://54.235.29.9/FacialAge/BNav_EC2/DepthDuration/v2_depth_duration_MTurk/v2_DepthDuration_HTML.html#222,222,1364,625,1364,768,8-29-2022,11-25-34,135,depth_duration_stimuli/000375_2014-06-08_11-17-29_260595134347_rgbf000133-resize_2/000375_2014-06-08_11-17-29_260595134347_rgbf000133-resize-original.jpg,125,4.718,0,3650,125,feet,jsons/VE125_randls_40_rotated.json,1140630,2139192,56,Man
135,523983,DepthScenes,duration_manipulation_targetAtFixation,jsons/VE125_randls_40_rotated.json,http://54.235.29.9/FacialAge/BNav_EC2/DepthDuration/v2_depth_duration_MTurk/v2_DepthDuration_HTML.html#222,222,1364,625,1364,768,8-29-2022,11-25-34,136,depth_duration_stimuli/002639_2014-06-24_14-51-37_094959634447_rgbf000074-resize_4/002639_2014-06-24_14-51-37_094959634447_rgbf000074-resize_4-target.png,125,4.0375,10,3905,121,feet,jsons/VE125_randls_40_rotated.json,1140630,2139192,56,Man
136,523983,DepthScenes,duration_manipulation_targetAtFixation,jsons/VE125_randls_40_rotated.json,http://54.235.29.9/FacialAge/BNav_EC2/DepthDuration/v2_depth_duration_MTurk/v2_DepthDuration_HTML.html#222,222,1364,625,1364,768,8-29-2022,11-25-34,137,depth_duration_stimuli/003292_2014-05-14_21-53-49_094959634447_rgbf000100-resize_2/003292_2014-05-14_21-53-49_094959634447_rgbf000100-resize_2-target.png,125,3.4815,0,3055,125,feet,jsons/VE125_randls_40_rotated.json,1140630,2139192,56,Man
137,523983,DepthScenes,duration_manipulation_targetAtFixation,jsons/VE125_randls_40_rotated.json,http://54.235.29.9/FacialAge/BNav_EC2/DepthDuration/v2_depth_duration_MTurk/v2_DepthDuration_HTML.html#222,222,1364,625,1364,768,8-29-2022,11-25-34,138,depth_duration_stimuli/000854_2014-06-09_19-43-13_260595134347_rgbf000066-resize_0/000854_2014-06-09_19-43-13_260595134347_rgbf000066-resize_0-target.png,125,3.068,8,3868,126,feet,jsons/VE125_randls_40_rotated.json,1140630,2139192,56,Man
138,523983,DepthScenes,duration_manipulation_targetAtFixation,jsons/VE125_randls_40_rotated.json,http://54.235.29.9/FacialAge/BNav_EC2/DepthDuration/v2_depth_duration_MTurk/v2_DepthDuration_HTML.html#222,222,1364,625,1364,768,8-29-2022,11-25-34,139,depth_duration_stimuli/000758_2014-06-08_22-05-08_260595134347_rgbf000085-resize_0/000758_2014-06-08_22-05-08_260595134347_rgbf000085-resize_0-target.png,125,3.3810000000000002,0,13025,125,feet,jsons/VE125_randls_40_rotated.json,1140630,2139192,56,Man
139,523983,DepthScenes,duration_manipulation_targetAtFixation,jsons/VE125_randls_40_rotated.json,http://54.235.29.9/FacialAge/BNav_EC2/DepthDuration/v2_depth_duration_MTurk/v2_DepthDuration_HTML.html#222,222,1364,625,1364,768,8-29-2022,11-25-34,140,depth_duration_stimuli/000409_2014-06-04_19-23-33_260595134347_rgbf000067-resize_0/000409_2014-06-04_19-23-33_260595134347_rgbf000067-resize_0-target.png,125,3.7335,6,9277,124,feet,jsons/VE125_randls_40_rotated.json,1140630,2139192,56,Man
140,523983,DepthScenes,duration_manipulation_targetAtFixation,jsons/VE125_randls_40_rotated.json,http://54.235.29.9/FacialAge/BNav_EC2/DepthDuration/v2_depth_duration_MTurk/v2_DepthDuration_HTML.html#222,222,1364,625,1364,768,8-29-2022,11-25-34,141,depth_duration_stimuli/002663_2014-06-13_15-50-26_094959634447_rgbf000075-resize_1/002663_2014-06-13_15-50-26_094959634447_rgbf000075-resize_1-target.png,125,4.7495,0,3232,125,feet,jsons/VE125_randls_40_rotated.json,1140630,2139192,56,Man
141,523983,DepthScenes,duration_manipulation_targetAtFixation,jsons/VE125_randls_40_rotated.json,http://54.235.29.9/FacialAge/BNav_EC2/DepthDuration/v2_depth_duration_MTurk/v2_DepthDuration_HTML.html#222,222,1364,625,1364,768,8-29-2022,11-25-34,142,depth_duration_stimuli/002323_2014-06-28_20-01-54_260595134347_rgbf000051-resize_4/002323_2014-06-28_20-01-54_260595134347_rgbf000051-resize_4-target.png,125,3.7310000000000003,10,4732,125,feet,jsons/VE125_randls_40_rotated.json,1140630,2139192,56,Man
142,523983,DepthScenes,duration_manipulation_targetAtFixation,jsons/VE125_randls_40_rotated.json,http://54.235.29.9/FacialAge/BNav_EC2/DepthDuration/v2_depth_duration_MTurk/v2_DepthDuration_HTML.html#222,222,1364,625,1364,768,8-29-2022,11-25-34,143,depth_duration_stimuli/000917_2014-06-09_22-45-29_260595134347_rgbf000149-resize_3/000917_2014-06-09_22-45-29_260595134347_rgbf000149-resize_3-target.png,125,4.1865,0,3948,125,feet,jsons/VE125_randls_40_rotated.json,1140630,2139192,56,Man
143,523983,DepthScenes,duration_manipulation_targetAtFixation,jsons/VE125_randls_40_rotated.json,http://54.235.29.9/FacialAge/BNav_EC2/DepthDuration/v2_depth_duration_MTurk/v2_DepthDuration_HTML.html#222,222,1364,625,1364,768,8-29-2022,11-25-34,144,depth_duration_stimuli/002995_2014-06-15_12-31-26_094959634447_rgbf000150-resize_1/002995_2014-06-15_12-31-26_094959634447_rgbf000150-resize_1-target.png,125,3.8360000000000003,10,4384,124,feet,jsons/VE125_randls_40_rotated.json,1140630,2139192,56,Man
144,523983,DepthScenes,duration_manipulation_targetAtFixation,jsons/VE125_randls_40_rotated.json,http://54.235.29.9/FacialAge/BNav_EC2/DepthDuration/v2_depth_duration_MTurk/v2_DepthDuration_HTML.html#222,222,1364,625,1364,768,8-29-2022,11-25-34,145,depth_duration_stimuli/002748_2014-06-22_19-07-22_094959634447_rgbf000078-resize_1/002748_2014-06-22_19-07-22_094959634447_rgbf000078-resize_1-target.png,125,4.6705,0,3171,125,feet,jsons/VE125_randls_40_rotated.json,1140630,2139192,56,Man
145,523983,DepthScenes,duration_manipulation_targetAtFixation,jsons/VE125_randls_40_rotated.json,http://54.235.29.9/FacialAge/BNav_EC2/DepthDuration/v2_depth_duration_MTurk/v2_DepthDuration_HTML.html#222,222,1364,625,1364,768,8-29-2022,11-25-34,146,depth_duration_stimuli/002414_2014-06-28_20-24-58_260595134347_rgbf000067-resize_4/002414_2014-06-28_20-24-58_260595134347_rgbf000067-resize_4-target.png,125,4.363,12,7407,125,feet,jsons/VE125_randls_40_rotated.json,1140630,2139192,56,Man
146,523983,DepthScenes,duration_manipulation_targetAtFixation,jsons/VE125_randls_40_rotated.json,http://54.235.29.9/FacialAge/BNav_EC2/DepthDuration/v2_depth_duration_MTurk/v2_DepthDuration_HTML.html#222,222,1364,625,1364,768,8-29-2022,11-25-34,147,depth_duration_stimuli/000773_2014-06-08_22-24-54_260595134347_rgbf000093-resize_1/000773_2014-06-08_22-24-54_260595134347_rgbf000093-resize_1-target.png,125,4.973,0,3736,125,feet,jsons/VE125_randls_40_rotated.json,1140630,2139192,56,Man
147,523983,DepthScenes,duration_manipulation_targetAtFixation,jsons/VE125_randls_40_rotated.json,http://54.235.29.9/FacialAge/BNav_EC2/DepthDuration/v2_depth_duration_MTurk/v2_DepthDuration_HTML.html#222,222,1364,625,1364,768,8-29-2022,11-25-34,148,depth_duration_stimuli/001450_2014-06-19_17-02-03_260595134347_rgbf000203-resize_4/001450_2014-06-19_17-02-03_260595134347_rgbf000203-resize_4-target.png,125,4.0106666666667,12,4102,124,feet,jsons/VE125_randls_40_rotated.json,1140630,2139192,56,Man
148,523983,DepthScenes,duration_manipulation_targetAtFixation,jsons/VE125_randls_40_rotated.json,http://54.235.29.9/FacialAge/BNav_EC2/DepthDuration/v2_depth_duration_MTurk/v2_DepthDuration_HTML.html#222,222,1364,625,1364,768,8-29-2022,11-25-34,149,depth_duration_stimuli/001449_2014-06-19_17-01-27_260595134347_rgbf000116-resize_2/001449_2014-06-19_17-01-27_260595134347_rgbf000116-resize_2-target.png,125,3.452,0,2991,125,feet,jsons/VE125_randls_40_rotated.json,1140630,2139192,56,Man
149,523983,DepthScenes,duration_manipulation_targetAtFixation,jsons/VE125_randls_40_rotated.json,http://54.235.29.9/FacialAge/BNav_EC2/DepthDuration/v2_depth_duration_MTurk/v2_DepthDuration_HTML.html#222,222,1364,625,1364,768,8-29-2022,11-25-34,150,depth_duration_stimuli/002657_2014-06-13_15-29-54_094959634447_rgbf000150-resize_1/002657_2014-06-13_15-29-54_094959634447_rgbf000150-resize_1-target.png,125,4.919,8,5087,125,feet,jsons/VE125_randls_40_rotated.json,1140630,2139192,56,Man
150,523983,DepthScenes,duration_manipulation_targetAtFixation,jsons/VE125_randls_40_rotated.json,http://54.235.29.9/FacialAge/BNav_EC2/DepthDuration/v2_depth_duration_MTurk/v2_DepthDuration_HTML.html#222,222,1364,625,1364,768,8-29-2022,11-25-34,151,depth_duration_stimuli/002375_2014-06-28_20-13-44_260595134347_rgbf000032-resize_1/002375_2014-06-28_20-13-44_260595134347_rgbf000032-resize_1-target.png,125,4.0175,8,3708,125,feet,jsons/VE125_randls_40_rotated.json,1140630,2139192,56,Man
151,523983,DepthScenes,duration_manipulation_targetAtFixation,jsons/VE125_randls_40_rotated.json,http://54.235.29.9/FacialAge/BNav_EC2/DepthDuration/v2_depth_duration_MTurk/v2_DepthDuration_HTML.html#222,222,1364,625,1364,768,8-29-2022,11-25-34,152,depth_duration_stimuli/000569_2014-06-09_22-51-47_260595134347_rgbf000141-resize_3/000569_2014-06-09_22-51-47_260595134347_rgbf000141-resize-original.jpg,125,4.512,0,6867,125,feet,jsons/VE125_randls_40_rotated.json,1140630,2139192,56,Man
152,523983,DepthScenes,duration_manipulation_targetAtFixation,jsons/VE125_randls_40_rotated.json,http://54.235.29.9/FacialAge/BNav_EC2/DepthDuration/v2_depth_duration_MTurk/v2_DepthDuration_HTML.html#222,222,1364,625,1364,768,8-29-2022,11-25-34,153,depth_duration_stimuli/002875_2014-06-01_15-19-00_094959634447_rgbf000151-resize_1/002875_2014-06-01_15-19-00_094959634447_rgbf000151-resize_1-target.png,125,1.9675,5,34145,126,feet,jsons/VE125_randls_40_rotated.json,1140630,2139192,56,Man
153,523983,DepthScenes,duration_manipulation_targetAtFixation,jsons/VE125_randls_40_rotated.json,http://54.235.29.9/FacialAge/BNav_EC2/DepthDuration/v2_depth_duration_MTurk/v2_DepthDuration_HTML.html#222,222,1364,625,1364,768,8-29-2022,11-25-34,154,depth_duration_stimuli/001011_2014-06-08_23-18-54_260595134347_rgbf000044-resize_4/001011_2014-06-08_23-18-54_260595134347_rgbf000044-resize_4-target.png,125,2.4730000000000003,6,4011,124,feet,jsons/VE125_randls_40_rotated.json,1140630,2139192,56,Man
154,523983,DepthScenes,duration_manipulation_targetAtFixation,jsons/VE125_randls_40_rotated.json,http://54.235.29.9/FacialAge/BNav_EC2/DepthDuration/v2_depth_duration_MTurk/v2_DepthDuration_HTML.html#222,222,1364,625,1364,768,8-29-2022,11-25-34,155,depth_duration_stimuli/001828_2014-06-26_21-40-03_260595134347_rgbf000024-resize_0/001828_2014-06-26_21-40-03_260595134347_rgbf000024-resize_0-target.png,125,4.8260000000000005,8,4771,124,feet,jsons/VE125_randls_40_rotated.json,1140630,2139192,56,Man
155,523983,DepthScenes,duration_manipulation_targetAtFixation,jsons/VE125_randls_40_rotated.json,http://54.235.29.9/FacialAge/BNav_EC2/DepthDuration/v2_depth_duration_MTurk/v2_DepthDuration_HTML.html#222,222,1364,625,1364,768,8-29-2022,11-25-34,156,depth_duration_stimuli/000009_2014-05-26_14-32-05_260595134347_rgbf000034-resize_3/000009_2014-05-26_14-32-05_260595134347_rgbf000034-resize_3-target.png,125,3.8715,0,3117,124,feet,jsons/VE125_randls_40_rotated.json,1140630,2139192,56,Man
156,523983,DepthScenes,duration_manipulation_targetAtFixation,jsons/VE125_randls_40_rotated.json,http://54.235.29.9/FacialAge/BNav_EC2/DepthDuration/v2_depth_duration_MTurk/v2_DepthDuration_HTML.html#222,222,1364,625,1364,768,8-29-2022,11-25-34,157,depth_duration_stimuli/000483_2014-06-09_20-41-45_260595134347_rgbf000116-resize_4/000483_2014-06-09_20-41-45_260595134347_rgbf000116-resize_4-target.png,125,1.337,3,4187,124,feet,jsons/VE125_randls_40_rotated.json,1140630,2139192,56,Man
157,523983,DepthScenes,duration_manipulation_targetAtFixation,jsons/VE125_randls_40_rotated.json,http://54.235.29.9/FacialAge/BNav_EC2/DepthDuration/v2_depth_duration_MTurk/v2_DepthDuration_HTML.html#222,222,1364,625,1364,768,8-29-2022,11-25-34,158,depth_duration_stimuli/000469_2014-06-09_19-42-10_260595134347_rgbf000081-resize_1/000469_2014-06-09_19-42-10_260595134347_rgbf000081-resize_1-target.png,125,1.652,5,6026,125,feet,jsons/VE125_randls_40_rotated.json,1140630,2139192,56,Man
158,523983,DepthScenes,duration_manipulation_targetAtFixation,jsons/VE125_randls_40_rotated.json,http://54.235.29.9/FacialAge/BNav_EC2/DepthDuration/v2_depth_duration_MTurk/v2_DepthDuration_HTML.html#222,222,1364,625,1364,768,8-29-2022,11-25-34,159,depth_duration_stimuli/000109_2014-05-14_23-41-52_260595134347_rgbf000035-resize_9/000109_2014-05-14_23-41-52_260595134347_rgbf000035-resize_9-target.png,125,1.3545,0,5193,124,feet,jsons/VE125_randls_40_rotated.json,1140630,2139192,56,Man
159,523983,DepthScenes,duration_manipulation_targetAtFixation,jsons/VE125_randls_40_rotated.json,http://54.235.29.9/FacialAge/BNav_EC2/DepthDuration/v2_depth_duration_MTurk/v2_DepthDuration_HTML.html#222,222,1364,625,1364,768,8-29-2022,11-25-34,160,depth_duration_stimuli/000470_2014-06-09_19-42-40_260595134347_rgbf000094-resize_1/000470_2014-06-09_19-42-40_260595134347_rgbf000094-resize_1-target.png,125,1.831,0,3579,125,feet,jsons/VE125_randls_40_rotated.json,1140630,2139192,56,Man
160,523983,DepthScenes,duration_manipulation_targetAtFixation,jsons/VE125_randls_40_rotated.json,http://54.235.29.9/FacialAge/BNav_EC2/DepthDuration/v2_depth_duration_MTurk/v2_DepthDuration_HTML.html#222,222,1364,625,1364,768,8-29-2022,11-25-34,161,depth_duration_stimuli/003083_2014-06-15_15-21-03_094959634447_rgbf000063-resize_1/003083_2014-06-15_15-21-03_094959634447_rgbf000063-resize_1-target.png,125,4.1405,14,4684,126,feet,jsons/VE125_randls_40_rotated.json,1140630,2139192,56,Man
161,523983,DepthScenes,duration_manipulation_targetAtFixation,jsons/VE125_randls_40_rotated.json,http://54.235.29.9/FacialAge/BNav_EC2/DepthDuration/v2_depth_duration_MTurk/v2_DepthDuration_HTML.html#222,222,1364,625,1364,768,8-29-2022,11-25-34,162,depth_duration_stimuli/000486_2014-06-09_20-47-20_260595134347_rgbf000143-resize_2/000486_2014-06-09_20-47-20_260595134347_rgbf000143-resize_2-target.png,125,4.8325,10,3796,114,feet,jsons/VE125_randls_40_rotated.json,1140630,2139192,56,Man
162,523983,DepthScenes,duration_manipulation_targetAtFixation,jsons/VE125_randls_40_rotated.json,http://54.235.29.9/FacialAge/BNav_EC2/DepthDuration/v2_depth_duration_MTurk/v2_DepthDuration_HTML.html#222,222,1364,625,1364,768,8-29-2022,11-25-34,163,depth_duration_stimuli/000191_2014-05-12_17-07-38_260595134347_rgbf000199-resize_0/000191_2014-05-12_17-07-38_260595134347_rgbf000199-resize_0-target.png,125,3.7995,12,3876,111,feet,jsons/VE125_randls_40_rotated.json,1140630,2139192,56,Man
163,523983,DepthScenes,duration_manipulation_targetAtFixation,jsons/VE125_randls_40_rotated.json,http://54.235.29.9/FacialAge/BNav_EC2/DepthDuration/v2_depth_duration_MTurk/v2_DepthDuration_HTML.html#222,222,1364,625,1364,768,8-29-2022,11-25-34,164,depth_duration_stimuli/000493_2014-06-09_21-01-18_260595134347_rgbf000196-resize_3/000493_2014-06-09_21-01-18_260595134347_rgbf000196-resize_3-target.png,125,3.44,0,20198,126,feet,jsons/VE125_randls_40_rotated.json,1140630,2139192,56,Man
