,subjID,experimentName,versionName,sequenceName,url,selected_row,windowWidth,windowHeight,screenWidth,screenHeight,startDate,startTime,trial,stimulus,duration,actual_depth,depth_estimate,trial_RT,log_sceneDuration,unitSelection,seq_filepath,experimentTime,totalTime,age,gender
0,524441,DepthScenes,duration_manipulation_targetAtFixation,jsons/VE125_randls_39_rotated.json,http://54.235.29.9/FacialAge/BNav_EC2/DepthDuration/v2_depth_duration_MTurk/v2_DepthDuration_HTML.html#466,466,1280,657,1280,800,8-30-2022,9-56-49,1,depth_duration_stimuli/001052_2014-06-08_18-24-54_260595134347_rgbf000130-resize_1/001052_2014-06-08_18-24-54_260595134347_rgbf000130-resize_1-target.png,125,4.1045,8,2498,124,meters,jsons/VE125_randls_39_rotated.json,984309,1208406,30,Woman
1,524441,DepthScenes,duration_manipulation_targetAtFixation,jsons/VE125_randls_39_rotated.json,http://54.235.29.9/FacialAge/BNav_EC2/DepthDuration/v2_depth_duration_MTurk/v2_DepthDuration_HTML.html#466,466,1280,657,1280,800,8-30-2022,9-56-49,2,depth_duration_stimuli/002988_2014-06-15_12-24-20_094959634447_rgbf000150-resize_1/002988_2014-06-15_12-24-20_094959634447_rgbf000150-resize_1-target.png,125,4.7669999999999995,9,2282,124,meters,jsons/VE125_randls_39_rotated.json,984309,1208406,30,Woman
2,524441,DepthScenes,duration_manipulation_targetAtFixation,jsons/VE125_randls_39_rotated.json,http://54.235.29.9/FacialAge/BNav_EC2/DepthDuration/v2_depth_duration_MTurk/v2_DepthDuration_HTML.html#466,466,1280,657,1280,800,8-30-2022,9-56-49,3,depth_duration_stimuli/000409_2014-06-04_19-23-33_260595134347_rgbf000067-resize_0/000409_2014-06-04_19-23-33_260595134347_rgbf000067-resize_0-target.png,125,3.7335,8,2594,124,meters,jsons/VE125_randls_39_rotated.json,984309,1208406,30,Woman
3,524441,DepthScenes,duration_manipulation_targetAtFixation,jsons/VE125_randls_39_rotated.json,http://54.235.29.9/FacialAge/BNav_EC2/DepthDuration/v2_depth_duration_MTurk/v2_DepthDuration_HTML.html#466,466,1280,657,1280,800,8-30-2022,9-56-49,4,depth_duration_stimuli/002663_2014-06-13_15-50-26_094959634447_rgbf000075-resize_1/002663_2014-06-13_15-50-26_094959634447_rgbf000075-resize_1-target.png,125,4.7495,23,2489,124,meters,jsons/VE125_randls_39_rotated.json,984309,1208406,30,Woman
4,524441,DepthScenes,duration_manipulation_targetAtFixation,jsons/VE125_randls_39_rotated.json,http://54.235.29.9/FacialAge/BNav_EC2/DepthDuration/v2_depth_duration_MTurk/v2_DepthDuration_HTML.html#466,466,1280,657,1280,800,8-30-2022,9-56-49,5,depth_duration_stimuli/000457_2014-06-08_16-52-43_260595134347_rgbf000199-resize_1/000457_2014-06-08_16-52-43_260595134347_rgbf000199-resize_1-target.png,125,3.6489999999999996,1,2637,124,meters,jsons/VE125_randls_39_rotated.json,984309,1208406,30,Woman
5,524441,DepthScenes,duration_manipulation_targetAtFixation,jsons/VE125_randls_39_rotated.json,http://54.235.29.9/FacialAge/BNav_EC2/DepthDuration/v2_depth_duration_MTurk/v2_DepthDuration_HTML.html#466,466,1280,657,1280,800,8-30-2022,9-56-49,6,depth_duration_stimuli/000929_2014-06-09_16-33-19_260595134347_rgbf000139-resize_0/000929_2014-06-09_16-33-19_260595134347_rgbf000139-resize_0-target.png,125,2.8680000000000003,3,2369,124,meters,jsons/VE125_randls_39_rotated.json,984309,1208406,30,Woman
6,524441,DepthScenes,duration_manipulation_targetAtFixation,jsons/VE125_randls_39_rotated.json,http://54.235.29.9/FacialAge/BNav_EC2/DepthDuration/v2_depth_duration_MTurk/v2_DepthDuration_HTML.html#466,466,1280,657,1280,800,8-30-2022,9-56-49,7,depth_duration_stimuli/002949_2014-06-26_15-57-42_094959634447_rgbf000079-resize_1/002949_2014-06-26_15-57-42_094959634447_rgbf000079-resize_1-target.png,125,1.8915,5,2347,123,meters,jsons/VE125_randls_39_rotated.json,984309,1208406,30,Woman
7,524441,DepthScenes,duration_manipulation_targetAtFixation,jsons/VE125_randls_39_rotated.json,http://54.235.29.9/FacialAge/BNav_EC2/DepthDuration/v2_depth_duration_MTurk/v2_DepthDuration_HTML.html#466,466,1280,657,1280,800,8-30-2022,9-56-49,8,depth_duration_stimuli/000522_2014-06-08_13-35-06_260595134347_rgbf000244-resize_1/000522_2014-06-08_13-35-06_260595134347_rgbf000244-resize_1-target.png,125,2.3715,5,2078,122,meters,jsons/VE125_randls_39_rotated.json,984309,1208406,30,Woman
8,524441,DepthScenes,duration_manipulation_targetAtFixation,jsons/VE125_randls_39_rotated.json,http://54.235.29.9/FacialAge/BNav_EC2/DepthDuration/v2_depth_duration_MTurk/v2_DepthDuration_HTML.html#466,466,1280,657,1280,800,8-30-2022,9-56-49,9,depth_duration_stimuli/001136_2014-06-17_15-19-41_260595134347_rgbf000076-resize_3/001136_2014-06-17_15-19-41_260595134347_rgbf000076-resize_3-target.png,125,1.8655,8,2603,123,meters,jsons/VE125_randls_39_rotated.json,984309,1208406,30,Woman
9,524441,DepthScenes,duration_manipulation_targetAtFixation,jsons/VE125_randls_39_rotated.json,http://54.235.29.9/FacialAge/BNav_EC2/DepthDuration/v2_depth_duration_MTurk/v2_DepthDuration_HTML.html#466,466,1280,657,1280,800,8-30-2022,9-56-49,10,depth_duration_stimuli/001164_2014-06-17_15-35-46_260595134347_rgbf000085-resize_3/001164_2014-06-17_15-35-46_260595134347_rgbf000085-resize_3-target.png,125,2.354,9,2399,124,meters,jsons/VE125_randls_39_rotated.json,984309,1208406,30,Woman
10,524441,DepthScenes,duration_manipulation_targetAtFixation,jsons/VE125_randls_39_rotated.json,http://54.235.29.9/FacialAge/BNav_EC2/DepthDuration/v2_depth_duration_MTurk/v2_DepthDuration_HTML.html#466,466,1280,657,1280,800,8-30-2022,9-56-49,11,depth_duration_stimuli/000866_2014-06-09_20-45-42_260595134347_rgbf000139-resize_1/000866_2014-06-09_20-45-42_260595134347_rgbf000139-resize_1-target.png,125,3.2155,5,2065,125,meters,jsons/VE125_randls_39_rotated.json,984309,1208406,30,Woman
11,524441,DepthScenes,duration_manipulation_targetAtFixation,jsons/VE125_randls_39_rotated.json,http://54.235.29.9/FacialAge/BNav_EC2/DepthDuration/v2_depth_duration_MTurk/v2_DepthDuration_HTML.html#466,466,1280,657,1280,800,8-30-2022,9-56-49,12,depth_duration_stimuli/002989_2014-06-15_12-25-03_094959634447_rgbf000150-resize_3/002989_2014-06-15_12-25-03_094959634447_rgbf000150-resize_3-target.png,125,4.1975,3,2442,116,meters,jsons/VE125_randls_39_rotated.json,984309,1208406,30,Woman
12,524441,DepthScenes,duration_manipulation_targetAtFixation,jsons/VE125_randls_39_rotated.json,http://54.235.29.9/FacialAge/BNav_EC2/DepthDuration/v2_depth_duration_MTurk/v2_DepthDuration_HTML.html#466,466,1280,657,1280,800,8-30-2022,9-56-49,13,depth_duration_stimuli/002568_2014-06-24_13-59-21_094959634447_rgbf000062-resize_4/002568_2014-06-24_13-59-21_094959634447_rgbf000062-resize_4-target.png,125,3.015,1,2304,125,meters,jsons/VE125_randls_39_rotated.json,984309,1208406,30,Woman
13,524441,DepthScenes,duration_manipulation_targetAtFixation,jsons/VE125_randls_39_rotated.json,http://54.235.29.9/FacialAge/BNav_EC2/DepthDuration/v2_depth_duration_MTurk/v2_DepthDuration_HTML.html#466,466,1280,657,1280,800,8-30-2022,9-56-49,14,depth_duration_stimuli/003492_2014-05-21_15-50-55_094959634447_rgbf000828-resize_1/003492_2014-05-21_15-50-55_094959634447_rgbf000828-resize_1-target.png,125,4.06875,2,2068,118,meters,jsons/VE125_randls_39_rotated.json,984309,1208406,30,Woman
14,524441,DepthScenes,duration_manipulation_targetAtFixation,jsons/VE125_randls_39_rotated.json,http://54.235.29.9/FacialAge/BNav_EC2/DepthDuration/v2_depth_duration_MTurk/v2_DepthDuration_HTML.html#466,466,1280,657,1280,800,8-30-2022,9-56-49,15,depth_duration_stimuli/001235_2014-06-17_16-37-36_260595134347_rgbf000084-resize_4/001235_2014-06-17_16-37-36_260595134347_rgbf000084-resize_4-target.png,125,3.6605,5,2145,123,meters,jsons/VE125_randls_39_rotated.json,984309,1208406,30,Woman
15,524441,DepthScenes,duration_manipulation_targetAtFixation,jsons/VE125_randls_39_rotated.json,http://54.235.29.9/FacialAge/BNav_EC2/DepthDuration/v2_depth_duration_MTurk/v2_DepthDuration_HTML.html#466,466,1280,657,1280,800,8-30-2022,9-56-49,16,depth_duration_stimuli/000788_2014-06-08_22-34-36_260595134347_rgbf000131-resize_1/000788_2014-06-08_22-34-36_260595134347_rgbf000131-resize_1-target.png,125,3.359,7,3662,115,meters,jsons/VE125_randls_39_rotated.json,984309,1208406,30,Woman
16,524441,DepthScenes,duration_manipulation_targetAtFixation,jsons/VE125_randls_39_rotated.json,http://54.235.29.9/FacialAge/BNav_EC2/DepthDuration/v2_depth_duration_MTurk/v2_DepthDuration_HTML.html#466,466,1280,657,1280,800,8-30-2022,9-56-49,17,depth_duration_stimuli/000137_2014-05-20_17-04-49_260595134347_rgbf000120-resize_1/000137_2014-05-20_17-04-49_260595134347_rgbf000120-resize_1-target.png,125,3.786,7,3176,124,meters,jsons/VE125_randls_39_rotated.json,984309,1208406,30,Woman
17,524441,DepthScenes,duration_manipulation_targetAtFixation,jsons/VE125_randls_39_rotated.json,http://54.235.29.9/FacialAge/BNav_EC2/DepthDuration/v2_depth_duration_MTurk/v2_DepthDuration_HTML.html#466,466,1280,657,1280,800,8-30-2022,9-56-49,18,depth_duration_stimuli/000736_2014-06-08_18-24-15_260595134347_rgbf000206-resize_3/000736_2014-06-08_18-24-15_260595134347_rgbf000206-resize_3-target.png,125,3.515,9,2186,124,meters,jsons/VE125_randls_39_rotated.json,984309,1208406,30,Woman
18,524441,DepthScenes,duration_manipulation_targetAtFixation,jsons/VE125_randls_39_rotated.json,http://54.235.29.9/FacialAge/BNav_EC2/DepthDuration/v2_depth_duration_MTurk/v2_DepthDuration_HTML.html#466,466,1280,657,1280,800,8-30-2022,9-56-49,19,depth_duration_stimuli/001498_2014-06-19_17-45-14_260595134347_rgbf000129-resize_4/001498_2014-06-19_17-45-14_260595134347_rgbf000129-resize-original.jpg,125,1.4075,4,39060,125,meters,jsons/VE125_randls_39_rotated.json,984309,1208406,30,Woman
19,524441,DepthScenes,duration_manipulation_targetAtFixation,jsons/VE125_randls_39_rotated.json,http://54.235.29.9/FacialAge/BNav_EC2/DepthDuration/v2_depth_duration_MTurk/v2_DepthDuration_HTML.html#466,466,1280,657,1280,800,8-30-2022,9-56-49,20,depth_duration_stimuli/002758_2014-06-22_19-11-20_094959634447_rgbf000128-resize_1/002758_2014-06-22_19-11-20_094959634447_rgbf000128-resize_1-target.png,125,2.555,7,3077,120,meters,jsons/VE125_randls_39_rotated.json,984309,1208406,30,Woman
20,524441,DepthScenes,duration_manipulation_targetAtFixation,jsons/VE125_randls_39_rotated.json,http://54.235.29.9/FacialAge/BNav_EC2/DepthDuration/v2_depth_duration_MTurk/v2_DepthDuration_HTML.html#466,466,1280,657,1280,800,8-30-2022,9-56-49,21,depth_duration_stimuli/002630_2014-06-24_14-47-50_094959634447_rgbf000055-resize_1/002630_2014-06-24_14-47-50_094959634447_rgbf000055-resize_1-target.png,125,3.0095,8,2589,120,meters,jsons/VE125_randls_39_rotated.json,984309,1208406,30,Woman
21,524441,DepthScenes,duration_manipulation_targetAtFixation,jsons/VE125_randls_39_rotated.json,http://54.235.29.9/FacialAge/BNav_EC2/DepthDuration/v2_depth_duration_MTurk/v2_DepthDuration_HTML.html#466,466,1280,657,1280,800,8-30-2022,9-56-49,22,depth_duration_stimuli/003079_2014-06-15_15-18-20_094959634447_rgbf000152-resize_8/003079_2014-06-15_15-18-20_094959634447_rgbf000152-resize_8-target.png,125,2.8775,5,2286,123,meters,jsons/VE125_randls_39_rotated.json,984309,1208406,30,Woman
22,524441,DepthScenes,duration_manipulation_targetAtFixation,jsons/VE125_randls_39_rotated.json,http://54.235.29.9/FacialAge/BNav_EC2/DepthDuration/v2_depth_duration_MTurk/v2_DepthDuration_HTML.html#466,466,1280,657,1280,800,8-30-2022,9-56-49,23,depth_duration_stimuli/000506_2014-06-08_23-21-00_260595134347_rgbf000070-resize_7/000506_2014-06-08_23-21-00_260595134347_rgbf000070-resize_7-target.png,125,4.0585,4,2248,125,meters,jsons/VE125_randls_39_rotated.json,984309,1208406,30,Woman
23,524441,DepthScenes,duration_manipulation_targetAtFixation,jsons/VE125_randls_39_rotated.json,http://54.235.29.9/FacialAge/BNav_EC2/DepthDuration/v2_depth_duration_MTurk/v2_DepthDuration_HTML.html#466,466,1280,657,1280,800,8-30-2022,9-56-49,24,depth_duration_stimuli/002637_2014-06-24_14-51-13_094959634447_rgbf000066-resize_4/002637_2014-06-24_14-51-13_094959634447_rgbf000066-resize_4-target.png,125,1.9955,6,2376,121,meters,jsons/VE125_randls_39_rotated.json,984309,1208406,30,Woman
24,524441,DepthScenes,duration_manipulation_targetAtFixation,jsons/VE125_randls_39_rotated.json,http://54.235.29.9/FacialAge/BNav_EC2/DepthDuration/v2_depth_duration_MTurk/v2_DepthDuration_HTML.html#466,466,1280,657,1280,800,8-30-2022,9-56-49,25,depth_duration_stimuli/003534_2014-05-22_15-06-10_094959634447_rgbf000102-resize_4/003534_2014-05-22_15-06-10_094959634447_rgbf000102-resize_4-target.png,125,1.426,5,2292,114,meters,jsons/VE125_randls_39_rotated.json,984309,1208406,30,Woman
25,524441,DepthScenes,duration_manipulation_targetAtFixation,jsons/VE125_randls_39_rotated.json,http://54.235.29.9/FacialAge/BNav_EC2/DepthDuration/v2_depth_duration_MTurk/v2_DepthDuration_HTML.html#466,466,1280,657,1280,800,8-30-2022,9-56-49,26,depth_duration_stimuli/001516_2014-06-20_16-25-09_260595134347_rgbf000076-resize_2/001516_2014-06-20_16-25-09_260595134347_rgbf000076-resize_2-target.png,125,1.7445,4,2071,125,meters,jsons/VE125_randls_39_rotated.json,984309,1208406,30,Woman
26,524441,DepthScenes,duration_manipulation_targetAtFixation,jsons/VE125_randls_39_rotated.json,http://54.235.29.9/FacialAge/BNav_EC2/DepthDuration/v2_depth_duration_MTurk/v2_DepthDuration_HTML.html#466,466,1280,657,1280,800,8-30-2022,9-56-49,27,depth_duration_stimuli/002118_2014-06-25_20-32-08_260595134347_rgbf000078-resize_1/002118_2014-06-25_20-32-08_260595134347_rgbf000078-resize_1-target.png,125,2.6460000000000004,1,2240,119,meters,jsons/VE125_randls_39_rotated.json,984309,1208406,30,Woman
27,524441,DepthScenes,duration_manipulation_targetAtFixation,jsons/VE125_randls_39_rotated.json,http://54.235.29.9/FacialAge/BNav_EC2/DepthDuration/v2_depth_duration_MTurk/v2_DepthDuration_HTML.html#466,466,1280,657,1280,800,8-30-2022,9-56-49,28,depth_duration_stimuli/002136_2014-06-25_21-18-03_260595134347_rgbf000109-resize_3/002136_2014-06-25_21-18-03_260595134347_rgbf000109-resize_3-target.png,125,1.9569999999999999,7,2658,122,meters,jsons/VE125_randls_39_rotated.json,984309,1208406,30,Woman
28,524441,DepthScenes,duration_manipulation_targetAtFixation,jsons/VE125_randls_39_rotated.json,http://54.235.29.9/FacialAge/BNav_EC2/DepthDuration/v2_depth_duration_MTurk/v2_DepthDuration_HTML.html#466,466,1280,657,1280,800,8-30-2022,9-56-49,29,depth_duration_stimuli/002964_2014-06-08_17-46-11_094959634447_rgbf000091-resize_4/002964_2014-06-08_17-46-11_094959634447_rgbf000091-resize_4-target.png,125,1.6909999999999998,4,2432,123,meters,jsons/VE125_randls_39_rotated.json,984309,1208406,30,Woman
29,524441,DepthScenes,duration_manipulation_targetAtFixation,jsons/VE125_randls_39_rotated.json,http://54.235.29.9/FacialAge/BNav_EC2/DepthDuration/v2_depth_duration_MTurk/v2_DepthDuration_HTML.html#466,466,1280,657,1280,800,8-30-2022,9-56-49,30,depth_duration_stimuli/002072_2014-06-24_21-48-06_260595134347_rgbf000115-resize_0/002072_2014-06-24_21-48-06_260595134347_rgbf000115-resize-original.jpg,125,4.702,7,39296,127,meters,jsons/VE125_randls_39_rotated.json,984309,1208406,30,Woman
30,524441,DepthScenes,duration_manipulation_targetAtFixation,jsons/VE125_randls_39_rotated.json,http://54.235.29.9/FacialAge/BNav_EC2/DepthDuration/v2_depth_duration_MTurk/v2_DepthDuration_HTML.html#466,466,1280,657,1280,800,8-30-2022,9-56-49,31,depth_duration_stimuli/000691_2014-06-08_13-08-50_260595134347_rgbf000132-resize_3/000691_2014-06-08_13-08-50_260595134347_rgbf000132-resize_3-target.png,125,4.1530000000000005,9,2354,123,meters,jsons/VE125_randls_39_rotated.json,984309,1208406,30,Woman
31,524441,DepthScenes,duration_manipulation_targetAtFixation,jsons/VE125_randls_39_rotated.json,http://54.235.29.9/FacialAge/BNav_EC2/DepthDuration/v2_depth_duration_MTurk/v2_DepthDuration_HTML.html#466,466,1280,657,1280,800,8-30-2022,9-56-49,32,depth_duration_stimuli/002213_2014-06-28_18-37-58_260595134347_rgbf000055-resize_1/002213_2014-06-28_18-37-58_260595134347_rgbf000055-resize_1-target.png,125,3.62,5,20989,115,meters,jsons/VE125_randls_39_rotated.json,984309,1208406,30,Woman
32,524441,DepthScenes,duration_manipulation_targetAtFixation,jsons/VE125_randls_39_rotated.json,http://54.235.29.9/FacialAge/BNav_EC2/DepthDuration/v2_depth_duration_MTurk/v2_DepthDuration_HTML.html#466,466,1280,657,1280,800,8-30-2022,9-56-49,33,depth_duration_stimuli/002657_2014-06-13_15-29-54_094959634447_rgbf000150-resize_1/002657_2014-06-13_15-29-54_094959634447_rgbf000150-resize_1-target.png,125,4.919,7,2310,124,meters,jsons/VE125_randls_39_rotated.json,984309,1208406,30,Woman
33,524441,DepthScenes,duration_manipulation_targetAtFixation,jsons/VE125_randls_39_rotated.json,http://54.235.29.9/FacialAge/BNav_EC2/DepthDuration/v2_depth_duration_MTurk/v2_DepthDuration_HTML.html#466,466,1280,657,1280,800,8-30-2022,9-56-49,34,depth_duration_stimuli/002375_2014-06-28_20-13-44_260595134347_rgbf000032-resize_1/002375_2014-06-28_20-13-44_260595134347_rgbf000032-resize_1-target.png,125,4.0175,9,2195,124,meters,jsons/VE125_randls_39_rotated.json,984309,1208406,30,Woman
34,524441,DepthScenes,duration_manipulation_targetAtFixation,jsons/VE125_randls_39_rotated.json,http://54.235.29.9/FacialAge/BNav_EC2/DepthDuration/v2_depth_duration_MTurk/v2_DepthDuration_HTML.html#466,466,1280,657,1280,800,8-30-2022,9-56-49,35,depth_duration_stimuli/003048_2014-06-15_13-49-43_094959634447_rgbf000150-resize_1/003048_2014-06-15_13-49-43_094959634447_rgbf000150-resize_1-target.png,125,4.0035,7,2457,122,meters,jsons/VE125_randls_39_rotated.json,984309,1208406,30,Woman
35,524441,DepthScenes,duration_manipulation_targetAtFixation,jsons/VE125_randls_39_rotated.json,http://54.235.29.9/FacialAge/BNav_EC2/DepthDuration/v2_depth_duration_MTurk/v2_DepthDuration_HTML.html#466,466,1280,657,1280,800,8-30-2022,9-56-49,36,depth_duration_stimuli/002043_2014-06-24_20-29-38_260595134347_rgbf000039-resize_4/002043_2014-06-24_20-29-38_260595134347_rgbf000039-resize_4-target.png,125,2.8435,6,2362,131,meters,jsons/VE125_randls_39_rotated.json,984309,1208406,30,Woman
36,524441,DepthScenes,duration_manipulation_targetAtFixation,jsons/VE125_randls_39_rotated.json,http://54.235.29.9/FacialAge/BNav_EC2/DepthDuration/v2_depth_duration_MTurk/v2_DepthDuration_HTML.html#466,466,1280,657,1280,800,8-30-2022,9-56-49,37,depth_duration_stimuli/000749_2014-06-08_21-55-06_260595134347_rgbf000070-resize_2/000749_2014-06-08_21-55-06_260595134347_rgbf000070-resize_2-target.png,125,2.331,2,2250,123,meters,jsons/VE125_randls_39_rotated.json,984309,1208406,30,Woman
37,524441,DepthScenes,duration_manipulation_targetAtFixation,jsons/VE125_randls_39_rotated.json,http://54.235.29.9/FacialAge/BNav_EC2/DepthDuration/v2_depth_duration_MTurk/v2_DepthDuration_HTML.html#466,466,1280,657,1280,800,8-30-2022,9-56-49,38,depth_duration_stimuli/002788_2014-06-22_19-36-03_094959634447_rgbf000088-resize_2/002788_2014-06-22_19-36-03_094959634447_rgbf000088-resize_2-target.png,125,1.6465,7,2106,123,meters,jsons/VE125_randls_39_rotated.json,984309,1208406,30,Woman
38,524441,DepthScenes,duration_manipulation_targetAtFixation,jsons/VE125_randls_39_rotated.json,http://54.235.29.9/FacialAge/BNav_EC2/DepthDuration/v2_depth_duration_MTurk/v2_DepthDuration_HTML.html#466,466,1280,657,1280,800,8-30-2022,9-56-49,39,depth_duration_stimuli/001584_2014-06-20_11-07-43_260595134347_rgbf000002-resize_1/001584_2014-06-20_11-07-43_260595134347_rgbf000002-resize_1-target.png,125,3.53,10,2873,123,meters,jsons/VE125_randls_39_rotated.json,984309,1208406,30,Woman
39,524441,DepthScenes,duration_manipulation_targetAtFixation,jsons/VE125_randls_39_rotated.json,http://54.235.29.9/FacialAge/BNav_EC2/DepthDuration/v2_depth_duration_MTurk/v2_DepthDuration_HTML.html#466,466,1280,657,1280,800,8-30-2022,9-56-49,40,depth_duration_stimuli/003621_2014-05-23_18-06-08_094959634447_rgbf000101-resize_1/003621_2014-05-23_18-06-08_094959634447_rgbf000101-resize_1-target.png,125,3.9835,8,2265,124,meters,jsons/VE125_randls_39_rotated.json,984309,1208406,30,Woman
40,524441,DepthScenes,duration_manipulation_targetAtFixation,jsons/VE125_randls_39_rotated.json,http://54.235.29.9/FacialAge/BNav_EC2/DepthDuration/v2_depth_duration_MTurk/v2_DepthDuration_HTML.html#466,466,1280,657,1280,800,8-30-2022,9-56-49,41,depth_duration_stimuli/000742_2014-06-08_18-48-09_260595134347_rgbf000164-resize_4/000742_2014-06-08_18-48-09_260595134347_rgbf000164-resize_4-target.png,125,4.632,7,2967,123,meters,jsons/VE125_randls_39_rotated.json,984309,1208406,30,Woman
41,524441,DepthScenes,duration_manipulation_targetAtFixation,jsons/VE125_randls_39_rotated.json,http://54.235.29.9/FacialAge/BNav_EC2/DepthDuration/v2_depth_duration_MTurk/v2_DepthDuration_HTML.html#466,466,1280,657,1280,800,8-30-2022,9-56-49,42,depth_duration_stimuli/001066_2014-06-08_22-03-20_260595134347_rgbf000066-resize_4/001066_2014-06-08_22-03-20_260595134347_rgbf000066-resize_4-target.png,125,4.2330000000000005,3,1866,135,meters,jsons/VE125_randls_39_rotated.json,984309,1208406,30,Woman
42,524441,DepthScenes,duration_manipulation_targetAtFixation,jsons/VE125_randls_39_rotated.json,http://54.235.29.9/FacialAge/BNav_EC2/DepthDuration/v2_depth_duration_MTurk/v2_DepthDuration_HTML.html#466,466,1280,657,1280,800,8-30-2022,9-56-49,43,depth_duration_stimuli/002660_2014-06-13_15-44-18_094959634447_rgbf001878-resize_2/002660_2014-06-13_15-44-18_094959634447_rgbf001878-resize_2-target.png,125,3.576,3,2614,122,meters,jsons/VE125_randls_39_rotated.json,984309,1208406,30,Woman
43,524441,DepthScenes,duration_manipulation_targetAtFixation,jsons/VE125_randls_39_rotated.json,http://54.235.29.9/FacialAge/BNav_EC2/DepthDuration/v2_depth_duration_MTurk/v2_DepthDuration_HTML.html#466,466,1280,657,1280,800,8-30-2022,9-56-49,44,depth_duration_stimuli/002153_2014-06-25_21-27-18_260595134347_rgbf000038-resize_5/002153_2014-06-25_21-27-18_260595134347_rgbf000038-resize_5-target.png,125,2.505,5,2202,124,meters,jsons/VE125_randls_39_rotated.json,984309,1208406,30,Woman
44,524441,DepthScenes,duration_manipulation_targetAtFixation,jsons/VE125_randls_39_rotated.json,http://54.235.29.9/FacialAge/BNav_EC2/DepthDuration/v2_depth_duration_MTurk/v2_DepthDuration_HTML.html#466,466,1280,657,1280,800,8-30-2022,9-56-49,45,depth_duration_stimuli/003083_2014-06-15_15-21-03_094959634447_rgbf000063-resize_1/003083_2014-06-15_15-21-03_094959634447_rgbf000063-resize_1-target.png,125,4.1405,3,3484,128,meters,jsons/VE125_randls_39_rotated.json,984309,1208406,30,Woman
45,524441,DepthScenes,duration_manipulation_targetAtFixation,jsons/VE125_randls_39_rotated.json,http://54.235.29.9/FacialAge/BNav_EC2/DepthDuration/v2_depth_duration_MTurk/v2_DepthDuration_HTML.html#466,466,1280,657,1280,800,8-30-2022,9-56-49,46,depth_duration_stimuli/000486_2014-06-09_20-47-20_260595134347_rgbf000143-resize_2/000486_2014-06-09_20-47-20_260595134347_rgbf000143-resize_2-target.png,125,4.8325,1,2242,122,meters,jsons/VE125_randls_39_rotated.json,984309,1208406,30,Woman
46,524441,DepthScenes,duration_manipulation_targetAtFixation,jsons/VE125_randls_39_rotated.json,http://54.235.29.9/FacialAge/BNav_EC2/DepthDuration/v2_depth_duration_MTurk/v2_DepthDuration_HTML.html#466,466,1280,657,1280,800,8-30-2022,9-56-49,47,depth_duration_stimuli/003010_2014-06-15_12-54-35_094959634447_rgbf000112-resize_0/003010_2014-06-15_12-54-35_094959634447_rgbf000112-resize_0-target.png,125,3.1185,1,2450,137,meters,jsons/VE125_randls_39_rotated.json,984309,1208406,30,Woman
47,524441,DepthScenes,duration_manipulation_targetAtFixation,jsons/VE125_randls_39_rotated.json,http://54.235.29.9/FacialAge/BNav_EC2/DepthDuration/v2_depth_duration_MTurk/v2_DepthDuration_HTML.html#466,466,1280,657,1280,800,8-30-2022,9-56-49,48,depth_duration_stimuli/001810_2014-06-26_20-51-35_260595134347_rgbf000040-resize_3/001810_2014-06-26_20-51-35_260595134347_rgbf000040-resize_3-target.png,125,2.2525,6,3184,119,meters,jsons/VE125_randls_39_rotated.json,984309,1208406,30,Woman
48,524441,DepthScenes,duration_manipulation_targetAtFixation,jsons/VE125_randls_39_rotated.json,http://54.235.29.9/FacialAge/BNav_EC2/DepthDuration/v2_depth_duration_MTurk/v2_DepthDuration_HTML.html#466,466,1280,657,1280,800,8-30-2022,9-56-49,49,depth_duration_stimuli/001170_2014-06-17_15-43-44_260595134347_rgbf000096-resize_6/001170_2014-06-17_15-43-44_260595134347_rgbf000096-resize-original.jpg,125,1.1909999999999998,8,2395,124,meters,jsons/VE125_randls_39_rotated.json,984309,1208406,30,Woman
49,524441,DepthScenes,duration_manipulation_targetAtFixation,jsons/VE125_randls_39_rotated.json,http://54.235.29.9/FacialAge/BNav_EC2/DepthDuration/v2_depth_duration_MTurk/v2_DepthDuration_HTML.html#466,466,1280,657,1280,800,8-30-2022,9-56-49,50,depth_duration_stimuli/002995_2014-06-15_12-31-26_094959634447_rgbf000150-resize_1/002995_2014-06-15_12-31-26_094959634447_rgbf000150-resize_1-target.png,125,3.8360000000000003,6,1978,123,meters,jsons/VE125_randls_39_rotated.json,984309,1208406,30,Woman
50,524441,DepthScenes,duration_manipulation_targetAtFixation,jsons/VE125_randls_39_rotated.json,http://54.235.29.9/FacialAge/BNav_EC2/DepthDuration/v2_depth_duration_MTurk/v2_DepthDuration_HTML.html#466,466,1280,657,1280,800,8-30-2022,9-56-49,51,depth_duration_stimuli/002748_2014-06-22_19-07-22_094959634447_rgbf000078-resize_1/002748_2014-06-22_19-07-22_094959634447_rgbf000078-resize_1-target.png,125,4.6705,8,2505,125,meters,jsons/VE125_randls_39_rotated.json,984309,1208406,30,Woman
51,524441,DepthScenes,duration_manipulation_targetAtFixation,jsons/VE125_randls_39_rotated.json,http://54.235.29.9/FacialAge/BNav_EC2/DepthDuration/v2_depth_duration_MTurk/v2_DepthDuration_HTML.html#466,466,1280,657,1280,800,8-30-2022,9-56-49,52,depth_duration_stimuli/002103_2014-06-25_20-00-40_260595134347_rgbf000049-resize_0/002103_2014-06-25_20-00-40_260595134347_rgbf000049-resize_0-target.png,125,4.105,6,1849,124,meters,jsons/VE125_randls_39_rotated.json,984309,1208406,30,Woman
52,524441,DepthScenes,duration_manipulation_targetAtFixation,jsons/VE125_randls_39_rotated.json,http://54.235.29.9/FacialAge/BNav_EC2/DepthDuration/v2_depth_duration_MTurk/v2_DepthDuration_HTML.html#466,466,1280,657,1280,800,8-30-2022,9-56-49,53,depth_duration_stimuli/002039_2014-06-24_20-22-38_260595134347_rgbf000084-resize_1/002039_2014-06-24_20-22-38_260595134347_rgbf000084-resize_1-target.png,125,4.408,1,1659,124,meters,jsons/VE125_randls_39_rotated.json,984309,1208406,30,Woman
53,524441,DepthScenes,duration_manipulation_targetAtFixation,jsons/VE125_randls_39_rotated.json,http://54.235.29.9/FacialAge/BNav_EC2/DepthDuration/v2_depth_duration_MTurk/v2_DepthDuration_HTML.html#466,466,1280,657,1280,800,8-30-2022,9-56-49,54,depth_duration_stimuli/002340_2014-06-28_20-05-46_260595134347_rgbf000113-resize_0/002340_2014-06-28_20-05-46_260595134347_rgbf000113-resize_0-target.png,125,2.4735,2,1835,124,meters,jsons/VE125_randls_39_rotated.json,984309,1208406,30,Woman
54,524441,DepthScenes,duration_manipulation_targetAtFixation,jsons/VE125_randls_39_rotated.json,http://54.235.29.9/FacialAge/BNav_EC2/DepthDuration/v2_depth_duration_MTurk/v2_DepthDuration_HTML.html#466,466,1280,657,1280,800,8-30-2022,9-56-49,55,depth_duration_stimuli/001016_2014-06-09_16-16-10_260595134347_rgbf000112-resize_5/001016_2014-06-09_16-16-10_260595134347_rgbf000112-resize_5-target.png,125,1.6565,3,2065,123,meters,jsons/VE125_randls_39_rotated.json,984309,1208406,30,Woman
55,524441,DepthScenes,duration_manipulation_targetAtFixation,jsons/VE125_randls_39_rotated.json,http://54.235.29.9/FacialAge/BNav_EC2/DepthDuration/v2_depth_duration_MTurk/v2_DepthDuration_HTML.html#466,466,1280,657,1280,800,8-30-2022,9-56-49,56,depth_duration_stimuli/003338_2014-05-20_11-01-23_094959634447_rgbf000051-resize_6/003338_2014-05-20_11-01-23_094959634447_rgbf000051-resize_6-target.png,125,1.693,2,1877,124,meters,jsons/VE125_randls_39_rotated.json,984309,1208406,30,Woman
56,524441,DepthScenes,duration_manipulation_targetAtFixation,jsons/VE125_randls_39_rotated.json,http://54.235.29.9/FacialAge/BNav_EC2/DepthDuration/v2_depth_duration_MTurk/v2_DepthDuration_HTML.html#466,466,1280,657,1280,800,8-30-2022,9-56-49,57,depth_duration_stimuli/002509_2014-06-24_13-19-22_094959634447_rgbf000077-resize_0/002509_2014-06-24_13-19-22_094959634447_rgbf000077-resize_0-target.png,125,1.3065,5,2175,124,meters,jsons/VE125_randls_39_rotated.json,984309,1208406,30,Woman
57,524441,DepthScenes,duration_manipulation_targetAtFixation,jsons/VE125_randls_39_rotated.json,http://54.235.29.9/FacialAge/BNav_EC2/DepthDuration/v2_depth_duration_MTurk/v2_DepthDuration_HTML.html#466,466,1280,657,1280,800,8-30-2022,9-56-49,58,depth_duration_stimuli/000734_2014-06-08_17-39-11_260595134347_rgbf000128-resize_2/000734_2014-06-08_17-39-11_260595134347_rgbf000128-resize_2-target.png,125,4.098,9,2269,121,meters,jsons/VE125_randls_39_rotated.json,984309,1208406,30,Woman
58,524441,DepthScenes,duration_manipulation_targetAtFixation,jsons/VE125_randls_39_rotated.json,http://54.235.29.9/FacialAge/BNav_EC2/DepthDuration/v2_depth_duration_MTurk/v2_DepthDuration_HTML.html#466,466,1280,657,1280,800,8-30-2022,9-56-49,59,depth_duration_stimuli/000739_2014-06-08_18-45-58_260595134347_rgbf000068-resize_1/000739_2014-06-08_18-45-58_260595134347_rgbf000068-resize_1-target.png,125,3.534,7,2331,124,meters,jsons/VE125_randls_39_rotated.json,984309,1208406,30,Woman
59,524441,DepthScenes,duration_manipulation_targetAtFixation,jsons/VE125_randls_39_rotated.json,http://54.235.29.9/FacialAge/BNav_EC2/DepthDuration/v2_depth_duration_MTurk/v2_DepthDuration_HTML.html#466,466,1280,657,1280,800,8-30-2022,9-56-49,60,depth_duration_stimuli/002750_2014-06-22_19-08-03_094959634447_rgbf000094-resize_4/002750_2014-06-22_19-08-03_094959634447_rgbf000094-resize_4-target.png,125,2.354,6,2340,123,meters,jsons/VE125_randls_39_rotated.json,984309,1208406,30,Woman
60,524441,DepthScenes,duration_manipulation_targetAtFixation,jsons/VE125_randls_39_rotated.json,http://54.235.29.9/FacialAge/BNav_EC2/DepthDuration/v2_depth_duration_MTurk/v2_DepthDuration_HTML.html#466,466,1280,657,1280,800,8-30-2022,9-56-49,61,depth_duration_stimuli/002549_2014-06-24_13-41-39_094959634447_rgbf000022-resize_3/002549_2014-06-24_13-41-39_094959634447_rgbf000022-resize_3-target.png,125,1.476,6,5358,132,meters,jsons/VE125_randls_39_rotated.json,984309,1208406,30,Woman
61,524441,DepthScenes,duration_manipulation_targetAtFixation,jsons/VE125_randls_39_rotated.json,http://54.235.29.9/FacialAge/BNav_EC2/DepthDuration/v2_depth_duration_MTurk/v2_DepthDuration_HTML.html#466,466,1280,657,1280,800,8-30-2022,9-56-49,62,depth_duration_stimuli/003228_2014-05-14_13-42-35_094959634447_rgbf000101-resize_1/003228_2014-05-14_13-42-35_094959634447_rgbf000101-resize_1-target.png,125,1.9680000000000002,5,23665,123,meters,jsons/VE125_randls_39_rotated.json,984309,1208406,30,Woman
62,524441,DepthScenes,duration_manipulation_targetAtFixation,jsons/VE125_randls_39_rotated.json,http://54.235.29.9/FacialAge/BNav_EC2/DepthDuration/v2_depth_duration_MTurk/v2_DepthDuration_HTML.html#466,466,1280,657,1280,800,8-30-2022,9-56-49,63,depth_duration_stimuli/002600_2014-06-24_14-27-04_094959634447_rgbf000074-resize_2/002600_2014-06-24_14-27-04_094959634447_rgbf000074-resize_2-target.png,125,2.7575,7,2178,125,meters,jsons/VE125_randls_39_rotated.json,984309,1208406,30,Woman
63,524441,DepthScenes,duration_manipulation_targetAtFixation,jsons/VE125_randls_39_rotated.json,http://54.235.29.9/FacialAge/BNav_EC2/DepthDuration/v2_depth_duration_MTurk/v2_DepthDuration_HTML.html#466,466,1280,657,1280,800,8-30-2022,9-56-49,64,depth_duration_stimuli/000665_2014-06-09_20-42-35_260595134347_rgbf000110-resize_1/000665_2014-06-09_20-42-35_260595134347_rgbf000110-resize_1-target.png,125,3.057,9,2341,124,meters,jsons/VE125_randls_39_rotated.json,984309,1208406,30,Woman
64,524441,DepthScenes,duration_manipulation_targetAtFixation,jsons/VE125_randls_39_rotated.json,http://54.235.29.9/FacialAge/BNav_EC2/DepthDuration/v2_depth_duration_MTurk/v2_DepthDuration_HTML.html#466,466,1280,657,1280,800,8-30-2022,9-56-49,65,depth_duration_stimuli/001150_2014-06-17_15-27-34_260595134347_rgbf000108-resize_2/001150_2014-06-17_15-27-34_260595134347_rgbf000108-resize_2-target.png,125,4.0325,1,2576,123,meters,jsons/VE125_randls_39_rotated.json,984309,1208406,30,Woman
65,524441,DepthScenes,duration_manipulation_targetAtFixation,jsons/VE125_randls_39_rotated.json,http://54.235.29.9/FacialAge/BNav_EC2/DepthDuration/v2_depth_duration_MTurk/v2_DepthDuration_HTML.html#466,466,1280,657,1280,800,8-30-2022,9-56-49,66,depth_duration_stimuli/001540_2014-06-20_17-01-05_260595134347_rgbf000086-resize_2/001540_2014-06-20_17-01-05_260595134347_rgbf000086-resize-original.jpg,125,1.459,4,2102,123,meters,jsons/VE125_randls_39_rotated.json,984309,1208406,30,Woman
66,524441,DepthScenes,duration_manipulation_targetAtFixation,jsons/VE125_randls_39_rotated.json,http://54.235.29.9/FacialAge/BNav_EC2/DepthDuration/v2_depth_duration_MTurk/v2_DepthDuration_HTML.html#466,466,1280,657,1280,800,8-30-2022,9-56-49,67,depth_duration_stimuli/003495_2014-05-21_16-01-51_094959634447_rgbf000100-resize_3/003495_2014-05-21_16-01-51_094959634447_rgbf000100-resize_3-target.png,125,1.6255,8,1908,124,meters,jsons/VE125_randls_39_rotated.json,984309,1208406,30,Woman
67,524441,DepthScenes,duration_manipulation_targetAtFixation,jsons/VE125_randls_39_rotated.json,http://54.235.29.9/FacialAge/BNav_EC2/DepthDuration/v2_depth_duration_MTurk/v2_DepthDuration_HTML.html#466,466,1280,657,1280,800,8-30-2022,9-56-49,68,depth_duration_stimuli/001244_2014-06-17_16-47-45_260595134347_rgbf000030-resize_4/001244_2014-06-17_16-47-45_260595134347_rgbf000030-resize_4-target.png,125,2.0425,1,2655,120,meters,jsons/VE125_randls_39_rotated.json,984309,1208406,30,Woman
68,524441,DepthScenes,duration_manipulation_targetAtFixation,jsons/VE125_randls_39_rotated.json,http://54.235.29.9/FacialAge/BNav_EC2/DepthDuration/v2_depth_duration_MTurk/v2_DepthDuration_HTML.html#466,466,1280,657,1280,800,8-30-2022,9-56-49,69,depth_duration_stimuli/002639_2014-06-24_14-51-37_094959634447_rgbf000074-resize_4/002639_2014-06-24_14-51-37_094959634447_rgbf000074-resize_4-target.png,125,4.0375,3,2224,122,meters,jsons/VE125_randls_39_rotated.json,984309,1208406,30,Woman
69,524441,DepthScenes,duration_manipulation_targetAtFixation,jsons/VE125_randls_39_rotated.json,http://54.235.29.9/FacialAge/BNav_EC2/DepthDuration/v2_depth_duration_MTurk/v2_DepthDuration_HTML.html#466,466,1280,657,1280,800,8-30-2022,9-56-49,70,depth_duration_stimuli/003292_2014-05-14_21-53-49_094959634447_rgbf000100-resize_2/003292_2014-05-14_21-53-49_094959634447_rgbf000100-resize_2-target.png,125,3.4815,4,1681,136,meters,jsons/VE125_randls_39_rotated.json,984309,1208406,30,Woman
70,524441,DepthScenes,duration_manipulation_targetAtFixation,jsons/VE125_randls_39_rotated.json,http://54.235.29.9/FacialAge/BNav_EC2/DepthDuration/v2_depth_duration_MTurk/v2_DepthDuration_HTML.html#466,466,1280,657,1280,800,8-30-2022,9-56-49,71,depth_duration_stimuli/002199_2014-06-28_18-33-56_260595134347_rgbf000074-resize_0/002199_2014-06-28_18-33-56_260595134347_rgbf000074-resize_0-target.png,125,1.996,7,2240,125,meters,jsons/VE125_randls_39_rotated.json,984309,1208406,30,Woman
71,524441,DepthScenes,duration_manipulation_targetAtFixation,jsons/VE125_randls_39_rotated.json,http://54.235.29.9/FacialAge/BNav_EC2/DepthDuration/v2_depth_duration_MTurk/v2_DepthDuration_HTML.html#466,466,1280,657,1280,800,8-30-2022,9-56-49,72,depth_duration_stimuli/001056_2014-06-08_18-46-44_260595134347_rgbf000068-resize_0/001056_2014-06-08_18-46-44_260595134347_rgbf000068-resize_0-target.png,125,2.6625,8,2316,123,meters,jsons/VE125_randls_39_rotated.json,984309,1208406,30,Woman
72,524441,DepthScenes,duration_manipulation_targetAtFixation,jsons/VE125_randls_39_rotated.json,http://54.235.29.9/FacialAge/BNav_EC2/DepthDuration/v2_depth_duration_MTurk/v2_DepthDuration_HTML.html#466,466,1280,657,1280,800,8-30-2022,9-56-49,73,depth_duration_stimuli/001815_2014-06-26_20-52-55_260595134347_rgbf000020-resize_0/001815_2014-06-26_20-52-55_260595134347_rgbf000020-resize_0-target.png,125,3.3865,7,2162,124,meters,jsons/VE125_randls_39_rotated.json,984309,1208406,30,Woman
73,524441,DepthScenes,duration_manipulation_targetAtFixation,jsons/VE125_randls_39_rotated.json,http://54.235.29.9/FacialAge/BNav_EC2/DepthDuration/v2_depth_duration_MTurk/v2_DepthDuration_HTML.html#466,466,1280,657,1280,800,8-30-2022,9-56-49,74,depth_duration_stimuli/001808_2014-06-26_20-50-58_260595134347_rgbf000029-resize_1/001808_2014-06-26_20-50-58_260595134347_rgbf000029-resize_1-target.png,125,4.249,7,1895,124,meters,jsons/VE125_randls_39_rotated.json,984309,1208406,30,Woman
74,524441,DepthScenes,duration_manipulation_targetAtFixation,jsons/VE125_randls_39_rotated.json,http://54.235.29.9/FacialAge/BNav_EC2/DepthDuration/v2_depth_duration_MTurk/v2_DepthDuration_HTML.html#466,466,1280,657,1280,800,8-30-2022,9-56-49,75,depth_duration_stimuli/002425_2014-06-28_20-27-29_260595134347_rgbf000031-resize_8/002425_2014-06-28_20-27-29_260595134347_rgbf000031-resize_8-target.png,125,3.8960000000000004,5,2465,124,meters,jsons/VE125_randls_39_rotated.json,984309,1208406,30,Woman
75,524441,DepthScenes,duration_manipulation_targetAtFixation,jsons/VE125_randls_39_rotated.json,http://54.235.29.9/FacialAge/BNav_EC2/DepthDuration/v2_depth_duration_MTurk/v2_DepthDuration_HTML.html#466,466,1280,657,1280,800,8-30-2022,9-56-49,76,depth_duration_stimuli/000642_2014-06-08_16-59-25_260595134347_rgbf000098-resize_2/000642_2014-06-08_16-59-25_260595134347_rgbf000098-resize_2-target.png,125,2.8815,21,4449,125,meters,jsons/VE125_randls_39_rotated.json,984309,1208406,30,Woman
76,524441,DepthScenes,duration_manipulation_targetAtFixation,jsons/VE125_randls_39_rotated.json,http://54.235.29.9/FacialAge/BNav_EC2/DepthDuration/v2_depth_duration_MTurk/v2_DepthDuration_HTML.html#466,466,1280,657,1280,800,8-30-2022,9-56-49,77,depth_duration_stimuli/001450_2014-06-19_17-02-03_260595134347_rgbf000203-resize_4/001450_2014-06-19_17-02-03_260595134347_rgbf000203-resize_4-target.png,125,4.0106666666667,2,2235,122,meters,jsons/VE125_randls_39_rotated.json,984309,1208406,30,Woman
77,524441,DepthScenes,duration_manipulation_targetAtFixation,jsons/VE125_randls_39_rotated.json,http://54.235.29.9/FacialAge/BNav_EC2/DepthDuration/v2_depth_duration_MTurk/v2_DepthDuration_HTML.html#466,466,1280,657,1280,800,8-30-2022,9-56-49,78,depth_duration_stimuli/001449_2014-06-19_17-01-27_260595134347_rgbf000116-resize_2/001449_2014-06-19_17-01-27_260595134347_rgbf000116-resize_2-target.png,125,3.452,7,2098,124,meters,jsons/VE125_randls_39_rotated.json,984309,1208406,30,Woman
78,524441,DepthScenes,duration_manipulation_targetAtFixation,jsons/VE125_randls_39_rotated.json,http://54.235.29.9/FacialAge/BNav_EC2/DepthDuration/v2_depth_duration_MTurk/v2_DepthDuration_HTML.html#466,466,1280,657,1280,800,8-30-2022,9-56-49,79,depth_duration_stimuli/000780_2014-06-08_22-28-29_260595134347_rgbf000126-resize_1/000780_2014-06-08_22-28-29_260595134347_rgbf000126-resize_1-target.png,125,3.3825,8,1905,124,meters,jsons/VE125_randls_39_rotated.json,984309,1208406,30,Woman
79,524441,DepthScenes,duration_manipulation_targetAtFixation,jsons/VE125_randls_39_rotated.json,http://54.235.29.9/FacialAge/BNav_EC2/DepthDuration/v2_depth_duration_MTurk/v2_DepthDuration_HTML.html#466,466,1280,657,1280,800,8-30-2022,9-56-49,80,depth_duration_stimuli/002445_2014-06-28_20-32-16_260595134347_rgbf000029-resize_4/002445_2014-06-28_20-32-16_260595134347_rgbf000029-resize_4-target.png,125,2.5315,3,2458,124,meters,jsons/VE125_randls_39_rotated.json,984309,1208406,30,Woman
80,524441,DepthScenes,duration_manipulation_targetAtFixation,jsons/VE125_randls_39_rotated.json,http://54.235.29.9/FacialAge/BNav_EC2/DepthDuration/v2_depth_duration_MTurk/v2_DepthDuration_HTML.html#466,466,1280,657,1280,800,8-30-2022,9-56-49,81,depth_duration_stimuli/000635_2014-06-08_16-38-42_260595134347_rgbf000106-resize_1/000635_2014-06-08_16-38-42_260595134347_rgbf000106-resize_1-target.png,125,2.074,7,1995,123,meters,jsons/VE125_randls_39_rotated.json,984309,1208406,30,Woman
81,524441,DepthScenes,duration_manipulation_targetAtFixation,jsons/VE125_randls_39_rotated.json,http://54.235.29.9/FacialAge/BNav_EC2/DepthDuration/v2_depth_duration_MTurk/v2_DepthDuration_HTML.html#466,466,1280,657,1280,800,8-30-2022,9-56-49,82,depth_duration_stimuli/002279_2014-06-28_18-55-32_260595134347_rgbf000040-resize_5/002279_2014-06-28_18-55-32_260595134347_rgbf000040-resize_5-target.png,125,1.5043333333333,8,1804,118,meters,jsons/VE125_randls_39_rotated.json,984309,1208406,30,Woman
82,524441,DepthScenes,duration_manipulation_targetAtFixation,jsons/VE125_randls_39_rotated.json,http://54.235.29.9/FacialAge/BNav_EC2/DepthDuration/v2_depth_duration_MTurk/v2_DepthDuration_HTML.html#466,466,1280,657,1280,800,8-30-2022,9-56-49,83,depth_duration_stimuli/000854_2014-06-09_19-43-13_260595134347_rgbf000066-resize_0/000854_2014-06-09_19-43-13_260595134347_rgbf000066-resize_0-target.png,125,3.068,2,2170,124,meters,jsons/VE125_randls_39_rotated.json,984309,1208406,30,Woman
83,524441,DepthScenes,duration_manipulation_targetAtFixation,jsons/VE125_randls_39_rotated.json,http://54.235.29.9/FacialAge/BNav_EC2/DepthDuration/v2_depth_duration_MTurk/v2_DepthDuration_HTML.html#466,466,1280,657,1280,800,8-30-2022,9-56-49,84,depth_duration_stimuli/000758_2014-06-08_22-05-08_260595134347_rgbf000085-resize_0/000758_2014-06-08_22-05-08_260595134347_rgbf000085-resize_0-target.png,125,3.3810000000000002,1,1949,138,meters,jsons/VE125_randls_39_rotated.json,984309,1208406,30,Woman
84,524441,DepthScenes,duration_manipulation_targetAtFixation,jsons/VE125_randls_39_rotated.json,http://54.235.29.9/FacialAge/BNav_EC2/DepthDuration/v2_depth_duration_MTurk/v2_DepthDuration_HTML.html#466,466,1280,657,1280,800,8-30-2022,9-56-49,85,depth_duration_stimuli/003423_2014-05-21_10-23-26_094959634447_rgbf002665-resize_2/003423_2014-05-21_10-23-26_094959634447_rgbf002665-resize_2-target.png,125,3.2575,3,2243,125,meters,jsons/VE125_randls_39_rotated.json,984309,1208406,30,Woman
85,524441,DepthScenes,duration_manipulation_targetAtFixation,jsons/VE125_randls_39_rotated.json,http://54.235.29.9/FacialAge/BNav_EC2/DepthDuration/v2_depth_duration_MTurk/v2_DepthDuration_HTML.html#466,466,1280,657,1280,800,8-30-2022,9-56-49,86,depth_duration_stimuli/002905_2014-06-03_18-04-43_094959634447_rgbf000151-resize_2/002905_2014-06-03_18-04-43_094959634447_rgbf000151-resize_2-target.png,125,2.0295,1,2630,121,meters,jsons/VE125_randls_39_rotated.json,984309,1208406,30,Woman
86,524441,DepthScenes,duration_manipulation_targetAtFixation,jsons/VE125_randls_39_rotated.json,http://54.235.29.9/FacialAge/BNav_EC2/DepthDuration/v2_depth_duration_MTurk/v2_DepthDuration_HTML.html#466,466,1280,657,1280,800,8-30-2022,9-56-49,87,depth_duration_stimuli/000502_2014-06-08_23-02-32_260595134347_rgbf000063-resize_4/000502_2014-06-08_23-02-32_260595134347_rgbf000063-resize_4-target.png,125,2.431,10,2131,123,meters,jsons/VE125_randls_39_rotated.json,984309,1208406,30,Woman
87,524441,DepthScenes,duration_manipulation_targetAtFixation,jsons/VE125_randls_39_rotated.json,http://54.235.29.9/FacialAge/BNav_EC2/DepthDuration/v2_depth_duration_MTurk/v2_DepthDuration_HTML.html#466,466,1280,657,1280,800,8-30-2022,9-56-49,88,depth_duration_stimuli/001199_2014-06-17_16-03-48_260595134347_rgbf000077-resize_0/001199_2014-06-17_16-03-48_260595134347_rgbf000077-resize_0-target.png,125,3.4375,1,1860,132,meters,jsons/VE125_randls_39_rotated.json,984309,1208406,30,Woman
88,524441,DepthScenes,duration_manipulation_targetAtFixation,jsons/VE125_randls_39_rotated.json,http://54.235.29.9/FacialAge/BNav_EC2/DepthDuration/v2_depth_duration_MTurk/v2_DepthDuration_HTML.html#466,466,1280,657,1280,800,8-30-2022,9-56-49,89,depth_duration_stimuli/000483_2014-06-09_20-41-45_260595134347_rgbf000116-resize_4/000483_2014-06-09_20-41-45_260595134347_rgbf000116-resize_4-target.png,125,1.337,5,1961,123,meters,jsons/VE125_randls_39_rotated.json,984309,1208406,30,Woman
89,524441,DepthScenes,duration_manipulation_targetAtFixation,jsons/VE125_randls_39_rotated.json,http://54.235.29.9/FacialAge/BNav_EC2/DepthDuration/v2_depth_duration_MTurk/v2_DepthDuration_HTML.html#466,466,1280,657,1280,800,8-30-2022,9-56-49,90,depth_duration_stimuli/000469_2014-06-09_19-42-10_260595134347_rgbf000081-resize_1/000469_2014-06-09_19-42-10_260595134347_rgbf000081-resize_1-target.png,125,1.652,8,2355,139,meters,jsons/VE125_randls_39_rotated.json,984309,1208406,30,Woman
90,524441,DepthScenes,duration_manipulation_targetAtFixation,jsons/VE125_randls_39_rotated.json,http://54.235.29.9/FacialAge/BNav_EC2/DepthDuration/v2_depth_duration_MTurk/v2_DepthDuration_HTML.html#466,466,1280,657,1280,800,8-30-2022,9-56-49,91,depth_duration_stimuli/000109_2014-05-14_23-41-52_260595134347_rgbf000035-resize_9/000109_2014-05-14_23-41-52_260595134347_rgbf000035-resize_9-target.png,125,1.3545,8,1855,127,meters,jsons/VE125_randls_39_rotated.json,984309,1208406,30,Woman
91,524441,DepthScenes,duration_manipulation_targetAtFixation,jsons/VE125_randls_39_rotated.json,http://54.235.29.9/FacialAge/BNav_EC2/DepthDuration/v2_depth_duration_MTurk/v2_DepthDuration_HTML.html#466,466,1280,657,1280,800,8-30-2022,9-56-49,92,depth_duration_stimuli/000470_2014-06-09_19-42-40_260595134347_rgbf000094-resize_1/000470_2014-06-09_19-42-40_260595134347_rgbf000094-resize_1-target.png,125,1.831,6,3486,118,meters,jsons/VE125_randls_39_rotated.json,984309,1208406,30,Woman
92,524441,DepthScenes,duration_manipulation_targetAtFixation,jsons/VE125_randls_39_rotated.json,http://54.235.29.9/FacialAge/BNav_EC2/DepthDuration/v2_depth_duration_MTurk/v2_DepthDuration_HTML.html#466,466,1280,657,1280,800,8-30-2022,9-56-49,93,depth_duration_stimuli/000677_2014-06-08_23-10-32_260595134347_rgbf000158-resize_6/000677_2014-06-08_23-10-32_260595134347_rgbf000158-resize_6-target.png,125,3.556,7,2177,124,meters,jsons/VE125_randls_39_rotated.json,984309,1208406,30,Woman
93,524441,DepthScenes,duration_manipulation_targetAtFixation,jsons/VE125_randls_39_rotated.json,http://54.235.29.9/FacialAge/BNav_EC2/DepthDuration/v2_depth_duration_MTurk/v2_DepthDuration_HTML.html#466,466,1280,657,1280,800,8-30-2022,9-56-49,94,depth_duration_stimuli/001029_2014-06-08_13-17-57_260595134347_rgbf000065-resize_1/001029_2014-06-08_13-17-57_260595134347_rgbf000065-resize_1-target.png,125,3.0835,9,3011,124,meters,jsons/VE125_randls_39_rotated.json,984309,1208406,30,Woman
94,524441,DepthScenes,duration_manipulation_targetAtFixation,jsons/VE125_randls_39_rotated.json,http://54.235.29.9/FacialAge/BNav_EC2/DepthDuration/v2_depth_duration_MTurk/v2_DepthDuration_HTML.html#466,466,1280,657,1280,800,8-30-2022,9-56-49,95,depth_duration_stimuli/002953_2014-06-08_17-32-18_094959634447_rgbf000059-resize_5/002953_2014-06-08_17-32-18_094959634447_rgbf000059-resize_5-target.png,125,1.551,7,2367,125,meters,jsons/VE125_randls_39_rotated.json,984309,1208406,30,Woman
95,524441,DepthScenes,duration_manipulation_targetAtFixation,jsons/VE125_randls_39_rotated.json,http://54.235.29.9/FacialAge/BNav_EC2/DepthDuration/v2_depth_duration_MTurk/v2_DepthDuration_HTML.html#466,466,1280,657,1280,800,8-30-2022,9-56-49,96,depth_duration_stimuli/000878_2014-06-08_22-52-45_260595134347_rgbf000045-resize_2/000878_2014-06-08_22-52-45_260595134347_rgbf000045-resize_2-target.png,125,2.092,8,2419,124,meters,jsons/VE125_randls_39_rotated.json,984309,1208406,30,Woman
96,524441,DepthScenes,duration_manipulation_targetAtFixation,jsons/VE125_randls_39_rotated.json,http://54.235.29.9/FacialAge/BNav_EC2/DepthDuration/v2_depth_duration_MTurk/v2_DepthDuration_HTML.html#466,466,1280,657,1280,800,8-30-2022,9-56-49,97,depth_duration_stimuli/001132_2014-06-17_14-48-54_260595134347_rgbf000100-resize_2/001132_2014-06-17_14-48-54_260595134347_rgbf000100-resize_2-target.png,125,3.753,5,2744,123,meters,jsons/VE125_randls_39_rotated.json,984309,1208406,30,Woman
97,524441,DepthScenes,duration_manipulation_targetAtFixation,jsons/VE125_randls_39_rotated.json,http://54.235.29.9/FacialAge/BNav_EC2/DepthDuration/v2_depth_duration_MTurk/v2_DepthDuration_HTML.html#466,466,1280,657,1280,800,8-30-2022,9-56-49,98,depth_duration_stimuli/001133_2014-06-17_14-49-16_260595134347_rgbf000100-resize_0/001133_2014-06-17_14-49-16_260595134347_rgbf000100-resize_0-target.png,125,4.2115,5,2269,113,meters,jsons/VE125_randls_39_rotated.json,984309,1208406,30,Woman
98,524441,DepthScenes,duration_manipulation_targetAtFixation,jsons/VE125_randls_39_rotated.json,http://54.235.29.9/FacialAge/BNav_EC2/DepthDuration/v2_depth_duration_MTurk/v2_DepthDuration_HTML.html#466,466,1280,657,1280,800,8-30-2022,9-56-49,99,depth_duration_stimuli/001222_2014-06-17_16-24-06_260595134347_rgbf000073-resize_0/001222_2014-06-17_16-24-06_260595134347_rgbf000073-resize-original.jpg,125,1.4385,3,2322,130,meters,jsons/VE125_randls_39_rotated.json,984309,1208406,30,Woman
99,524441,DepthScenes,duration_manipulation_targetAtFixation,jsons/VE125_randls_39_rotated.json,http://54.235.29.9/FacialAge/BNav_EC2/DepthDuration/v2_depth_duration_MTurk/v2_DepthDuration_HTML.html#466,466,1280,657,1280,800,8-30-2022,9-56-49,100,depth_duration_stimuli/001094_2014-06-15_17-36-00_260595134347_rgbf000205-resize_0/001094_2014-06-15_17-36-00_260595134347_rgbf000205-resize_0-target.png,125,4.2175,1,2163,124,meters,jsons/VE125_randls_39_rotated.json,984309,1208406,30,Woman
100,524441,DepthScenes,duration_manipulation_targetAtFixation,jsons/VE125_randls_39_rotated.json,http://54.235.29.9/FacialAge/BNav_EC2/DepthDuration/v2_depth_duration_MTurk/v2_DepthDuration_HTML.html#466,466,1280,657,1280,800,8-30-2022,9-56-49,101,depth_duration_stimuli/000692_2014-06-08_13-09-42_260595134347_rgbf000199-resize_2/000692_2014-06-08_13-09-42_260595134347_rgbf000199-resize_2-target.png,125,3.661,5,2227,124,meters,jsons/VE125_randls_39_rotated.json,984309,1208406,30,Woman
101,524441,DepthScenes,duration_manipulation_targetAtFixation,jsons/VE125_randls_39_rotated.json,http://54.235.29.9/FacialAge/BNav_EC2/DepthDuration/v2_depth_duration_MTurk/v2_DepthDuration_HTML.html#466,466,1280,657,1280,800,8-30-2022,9-56-49,102,depth_duration_stimuli/002467_2014-06-28_20-38-07_260595134347_rgbf000026-resize_2/002467_2014-06-28_20-38-07_260595134347_rgbf000026-resize_2-target.png,125,4.742,7,2328,124,meters,jsons/VE125_randls_39_rotated.json,984309,1208406,30,Woman
102,524441,DepthScenes,duration_manipulation_targetAtFixation,jsons/VE125_randls_39_rotated.json,http://54.235.29.9/FacialAge/BNav_EC2/DepthDuration/v2_depth_duration_MTurk/v2_DepthDuration_HTML.html#466,466,1280,657,1280,800,8-30-2022,9-56-49,103,depth_duration_stimuli/002570_2014-06-24_13-59-54_094959634447_rgbf000059-resize_0/002570_2014-06-24_13-59-54_094959634447_rgbf000059-resize_0-target.png,125,4.037,5,2004,124,meters,jsons/VE125_randls_39_rotated.json,984309,1208406,30,Woman
103,524441,DepthScenes,duration_manipulation_targetAtFixation,jsons/VE125_randls_39_rotated.json,http://54.235.29.9/FacialAge/BNav_EC2/DepthDuration/v2_depth_duration_MTurk/v2_DepthDuration_HTML.html#466,466,1280,657,1280,800,8-30-2022,9-56-49,104,depth_duration_stimuli/002805_2014-06-22_19-54-03_094959634447_rgbf000079-resize_1/002805_2014-06-22_19-54-03_094959634447_rgbf000079-resize_1-target.png,125,3.1439999999999997,7,2130,123,meters,jsons/VE125_randls_39_rotated.json,984309,1208406,30,Woman
104,524441,DepthScenes,duration_manipulation_targetAtFixation,jsons/VE125_randls_39_rotated.json,http://54.235.29.9/FacialAge/BNav_EC2/DepthDuration/v2_depth_duration_MTurk/v2_DepthDuration_HTML.html#466,466,1280,657,1280,800,8-30-2022,9-56-49,105,depth_duration_stimuli/000906_2014-06-08_13-35-43_260595134347_rgbf000155-resize_1/000906_2014-06-08_13-35-43_260595134347_rgbf000155-resize_1-target.png,125,2.8489999999999998,1,2282,124,meters,jsons/VE125_randls_39_rotated.json,984309,1208406,30,Woman
105,524441,DepthScenes,duration_manipulation_targetAtFixation,jsons/VE125_randls_39_rotated.json,http://54.235.29.9/FacialAge/BNav_EC2/DepthDuration/v2_depth_duration_MTurk/v2_DepthDuration_HTML.html#466,466,1280,657,1280,800,8-30-2022,9-56-49,106,depth_duration_stimuli/003081_2014-06-15_15-19-16_094959634447_rgbf000150-resize_1/003081_2014-06-15_15-19-16_094959634447_rgbf000150-resize_1-target.png,125,3.9125,3,2019,136,meters,jsons/VE125_randls_39_rotated.json,984309,1208406,30,Woman
106,524441,DepthScenes,duration_manipulation_targetAtFixation,jsons/VE125_randls_39_rotated.json,http://54.235.29.9/FacialAge/BNav_EC2/DepthDuration/v2_depth_duration_MTurk/v2_DepthDuration_HTML.html#466,466,1280,657,1280,800,8-30-2022,9-56-49,107,depth_duration_stimuli/001417_2014-06-19_16-25-36_260595134347_rgbf000115-resize_5/001417_2014-06-19_16-25-36_260595134347_rgbf000115-resize_5-target.png,125,4.6255,7,2410,123,meters,jsons/VE125_randls_39_rotated.json,984309,1208406,30,Woman
107,524441,DepthScenes,duration_manipulation_targetAtFixation,jsons/VE125_randls_39_rotated.json,http://54.235.29.9/FacialAge/BNav_EC2/DepthDuration/v2_depth_duration_MTurk/v2_DepthDuration_HTML.html#466,466,1280,657,1280,800,8-30-2022,9-56-49,108,depth_duration_stimuli/001571_2014-06-20_17-21-32_260595134347_rgbf000089-resize_1/001571_2014-06-20_17-21-32_260595134347_rgbf000089-resize_1-target.png,125,1.86,6,2771,112,meters,jsons/VE125_randls_39_rotated.json,984309,1208406,30,Woman
108,524441,DepthScenes,duration_manipulation_targetAtFixation,jsons/VE125_randls_39_rotated.json,http://54.235.29.9/FacialAge/BNav_EC2/DepthDuration/v2_depth_duration_MTurk/v2_DepthDuration_HTML.html#466,466,1280,657,1280,800,8-30-2022,9-56-49,109,depth_duration_stimuli/002272_2014-06-28_18-53-56_260595134347_rgbf000067-resize_2/002272_2014-06-28_18-53-56_260595134347_rgbf000067-resize_2-target.png,125,1.138,8,2306,127,meters,jsons/VE125_randls_39_rotated.json,984309,1208406,30,Woman
109,524441,DepthScenes,duration_manipulation_targetAtFixation,jsons/VE125_randls_39_rotated.json,http://54.235.29.9/FacialAge/BNav_EC2/DepthDuration/v2_depth_duration_MTurk/v2_DepthDuration_HTML.html#466,466,1280,657,1280,800,8-30-2022,9-56-49,110,depth_duration_stimuli/003587_2014-05-23_16-48-02_094959634447_rgbf002384-resize_2/003587_2014-05-23_16-48-02_094959634447_rgbf002384-resize_2-target.png,125,1.357,7,2120,137,meters,jsons/VE125_randls_39_rotated.json,984309,1208406,30,Woman
110,524441,DepthScenes,duration_manipulation_targetAtFixation,jsons/VE125_randls_39_rotated.json,http://54.235.29.9/FacialAge/BNav_EC2/DepthDuration/v2_depth_duration_MTurk/v2_DepthDuration_HTML.html#466,466,1280,657,1280,800,8-30-2022,9-56-49,111,depth_duration_stimuli/001167_2014-06-17_15-38-07_260595134347_rgbf000108-resize_0/001167_2014-06-17_15-38-07_260595134347_rgbf000108-resize_0-target.png,125,1.8505,5,3629,123,meters,jsons/VE125_randls_39_rotated.json,984309,1208406,30,Woman
111,524441,DepthScenes,duration_manipulation_targetAtFixation,jsons/VE125_randls_39_rotated.json,http://54.235.29.9/FacialAge/BNav_EC2/DepthDuration/v2_depth_duration_MTurk/v2_DepthDuration_HTML.html#466,466,1280,657,1280,800,8-30-2022,9-56-49,112,depth_duration_stimuli/001650_2014-06-20_12-09-00_260595134347_rgbf000087-resize_3/001650_2014-06-20_12-09-00_260595134347_rgbf000087-resize_3-target.png,125,1.9505,6,3158,114,meters,jsons/VE125_randls_39_rotated.json,984309,1208406,30,Woman
112,524441,DepthScenes,duration_manipulation_targetAtFixation,jsons/VE125_randls_39_rotated.json,http://54.235.29.9/FacialAge/BNav_EC2/DepthDuration/v2_depth_duration_MTurk/v2_DepthDuration_HTML.html#466,466,1280,657,1280,800,8-30-2022,9-56-49,113,depth_duration_stimuli/000682_2014-06-08_23-14-58_260595134347_rgbf000041-resize_5/000682_2014-06-08_23-14-58_260595134347_rgbf000041-resize_5-target.png,125,2.7239999999999998,3,6913,123,meters,jsons/VE125_randls_39_rotated.json,984309,1208406,30,Woman
113,524441,DepthScenes,duration_manipulation_targetAtFixation,jsons/VE125_randls_39_rotated.json,http://54.235.29.9/FacialAge/BNav_EC2/DepthDuration/v2_depth_duration_MTurk/v2_DepthDuration_HTML.html#466,466,1280,657,1280,800,8-30-2022,9-56-49,114,depth_duration_stimuli/000709_2014-06-08_13-51-55_260595134347_rgbf000068-resize_3/000709_2014-06-08_13-51-55_260595134347_rgbf000068-resize_3-target.png,125,1.8030000000000002,8,3057,124,meters,jsons/VE125_randls_39_rotated.json,984309,1208406,30,Woman
114,524441,DepthScenes,duration_manipulation_targetAtFixation,jsons/VE125_randls_39_rotated.json,http://54.235.29.9/FacialAge/BNav_EC2/DepthDuration/v2_depth_duration_MTurk/v2_DepthDuration_HTML.html#466,466,1280,657,1280,800,8-30-2022,9-56-49,115,depth_duration_stimuli/002057_2014-06-24_21-00-13_260595134347_rgbf000120-resize_1/002057_2014-06-24_21-00-13_260595134347_rgbf000120-resize_1-target.png,125,2.967,9,2607,122,meters,jsons/VE125_randls_39_rotated.json,984309,1208406,30,Woman
115,524441,DepthScenes,duration_manipulation_targetAtFixation,jsons/VE125_randls_39_rotated.json,http://54.235.29.9/FacialAge/BNav_EC2/DepthDuration/v2_depth_duration_MTurk/v2_DepthDuration_HTML.html#466,466,1280,657,1280,800,8-30-2022,9-56-49,116,depth_duration_stimuli/002414_2014-06-28_20-24-58_260595134347_rgbf000067-resize_4/002414_2014-06-28_20-24-58_260595134347_rgbf000067-resize_4-target.png,125,4.363,1,2506,126,meters,jsons/VE125_randls_39_rotated.json,984309,1208406,30,Woman
116,524441,DepthScenes,duration_manipulation_targetAtFixation,jsons/VE125_randls_39_rotated.json,http://54.235.29.9/FacialAge/BNav_EC2/DepthDuration/v2_depth_duration_MTurk/v2_DepthDuration_HTML.html#466,466,1280,657,1280,800,8-30-2022,9-56-49,117,depth_duration_stimuli/000773_2014-06-08_22-24-54_260595134347_rgbf000093-resize_1/000773_2014-06-08_22-24-54_260595134347_rgbf000093-resize_1-target.png,125,4.973,2,2382,124,meters,jsons/VE125_randls_39_rotated.json,984309,1208406,30,Woman
117,524441,DepthScenes,duration_manipulation_targetAtFixation,jsons/VE125_randls_39_rotated.json,http://54.235.29.9/FacialAge/BNav_EC2/DepthDuration/v2_depth_duration_MTurk/v2_DepthDuration_HTML.html#466,466,1280,657,1280,800,8-30-2022,9-56-49,118,depth_duration_stimuli/000191_2014-05-12_17-07-38_260595134347_rgbf000199-resize_0/000191_2014-05-12_17-07-38_260595134347_rgbf000199-resize_0-target.png,125,3.7995,8,2335,138,meters,jsons/VE125_randls_39_rotated.json,984309,1208406,30,Woman
118,524441,DepthScenes,duration_manipulation_targetAtFixation,jsons/VE125_randls_39_rotated.json,http://54.235.29.9/FacialAge/BNav_EC2/DepthDuration/v2_depth_duration_MTurk/v2_DepthDuration_HTML.html#466,466,1280,657,1280,800,8-30-2022,9-56-49,119,depth_duration_stimuli/000493_2014-06-09_21-01-18_260595134347_rgbf000196-resize_3/000493_2014-06-09_21-01-18_260595134347_rgbf000196-resize_3-target.png,125,3.44,7,2059,124,meters,jsons/VE125_randls_39_rotated.json,984309,1208406,30,Woman
119,524441,DepthScenes,duration_manipulation_targetAtFixation,jsons/VE125_randls_39_rotated.json,http://54.235.29.9/FacialAge/BNav_EC2/DepthDuration/v2_depth_duration_MTurk/v2_DepthDuration_HTML.html#466,466,1280,657,1280,800,8-30-2022,9-56-49,120,depth_duration_stimuli/000787_2014-06-08_22-33-53_260595134347_rgbf000175-resize_1/000787_2014-06-08_22-33-53_260595134347_rgbf000175-resize-original.jpg,125,4.784,6,2408,124,meters,jsons/VE125_randls_39_rotated.json,984309,1208406,30,Woman
120,524441,DepthScenes,duration_manipulation_targetAtFixation,jsons/VE125_randls_39_rotated.json,http://54.235.29.9/FacialAge/BNav_EC2/DepthDuration/v2_depth_duration_MTurk/v2_DepthDuration_HTML.html#466,466,1280,657,1280,800,8-30-2022,9-56-49,121,depth_duration_stimuli/000927_2014-06-09_16-32-30_260595134347_rgbf000123-resize_3/000927_2014-06-09_16-32-30_260595134347_rgbf000123-resize_3-target.png,125,2.6785,3,1851,124,meters,jsons/VE125_randls_39_rotated.json,984309,1208406,30,Woman
121,524441,DepthScenes,duration_manipulation_targetAtFixation,jsons/VE125_randls_39_rotated.json,http://54.235.29.9/FacialAge/BNav_EC2/DepthDuration/v2_depth_duration_MTurk/v2_DepthDuration_HTML.html#466,466,1280,657,1280,800,8-30-2022,9-56-49,122,depth_duration_stimuli/001110_2014-06-15_17-25-28_260595134347_rgbf000150-resize_1/001110_2014-06-15_17-25-28_260595134347_rgbf000150-resize_1-target.png,125,1.7115,7,2378,125,meters,jsons/VE125_randls_39_rotated.json,984309,1208406,30,Woman
122,524441,DepthScenes,duration_manipulation_targetAtFixation,jsons/VE125_randls_39_rotated.json,http://54.235.29.9/FacialAge/BNav_EC2/DepthDuration/v2_depth_duration_MTurk/v2_DepthDuration_HTML.html#466,466,1280,657,1280,800,8-30-2022,9-56-49,123,depth_duration_stimuli/000103_2014-05-14_22-01-17_260595134347_rgbf000152-resize_5/000103_2014-05-14_22-01-17_260595134347_rgbf000152-resize_5-target.png,125,1.993,1,104385,122,meters,jsons/VE125_randls_39_rotated.json,984309,1208406,30,Woman
123,524441,DepthScenes,duration_manipulation_targetAtFixation,jsons/VE125_randls_39_rotated.json,http://54.235.29.9/FacialAge/BNav_EC2/DepthDuration/v2_depth_duration_MTurk/v2_DepthDuration_HTML.html#466,466,1280,657,1280,800,8-30-2022,9-56-49,124,depth_duration_stimuli/001555_2014-06-20_17-12-10_260595134347_rgbf000065-resize_4/001555_2014-06-20_17-12-10_260595134347_rgbf000065-resize_4-target.png,125,1.633,4,5354,125,meters,jsons/VE125_randls_39_rotated.json,984309,1208406,30,Woman
124,524441,DepthScenes,duration_manipulation_targetAtFixation,jsons/VE125_randls_39_rotated.json,http://54.235.29.9/FacialAge/BNav_EC2/DepthDuration/v2_depth_duration_MTurk/v2_DepthDuration_HTML.html#466,466,1280,657,1280,800,8-30-2022,9-56-49,125,depth_duration_stimuli/001100_2014-06-15_17-46-26_260595134347_rgbf000225-resize_2/001100_2014-06-15_17-46-26_260595134347_rgbf000225-resize_2-target.png,125,2.24,3,2313,123,meters,jsons/VE125_randls_39_rotated.json,984309,1208406,30,Woman
125,524441,DepthScenes,duration_manipulation_targetAtFixation,jsons/VE125_randls_39_rotated.json,http://54.235.29.9/FacialAge/BNav_EC2/DepthDuration/v2_depth_duration_MTurk/v2_DepthDuration_HTML.html#466,466,1280,657,1280,800,8-30-2022,9-56-49,126,depth_duration_stimuli/002784_2014-06-22_19-26-30_094959634447_rgbf000083-resize_3/002784_2014-06-22_19-26-30_094959634447_rgbf000083-resize_3-target.png,125,1.8046666666667,4,2291,123,meters,jsons/VE125_randls_39_rotated.json,984309,1208406,30,Woman
126,524441,DepthScenes,duration_manipulation_targetAtFixation,jsons/VE125_randls_39_rotated.json,http://54.235.29.9/FacialAge/BNav_EC2/DepthDuration/v2_depth_duration_MTurk/v2_DepthDuration_HTML.html#466,466,1280,657,1280,800,8-30-2022,9-56-49,127,depth_duration_stimuli/003129_2014-05-12_10-48-10_094959634447_rgbf000100-resize_0/003129_2014-05-12_10-48-10_094959634447_rgbf000100-resize_0-target.png,125,4.9305,7,9147,124,meters,jsons/VE125_randls_39_rotated.json,984309,1208406,30,Woman
127,524441,DepthScenes,duration_manipulation_targetAtFixation,jsons/VE125_randls_39_rotated.json,http://54.235.29.9/FacialAge/BNav_EC2/DepthDuration/v2_depth_duration_MTurk/v2_DepthDuration_HTML.html#466,466,1280,657,1280,800,8-30-2022,9-56-49,128,depth_duration_stimuli/000414_2014-06-04_19-49-13_260595134347_rgbf000044-resize_0/000414_2014-06-04_19-49-13_260595134347_rgbf000044-resize_0-target.png,125,4.329,8,3063,122,meters,jsons/VE125_randls_39_rotated.json,984309,1208406,30,Woman
128,524441,DepthScenes,duration_manipulation_targetAtFixation,jsons/VE125_randls_39_rotated.json,http://54.235.29.9/FacialAge/BNav_EC2/DepthDuration/v2_depth_duration_MTurk/v2_DepthDuration_HTML.html#466,466,1280,657,1280,800,8-30-2022,9-56-49,129,depth_duration_stimuli/000549_2014-06-08_22-10-24_260595134347_rgbf000247-resize_3/000549_2014-06-08_22-10-24_260595134347_rgbf000247-resize_3-target.png,125,1.841,6,3426,123,meters,jsons/VE125_randls_39_rotated.json,984309,1208406,30,Woman
129,524441,DepthScenes,duration_manipulation_targetAtFixation,jsons/VE125_randls_39_rotated.json,http://54.235.29.9/FacialAge/BNav_EC2/DepthDuration/v2_depth_duration_MTurk/v2_DepthDuration_HTML.html#466,466,1280,657,1280,800,8-30-2022,9-56-49,130,depth_duration_stimuli/001055_2014-06-08_18-45-35_260595134347_rgbf000111-resize_4/001055_2014-06-08_18-45-35_260595134347_rgbf000111-resize_4-target.png,125,2.4290000000000003,4,33630,129,meters,jsons/VE125_randls_39_rotated.json,984309,1208406,30,Woman
130,524441,DepthScenes,duration_manipulation_targetAtFixation,jsons/VE125_randls_39_rotated.json,http://54.235.29.9/FacialAge/BNav_EC2/DepthDuration/v2_depth_duration_MTurk/v2_DepthDuration_HTML.html#466,466,1280,657,1280,800,8-30-2022,9-56-49,131,depth_duration_stimuli/001392_2014-06-19_16-07-59_260595134347_rgbf000046-resize_1/001392_2014-06-19_16-07-59_260595134347_rgbf000046-resize_1-target.png,125,4.135,5,3189,113,meters,jsons/VE125_randls_39_rotated.json,984309,1208406,30,Woman
131,524441,DepthScenes,duration_manipulation_targetAtFixation,jsons/VE125_randls_39_rotated.json,http://54.235.29.9/FacialAge/BNav_EC2/DepthDuration/v2_depth_duration_MTurk/v2_DepthDuration_HTML.html#466,466,1280,657,1280,800,8-30-2022,9-56-49,132,depth_duration_stimuli/001570_2014-06-20_17-21-09_260595134347_rgbf000135-resize_4/001570_2014-06-20_17-21-09_260595134347_rgbf000135-resize_4-target.png,125,4.467,6,11358,112,meters,jsons/VE125_randls_39_rotated.json,984309,1208406,30,Woman
132,524441,DepthScenes,duration_manipulation_targetAtFixation,jsons/VE125_randls_39_rotated.json,http://54.235.29.9/FacialAge/BNav_EC2/DepthDuration/v2_depth_duration_MTurk/v2_DepthDuration_HTML.html#466,466,1280,657,1280,800,8-30-2022,9-56-49,133,depth_duration_stimuli/002678_2014-06-13_16-15-32_094959634447_rgbf000151-resize_6/002678_2014-06-13_16-15-32_094959634447_rgbf000151-resize_6-target.png,125,2.1830000000000003,4,15130,136,meters,jsons/VE125_randls_39_rotated.json,984309,1208406,30,Woman
133,524441,DepthScenes,duration_manipulation_targetAtFixation,jsons/VE125_randls_39_rotated.json,http://54.235.29.9/FacialAge/BNav_EC2/DepthDuration/v2_depth_duration_MTurk/v2_DepthDuration_HTML.html#466,466,1280,657,1280,800,8-30-2022,9-56-49,134,depth_duration_stimuli/000368_2014-06-09_15-53-01_260595134347_rgbf000155-resize_2/000368_2014-06-09_15-53-01_260595134347_rgbf000155-resize_2-target.png,125,2.4859999999999998,4,179457,136,meters,jsons/VE125_randls_39_rotated.json,984309,1208406,30,Woman
134,524441,DepthScenes,duration_manipulation_targetAtFixation,jsons/VE125_randls_39_rotated.json,http://54.235.29.9/FacialAge/BNav_EC2/DepthDuration/v2_depth_duration_MTurk/v2_DepthDuration_HTML.html#466,466,1280,657,1280,800,8-30-2022,9-56-49,135,depth_duration_stimuli/000375_2014-06-08_11-17-29_260595134347_rgbf000133-resize_2/000375_2014-06-08_11-17-29_260595134347_rgbf000133-resize-original.jpg,125,4.718,5,2418,126,meters,jsons/VE125_randls_39_rotated.json,984309,1208406,30,Woman
135,524441,DepthScenes,duration_manipulation_targetAtFixation,jsons/VE125_randls_39_rotated.json,http://54.235.29.9/FacialAge/BNav_EC2/DepthDuration/v2_depth_duration_MTurk/v2_DepthDuration_HTML.html#466,466,1280,657,1280,800,8-30-2022,9-56-49,136,depth_duration_stimuli/002323_2014-06-28_20-01-54_260595134347_rgbf000051-resize_4/002323_2014-06-28_20-01-54_260595134347_rgbf000051-resize_4-target.png,125,3.7310000000000003,6,6456,92,meters,jsons/VE125_randls_39_rotated.json,984309,1208406,30,Woman
136,524441,DepthScenes,duration_manipulation_targetAtFixation,jsons/VE125_randls_39_rotated.json,http://54.235.29.9/FacialAge/BNav_EC2/DepthDuration/v2_depth_duration_MTurk/v2_DepthDuration_HTML.html#466,466,1280,657,1280,800,8-30-2022,9-56-49,137,depth_duration_stimuli/000917_2014-06-09_22-45-29_260595134347_rgbf000149-resize_3/000917_2014-06-09_22-45-29_260595134347_rgbf000149-resize_3-target.png,125,4.1865,7,2803,124,meters,jsons/VE125_randls_39_rotated.json,984309,1208406,30,Woman
137,524441,DepthScenes,duration_manipulation_targetAtFixation,jsons/VE125_randls_39_rotated.json,http://54.235.29.9/FacialAge/BNav_EC2/DepthDuration/v2_depth_duration_MTurk/v2_DepthDuration_HTML.html#466,466,1280,657,1280,800,8-30-2022,9-56-49,138,depth_duration_stimuli/001214_2014-06-17_16-13-55_260595134347_rgbf000111-resize_0/001214_2014-06-17_16-13-55_260595134347_rgbf000111-resize_0-target.png,125,2.6505,5,7931,122,meters,jsons/VE125_randls_39_rotated.json,984309,1208406,30,Woman
138,524441,DepthScenes,duration_manipulation_targetAtFixation,jsons/VE125_randls_39_rotated.json,http://54.235.29.9/FacialAge/BNav_EC2/DepthDuration/v2_depth_duration_MTurk/v2_DepthDuration_HTML.html#466,466,1280,657,1280,800,8-30-2022,9-56-49,139,depth_duration_stimuli/000810_2014-06-08_17-20-01_260595134347_rgbf000105-resize_0/000810_2014-06-08_17-20-01_260595134347_rgbf000105-resize_0-target.png,125,1.4865,8,5435,111,meters,jsons/VE125_randls_39_rotated.json,984309,1208406,30,Woman
139,524441,DepthScenes,duration_manipulation_targetAtFixation,jsons/VE125_randls_39_rotated.json,http://54.235.29.9/FacialAge/BNav_EC2/DepthDuration/v2_depth_duration_MTurk/v2_DepthDuration_HTML.html#466,466,1280,657,1280,800,8-30-2022,9-56-49,140,depth_duration_stimuli/002545_2014-06-24_13-38-53_094959634447_rgbf000080-resize_4/002545_2014-06-24_13-38-53_094959634447_rgbf000080-resize_4-target.png,125,1.9205,8,9881,123,meters,jsons/VE125_randls_39_rotated.json,984309,1208406,30,Woman
140,524441,DepthScenes,duration_manipulation_targetAtFixation,jsons/VE125_randls_39_rotated.json,http://54.235.29.9/FacialAge/BNav_EC2/DepthDuration/v2_depth_duration_MTurk/v2_DepthDuration_HTML.html#466,466,1280,657,1280,800,8-30-2022,9-56-49,141,depth_duration_stimuli/001092_2014-06-15_17-34-58_260595134347_rgbf000171-resize_3/001092_2014-06-15_17-34-58_260595134347_rgbf000171-resize_3-target.png,125,2.6935,4,4256,120,meters,jsons/VE125_randls_39_rotated.json,984309,1208406,30,Woman
141,524441,DepthScenes,duration_manipulation_targetAtFixation,jsons/VE125_randls_39_rotated.json,http://54.235.29.9/FacialAge/BNav_EC2/DepthDuration/v2_depth_duration_MTurk/v2_DepthDuration_HTML.html#466,466,1280,657,1280,800,8-30-2022,9-56-49,142,depth_duration_stimuli/001828_2014-06-26_21-40-03_260595134347_rgbf000024-resize_0/001828_2014-06-26_21-40-03_260595134347_rgbf000024-resize_0-target.png,125,4.8260000000000005,6,3686,120,meters,jsons/VE125_randls_39_rotated.json,984309,1208406,30,Woman
142,524441,DepthScenes,duration_manipulation_targetAtFixation,jsons/VE125_randls_39_rotated.json,http://54.235.29.9/FacialAge/BNav_EC2/DepthDuration/v2_depth_duration_MTurk/v2_DepthDuration_HTML.html#466,466,1280,657,1280,800,8-30-2022,9-56-49,143,depth_duration_stimuli/000009_2014-05-26_14-32-05_260595134347_rgbf000034-resize_3/000009_2014-05-26_14-32-05_260595134347_rgbf000034-resize_3-target.png,125,3.8715,7,2397,124,meters,jsons/VE125_randls_39_rotated.json,984309,1208406,30,Woman
143,524441,DepthScenes,duration_manipulation_targetAtFixation,jsons/VE125_randls_39_rotated.json,http://54.235.29.9/FacialAge/BNav_EC2/DepthDuration/v2_depth_duration_MTurk/v2_DepthDuration_HTML.html#466,466,1280,657,1280,800,8-30-2022,9-56-49,144,depth_duration_stimuli/002875_2014-06-01_15-19-00_094959634447_rgbf000151-resize_1/002875_2014-06-01_15-19-00_094959634447_rgbf000151-resize_1-target.png,125,1.9675,5,12973,123,meters,jsons/VE125_randls_39_rotated.json,984309,1208406,30,Woman
144,524441,DepthScenes,duration_manipulation_targetAtFixation,jsons/VE125_randls_39_rotated.json,http://54.235.29.9/FacialAge/BNav_EC2/DepthDuration/v2_depth_duration_MTurk/v2_DepthDuration_HTML.html#466,466,1280,657,1280,800,8-30-2022,9-56-49,145,depth_duration_stimuli/001011_2014-06-08_23-18-54_260595134347_rgbf000044-resize_4/001011_2014-06-08_23-18-54_260595134347_rgbf000044-resize_4-target.png,125,2.4730000000000003,7,3748,123,meters,jsons/VE125_randls_39_rotated.json,984309,1208406,30,Woman
145,524441,DepthScenes,duration_manipulation_targetAtFixation,jsons/VE125_randls_39_rotated.json,http://54.235.29.9/FacialAge/BNav_EC2/DepthDuration/v2_depth_duration_MTurk/v2_DepthDuration_HTML.html#466,466,1280,657,1280,800,8-30-2022,9-56-49,146,depth_duration_stimuli/001447_2014-06-19_17-00-32_260595134347_rgbf000082-resize_5/001447_2014-06-19_17-00-32_260595134347_rgbf000082-resize_5-target.png,125,4.13775,9,5748,124,meters,jsons/VE125_randls_39_rotated.json,984309,1208406,30,Woman
146,524441,DepthScenes,duration_manipulation_targetAtFixation,jsons/VE125_randls_39_rotated.json,http://54.235.29.9/FacialAge/BNav_EC2/DepthDuration/v2_depth_duration_MTurk/v2_DepthDuration_HTML.html#466,466,1280,657,1280,800,8-30-2022,9-56-49,147,depth_duration_stimuli/000447_2014-06-08_16-15-46_260595134347_rgbf000130-resize_1/000447_2014-06-08_16-15-46_260595134347_rgbf000130-resize_1-target.png,125,4.479,10,2351,123,meters,jsons/VE125_randls_39_rotated.json,984309,1208406,30,Woman
147,524441,DepthScenes,duration_manipulation_targetAtFixation,jsons/VE125_randls_39_rotated.json,http://54.235.29.9/FacialAge/BNav_EC2/DepthDuration/v2_depth_duration_MTurk/v2_DepthDuration_HTML.html#466,466,1280,657,1280,800,8-30-2022,9-56-49,148,depth_duration_stimuli/003490_2014-05-21_15-50-11_094959634447_rgbf000101-resize_3/003490_2014-05-21_15-50-11_094959634447_rgbf000101-resize_3-target.png,125,3.6445,11,2468,121,meters,jsons/VE125_randls_39_rotated.json,984309,1208406,30,Woman
148,524441,DepthScenes,duration_manipulation_targetAtFixation,jsons/VE125_randls_39_rotated.json,http://54.235.29.9/FacialAge/BNav_EC2/DepthDuration/v2_depth_duration_MTurk/v2_DepthDuration_HTML.html#466,466,1280,657,1280,800,8-30-2022,9-56-49,149,depth_duration_stimuli/001175_2014-06-17_15-45-55_260595134347_rgbf000129-resize_4/001175_2014-06-17_15-45-55_260595134347_rgbf000129-resize_4-target.png,125,4.255,2,3865,124,meters,jsons/VE125_randls_39_rotated.json,984309,1208406,30,Woman
149,524441,DepthScenes,duration_manipulation_targetAtFixation,jsons/VE125_randls_39_rotated.json,http://54.235.29.9/FacialAge/BNav_EC2/DepthDuration/v2_depth_duration_MTurk/v2_DepthDuration_HTML.html#466,466,1280,657,1280,800,8-30-2022,9-56-49,150,depth_duration_stimuli/000943_2014-06-09_19-31-07_260595134347_rgbf000128-resize_1/000943_2014-06-09_19-31-07_260595134347_rgbf000128-resize_1-target.png,125,1.9765,1,3664,109,meters,jsons/VE125_randls_39_rotated.json,984309,1208406,30,Woman
150,524441,DepthScenes,duration_manipulation_targetAtFixation,jsons/VE125_randls_39_rotated.json,http://54.235.29.9/FacialAge/BNav_EC2/DepthDuration/v2_depth_duration_MTurk/v2_DepthDuration_HTML.html#466,466,1280,657,1280,800,8-30-2022,9-56-49,151,depth_duration_stimuli/003070_2014-06-15_14-58-27_094959634447_rgbf000150-resize_3/003070_2014-06-15_14-58-27_094959634447_rgbf000150-resize_3-target.png,125,2.9415,5,2473,124,meters,jsons/VE125_randls_39_rotated.json,984309,1208406,30,Woman
151,524441,DepthScenes,duration_manipulation_targetAtFixation,jsons/VE125_randls_39_rotated.json,http://54.235.29.9/FacialAge/BNav_EC2/DepthDuration/v2_depth_duration_MTurk/v2_DepthDuration_HTML.html#466,466,1280,657,1280,800,8-30-2022,9-56-49,152,depth_duration_stimuli/000569_2014-06-09_22-51-47_260595134347_rgbf000141-resize_3/000569_2014-06-09_22-51-47_260595134347_rgbf000141-resize-original.jpg,125,4.512,7,2915,124,meters,jsons/VE125_randls_39_rotated.json,984309,1208406,30,Woman
152,524441,DepthScenes,duration_manipulation_targetAtFixation,jsons/VE125_randls_39_rotated.json,http://54.235.29.9/FacialAge/BNav_EC2/DepthDuration/v2_depth_duration_MTurk/v2_DepthDuration_HTML.html#466,466,1280,657,1280,800,8-30-2022,9-56-49,153,depth_duration_stimuli/001032_2014-06-08_13-23-17_260595134347_rgbf000021-resize_3/001032_2014-06-08_13-23-17_260595134347_rgbf000021-resize_3-target.png,125,3.2725,7,2393,124,meters,jsons/VE125_randls_39_rotated.json,984309,1208406,30,Woman
153,524441,DepthScenes,duration_manipulation_targetAtFixation,jsons/VE125_randls_39_rotated.json,http://54.235.29.9/FacialAge/BNav_EC2/DepthDuration/v2_depth_duration_MTurk/v2_DepthDuration_HTML.html#466,466,1280,657,1280,800,8-30-2022,9-56-49,154,depth_duration_stimuli/001059_2014-06-08_21-53-27_260595134347_rgbf000061-resize_4/001059_2014-06-08_21-53-27_260595134347_rgbf000061-resize_4-target.png,125,2.4185,4,6185,122,meters,jsons/VE125_randls_39_rotated.json,984309,1208406,30,Woman
154,524441,DepthScenes,duration_manipulation_targetAtFixation,jsons/VE125_randls_39_rotated.json,http://54.235.29.9/FacialAge/BNav_EC2/DepthDuration/v2_depth_duration_MTurk/v2_DepthDuration_HTML.html#466,466,1280,657,1280,800,8-30-2022,9-56-49,155,depth_duration_stimuli/002444_2014-06-28_20-32-08_260595134347_rgbf000027-resize_0/002444_2014-06-28_20-32-08_260595134347_rgbf000027-resize_0-target.png,125,4.388999999999999,9,4986,124,meters,jsons/VE125_randls_39_rotated.json,984309,1208406,30,Woman
155,524441,DepthScenes,duration_manipulation_targetAtFixation,jsons/VE125_randls_39_rotated.json,http://54.235.29.9/FacialAge/BNav_EC2/DepthDuration/v2_depth_duration_MTurk/v2_DepthDuration_HTML.html#466,466,1280,657,1280,800,8-30-2022,9-56-49,156,depth_duration_stimuli/000436_2014-06-09_22-25-11_260595134347_rgbf000137-resize_1/000436_2014-06-09_22-25-11_260595134347_rgbf000137-resize_1-target.png,125,4.0705,4,2193,124,meters,jsons/VE125_randls_39_rotated.json,984309,1208406,30,Woman
156,524441,DepthScenes,duration_manipulation_targetAtFixation,jsons/VE125_randls_39_rotated.json,http://54.235.29.9/FacialAge/BNav_EC2/DepthDuration/v2_depth_duration_MTurk/v2_DepthDuration_HTML.html#466,466,1280,657,1280,800,8-30-2022,9-56-49,157,depth_duration_stimuli/002344_2014-06-28_20-06-29_260595134347_rgbf000030-resize_1/002344_2014-06-28_20-06-29_260595134347_rgbf000030-resize_1-target.png,125,1.5795,5,2042,123,meters,jsons/VE125_randls_39_rotated.json,984309,1208406,30,Woman
157,524441,DepthScenes,duration_manipulation_targetAtFixation,jsons/VE125_randls_39_rotated.json,http://54.235.29.9/FacialAge/BNav_EC2/DepthDuration/v2_depth_duration_MTurk/v2_DepthDuration_HTML.html#466,466,1280,657,1280,800,8-30-2022,9-56-49,158,depth_duration_stimuli/002725_2014-06-22_11-47-51_094959634447_rgbf000070-resize_1/002725_2014-06-22_11-47-51_094959634447_rgbf000070-resize_1-target.png,125,2.195,1,2219,125,meters,jsons/VE125_randls_39_rotated.json,984309,1208406,30,Woman
158,524441,DepthScenes,duration_manipulation_targetAtFixation,jsons/VE125_randls_39_rotated.json,http://54.235.29.9/FacialAge/BNav_EC2/DepthDuration/v2_depth_duration_MTurk/v2_DepthDuration_HTML.html#466,466,1280,657,1280,800,8-30-2022,9-56-49,159,depth_duration_stimuli/000556_2014-06-09_22-42-56_260595134347_rgbf000214-resize_1/000556_2014-06-09_22-42-56_260595134347_rgbf000214-resize_1-target.png,125,4.8415,6,2376,123,meters,jsons/VE125_randls_39_rotated.json,984309,1208406,30,Woman
159,524441,DepthScenes,duration_manipulation_targetAtFixation,jsons/VE125_randls_39_rotated.json,http://54.235.29.9/FacialAge/BNav_EC2/DepthDuration/v2_depth_duration_MTurk/v2_DepthDuration_HTML.html#466,466,1280,657,1280,800,8-30-2022,9-56-49,160,depth_duration_stimuli/001158_2014-06-17_15-32-16_260595134347_rgbf000138-resize_2/001158_2014-06-17_15-32-16_260595134347_rgbf000138-resize_2-target.png,125,4.5315,4,2257,125,meters,jsons/VE125_randls_39_rotated.json,984309,1208406,30,Woman
160,524441,DepthScenes,duration_manipulation_targetAtFixation,jsons/VE125_randls_39_rotated.json,http://54.235.29.9/FacialAge/BNav_EC2/DepthDuration/v2_depth_duration_MTurk/v2_DepthDuration_HTML.html#466,466,1280,657,1280,800,8-30-2022,9-56-49,161,depth_duration_stimuli/001617_2014-06-20_11-35-32_260595134347_rgbf000066-resize_1/001617_2014-06-20_11-35-32_260595134347_rgbf000066-resize_1-target.png,125,3.7910000000000004,2,2188,124,meters,jsons/VE125_randls_39_rotated.json,984309,1208406,30,Woman
161,524441,DepthScenes,duration_manipulation_targetAtFixation,jsons/VE125_randls_39_rotated.json,http://54.235.29.9/FacialAge/BNav_EC2/DepthDuration/v2_depth_duration_MTurk/v2_DepthDuration_HTML.html#466,466,1280,657,1280,800,8-30-2022,9-56-49,162,depth_duration_stimuli/001806_2014-06-26_20-50-20_260595134347_rgbf000091-resize_1/001806_2014-06-26_20-50-20_260595134347_rgbf000091-resize_1-target.png,125,2.7305,1,2196,124,meters,jsons/VE125_randls_39_rotated.json,984309,1208406,30,Woman
162,524441,DepthScenes,duration_manipulation_targetAtFixation,jsons/VE125_randls_39_rotated.json,http://54.235.29.9/FacialAge/BNav_EC2/DepthDuration/v2_depth_duration_MTurk/v2_DepthDuration_HTML.html#466,466,1280,657,1280,800,8-30-2022,9-56-49,163,depth_duration_stimuli/002209_2014-06-28_18-36-10_260595134347_rgbf000051-resize_1/002209_2014-06-28_18-36-10_260595134347_rgbf000051-resize_1-target.png,125,2.057,3,1969,124,meters,jsons/VE125_randls_39_rotated.json,984309,1208406,30,Woman
163,524441,DepthScenes,duration_manipulation_targetAtFixation,jsons/VE125_randls_39_rotated.json,http://54.235.29.9/FacialAge/BNav_EC2/DepthDuration/v2_depth_duration_MTurk/v2_DepthDuration_HTML.html#466,466,1280,657,1280,800,8-30-2022,9-56-49,164,depth_duration_stimuli/002763_2014-06-22_19-13-10_094959634447_rgbf000075-resize_4/002763_2014-06-22_19-13-10_094959634447_rgbf000075-resize_4-target.png,125,1.68375,4,2246,112,meters,jsons/VE125_randls_39_rotated.json,984309,1208406,30,Woman
