,subjID,experimentName,versionName,sequenceName,url,selected_row,windowWidth,windowHeight,screenWidth,screenHeight,startDate,startTime,trial,stimulus,duration,actual_depth,depth_estimate,trial_RT,log_sceneDuration,unitSelection,seq_filepath,experimentTime,totalTime,age,gender
0,524614,DepthScenes,duration_manipulation_targetAtFixation,jsons/VE125_randls_60.json,http://54.235.29.9/FacialAge/BNav_EC2/DepthDuration/v2_depth_duration_MTurk/v2_DepthDuration_HTML.html#142,142,1366,625,1366,768,8-21-2022,7-11-20,1,depth_duration_stimuli/000929_2014-06-09_16-33-19_260595134347_rgbf000139-resize_0/000929_2014-06-09_16-33-19_260595134347_rgbf000139-resize_0-target.png,125,2.8680000000000003,15,5755,124,meters,jsons/VE125_randls_60.json,1040011,1722120,40,Woman
1,524614,DepthScenes,duration_manipulation_targetAtFixation,jsons/VE125_randls_60.json,http://54.235.29.9/FacialAge/BNav_EC2/DepthDuration/v2_depth_duration_MTurk/v2_DepthDuration_HTML.html#142,142,1366,625,1366,768,8-21-2022,7-11-20,2,depth_duration_stimuli/000457_2014-06-08_16-52-43_260595134347_rgbf000199-resize_1/000457_2014-06-08_16-52-43_260595134347_rgbf000199-resize_1-target.png,125,3.6489999999999996,25,10173,124,meters,jsons/VE125_randls_60.json,1040011,1722120,40,Woman
2,524614,DepthScenes,duration_manipulation_targetAtFixation,jsons/VE125_randls_60.json,http://54.235.29.9/FacialAge/BNav_EC2/DepthDuration/v2_depth_duration_MTurk/v2_DepthDuration_HTML.html#142,142,1366,625,1366,768,8-21-2022,7-11-20,3,depth_duration_stimuli/002748_2014-06-22_19-07-22_094959634447_rgbf000078-resize_1/002748_2014-06-22_19-07-22_094959634447_rgbf000078-resize_1-target.png,125,4.6705,25,33658,124,meters,jsons/VE125_randls_60.json,1040011,1722120,40,Woman
3,524614,DepthScenes,duration_manipulation_targetAtFixation,jsons/VE125_randls_60.json,http://54.235.29.9/FacialAge/BNav_EC2/DepthDuration/v2_depth_duration_MTurk/v2_DepthDuration_HTML.html#142,142,1366,625,1366,768,8-21-2022,7-11-20,4,depth_duration_stimuli/002995_2014-06-15_12-31-26_094959634447_rgbf000150-resize_1/002995_2014-06-15_12-31-26_094959634447_rgbf000150-resize_1-target.png,125,3.8360000000000003,50,3939,125,meters,jsons/VE125_randls_60.json,1040011,1722120,40,Woman
4,524614,DepthScenes,duration_manipulation_targetAtFixation,jsons/VE125_randls_60.json,http://54.235.29.9/FacialAge/BNav_EC2/DepthDuration/v2_depth_duration_MTurk/v2_DepthDuration_HTML.html#142,142,1366,625,1366,768,8-21-2022,7-11-20,5,depth_duration_stimuli/002763_2014-06-22_19-13-10_094959634447_rgbf000075-resize_4/002763_2014-06-22_19-13-10_094959634447_rgbf000075-resize_4-target.png,125,1.68375,30,4576,125,meters,jsons/VE125_randls_60.json,1040011,1722120,40,Woman
5,524614,DepthScenes,duration_manipulation_targetAtFixation,jsons/VE125_randls_60.json,http://54.235.29.9/FacialAge/BNav_EC2/DepthDuration/v2_depth_duration_MTurk/v2_DepthDuration_HTML.html#142,142,1366,625,1366,768,8-21-2022,7-11-20,6,depth_duration_stimuli/002209_2014-06-28_18-36-10_260595134347_rgbf000051-resize_1/002209_2014-06-28_18-36-10_260595134347_rgbf000051-resize_1-target.png,125,2.057,0,3849,125,meters,jsons/VE125_randls_60.json,1040011,1722120,40,Woman
6,524614,DepthScenes,duration_manipulation_targetAtFixation,jsons/VE125_randls_60.json,http://54.235.29.9/FacialAge/BNav_EC2/DepthDuration/v2_depth_duration_MTurk/v2_DepthDuration_HTML.html#142,142,1366,625,1366,768,8-21-2022,7-11-20,7,depth_duration_stimuli/003534_2014-05-22_15-06-10_094959634447_rgbf000102-resize_4/003534_2014-05-22_15-06-10_094959634447_rgbf000102-resize_4-target.png,125,1.426,25,4120,126,meters,jsons/VE125_randls_60.json,1040011,1722120,40,Woman
7,524614,DepthScenes,duration_manipulation_targetAtFixation,jsons/VE125_randls_60.json,http://54.235.29.9/FacialAge/BNav_EC2/DepthDuration/v2_depth_duration_MTurk/v2_DepthDuration_HTML.html#142,142,1366,625,1366,768,8-21-2022,7-11-20,8,depth_duration_stimuli/002637_2014-06-24_14-51-13_094959634447_rgbf000066-resize_4/002637_2014-06-24_14-51-13_094959634447_rgbf000066-resize_4-target.png,125,1.9955,25,3977,123,meters,jsons/VE125_randls_60.json,1040011,1722120,40,Woman
8,524614,DepthScenes,duration_manipulation_targetAtFixation,jsons/VE125_randls_60.json,http://54.235.29.9/FacialAge/BNav_EC2/DepthDuration/v2_depth_duration_MTurk/v2_DepthDuration_HTML.html#142,142,1366,625,1366,768,8-21-2022,7-11-20,9,depth_duration_stimuli/001158_2014-06-17_15-32-16_260595134347_rgbf000138-resize_2/001158_2014-06-17_15-32-16_260595134347_rgbf000138-resize_2-target.png,125,4.5315,150,7564,124,meters,jsons/VE125_randls_60.json,1040011,1722120,40,Woman
9,524614,DepthScenes,duration_manipulation_targetAtFixation,jsons/VE125_randls_60.json,http://54.235.29.9/FacialAge/BNav_EC2/DepthDuration/v2_depth_duration_MTurk/v2_DepthDuration_HTML.html#142,142,1366,625,1366,768,8-21-2022,7-11-20,10,depth_duration_stimuli/000556_2014-06-09_22-42-56_260595134347_rgbf000214-resize_1/000556_2014-06-09_22-42-56_260595134347_rgbf000214-resize_1-target.png,125,4.8415,28,4601,126,meters,jsons/VE125_randls_60.json,1040011,1722120,40,Woman
10,524614,DepthScenes,duration_manipulation_targetAtFixation,jsons/VE125_randls_60.json,http://54.235.29.9/FacialAge/BNav_EC2/DepthDuration/v2_depth_duration_MTurk/v2_DepthDuration_HTML.html#142,142,1366,625,1366,768,8-21-2022,7-11-20,11,depth_duration_stimuli/002549_2014-06-24_13-41-39_094959634447_rgbf000022-resize_3/002549_2014-06-24_13-41-39_094959634447_rgbf000022-resize_3-target.png,125,1.476,15,7132,124,meters,jsons/VE125_randls_60.json,1040011,1722120,40,Woman
11,524614,DepthScenes,duration_manipulation_targetAtFixation,jsons/VE125_randls_60.json,http://54.235.29.9/FacialAge/BNav_EC2/DepthDuration/v2_depth_duration_MTurk/v2_DepthDuration_HTML.html#142,142,1366,625,1366,768,8-21-2022,7-11-20,12,depth_duration_stimuli/002750_2014-06-22_19-08-03_094959634447_rgbf000094-resize_4/002750_2014-06-22_19-08-03_094959634447_rgbf000094-resize_4-target.png,125,2.354,25,4807,125,meters,jsons/VE125_randls_60.json,1040011,1722120,40,Woman
12,524614,DepthScenes,duration_manipulation_targetAtFixation,jsons/VE125_randls_60.json,http://54.235.29.9/FacialAge/BNav_EC2/DepthDuration/v2_depth_duration_MTurk/v2_DepthDuration_HTML.html#142,142,1366,625,1366,768,8-21-2022,7-11-20,13,depth_duration_stimuli/000569_2014-06-09_22-51-47_260595134347_rgbf000141-resize_3/000569_2014-06-09_22-51-47_260595134347_rgbf000141-resize-original.jpg,125,4.512,0,5677,124,meters,jsons/VE125_randls_60.json,1040011,1722120,40,Woman
13,524614,DepthScenes,duration_manipulation_targetAtFixation,jsons/VE125_randls_60.json,http://54.235.29.9/FacialAge/BNav_EC2/DepthDuration/v2_depth_duration_MTurk/v2_DepthDuration_HTML.html#142,142,1366,625,1366,768,8-21-2022,7-11-20,14,depth_duration_stimuli/001199_2014-06-17_16-03-48_260595134347_rgbf000077-resize_0/001199_2014-06-17_16-03-48_260595134347_rgbf000077-resize_0-target.png,125,3.4375,21,9835,126,meters,jsons/VE125_randls_60.json,1040011,1722120,40,Woman
14,524614,DepthScenes,duration_manipulation_targetAtFixation,jsons/VE125_randls_60.json,http://54.235.29.9/FacialAge/BNav_EC2/DepthDuration/v2_depth_duration_MTurk/v2_DepthDuration_HTML.html#142,142,1366,625,1366,768,8-21-2022,7-11-20,15,depth_duration_stimuli/000502_2014-06-08_23-02-32_260595134347_rgbf000063-resize_4/000502_2014-06-08_23-02-32_260595134347_rgbf000063-resize_4-target.png,125,2.431,0,4597,126,meters,jsons/VE125_randls_60.json,1040011,1722120,40,Woman
15,524614,DepthScenes,duration_manipulation_targetAtFixation,jsons/VE125_randls_60.json,http://54.235.29.9/FacialAge/BNav_EC2/DepthDuration/v2_depth_duration_MTurk/v2_DepthDuration_HTML.html#142,142,1366,625,1366,768,8-21-2022,7-11-20,16,depth_duration_stimuli/000739_2014-06-08_18-45-58_260595134347_rgbf000068-resize_1/000739_2014-06-08_18-45-58_260595134347_rgbf000068-resize_1-target.png,125,3.534,22,6325,125,meters,jsons/VE125_randls_60.json,1040011,1722120,40,Woman
16,524614,DepthScenes,duration_manipulation_targetAtFixation,jsons/VE125_randls_60.json,http://54.235.29.9/FacialAge/BNav_EC2/DepthDuration/v2_depth_duration_MTurk/v2_DepthDuration_HTML.html#142,142,1366,625,1366,768,8-21-2022,7-11-20,17,depth_duration_stimuli/000734_2014-06-08_17-39-11_260595134347_rgbf000128-resize_2/000734_2014-06-08_17-39-11_260595134347_rgbf000128-resize_2-target.png,125,4.098,20,5651,125,meters,jsons/VE125_randls_60.json,1040011,1722120,40,Woman
17,524614,DepthScenes,duration_manipulation_targetAtFixation,jsons/VE125_randls_60.json,http://54.235.29.9/FacialAge/BNav_EC2/DepthDuration/v2_depth_duration_MTurk/v2_DepthDuration_HTML.html#142,142,1366,625,1366,768,8-21-2022,7-11-20,18,depth_duration_stimuli/001150_2014-06-17_15-27-34_260595134347_rgbf000108-resize_2/001150_2014-06-17_15-27-34_260595134347_rgbf000108-resize_2-target.png,125,4.0325,21,5498,126,meters,jsons/VE125_randls_60.json,1040011,1722120,40,Woman
18,524614,DepthScenes,duration_manipulation_targetAtFixation,jsons/VE125_randls_60.json,http://54.235.29.9/FacialAge/BNav_EC2/DepthDuration/v2_depth_duration_MTurk/v2_DepthDuration_HTML.html#142,142,1366,625,1366,768,8-21-2022,7-11-20,19,depth_duration_stimuli/000665_2014-06-09_20-42-35_260595134347_rgbf000110-resize_1/000665_2014-06-09_20-42-35_260595134347_rgbf000110-resize_1-target.png,125,3.057,21,5133,124,meters,jsons/VE125_randls_60.json,1040011,1722120,40,Woman
19,524614,DepthScenes,duration_manipulation_targetAtFixation,jsons/VE125_randls_60.json,http://54.235.29.9/FacialAge/BNav_EC2/DepthDuration/v2_depth_duration_MTurk/v2_DepthDuration_HTML.html#142,142,1366,625,1366,768,8-21-2022,7-11-20,20,depth_duration_stimuli/002445_2014-06-28_20-32-16_260595134347_rgbf000029-resize_4/002445_2014-06-28_20-32-16_260595134347_rgbf000029-resize_4-target.png,125,2.5315,15,5128,125,meters,jsons/VE125_randls_60.json,1040011,1722120,40,Woman
20,524614,DepthScenes,duration_manipulation_targetAtFixation,jsons/VE125_randls_60.json,http://54.235.29.9/FacialAge/BNav_EC2/DepthDuration/v2_depth_duration_MTurk/v2_DepthDuration_HTML.html#142,142,1366,625,1366,768,8-21-2022,7-11-20,21,depth_duration_stimuli/000780_2014-06-08_22-28-29_260595134347_rgbf000126-resize_1/000780_2014-06-08_22-28-29_260595134347_rgbf000126-resize_1-target.png,125,3.3825,25,5264,125,meters,jsons/VE125_randls_60.json,1040011,1722120,40,Woman
21,524614,DepthScenes,duration_manipulation_targetAtFixation,jsons/VE125_randls_60.json,http://54.235.29.9/FacialAge/BNav_EC2/DepthDuration/v2_depth_duration_MTurk/v2_DepthDuration_HTML.html#142,142,1366,625,1366,768,8-21-2022,7-11-20,22,depth_duration_stimuli/002039_2014-06-24_20-22-38_260595134347_rgbf000084-resize_1/002039_2014-06-24_20-22-38_260595134347_rgbf000084-resize_1-target.png,125,4.408,30,6289,126,meters,jsons/VE125_randls_60.json,1040011,1722120,40,Woman
22,524614,DepthScenes,duration_manipulation_targetAtFixation,jsons/VE125_randls_60.json,http://54.235.29.9/FacialAge/BNav_EC2/DepthDuration/v2_depth_duration_MTurk/v2_DepthDuration_HTML.html#142,142,1366,625,1366,768,8-21-2022,7-11-20,23,depth_duration_stimuli/002103_2014-06-25_20-00-40_260595134347_rgbf000049-resize_0/002103_2014-06-25_20-00-40_260595134347_rgbf000049-resize_0-target.png,125,4.105,15,4541,125,meters,jsons/VE125_randls_60.json,1040011,1722120,40,Woman
23,524614,DepthScenes,duration_manipulation_targetAtFixation,jsons/VE125_randls_60.json,http://54.235.29.9/FacialAge/BNav_EC2/DepthDuration/v2_depth_duration_MTurk/v2_DepthDuration_HTML.html#142,142,1366,625,1366,768,8-21-2022,7-11-20,24,depth_duration_stimuli/001167_2014-06-17_15-38-07_260595134347_rgbf000108-resize_0/001167_2014-06-17_15-38-07_260595134347_rgbf000108-resize_0-target.png,125,1.8505,24,5551,124,meters,jsons/VE125_randls_60.json,1040011,1722120,40,Woman
24,524614,DepthScenes,duration_manipulation_targetAtFixation,jsons/VE125_randls_60.json,http://54.235.29.9/FacialAge/BNav_EC2/DepthDuration/v2_depth_duration_MTurk/v2_DepthDuration_HTML.html#142,142,1366,625,1366,768,8-21-2022,7-11-20,25,depth_duration_stimuli/003587_2014-05-23_16-48-02_094959634447_rgbf002384-resize_2/003587_2014-05-23_16-48-02_094959634447_rgbf002384-resize_2-target.png,125,1.357,35,12868,124,meters,jsons/VE125_randls_60.json,1040011,1722120,40,Woman
25,524614,DepthScenes,duration_manipulation_targetAtFixation,jsons/VE125_randls_60.json,http://54.235.29.9/FacialAge/BNav_EC2/DepthDuration/v2_depth_duration_MTurk/v2_DepthDuration_HTML.html#142,142,1366,625,1366,768,8-21-2022,7-11-20,26,depth_duration_stimuli/002989_2014-06-15_12-25-03_094959634447_rgbf000150-resize_3/002989_2014-06-15_12-25-03_094959634447_rgbf000150-resize_3-target.png,125,4.1975,40,6053,124,meters,jsons/VE125_randls_60.json,1040011,1722120,40,Woman
26,524614,DepthScenes,duration_manipulation_targetAtFixation,jsons/VE125_randls_60.json,http://54.235.29.9/FacialAge/BNav_EC2/DepthDuration/v2_depth_duration_MTurk/v2_DepthDuration_HTML.html#142,142,1366,625,1366,768,8-21-2022,7-11-20,27,depth_duration_stimuli/000866_2014-06-09_20-45-42_260595134347_rgbf000139-resize_1/000866_2014-06-09_20-45-42_260595134347_rgbf000139-resize_1-target.png,125,3.2155,28,5330,124,meters,jsons/VE125_randls_60.json,1040011,1722120,40,Woman
27,524614,DepthScenes,duration_manipulation_targetAtFixation,jsons/VE125_randls_60.json,http://54.235.29.9/FacialAge/BNav_EC2/DepthDuration/v2_depth_duration_MTurk/v2_DepthDuration_HTML.html#142,142,1366,625,1366,768,8-21-2022,7-11-20,28,depth_duration_stimuli/001056_2014-06-08_18-46-44_260595134347_rgbf000068-resize_0/001056_2014-06-08_18-46-44_260595134347_rgbf000068-resize_0-target.png,125,2.6625,20,25152,125,meters,jsons/VE125_randls_60.json,1040011,1722120,40,Woman
28,524614,DepthScenes,duration_manipulation_targetAtFixation,jsons/VE125_randls_60.json,http://54.235.29.9/FacialAge/BNav_EC2/DepthDuration/v2_depth_duration_MTurk/v2_DepthDuration_HTML.html#142,142,1366,625,1366,768,8-21-2022,7-11-20,29,depth_duration_stimuli/002199_2014-06-28_18-33-56_260595134347_rgbf000074-resize_0/002199_2014-06-28_18-33-56_260595134347_rgbf000074-resize_0-target.png,125,1.996,15,4190,124,meters,jsons/VE125_randls_60.json,1040011,1722120,40,Woman
29,524614,DepthScenes,duration_manipulation_targetAtFixation,jsons/VE125_randls_60.json,http://54.235.29.9/FacialAge/BNav_EC2/DepthDuration/v2_depth_duration_MTurk/v2_DepthDuration_HTML.html#142,142,1366,625,1366,768,8-21-2022,7-11-20,30,depth_duration_stimuli/000375_2014-06-08_11-17-29_260595134347_rgbf000133-resize_2/000375_2014-06-08_11-17-29_260595134347_rgbf000133-resize-original.jpg,125,4.718,0,4997,126,meters,jsons/VE125_randls_60.json,1040011,1722120,40,Woman
30,524614,DepthScenes,duration_manipulation_targetAtFixation,jsons/VE125_randls_60.json,http://54.235.29.9/FacialAge/BNav_EC2/DepthDuration/v2_depth_duration_MTurk/v2_DepthDuration_HTML.html#142,142,1366,625,1366,768,8-21-2022,7-11-20,31,depth_duration_stimuli/003492_2014-05-21_15-50-55_094959634447_rgbf000828-resize_1/003492_2014-05-21_15-50-55_094959634447_rgbf000828-resize_1-target.png,125,4.06875,25,4953,125,meters,jsons/VE125_randls_60.json,1040011,1722120,40,Woman
31,524614,DepthScenes,duration_manipulation_targetAtFixation,jsons/VE125_randls_60.json,http://54.235.29.9/FacialAge/BNav_EC2/DepthDuration/v2_depth_duration_MTurk/v2_DepthDuration_HTML.html#142,142,1366,625,1366,768,8-21-2022,7-11-20,32,depth_duration_stimuli/002568_2014-06-24_13-59-21_094959634447_rgbf000062-resize_4/002568_2014-06-24_13-59-21_094959634447_rgbf000062-resize_4-target.png,125,3.015,20,3691,125,meters,jsons/VE125_randls_60.json,1040011,1722120,40,Woman
32,524614,DepthScenes,duration_manipulation_targetAtFixation,jsons/VE125_randls_60.json,http://54.235.29.9/FacialAge/BNav_EC2/DepthDuration/v2_depth_duration_MTurk/v2_DepthDuration_HTML.html#142,142,1366,625,1366,768,8-21-2022,7-11-20,33,depth_duration_stimuli/001011_2014-06-08_23-18-54_260595134347_rgbf000044-resize_4/001011_2014-06-08_23-18-54_260595134347_rgbf000044-resize_4-target.png,125,2.4730000000000003,35,4880,126,meters,jsons/VE125_randls_60.json,1040011,1722120,40,Woman
33,524614,DepthScenes,duration_manipulation_targetAtFixation,jsons/VE125_randls_60.json,http://54.235.29.9/FacialAge/BNav_EC2/DepthDuration/v2_depth_duration_MTurk/v2_DepthDuration_HTML.html#142,142,1366,625,1366,768,8-21-2022,7-11-20,34,depth_duration_stimuli/002875_2014-06-01_15-19-00_094959634447_rgbf000151-resize_1/002875_2014-06-01_15-19-00_094959634447_rgbf000151-resize_1-target.png,125,1.9675,21,5656,123,meters,jsons/VE125_randls_60.json,1040011,1722120,40,Woman
34,524614,DepthScenes,duration_manipulation_targetAtFixation,jsons/VE125_randls_60.json,http://54.235.29.9/FacialAge/BNav_EC2/DepthDuration/v2_depth_duration_MTurk/v2_DepthDuration_HTML.html#142,142,1366,625,1366,768,8-21-2022,7-11-20,35,depth_duration_stimuli/000642_2014-06-08_16-59-25_260595134347_rgbf000098-resize_2/000642_2014-06-08_16-59-25_260595134347_rgbf000098-resize_2-target.png,125,2.8815,20,4204,126,meters,jsons/VE125_randls_60.json,1040011,1722120,40,Woman
35,524614,DepthScenes,duration_manipulation_targetAtFixation,jsons/VE125_randls_60.json,http://54.235.29.9/FacialAge/BNav_EC2/DepthDuration/v2_depth_duration_MTurk/v2_DepthDuration_HTML.html#142,142,1366,625,1366,768,8-21-2022,7-11-20,36,depth_duration_stimuli/002425_2014-06-28_20-27-29_260595134347_rgbf000031-resize_8/002425_2014-06-28_20-27-29_260595134347_rgbf000031-resize_8-target.png,125,3.8960000000000004,15,4578,124,meters,jsons/VE125_randls_60.json,1040011,1722120,40,Woman
36,524614,DepthScenes,duration_manipulation_targetAtFixation,jsons/VE125_randls_60.json,http://54.235.29.9/FacialAge/BNav_EC2/DepthDuration/v2_depth_duration_MTurk/v2_DepthDuration_HTML.html#142,142,1366,625,1366,768,8-21-2022,7-11-20,37,depth_duration_stimuli/000447_2014-06-08_16-15-46_260595134347_rgbf000130-resize_1/000447_2014-06-08_16-15-46_260595134347_rgbf000130-resize_1-target.png,125,4.479,30,4289,123,meters,jsons/VE125_randls_60.json,1040011,1722120,40,Woman
37,524614,DepthScenes,duration_manipulation_targetAtFixation,jsons/VE125_randls_60.json,http://54.235.29.9/FacialAge/BNav_EC2/DepthDuration/v2_depth_duration_MTurk/v2_DepthDuration_HTML.html#142,142,1366,625,1366,768,8-21-2022,7-11-20,38,depth_duration_stimuli/001447_2014-06-19_17-00-32_260595134347_rgbf000082-resize_5/001447_2014-06-19_17-00-32_260595134347_rgbf000082-resize_5-target.png,125,4.13775,25,7169,125,meters,jsons/VE125_randls_60.json,1040011,1722120,40,Woman
38,524614,DepthScenes,duration_manipulation_targetAtFixation,jsons/VE125_randls_60.json,http://54.235.29.9/FacialAge/BNav_EC2/DepthDuration/v2_depth_duration_MTurk/v2_DepthDuration_HTML.html#142,142,1366,625,1366,768,8-21-2022,7-11-20,39,depth_duration_stimuli/002600_2014-06-24_14-27-04_094959634447_rgbf000074-resize_2/002600_2014-06-24_14-27-04_094959634447_rgbf000074-resize_2-target.png,125,2.7575,28,7069,123,meters,jsons/VE125_randls_60.json,1040011,1722120,40,Woman
39,524614,DepthScenes,duration_manipulation_targetAtFixation,jsons/VE125_randls_60.json,http://54.235.29.9/FacialAge/BNav_EC2/DepthDuration/v2_depth_duration_MTurk/v2_DepthDuration_HTML.html#142,142,1366,625,1366,768,8-21-2022,7-11-20,40,depth_duration_stimuli/003228_2014-05-14_13-42-35_094959634447_rgbf000101-resize_1/003228_2014-05-14_13-42-35_094959634447_rgbf000101-resize_1-target.png,125,1.9680000000000002,35,3874,124,meters,jsons/VE125_randls_60.json,1040011,1722120,40,Woman
40,524614,DepthScenes,duration_manipulation_targetAtFixation,jsons/VE125_randls_60.json,http://54.235.29.9/FacialAge/BNav_EC2/DepthDuration/v2_depth_duration_MTurk/v2_DepthDuration_HTML.html#142,142,1366,625,1366,768,8-21-2022,7-11-20,41,depth_duration_stimuli/000506_2014-06-08_23-21-00_260595134347_rgbf000070-resize_7/000506_2014-06-08_23-21-00_260595134347_rgbf000070-resize_7-target.png,125,4.0585,36,5625,125,meters,jsons/VE125_randls_60.json,1040011,1722120,40,Woman
41,524614,DepthScenes,duration_manipulation_targetAtFixation,jsons/VE125_randls_60.json,http://54.235.29.9/FacialAge/BNav_EC2/DepthDuration/v2_depth_duration_MTurk/v2_DepthDuration_HTML.html#142,142,1366,625,1366,768,8-21-2022,7-11-20,42,depth_duration_stimuli/003079_2014-06-15_15-18-20_094959634447_rgbf000152-resize_8/003079_2014-06-15_15-18-20_094959634447_rgbf000152-resize_8-target.png,125,2.8775,40,3842,124,meters,jsons/VE125_randls_60.json,1040011,1722120,40,Woman
42,524614,DepthScenes,duration_manipulation_targetAtFixation,jsons/VE125_randls_60.json,http://54.235.29.9/FacialAge/BNav_EC2/DepthDuration/v2_depth_duration_MTurk/v2_DepthDuration_HTML.html#142,142,1366,625,1366,768,8-21-2022,7-11-20,43,depth_duration_stimuli/001092_2014-06-15_17-34-58_260595134347_rgbf000171-resize_3/001092_2014-06-15_17-34-58_260595134347_rgbf000171-resize_3-target.png,125,2.6935,35,6102,126,meters,jsons/VE125_randls_60.json,1040011,1722120,40,Woman
43,524614,DepthScenes,duration_manipulation_targetAtFixation,jsons/VE125_randls_60.json,http://54.235.29.9/FacialAge/BNav_EC2/DepthDuration/v2_depth_duration_MTurk/v2_DepthDuration_HTML.html#142,142,1366,625,1366,768,8-21-2022,7-11-20,44,depth_duration_stimuli/002545_2014-06-24_13-38-53_094959634447_rgbf000080-resize_4/002545_2014-06-24_13-38-53_094959634447_rgbf000080-resize_4-target.png,125,1.9205,25,3723,125,meters,jsons/VE125_randls_60.json,1040011,1722120,40,Woman
44,524614,DepthScenes,duration_manipulation_targetAtFixation,jsons/VE125_randls_60.json,http://54.235.29.9/FacialAge/BNav_EC2/DepthDuration/v2_depth_duration_MTurk/v2_DepthDuration_HTML.html#142,142,1366,625,1366,768,8-21-2022,7-11-20,45,depth_duration_stimuli/000787_2014-06-08_22-33-53_260595134347_rgbf000175-resize_1/000787_2014-06-08_22-33-53_260595134347_rgbf000175-resize-original.jpg,125,4.784,0,5870,105,meters,jsons/VE125_randls_60.json,1040011,1722120,40,Woman
45,524614,DepthScenes,duration_manipulation_targetAtFixation,jsons/VE125_randls_60.json,http://54.235.29.9/FacialAge/BNav_EC2/DepthDuration/v2_depth_duration_MTurk/v2_DepthDuration_HTML.html#142,142,1366,625,1366,768,8-21-2022,7-11-20,46,depth_duration_stimuli/000758_2014-06-08_22-05-08_260595134347_rgbf000085-resize_0/000758_2014-06-08_22-05-08_260595134347_rgbf000085-resize_0-target.png,125,3.3810000000000002,15,5058,124,meters,jsons/VE125_randls_60.json,1040011,1722120,40,Woman
46,524614,DepthScenes,duration_manipulation_targetAtFixation,jsons/VE125_randls_60.json,http://54.235.29.9/FacialAge/BNav_EC2/DepthDuration/v2_depth_duration_MTurk/v2_DepthDuration_HTML.html#142,142,1366,625,1366,768,8-21-2022,7-11-20,47,depth_duration_stimuli/000854_2014-06-09_19-43-13_260595134347_rgbf000066-resize_0/000854_2014-06-09_19-43-13_260595134347_rgbf000066-resize_0-target.png,125,3.068,10,3772,124,meters,jsons/VE125_randls_60.json,1040011,1722120,40,Woman
47,524614,DepthScenes,duration_manipulation_targetAtFixation,jsons/VE125_randls_60.json,http://54.235.29.9/FacialAge/BNav_EC2/DepthDuration/v2_depth_duration_MTurk/v2_DepthDuration_HTML.html#142,142,1366,625,1366,768,8-21-2022,7-11-20,48,depth_duration_stimuli/002153_2014-06-25_21-27-18_260595134347_rgbf000038-resize_5/002153_2014-06-25_21-27-18_260595134347_rgbf000038-resize_5-target.png,125,2.505,25,7207,126,meters,jsons/VE125_randls_60.json,1040011,1722120,40,Woman
48,524614,DepthScenes,duration_manipulation_targetAtFixation,jsons/VE125_randls_60.json,http://54.235.29.9/FacialAge/BNav_EC2/DepthDuration/v2_depth_duration_MTurk/v2_DepthDuration_HTML.html#142,142,1366,625,1366,768,8-21-2022,7-11-20,49,depth_duration_stimuli/002660_2014-06-13_15-44-18_094959634447_rgbf001878-resize_2/002660_2014-06-13_15-44-18_094959634447_rgbf001878-resize_2-target.png,125,3.576,20,5398,124,meters,jsons/VE125_randls_60.json,1040011,1722120,40,Woman
49,524614,DepthScenes,duration_manipulation_targetAtFixation,jsons/VE125_randls_60.json,http://54.235.29.9/FacialAge/BNav_EC2/DepthDuration/v2_depth_duration_MTurk/v2_DepthDuration_HTML.html#142,142,1366,625,1366,768,8-21-2022,7-11-20,50,depth_duration_stimuli/000522_2014-06-08_13-35-06_260595134347_rgbf000244-resize_1/000522_2014-06-08_13-35-06_260595134347_rgbf000244-resize_1-target.png,125,2.3715,10,8058,125,meters,jsons/VE125_randls_60.json,1040011,1722120,40,Woman
50,524614,DepthScenes,duration_manipulation_targetAtFixation,jsons/VE125_randls_60.json,http://54.235.29.9/FacialAge/BNav_EC2/DepthDuration/v2_depth_duration_MTurk/v2_DepthDuration_HTML.html#142,142,1366,625,1366,768,8-21-2022,7-11-20,51,depth_duration_stimuli/002949_2014-06-26_15-57-42_094959634447_rgbf000079-resize_1/002949_2014-06-26_15-57-42_094959634447_rgbf000079-resize_1-target.png,125,1.8915,20,10008,125,meters,jsons/VE125_randls_60.json,1040011,1722120,40,Woman
51,524614,DepthScenes,duration_manipulation_targetAtFixation,jsons/VE125_randls_60.json,http://54.235.29.9/FacialAge/BNav_EC2/DepthDuration/v2_depth_duration_MTurk/v2_DepthDuration_HTML.html#142,142,1366,625,1366,768,8-21-2022,7-11-20,52,depth_duration_stimuli/000414_2014-06-04_19-49-13_260595134347_rgbf000044-resize_0/000414_2014-06-04_19-49-13_260595134347_rgbf000044-resize_0-target.png,125,4.329,5,8876,124,meters,jsons/VE125_randls_60.json,1040011,1722120,40,Woman
52,524614,DepthScenes,duration_manipulation_targetAtFixation,jsons/VE125_randls_60.json,http://54.235.29.9/FacialAge/BNav_EC2/DepthDuration/v2_depth_duration_MTurk/v2_DepthDuration_HTML.html#142,142,1366,625,1366,768,8-21-2022,7-11-20,53,depth_duration_stimuli/003129_2014-05-12_10-48-10_094959634447_rgbf000100-resize_0/003129_2014-05-12_10-48-10_094959634447_rgbf000100-resize_0-target.png,125,4.9305,15,4333,125,meters,jsons/VE125_randls_60.json,1040011,1722120,40,Woman
53,524614,DepthScenes,duration_manipulation_targetAtFixation,jsons/VE125_randls_60.json,http://54.235.29.9/FacialAge/BNav_EC2/DepthDuration/v2_depth_duration_MTurk/v2_DepthDuration_HTML.html#142,142,1366,625,1366,768,8-21-2022,7-11-20,54,depth_duration_stimuli/001175_2014-06-17_15-45-55_260595134347_rgbf000129-resize_4/001175_2014-06-17_15-45-55_260595134347_rgbf000129-resize_4-target.png,125,4.255,15,5635,125,meters,jsons/VE125_randls_60.json,1040011,1722120,40,Woman
54,524614,DepthScenes,duration_manipulation_targetAtFixation,jsons/VE125_randls_60.json,http://54.235.29.9/FacialAge/BNav_EC2/DepthDuration/v2_depth_duration_MTurk/v2_DepthDuration_HTML.html#142,142,1366,625,1366,768,8-21-2022,7-11-20,55,depth_duration_stimuli/003490_2014-05-21_15-50-11_094959634447_rgbf000101-resize_3/003490_2014-05-21_15-50-11_094959634447_rgbf000101-resize_3-target.png,125,3.6445,5,72237,124,meters,jsons/VE125_randls_60.json,1040011,1722120,40,Woman
55,524614,DepthScenes,duration_manipulation_targetAtFixation,jsons/VE125_randls_60.json,http://54.235.29.9/FacialAge/BNav_EC2/DepthDuration/v2_depth_duration_MTurk/v2_DepthDuration_HTML.html#142,142,1366,625,1366,768,8-21-2022,7-11-20,56,depth_duration_stimuli/000470_2014-06-09_19-42-40_260595134347_rgbf000094-resize_1/000470_2014-06-09_19-42-40_260595134347_rgbf000094-resize_1-target.png,125,1.831,25,6449,124,meters,jsons/VE125_randls_60.json,1040011,1722120,40,Woman
56,524614,DepthScenes,duration_manipulation_targetAtFixation,jsons/VE125_randls_60.json,http://54.235.29.9/FacialAge/BNav_EC2/DepthDuration/v2_depth_duration_MTurk/v2_DepthDuration_HTML.html#142,142,1366,625,1366,768,8-21-2022,7-11-20,57,depth_duration_stimuli/000109_2014-05-14_23-41-52_260595134347_rgbf000035-resize_9/000109_2014-05-14_23-41-52_260595134347_rgbf000035-resize_9-target.png,125,1.3545,25,7492,123,meters,jsons/VE125_randls_60.json,1040011,1722120,40,Woman
57,524614,DepthScenes,duration_manipulation_targetAtFixation,jsons/VE125_randls_60.json,http://54.235.29.9/FacialAge/BNav_EC2/DepthDuration/v2_depth_duration_MTurk/v2_DepthDuration_HTML.html#142,142,1366,625,1366,768,8-21-2022,7-11-20,58,depth_duration_stimuli/002213_2014-06-28_18-37-58_260595134347_rgbf000055-resize_1/002213_2014-06-28_18-37-58_260595134347_rgbf000055-resize_1-target.png,125,3.62,15,5499,125,meters,jsons/VE125_randls_60.json,1040011,1722120,40,Woman
58,524614,DepthScenes,duration_manipulation_targetAtFixation,jsons/VE125_randls_60.json,http://54.235.29.9/FacialAge/BNav_EC2/DepthDuration/v2_depth_duration_MTurk/v2_DepthDuration_HTML.html#142,142,1366,625,1366,768,8-21-2022,7-11-20,59,depth_duration_stimuli/000691_2014-06-08_13-08-50_260595134347_rgbf000132-resize_3/000691_2014-06-08_13-08-50_260595134347_rgbf000132-resize_3-target.png,125,4.1530000000000005,25,3313,126,meters,jsons/VE125_randls_60.json,1040011,1722120,40,Woman
59,524614,DepthScenes,duration_manipulation_targetAtFixation,jsons/VE125_randls_60.json,http://54.235.29.9/FacialAge/BNav_EC2/DepthDuration/v2_depth_duration_MTurk/v2_DepthDuration_HTML.html#142,142,1366,625,1366,768,8-21-2022,7-11-20,60,depth_duration_stimuli/001055_2014-06-08_18-45-35_260595134347_rgbf000111-resize_4/001055_2014-06-08_18-45-35_260595134347_rgbf000111-resize_4-target.png,125,2.4290000000000003,35,7727,124,meters,jsons/VE125_randls_60.json,1040011,1722120,40,Woman
60,524614,DepthScenes,duration_manipulation_targetAtFixation,jsons/VE125_randls_60.json,http://54.235.29.9/FacialAge/BNav_EC2/DepthDuration/v2_depth_duration_MTurk/v2_DepthDuration_HTML.html#142,142,1366,625,1366,768,8-21-2022,7-11-20,61,depth_duration_stimuli/000549_2014-06-08_22-10-24_260595134347_rgbf000247-resize_3/000549_2014-06-08_22-10-24_260595134347_rgbf000247-resize_3-target.png,125,1.841,25,4169,126,meters,jsons/VE125_randls_60.json,1040011,1722120,40,Woman
61,524614,DepthScenes,duration_manipulation_targetAtFixation,jsons/VE125_randls_60.json,http://54.235.29.9/FacialAge/BNav_EC2/DepthDuration/v2_depth_duration_MTurk/v2_DepthDuration_HTML.html#142,142,1366,625,1366,768,8-21-2022,7-11-20,62,depth_duration_stimuli/002788_2014-06-22_19-36-03_094959634447_rgbf000088-resize_2/002788_2014-06-22_19-36-03_094959634447_rgbf000088-resize_2-target.png,125,1.6465,36,4596,125,meters,jsons/VE125_randls_60.json,1040011,1722120,40,Woman
62,524614,DepthScenes,duration_manipulation_targetAtFixation,jsons/VE125_randls_60.json,http://54.235.29.9/FacialAge/BNav_EC2/DepthDuration/v2_depth_duration_MTurk/v2_DepthDuration_HTML.html#142,142,1366,625,1366,768,8-21-2022,7-11-20,63,depth_duration_stimuli/000749_2014-06-08_21-55-06_260595134347_rgbf000070-resize_2/000749_2014-06-08_21-55-06_260595134347_rgbf000070-resize_2-target.png,125,2.331,20,5144,124,meters,jsons/VE125_randls_60.json,1040011,1722120,40,Woman
63,524614,DepthScenes,duration_manipulation_targetAtFixation,jsons/VE125_randls_60.json,http://54.235.29.9/FacialAge/BNav_EC2/DepthDuration/v2_depth_duration_MTurk/v2_DepthDuration_HTML.html#142,142,1366,625,1366,768,8-21-2022,7-11-20,64,depth_duration_stimuli/002725_2014-06-22_11-47-51_094959634447_rgbf000070-resize_1/002725_2014-06-22_11-47-51_094959634447_rgbf000070-resize_1-target.png,125,2.195,15,5123,124,meters,jsons/VE125_randls_60.json,1040011,1722120,40,Woman
64,524614,DepthScenes,duration_manipulation_targetAtFixation,jsons/VE125_randls_60.json,http://54.235.29.9/FacialAge/BNav_EC2/DepthDuration/v2_depth_duration_MTurk/v2_DepthDuration_HTML.html#142,142,1366,625,1366,768,8-21-2022,7-11-20,65,depth_duration_stimuli/002344_2014-06-28_20-06-29_260595134347_rgbf000030-resize_1/002344_2014-06-28_20-06-29_260595134347_rgbf000030-resize_1-target.png,125,1.5795,25,3870,111,meters,jsons/VE125_randls_60.json,1040011,1722120,40,Woman
65,524614,DepthScenes,duration_manipulation_targetAtFixation,jsons/VE125_randls_60.json,http://54.235.29.9/FacialAge/BNav_EC2/DepthDuration/v2_depth_duration_MTurk/v2_DepthDuration_HTML.html#142,142,1366,625,1366,768,8-21-2022,7-11-20,66,depth_duration_stimuli/001222_2014-06-17_16-24-06_260595134347_rgbf000073-resize_0/001222_2014-06-17_16-24-06_260595134347_rgbf000073-resize-original.jpg,125,1.4385,0,5262,126,meters,jsons/VE125_randls_60.json,1040011,1722120,40,Woman
66,524614,DepthScenes,duration_manipulation_targetAtFixation,jsons/VE125_randls_60.json,http://54.235.29.9/FacialAge/BNav_EC2/DepthDuration/v2_depth_duration_MTurk/v2_DepthDuration_HTML.html#142,142,1366,625,1366,768,8-21-2022,7-11-20,67,depth_duration_stimuli/000906_2014-06-08_13-35-43_260595134347_rgbf000155-resize_1/000906_2014-06-08_13-35-43_260595134347_rgbf000155-resize_1-target.png,125,2.8489999999999998,25,6177,124,meters,jsons/VE125_randls_60.json,1040011,1722120,40,Woman
67,524614,DepthScenes,duration_manipulation_targetAtFixation,jsons/VE125_randls_60.json,http://54.235.29.9/FacialAge/BNav_EC2/DepthDuration/v2_depth_duration_MTurk/v2_DepthDuration_HTML.html#142,142,1366,625,1366,768,8-21-2022,7-11-20,68,depth_duration_stimuli/002805_2014-06-22_19-54-03_094959634447_rgbf000079-resize_1/002805_2014-06-22_19-54-03_094959634447_rgbf000079-resize_1-target.png,125,3.1439999999999997,23,5099,124,meters,jsons/VE125_randls_60.json,1040011,1722120,40,Woman
68,524614,DepthScenes,duration_manipulation_targetAtFixation,jsons/VE125_randls_60.json,http://54.235.29.9/FacialAge/BNav_EC2/DepthDuration/v2_depth_duration_MTurk/v2_DepthDuration_HTML.html#142,142,1366,625,1366,768,8-21-2022,7-11-20,69,depth_duration_stimuli/002630_2014-06-24_14-47-50_094959634447_rgbf000055-resize_1/002630_2014-06-24_14-47-50_094959634447_rgbf000055-resize_1-target.png,125,3.0095,15,7595,124,meters,jsons/VE125_randls_60.json,1040011,1722120,40,Woman
69,524614,DepthScenes,duration_manipulation_targetAtFixation,jsons/VE125_randls_60.json,http://54.235.29.9/FacialAge/BNav_EC2/DepthDuration/v2_depth_duration_MTurk/v2_DepthDuration_HTML.html#142,142,1366,625,1366,768,8-21-2022,7-11-20,70,depth_duration_stimuli/002758_2014-06-22_19-11-20_094959634447_rgbf000128-resize_1/002758_2014-06-22_19-11-20_094959634447_rgbf000128-resize_1-target.png,125,2.555,25,8102,124,meters,jsons/VE125_randls_60.json,1040011,1722120,40,Woman
70,524614,DepthScenes,duration_manipulation_targetAtFixation,jsons/VE125_randls_60.json,http://54.235.29.9/FacialAge/BNav_EC2/DepthDuration/v2_depth_duration_MTurk/v2_DepthDuration_HTML.html#142,142,1366,625,1366,768,8-21-2022,7-11-20,71,depth_duration_stimuli/001417_2014-06-19_16-25-36_260595134347_rgbf000115-resize_5/001417_2014-06-19_16-25-36_260595134347_rgbf000115-resize_5-target.png,125,4.6255,25,6838,124,meters,jsons/VE125_randls_60.json,1040011,1722120,40,Woman
71,524614,DepthScenes,duration_manipulation_targetAtFixation,jsons/VE125_randls_60.json,http://54.235.29.9/FacialAge/BNav_EC2/DepthDuration/v2_depth_duration_MTurk/v2_DepthDuration_HTML.html#142,142,1366,625,1366,768,8-21-2022,7-11-20,72,depth_duration_stimuli/003081_2014-06-15_15-19-16_094959634447_rgbf000150-resize_1/003081_2014-06-15_15-19-16_094959634447_rgbf000150-resize_1-target.png,125,3.9125,35,4288,125,meters,jsons/VE125_randls_60.json,1040011,1722120,40,Woman
72,524614,DepthScenes,duration_manipulation_targetAtFixation,jsons/VE125_randls_60.json,http://54.235.29.9/FacialAge/BNav_EC2/DepthDuration/v2_depth_duration_MTurk/v2_DepthDuration_HTML.html#142,142,1366,625,1366,768,8-21-2022,7-11-20,73,depth_duration_stimuli/002509_2014-06-24_13-19-22_094959634447_rgbf000077-resize_0/002509_2014-06-24_13-19-22_094959634447_rgbf000077-resize_0-target.png,125,1.3065,2,5666,124,meters,jsons/VE125_randls_60.json,1040011,1722120,40,Woman
73,524614,DepthScenes,duration_manipulation_targetAtFixation,jsons/VE125_randls_60.json,http://54.235.29.9/FacialAge/BNav_EC2/DepthDuration/v2_depth_duration_MTurk/v2_DepthDuration_HTML.html#142,142,1366,625,1366,768,8-21-2022,7-11-20,74,depth_duration_stimuli/003338_2014-05-20_11-01-23_094959634447_rgbf000051-resize_6/003338_2014-05-20_11-01-23_094959634447_rgbf000051-resize_6-target.png,125,1.693,35,4062,123,meters,jsons/VE125_randls_60.json,1040011,1722120,40,Woman
74,524614,DepthScenes,duration_manipulation_targetAtFixation,jsons/VE125_randls_60.json,http://54.235.29.9/FacialAge/BNav_EC2/DepthDuration/v2_depth_duration_MTurk/v2_DepthDuration_HTML.html#142,142,1366,625,1366,768,8-21-2022,7-11-20,75,depth_duration_stimuli/001449_2014-06-19_17-01-27_260595134347_rgbf000116-resize_2/001449_2014-06-19_17-01-27_260595134347_rgbf000116-resize_2-target.png,125,3.452,15,5401,125,meters,jsons/VE125_randls_60.json,1040011,1722120,40,Woman
75,524614,DepthScenes,duration_manipulation_targetAtFixation,jsons/VE125_randls_60.json,http://54.235.29.9/FacialAge/BNav_EC2/DepthDuration/v2_depth_duration_MTurk/v2_DepthDuration_HTML.html#142,142,1366,625,1366,768,8-21-2022,7-11-20,76,depth_duration_stimuli/001450_2014-06-19_17-02-03_260595134347_rgbf000203-resize_4/001450_2014-06-19_17-02-03_260595134347_rgbf000203-resize_4-target.png,125,4.0106666666667,25,5549,123,meters,jsons/VE125_randls_60.json,1040011,1722120,40,Woman
76,524614,DepthScenes,duration_manipulation_targetAtFixation,jsons/VE125_randls_60.json,http://54.235.29.9/FacialAge/BNav_EC2/DepthDuration/v2_depth_duration_MTurk/v2_DepthDuration_HTML.html#142,142,1366,625,1366,768,8-21-2022,7-11-20,77,depth_duration_stimuli/001810_2014-06-26_20-51-35_260595134347_rgbf000040-resize_3/001810_2014-06-26_20-51-35_260595134347_rgbf000040-resize_3-target.png,125,2.2525,25,7181,125,meters,jsons/VE125_randls_60.json,1040011,1722120,40,Woman
77,524614,DepthScenes,duration_manipulation_targetAtFixation,jsons/VE125_randls_60.json,http://54.235.29.9/FacialAge/BNav_EC2/DepthDuration/v2_depth_duration_MTurk/v2_DepthDuration_HTML.html#142,142,1366,625,1366,768,8-21-2022,7-11-20,78,depth_duration_stimuli/003010_2014-06-15_12-54-35_094959634447_rgbf000112-resize_0/003010_2014-06-15_12-54-35_094959634447_rgbf000112-resize_0-target.png,125,3.1185,35,8210,126,meters,jsons/VE125_randls_60.json,1040011,1722120,40,Woman
78,524614,DepthScenes,duration_manipulation_targetAtFixation,jsons/VE125_randls_60.json,http://54.235.29.9/FacialAge/BNav_EC2/DepthDuration/v2_depth_duration_MTurk/v2_DepthDuration_HTML.html#142,142,1366,625,1366,768,8-21-2022,7-11-20,79,depth_duration_stimuli/002375_2014-06-28_20-13-44_260595134347_rgbf000032-resize_1/002375_2014-06-28_20-13-44_260595134347_rgbf000032-resize_1-target.png,125,4.0175,25,4865,126,meters,jsons/VE125_randls_60.json,1040011,1722120,40,Woman
79,524614,DepthScenes,duration_manipulation_targetAtFixation,jsons/VE125_randls_60.json,http://54.235.29.9/FacialAge/BNav_EC2/DepthDuration/v2_depth_duration_MTurk/v2_DepthDuration_HTML.html#142,142,1366,625,1366,768,8-21-2022,7-11-20,80,depth_duration_stimuli/002657_2014-06-13_15-29-54_094959634447_rgbf000150-resize_1/002657_2014-06-13_15-29-54_094959634447_rgbf000150-resize_1-target.png,125,4.919,15,9830,124,meters,jsons/VE125_randls_60.json,1040011,1722120,40,Woman
80,524614,DepthScenes,duration_manipulation_targetAtFixation,jsons/VE125_randls_60.json,http://54.235.29.9/FacialAge/BNav_EC2/DepthDuration/v2_depth_duration_MTurk/v2_DepthDuration_HTML.html#142,142,1366,625,1366,768,8-21-2022,7-11-20,81,depth_duration_stimuli/002118_2014-06-25_20-32-08_260595134347_rgbf000078-resize_1/002118_2014-06-25_20-32-08_260595134347_rgbf000078-resize_1-target.png,125,2.6460000000000004,25,4553,125,meters,jsons/VE125_randls_60.json,1040011,1722120,40,Woman
81,524614,DepthScenes,duration_manipulation_targetAtFixation,jsons/VE125_randls_60.json,http://54.235.29.9/FacialAge/BNav_EC2/DepthDuration/v2_depth_duration_MTurk/v2_DepthDuration_HTML.html#142,142,1366,625,1366,768,8-21-2022,7-11-20,82,depth_duration_stimuli/001516_2014-06-20_16-25-09_260595134347_rgbf000076-resize_2/001516_2014-06-20_16-25-09_260595134347_rgbf000076-resize_2-target.png,125,1.7445,15,3747,126,meters,jsons/VE125_randls_60.json,1040011,1722120,40,Woman
82,524614,DepthScenes,duration_manipulation_targetAtFixation,jsons/VE125_randls_60.json,http://54.235.29.9/FacialAge/BNav_EC2/DepthDuration/v2_depth_duration_MTurk/v2_DepthDuration_HTML.html#142,142,1366,625,1366,768,8-21-2022,7-11-20,83,depth_duration_stimuli/002570_2014-06-24_13-59-54_094959634447_rgbf000059-resize_0/002570_2014-06-24_13-59-54_094959634447_rgbf000059-resize_0-target.png,125,4.037,38,5942,125,meters,jsons/VE125_randls_60.json,1040011,1722120,40,Woman
83,524614,DepthScenes,duration_manipulation_targetAtFixation,jsons/VE125_randls_60.json,http://54.235.29.9/FacialAge/BNav_EC2/DepthDuration/v2_depth_duration_MTurk/v2_DepthDuration_HTML.html#142,142,1366,625,1366,768,8-21-2022,7-11-20,84,depth_duration_stimuli/002467_2014-06-28_20-38-07_260595134347_rgbf000026-resize_2/002467_2014-06-28_20-38-07_260595134347_rgbf000026-resize_2-target.png,125,4.742,25,3735,125,meters,jsons/VE125_randls_60.json,1040011,1722120,40,Woman
84,524614,DepthScenes,duration_manipulation_targetAtFixation,jsons/VE125_randls_60.json,http://54.235.29.9/FacialAge/BNav_EC2/DepthDuration/v2_depth_duration_MTurk/v2_DepthDuration_HTML.html#142,142,1366,625,1366,768,8-21-2022,7-11-20,85,depth_duration_stimuli/000917_2014-06-09_22-45-29_260595134347_rgbf000149-resize_3/000917_2014-06-09_22-45-29_260595134347_rgbf000149-resize_3-target.png,125,4.1865,36,3938,126,meters,jsons/VE125_randls_60.json,1040011,1722120,40,Woman
85,524614,DepthScenes,duration_manipulation_targetAtFixation,jsons/VE125_randls_60.json,http://54.235.29.9/FacialAge/BNav_EC2/DepthDuration/v2_depth_duration_MTurk/v2_DepthDuration_HTML.html#142,142,1366,625,1366,768,8-21-2022,7-11-20,86,depth_duration_stimuli/002323_2014-06-28_20-01-54_260595134347_rgbf000051-resize_4/002323_2014-06-28_20-01-54_260595134347_rgbf000051-resize_4-target.png,125,3.7310000000000003,25,3927,125,meters,jsons/VE125_randls_60.json,1040011,1722120,40,Woman
86,524614,DepthScenes,duration_manipulation_targetAtFixation,jsons/VE125_randls_60.json,http://54.235.29.9/FacialAge/BNav_EC2/DepthDuration/v2_depth_duration_MTurk/v2_DepthDuration_HTML.html#142,142,1366,625,1366,768,8-21-2022,7-11-20,87,depth_duration_stimuli/000493_2014-06-09_21-01-18_260595134347_rgbf000196-resize_3/000493_2014-06-09_21-01-18_260595134347_rgbf000196-resize_3-target.png,125,3.44,12,4266,124,meters,jsons/VE125_randls_60.json,1040011,1722120,40,Woman
87,524614,DepthScenes,duration_manipulation_targetAtFixation,jsons/VE125_randls_60.json,http://54.235.29.9/FacialAge/BNav_EC2/DepthDuration/v2_depth_duration_MTurk/v2_DepthDuration_HTML.html#142,142,1366,625,1366,768,8-21-2022,7-11-20,88,depth_duration_stimuli/000191_2014-05-12_17-07-38_260595134347_rgbf000199-resize_0/000191_2014-05-12_17-07-38_260595134347_rgbf000199-resize_0-target.png,125,3.7995,25,4838,125,meters,jsons/VE125_randls_60.json,1040011,1722120,40,Woman
88,524614,DepthScenes,duration_manipulation_targetAtFixation,jsons/VE125_randls_60.json,http://54.235.29.9/FacialAge/BNav_EC2/DepthDuration/v2_depth_duration_MTurk/v2_DepthDuration_HTML.html#142,142,1366,625,1366,768,8-21-2022,7-11-20,89,depth_duration_stimuli/000878_2014-06-08_22-52-45_260595134347_rgbf000045-resize_2/000878_2014-06-08_22-52-45_260595134347_rgbf000045-resize_2-target.png,125,2.092,35,5778,124,meters,jsons/VE125_randls_60.json,1040011,1722120,40,Woman
89,524614,DepthScenes,duration_manipulation_targetAtFixation,jsons/VE125_randls_60.json,http://54.235.29.9/FacialAge/BNav_EC2/DepthDuration/v2_depth_duration_MTurk/v2_DepthDuration_HTML.html#142,142,1366,625,1366,768,8-21-2022,7-11-20,90,depth_duration_stimuli/002953_2014-06-08_17-32-18_094959634447_rgbf000059-resize_5/002953_2014-06-08_17-32-18_094959634447_rgbf000059-resize_5-target.png,125,1.551,25,4311,123,meters,jsons/VE125_randls_60.json,1040011,1722120,40,Woman
90,524614,DepthScenes,duration_manipulation_targetAtFixation,jsons/VE125_randls_60.json,http://54.235.29.9/FacialAge/BNav_EC2/DepthDuration/v2_depth_duration_MTurk/v2_DepthDuration_HTML.html#142,142,1366,625,1366,768,8-21-2022,7-11-20,91,depth_duration_stimuli/002663_2014-06-13_15-50-26_094959634447_rgbf000075-resize_1/002663_2014-06-13_15-50-26_094959634447_rgbf000075-resize_1-target.png,125,4.7495,15,5015,125,meters,jsons/VE125_randls_60.json,1040011,1722120,40,Woman
91,524614,DepthScenes,duration_manipulation_targetAtFixation,jsons/VE125_randls_60.json,http://54.235.29.9/FacialAge/BNav_EC2/DepthDuration/v2_depth_duration_MTurk/v2_DepthDuration_HTML.html#142,142,1366,625,1366,768,8-21-2022,7-11-20,92,depth_duration_stimuli/000409_2014-06-04_19-23-33_260595134347_rgbf000067-resize_0/000409_2014-06-04_19-23-33_260595134347_rgbf000067-resize_0-target.png,125,3.7335,20,3889,125,meters,jsons/VE125_randls_60.json,1040011,1722120,40,Woman
92,524614,DepthScenes,duration_manipulation_targetAtFixation,jsons/VE125_randls_60.json,http://54.235.29.9/FacialAge/BNav_EC2/DepthDuration/v2_depth_duration_MTurk/v2_DepthDuration_HTML.html#142,142,1366,625,1366,768,8-21-2022,7-11-20,93,depth_duration_stimuli/001555_2014-06-20_17-12-10_260595134347_rgbf000065-resize_4/001555_2014-06-20_17-12-10_260595134347_rgbf000065-resize_4-target.png,125,1.633,8,5115,123,meters,jsons/VE125_randls_60.json,1040011,1722120,40,Woman
93,524614,DepthScenes,duration_manipulation_targetAtFixation,jsons/VE125_randls_60.json,http://54.235.29.9/FacialAge/BNav_EC2/DepthDuration/v2_depth_duration_MTurk/v2_DepthDuration_HTML.html#142,142,1366,625,1366,768,8-21-2022,7-11-20,94,depth_duration_stimuli/000103_2014-05-14_22-01-17_260595134347_rgbf000152-resize_5/000103_2014-05-14_22-01-17_260595134347_rgbf000152-resize_5-target.png,125,1.993,9,3314,125,meters,jsons/VE125_randls_60.json,1040011,1722120,40,Woman
94,524614,DepthScenes,duration_manipulation_targetAtFixation,jsons/VE125_randls_60.json,http://54.235.29.9/FacialAge/BNav_EC2/DepthDuration/v2_depth_duration_MTurk/v2_DepthDuration_HTML.html#142,142,1366,625,1366,768,8-21-2022,7-11-20,95,depth_duration_stimuli/000788_2014-06-08_22-34-36_260595134347_rgbf000131-resize_1/000788_2014-06-08_22-34-36_260595134347_rgbf000131-resize_1-target.png,125,3.359,25,6475,124,meters,jsons/VE125_randls_60.json,1040011,1722120,40,Woman
95,524614,DepthScenes,duration_manipulation_targetAtFixation,jsons/VE125_randls_60.json,http://54.235.29.9/FacialAge/BNav_EC2/DepthDuration/v2_depth_duration_MTurk/v2_DepthDuration_HTML.html#142,142,1366,625,1366,768,8-21-2022,7-11-20,96,depth_duration_stimuli/001235_2014-06-17_16-37-36_260595134347_rgbf000084-resize_4/001235_2014-06-17_16-37-36_260595134347_rgbf000084-resize_4-target.png,125,3.6605,25,5402,125,meters,jsons/VE125_randls_60.json,1040011,1722120,40,Woman
96,524614,DepthScenes,duration_manipulation_targetAtFixation,jsons/VE125_randls_60.json,http://54.235.29.9/FacialAge/BNav_EC2/DepthDuration/v2_depth_duration_MTurk/v2_DepthDuration_HTML.html#142,142,1366,625,1366,768,8-21-2022,7-11-20,97,depth_duration_stimuli/002964_2014-06-08_17-46-11_094959634447_rgbf000091-resize_4/002964_2014-06-08_17-46-11_094959634447_rgbf000091-resize_4-target.png,125,1.6909999999999998,25,34202,125,meters,jsons/VE125_randls_60.json,1040011,1722120,40,Woman
97,524614,DepthScenes,duration_manipulation_targetAtFixation,jsons/VE125_randls_60.json,http://54.235.29.9/FacialAge/BNav_EC2/DepthDuration/v2_depth_duration_MTurk/v2_DepthDuration_HTML.html#142,142,1366,625,1366,768,8-21-2022,7-11-20,98,depth_duration_stimuli/002136_2014-06-25_21-18-03_260595134347_rgbf000109-resize_3/002136_2014-06-25_21-18-03_260595134347_rgbf000109-resize_3-target.png,125,1.9569999999999999,18,3646,124,meters,jsons/VE125_randls_60.json,1040011,1722120,40,Woman
98,524614,DepthScenes,duration_manipulation_targetAtFixation,jsons/VE125_randls_60.json,http://54.235.29.9/FacialAge/BNav_EC2/DepthDuration/v2_depth_duration_MTurk/v2_DepthDuration_HTML.html#142,142,1366,625,1366,768,8-21-2022,7-11-20,99,depth_duration_stimuli/001540_2014-06-20_17-01-05_260595134347_rgbf000086-resize_2/001540_2014-06-20_17-01-05_260595134347_rgbf000086-resize-original.jpg,125,1.459,26,5782,125,meters,jsons/VE125_randls_60.json,1040011,1722120,40,Woman
99,524614,DepthScenes,duration_manipulation_targetAtFixation,jsons/VE125_randls_60.json,http://54.235.29.9/FacialAge/BNav_EC2/DepthDuration/v2_depth_duration_MTurk/v2_DepthDuration_HTML.html#142,142,1366,625,1366,768,8-21-2022,7-11-20,100,depth_duration_stimuli/001133_2014-06-17_14-49-16_260595134347_rgbf000100-resize_0/001133_2014-06-17_14-49-16_260595134347_rgbf000100-resize_0-target.png,125,4.2115,25,4912,121,meters,jsons/VE125_randls_60.json,1040011,1722120,40,Woman
100,524614,DepthScenes,duration_manipulation_targetAtFixation,jsons/VE125_randls_60.json,http://54.235.29.9/FacialAge/BNav_EC2/DepthDuration/v2_depth_duration_MTurk/v2_DepthDuration_HTML.html#142,142,1366,625,1366,768,8-21-2022,7-11-20,101,depth_duration_stimuli/001132_2014-06-17_14-48-54_260595134347_rgbf000100-resize_2/001132_2014-06-17_14-48-54_260595134347_rgbf000100-resize_2-target.png,125,3.753,36,8222,124,meters,jsons/VE125_randls_60.json,1040011,1722120,40,Woman
101,524614,DepthScenes,duration_manipulation_targetAtFixation,jsons/VE125_randls_60.json,http://54.235.29.9/FacialAge/BNav_EC2/DepthDuration/v2_depth_duration_MTurk/v2_DepthDuration_HTML.html#142,142,1366,625,1366,768,8-21-2022,7-11-20,102,depth_duration_stimuli/000736_2014-06-08_18-24-15_260595134347_rgbf000206-resize_3/000736_2014-06-08_18-24-15_260595134347_rgbf000206-resize_3-target.png,125,3.515,25,4762,124,meters,jsons/VE125_randls_60.json,1040011,1722120,40,Woman
102,524614,DepthScenes,duration_manipulation_targetAtFixation,jsons/VE125_randls_60.json,http://54.235.29.9/FacialAge/BNav_EC2/DepthDuration/v2_depth_duration_MTurk/v2_DepthDuration_HTML.html#142,142,1366,625,1366,768,8-21-2022,7-11-20,103,depth_duration_stimuli/000137_2014-05-20_17-04-49_260595134347_rgbf000120-resize_1/000137_2014-05-20_17-04-49_260595134347_rgbf000120-resize_1-target.png,125,3.786,18,4459,124,meters,jsons/VE125_randls_60.json,1040011,1722120,40,Woman
103,524614,DepthScenes,duration_manipulation_targetAtFixation,jsons/VE125_randls_60.json,http://54.235.29.9/FacialAge/BNav_EC2/DepthDuration/v2_depth_duration_MTurk/v2_DepthDuration_HTML.html#142,142,1366,625,1366,768,8-21-2022,7-11-20,104,depth_duration_stimuli/000692_2014-06-08_13-09-42_260595134347_rgbf000199-resize_2/000692_2014-06-08_13-09-42_260595134347_rgbf000199-resize_2-target.png,125,3.661,40,8673,125,meters,jsons/VE125_randls_60.json,1040011,1722120,40,Woman
104,524614,DepthScenes,duration_manipulation_targetAtFixation,jsons/VE125_randls_60.json,http://54.235.29.9/FacialAge/BNav_EC2/DepthDuration/v2_depth_duration_MTurk/v2_DepthDuration_HTML.html#142,142,1366,625,1366,768,8-21-2022,7-11-20,105,depth_duration_stimuli/001094_2014-06-15_17-36-00_260595134347_rgbf000205-resize_0/001094_2014-06-15_17-36-00_260595134347_rgbf000205-resize_0-target.png,125,4.2175,25,3981,125,meters,jsons/VE125_randls_60.json,1040011,1722120,40,Woman
105,524614,DepthScenes,duration_manipulation_targetAtFixation,jsons/VE125_randls_60.json,http://54.235.29.9/FacialAge/BNav_EC2/DepthDuration/v2_depth_duration_MTurk/v2_DepthDuration_HTML.html#142,142,1366,625,1366,768,8-21-2022,7-11-20,106,depth_duration_stimuli/003621_2014-05-23_18-06-08_094959634447_rgbf000101-resize_1/003621_2014-05-23_18-06-08_094959634447_rgbf000101-resize_1-target.png,125,3.9835,23,6653,125,meters,jsons/VE125_randls_60.json,1040011,1722120,40,Woman
106,524614,DepthScenes,duration_manipulation_targetAtFixation,jsons/VE125_randls_60.json,http://54.235.29.9/FacialAge/BNav_EC2/DepthDuration/v2_depth_duration_MTurk/v2_DepthDuration_HTML.html#142,142,1366,625,1366,768,8-21-2022,7-11-20,107,depth_duration_stimuli/001584_2014-06-20_11-07-43_260595134347_rgbf000002-resize_1/001584_2014-06-20_11-07-43_260595134347_rgbf000002-resize_1-target.png,125,3.53,32,3627,126,meters,jsons/VE125_randls_60.json,1040011,1722120,40,Woman
107,524614,DepthScenes,duration_manipulation_targetAtFixation,jsons/VE125_randls_60.json,http://54.235.29.9/FacialAge/BNav_EC2/DepthDuration/v2_depth_duration_MTurk/v2_DepthDuration_HTML.html#142,142,1366,625,1366,768,8-21-2022,7-11-20,108,depth_duration_stimuli/002784_2014-06-22_19-26-30_094959634447_rgbf000083-resize_3/002784_2014-06-22_19-26-30_094959634447_rgbf000083-resize_3-target.png,125,1.8046666666667,21,5477,124,meters,jsons/VE125_randls_60.json,1040011,1722120,40,Woman
108,524614,DepthScenes,duration_manipulation_targetAtFixation,jsons/VE125_randls_60.json,http://54.235.29.9/FacialAge/BNav_EC2/DepthDuration/v2_depth_duration_MTurk/v2_DepthDuration_HTML.html#142,142,1366,625,1366,768,8-21-2022,7-11-20,109,depth_duration_stimuli/001100_2014-06-15_17-46-26_260595134347_rgbf000225-resize_2/001100_2014-06-15_17-46-26_260595134347_rgbf000225-resize_2-target.png,125,2.24,15,2965,124,meters,jsons/VE125_randls_60.json,1040011,1722120,40,Woman
109,524614,DepthScenes,duration_manipulation_targetAtFixation,jsons/VE125_randls_60.json,http://54.235.29.9/FacialAge/BNav_EC2/DepthDuration/v2_depth_duration_MTurk/v2_DepthDuration_HTML.html#142,142,1366,625,1366,768,8-21-2022,7-11-20,110,depth_duration_stimuli/001806_2014-06-26_20-50-20_260595134347_rgbf000091-resize_1/001806_2014-06-26_20-50-20_260595134347_rgbf000091-resize_1-target.png,125,2.7305,25,3697,125,meters,jsons/VE125_randls_60.json,1040011,1722120,40,Woman
110,524614,DepthScenes,duration_manipulation_targetAtFixation,jsons/VE125_randls_60.json,http://54.235.29.9/FacialAge/BNav_EC2/DepthDuration/v2_depth_duration_MTurk/v2_DepthDuration_HTML.html#142,142,1366,625,1366,768,8-21-2022,7-11-20,111,depth_duration_stimuli/001617_2014-06-20_11-35-32_260595134347_rgbf000066-resize_1/001617_2014-06-20_11-35-32_260595134347_rgbf000066-resize_1-target.png,125,3.7910000000000004,32,3955,124,meters,jsons/VE125_randls_60.json,1040011,1722120,40,Woman
111,524614,DepthScenes,duration_manipulation_targetAtFixation,jsons/VE125_randls_60.json,http://54.235.29.9/FacialAge/BNav_EC2/DepthDuration/v2_depth_duration_MTurk/v2_DepthDuration_HTML.html#142,142,1366,625,1366,768,8-21-2022,7-11-20,112,depth_duration_stimuli/001016_2014-06-09_16-16-10_260595134347_rgbf000112-resize_5/001016_2014-06-09_16-16-10_260595134347_rgbf000112-resize_5-target.png,125,1.6565,30,5488,123,meters,jsons/VE125_randls_60.json,1040011,1722120,40,Woman
112,524614,DepthScenes,duration_manipulation_targetAtFixation,jsons/VE125_randls_60.json,http://54.235.29.9/FacialAge/BNav_EC2/DepthDuration/v2_depth_duration_MTurk/v2_DepthDuration_HTML.html#142,142,1366,625,1366,768,8-21-2022,7-11-20,113,depth_duration_stimuli/002340_2014-06-28_20-05-46_260595134347_rgbf000113-resize_0/002340_2014-06-28_20-05-46_260595134347_rgbf000113-resize_0-target.png,125,2.4735,25,4083,126,meters,jsons/VE125_randls_60.json,1040011,1722120,40,Woman
113,524614,DepthScenes,duration_manipulation_targetAtFixation,jsons/VE125_randls_60.json,http://54.235.29.9/FacialAge/BNav_EC2/DepthDuration/v2_depth_duration_MTurk/v2_DepthDuration_HTML.html#142,142,1366,625,1366,768,8-21-2022,7-11-20,114,depth_duration_stimuli/001029_2014-06-08_13-17-57_260595134347_rgbf000065-resize_1/001029_2014-06-08_13-17-57_260595134347_rgbf000065-resize_1-target.png,125,3.0835,25,5345,123,meters,jsons/VE125_randls_60.json,1040011,1722120,40,Woman
114,524614,DepthScenes,duration_manipulation_targetAtFixation,jsons/VE125_randls_60.json,http://54.235.29.9/FacialAge/BNav_EC2/DepthDuration/v2_depth_duration_MTurk/v2_DepthDuration_HTML.html#142,142,1366,625,1366,768,8-21-2022,7-11-20,115,depth_duration_stimuli/000677_2014-06-08_23-10-32_260595134347_rgbf000158-resize_6/000677_2014-06-08_23-10-32_260595134347_rgbf000158-resize_6-target.png,125,3.556,32,4270,124,meters,jsons/VE125_randls_60.json,1040011,1722120,40,Woman
115,524614,DepthScenes,duration_manipulation_targetAtFixation,jsons/VE125_randls_60.json,http://54.235.29.9/FacialAge/BNav_EC2/DepthDuration/v2_depth_duration_MTurk/v2_DepthDuration_HTML.html#142,142,1366,625,1366,768,8-21-2022,7-11-20,116,depth_duration_stimuli/001170_2014-06-17_15-43-44_260595134347_rgbf000096-resize_6/001170_2014-06-17_15-43-44_260595134347_rgbf000096-resize-original.jpg,125,1.1909999999999998,0,3750,123,meters,jsons/VE125_randls_60.json,1040011,1722120,40,Woman
116,524614,DepthScenes,duration_manipulation_targetAtFixation,jsons/VE125_randls_60.json,http://54.235.29.9/FacialAge/BNav_EC2/DepthDuration/v2_depth_duration_MTurk/v2_DepthDuration_HTML.html#142,142,1366,625,1366,768,8-21-2022,7-11-20,117,depth_duration_stimuli/003070_2014-06-15_14-58-27_094959634447_rgbf000150-resize_3/003070_2014-06-15_14-58-27_094959634447_rgbf000150-resize_3-target.png,125,2.9415,24,4478,125,meters,jsons/VE125_randls_60.json,1040011,1722120,40,Woman
117,524614,DepthScenes,duration_manipulation_targetAtFixation,jsons/VE125_randls_60.json,http://54.235.29.9/FacialAge/BNav_EC2/DepthDuration/v2_depth_duration_MTurk/v2_DepthDuration_HTML.html#142,142,1366,625,1366,768,8-21-2022,7-11-20,118,depth_duration_stimuli/000943_2014-06-09_19-31-07_260595134347_rgbf000128-resize_1/000943_2014-06-09_19-31-07_260595134347_rgbf000128-resize_1-target.png,125,1.9765,12,4818,123,meters,jsons/VE125_randls_60.json,1040011,1722120,40,Woman
118,524614,DepthScenes,duration_manipulation_targetAtFixation,jsons/VE125_randls_60.json,http://54.235.29.9/FacialAge/BNav_EC2/DepthDuration/v2_depth_duration_MTurk/v2_DepthDuration_HTML.html#142,142,1366,625,1366,768,8-21-2022,7-11-20,119,depth_duration_stimuli/000682_2014-06-08_23-14-58_260595134347_rgbf000041-resize_5/000682_2014-06-08_23-14-58_260595134347_rgbf000041-resize_5-target.png,125,2.7239999999999998,24,3297,124,meters,jsons/VE125_randls_60.json,1040011,1722120,40,Woman
119,524614,DepthScenes,duration_manipulation_targetAtFixation,jsons/VE125_randls_60.json,http://54.235.29.9/FacialAge/BNav_EC2/DepthDuration/v2_depth_duration_MTurk/v2_DepthDuration_HTML.html#142,142,1366,625,1366,768,8-21-2022,7-11-20,120,depth_duration_stimuli/001650_2014-06-20_12-09-00_260595134347_rgbf000087-resize_3/001650_2014-06-20_12-09-00_260595134347_rgbf000087-resize_3-target.png,125,1.9505,12,4290,123,meters,jsons/VE125_randls_60.json,1040011,1722120,40,Woman
120,524614,DepthScenes,duration_manipulation_targetAtFixation,jsons/VE125_randls_60.json,http://54.235.29.9/FacialAge/BNav_EC2/DepthDuration/v2_depth_duration_MTurk/v2_DepthDuration_HTML.html#142,142,1366,625,1366,768,8-21-2022,7-11-20,121,depth_duration_stimuli/000368_2014-06-09_15-53-01_260595134347_rgbf000155-resize_2/000368_2014-06-09_15-53-01_260595134347_rgbf000155-resize_2-target.png,125,2.4859999999999998,31,5159,126,meters,jsons/VE125_randls_60.json,1040011,1722120,40,Woman
121,524614,DepthScenes,duration_manipulation_targetAtFixation,jsons/VE125_randls_60.json,http://54.235.29.9/FacialAge/BNav_EC2/DepthDuration/v2_depth_duration_MTurk/v2_DepthDuration_HTML.html#142,142,1366,625,1366,768,8-21-2022,7-11-20,122,depth_duration_stimuli/002678_2014-06-13_16-15-32_094959634447_rgbf000151-resize_6/002678_2014-06-13_16-15-32_094959634447_rgbf000151-resize_6-target.png,125,2.1830000000000003,21,2898,118,meters,jsons/VE125_randls_60.json,1040011,1722120,40,Woman
122,524614,DepthScenes,duration_manipulation_targetAtFixation,jsons/VE125_randls_60.json,http://54.235.29.9/FacialAge/BNav_EC2/DepthDuration/v2_depth_duration_MTurk/v2_DepthDuration_HTML.html#142,142,1366,625,1366,768,8-21-2022,7-11-20,123,depth_duration_stimuli/002272_2014-06-28_18-53-56_260595134347_rgbf000067-resize_2/002272_2014-06-28_18-53-56_260595134347_rgbf000067-resize_2-target.png,125,1.138,25,9369,124,meters,jsons/VE125_randls_60.json,1040011,1722120,40,Woman
123,524614,DepthScenes,duration_manipulation_targetAtFixation,jsons/VE125_randls_60.json,http://54.235.29.9/FacialAge/BNav_EC2/DepthDuration/v2_depth_duration_MTurk/v2_DepthDuration_HTML.html#142,142,1366,625,1366,768,8-21-2022,7-11-20,124,depth_duration_stimuli/001571_2014-06-20_17-21-32_260595134347_rgbf000089-resize_1/001571_2014-06-20_17-21-32_260595134347_rgbf000089-resize_1-target.png,125,1.86,25,3244,124,meters,jsons/VE125_randls_60.json,1040011,1722120,40,Woman
124,524614,DepthScenes,duration_manipulation_targetAtFixation,jsons/VE125_randls_60.json,http://54.235.29.9/FacialAge/BNav_EC2/DepthDuration/v2_depth_duration_MTurk/v2_DepthDuration_HTML.html#142,142,1366,625,1366,768,8-21-2022,7-11-20,125,depth_duration_stimuli/002988_2014-06-15_12-24-20_094959634447_rgbf000150-resize_1/002988_2014-06-15_12-24-20_094959634447_rgbf000150-resize_1-target.png,125,4.7669999999999995,25,4540,126,meters,jsons/VE125_randls_60.json,1040011,1722120,40,Woman
125,524614,DepthScenes,duration_manipulation_targetAtFixation,jsons/VE125_randls_60.json,http://54.235.29.9/FacialAge/BNav_EC2/DepthDuration/v2_depth_duration_MTurk/v2_DepthDuration_HTML.html#142,142,1366,625,1366,768,8-21-2022,7-11-20,126,depth_duration_stimuli/001052_2014-06-08_18-24-54_260595134347_rgbf000130-resize_1/001052_2014-06-08_18-24-54_260595134347_rgbf000130-resize_1-target.png,125,4.1045,40,3139,125,meters,jsons/VE125_randls_60.json,1040011,1722120,40,Woman
126,524614,DepthScenes,duration_manipulation_targetAtFixation,jsons/VE125_randls_60.json,http://54.235.29.9/FacialAge/BNav_EC2/DepthDuration/v2_depth_duration_MTurk/v2_DepthDuration_HTML.html#142,142,1366,625,1366,768,8-21-2022,7-11-20,127,depth_duration_stimuli/001808_2014-06-26_20-50-58_260595134347_rgbf000029-resize_1/001808_2014-06-26_20-50-58_260595134347_rgbf000029-resize_1-target.png,125,4.249,25,3593,123,meters,jsons/VE125_randls_60.json,1040011,1722120,40,Woman
127,524614,DepthScenes,duration_manipulation_targetAtFixation,jsons/VE125_randls_60.json,http://54.235.29.9/FacialAge/BNav_EC2/DepthDuration/v2_depth_duration_MTurk/v2_DepthDuration_HTML.html#142,142,1366,625,1366,768,8-21-2022,7-11-20,128,depth_duration_stimuli/001815_2014-06-26_20-52-55_260595134347_rgbf000020-resize_0/001815_2014-06-26_20-52-55_260595134347_rgbf000020-resize_0-target.png,125,3.3865,20,4724,125,meters,jsons/VE125_randls_60.json,1040011,1722120,40,Woman
128,524614,DepthScenes,duration_manipulation_targetAtFixation,jsons/VE125_randls_60.json,http://54.235.29.9/FacialAge/BNav_EC2/DepthDuration/v2_depth_duration_MTurk/v2_DepthDuration_HTML.html#142,142,1366,625,1366,768,8-21-2022,7-11-20,129,depth_duration_stimuli/001244_2014-06-17_16-47-45_260595134347_rgbf000030-resize_4/001244_2014-06-17_16-47-45_260595134347_rgbf000030-resize_4-target.png,125,2.0425,25,3494,125,meters,jsons/VE125_randls_60.json,1040011,1722120,40,Woman
129,524614,DepthScenes,duration_manipulation_targetAtFixation,jsons/VE125_randls_60.json,http://54.235.29.9/FacialAge/BNav_EC2/DepthDuration/v2_depth_duration_MTurk/v2_DepthDuration_HTML.html#142,142,1366,625,1366,768,8-21-2022,7-11-20,130,depth_duration_stimuli/003495_2014-05-21_16-01-51_094959634447_rgbf000100-resize_3/003495_2014-05-21_16-01-51_094959634447_rgbf000100-resize_3-target.png,125,1.6255,20,3166,125,meters,jsons/VE125_randls_60.json,1040011,1722120,40,Woman
130,524614,DepthScenes,duration_manipulation_targetAtFixation,jsons/VE125_randls_60.json,http://54.235.29.9/FacialAge/BNav_EC2/DepthDuration/v2_depth_duration_MTurk/v2_DepthDuration_HTML.html#142,142,1366,625,1366,768,8-21-2022,7-11-20,131,depth_duration_stimuli/001110_2014-06-15_17-25-28_260595134347_rgbf000150-resize_1/001110_2014-06-15_17-25-28_260595134347_rgbf000150-resize_1-target.png,125,1.7115,25,3605,124,meters,jsons/VE125_randls_60.json,1040011,1722120,40,Woman
131,524614,DepthScenes,duration_manipulation_targetAtFixation,jsons/VE125_randls_60.json,http://54.235.29.9/FacialAge/BNav_EC2/DepthDuration/v2_depth_duration_MTurk/v2_DepthDuration_HTML.html#142,142,1366,625,1366,768,8-21-2022,7-11-20,132,depth_duration_stimuli/000927_2014-06-09_16-32-30_260595134347_rgbf000123-resize_3/000927_2014-06-09_16-32-30_260595134347_rgbf000123-resize_3-target.png,125,2.6785,5,2641,124,meters,jsons/VE125_randls_60.json,1040011,1722120,40,Woman
132,524614,DepthScenes,duration_manipulation_targetAtFixation,jsons/VE125_randls_60.json,http://54.235.29.9/FacialAge/BNav_EC2/DepthDuration/v2_depth_duration_MTurk/v2_DepthDuration_HTML.html#142,142,1366,625,1366,768,8-21-2022,7-11-20,133,depth_duration_stimuli/000436_2014-06-09_22-25-11_260595134347_rgbf000137-resize_1/000436_2014-06-09_22-25-11_260595134347_rgbf000137-resize_1-target.png,125,4.0705,25,4916,124,meters,jsons/VE125_randls_60.json,1040011,1722120,40,Woman
133,524614,DepthScenes,duration_manipulation_targetAtFixation,jsons/VE125_randls_60.json,http://54.235.29.9/FacialAge/BNav_EC2/DepthDuration/v2_depth_duration_MTurk/v2_DepthDuration_HTML.html#142,142,1366,625,1366,768,8-21-2022,7-11-20,134,depth_duration_stimuli/002444_2014-06-28_20-32-08_260595134347_rgbf000027-resize_0/002444_2014-06-28_20-32-08_260595134347_rgbf000027-resize_0-target.png,125,4.388999999999999,25,2894,126,meters,jsons/VE125_randls_60.json,1040011,1722120,40,Woman
134,524614,DepthScenes,duration_manipulation_targetAtFixation,jsons/VE125_randls_60.json,http://54.235.29.9/FacialAge/BNav_EC2/DepthDuration/v2_depth_duration_MTurk/v2_DepthDuration_HTML.html#142,142,1366,625,1366,768,8-21-2022,7-11-20,135,depth_duration_stimuli/002072_2014-06-24_21-48-06_260595134347_rgbf000115-resize_0/002072_2014-06-24_21-48-06_260595134347_rgbf000115-resize-original.jpg,125,4.702,0,5124,124,meters,jsons/VE125_randls_60.json,1040011,1722120,40,Woman
135,524614,DepthScenes,duration_manipulation_targetAtFixation,jsons/VE125_randls_60.json,http://54.235.29.9/FacialAge/BNav_EC2/DepthDuration/v2_depth_duration_MTurk/v2_DepthDuration_HTML.html#142,142,1366,625,1366,768,8-21-2022,7-11-20,136,depth_duration_stimuli/000009_2014-05-26_14-32-05_260595134347_rgbf000034-resize_3/000009_2014-05-26_14-32-05_260595134347_rgbf000034-resize_3-target.png,125,3.8715,25,2827,123,meters,jsons/VE125_randls_60.json,1040011,1722120,40,Woman
136,524614,DepthScenes,duration_manipulation_targetAtFixation,jsons/VE125_randls_60.json,http://54.235.29.9/FacialAge/BNav_EC2/DepthDuration/v2_depth_duration_MTurk/v2_DepthDuration_HTML.html#142,142,1366,625,1366,768,8-21-2022,7-11-20,137,depth_duration_stimuli/001828_2014-06-26_21-40-03_260595134347_rgbf000024-resize_0/001828_2014-06-26_21-40-03_260595134347_rgbf000024-resize_0-target.png,125,4.8260000000000005,25,3353,126,meters,jsons/VE125_randls_60.json,1040011,1722120,40,Woman
137,524614,DepthScenes,duration_manipulation_targetAtFixation,jsons/VE125_randls_60.json,http://54.235.29.9/FacialAge/BNav_EC2/DepthDuration/v2_depth_duration_MTurk/v2_DepthDuration_HTML.html#142,142,1366,625,1366,768,8-21-2022,7-11-20,138,depth_duration_stimuli/002905_2014-06-03_18-04-43_094959634447_rgbf000151-resize_2/002905_2014-06-03_18-04-43_094959634447_rgbf000151-resize_2-target.png,125,2.0295,25,4123,124,meters,jsons/VE125_randls_60.json,1040011,1722120,40,Woman
138,524614,DepthScenes,duration_manipulation_targetAtFixation,jsons/VE125_randls_60.json,http://54.235.29.9/FacialAge/BNav_EC2/DepthDuration/v2_depth_duration_MTurk/v2_DepthDuration_HTML.html#142,142,1366,625,1366,768,8-21-2022,7-11-20,139,depth_duration_stimuli/003423_2014-05-21_10-23-26_094959634447_rgbf002665-resize_2/003423_2014-05-21_10-23-26_094959634447_rgbf002665-resize_2-target.png,125,3.2575,25,2486,123,meters,jsons/VE125_randls_60.json,1040011,1722120,40,Woman
139,524614,DepthScenes,duration_manipulation_targetAtFixation,jsons/VE125_randls_60.json,http://54.235.29.9/FacialAge/BNav_EC2/DepthDuration/v2_depth_duration_MTurk/v2_DepthDuration_HTML.html#142,142,1366,625,1366,768,8-21-2022,7-11-20,140,depth_duration_stimuli/001066_2014-06-08_22-03-20_260595134347_rgbf000066-resize_4/001066_2014-06-08_22-03-20_260595134347_rgbf000066-resize_4-target.png,125,4.2330000000000005,15,3692,124,meters,jsons/VE125_randls_60.json,1040011,1722120,40,Woman
140,524614,DepthScenes,duration_manipulation_targetAtFixation,jsons/VE125_randls_60.json,http://54.235.29.9/FacialAge/BNav_EC2/DepthDuration/v2_depth_duration_MTurk/v2_DepthDuration_HTML.html#142,142,1366,625,1366,768,8-21-2022,7-11-20,141,depth_duration_stimuli/000742_2014-06-08_18-48-09_260595134347_rgbf000164-resize_4/000742_2014-06-08_18-48-09_260595134347_rgbf000164-resize_4-target.png,125,4.632,25,3033,125,meters,jsons/VE125_randls_60.json,1040011,1722120,40,Woman
141,524614,DepthScenes,duration_manipulation_targetAtFixation,jsons/VE125_randls_60.json,http://54.235.29.9/FacialAge/BNav_EC2/DepthDuration/v2_depth_duration_MTurk/v2_DepthDuration_HTML.html#142,142,1366,625,1366,768,8-21-2022,7-11-20,142,depth_duration_stimuli/002279_2014-06-28_18-55-32_260595134347_rgbf000040-resize_5/002279_2014-06-28_18-55-32_260595134347_rgbf000040-resize_5-target.png,125,1.5043333333333,15,3697,124,meters,jsons/VE125_randls_60.json,1040011,1722120,40,Woman
142,524614,DepthScenes,duration_manipulation_targetAtFixation,jsons/VE125_randls_60.json,http://54.235.29.9/FacialAge/BNav_EC2/DepthDuration/v2_depth_duration_MTurk/v2_DepthDuration_HTML.html#142,142,1366,625,1366,768,8-21-2022,7-11-20,143,depth_duration_stimuli/000635_2014-06-08_16-38-42_260595134347_rgbf000106-resize_1/000635_2014-06-08_16-38-42_260595134347_rgbf000106-resize_1-target.png,125,2.074,25,2619,126,meters,jsons/VE125_randls_60.json,1040011,1722120,40,Woman
143,524614,DepthScenes,duration_manipulation_targetAtFixation,jsons/VE125_randls_60.json,http://54.235.29.9/FacialAge/BNav_EC2/DepthDuration/v2_depth_duration_MTurk/v2_DepthDuration_HTML.html#142,142,1366,625,1366,768,8-21-2022,7-11-20,144,depth_duration_stimuli/003292_2014-05-14_21-53-49_094959634447_rgbf000100-resize_2/003292_2014-05-14_21-53-49_094959634447_rgbf000100-resize_2-target.png,125,3.4815,25,3278,126,meters,jsons/VE125_randls_60.json,1040011,1722120,40,Woman
144,524614,DepthScenes,duration_manipulation_targetAtFixation,jsons/VE125_randls_60.json,http://54.235.29.9/FacialAge/BNav_EC2/DepthDuration/v2_depth_duration_MTurk/v2_DepthDuration_HTML.html#142,142,1366,625,1366,768,8-21-2022,7-11-20,145,depth_duration_stimuli/002639_2014-06-24_14-51-37_094959634447_rgbf000074-resize_4/002639_2014-06-24_14-51-37_094959634447_rgbf000074-resize_4-target.png,125,4.0375,25,2185,124,meters,jsons/VE125_randls_60.json,1040011,1722120,40,Woman
145,524614,DepthScenes,duration_manipulation_targetAtFixation,jsons/VE125_randls_60.json,http://54.235.29.9/FacialAge/BNav_EC2/DepthDuration/v2_depth_duration_MTurk/v2_DepthDuration_HTML.html#142,142,1366,625,1366,768,8-21-2022,7-11-20,146,depth_duration_stimuli/001498_2014-06-19_17-45-14_260595134347_rgbf000129-resize_4/001498_2014-06-19_17-45-14_260595134347_rgbf000129-resize-original.jpg,125,1.4075,0,3929,123,meters,jsons/VE125_randls_60.json,1040011,1722120,40,Woman
146,524614,DepthScenes,duration_manipulation_targetAtFixation,jsons/VE125_randls_60.json,http://54.235.29.9/FacialAge/BNav_EC2/DepthDuration/v2_depth_duration_MTurk/v2_DepthDuration_HTML.html#142,142,1366,625,1366,768,8-21-2022,7-11-20,147,depth_duration_stimuli/001570_2014-06-20_17-21-09_260595134347_rgbf000135-resize_4/001570_2014-06-20_17-21-09_260595134347_rgbf000135-resize_4-target.png,125,4.467,25,4603,126,meters,jsons/VE125_randls_60.json,1040011,1722120,40,Woman
147,524614,DepthScenes,duration_manipulation_targetAtFixation,jsons/VE125_randls_60.json,http://54.235.29.9/FacialAge/BNav_EC2/DepthDuration/v2_depth_duration_MTurk/v2_DepthDuration_HTML.html#142,142,1366,625,1366,768,8-21-2022,7-11-20,148,depth_duration_stimuli/001392_2014-06-19_16-07-59_260595134347_rgbf000046-resize_1/001392_2014-06-19_16-07-59_260595134347_rgbf000046-resize_1-target.png,125,4.135,25,2705,125,meters,jsons/VE125_randls_60.json,1040011,1722120,40,Woman
148,524614,DepthScenes,duration_manipulation_targetAtFixation,jsons/VE125_randls_60.json,http://54.235.29.9/FacialAge/BNav_EC2/DepthDuration/v2_depth_duration_MTurk/v2_DepthDuration_HTML.html#142,142,1366,625,1366,768,8-21-2022,7-11-20,149,depth_duration_stimuli/000773_2014-06-08_22-24-54_260595134347_rgbf000093-resize_1/000773_2014-06-08_22-24-54_260595134347_rgbf000093-resize_1-target.png,125,4.973,25,4837,126,meters,jsons/VE125_randls_60.json,1040011,1722120,40,Woman
149,524614,DepthScenes,duration_manipulation_targetAtFixation,jsons/VE125_randls_60.json,http://54.235.29.9/FacialAge/BNav_EC2/DepthDuration/v2_depth_duration_MTurk/v2_DepthDuration_HTML.html#142,142,1366,625,1366,768,8-21-2022,7-11-20,150,depth_duration_stimuli/002414_2014-06-28_20-24-58_260595134347_rgbf000067-resize_4/002414_2014-06-28_20-24-58_260595134347_rgbf000067-resize_4-target.png,125,4.363,20,2792,124,meters,jsons/VE125_randls_60.json,1040011,1722120,40,Woman
150,524614,DepthScenes,duration_manipulation_targetAtFixation,jsons/VE125_randls_60.json,http://54.235.29.9/FacialAge/BNav_EC2/DepthDuration/v2_depth_duration_MTurk/v2_DepthDuration_HTML.html#142,142,1366,625,1366,768,8-21-2022,7-11-20,151,depth_duration_stimuli/000469_2014-06-09_19-42-10_260595134347_rgbf000081-resize_1/000469_2014-06-09_19-42-10_260595134347_rgbf000081-resize_1-target.png,125,1.652,25,2474,124,meters,jsons/VE125_randls_60.json,1040011,1722120,40,Woman
151,524614,DepthScenes,duration_manipulation_targetAtFixation,jsons/VE125_randls_60.json,http://54.235.29.9/FacialAge/BNav_EC2/DepthDuration/v2_depth_duration_MTurk/v2_DepthDuration_HTML.html#142,142,1366,625,1366,768,8-21-2022,7-11-20,152,depth_duration_stimuli/000483_2014-06-09_20-41-45_260595134347_rgbf000116-resize_4/000483_2014-06-09_20-41-45_260595134347_rgbf000116-resize_4-target.png,125,1.337,25,3088,125,meters,jsons/VE125_randls_60.json,1040011,1722120,40,Woman
152,524614,DepthScenes,duration_manipulation_targetAtFixation,jsons/VE125_randls_60.json,http://54.235.29.9/FacialAge/BNav_EC2/DepthDuration/v2_depth_duration_MTurk/v2_DepthDuration_HTML.html#142,142,1366,625,1366,768,8-21-2022,7-11-20,153,depth_duration_stimuli/001164_2014-06-17_15-35-46_260595134347_rgbf000085-resize_3/001164_2014-06-17_15-35-46_260595134347_rgbf000085-resize_3-target.png,125,2.354,58,9756,124,meters,jsons/VE125_randls_60.json,1040011,1722120,40,Woman
153,524614,DepthScenes,duration_manipulation_targetAtFixation,jsons/VE125_randls_60.json,http://54.235.29.9/FacialAge/BNav_EC2/DepthDuration/v2_depth_duration_MTurk/v2_DepthDuration_HTML.html#142,142,1366,625,1366,768,8-21-2022,7-11-20,154,depth_duration_stimuli/001136_2014-06-17_15-19-41_260595134347_rgbf000076-resize_3/001136_2014-06-17_15-19-41_260595134347_rgbf000076-resize_3-target.png,125,1.8655,25,2985,125,meters,jsons/VE125_randls_60.json,1040011,1722120,40,Woman
154,524614,DepthScenes,duration_manipulation_targetAtFixation,jsons/VE125_randls_60.json,http://54.235.29.9/FacialAge/BNav_EC2/DepthDuration/v2_depth_duration_MTurk/v2_DepthDuration_HTML.html#142,142,1366,625,1366,768,8-21-2022,7-11-20,155,depth_duration_stimuli/002043_2014-06-24_20-29-38_260595134347_rgbf000039-resize_4/002043_2014-06-24_20-29-38_260595134347_rgbf000039-resize_4-target.png,125,2.8435,2,3462,126,meters,jsons/VE125_randls_60.json,1040011,1722120,40,Woman
155,524614,DepthScenes,duration_manipulation_targetAtFixation,jsons/VE125_randls_60.json,http://54.235.29.9/FacialAge/BNav_EC2/DepthDuration/v2_depth_duration_MTurk/v2_DepthDuration_HTML.html#142,142,1366,625,1366,768,8-21-2022,7-11-20,156,depth_duration_stimuli/003048_2014-06-15_13-49-43_094959634447_rgbf000150-resize_1/003048_2014-06-15_13-49-43_094959634447_rgbf000150-resize_1-target.png,125,4.0035,25,2884,124,meters,jsons/VE125_randls_60.json,1040011,1722120,40,Woman
156,524614,DepthScenes,duration_manipulation_targetAtFixation,jsons/VE125_randls_60.json,http://54.235.29.9/FacialAge/BNav_EC2/DepthDuration/v2_depth_duration_MTurk/v2_DepthDuration_HTML.html#142,142,1366,625,1366,768,8-21-2022,7-11-20,157,depth_duration_stimuli/000810_2014-06-08_17-20-01_260595134347_rgbf000105-resize_0/000810_2014-06-08_17-20-01_260595134347_rgbf000105-resize_0-target.png,125,1.4865,25,4369,125,meters,jsons/VE125_randls_60.json,1040011,1722120,40,Woman
157,524614,DepthScenes,duration_manipulation_targetAtFixation,jsons/VE125_randls_60.json,http://54.235.29.9/FacialAge/BNav_EC2/DepthDuration/v2_depth_duration_MTurk/v2_DepthDuration_HTML.html#142,142,1366,625,1366,768,8-21-2022,7-11-20,158,depth_duration_stimuli/001214_2014-06-17_16-13-55_260595134347_rgbf000111-resize_0/001214_2014-06-17_16-13-55_260595134347_rgbf000111-resize_0-target.png,125,2.6505,20,2313,124,meters,jsons/VE125_randls_60.json,1040011,1722120,40,Woman
158,524614,DepthScenes,duration_manipulation_targetAtFixation,jsons/VE125_randls_60.json,http://54.235.29.9/FacialAge/BNav_EC2/DepthDuration/v2_depth_duration_MTurk/v2_DepthDuration_HTML.html#142,142,1366,625,1366,768,8-21-2022,7-11-20,159,depth_duration_stimuli/002057_2014-06-24_21-00-13_260595134347_rgbf000120-resize_1/002057_2014-06-24_21-00-13_260595134347_rgbf000120-resize_1-target.png,125,2.967,20,3243,125,meters,jsons/VE125_randls_60.json,1040011,1722120,40,Woman
159,524614,DepthScenes,duration_manipulation_targetAtFixation,jsons/VE125_randls_60.json,http://54.235.29.9/FacialAge/BNav_EC2/DepthDuration/v2_depth_duration_MTurk/v2_DepthDuration_HTML.html#142,142,1366,625,1366,768,8-21-2022,7-11-20,160,depth_duration_stimuli/000709_2014-06-08_13-51-55_260595134347_rgbf000068-resize_3/000709_2014-06-08_13-51-55_260595134347_rgbf000068-resize_3-target.png,125,1.8030000000000002,25,2708,127,meters,jsons/VE125_randls_60.json,1040011,1722120,40,Woman
160,524614,DepthScenes,duration_manipulation_targetAtFixation,jsons/VE125_randls_60.json,http://54.235.29.9/FacialAge/BNav_EC2/DepthDuration/v2_depth_duration_MTurk/v2_DepthDuration_HTML.html#142,142,1366,625,1366,768,8-21-2022,7-11-20,161,depth_duration_stimuli/000486_2014-06-09_20-47-20_260595134347_rgbf000143-resize_2/000486_2014-06-09_20-47-20_260595134347_rgbf000143-resize_2-target.png,125,4.8325,25,2842,125,meters,jsons/VE125_randls_60.json,1040011,1722120,40,Woman
161,524614,DepthScenes,duration_manipulation_targetAtFixation,jsons/VE125_randls_60.json,http://54.235.29.9/FacialAge/BNav_EC2/DepthDuration/v2_depth_duration_MTurk/v2_DepthDuration_HTML.html#142,142,1366,625,1366,768,8-21-2022,7-11-20,162,depth_duration_stimuli/003083_2014-06-15_15-21-03_094959634447_rgbf000063-resize_1/003083_2014-06-15_15-21-03_094959634447_rgbf000063-resize_1-target.png,125,4.1405,15,3488,123,meters,jsons/VE125_randls_60.json,1040011,1722120,40,Woman
162,524614,DepthScenes,duration_manipulation_targetAtFixation,jsons/VE125_randls_60.json,http://54.235.29.9/FacialAge/BNav_EC2/DepthDuration/v2_depth_duration_MTurk/v2_DepthDuration_HTML.html#142,142,1366,625,1366,768,8-21-2022,7-11-20,163,depth_duration_stimuli/001059_2014-06-08_21-53-27_260595134347_rgbf000061-resize_4/001059_2014-06-08_21-53-27_260595134347_rgbf000061-resize_4-target.png,125,2.4185,25,4239,108,meters,jsons/VE125_randls_60.json,1040011,1722120,40,Woman
163,524614,DepthScenes,duration_manipulation_targetAtFixation,jsons/VE125_randls_60.json,http://54.235.29.9/FacialAge/BNav_EC2/DepthDuration/v2_depth_duration_MTurk/v2_DepthDuration_HTML.html#142,142,1366,625,1366,768,8-21-2022,7-11-20,164,depth_duration_stimuli/001032_2014-06-08_13-23-17_260595134347_rgbf000021-resize_3/001032_2014-06-08_13-23-17_260595134347_rgbf000021-resize_3-target.png,125,3.2725,20,2309,126,meters,jsons/VE125_randls_60.json,1040011,1722120,40,Woman
