,subjID,experimentName,versionName,sequenceName,url,selected_row,windowWidth,windowHeight,screenWidth,screenHeight,startDate,startTime,trial,stimulus,duration,actual_depth,depth_estimate,trial_RT,log_sceneDuration,unitSelection,seq_filepath,experimentTime,totalTime,age,gender
0,527864,DepthScenes,duration_manipulation_targetAtFixation,jsons/v1_VE250_randls_26.json,http://54.235.29.9/FacialAge/BNav_EC2/DepthDuration/v2_depth_duration_MTurk/v2_DepthDuration_HTML.html#286,286,1366,625,1366,768,8-30-2022,10-28-27,1,depth_duration_stimuli/000810_2014-06-08_17-20-01_260595134347_rgbf000105-resize_0/000810_2014-06-08_17-20-01_260595134347_rgbf000105-resize_0-target.png,250,1.4865,2,62977,250,feet,jsons/v1_VE250_randls_26.json,877160,1983737,25,Man
1,527864,DepthScenes,duration_manipulation_targetAtFixation,jsons/v1_VE250_randls_26.json,http://54.235.29.9/FacialAge/BNav_EC2/DepthDuration/v2_depth_duration_MTurk/v2_DepthDuration_HTML.html#286,286,1366,625,1366,768,8-30-2022,10-28-27,2,depth_duration_stimuli/001214_2014-06-17_16-13-55_260595134347_rgbf000111-resize_0/001214_2014-06-17_16-13-55_260595134347_rgbf000111-resize_0-target.png,250,2.6505,3,3843,248,feet,jsons/v1_VE250_randls_26.json,877160,1983737,25,Man
2,527864,DepthScenes,duration_manipulation_targetAtFixation,jsons/v1_VE250_randls_26.json,http://54.235.29.9/FacialAge/BNav_EC2/DepthDuration/v2_depth_duration_MTurk/v2_DepthDuration_HTML.html#286,286,1366,625,1366,768,8-30-2022,10-28-27,3,depth_duration_stimuli/002213_2014-06-28_18-37-58_260595134347_rgbf000055-resize_1/002213_2014-06-28_18-37-58_260595134347_rgbf000055-resize_1-target.png,250,3.62,2,4153,251,feet,jsons/v1_VE250_randls_26.json,877160,1983737,25,Man
3,527864,DepthScenes,duration_manipulation_targetAtFixation,jsons/v1_VE250_randls_26.json,http://54.235.29.9/FacialAge/BNav_EC2/DepthDuration/v2_depth_duration_MTurk/v2_DepthDuration_HTML.html#286,286,1366,625,1366,768,8-30-2022,10-28-27,4,depth_duration_stimuli/000691_2014-06-08_13-08-50_260595134347_rgbf000132-resize_3/000691_2014-06-08_13-08-50_260595134347_rgbf000132-resize_3-target.png,250,4.1530000000000005,2,3595,250,feet,jsons/v1_VE250_randls_26.json,877160,1983737,25,Man
4,527864,DepthScenes,duration_manipulation_targetAtFixation,jsons/v1_VE250_randls_26.json,http://54.235.29.9/FacialAge/BNav_EC2/DepthDuration/v2_depth_duration_MTurk/v2_DepthDuration_HTML.html#286,286,1366,625,1366,768,8-30-2022,10-28-27,5,depth_duration_stimuli/002989_2014-06-15_12-25-03_094959634447_rgbf000150-resize_3/002989_2014-06-15_12-25-03_094959634447_rgbf000150-resize_3-target.png,250,4.1975,2,4153,249,feet,jsons/v1_VE250_randls_26.json,877160,1983737,25,Man
5,527864,DepthScenes,duration_manipulation_targetAtFixation,jsons/v1_VE250_randls_26.json,http://54.235.29.9/FacialAge/BNav_EC2/DepthDuration/v2_depth_duration_MTurk/v2_DepthDuration_HTML.html#286,286,1366,625,1366,768,8-30-2022,10-28-27,6,depth_duration_stimuli/000866_2014-06-09_20-45-42_260595134347_rgbf000139-resize_1/000866_2014-06-09_20-45-42_260595134347_rgbf000139-resize_1-target.png,250,3.2155,3,3490,249,feet,jsons/v1_VE250_randls_26.json,877160,1983737,25,Man
6,527864,DepthScenes,duration_manipulation_targetAtFixation,jsons/v1_VE250_randls_26.json,http://54.235.29.9/FacialAge/BNav_EC2/DepthDuration/v2_depth_duration_MTurk/v2_DepthDuration_HTML.html#286,286,1366,625,1366,768,8-30-2022,10-28-27,7,depth_duration_stimuli/002043_2014-06-24_20-29-38_260595134347_rgbf000039-resize_4/002043_2014-06-24_20-29-38_260595134347_rgbf000039-resize_4-target.png,250,2.8435,4,3651,250,feet,jsons/v1_VE250_randls_26.json,877160,1983737,25,Man
7,527864,DepthScenes,duration_manipulation_targetAtFixation,jsons/v1_VE250_randls_26.json,http://54.235.29.9/FacialAge/BNav_EC2/DepthDuration/v2_depth_duration_MTurk/v2_DepthDuration_HTML.html#286,286,1366,625,1366,768,8-30-2022,10-28-27,8,depth_duration_stimuli/003048_2014-06-15_13-49-43_094959634447_rgbf000150-resize_1/003048_2014-06-15_13-49-43_094959634447_rgbf000150-resize_1-target.png,250,4.0035,3,3635,251,feet,jsons/v1_VE250_randls_26.json,877160,1983737,25,Man
8,527864,DepthScenes,duration_manipulation_targetAtFixation,jsons/v1_VE250_randls_26.json,http://54.235.29.9/FacialAge/BNav_EC2/DepthDuration/v2_depth_duration_MTurk/v2_DepthDuration_HTML.html#286,286,1366,625,1366,768,8-30-2022,10-28-27,9,depth_duration_stimuli/001110_2014-06-15_17-25-28_260595134347_rgbf000150-resize_1/001110_2014-06-15_17-25-28_260595134347_rgbf000150-resize_1-target.png,250,1.7115,2,4268,249,feet,jsons/v1_VE250_randls_26.json,877160,1983737,25,Man
9,527864,DepthScenes,duration_manipulation_targetAtFixation,jsons/v1_VE250_randls_26.json,http://54.235.29.9/FacialAge/BNav_EC2/DepthDuration/v2_depth_duration_MTurk/v2_DepthDuration_HTML.html#286,286,1366,625,1366,768,8-30-2022,10-28-27,10,depth_duration_stimuli/000927_2014-06-09_16-32-30_260595134347_rgbf000123-resize_3/000927_2014-06-09_16-32-30_260595134347_rgbf000123-resize_3-target.png,250,2.6785,1,6752,250,feet,jsons/v1_VE250_randls_26.json,877160,1983737,25,Man
10,527864,DepthScenes,duration_manipulation_targetAtFixation,jsons/v1_VE250_randls_26.json,http://54.235.29.9/FacialAge/BNav_EC2/DepthDuration/v2_depth_duration_MTurk/v2_DepthDuration_HTML.html#286,286,1366,625,1366,768,8-30-2022,10-28-27,11,depth_duration_stimuli/000436_2014-06-09_22-25-11_260595134347_rgbf000137-resize_1/000436_2014-06-09_22-25-11_260595134347_rgbf000137-resize_1-target.png,250,4.0705,2,5395,251,feet,jsons/v1_VE250_randls_26.json,877160,1983737,25,Man
11,527864,DepthScenes,duration_manipulation_targetAtFixation,jsons/v1_VE250_randls_26.json,http://54.235.29.9/FacialAge/BNav_EC2/DepthDuration/v2_depth_duration_MTurk/v2_DepthDuration_HTML.html#286,286,1366,625,1366,768,8-30-2022,10-28-27,12,depth_duration_stimuli/002444_2014-06-28_20-32-08_260595134347_rgbf000027-resize_0/002444_2014-06-28_20-32-08_260595134347_rgbf000027-resize_0-target.png,250,4.388999999999999,2,4059,251,feet,jsons/v1_VE250_randls_26.json,877160,1983737,25,Man
12,527864,DepthScenes,duration_manipulation_targetAtFixation,jsons/v1_VE250_randls_26.json,http://54.235.29.9/FacialAge/BNav_EC2/DepthDuration/v2_depth_duration_MTurk/v2_DepthDuration_HTML.html#286,286,1366,625,1366,768,8-30-2022,10-28-27,13,depth_duration_stimuli/000569_2014-06-09_22-51-47_260595134347_rgbf000141-resize_3/000569_2014-06-09_22-51-47_260595134347_rgbf000141-resize-original.jpg,250,4.512,0,3261,249,feet,jsons/v1_VE250_randls_26.json,877160,1983737,25,Man
13,527864,DepthScenes,duration_manipulation_targetAtFixation,jsons/v1_VE250_randls_26.json,http://54.235.29.9/FacialAge/BNav_EC2/DepthDuration/v2_depth_duration_MTurk/v2_DepthDuration_HTML.html#286,286,1366,625,1366,768,8-30-2022,10-28-27,14,depth_duration_stimuli/000493_2014-06-09_21-01-18_260595134347_rgbf000196-resize_3/000493_2014-06-09_21-01-18_260595134347_rgbf000196-resize_3-target.png,250,3.44,2,3198,251,feet,jsons/v1_VE250_randls_26.json,877160,1983737,25,Man
14,527864,DepthScenes,duration_manipulation_targetAtFixation,jsons/v1_VE250_randls_26.json,http://54.235.29.9/FacialAge/BNav_EC2/DepthDuration/v2_depth_duration_MTurk/v2_DepthDuration_HTML.html#286,286,1366,625,1366,768,8-30-2022,10-28-27,15,depth_duration_stimuli/000191_2014-05-12_17-07-38_260595134347_rgbf000199-resize_0/000191_2014-05-12_17-07-38_260595134347_rgbf000199-resize_0-target.png,250,3.7995,2,3439,250,feet,jsons/v1_VE250_randls_26.json,877160,1983737,25,Man
15,527864,DepthScenes,duration_manipulation_targetAtFixation,jsons/v1_VE250_randls_26.json,http://54.235.29.9/FacialAge/BNav_EC2/DepthDuration/v2_depth_duration_MTurk/v2_DepthDuration_HTML.html#286,286,1366,625,1366,768,8-30-2022,10-28-27,16,depth_duration_stimuli/000878_2014-06-08_22-52-45_260595134347_rgbf000045-resize_2/000878_2014-06-08_22-52-45_260595134347_rgbf000045-resize_2-target.png,250,2.092,3,3864,249,feet,jsons/v1_VE250_randls_26.json,877160,1983737,25,Man
16,527864,DepthScenes,duration_manipulation_targetAtFixation,jsons/v1_VE250_randls_26.json,http://54.235.29.9/FacialAge/BNav_EC2/DepthDuration/v2_depth_duration_MTurk/v2_DepthDuration_HTML.html#286,286,1366,625,1366,768,8-30-2022,10-28-27,17,depth_duration_stimuli/002953_2014-06-08_17-32-18_094959634447_rgbf000059-resize_5/002953_2014-06-08_17-32-18_094959634447_rgbf000059-resize_5-target.png,250,1.551,2,4498,249,feet,jsons/v1_VE250_randls_26.json,877160,1983737,25,Man
17,527864,DepthScenes,duration_manipulation_targetAtFixation,jsons/v1_VE250_randls_26.json,http://54.235.29.9/FacialAge/BNav_EC2/DepthDuration/v2_depth_duration_MTurk/v2_DepthDuration_HTML.html#286,286,1366,625,1366,768,8-30-2022,10-28-27,18,depth_duration_stimuli/000929_2014-06-09_16-33-19_260595134347_rgbf000139-resize_0/000929_2014-06-09_16-33-19_260595134347_rgbf000139-resize_0-target.png,250,2.8680000000000003,3,5156,251,feet,jsons/v1_VE250_randls_26.json,877160,1983737,25,Man
18,527864,DepthScenes,duration_manipulation_targetAtFixation,jsons/v1_VE250_randls_26.json,http://54.235.29.9/FacialAge/BNav_EC2/DepthDuration/v2_depth_duration_MTurk/v2_DepthDuration_HTML.html#286,286,1366,625,1366,768,8-30-2022,10-28-27,19,depth_duration_stimuli/000457_2014-06-08_16-52-43_260595134347_rgbf000199-resize_1/000457_2014-06-08_16-52-43_260595134347_rgbf000199-resize_1-target.png,250,3.6489999999999996,1,3835,250,feet,jsons/v1_VE250_randls_26.json,877160,1983737,25,Man
19,527864,DepthScenes,duration_manipulation_targetAtFixation,jsons/v1_VE250_randls_26.json,http://54.235.29.9/FacialAge/BNav_EC2/DepthDuration/v2_depth_duration_MTurk/v2_DepthDuration_HTML.html#286,286,1366,625,1366,768,8-30-2022,10-28-27,20,depth_duration_stimuli/002630_2014-06-24_14-47-50_094959634447_rgbf000055-resize_1/002630_2014-06-24_14-47-50_094959634447_rgbf000055-resize_1-target.png,250,3.0095,3,3267,251,feet,jsons/v1_VE250_randls_26.json,877160,1983737,25,Man
20,527864,DepthScenes,duration_manipulation_targetAtFixation,jsons/v1_VE250_randls_26.json,http://54.235.29.9/FacialAge/BNav_EC2/DepthDuration/v2_depth_duration_MTurk/v2_DepthDuration_HTML.html#286,286,1366,625,1366,768,8-30-2022,10-28-27,21,depth_duration_stimuli/002758_2014-06-22_19-11-20_094959634447_rgbf000128-resize_1/002758_2014-06-22_19-11-20_094959634447_rgbf000128-resize_1-target.png,250,2.555,2,3578,251,feet,jsons/v1_VE250_randls_26.json,877160,1983737,25,Man
21,527864,DepthScenes,duration_manipulation_targetAtFixation,jsons/v1_VE250_randls_26.json,http://54.235.29.9/FacialAge/BNav_EC2/DepthDuration/v2_depth_duration_MTurk/v2_DepthDuration_HTML.html#286,286,1366,625,1366,768,8-30-2022,10-28-27,22,depth_duration_stimuli/000368_2014-06-09_15-53-01_260595134347_rgbf000155-resize_2/000368_2014-06-09_15-53-01_260595134347_rgbf000155-resize_2-target.png,250,2.4859999999999998,3,3444,250,feet,jsons/v1_VE250_randls_26.json,877160,1983737,25,Man
22,527864,DepthScenes,duration_manipulation_targetAtFixation,jsons/v1_VE250_randls_26.json,http://54.235.29.9/FacialAge/BNav_EC2/DepthDuration/v2_depth_duration_MTurk/v2_DepthDuration_HTML.html#286,286,1366,625,1366,768,8-30-2022,10-28-27,23,depth_duration_stimuli/002678_2014-06-13_16-15-32_094959634447_rgbf000151-resize_6/002678_2014-06-13_16-15-32_094959634447_rgbf000151-resize_6-target.png,250,2.1830000000000003,2,4251,251,feet,jsons/v1_VE250_randls_26.json,877160,1983737,25,Man
23,527864,DepthScenes,duration_manipulation_targetAtFixation,jsons/v1_VE250_randls_26.json,http://54.235.29.9/FacialAge/BNav_EC2/DepthDuration/v2_depth_duration_MTurk/v2_DepthDuration_HTML.html#286,286,1366,625,1366,768,8-30-2022,10-28-27,24,depth_duration_stimuli/002784_2014-06-22_19-26-30_094959634447_rgbf000083-resize_3/002784_2014-06-22_19-26-30_094959634447_rgbf000083-resize_3-target.png,250,1.8046666666667,2,3329,250,feet,jsons/v1_VE250_randls_26.json,877160,1983737,25,Man
24,527864,DepthScenes,duration_manipulation_targetAtFixation,jsons/v1_VE250_randls_26.json,http://54.235.29.9/FacialAge/BNav_EC2/DepthDuration/v2_depth_duration_MTurk/v2_DepthDuration_HTML.html#286,286,1366,625,1366,768,8-30-2022,10-28-27,25,depth_duration_stimuli/001100_2014-06-15_17-46-26_260595134347_rgbf000225-resize_2/001100_2014-06-15_17-46-26_260595134347_rgbf000225-resize_2-target.png,250,2.24,1,4091,251,feet,jsons/v1_VE250_randls_26.json,877160,1983737,25,Man
25,527864,DepthScenes,duration_manipulation_targetAtFixation,jsons/v1_VE250_randls_26.json,http://54.235.29.9/FacialAge/BNav_EC2/DepthDuration/v2_depth_duration_MTurk/v2_DepthDuration_HTML.html#286,286,1366,625,1366,768,8-30-2022,10-28-27,26,depth_duration_stimuli/001150_2014-06-17_15-27-34_260595134347_rgbf000108-resize_2/001150_2014-06-17_15-27-34_260595134347_rgbf000108-resize_2-target.png,250,4.0325,2,3252,251,feet,jsons/v1_VE250_randls_26.json,877160,1983737,25,Man
26,527864,DepthScenes,duration_manipulation_targetAtFixation,jsons/v1_VE250_randls_26.json,http://54.235.29.9/FacialAge/BNav_EC2/DepthDuration/v2_depth_duration_MTurk/v2_DepthDuration_HTML.html#286,286,1366,625,1366,768,8-30-2022,10-28-27,27,depth_duration_stimuli/000665_2014-06-09_20-42-35_260595134347_rgbf000110-resize_1/000665_2014-06-09_20-42-35_260595134347_rgbf000110-resize_1-target.png,250,3.057,2,4788,250,feet,jsons/v1_VE250_randls_26.json,877160,1983737,25,Man
27,527864,DepthScenes,duration_manipulation_targetAtFixation,jsons/v1_VE250_randls_26.json,http://54.235.29.9/FacialAge/BNav_EC2/DepthDuration/v2_depth_duration_MTurk/v2_DepthDuration_HTML.html#286,286,1366,625,1366,768,8-30-2022,10-28-27,28,depth_duration_stimuli/001158_2014-06-17_15-32-16_260595134347_rgbf000138-resize_2/001158_2014-06-17_15-32-16_260595134347_rgbf000138-resize_2-target.png,250,4.5315,3,4860,250,feet,jsons/v1_VE250_randls_26.json,877160,1983737,25,Man
28,527864,DepthScenes,duration_manipulation_targetAtFixation,jsons/v1_VE250_randls_26.json,http://54.235.29.9/FacialAge/BNav_EC2/DepthDuration/v2_depth_duration_MTurk/v2_DepthDuration_HTML.html#286,286,1366,625,1366,768,8-30-2022,10-28-27,29,depth_duration_stimuli/000556_2014-06-09_22-42-56_260595134347_rgbf000214-resize_1/000556_2014-06-09_22-42-56_260595134347_rgbf000214-resize_1-target.png,250,4.8415,2,3748,251,feet,jsons/v1_VE250_randls_26.json,877160,1983737,25,Man
29,527864,DepthScenes,duration_manipulation_targetAtFixation,jsons/v1_VE250_randls_26.json,http://54.235.29.9/FacialAge/BNav_EC2/DepthDuration/v2_depth_duration_MTurk/v2_DepthDuration_HTML.html#286,286,1366,625,1366,768,8-30-2022,10-28-27,30,depth_duration_stimuli/000375_2014-06-08_11-17-29_260595134347_rgbf000133-resize_2/000375_2014-06-08_11-17-29_260595134347_rgbf000133-resize-original.jpg,250,4.718,0,3121,250,feet,jsons/v1_VE250_randls_26.json,877160,1983737,25,Man
30,527864,DepthScenes,duration_manipulation_targetAtFixation,jsons/v1_VE250_randls_26.json,http://54.235.29.9/FacialAge/BNav_EC2/DepthDuration/v2_depth_duration_MTurk/v2_DepthDuration_HTML.html#286,286,1366,625,1366,768,8-30-2022,10-28-27,31,depth_duration_stimuli/002445_2014-06-28_20-32-16_260595134347_rgbf000029-resize_4/002445_2014-06-28_20-32-16_260595134347_rgbf000029-resize_4-target.png,250,2.5315,2,4499,251,feet,jsons/v1_VE250_randls_26.json,877160,1983737,25,Man
31,527864,DepthScenes,duration_manipulation_targetAtFixation,jsons/v1_VE250_randls_26.json,http://54.235.29.9/FacialAge/BNav_EC2/DepthDuration/v2_depth_duration_MTurk/v2_DepthDuration_HTML.html#286,286,1366,625,1366,768,8-30-2022,10-28-27,32,depth_duration_stimuli/000780_2014-06-08_22-28-29_260595134347_rgbf000126-resize_1/000780_2014-06-08_22-28-29_260595134347_rgbf000126-resize_1-target.png,250,3.3825,1,4015,250,feet,jsons/v1_VE250_randls_26.json,877160,1983737,25,Man
32,527864,DepthScenes,duration_manipulation_targetAtFixation,jsons/v1_VE250_randls_26.json,http://54.235.29.9/FacialAge/BNav_EC2/DepthDuration/v2_depth_duration_MTurk/v2_DepthDuration_HTML.html#286,286,1366,625,1366,768,8-30-2022,10-28-27,33,depth_duration_stimuli/002788_2014-06-22_19-36-03_094959634447_rgbf000088-resize_2/002788_2014-06-22_19-36-03_094959634447_rgbf000088-resize_2-target.png,250,1.6465,2,3461,251,feet,jsons/v1_VE250_randls_26.json,877160,1983737,25,Man
33,527864,DepthScenes,duration_manipulation_targetAtFixation,jsons/v1_VE250_randls_26.json,http://54.235.29.9/FacialAge/BNav_EC2/DepthDuration/v2_depth_duration_MTurk/v2_DepthDuration_HTML.html#286,286,1366,625,1366,768,8-30-2022,10-28-27,34,depth_duration_stimuli/000749_2014-06-08_21-55-06_260595134347_rgbf000070-resize_2/000749_2014-06-08_21-55-06_260595134347_rgbf000070-resize_2-target.png,250,2.331,3,3235,249,feet,jsons/v1_VE250_randls_26.json,877160,1983737,25,Man
34,527864,DepthScenes,duration_manipulation_targetAtFixation,jsons/v1_VE250_randls_26.json,http://54.235.29.9/FacialAge/BNav_EC2/DepthDuration/v2_depth_duration_MTurk/v2_DepthDuration_HTML.html#286,286,1366,625,1366,768,8-30-2022,10-28-27,35,depth_duration_stimuli/002057_2014-06-24_21-00-13_260595134347_rgbf000120-resize_1/002057_2014-06-24_21-00-13_260595134347_rgbf000120-resize_1-target.png,250,2.967,1,3513,250,feet,jsons/v1_VE250_randls_26.json,877160,1983737,25,Man
35,527864,DepthScenes,duration_manipulation_targetAtFixation,jsons/v1_VE250_randls_26.json,http://54.235.29.9/FacialAge/BNav_EC2/DepthDuration/v2_depth_duration_MTurk/v2_DepthDuration_HTML.html#286,286,1366,625,1366,768,8-30-2022,10-28-27,36,depth_duration_stimuli/000709_2014-06-08_13-51-55_260595134347_rgbf000068-resize_3/000709_2014-06-08_13-51-55_260595134347_rgbf000068-resize_3-target.png,250,1.8030000000000002,2,3402,250,feet,jsons/v1_VE250_randls_26.json,877160,1983737,25,Man
36,527864,DepthScenes,duration_manipulation_targetAtFixation,jsons/v1_VE250_randls_26.json,http://54.235.29.9/FacialAge/BNav_EC2/DepthDuration/v2_depth_duration_MTurk/v2_DepthDuration_HTML.html#286,286,1366,625,1366,768,8-30-2022,10-28-27,37,depth_duration_stimuli/000906_2014-06-08_13-35-43_260595134347_rgbf000155-resize_1/000906_2014-06-08_13-35-43_260595134347_rgbf000155-resize_1-target.png,250,2.8489999999999998,3,3556,250,feet,jsons/v1_VE250_randls_26.json,877160,1983737,25,Man
37,527864,DepthScenes,duration_manipulation_targetAtFixation,jsons/v1_VE250_randls_26.json,http://54.235.29.9/FacialAge/BNav_EC2/DepthDuration/v2_depth_duration_MTurk/v2_DepthDuration_HTML.html#286,286,1366,625,1366,768,8-30-2022,10-28-27,38,depth_duration_stimuli/002805_2014-06-22_19-54-03_094959634447_rgbf000079-resize_1/002805_2014-06-22_19-54-03_094959634447_rgbf000079-resize_1-target.png,250,3.1439999999999997,2,4106,251,feet,jsons/v1_VE250_randls_26.json,877160,1983737,25,Man
38,527864,DepthScenes,duration_manipulation_targetAtFixation,jsons/v1_VE250_randls_26.json,http://54.235.29.9/FacialAge/BNav_EC2/DepthDuration/v2_depth_duration_MTurk/v2_DepthDuration_HTML.html#286,286,1366,625,1366,768,8-30-2022,10-28-27,39,depth_duration_stimuli/002725_2014-06-22_11-47-51_094959634447_rgbf000070-resize_1/002725_2014-06-22_11-47-51_094959634447_rgbf000070-resize_1-target.png,250,2.195,2,3297,249,feet,jsons/v1_VE250_randls_26.json,877160,1983737,25,Man
39,527864,DepthScenes,duration_manipulation_targetAtFixation,jsons/v1_VE250_randls_26.json,http://54.235.29.9/FacialAge/BNav_EC2/DepthDuration/v2_depth_duration_MTurk/v2_DepthDuration_HTML.html#286,286,1366,625,1366,768,8-30-2022,10-28-27,40,depth_duration_stimuli/002344_2014-06-28_20-06-29_260595134347_rgbf000030-resize_1/002344_2014-06-28_20-06-29_260595134347_rgbf000030-resize_1-target.png,250,1.5795,1,3341,250,feet,jsons/v1_VE250_randls_26.json,877160,1983737,25,Man
40,527864,DepthScenes,duration_manipulation_targetAtFixation,jsons/v1_VE250_randls_26.json,http://54.235.29.9/FacialAge/BNav_EC2/DepthDuration/v2_depth_duration_MTurk/v2_DepthDuration_HTML.html#286,286,1366,625,1366,768,8-30-2022,10-28-27,41,depth_duration_stimuli/002549_2014-06-24_13-41-39_094959634447_rgbf000022-resize_3/002549_2014-06-24_13-41-39_094959634447_rgbf000022-resize_3-target.png,250,1.476,2,4195,251,feet,jsons/v1_VE250_randls_26.json,877160,1983737,25,Man
41,527864,DepthScenes,duration_manipulation_targetAtFixation,jsons/v1_VE250_randls_26.json,http://54.235.29.9/FacialAge/BNav_EC2/DepthDuration/v2_depth_duration_MTurk/v2_DepthDuration_HTML.html#286,286,1366,625,1366,768,8-30-2022,10-28-27,42,depth_duration_stimuli/002750_2014-06-22_19-08-03_094959634447_rgbf000094-resize_4/002750_2014-06-22_19-08-03_094959634447_rgbf000094-resize_4-target.png,250,2.354,2,3714,249,feet,jsons/v1_VE250_randls_26.json,877160,1983737,25,Man
42,527864,DepthScenes,duration_manipulation_targetAtFixation,jsons/v1_VE250_randls_26.json,http://54.235.29.9/FacialAge/BNav_EC2/DepthDuration/v2_depth_duration_MTurk/v2_DepthDuration_HTML.html#286,286,1366,625,1366,768,8-30-2022,10-28-27,43,depth_duration_stimuli/003070_2014-06-15_14-58-27_094959634447_rgbf000150-resize_3/003070_2014-06-15_14-58-27_094959634447_rgbf000150-resize_3-target.png,250,2.9415,1,3310,250,feet,jsons/v1_VE250_randls_26.json,877160,1983737,25,Man
43,527864,DepthScenes,duration_manipulation_targetAtFixation,jsons/v1_VE250_randls_26.json,http://54.235.29.9/FacialAge/BNav_EC2/DepthDuration/v2_depth_duration_MTurk/v2_DepthDuration_HTML.html#286,286,1366,625,1366,768,8-30-2022,10-28-27,44,depth_duration_stimuli/000943_2014-06-09_19-31-07_260595134347_rgbf000128-resize_1/000943_2014-06-09_19-31-07_260595134347_rgbf000128-resize_1-target.png,250,1.9765,1,4680,249,feet,jsons/v1_VE250_randls_26.json,877160,1983737,25,Man
44,527864,DepthScenes,duration_manipulation_targetAtFixation,jsons/v1_VE250_randls_26.json,http://54.235.29.9/FacialAge/BNav_EC2/DepthDuration/v2_depth_duration_MTurk/v2_DepthDuration_HTML.html#286,286,1366,625,1366,768,8-30-2022,10-28-27,45,depth_duration_stimuli/000787_2014-06-08_22-33-53_260595134347_rgbf000175-resize_1/000787_2014-06-08_22-33-53_260595134347_rgbf000175-resize-original.jpg,250,4.784,0,3149,250,feet,jsons/v1_VE250_randls_26.json,877160,1983737,25,Man
45,527864,DepthScenes,duration_manipulation_targetAtFixation,jsons/v1_VE250_randls_26.json,http://54.235.29.9/FacialAge/BNav_EC2/DepthDuration/v2_depth_duration_MTurk/v2_DepthDuration_HTML.html#286,286,1366,625,1366,768,8-30-2022,10-28-27,46,depth_duration_stimuli/001555_2014-06-20_17-12-10_260595134347_rgbf000065-resize_4/001555_2014-06-20_17-12-10_260595134347_rgbf000065-resize_4-target.png,250,1.633,3,3583,250,feet,jsons/v1_VE250_randls_26.json,877160,1983737,25,Man
46,527864,DepthScenes,duration_manipulation_targetAtFixation,jsons/v1_VE250_randls_26.json,http://54.235.29.9/FacialAge/BNav_EC2/DepthDuration/v2_depth_duration_MTurk/v2_DepthDuration_HTML.html#286,286,1366,625,1366,768,8-30-2022,10-28-27,47,depth_duration_stimuli/000103_2014-05-14_22-01-17_260595134347_rgbf000152-resize_5/000103_2014-05-14_22-01-17_260595134347_rgbf000152-resize_5-target.png,250,1.993,2,3274,250,feet,jsons/v1_VE250_randls_26.json,877160,1983737,25,Man
47,527864,DepthScenes,duration_manipulation_targetAtFixation,jsons/v1_VE250_randls_26.json,http://54.235.29.9/FacialAge/BNav_EC2/DepthDuration/v2_depth_duration_MTurk/v2_DepthDuration_HTML.html#286,286,1366,625,1366,768,8-30-2022,10-28-27,48,depth_duration_stimuli/002600_2014-06-24_14-27-04_094959634447_rgbf000074-resize_2/002600_2014-06-24_14-27-04_094959634447_rgbf000074-resize_2-target.png,250,2.7575,2,3794,250,feet,jsons/v1_VE250_randls_26.json,877160,1983737,25,Man
48,527864,DepthScenes,duration_manipulation_targetAtFixation,jsons/v1_VE250_randls_26.json,http://54.235.29.9/FacialAge/BNav_EC2/DepthDuration/v2_depth_duration_MTurk/v2_DepthDuration_HTML.html#286,286,1366,625,1366,768,8-30-2022,10-28-27,49,depth_duration_stimuli/003228_2014-05-14_13-42-35_094959634447_rgbf000101-resize_1/003228_2014-05-14_13-42-35_094959634447_rgbf000101-resize_1-target.png,250,1.9680000000000002,3,3547,250,feet,jsons/v1_VE250_randls_26.json,877160,1983737,25,Man
49,527864,DepthScenes,duration_manipulation_targetAtFixation,jsons/v1_VE250_randls_26.json,http://54.235.29.9/FacialAge/BNav_EC2/DepthDuration/v2_depth_duration_MTurk/v2_DepthDuration_HTML.html#286,286,1366,625,1366,768,8-30-2022,10-28-27,50,depth_duration_stimuli/002663_2014-06-13_15-50-26_094959634447_rgbf000075-resize_1/002663_2014-06-13_15-50-26_094959634447_rgbf000075-resize_1-target.png,250,4.7495,2,16378,249,feet,jsons/v1_VE250_randls_26.json,877160,1983737,25,Man
50,527864,DepthScenes,duration_manipulation_targetAtFixation,jsons/v1_VE250_randls_26.json,http://54.235.29.9/FacialAge/BNav_EC2/DepthDuration/v2_depth_duration_MTurk/v2_DepthDuration_HTML.html#286,286,1366,625,1366,768,8-30-2022,10-28-27,51,depth_duration_stimuli/000409_2014-06-04_19-23-33_260595134347_rgbf000067-resize_0/000409_2014-06-04_19-23-33_260595134347_rgbf000067-resize_0-target.png,250,3.7335,2,5010,250,feet,jsons/v1_VE250_randls_26.json,877160,1983737,25,Man
51,527864,DepthScenes,duration_manipulation_targetAtFixation,jsons/v1_VE250_randls_26.json,http://54.235.29.9/FacialAge/BNav_EC2/DepthDuration/v2_depth_duration_MTurk/v2_DepthDuration_HTML.html#286,286,1366,625,1366,768,8-30-2022,10-28-27,52,depth_duration_stimuli/000788_2014-06-08_22-34-36_260595134347_rgbf000131-resize_1/000788_2014-06-08_22-34-36_260595134347_rgbf000131-resize_1-target.png,250,3.359,1,3781,251,feet,jsons/v1_VE250_randls_26.json,877160,1983737,25,Man
52,527864,DepthScenes,duration_manipulation_targetAtFixation,jsons/v1_VE250_randls_26.json,http://54.235.29.9/FacialAge/BNav_EC2/DepthDuration/v2_depth_duration_MTurk/v2_DepthDuration_HTML.html#286,286,1366,625,1366,768,8-30-2022,10-28-27,53,depth_duration_stimuli/001235_2014-06-17_16-37-36_260595134347_rgbf000084-resize_4/001235_2014-06-17_16-37-36_260595134347_rgbf000084-resize_4-target.png,250,3.6605,3,4968,250,feet,jsons/v1_VE250_randls_26.json,877160,1983737,25,Man
53,527864,DepthScenes,duration_manipulation_targetAtFixation,jsons/v1_VE250_randls_26.json,http://54.235.29.9/FacialAge/BNav_EC2/DepthDuration/v2_depth_duration_MTurk/v2_DepthDuration_HTML.html#286,286,1366,625,1366,768,8-30-2022,10-28-27,54,depth_duration_stimuli/001810_2014-06-26_20-51-35_260595134347_rgbf000040-resize_3/001810_2014-06-26_20-51-35_260595134347_rgbf000040-resize_3-target.png,250,2.2525,2,3388,251,feet,jsons/v1_VE250_randls_26.json,877160,1983737,25,Man
54,527864,DepthScenes,duration_manipulation_targetAtFixation,jsons/v1_VE250_randls_26.json,http://54.235.29.9/FacialAge/BNav_EC2/DepthDuration/v2_depth_duration_MTurk/v2_DepthDuration_HTML.html#286,286,1366,625,1366,768,8-30-2022,10-28-27,55,depth_duration_stimuli/003010_2014-06-15_12-54-35_094959634447_rgbf000112-resize_0/003010_2014-06-15_12-54-35_094959634447_rgbf000112-resize_0-target.png,250,3.1185,0,3923,250,feet,jsons/v1_VE250_randls_26.json,877160,1983737,25,Man
55,527864,DepthScenes,duration_manipulation_targetAtFixation,jsons/v1_VE250_randls_26.json,http://54.235.29.9/FacialAge/BNav_EC2/DepthDuration/v2_depth_duration_MTurk/v2_DepthDuration_HTML.html#286,286,1366,625,1366,768,8-30-2022,10-28-27,56,depth_duration_stimuli/001570_2014-06-20_17-21-09_260595134347_rgbf000135-resize_4/001570_2014-06-20_17-21-09_260595134347_rgbf000135-resize_4-target.png,250,4.467,2,3715,250,feet,jsons/v1_VE250_randls_26.json,877160,1983737,25,Man
56,527864,DepthScenes,duration_manipulation_targetAtFixation,jsons/v1_VE250_randls_26.json,http://54.235.29.9/FacialAge/BNav_EC2/DepthDuration/v2_depth_duration_MTurk/v2_DepthDuration_HTML.html#286,286,1366,625,1366,768,8-30-2022,10-28-27,57,depth_duration_stimuli/001392_2014-06-19_16-07-59_260595134347_rgbf000046-resize_1/001392_2014-06-19_16-07-59_260595134347_rgbf000046-resize_1-target.png,250,4.135,3,3251,251,feet,jsons/v1_VE250_randls_26.json,877160,1983737,25,Man
57,527864,DepthScenes,duration_manipulation_targetAtFixation,jsons/v1_VE250_randls_26.json,http://54.235.29.9/FacialAge/BNav_EC2/DepthDuration/v2_depth_duration_MTurk/v2_DepthDuration_HTML.html#286,286,1366,625,1366,768,8-30-2022,10-28-27,58,depth_duration_stimuli/001133_2014-06-17_14-49-16_260595134347_rgbf000100-resize_0/001133_2014-06-17_14-49-16_260595134347_rgbf000100-resize_0-target.png,250,4.2115,1,3291,250,feet,jsons/v1_VE250_randls_26.json,877160,1983737,25,Man
58,527864,DepthScenes,duration_manipulation_targetAtFixation,jsons/v1_VE250_randls_26.json,http://54.235.29.9/FacialAge/BNav_EC2/DepthDuration/v2_depth_duration_MTurk/v2_DepthDuration_HTML.html#286,286,1366,625,1366,768,8-30-2022,10-28-27,59,depth_duration_stimuli/001132_2014-06-17_14-48-54_260595134347_rgbf000100-resize_2/001132_2014-06-17_14-48-54_260595134347_rgbf000100-resize_2-target.png,250,3.753,2,3731,250,feet,jsons/v1_VE250_randls_26.json,877160,1983737,25,Man
59,527864,DepthScenes,duration_manipulation_targetAtFixation,jsons/v1_VE250_randls_26.json,http://54.235.29.9/FacialAge/BNav_EC2/DepthDuration/v2_depth_duration_MTurk/v2_DepthDuration_HTML.html#286,286,1366,625,1366,768,8-30-2022,10-28-27,60,depth_duration_stimuli/002118_2014-06-25_20-32-08_260595134347_rgbf000078-resize_1/002118_2014-06-25_20-32-08_260595134347_rgbf000078-resize_1-target.png,250,2.6460000000000004,3,3379,251,feet,jsons/v1_VE250_randls_26.json,877160,1983737,25,Man
60,527864,DepthScenes,duration_manipulation_targetAtFixation,jsons/v1_VE250_randls_26.json,http://54.235.29.9/FacialAge/BNav_EC2/DepthDuration/v2_depth_duration_MTurk/v2_DepthDuration_HTML.html#286,286,1366,625,1366,768,8-30-2022,10-28-27,61,depth_duration_stimuli/001516_2014-06-20_16-25-09_260595134347_rgbf000076-resize_2/001516_2014-06-20_16-25-09_260595134347_rgbf000076-resize_2-target.png,250,1.7445,1,3883,250,feet,jsons/v1_VE250_randls_26.json,877160,1983737,25,Man
61,527864,DepthScenes,duration_manipulation_targetAtFixation,jsons/v1_VE250_randls_26.json,http://54.235.29.9/FacialAge/BNav_EC2/DepthDuration/v2_depth_duration_MTurk/v2_DepthDuration_HTML.html#286,286,1366,625,1366,768,8-30-2022,10-28-27,62,depth_duration_stimuli/001806_2014-06-26_20-50-20_260595134347_rgbf000091-resize_1/001806_2014-06-26_20-50-20_260595134347_rgbf000091-resize_1-target.png,250,2.7305,4,3998,251,feet,jsons/v1_VE250_randls_26.json,877160,1983737,25,Man
62,527864,DepthScenes,duration_manipulation_targetAtFixation,jsons/v1_VE250_randls_26.json,http://54.235.29.9/FacialAge/BNav_EC2/DepthDuration/v2_depth_duration_MTurk/v2_DepthDuration_HTML.html#286,286,1366,625,1366,768,8-30-2022,10-28-27,63,depth_duration_stimuli/001617_2014-06-20_11-35-32_260595134347_rgbf000066-resize_1/001617_2014-06-20_11-35-32_260595134347_rgbf000066-resize_1-target.png,250,3.7910000000000004,3,17991,250,feet,jsons/v1_VE250_randls_26.json,877160,1983737,25,Man
63,527864,DepthScenes,duration_manipulation_targetAtFixation,jsons/v1_VE250_randls_26.json,http://54.235.29.9/FacialAge/BNav_EC2/DepthDuration/v2_depth_duration_MTurk/v2_DepthDuration_HTML.html#286,286,1366,625,1366,768,8-30-2022,10-28-27,64,depth_duration_stimuli/001066_2014-06-08_22-03-20_260595134347_rgbf000066-resize_4/001066_2014-06-08_22-03-20_260595134347_rgbf000066-resize_4-target.png,250,4.2330000000000005,2,3956,250,feet,jsons/v1_VE250_randls_26.json,877160,1983737,25,Man
64,527864,DepthScenes,duration_manipulation_targetAtFixation,jsons/v1_VE250_randls_26.json,http://54.235.29.9/FacialAge/BNav_EC2/DepthDuration/v2_depth_duration_MTurk/v2_DepthDuration_HTML.html#286,286,1366,625,1366,768,8-30-2022,10-28-27,65,depth_duration_stimuli/000742_2014-06-08_18-48-09_260595134347_rgbf000164-resize_4/000742_2014-06-08_18-48-09_260595134347_rgbf000164-resize_4-target.png,250,4.632,2,5362,250,feet,jsons/v1_VE250_randls_26.json,877160,1983737,25,Man
65,527864,DepthScenes,duration_manipulation_targetAtFixation,jsons/v1_VE250_randls_26.json,http://54.235.29.9/FacialAge/BNav_EC2/DepthDuration/v2_depth_duration_MTurk/v2_DepthDuration_HTML.html#286,286,1366,625,1366,768,8-30-2022,10-28-27,66,depth_duration_stimuli/001222_2014-06-17_16-24-06_260595134347_rgbf000073-resize_0/001222_2014-06-17_16-24-06_260595134347_rgbf000073-resize-original.jpg,250,1.4385,0,3299,251,feet,jsons/v1_VE250_randls_26.json,877160,1983737,25,Man
66,527864,DepthScenes,duration_manipulation_targetAtFixation,jsons/v1_VE250_randls_26.json,http://54.235.29.9/FacialAge/BNav_EC2/DepthDuration/v2_depth_duration_MTurk/v2_DepthDuration_HTML.html#286,286,1366,625,1366,768,8-30-2022,10-28-27,67,depth_duration_stimuli/001244_2014-06-17_16-47-45_260595134347_rgbf000030-resize_4/001244_2014-06-17_16-47-45_260595134347_rgbf000030-resize_4-target.png,250,2.0425,4,3827,251,feet,jsons/v1_VE250_randls_26.json,877160,1983737,25,Man
67,527864,DepthScenes,duration_manipulation_targetAtFixation,jsons/v1_VE250_randls_26.json,http://54.235.29.9/FacialAge/BNav_EC2/DepthDuration/v2_depth_duration_MTurk/v2_DepthDuration_HTML.html#286,286,1366,625,1366,768,8-30-2022,10-28-27,68,depth_duration_stimuli/003495_2014-05-21_16-01-51_094959634447_rgbf000100-resize_3/003495_2014-05-21_16-01-51_094959634447_rgbf000100-resize_3-target.png,250,1.6255,3,3277,251,feet,jsons/v1_VE250_randls_26.json,877160,1983737,25,Man
68,527864,DepthScenes,duration_manipulation_targetAtFixation,jsons/v1_VE250_randls_26.json,http://54.235.29.9/FacialAge/BNav_EC2/DepthDuration/v2_depth_duration_MTurk/v2_DepthDuration_HTML.html#286,286,1366,625,1366,768,8-30-2022,10-28-27,69,depth_duration_stimuli/000522_2014-06-08_13-35-06_260595134347_rgbf000244-resize_1/000522_2014-06-08_13-35-06_260595134347_rgbf000244-resize_1-target.png,250,2.3715,2,4003,250,feet,jsons/v1_VE250_randls_26.json,877160,1983737,25,Man
69,527864,DepthScenes,duration_manipulation_targetAtFixation,jsons/v1_VE250_randls_26.json,http://54.235.29.9/FacialAge/BNav_EC2/DepthDuration/v2_depth_duration_MTurk/v2_DepthDuration_HTML.html#286,286,1366,625,1366,768,8-30-2022,10-28-27,70,depth_duration_stimuli/002949_2014-06-26_15-57-42_094959634447_rgbf000079-resize_1/002949_2014-06-26_15-57-42_094959634447_rgbf000079-resize_1-target.png,250,1.8915,2,3708,251,feet,jsons/v1_VE250_randls_26.json,877160,1983737,25,Man
70,527864,DepthScenes,duration_manipulation_targetAtFixation,jsons/v1_VE250_randls_26.json,http://54.235.29.9/FacialAge/BNav_EC2/DepthDuration/v2_depth_duration_MTurk/v2_DepthDuration_HTML.html#286,286,1366,625,1366,768,8-30-2022,10-28-27,71,depth_duration_stimuli/001167_2014-06-17_15-38-07_260595134347_rgbf000108-resize_0/001167_2014-06-17_15-38-07_260595134347_rgbf000108-resize_0-target.png,250,1.8505,2,3787,250,feet,jsons/v1_VE250_randls_26.json,877160,1983737,25,Man
71,527864,DepthScenes,duration_manipulation_targetAtFixation,jsons/v1_VE250_randls_26.json,http://54.235.29.9/FacialAge/BNav_EC2/DepthDuration/v2_depth_duration_MTurk/v2_DepthDuration_HTML.html#286,286,1366,625,1366,768,8-30-2022,10-28-27,72,depth_duration_stimuli/003587_2014-05-23_16-48-02_094959634447_rgbf002384-resize_2/003587_2014-05-23_16-48-02_094959634447_rgbf002384-resize_2-target.png,250,1.357,2,6298,250,feet,jsons/v1_VE250_randls_26.json,877160,1983737,25,Man
72,527864,DepthScenes,duration_manipulation_targetAtFixation,jsons/v1_VE250_randls_26.json,http://54.235.29.9/FacialAge/BNav_EC2/DepthDuration/v2_depth_duration_MTurk/v2_DepthDuration_HTML.html#286,286,1366,625,1366,768,8-30-2022,10-28-27,73,depth_duration_stimuli/000773_2014-06-08_22-24-54_260595134347_rgbf000093-resize_1/000773_2014-06-08_22-24-54_260595134347_rgbf000093-resize_1-target.png,250,4.973,3,4258,250,feet,jsons/v1_VE250_randls_26.json,877160,1983737,25,Man
73,527864,DepthScenes,duration_manipulation_targetAtFixation,jsons/v1_VE250_randls_26.json,http://54.235.29.9/FacialAge/BNav_EC2/DepthDuration/v2_depth_duration_MTurk/v2_DepthDuration_HTML.html#286,286,1366,625,1366,768,8-30-2022,10-28-27,74,depth_duration_stimuli/002414_2014-06-28_20-24-58_260595134347_rgbf000067-resize_4/002414_2014-06-28_20-24-58_260595134347_rgbf000067-resize_4-target.png,250,4.363,1,5515,249,feet,jsons/v1_VE250_randls_26.json,877160,1983737,25,Man
74,527864,DepthScenes,duration_manipulation_targetAtFixation,jsons/v1_VE250_randls_26.json,http://54.235.29.9/FacialAge/BNav_EC2/DepthDuration/v2_depth_duration_MTurk/v2_DepthDuration_HTML.html#286,286,1366,625,1366,768,8-30-2022,10-28-27,75,depth_duration_stimuli/000414_2014-06-04_19-49-13_260595134347_rgbf000044-resize_0/000414_2014-06-04_19-49-13_260595134347_rgbf000044-resize_0-target.png,250,4.329,2,3680,249,feet,jsons/v1_VE250_randls_26.json,877160,1983737,25,Man
75,527864,DepthScenes,duration_manipulation_targetAtFixation,jsons/v1_VE250_randls_26.json,http://54.235.29.9/FacialAge/BNav_EC2/DepthDuration/v2_depth_duration_MTurk/v2_DepthDuration_HTML.html#286,286,1366,625,1366,768,8-30-2022,10-28-27,76,depth_duration_stimuli/003129_2014-05-12_10-48-10_094959634447_rgbf000100-resize_0/003129_2014-05-12_10-48-10_094959634447_rgbf000100-resize_0-target.png,250,4.9305,3,3766,250,feet,jsons/v1_VE250_randls_26.json,877160,1983737,25,Man
76,527864,DepthScenes,duration_manipulation_targetAtFixation,jsons/v1_VE250_randls_26.json,http://54.235.29.9/FacialAge/BNav_EC2/DepthDuration/v2_depth_duration_MTurk/v2_DepthDuration_HTML.html#286,286,1366,625,1366,768,8-30-2022,10-28-27,77,depth_duration_stimuli/000739_2014-06-08_18-45-58_260595134347_rgbf000068-resize_1/000739_2014-06-08_18-45-58_260595134347_rgbf000068-resize_1-target.png,250,3.534,1,4177,251,feet,jsons/v1_VE250_randls_26.json,877160,1983737,25,Man
77,527864,DepthScenes,duration_manipulation_targetAtFixation,jsons/v1_VE250_randls_26.json,http://54.235.29.9/FacialAge/BNav_EC2/DepthDuration/v2_depth_duration_MTurk/v2_DepthDuration_HTML.html#286,286,1366,625,1366,768,8-30-2022,10-28-27,78,depth_duration_stimuli/000734_2014-06-08_17-39-11_260595134347_rgbf000128-resize_2/000734_2014-06-08_17-39-11_260595134347_rgbf000128-resize_2-target.png,250,4.098,2,4002,249,feet,jsons/v1_VE250_randls_26.json,877160,1983737,25,Man
78,527864,DepthScenes,duration_manipulation_targetAtFixation,jsons/v1_VE250_randls_26.json,http://54.235.29.9/FacialAge/BNav_EC2/DepthDuration/v2_depth_duration_MTurk/v2_DepthDuration_HTML.html#286,286,1366,625,1366,768,8-30-2022,10-28-27,79,depth_duration_stimuli/000469_2014-06-09_19-42-10_260595134347_rgbf000081-resize_1/000469_2014-06-09_19-42-10_260595134347_rgbf000081-resize_1-target.png,250,1.652,2,34686,249,feet,jsons/v1_VE250_randls_26.json,877160,1983737,25,Man
79,527864,DepthScenes,duration_manipulation_targetAtFixation,jsons/v1_VE250_randls_26.json,http://54.235.29.9/FacialAge/BNav_EC2/DepthDuration/v2_depth_duration_MTurk/v2_DepthDuration_HTML.html#286,286,1366,625,1366,768,8-30-2022,10-28-27,80,depth_duration_stimuli/000483_2014-06-09_20-41-45_260595134347_rgbf000116-resize_4/000483_2014-06-09_20-41-45_260595134347_rgbf000116-resize_4-target.png,250,1.337,3,3633,251,feet,jsons/v1_VE250_randls_26.json,877160,1983737,25,Man
80,527864,DepthScenes,duration_manipulation_targetAtFixation,jsons/v1_VE250_randls_26.json,http://54.235.29.9/FacialAge/BNav_EC2/DepthDuration/v2_depth_duration_MTurk/v2_DepthDuration_HTML.html#286,286,1366,625,1366,768,8-30-2022,10-28-27,81,depth_duration_stimuli/003534_2014-05-22_15-06-10_094959634447_rgbf000102-resize_4/003534_2014-05-22_15-06-10_094959634447_rgbf000102-resize_4-target.png,250,1.426,2,4079,251,feet,jsons/v1_VE250_randls_26.json,877160,1983737,25,Man
81,527864,DepthScenes,duration_manipulation_targetAtFixation,jsons/v1_VE250_randls_26.json,http://54.235.29.9/FacialAge/BNav_EC2/DepthDuration/v2_depth_duration_MTurk/v2_DepthDuration_HTML.html#286,286,1366,625,1366,768,8-30-2022,10-28-27,82,depth_duration_stimuli/002637_2014-06-24_14-51-13_094959634447_rgbf000066-resize_4/002637_2014-06-24_14-51-13_094959634447_rgbf000066-resize_4-target.png,250,1.9955,0,4110,250,feet,jsons/v1_VE250_randls_26.json,877160,1983737,25,Man
82,527864,DepthScenes,duration_manipulation_targetAtFixation,jsons/v1_VE250_randls_26.json,http://54.235.29.9/FacialAge/BNav_EC2/DepthDuration/v2_depth_duration_MTurk/v2_DepthDuration_HTML.html#286,286,1366,625,1366,768,8-30-2022,10-28-27,83,depth_duration_stimuli/000642_2014-06-08_16-59-25_260595134347_rgbf000098-resize_2/000642_2014-06-08_16-59-25_260595134347_rgbf000098-resize_2-target.png,250,2.8815,4,4043,250,feet,jsons/v1_VE250_randls_26.json,877160,1983737,25,Man
83,527864,DepthScenes,duration_manipulation_targetAtFixation,jsons/v1_VE250_randls_26.json,http://54.235.29.9/FacialAge/BNav_EC2/DepthDuration/v2_depth_duration_MTurk/v2_DepthDuration_HTML.html#286,286,1366,625,1366,768,8-30-2022,10-28-27,84,depth_duration_stimuli/002425_2014-06-28_20-27-29_260595134347_rgbf000031-resize_8/002425_2014-06-28_20-27-29_260595134347_rgbf000031-resize_8-target.png,250,3.8960000000000004,3,4026,248,feet,jsons/v1_VE250_randls_26.json,877160,1983737,25,Man
84,527864,DepthScenes,duration_manipulation_targetAtFixation,jsons/v1_VE250_randls_26.json,http://54.235.29.9/FacialAge/BNav_EC2/DepthDuration/v2_depth_duration_MTurk/v2_DepthDuration_HTML.html#286,286,1366,625,1366,768,8-30-2022,10-28-27,85,depth_duration_stimuli/001011_2014-06-08_23-18-54_260595134347_rgbf000044-resize_4/001011_2014-06-08_23-18-54_260595134347_rgbf000044-resize_4-target.png,250,2.4730000000000003,3,5291,251,feet,jsons/v1_VE250_randls_26.json,877160,1983737,25,Man
85,527864,DepthScenes,duration_manipulation_targetAtFixation,jsons/v1_VE250_randls_26.json,http://54.235.29.9/FacialAge/BNav_EC2/DepthDuration/v2_depth_duration_MTurk/v2_DepthDuration_HTML.html#286,286,1366,625,1366,768,8-30-2022,10-28-27,86,depth_duration_stimuli/002875_2014-06-01_15-19-00_094959634447_rgbf000151-resize_1/002875_2014-06-01_15-19-00_094959634447_rgbf000151-resize_1-target.png,250,1.9675,2,3903,250,feet,jsons/v1_VE250_randls_26.json,877160,1983737,25,Man
86,527864,DepthScenes,duration_manipulation_targetAtFixation,jsons/v1_VE250_randls_26.json,http://54.235.29.9/FacialAge/BNav_EC2/DepthDuration/v2_depth_duration_MTurk/v2_DepthDuration_HTML.html#286,286,1366,625,1366,768,8-30-2022,10-28-27,87,depth_duration_stimuli/001092_2014-06-15_17-34-58_260595134347_rgbf000171-resize_3/001092_2014-06-15_17-34-58_260595134347_rgbf000171-resize_3-target.png,250,2.6935,1,4116,250,feet,jsons/v1_VE250_randls_26.json,877160,1983737,25,Man
87,527864,DepthScenes,duration_manipulation_targetAtFixation,jsons/v1_VE250_randls_26.json,http://54.235.29.9/FacialAge/BNav_EC2/DepthDuration/v2_depth_duration_MTurk/v2_DepthDuration_HTML.html#286,286,1366,625,1366,768,8-30-2022,10-28-27,88,depth_duration_stimuli/002545_2014-06-24_13-38-53_094959634447_rgbf000080-resize_4/002545_2014-06-24_13-38-53_094959634447_rgbf000080-resize_4-target.png,250,1.9205,3,3946,249,feet,jsons/v1_VE250_randls_26.json,877160,1983737,25,Man
88,527864,DepthScenes,duration_manipulation_targetAtFixation,jsons/v1_VE250_randls_26.json,http://54.235.29.9/FacialAge/BNav_EC2/DepthDuration/v2_depth_duration_MTurk/v2_DepthDuration_HTML.html#286,286,1366,625,1366,768,8-30-2022,10-28-27,89,depth_duration_stimuli/002375_2014-06-28_20-13-44_260595134347_rgbf000032-resize_1/002375_2014-06-28_20-13-44_260595134347_rgbf000032-resize_1-target.png,250,4.0175,2,5604,250,feet,jsons/v1_VE250_randls_26.json,877160,1983737,25,Man
89,527864,DepthScenes,duration_manipulation_targetAtFixation,jsons/v1_VE250_randls_26.json,http://54.235.29.9/FacialAge/BNav_EC2/DepthDuration/v2_depth_duration_MTurk/v2_DepthDuration_HTML.html#286,286,1366,625,1366,768,8-30-2022,10-28-27,90,depth_duration_stimuli/002657_2014-06-13_15-29-54_094959634447_rgbf000150-resize_1/002657_2014-06-13_15-29-54_094959634447_rgbf000150-resize_1-target.png,250,4.919,3,3827,250,feet,jsons/v1_VE250_randls_26.json,877160,1983737,25,Man
90,527864,DepthScenes,duration_manipulation_targetAtFixation,jsons/v1_VE250_randls_26.json,http://54.235.29.9/FacialAge/BNav_EC2/DepthDuration/v2_depth_duration_MTurk/v2_DepthDuration_HTML.html#286,286,1366,625,1366,768,8-30-2022,10-28-27,91,depth_duration_stimuli/000682_2014-06-08_23-14-58_260595134347_rgbf000041-resize_5/000682_2014-06-08_23-14-58_260595134347_rgbf000041-resize_5-target.png,250,2.7239999999999998,1,3817,249,feet,jsons/v1_VE250_randls_26.json,877160,1983737,25,Man
91,527864,DepthScenes,duration_manipulation_targetAtFixation,jsons/v1_VE250_randls_26.json,http://54.235.29.9/FacialAge/BNav_EC2/DepthDuration/v2_depth_duration_MTurk/v2_DepthDuration_HTML.html#286,286,1366,625,1366,768,8-30-2022,10-28-27,92,depth_duration_stimuli/001650_2014-06-20_12-09-00_260595134347_rgbf000087-resize_3/001650_2014-06-20_12-09-00_260595134347_rgbf000087-resize_3-target.png,250,1.9505,2,4018,251,feet,jsons/v1_VE250_randls_26.json,877160,1983737,25,Man
92,527864,DepthScenes,duration_manipulation_targetAtFixation,jsons/v1_VE250_randls_26.json,http://54.235.29.9/FacialAge/BNav_EC2/DepthDuration/v2_depth_duration_MTurk/v2_DepthDuration_HTML.html#286,286,1366,625,1366,768,8-30-2022,10-28-27,93,depth_duration_stimuli/003292_2014-05-14_21-53-49_094959634447_rgbf000100-resize_2/003292_2014-05-14_21-53-49_094959634447_rgbf000100-resize_2-target.png,250,3.4815,3,3955,248,feet,jsons/v1_VE250_randls_26.json,877160,1983737,25,Man
93,527864,DepthScenes,duration_manipulation_targetAtFixation,jsons/v1_VE250_randls_26.json,http://54.235.29.9/FacialAge/BNav_EC2/DepthDuration/v2_depth_duration_MTurk/v2_DepthDuration_HTML.html#286,286,1366,625,1366,768,8-30-2022,10-28-27,94,depth_duration_stimuli/002639_2014-06-24_14-51-37_094959634447_rgbf000074-resize_4/002639_2014-06-24_14-51-37_094959634447_rgbf000074-resize_4-target.png,250,4.0375,2,3770,251,feet,jsons/v1_VE250_randls_26.json,877160,1983737,25,Man
94,527864,DepthScenes,duration_manipulation_targetAtFixation,jsons/v1_VE250_randls_26.json,http://54.235.29.9/FacialAge/BNav_EC2/DepthDuration/v2_depth_duration_MTurk/v2_DepthDuration_HTML.html#286,286,1366,625,1366,768,8-30-2022,10-28-27,95,depth_duration_stimuli/000486_2014-06-09_20-47-20_260595134347_rgbf000143-resize_2/000486_2014-06-09_20-47-20_260595134347_rgbf000143-resize_2-target.png,250,4.8325,4,3586,250,feet,jsons/v1_VE250_randls_26.json,877160,1983737,25,Man
95,527864,DepthScenes,duration_manipulation_targetAtFixation,jsons/v1_VE250_randls_26.json,http://54.235.29.9/FacialAge/BNav_EC2/DepthDuration/v2_depth_duration_MTurk/v2_DepthDuration_HTML.html#286,286,1366,625,1366,768,8-30-2022,10-28-27,96,depth_duration_stimuli/003083_2014-06-15_15-21-03_094959634447_rgbf000063-resize_1/003083_2014-06-15_15-21-03_094959634447_rgbf000063-resize_1-target.png,250,4.1405,5,27532,250,feet,jsons/v1_VE250_randls_26.json,877160,1983737,25,Man
96,527864,DepthScenes,duration_manipulation_targetAtFixation,jsons/v1_VE250_randls_26.json,http://54.235.29.9/FacialAge/BNav_EC2/DepthDuration/v2_depth_duration_MTurk/v2_DepthDuration_HTML.html#286,286,1366,625,1366,768,8-30-2022,10-28-27,97,depth_duration_stimuli/001175_2014-06-17_15-45-55_260595134347_rgbf000129-resize_4/001175_2014-06-17_15-45-55_260595134347_rgbf000129-resize_4-target.png,250,4.255,3,3122,250,feet,jsons/v1_VE250_randls_26.json,877160,1983737,25,Man
97,527864,DepthScenes,duration_manipulation_targetAtFixation,jsons/v1_VE250_randls_26.json,http://54.235.29.9/FacialAge/BNav_EC2/DepthDuration/v2_depth_duration_MTurk/v2_DepthDuration_HTML.html#286,286,1366,625,1366,768,8-30-2022,10-28-27,98,depth_duration_stimuli/003490_2014-05-21_15-50-11_094959634447_rgbf000101-resize_3/003490_2014-05-21_15-50-11_094959634447_rgbf000101-resize_3-target.png,250,3.6445,2,4956,249,feet,jsons/v1_VE250_randls_26.json,877160,1983737,25,Man
98,527864,DepthScenes,duration_manipulation_targetAtFixation,jsons/v1_VE250_randls_26.json,http://54.235.29.9/FacialAge/BNav_EC2/DepthDuration/v2_depth_duration_MTurk/v2_DepthDuration_HTML.html#286,286,1366,625,1366,768,8-30-2022,10-28-27,99,depth_duration_stimuli/001540_2014-06-20_17-01-05_260595134347_rgbf000086-resize_2/001540_2014-06-20_17-01-05_260595134347_rgbf000086-resize-original.jpg,250,1.459,1,3531,250,feet,jsons/v1_VE250_randls_26.json,877160,1983737,25,Man
99,527864,DepthScenes,duration_manipulation_targetAtFixation,jsons/v1_VE250_randls_26.json,http://54.235.29.9/FacialAge/BNav_EC2/DepthDuration/v2_depth_duration_MTurk/v2_DepthDuration_HTML.html#286,286,1366,625,1366,768,8-30-2022,10-28-27,100,depth_duration_stimuli/001808_2014-06-26_20-50-58_260595134347_rgbf000029-resize_1/001808_2014-06-26_20-50-58_260595134347_rgbf000029-resize_1-target.png,250,4.249,3,4118,250,feet,jsons/v1_VE250_randls_26.json,877160,1983737,25,Man
100,527864,DepthScenes,duration_manipulation_targetAtFixation,jsons/v1_VE250_randls_26.json,http://54.235.29.9/FacialAge/BNav_EC2/DepthDuration/v2_depth_duration_MTurk/v2_DepthDuration_HTML.html#286,286,1366,625,1366,768,8-30-2022,10-28-27,101,depth_duration_stimuli/001815_2014-06-26_20-52-55_260595134347_rgbf000020-resize_0/001815_2014-06-26_20-52-55_260595134347_rgbf000020-resize_0-target.png,250,3.3865,2,3624,250,feet,jsons/v1_VE250_randls_26.json,877160,1983737,25,Man
101,527864,DepthScenes,duration_manipulation_targetAtFixation,jsons/v1_VE250_randls_26.json,http://54.235.29.9/FacialAge/BNav_EC2/DepthDuration/v2_depth_duration_MTurk/v2_DepthDuration_HTML.html#286,286,1366,625,1366,768,8-30-2022,10-28-27,102,depth_duration_stimuli/003492_2014-05-21_15-50-55_094959634447_rgbf000828-resize_1/003492_2014-05-21_15-50-55_094959634447_rgbf000828-resize_1-target.png,250,4.06875,2,4082,250,feet,jsons/v1_VE250_randls_26.json,877160,1983737,25,Man
102,527864,DepthScenes,duration_manipulation_targetAtFixation,jsons/v1_VE250_randls_26.json,http://54.235.29.9/FacialAge/BNav_EC2/DepthDuration/v2_depth_duration_MTurk/v2_DepthDuration_HTML.html#286,286,1366,625,1366,768,8-30-2022,10-28-27,103,depth_duration_stimuli/002568_2014-06-24_13-59-21_094959634447_rgbf000062-resize_4/002568_2014-06-24_13-59-21_094959634447_rgbf000062-resize_4-target.png,250,3.015,3,3402,249,feet,jsons/v1_VE250_randls_26.json,877160,1983737,25,Man
103,527864,DepthScenes,duration_manipulation_targetAtFixation,jsons/v1_VE250_randls_26.json,http://54.235.29.9/FacialAge/BNav_EC2/DepthDuration/v2_depth_duration_MTurk/v2_DepthDuration_HTML.html#286,286,1366,625,1366,768,8-30-2022,10-28-27,104,depth_duration_stimuli/003621_2014-05-23_18-06-08_094959634447_rgbf000101-resize_1/003621_2014-05-23_18-06-08_094959634447_rgbf000101-resize_1-target.png,250,3.9835,2,3980,251,feet,jsons/v1_VE250_randls_26.json,877160,1983737,25,Man
104,527864,DepthScenes,duration_manipulation_targetAtFixation,jsons/v1_VE250_randls_26.json,http://54.235.29.9/FacialAge/BNav_EC2/DepthDuration/v2_depth_duration_MTurk/v2_DepthDuration_HTML.html#286,286,1366,625,1366,768,8-30-2022,10-28-27,105,depth_duration_stimuli/001584_2014-06-20_11-07-43_260595134347_rgbf000002-resize_1/001584_2014-06-20_11-07-43_260595134347_rgbf000002-resize_1-target.png,250,3.53,2,4371,250,feet,jsons/v1_VE250_randls_26.json,877160,1983737,25,Man
105,527864,DepthScenes,duration_manipulation_targetAtFixation,jsons/v1_VE250_randls_26.json,http://54.235.29.9/FacialAge/BNav_EC2/DepthDuration/v2_depth_duration_MTurk/v2_DepthDuration_HTML.html#286,286,1366,625,1366,768,8-30-2022,10-28-27,106,depth_duration_stimuli/001059_2014-06-08_21-53-27_260595134347_rgbf000061-resize_4/001059_2014-06-08_21-53-27_260595134347_rgbf000061-resize_4-target.png,250,2.4185,1,4113,250,feet,jsons/v1_VE250_randls_26.json,877160,1983737,25,Man
106,527864,DepthScenes,duration_manipulation_targetAtFixation,jsons/v1_VE250_randls_26.json,http://54.235.29.9/FacialAge/BNav_EC2/DepthDuration/v2_depth_duration_MTurk/v2_DepthDuration_HTML.html#286,286,1366,625,1366,768,8-30-2022,10-28-27,107,depth_duration_stimuli/001032_2014-06-08_13-23-17_260595134347_rgbf000021-resize_3/001032_2014-06-08_13-23-17_260595134347_rgbf000021-resize_3-target.png,250,3.2725,3,4339,250,feet,jsons/v1_VE250_randls_26.json,877160,1983737,25,Man
107,527864,DepthScenes,duration_manipulation_targetAtFixation,jsons/v1_VE250_randls_26.json,http://54.235.29.9/FacialAge/BNav_EC2/DepthDuration/v2_depth_duration_MTurk/v2_DepthDuration_HTML.html#286,286,1366,625,1366,768,8-30-2022,10-28-27,108,depth_duration_stimuli/002748_2014-06-22_19-07-22_094959634447_rgbf000078-resize_1/002748_2014-06-22_19-07-22_094959634447_rgbf000078-resize_1-target.png,250,4.6705,2,3591,251,feet,jsons/v1_VE250_randls_26.json,877160,1983737,25,Man
108,527864,DepthScenes,duration_manipulation_targetAtFixation,jsons/v1_VE250_randls_26.json,http://54.235.29.9/FacialAge/BNav_EC2/DepthDuration/v2_depth_duration_MTurk/v2_DepthDuration_HTML.html#286,286,1366,625,1366,768,8-30-2022,10-28-27,109,depth_duration_stimuli/002995_2014-06-15_12-31-26_094959634447_rgbf000150-resize_1/002995_2014-06-15_12-31-26_094959634447_rgbf000150-resize_1-target.png,250,3.8360000000000003,3,3171,250,feet,jsons/v1_VE250_randls_26.json,877160,1983737,25,Man
109,527864,DepthScenes,duration_manipulation_targetAtFixation,jsons/v1_VE250_randls_26.json,http://54.235.29.9/FacialAge/BNav_EC2/DepthDuration/v2_depth_duration_MTurk/v2_DepthDuration_HTML.html#286,286,1366,625,1366,768,8-30-2022,10-28-27,110,depth_duration_stimuli/002763_2014-06-22_19-13-10_094959634447_rgbf000075-resize_4/002763_2014-06-22_19-13-10_094959634447_rgbf000075-resize_4-target.png,250,1.68375,1,4441,250,feet,jsons/v1_VE250_randls_26.json,877160,1983737,25,Man
110,527864,DepthScenes,duration_manipulation_targetAtFixation,jsons/v1_VE250_randls_26.json,http://54.235.29.9/FacialAge/BNav_EC2/DepthDuration/v2_depth_duration_MTurk/v2_DepthDuration_HTML.html#286,286,1366,625,1366,768,8-30-2022,10-28-27,111,depth_duration_stimuli/002209_2014-06-28_18-36-10_260595134347_rgbf000051-resize_1/002209_2014-06-28_18-36-10_260595134347_rgbf000051-resize_1-target.png,250,2.057,3,3699,251,feet,jsons/v1_VE250_randls_26.json,877160,1983737,25,Man
111,527864,DepthScenes,duration_manipulation_targetAtFixation,jsons/v1_VE250_randls_26.json,http://54.235.29.9/FacialAge/BNav_EC2/DepthDuration/v2_depth_duration_MTurk/v2_DepthDuration_HTML.html#286,286,1366,625,1366,768,8-30-2022,10-28-27,112,depth_duration_stimuli/001417_2014-06-19_16-25-36_260595134347_rgbf000115-resize_5/001417_2014-06-19_16-25-36_260595134347_rgbf000115-resize_5-target.png,250,4.6255,2,3867,250,feet,jsons/v1_VE250_randls_26.json,877160,1983737,25,Man
112,527864,DepthScenes,duration_manipulation_targetAtFixation,jsons/v1_VE250_randls_26.json,http://54.235.29.9/FacialAge/BNav_EC2/DepthDuration/v2_depth_duration_MTurk/v2_DepthDuration_HTML.html#286,286,1366,625,1366,768,8-30-2022,10-28-27,113,depth_duration_stimuli/003081_2014-06-15_15-19-16_094959634447_rgbf000150-resize_1/003081_2014-06-15_15-19-16_094959634447_rgbf000150-resize_1-target.png,250,3.9125,3,4019,251,feet,jsons/v1_VE250_randls_26.json,877160,1983737,25,Man
113,527864,DepthScenes,duration_manipulation_targetAtFixation,jsons/v1_VE250_randls_26.json,http://54.235.29.9/FacialAge/BNav_EC2/DepthDuration/v2_depth_duration_MTurk/v2_DepthDuration_HTML.html#286,286,1366,625,1366,768,8-30-2022,10-28-27,114,depth_duration_stimuli/001056_2014-06-08_18-46-44_260595134347_rgbf000068-resize_0/001056_2014-06-08_18-46-44_260595134347_rgbf000068-resize_0-target.png,250,2.6625,2,3939,249,feet,jsons/v1_VE250_randls_26.json,877160,1983737,25,Man
114,527864,DepthScenes,duration_manipulation_targetAtFixation,jsons/v1_VE250_randls_26.json,http://54.235.29.9/FacialAge/BNav_EC2/DepthDuration/v2_depth_duration_MTurk/v2_DepthDuration_HTML.html#286,286,1366,625,1366,768,8-30-2022,10-28-27,115,depth_duration_stimuli/002199_2014-06-28_18-33-56_260595134347_rgbf000074-resize_0/002199_2014-06-28_18-33-56_260595134347_rgbf000074-resize_0-target.png,250,1.996,1,3995,251,feet,jsons/v1_VE250_randls_26.json,877160,1983737,25,Man
115,527864,DepthScenes,duration_manipulation_targetAtFixation,jsons/v1_VE250_randls_26.json,http://54.235.29.9/FacialAge/BNav_EC2/DepthDuration/v2_depth_duration_MTurk/v2_DepthDuration_HTML.html#286,286,1366,625,1366,768,8-30-2022,10-28-27,116,depth_duration_stimuli/001170_2014-06-17_15-43-44_260595134347_rgbf000096-resize_6/001170_2014-06-17_15-43-44_260595134347_rgbf000096-resize-original.jpg,250,1.1909999999999998,0,3282,251,feet,jsons/v1_VE250_randls_26.json,877160,1983737,25,Man
116,527864,DepthScenes,duration_manipulation_targetAtFixation,jsons/v1_VE250_randls_26.json,http://54.235.29.9/FacialAge/BNav_EC2/DepthDuration/v2_depth_duration_MTurk/v2_DepthDuration_HTML.html#286,286,1366,625,1366,768,8-30-2022,10-28-27,117,depth_duration_stimuli/001199_2014-06-17_16-03-48_260595134347_rgbf000077-resize_0/001199_2014-06-17_16-03-48_260595134347_rgbf000077-resize_0-target.png,250,3.4375,2,3362,249,feet,jsons/v1_VE250_randls_26.json,877160,1983737,25,Man
117,527864,DepthScenes,duration_manipulation_targetAtFixation,jsons/v1_VE250_randls_26.json,http://54.235.29.9/FacialAge/BNav_EC2/DepthDuration/v2_depth_duration_MTurk/v2_DepthDuration_HTML.html#286,286,1366,625,1366,768,8-30-2022,10-28-27,118,depth_duration_stimuli/000502_2014-06-08_23-02-32_260595134347_rgbf000063-resize_4/000502_2014-06-08_23-02-32_260595134347_rgbf000063-resize_4-target.png,250,2.431,3,6286,252,feet,jsons/v1_VE250_randls_26.json,877160,1983737,25,Man
118,527864,DepthScenes,duration_manipulation_targetAtFixation,jsons/v1_VE250_randls_26.json,http://54.235.29.9/FacialAge/BNav_EC2/DepthDuration/v2_depth_duration_MTurk/v2_DepthDuration_HTML.html#286,286,1366,625,1366,768,8-30-2022,10-28-27,119,depth_duration_stimuli/000506_2014-06-08_23-21-00_260595134347_rgbf000070-resize_7/000506_2014-06-08_23-21-00_260595134347_rgbf000070-resize_7-target.png,250,4.0585,5,4042,250,feet,jsons/v1_VE250_randls_26.json,877160,1983737,25,Man
119,527864,DepthScenes,duration_manipulation_targetAtFixation,jsons/v1_VE250_randls_26.json,http://54.235.29.9/FacialAge/BNav_EC2/DepthDuration/v2_depth_duration_MTurk/v2_DepthDuration_HTML.html#286,286,1366,625,1366,768,8-30-2022,10-28-27,120,depth_duration_stimuli/003079_2014-06-15_15-18-20_094959634447_rgbf000152-resize_8/003079_2014-06-15_15-18-20_094959634447_rgbf000152-resize_8-target.png,250,2.8775,3,3530,249,feet,jsons/v1_VE250_randls_26.json,877160,1983737,25,Man
120,527864,DepthScenes,duration_manipulation_targetAtFixation,jsons/v1_VE250_randls_26.json,http://54.235.29.9/FacialAge/BNav_EC2/DepthDuration/v2_depth_duration_MTurk/v2_DepthDuration_HTML.html#286,286,1366,625,1366,768,8-30-2022,10-28-27,121,depth_duration_stimuli/002964_2014-06-08_17-46-11_094959634447_rgbf000091-resize_4/002964_2014-06-08_17-46-11_094959634447_rgbf000091-resize_4-target.png,250,1.6909999999999998,1,3561,249,feet,jsons/v1_VE250_randls_26.json,877160,1983737,25,Man
121,527864,DepthScenes,duration_manipulation_targetAtFixation,jsons/v1_VE250_randls_26.json,http://54.235.29.9/FacialAge/BNav_EC2/DepthDuration/v2_depth_duration_MTurk/v2_DepthDuration_HTML.html#286,286,1366,625,1366,768,8-30-2022,10-28-27,122,depth_duration_stimuli/002136_2014-06-25_21-18-03_260595134347_rgbf000109-resize_3/002136_2014-06-25_21-18-03_260595134347_rgbf000109-resize_3-target.png,250,1.9569999999999999,2,3259,250,feet,jsons/v1_VE250_randls_26.json,877160,1983737,25,Man
122,527864,DepthScenes,duration_manipulation_targetAtFixation,jsons/v1_VE250_randls_26.json,http://54.235.29.9/FacialAge/BNav_EC2/DepthDuration/v2_depth_duration_MTurk/v2_DepthDuration_HTML.html#286,286,1366,625,1366,768,8-30-2022,10-28-27,123,depth_duration_stimuli/000736_2014-06-08_18-24-15_260595134347_rgbf000206-resize_3/000736_2014-06-08_18-24-15_260595134347_rgbf000206-resize_3-target.png,250,3.515,3,3363,250,feet,jsons/v1_VE250_randls_26.json,877160,1983737,25,Man
123,527864,DepthScenes,duration_manipulation_targetAtFixation,jsons/v1_VE250_randls_26.json,http://54.235.29.9/FacialAge/BNav_EC2/DepthDuration/v2_depth_duration_MTurk/v2_DepthDuration_HTML.html#286,286,1366,625,1366,768,8-30-2022,10-28-27,124,depth_duration_stimuli/000137_2014-05-20_17-04-49_260595134347_rgbf000120-resize_1/000137_2014-05-20_17-04-49_260595134347_rgbf000120-resize_1-target.png,250,3.786,2,4243,250,feet,jsons/v1_VE250_randls_26.json,877160,1983737,25,Man
124,527864,DepthScenes,duration_manipulation_targetAtFixation,jsons/v1_VE250_randls_26.json,http://54.235.29.9/FacialAge/BNav_EC2/DepthDuration/v2_depth_duration_MTurk/v2_DepthDuration_HTML.html#286,286,1366,625,1366,768,8-30-2022,10-28-27,125,depth_duration_stimuli/002570_2014-06-24_13-59-54_094959634447_rgbf000059-resize_0/002570_2014-06-24_13-59-54_094959634447_rgbf000059-resize_0-target.png,250,4.037,4,18506,249,feet,jsons/v1_VE250_randls_26.json,877160,1983737,25,Man
125,527864,DepthScenes,duration_manipulation_targetAtFixation,jsons/v1_VE250_randls_26.json,http://54.235.29.9/FacialAge/BNav_EC2/DepthDuration/v2_depth_duration_MTurk/v2_DepthDuration_HTML.html#286,286,1366,625,1366,768,8-30-2022,10-28-27,126,depth_duration_stimuli/002467_2014-06-28_20-38-07_260595134347_rgbf000026-resize_2/002467_2014-06-28_20-38-07_260595134347_rgbf000026-resize_2-target.png,250,4.742,3,3915,250,feet,jsons/v1_VE250_randls_26.json,877160,1983737,25,Man
126,527864,DepthScenes,duration_manipulation_targetAtFixation,jsons/v1_VE250_randls_26.json,http://54.235.29.9/FacialAge/BNav_EC2/DepthDuration/v2_depth_duration_MTurk/v2_DepthDuration_HTML.html#286,286,1366,625,1366,768,8-30-2022,10-28-27,127,depth_duration_stimuli/001449_2014-06-19_17-01-27_260595134347_rgbf000116-resize_2/001449_2014-06-19_17-01-27_260595134347_rgbf000116-resize_2-target.png,250,3.452,4,3547,250,feet,jsons/v1_VE250_randls_26.json,877160,1983737,25,Man
127,527864,DepthScenes,duration_manipulation_targetAtFixation,jsons/v1_VE250_randls_26.json,http://54.235.29.9/FacialAge/BNav_EC2/DepthDuration/v2_depth_duration_MTurk/v2_DepthDuration_HTML.html#286,286,1366,625,1366,768,8-30-2022,10-28-27,128,depth_duration_stimuli/001450_2014-06-19_17-02-03_260595134347_rgbf000203-resize_4/001450_2014-06-19_17-02-03_260595134347_rgbf000203-resize_4-target.png,250,4.0106666666667,2,4084,251,feet,jsons/v1_VE250_randls_26.json,877160,1983737,25,Man
128,527864,DepthScenes,duration_manipulation_targetAtFixation,jsons/v1_VE250_randls_26.json,http://54.235.29.9/FacialAge/BNav_EC2/DepthDuration/v2_depth_duration_MTurk/v2_DepthDuration_HTML.html#286,286,1366,625,1366,768,8-30-2022,10-28-27,129,depth_duration_stimuli/001055_2014-06-08_18-45-35_260595134347_rgbf000111-resize_4/001055_2014-06-08_18-45-35_260595134347_rgbf000111-resize_4-target.png,250,2.4290000000000003,3,3083,250,feet,jsons/v1_VE250_randls_26.json,877160,1983737,25,Man
129,527864,DepthScenes,duration_manipulation_targetAtFixation,jsons/v1_VE250_randls_26.json,http://54.235.29.9/FacialAge/BNav_EC2/DepthDuration/v2_depth_duration_MTurk/v2_DepthDuration_HTML.html#286,286,1366,625,1366,768,8-30-2022,10-28-27,130,depth_duration_stimuli/000549_2014-06-08_22-10-24_260595134347_rgbf000247-resize_3/000549_2014-06-08_22-10-24_260595134347_rgbf000247-resize_3-target.png,250,1.841,3,3778,249,feet,jsons/v1_VE250_randls_26.json,877160,1983737,25,Man
130,527864,DepthScenes,duration_manipulation_targetAtFixation,jsons/v1_VE250_randls_26.json,http://54.235.29.9/FacialAge/BNav_EC2/DepthDuration/v2_depth_duration_MTurk/v2_DepthDuration_HTML.html#286,286,1366,625,1366,768,8-30-2022,10-28-27,131,depth_duration_stimuli/001029_2014-06-08_13-17-57_260595134347_rgbf000065-resize_1/001029_2014-06-08_13-17-57_260595134347_rgbf000065-resize_1-target.png,250,3.0835,4,4010,250,feet,jsons/v1_VE250_randls_26.json,877160,1983737,25,Man
131,527864,DepthScenes,duration_manipulation_targetAtFixation,jsons/v1_VE250_randls_26.json,http://54.235.29.9/FacialAge/BNav_EC2/DepthDuration/v2_depth_duration_MTurk/v2_DepthDuration_HTML.html#286,286,1366,625,1366,768,8-30-2022,10-28-27,132,depth_duration_stimuli/000677_2014-06-08_23-10-32_260595134347_rgbf000158-resize_6/000677_2014-06-08_23-10-32_260595134347_rgbf000158-resize_6-target.png,250,3.556,3,3460,251,feet,jsons/v1_VE250_randls_26.json,877160,1983737,25,Man
132,527864,DepthScenes,duration_manipulation_targetAtFixation,jsons/v1_VE250_randls_26.json,http://54.235.29.9/FacialAge/BNav_EC2/DepthDuration/v2_depth_duration_MTurk/v2_DepthDuration_HTML.html#286,286,1366,625,1366,768,8-30-2022,10-28-27,133,depth_duration_stimuli/002153_2014-06-25_21-27-18_260595134347_rgbf000038-resize_5/002153_2014-06-25_21-27-18_260595134347_rgbf000038-resize_5-target.png,250,2.505,3,3385,249,feet,jsons/v1_VE250_randls_26.json,877160,1983737,25,Man
133,527864,DepthScenes,duration_manipulation_targetAtFixation,jsons/v1_VE250_randls_26.json,http://54.235.29.9/FacialAge/BNav_EC2/DepthDuration/v2_depth_duration_MTurk/v2_DepthDuration_HTML.html#286,286,1366,625,1366,768,8-30-2022,10-28-27,134,depth_duration_stimuli/002660_2014-06-13_15-44-18_094959634447_rgbf001878-resize_2/002660_2014-06-13_15-44-18_094959634447_rgbf001878-resize_2-target.png,250,3.576,2,3706,248,feet,jsons/v1_VE250_randls_26.json,877160,1983737,25,Man
134,527864,DepthScenes,duration_manipulation_targetAtFixation,jsons/v1_VE250_randls_26.json,http://54.235.29.9/FacialAge/BNav_EC2/DepthDuration/v2_depth_duration_MTurk/v2_DepthDuration_HTML.html#286,286,1366,625,1366,768,8-30-2022,10-28-27,135,depth_duration_stimuli/002072_2014-06-24_21-48-06_260595134347_rgbf000115-resize_0/002072_2014-06-24_21-48-06_260595134347_rgbf000115-resize-original.jpg,250,4.702,0,6011,250,feet,jsons/v1_VE250_randls_26.json,877160,1983737,25,Man
135,527864,DepthScenes,duration_manipulation_targetAtFixation,jsons/v1_VE250_randls_26.json,http://54.235.29.9/FacialAge/BNav_EC2/DepthDuration/v2_depth_duration_MTurk/v2_DepthDuration_HTML.html#286,286,1366,625,1366,768,8-30-2022,10-28-27,136,depth_duration_stimuli/000470_2014-06-09_19-42-40_260595134347_rgbf000094-resize_1/000470_2014-06-09_19-42-40_260595134347_rgbf000094-resize_1-target.png,250,1.831,2,3883,251,feet,jsons/v1_VE250_randls_26.json,877160,1983737,25,Man
136,527864,DepthScenes,duration_manipulation_targetAtFixation,jsons/v1_VE250_randls_26.json,http://54.235.29.9/FacialAge/BNav_EC2/DepthDuration/v2_depth_duration_MTurk/v2_DepthDuration_HTML.html#286,286,1366,625,1366,768,8-30-2022,10-28-27,137,depth_duration_stimuli/000109_2014-05-14_23-41-52_260595134347_rgbf000035-resize_9/000109_2014-05-14_23-41-52_260595134347_rgbf000035-resize_9-target.png,250,1.3545,3,3224,250,feet,jsons/v1_VE250_randls_26.json,877160,1983737,25,Man
137,527864,DepthScenes,duration_manipulation_targetAtFixation,jsons/v1_VE250_randls_26.json,http://54.235.29.9/FacialAge/BNav_EC2/DepthDuration/v2_depth_duration_MTurk/v2_DepthDuration_HTML.html#286,286,1366,625,1366,768,8-30-2022,10-28-27,138,depth_duration_stimuli/000692_2014-06-08_13-09-42_260595134347_rgbf000199-resize_2/000692_2014-06-08_13-09-42_260595134347_rgbf000199-resize_2-target.png,250,3.661,3,3127,250,feet,jsons/v1_VE250_randls_26.json,877160,1983737,25,Man
138,527864,DepthScenes,duration_manipulation_targetAtFixation,jsons/v1_VE250_randls_26.json,http://54.235.29.9/FacialAge/BNav_EC2/DepthDuration/v2_depth_duration_MTurk/v2_DepthDuration_HTML.html#286,286,1366,625,1366,768,8-30-2022,10-28-27,139,depth_duration_stimuli/001094_2014-06-15_17-36-00_260595134347_rgbf000205-resize_0/001094_2014-06-15_17-36-00_260595134347_rgbf000205-resize_0-target.png,250,4.2175,4,4931,250,feet,jsons/v1_VE250_randls_26.json,877160,1983737,25,Man
139,527864,DepthScenes,duration_manipulation_targetAtFixation,jsons/v1_VE250_randls_26.json,http://54.235.29.9/FacialAge/BNav_EC2/DepthDuration/v2_depth_duration_MTurk/v2_DepthDuration_HTML.html#286,286,1366,625,1366,768,8-30-2022,10-28-27,140,depth_duration_stimuli/002905_2014-06-03_18-04-43_094959634447_rgbf000151-resize_2/002905_2014-06-03_18-04-43_094959634447_rgbf000151-resize_2-target.png,250,2.0295,3,4106,249,feet,jsons/v1_VE250_randls_26.json,877160,1983737,25,Man
140,527864,DepthScenes,duration_manipulation_targetAtFixation,jsons/v1_VE250_randls_26.json,http://54.235.29.9/FacialAge/BNav_EC2/DepthDuration/v2_depth_duration_MTurk/v2_DepthDuration_HTML.html#286,286,1366,625,1366,768,8-30-2022,10-28-27,141,depth_duration_stimuli/003423_2014-05-21_10-23-26_094959634447_rgbf002665-resize_2/003423_2014-05-21_10-23-26_094959634447_rgbf002665-resize_2-target.png,250,3.2575,3,3710,249,feet,jsons/v1_VE250_randls_26.json,877160,1983737,25,Man
141,527864,DepthScenes,duration_manipulation_targetAtFixation,jsons/v1_VE250_randls_26.json,http://54.235.29.9/FacialAge/BNav_EC2/DepthDuration/v2_depth_duration_MTurk/v2_DepthDuration_HTML.html#286,286,1366,625,1366,768,8-30-2022,10-28-27,142,depth_duration_stimuli/002988_2014-06-15_12-24-20_094959634447_rgbf000150-resize_1/002988_2014-06-15_12-24-20_094959634447_rgbf000150-resize_1-target.png,250,4.7669999999999995,4,4247,251,feet,jsons/v1_VE250_randls_26.json,877160,1983737,25,Man
142,527864,DepthScenes,duration_manipulation_targetAtFixation,jsons/v1_VE250_randls_26.json,http://54.235.29.9/FacialAge/BNav_EC2/DepthDuration/v2_depth_duration_MTurk/v2_DepthDuration_HTML.html#286,286,1366,625,1366,768,8-30-2022,10-28-27,143,depth_duration_stimuli/001052_2014-06-08_18-24-54_260595134347_rgbf000130-resize_1/001052_2014-06-08_18-24-54_260595134347_rgbf000130-resize_1-target.png,250,4.1045,3,3187,250,feet,jsons/v1_VE250_randls_26.json,877160,1983737,25,Man
143,527864,DepthScenes,duration_manipulation_targetAtFixation,jsons/v1_VE250_randls_26.json,http://54.235.29.9/FacialAge/BNav_EC2/DepthDuration/v2_depth_duration_MTurk/v2_DepthDuration_HTML.html#286,286,1366,625,1366,768,8-30-2022,10-28-27,144,depth_duration_stimuli/001164_2014-06-17_15-35-46_260595134347_rgbf000085-resize_3/001164_2014-06-17_15-35-46_260595134347_rgbf000085-resize_3-target.png,250,2.354,3,3002,251,feet,jsons/v1_VE250_randls_26.json,877160,1983737,25,Man
144,527864,DepthScenes,duration_manipulation_targetAtFixation,jsons/v1_VE250_randls_26.json,http://54.235.29.9/FacialAge/BNav_EC2/DepthDuration/v2_depth_duration_MTurk/v2_DepthDuration_HTML.html#286,286,1366,625,1366,768,8-30-2022,10-28-27,145,depth_duration_stimuli/001136_2014-06-17_15-19-41_260595134347_rgbf000076-resize_3/001136_2014-06-17_15-19-41_260595134347_rgbf000076-resize_3-target.png,250,1.8655,4,3450,250,feet,jsons/v1_VE250_randls_26.json,877160,1983737,25,Man
145,527864,DepthScenes,duration_manipulation_targetAtFixation,jsons/v1_VE250_randls_26.json,http://54.235.29.9/FacialAge/BNav_EC2/DepthDuration/v2_depth_duration_MTurk/v2_DepthDuration_HTML.html#286,286,1366,625,1366,768,8-30-2022,10-28-27,146,depth_duration_stimuli/001498_2014-06-19_17-45-14_260595134347_rgbf000129-resize_4/001498_2014-06-19_17-45-14_260595134347_rgbf000129-resize-original.jpg,250,1.4075,0,3282,249,feet,jsons/v1_VE250_randls_26.json,877160,1983737,25,Man
146,527864,DepthScenes,duration_manipulation_targetAtFixation,jsons/v1_VE250_randls_26.json,http://54.235.29.9/FacialAge/BNav_EC2/DepthDuration/v2_depth_duration_MTurk/v2_DepthDuration_HTML.html#286,286,1366,625,1366,768,8-30-2022,10-28-27,147,depth_duration_stimuli/002272_2014-06-28_18-53-56_260595134347_rgbf000067-resize_2/002272_2014-06-28_18-53-56_260595134347_rgbf000067-resize_2-target.png,250,1.138,3,6387,251,feet,jsons/v1_VE250_randls_26.json,877160,1983737,25,Man
147,527864,DepthScenes,duration_manipulation_targetAtFixation,jsons/v1_VE250_randls_26.json,http://54.235.29.9/FacialAge/BNav_EC2/DepthDuration/v2_depth_duration_MTurk/v2_DepthDuration_HTML.html#286,286,1366,625,1366,768,8-30-2022,10-28-27,148,depth_duration_stimuli/001571_2014-06-20_17-21-32_260595134347_rgbf000089-resize_1/001571_2014-06-20_17-21-32_260595134347_rgbf000089-resize_1-target.png,250,1.86,2,4167,251,feet,jsons/v1_VE250_randls_26.json,877160,1983737,25,Man
148,527864,DepthScenes,duration_manipulation_targetAtFixation,jsons/v1_VE250_randls_26.json,http://54.235.29.9/FacialAge/BNav_EC2/DepthDuration/v2_depth_duration_MTurk/v2_DepthDuration_HTML.html#286,286,1366,625,1366,768,8-30-2022,10-28-27,149,depth_duration_stimuli/000447_2014-06-08_16-15-46_260595134347_rgbf000130-resize_1/000447_2014-06-08_16-15-46_260595134347_rgbf000130-resize_1-target.png,250,4.479,3,3655,250,feet,jsons/v1_VE250_randls_26.json,877160,1983737,25,Man
149,527864,DepthScenes,duration_manipulation_targetAtFixation,jsons/v1_VE250_randls_26.json,http://54.235.29.9/FacialAge/BNav_EC2/DepthDuration/v2_depth_duration_MTurk/v2_DepthDuration_HTML.html#286,286,1366,625,1366,768,8-30-2022,10-28-27,150,depth_duration_stimuli/001447_2014-06-19_17-00-32_260595134347_rgbf000082-resize_5/001447_2014-06-19_17-00-32_260595134347_rgbf000082-resize_5-target.png,250,4.13775,3,4297,250,feet,jsons/v1_VE250_randls_26.json,877160,1983737,25,Man
150,527864,DepthScenes,duration_manipulation_targetAtFixation,jsons/v1_VE250_randls_26.json,http://54.235.29.9/FacialAge/BNav_EC2/DepthDuration/v2_depth_duration_MTurk/v2_DepthDuration_HTML.html#286,286,1366,625,1366,768,8-30-2022,10-28-27,151,depth_duration_stimuli/000758_2014-06-08_22-05-08_260595134347_rgbf000085-resize_0/000758_2014-06-08_22-05-08_260595134347_rgbf000085-resize_0-target.png,250,3.3810000000000002,4,4234,250,feet,jsons/v1_VE250_randls_26.json,877160,1983737,25,Man
151,527864,DepthScenes,duration_manipulation_targetAtFixation,jsons/v1_VE250_randls_26.json,http://54.235.29.9/FacialAge/BNav_EC2/DepthDuration/v2_depth_duration_MTurk/v2_DepthDuration_HTML.html#286,286,1366,625,1366,768,8-30-2022,10-28-27,152,depth_duration_stimuli/000854_2014-06-09_19-43-13_260595134347_rgbf000066-resize_0/000854_2014-06-09_19-43-13_260595134347_rgbf000066-resize_0-target.png,250,3.068,3,3426,251,feet,jsons/v1_VE250_randls_26.json,877160,1983737,25,Man
152,527864,DepthScenes,duration_manipulation_targetAtFixation,jsons/v1_VE250_randls_26.json,http://54.235.29.9/FacialAge/BNav_EC2/DepthDuration/v2_depth_duration_MTurk/v2_DepthDuration_HTML.html#286,286,1366,625,1366,768,8-30-2022,10-28-27,153,depth_duration_stimuli/002509_2014-06-24_13-19-22_094959634447_rgbf000077-resize_0/002509_2014-06-24_13-19-22_094959634447_rgbf000077-resize_0-target.png,250,1.3065,2,3595,251,feet,jsons/v1_VE250_randls_26.json,877160,1983737,25,Man
153,527864,DepthScenes,duration_manipulation_targetAtFixation,jsons/v1_VE250_randls_26.json,http://54.235.29.9/FacialAge/BNav_EC2/DepthDuration/v2_depth_duration_MTurk/v2_DepthDuration_HTML.html#286,286,1366,625,1366,768,8-30-2022,10-28-27,154,depth_duration_stimuli/003338_2014-05-20_11-01-23_094959634447_rgbf000051-resize_6/003338_2014-05-20_11-01-23_094959634447_rgbf000051-resize_6-target.png,250,1.693,3,3507,250,feet,jsons/v1_VE250_randls_26.json,877160,1983737,25,Man
154,527864,DepthScenes,duration_manipulation_targetAtFixation,jsons/v1_VE250_randls_26.json,http://54.235.29.9/FacialAge/BNav_EC2/DepthDuration/v2_depth_duration_MTurk/v2_DepthDuration_HTML.html#286,286,1366,625,1366,768,8-30-2022,10-28-27,155,depth_duration_stimuli/002279_2014-06-28_18-55-32_260595134347_rgbf000040-resize_5/002279_2014-06-28_18-55-32_260595134347_rgbf000040-resize_5-target.png,250,1.5043333333333,2,3620,249,feet,jsons/v1_VE250_randls_26.json,877160,1983737,25,Man
155,527864,DepthScenes,duration_manipulation_targetAtFixation,jsons/v1_VE250_randls_26.json,http://54.235.29.9/FacialAge/BNav_EC2/DepthDuration/v2_depth_duration_MTurk/v2_DepthDuration_HTML.html#286,286,1366,625,1366,768,8-30-2022,10-28-27,156,depth_duration_stimuli/000635_2014-06-08_16-38-42_260595134347_rgbf000106-resize_1/000635_2014-06-08_16-38-42_260595134347_rgbf000106-resize_1-target.png,250,2.074,3,3158,251,feet,jsons/v1_VE250_randls_26.json,877160,1983737,25,Man
156,527864,DepthScenes,duration_manipulation_targetAtFixation,jsons/v1_VE250_randls_26.json,http://54.235.29.9/FacialAge/BNav_EC2/DepthDuration/v2_depth_duration_MTurk/v2_DepthDuration_HTML.html#286,286,1366,625,1366,768,8-30-2022,10-28-27,157,depth_duration_stimuli/002039_2014-06-24_20-22-38_260595134347_rgbf000084-resize_1/002039_2014-06-24_20-22-38_260595134347_rgbf000084-resize_1-target.png,250,4.408,2,3504,252,feet,jsons/v1_VE250_randls_26.json,877160,1983737,25,Man
157,527864,DepthScenes,duration_manipulation_targetAtFixation,jsons/v1_VE250_randls_26.json,http://54.235.29.9/FacialAge/BNav_EC2/DepthDuration/v2_depth_duration_MTurk/v2_DepthDuration_HTML.html#286,286,1366,625,1366,768,8-30-2022,10-28-27,158,depth_duration_stimuli/002103_2014-06-25_20-00-40_260595134347_rgbf000049-resize_0/002103_2014-06-25_20-00-40_260595134347_rgbf000049-resize_0-target.png,250,4.105,3,3139,250,feet,jsons/v1_VE250_randls_26.json,877160,1983737,25,Man
158,527864,DepthScenes,duration_manipulation_targetAtFixation,jsons/v1_VE250_randls_26.json,http://54.235.29.9/FacialAge/BNav_EC2/DepthDuration/v2_depth_duration_MTurk/v2_DepthDuration_HTML.html#286,286,1366,625,1366,768,8-30-2022,10-28-27,159,depth_duration_stimuli/000009_2014-05-26_14-32-05_260595134347_rgbf000034-resize_3/000009_2014-05-26_14-32-05_260595134347_rgbf000034-resize_3-target.png,250,3.8715,3,4085,250,feet,jsons/v1_VE250_randls_26.json,877160,1983737,25,Man
159,527864,DepthScenes,duration_manipulation_targetAtFixation,jsons/v1_VE250_randls_26.json,http://54.235.29.9/FacialAge/BNav_EC2/DepthDuration/v2_depth_duration_MTurk/v2_DepthDuration_HTML.html#286,286,1366,625,1366,768,8-30-2022,10-28-27,160,depth_duration_stimuli/001828_2014-06-26_21-40-03_260595134347_rgbf000024-resize_0/001828_2014-06-26_21-40-03_260595134347_rgbf000024-resize_0-target.png,250,4.8260000000000005,2,3114,251,feet,jsons/v1_VE250_randls_26.json,877160,1983737,25,Man
160,527864,DepthScenes,duration_manipulation_targetAtFixation,jsons/v1_VE250_randls_26.json,http://54.235.29.9/FacialAge/BNav_EC2/DepthDuration/v2_depth_duration_MTurk/v2_DepthDuration_HTML.html#286,286,1366,625,1366,768,8-30-2022,10-28-27,161,depth_duration_stimuli/001016_2014-06-09_16-16-10_260595134347_rgbf000112-resize_5/001016_2014-06-09_16-16-10_260595134347_rgbf000112-resize_5-target.png,250,1.6565,3,3970,250,feet,jsons/v1_VE250_randls_26.json,877160,1983737,25,Man
161,527864,DepthScenes,duration_manipulation_targetAtFixation,jsons/v1_VE250_randls_26.json,http://54.235.29.9/FacialAge/BNav_EC2/DepthDuration/v2_depth_duration_MTurk/v2_DepthDuration_HTML.html#286,286,1366,625,1366,768,8-30-2022,10-28-27,162,depth_duration_stimuli/002340_2014-06-28_20-05-46_260595134347_rgbf000113-resize_0/002340_2014-06-28_20-05-46_260595134347_rgbf000113-resize_0-target.png,250,2.4735,3,3690,249,feet,jsons/v1_VE250_randls_26.json,877160,1983737,25,Man
162,527864,DepthScenes,duration_manipulation_targetAtFixation,jsons/v1_VE250_randls_26.json,http://54.235.29.9/FacialAge/BNav_EC2/DepthDuration/v2_depth_duration_MTurk/v2_DepthDuration_HTML.html#286,286,1366,625,1366,768,8-30-2022,10-28-27,163,depth_duration_stimuli/000917_2014-06-09_22-45-29_260595134347_rgbf000149-resize_3/000917_2014-06-09_22-45-29_260595134347_rgbf000149-resize_3-target.png,250,4.1865,3,3042,250,feet,jsons/v1_VE250_randls_26.json,877160,1983737,25,Man
163,527864,DepthScenes,duration_manipulation_targetAtFixation,jsons/v1_VE250_randls_26.json,http://54.235.29.9/FacialAge/BNav_EC2/DepthDuration/v2_depth_duration_MTurk/v2_DepthDuration_HTML.html#286,286,1366,625,1366,768,8-30-2022,10-28-27,164,depth_duration_stimuli/002323_2014-06-28_20-01-54_260595134347_rgbf000051-resize_4/002323_2014-06-28_20-01-54_260595134347_rgbf000051-resize_4-target.png,250,3.7310000000000003,2,3261,251,feet,jsons/v1_VE250_randls_26.json,877160,1983737,25,Man
