,subjID,experimentName,versionName,sequenceName,url,selected_row,windowWidth,windowHeight,screenWidth,screenHeight,startDate,startTime,trial,stimulus,duration,actual_depth,depth_estimate,trial_RT,log_sceneDuration,unitSelection,seq_filepath,experimentTime,totalTime,age,gender
0,529612,DepthScenes,duration_manipulation_targetAtFixation,jsons/VE125_randls_7.json,http://54.235.29.9/FacialAge/BNav_EC2/DepthDuration/v2_depth_duration_MTurk/v2_DepthDuration_HTML.html#26,26,1881,888,1920,1080,8-30-2022,8-2-57,1,depth_duration_stimuli/002445_2014-06-28_20-32-16_260595134347_rgbf000029-resize_4/002445_2014-06-28_20-32-16_260595134347_rgbf000029-resize_4-target.png,125,2.5315,6,4832,128,feet,jsons/VE125_randls_7.json,471409,725520,36,Man
1,529612,DepthScenes,duration_manipulation_targetAtFixation,jsons/VE125_randls_7.json,http://54.235.29.9/FacialAge/BNav_EC2/DepthDuration/v2_depth_duration_MTurk/v2_DepthDuration_HTML.html#26,26,1881,888,1920,1080,8-30-2022,8-2-57,2,depth_duration_stimuli/000780_2014-06-08_22-28-29_260595134347_rgbf000126-resize_1/000780_2014-06-08_22-28-29_260595134347_rgbf000126-resize_1-target.png,125,3.3825,7,4407,131,feet,jsons/VE125_randls_7.json,471409,725520,36,Man
2,529612,DepthScenes,duration_manipulation_targetAtFixation,jsons/VE125_randls_7.json,http://54.235.29.9/FacialAge/BNav_EC2/DepthDuration/v2_depth_duration_MTurk/v2_DepthDuration_HTML.html#26,26,1881,888,1920,1080,8-30-2022,8-2-57,3,depth_duration_stimuli/000009_2014-05-26_14-32-05_260595134347_rgbf000034-resize_3/000009_2014-05-26_14-32-05_260595134347_rgbf000034-resize_3-target.png,125,3.8715,12,3050,121,feet,jsons/VE125_randls_7.json,471409,725520,36,Man
3,529612,DepthScenes,duration_manipulation_targetAtFixation,jsons/VE125_randls_7.json,http://54.235.29.9/FacialAge/BNav_EC2/DepthDuration/v2_depth_duration_MTurk/v2_DepthDuration_HTML.html#26,26,1881,888,1920,1080,8-30-2022,8-2-57,4,depth_duration_stimuli/001828_2014-06-26_21-40-03_260595134347_rgbf000024-resize_0/001828_2014-06-26_21-40-03_260595134347_rgbf000024-resize_0-target.png,125,4.8260000000000005,10,5170,130,feet,jsons/VE125_randls_7.json,471409,725520,36,Man
4,529612,DepthScenes,duration_manipulation_targetAtFixation,jsons/VE125_randls_7.json,http://54.235.29.9/FacialAge/BNav_EC2/DepthDuration/v2_depth_duration_MTurk/v2_DepthDuration_HTML.html#26,26,1881,888,1920,1080,8-30-2022,8-2-57,5,depth_duration_stimuli/001810_2014-06-26_20-51-35_260595134347_rgbf000040-resize_3/001810_2014-06-26_20-51-35_260595134347_rgbf000040-resize_3-target.png,125,2.2525,4,2220,125,feet,jsons/VE125_randls_7.json,471409,725520,36,Man
5,529612,DepthScenes,duration_manipulation_targetAtFixation,jsons/VE125_randls_7.json,http://54.235.29.9/FacialAge/BNav_EC2/DepthDuration/v2_depth_duration_MTurk/v2_DepthDuration_HTML.html#26,26,1881,888,1920,1080,8-30-2022,8-2-57,6,depth_duration_stimuli/003010_2014-06-15_12-54-35_094959634447_rgbf000112-resize_0/003010_2014-06-15_12-54-35_094959634447_rgbf000112-resize_0-target.png,125,3.1185,6,2834,118,feet,jsons/VE125_randls_7.json,471409,725520,36,Man
6,529612,DepthScenes,duration_manipulation_targetAtFixation,jsons/VE125_randls_7.json,http://54.235.29.9/FacialAge/BNav_EC2/DepthDuration/v2_depth_duration_MTurk/v2_DepthDuration_HTML.html#26,26,1881,888,1920,1080,8-30-2022,8-2-57,7,depth_duration_stimuli/001059_2014-06-08_21-53-27_260595134347_rgbf000061-resize_4/001059_2014-06-08_21-53-27_260595134347_rgbf000061-resize_4-target.png,125,2.4185,6,2257,130,feet,jsons/VE125_randls_7.json,471409,725520,36,Man
7,529612,DepthScenes,duration_manipulation_targetAtFixation,jsons/VE125_randls_7.json,http://54.235.29.9/FacialAge/BNav_EC2/DepthDuration/v2_depth_duration_MTurk/v2_DepthDuration_HTML.html#26,26,1881,888,1920,1080,8-30-2022,8-2-57,8,depth_duration_stimuli/001032_2014-06-08_13-23-17_260595134347_rgbf000021-resize_3/001032_2014-06-08_13-23-17_260595134347_rgbf000021-resize_3-target.png,125,3.2725,6,2927,114,feet,jsons/VE125_randls_7.json,471409,725520,36,Man
8,529612,DepthScenes,duration_manipulation_targetAtFixation,jsons/VE125_randls_7.json,http://54.235.29.9/FacialAge/BNav_EC2/DepthDuration/v2_depth_duration_MTurk/v2_DepthDuration_HTML.html#26,26,1881,888,1920,1080,8-30-2022,8-2-57,9,depth_duration_stimuli/001806_2014-06-26_20-50-20_260595134347_rgbf000091-resize_1/001806_2014-06-26_20-50-20_260595134347_rgbf000091-resize_1-target.png,125,2.7305,4,2522,130,feet,jsons/VE125_randls_7.json,471409,725520,36,Man
9,529612,DepthScenes,duration_manipulation_targetAtFixation,jsons/VE125_randls_7.json,http://54.235.29.9/FacialAge/BNav_EC2/DepthDuration/v2_depth_duration_MTurk/v2_DepthDuration_HTML.html#26,26,1881,888,1920,1080,8-30-2022,8-2-57,10,depth_duration_stimuli/001617_2014-06-20_11-35-32_260595134347_rgbf000066-resize_1/001617_2014-06-20_11-35-32_260595134347_rgbf000066-resize_1-target.png,125,3.7910000000000004,10,2952,121,feet,jsons/VE125_randls_7.json,471409,725520,36,Man
10,529612,DepthScenes,duration_manipulation_targetAtFixation,jsons/VE125_randls_7.json,http://54.235.29.9/FacialAge/BNav_EC2/DepthDuration/v2_depth_duration_MTurk/v2_DepthDuration_HTML.html#26,26,1881,888,1920,1080,8-30-2022,8-2-57,11,depth_duration_stimuli/002118_2014-06-25_20-32-08_260595134347_rgbf000078-resize_1/002118_2014-06-25_20-32-08_260595134347_rgbf000078-resize_1-target.png,125,2.6460000000000004,5,2978,131,feet,jsons/VE125_randls_7.json,471409,725520,36,Man
11,529612,DepthScenes,duration_manipulation_targetAtFixation,jsons/VE125_randls_7.json,http://54.235.29.9/FacialAge/BNav_EC2/DepthDuration/v2_depth_duration_MTurk/v2_DepthDuration_HTML.html#26,26,1881,888,1920,1080,8-30-2022,8-2-57,12,depth_duration_stimuli/001516_2014-06-20_16-25-09_260595134347_rgbf000076-resize_2/001516_2014-06-20_16-25-09_260595134347_rgbf000076-resize_2-target.png,125,1.7445,4,2471,126,feet,jsons/VE125_randls_7.json,471409,725520,36,Man
12,529612,DepthScenes,duration_manipulation_targetAtFixation,jsons/VE125_randls_7.json,http://54.235.29.9/FacialAge/BNav_EC2/DepthDuration/v2_depth_duration_MTurk/v2_DepthDuration_HTML.html#26,26,1881,888,1920,1080,8-30-2022,8-2-57,13,depth_duration_stimuli/000569_2014-06-09_22-51-47_260595134347_rgbf000141-resize_3/000569_2014-06-09_22-51-47_260595134347_rgbf000141-resize-original.jpg,125,4.512,0,1872,121,feet,jsons/VE125_randls_7.json,471409,725520,36,Man
13,529612,DepthScenes,duration_manipulation_targetAtFixation,jsons/VE125_randls_7.json,http://54.235.29.9/FacialAge/BNav_EC2/DepthDuration/v2_depth_duration_MTurk/v2_DepthDuration_HTML.html#26,26,1881,888,1920,1080,8-30-2022,8-2-57,14,depth_duration_stimuli/002043_2014-06-24_20-29-38_260595134347_rgbf000039-resize_4/002043_2014-06-24_20-29-38_260595134347_rgbf000039-resize_4-target.png,125,2.8435,8,2320,127,feet,jsons/VE125_randls_7.json,471409,725520,36,Man
14,529612,DepthScenes,duration_manipulation_targetAtFixation,jsons/VE125_randls_7.json,http://54.235.29.9/FacialAge/BNav_EC2/DepthDuration/v2_depth_duration_MTurk/v2_DepthDuration_HTML.html#26,26,1881,888,1920,1080,8-30-2022,8-2-57,15,depth_duration_stimuli/003048_2014-06-15_13-49-43_094959634447_rgbf000150-resize_1/003048_2014-06-15_13-49-43_094959634447_rgbf000150-resize_1-target.png,125,4.0035,8,1812,111,feet,jsons/VE125_randls_7.json,471409,725520,36,Man
15,529612,DepthScenes,duration_manipulation_targetAtFixation,jsons/VE125_randls_7.json,http://54.235.29.9/FacialAge/BNav_EC2/DepthDuration/v2_depth_duration_MTurk/v2_DepthDuration_HTML.html#26,26,1881,888,1920,1080,8-30-2022,8-2-57,16,depth_duration_stimuli/003534_2014-05-22_15-06-10_094959634447_rgbf000102-resize_4/003534_2014-05-22_15-06-10_094959634447_rgbf000102-resize_4-target.png,125,1.426,4,1709,131,feet,jsons/VE125_randls_7.json,471409,725520,36,Man
16,529612,DepthScenes,duration_manipulation_targetAtFixation,jsons/VE125_randls_7.json,http://54.235.29.9/FacialAge/BNav_EC2/DepthDuration/v2_depth_duration_MTurk/v2_DepthDuration_HTML.html#26,26,1881,888,1920,1080,8-30-2022,8-2-57,17,depth_duration_stimuli/002637_2014-06-24_14-51-13_094959634447_rgbf000066-resize_4/002637_2014-06-24_14-51-13_094959634447_rgbf000066-resize_4-target.png,125,1.9955,6,2155,124,feet,jsons/VE125_randls_7.json,471409,725520,36,Man
17,529612,DepthScenes,duration_manipulation_targetAtFixation,jsons/VE125_randls_7.json,http://54.235.29.9/FacialAge/BNav_EC2/DepthDuration/v2_depth_duration_MTurk/v2_DepthDuration_HTML.html#26,26,1881,888,1920,1080,8-30-2022,8-2-57,18,depth_duration_stimuli/001808_2014-06-26_20-50-58_260595134347_rgbf000029-resize_1/001808_2014-06-26_20-50-58_260595134347_rgbf000029-resize_1-target.png,125,4.249,10,2810,139,feet,jsons/VE125_randls_7.json,471409,725520,36,Man
18,529612,DepthScenes,duration_manipulation_targetAtFixation,jsons/VE125_randls_7.json,http://54.235.29.9/FacialAge/BNav_EC2/DepthDuration/v2_depth_duration_MTurk/v2_DepthDuration_HTML.html#26,26,1881,888,1920,1080,8-30-2022,8-2-57,19,depth_duration_stimuli/001815_2014-06-26_20-52-55_260595134347_rgbf000020-resize_0/001815_2014-06-26_20-52-55_260595134347_rgbf000020-resize_0-target.png,125,3.3865,10,2218,127,feet,jsons/VE125_randls_7.json,471409,725520,36,Man
19,529612,DepthScenes,duration_manipulation_targetAtFixation,jsons/VE125_randls_7.json,http://54.235.29.9/FacialAge/BNav_EC2/DepthDuration/v2_depth_duration_MTurk/v2_DepthDuration_HTML.html#26,26,1881,888,1920,1080,8-30-2022,8-2-57,20,depth_duration_stimuli/000739_2014-06-08_18-45-58_260595134347_rgbf000068-resize_1/000739_2014-06-08_18-45-58_260595134347_rgbf000068-resize_1-target.png,125,3.534,7,2035,126,feet,jsons/VE125_randls_7.json,471409,725520,36,Man
20,529612,DepthScenes,duration_manipulation_targetAtFixation,jsons/VE125_randls_7.json,http://54.235.29.9/FacialAge/BNav_EC2/DepthDuration/v2_depth_duration_MTurk/v2_DepthDuration_HTML.html#26,26,1881,888,1920,1080,8-30-2022,8-2-57,21,depth_duration_stimuli/000734_2014-06-08_17-39-11_260595134347_rgbf000128-resize_2/000734_2014-06-08_17-39-11_260595134347_rgbf000128-resize_2-target.png,125,4.098,5,1987,125,feet,jsons/VE125_randls_7.json,471409,725520,36,Man
21,529612,DepthScenes,duration_manipulation_targetAtFixation,jsons/VE125_randls_7.json,http://54.235.29.9/FacialAge/BNav_EC2/DepthDuration/v2_depth_duration_MTurk/v2_DepthDuration_HTML.html#26,26,1881,888,1920,1080,8-30-2022,8-2-57,22,depth_duration_stimuli/000642_2014-06-08_16-59-25_260595134347_rgbf000098-resize_2/000642_2014-06-08_16-59-25_260595134347_rgbf000098-resize_2-target.png,125,2.8815,6,2139,124,feet,jsons/VE125_randls_7.json,471409,725520,36,Man
22,529612,DepthScenes,duration_manipulation_targetAtFixation,jsons/VE125_randls_7.json,http://54.235.29.9/FacialAge/BNav_EC2/DepthDuration/v2_depth_duration_MTurk/v2_DepthDuration_HTML.html#26,26,1881,888,1920,1080,8-30-2022,8-2-57,23,depth_duration_stimuli/002425_2014-06-28_20-27-29_260595134347_rgbf000031-resize_8/002425_2014-06-28_20-27-29_260595134347_rgbf000031-resize_8-target.png,125,3.8960000000000004,9,1935,137,feet,jsons/VE125_randls_7.json,471409,725520,36,Man
23,529612,DepthScenes,duration_manipulation_targetAtFixation,jsons/VE125_randls_7.json,http://54.235.29.9/FacialAge/BNav_EC2/DepthDuration/v2_depth_duration_MTurk/v2_DepthDuration_HTML.html#26,26,1881,888,1920,1080,8-30-2022,8-2-57,24,depth_duration_stimuli/001056_2014-06-08_18-46-44_260595134347_rgbf000068-resize_0/001056_2014-06-08_18-46-44_260595134347_rgbf000068-resize_0-target.png,125,2.6625,6,2189,122,feet,jsons/VE125_randls_7.json,471409,725520,36,Man
24,529612,DepthScenes,duration_manipulation_targetAtFixation,jsons/VE125_randls_7.json,http://54.235.29.9/FacialAge/BNav_EC2/DepthDuration/v2_depth_duration_MTurk/v2_DepthDuration_HTML.html#26,26,1881,888,1920,1080,8-30-2022,8-2-57,25,depth_duration_stimuli/002199_2014-06-28_18-33-56_260595134347_rgbf000074-resize_0/002199_2014-06-28_18-33-56_260595134347_rgbf000074-resize_0-target.png,125,1.996,3,2082,125,feet,jsons/VE125_randls_7.json,471409,725520,36,Man
25,529612,DepthScenes,duration_manipulation_targetAtFixation,jsons/VE125_randls_7.json,http://54.235.29.9/FacialAge/BNav_EC2/DepthDuration/v2_depth_duration_MTurk/v2_DepthDuration_HTML.html#26,26,1881,888,1920,1080,8-30-2022,8-2-57,26,depth_duration_stimuli/000368_2014-06-09_15-53-01_260595134347_rgbf000155-resize_2/000368_2014-06-09_15-53-01_260595134347_rgbf000155-resize_2-target.png,125,2.4859999999999998,5,2431,123,feet,jsons/VE125_randls_7.json,471409,725520,36,Man
26,529612,DepthScenes,duration_manipulation_targetAtFixation,jsons/VE125_randls_7.json,http://54.235.29.9/FacialAge/BNav_EC2/DepthDuration/v2_depth_duration_MTurk/v2_DepthDuration_HTML.html#26,26,1881,888,1920,1080,8-30-2022,8-2-57,27,depth_duration_stimuli/002678_2014-06-13_16-15-32_094959634447_rgbf000151-resize_6/002678_2014-06-13_16-15-32_094959634447_rgbf000151-resize_6-target.png,125,2.1830000000000003,7,2090,125,feet,jsons/VE125_randls_7.json,471409,725520,36,Man
27,529612,DepthScenes,duration_manipulation_targetAtFixation,jsons/VE125_randls_7.json,http://54.235.29.9/FacialAge/BNav_EC2/DepthDuration/v2_depth_duration_MTurk/v2_DepthDuration_HTML.html#26,26,1881,888,1920,1080,8-30-2022,8-2-57,28,depth_duration_stimuli/002272_2014-06-28_18-53-56_260595134347_rgbf000067-resize_2/002272_2014-06-28_18-53-56_260595134347_rgbf000067-resize_2-target.png,125,1.138,2,2604,118,feet,jsons/VE125_randls_7.json,471409,725520,36,Man
28,529612,DepthScenes,duration_manipulation_targetAtFixation,jsons/VE125_randls_7.json,http://54.235.29.9/FacialAge/BNav_EC2/DepthDuration/v2_depth_duration_MTurk/v2_DepthDuration_HTML.html#26,26,1881,888,1920,1080,8-30-2022,8-2-57,29,depth_duration_stimuli/001571_2014-06-20_17-21-32_260595134347_rgbf000089-resize_1/001571_2014-06-20_17-21-32_260595134347_rgbf000089-resize_1-target.png,125,1.86,3,1659,141,feet,jsons/VE125_randls_7.json,471409,725520,36,Man
29,529612,DepthScenes,duration_manipulation_targetAtFixation,jsons/VE125_randls_7.json,http://54.235.29.9/FacialAge/BNav_EC2/DepthDuration/v2_depth_duration_MTurk/v2_DepthDuration_HTML.html#26,26,1881,888,1920,1080,8-30-2022,8-2-57,30,depth_duration_stimuli/000375_2014-06-08_11-17-29_260595134347_rgbf000133-resize_2/000375_2014-06-08_11-17-29_260595134347_rgbf000133-resize-original.jpg,125,4.718,0,1779,124,feet,jsons/VE125_randls_7.json,471409,725520,36,Man
30,529612,DepthScenes,duration_manipulation_targetAtFixation,jsons/VE125_randls_7.json,http://54.235.29.9/FacialAge/BNav_EC2/DepthDuration/v2_depth_duration_MTurk/v2_DepthDuration_HTML.html#26,26,1881,888,1920,1080,8-30-2022,8-2-57,31,depth_duration_stimuli/002784_2014-06-22_19-26-30_094959634447_rgbf000083-resize_3/002784_2014-06-22_19-26-30_094959634447_rgbf000083-resize_3-target.png,125,1.8046666666667,3,4017,124,feet,jsons/VE125_randls_7.json,471409,725520,36,Man
31,529612,DepthScenes,duration_manipulation_targetAtFixation,jsons/VE125_randls_7.json,http://54.235.29.9/FacialAge/BNav_EC2/DepthDuration/v2_depth_duration_MTurk/v2_DepthDuration_HTML.html#26,26,1881,888,1920,1080,8-30-2022,8-2-57,32,depth_duration_stimuli/001100_2014-06-15_17-46-26_260595134347_rgbf000225-resize_2/001100_2014-06-15_17-46-26_260595134347_rgbf000225-resize_2-target.png,125,2.24,4,2194,139,feet,jsons/VE125_randls_7.json,471409,725520,36,Man
32,529612,DepthScenes,duration_manipulation_targetAtFixation,jsons/VE125_randls_7.json,http://54.235.29.9/FacialAge/BNav_EC2/DepthDuration/v2_depth_duration_MTurk/v2_DepthDuration_HTML.html#26,26,1881,888,1920,1080,8-30-2022,8-2-57,33,depth_duration_stimuli/000692_2014-06-08_13-09-42_260595134347_rgbf000199-resize_2/000692_2014-06-08_13-09-42_260595134347_rgbf000199-resize_2-target.png,125,3.661,6,2082,124,feet,jsons/VE125_randls_7.json,471409,725520,36,Man
33,529612,DepthScenes,duration_manipulation_targetAtFixation,jsons/VE125_randls_7.json,http://54.235.29.9/FacialAge/BNav_EC2/DepthDuration/v2_depth_duration_MTurk/v2_DepthDuration_HTML.html#26,26,1881,888,1920,1080,8-30-2022,8-2-57,34,depth_duration_stimuli/001094_2014-06-15_17-36-00_260595134347_rgbf000205-resize_0/001094_2014-06-15_17-36-00_260595134347_rgbf000205-resize_0-target.png,125,4.2175,8,2238,127,feet,jsons/VE125_randls_7.json,471409,725520,36,Man
34,529612,DepthScenes,duration_manipulation_targetAtFixation,jsons/VE125_randls_7.json,http://54.235.29.9/FacialAge/BNav_EC2/DepthDuration/v2_depth_duration_MTurk/v2_DepthDuration_HTML.html#26,26,1881,888,1920,1080,8-30-2022,8-2-57,35,depth_duration_stimuli/002570_2014-06-24_13-59-54_094959634447_rgbf000059-resize_0/002570_2014-06-24_13-59-54_094959634447_rgbf000059-resize_0-target.png,125,4.037,7,1850,124,feet,jsons/VE125_randls_7.json,471409,725520,36,Man
35,529612,DepthScenes,duration_manipulation_targetAtFixation,jsons/VE125_randls_7.json,http://54.235.29.9/FacialAge/BNav_EC2/DepthDuration/v2_depth_duration_MTurk/v2_DepthDuration_HTML.html#26,26,1881,888,1920,1080,8-30-2022,8-2-57,36,depth_duration_stimuli/002467_2014-06-28_20-38-07_260595134347_rgbf000026-resize_2/002467_2014-06-28_20-38-07_260595134347_rgbf000026-resize_2-target.png,125,4.742,10,2731,136,feet,jsons/VE125_randls_7.json,471409,725520,36,Man
36,529612,DepthScenes,duration_manipulation_targetAtFixation,jsons/VE125_randls_7.json,http://54.235.29.9/FacialAge/BNav_EC2/DepthDuration/v2_depth_duration_MTurk/v2_DepthDuration_HTML.html#26,26,1881,888,1920,1080,8-30-2022,8-2-57,37,depth_duration_stimuli/000522_2014-06-08_13-35-06_260595134347_rgbf000244-resize_1/000522_2014-06-08_13-35-06_260595134347_rgbf000244-resize_1-target.png,125,2.3715,3,2075,126,feet,jsons/VE125_randls_7.json,471409,725520,36,Man
37,529612,DepthScenes,duration_manipulation_targetAtFixation,jsons/VE125_randls_7.json,http://54.235.29.9/FacialAge/BNav_EC2/DepthDuration/v2_depth_duration_MTurk/v2_DepthDuration_HTML.html#26,26,1881,888,1920,1080,8-30-2022,8-2-57,38,depth_duration_stimuli/002949_2014-06-26_15-57-42_094959634447_rgbf000079-resize_1/002949_2014-06-26_15-57-42_094959634447_rgbf000079-resize_1-target.png,125,1.8915,4,2262,121,feet,jsons/VE125_randls_7.json,471409,725520,36,Man
38,529612,DepthScenes,duration_manipulation_targetAtFixation,jsons/VE125_randls_7.json,http://54.235.29.9/FacialAge/BNav_EC2/DepthDuration/v2_depth_duration_MTurk/v2_DepthDuration_HTML.html#26,26,1881,888,1920,1080,8-30-2022,8-2-57,39,depth_duration_stimuli/002748_2014-06-22_19-07-22_094959634447_rgbf000078-resize_1/002748_2014-06-22_19-07-22_094959634447_rgbf000078-resize_1-target.png,125,4.6705,12,2522,126,feet,jsons/VE125_randls_7.json,471409,725520,36,Man
39,529612,DepthScenes,duration_manipulation_targetAtFixation,jsons/VE125_randls_7.json,http://54.235.29.9/FacialAge/BNav_EC2/DepthDuration/v2_depth_duration_MTurk/v2_DepthDuration_HTML.html#26,26,1881,888,1920,1080,8-30-2022,8-2-57,40,depth_duration_stimuli/002995_2014-06-15_12-31-26_094959634447_rgbf000150-resize_1/002995_2014-06-15_12-31-26_094959634447_rgbf000150-resize_1-target.png,125,3.8360000000000003,8,2064,122,feet,jsons/VE125_randls_7.json,471409,725520,36,Man
40,529612,DepthScenes,duration_manipulation_targetAtFixation,jsons/VE125_randls_7.json,http://54.235.29.9/FacialAge/BNav_EC2/DepthDuration/v2_depth_duration_MTurk/v2_DepthDuration_HTML.html#26,26,1881,888,1920,1080,8-30-2022,8-2-57,41,depth_duration_stimuli/000758_2014-06-08_22-05-08_260595134347_rgbf000085-resize_0/000758_2014-06-08_22-05-08_260595134347_rgbf000085-resize_0-target.png,125,3.3810000000000002,12,2527,125,feet,jsons/VE125_randls_7.json,471409,725520,36,Man
41,529612,DepthScenes,duration_manipulation_targetAtFixation,jsons/VE125_randls_7.json,http://54.235.29.9/FacialAge/BNav_EC2/DepthDuration/v2_depth_duration_MTurk/v2_DepthDuration_HTML.html#26,26,1881,888,1920,1080,8-30-2022,8-2-57,42,depth_duration_stimuli/000854_2014-06-09_19-43-13_260595134347_rgbf000066-resize_0/000854_2014-06-09_19-43-13_260595134347_rgbf000066-resize_0-target.png,125,3.068,4,1798,117,feet,jsons/VE125_randls_7.json,471409,725520,36,Man
42,529612,DepthScenes,duration_manipulation_targetAtFixation,jsons/VE125_randls_7.json,http://54.235.29.9/FacialAge/BNav_EC2/DepthDuration/v2_depth_duration_MTurk/v2_DepthDuration_HTML.html#26,26,1881,888,1920,1080,8-30-2022,8-2-57,43,depth_duration_stimuli/001244_2014-06-17_16-47-45_260595134347_rgbf000030-resize_4/001244_2014-06-17_16-47-45_260595134347_rgbf000030-resize_4-target.png,125,2.0425,5,1802,124,feet,jsons/VE125_randls_7.json,471409,725520,36,Man
43,529612,DepthScenes,duration_manipulation_targetAtFixation,jsons/VE125_randls_7.json,http://54.235.29.9/FacialAge/BNav_EC2/DepthDuration/v2_depth_duration_MTurk/v2_DepthDuration_HTML.html#26,26,1881,888,1920,1080,8-30-2022,8-2-57,44,depth_duration_stimuli/003495_2014-05-21_16-01-51_094959634447_rgbf000100-resize_3/003495_2014-05-21_16-01-51_094959634447_rgbf000100-resize_3-target.png,125,1.6255,3,2110,120,feet,jsons/VE125_randls_7.json,471409,725520,36,Man
44,529612,DepthScenes,duration_manipulation_targetAtFixation,jsons/VE125_randls_7.json,http://54.235.29.9/FacialAge/BNav_EC2/DepthDuration/v2_depth_duration_MTurk/v2_DepthDuration_HTML.html#26,26,1881,888,1920,1080,8-30-2022,8-2-57,45,depth_duration_stimuli/000787_2014-06-08_22-33-53_260595134347_rgbf000175-resize_1/000787_2014-06-08_22-33-53_260595134347_rgbf000175-resize-original.jpg,125,4.784,0,1594,124,feet,jsons/VE125_randls_7.json,471409,725520,36,Man
45,529612,DepthScenes,duration_manipulation_targetAtFixation,jsons/VE125_randls_7.json,http://54.235.29.9/FacialAge/BNav_EC2/DepthDuration/v2_depth_duration_MTurk/v2_DepthDuration_HTML.html#26,26,1881,888,1920,1080,8-30-2022,8-2-57,46,depth_duration_stimuli/000436_2014-06-09_22-25-11_260595134347_rgbf000137-resize_1/000436_2014-06-09_22-25-11_260595134347_rgbf000137-resize_1-target.png,125,4.0705,8,1914,115,feet,jsons/VE125_randls_7.json,471409,725520,36,Man
46,529612,DepthScenes,duration_manipulation_targetAtFixation,jsons/VE125_randls_7.json,http://54.235.29.9/FacialAge/BNav_EC2/DepthDuration/v2_depth_duration_MTurk/v2_DepthDuration_HTML.html#26,26,1881,888,1920,1080,8-30-2022,8-2-57,47,depth_duration_stimuli/002444_2014-06-28_20-32-08_260595134347_rgbf000027-resize_0/002444_2014-06-28_20-32-08_260595134347_rgbf000027-resize_0-target.png,125,4.388999999999999,10,1872,115,feet,jsons/VE125_randls_7.json,471409,725520,36,Man
47,529612,DepthScenes,duration_manipulation_targetAtFixation,jsons/VE125_randls_7.json,http://54.235.29.9/FacialAge/BNav_EC2/DepthDuration/v2_depth_duration_MTurk/v2_DepthDuration_HTML.html#26,26,1881,888,1920,1080,8-30-2022,8-2-57,48,depth_duration_stimuli/001029_2014-06-08_13-17-57_260595134347_rgbf000065-resize_1/001029_2014-06-08_13-17-57_260595134347_rgbf000065-resize_1-target.png,125,3.0835,7,2223,123,feet,jsons/VE125_randls_7.json,471409,725520,36,Man
48,529612,DepthScenes,duration_manipulation_targetAtFixation,jsons/VE125_randls_7.json,http://54.235.29.9/FacialAge/BNav_EC2/DepthDuration/v2_depth_duration_MTurk/v2_DepthDuration_HTML.html#26,26,1881,888,1920,1080,8-30-2022,8-2-57,49,depth_duration_stimuli/000677_2014-06-08_23-10-32_260595134347_rgbf000158-resize_6/000677_2014-06-08_23-10-32_260595134347_rgbf000158-resize_6-target.png,125,3.556,8,1841,132,feet,jsons/VE125_randls_7.json,471409,725520,36,Man
49,529612,DepthScenes,duration_manipulation_targetAtFixation,jsons/VE125_randls_7.json,http://54.235.29.9/FacialAge/BNav_EC2/DepthDuration/v2_depth_duration_MTurk/v2_DepthDuration_HTML.html#26,26,1881,888,1920,1080,8-30-2022,8-2-57,50,depth_duration_stimuli/000447_2014-06-08_16-15-46_260595134347_rgbf000130-resize_1/000447_2014-06-08_16-15-46_260595134347_rgbf000130-resize_1-target.png,125,4.479,10,1963,128,feet,jsons/VE125_randls_7.json,471409,725520,36,Man
50,529612,DepthScenes,duration_manipulation_targetAtFixation,jsons/VE125_randls_7.json,http://54.235.29.9/FacialAge/BNav_EC2/DepthDuration/v2_depth_duration_MTurk/v2_DepthDuration_HTML.html#26,26,1881,888,1920,1080,8-30-2022,8-2-57,51,depth_duration_stimuli/001447_2014-06-19_17-00-32_260595134347_rgbf000082-resize_5/001447_2014-06-19_17-00-32_260595134347_rgbf000082-resize_5-target.png,125,4.13775,6,3232,126,feet,jsons/VE125_randls_7.json,471409,725520,36,Man
51,529612,DepthScenes,duration_manipulation_targetAtFixation,jsons/VE125_randls_7.json,http://54.235.29.9/FacialAge/BNav_EC2/DepthDuration/v2_depth_duration_MTurk/v2_DepthDuration_HTML.html#26,26,1881,888,1920,1080,8-30-2022,8-2-57,52,depth_duration_stimuli/002213_2014-06-28_18-37-58_260595134347_rgbf000055-resize_1/002213_2014-06-28_18-37-58_260595134347_rgbf000055-resize_1-target.png,125,3.62,10,2661,116,feet,jsons/VE125_randls_7.json,471409,725520,36,Man
52,529612,DepthScenes,duration_manipulation_targetAtFixation,jsons/VE125_randls_7.json,http://54.235.29.9/FacialAge/BNav_EC2/DepthDuration/v2_depth_duration_MTurk/v2_DepthDuration_HTML.html#26,26,1881,888,1920,1080,8-30-2022,8-2-57,53,depth_duration_stimuli/000691_2014-06-08_13-08-50_260595134347_rgbf000132-resize_3/000691_2014-06-08_13-08-50_260595134347_rgbf000132-resize_3-target.png,125,4.1530000000000005,9,2788,140,feet,jsons/VE125_randls_7.json,471409,725520,36,Man
53,529612,DepthScenes,duration_manipulation_targetAtFixation,jsons/VE125_randls_7.json,http://54.235.29.9/FacialAge/BNav_EC2/DepthDuration/v2_depth_duration_MTurk/v2_DepthDuration_HTML.html#26,26,1881,888,1920,1080,8-30-2022,8-2-57,54,depth_duration_stimuli/001092_2014-06-15_17-34-58_260595134347_rgbf000171-resize_3/001092_2014-06-15_17-34-58_260595134347_rgbf000171-resize_3-target.png,125,2.6935,5,1998,120,feet,jsons/VE125_randls_7.json,471409,725520,36,Man
54,529612,DepthScenes,duration_manipulation_targetAtFixation,jsons/VE125_randls_7.json,http://54.235.29.9/FacialAge/BNav_EC2/DepthDuration/v2_depth_duration_MTurk/v2_DepthDuration_HTML.html#26,26,1881,888,1920,1080,8-30-2022,8-2-57,55,depth_duration_stimuli/002545_2014-06-24_13-38-53_094959634447_rgbf000080-resize_4/002545_2014-06-24_13-38-53_094959634447_rgbf000080-resize_4-target.png,125,1.9205,6,2067,115,feet,jsons/VE125_randls_7.json,471409,725520,36,Man
55,529612,DepthScenes,duration_manipulation_targetAtFixation,jsons/VE125_randls_7.json,http://54.235.29.9/FacialAge/BNav_EC2/DepthDuration/v2_depth_duration_MTurk/v2_DepthDuration_HTML.html#26,26,1881,888,1920,1080,8-30-2022,8-2-57,56,depth_duration_stimuli/001175_2014-06-17_15-45-55_260595134347_rgbf000129-resize_4/001175_2014-06-17_15-45-55_260595134347_rgbf000129-resize_4-target.png,125,4.255,12,2348,125,feet,jsons/VE125_randls_7.json,471409,725520,36,Man
56,529612,DepthScenes,duration_manipulation_targetAtFixation,jsons/VE125_randls_7.json,http://54.235.29.9/FacialAge/BNav_EC2/DepthDuration/v2_depth_duration_MTurk/v2_DepthDuration_HTML.html#26,26,1881,888,1920,1080,8-30-2022,8-2-57,57,depth_duration_stimuli/003490_2014-05-21_15-50-11_094959634447_rgbf000101-resize_3/003490_2014-05-21_15-50-11_094959634447_rgbf000101-resize_3-target.png,125,3.6445,8,2331,125,feet,jsons/VE125_randls_7.json,471409,725520,36,Man
57,529612,DepthScenes,duration_manipulation_targetAtFixation,jsons/VE125_randls_7.json,http://54.235.29.9/FacialAge/BNav_EC2/DepthDuration/v2_depth_duration_MTurk/v2_DepthDuration_HTML.html#26,26,1881,888,1920,1080,8-30-2022,8-2-57,58,depth_duration_stimuli/001158_2014-06-17_15-32-16_260595134347_rgbf000138-resize_2/001158_2014-06-17_15-32-16_260595134347_rgbf000138-resize_2-target.png,125,4.5315,14,2810,119,feet,jsons/VE125_randls_7.json,471409,725520,36,Man
58,529612,DepthScenes,duration_manipulation_targetAtFixation,jsons/VE125_randls_7.json,http://54.235.29.9/FacialAge/BNav_EC2/DepthDuration/v2_depth_duration_MTurk/v2_DepthDuration_HTML.html#26,26,1881,888,1920,1080,8-30-2022,8-2-57,59,depth_duration_stimuli/000556_2014-06-09_22-42-56_260595134347_rgbf000214-resize_1/000556_2014-06-09_22-42-56_260595134347_rgbf000214-resize_1-target.png,125,4.8415,10,3108,125,feet,jsons/VE125_randls_7.json,471409,725520,36,Man
59,529612,DepthScenes,duration_manipulation_targetAtFixation,jsons/VE125_randls_7.json,http://54.235.29.9/FacialAge/BNav_EC2/DepthDuration/v2_depth_duration_MTurk/v2_DepthDuration_HTML.html#26,26,1881,888,1920,1080,8-30-2022,8-2-57,60,depth_duration_stimuli/000470_2014-06-09_19-42-40_260595134347_rgbf000094-resize_1/000470_2014-06-09_19-42-40_260595134347_rgbf000094-resize_1-target.png,125,1.831,5,2171,125,feet,jsons/VE125_randls_7.json,471409,725520,36,Man
60,529612,DepthScenes,duration_manipulation_targetAtFixation,jsons/VE125_randls_7.json,http://54.235.29.9/FacialAge/BNav_EC2/DepthDuration/v2_depth_duration_MTurk/v2_DepthDuration_HTML.html#26,26,1881,888,1920,1080,8-30-2022,8-2-57,61,depth_duration_stimuli/000109_2014-05-14_23-41-52_260595134347_rgbf000035-resize_9/000109_2014-05-14_23-41-52_260595134347_rgbf000035-resize_9-target.png,125,1.3545,3,2691,132,feet,jsons/VE125_randls_7.json,471409,725520,36,Man
61,529612,DepthScenes,duration_manipulation_targetAtFixation,jsons/VE125_randls_7.json,http://54.235.29.9/FacialAge/BNav_EC2/DepthDuration/v2_depth_duration_MTurk/v2_DepthDuration_HTML.html#26,26,1881,888,1920,1080,8-30-2022,8-2-57,62,depth_duration_stimuli/000878_2014-06-08_22-52-45_260595134347_rgbf000045-resize_2/000878_2014-06-08_22-52-45_260595134347_rgbf000045-resize_2-target.png,125,2.092,6,2322,129,feet,jsons/VE125_randls_7.json,471409,725520,36,Man
62,529612,DepthScenes,duration_manipulation_targetAtFixation,jsons/VE125_randls_7.json,http://54.235.29.9/FacialAge/BNav_EC2/DepthDuration/v2_depth_duration_MTurk/v2_DepthDuration_HTML.html#26,26,1881,888,1920,1080,8-30-2022,8-2-57,63,depth_duration_stimuli/002953_2014-06-08_17-32-18_094959634447_rgbf000059-resize_5/002953_2014-06-08_17-32-18_094959634447_rgbf000059-resize_5-target.png,125,1.551,3,2027,126,feet,jsons/VE125_randls_7.json,471409,725520,36,Man
63,529612,DepthScenes,duration_manipulation_targetAtFixation,jsons/VE125_randls_7.json,http://54.235.29.9/FacialAge/BNav_EC2/DepthDuration/v2_depth_duration_MTurk/v2_DepthDuration_HTML.html#26,26,1881,888,1920,1080,8-30-2022,8-2-57,64,depth_duration_stimuli/002600_2014-06-24_14-27-04_094959634447_rgbf000074-resize_2/002600_2014-06-24_14-27-04_094959634447_rgbf000074-resize_2-target.png,125,2.7575,8,2594,123,feet,jsons/VE125_randls_7.json,471409,725520,36,Man
64,529612,DepthScenes,duration_manipulation_targetAtFixation,jsons/VE125_randls_7.json,http://54.235.29.9/FacialAge/BNav_EC2/DepthDuration/v2_depth_duration_MTurk/v2_DepthDuration_HTML.html#26,26,1881,888,1920,1080,8-30-2022,8-2-57,65,depth_duration_stimuli/003228_2014-05-14_13-42-35_094959634447_rgbf000101-resize_1/003228_2014-05-14_13-42-35_094959634447_rgbf000101-resize_1-target.png,125,1.9680000000000002,4,1572,124,feet,jsons/VE125_randls_7.json,471409,725520,36,Man
65,529612,DepthScenes,duration_manipulation_targetAtFixation,jsons/VE125_randls_7.json,http://54.235.29.9/FacialAge/BNav_EC2/DepthDuration/v2_depth_duration_MTurk/v2_DepthDuration_HTML.html#26,26,1881,888,1920,1080,8-30-2022,8-2-57,66,depth_duration_stimuli/001222_2014-06-17_16-24-06_260595134347_rgbf000073-resize_0/001222_2014-06-17_16-24-06_260595134347_rgbf000073-resize-original.jpg,125,1.4385,0,1871,134,feet,jsons/VE125_randls_7.json,471409,725520,36,Man
66,529612,DepthScenes,duration_manipulation_targetAtFixation,jsons/VE125_randls_7.json,http://54.235.29.9/FacialAge/BNav_EC2/DepthDuration/v2_depth_duration_MTurk/v2_DepthDuration_HTML.html#26,26,1881,888,1920,1080,8-30-2022,8-2-57,67,depth_duration_stimuli/002988_2014-06-15_12-24-20_094959634447_rgbf000150-resize_1/002988_2014-06-15_12-24-20_094959634447_rgbf000150-resize_1-target.png,125,4.7669999999999995,12,2260,129,feet,jsons/VE125_randls_7.json,471409,725520,36,Man
67,529612,DepthScenes,duration_manipulation_targetAtFixation,jsons/VE125_randls_7.json,http://54.235.29.9/FacialAge/BNav_EC2/DepthDuration/v2_depth_duration_MTurk/v2_DepthDuration_HTML.html#26,26,1881,888,1920,1080,8-30-2022,8-2-57,68,depth_duration_stimuli/001052_2014-06-08_18-24-54_260595134347_rgbf000130-resize_1/001052_2014-06-08_18-24-54_260595134347_rgbf000130-resize_1-target.png,125,4.1045,10,3451,125,feet,jsons/VE125_randls_7.json,471409,725520,36,Man
68,529612,DepthScenes,duration_manipulation_targetAtFixation,jsons/VE125_randls_7.json,http://54.235.29.9/FacialAge/BNav_EC2/DepthDuration/v2_depth_duration_MTurk/v2_DepthDuration_HTML.html#26,26,1881,888,1920,1080,8-30-2022,8-2-57,69,depth_duration_stimuli/000906_2014-06-08_13-35-43_260595134347_rgbf000155-resize_1/000906_2014-06-08_13-35-43_260595134347_rgbf000155-resize_1-target.png,125,2.8489999999999998,12,2379,125,feet,jsons/VE125_randls_7.json,471409,725520,36,Man
69,529612,DepthScenes,duration_manipulation_targetAtFixation,jsons/VE125_randls_7.json,http://54.235.29.9/FacialAge/BNav_EC2/DepthDuration/v2_depth_duration_MTurk/v2_DepthDuration_HTML.html#26,26,1881,888,1920,1080,8-30-2022,8-2-57,70,depth_duration_stimuli/002805_2014-06-22_19-54-03_094959634447_rgbf000079-resize_1/002805_2014-06-22_19-54-03_094959634447_rgbf000079-resize_1-target.png,125,3.1439999999999997,11,4309,117,feet,jsons/VE125_randls_7.json,471409,725520,36,Man
70,529612,DepthScenes,duration_manipulation_targetAtFixation,jsons/VE125_randls_7.json,http://54.235.29.9/FacialAge/BNav_EC2/DepthDuration/v2_depth_duration_MTurk/v2_DepthDuration_HTML.html#26,26,1881,888,1920,1080,8-30-2022,8-2-57,71,depth_duration_stimuli/002989_2014-06-15_12-25-03_094959634447_rgbf000150-resize_3/002989_2014-06-15_12-25-03_094959634447_rgbf000150-resize_3-target.png,125,4.1975,13,2917,111,feet,jsons/VE125_randls_7.json,471409,725520,36,Man
71,529612,DepthScenes,duration_manipulation_targetAtFixation,jsons/VE125_randls_7.json,http://54.235.29.9/FacialAge/BNav_EC2/DepthDuration/v2_depth_duration_MTurk/v2_DepthDuration_HTML.html#26,26,1881,888,1920,1080,8-30-2022,8-2-57,72,depth_duration_stimuli/000866_2014-06-09_20-45-42_260595134347_rgbf000139-resize_1/000866_2014-06-09_20-45-42_260595134347_rgbf000139-resize_1-target.png,125,3.2155,7,2254,117,feet,jsons/VE125_randls_7.json,471409,725520,36,Man
72,529612,DepthScenes,duration_manipulation_targetAtFixation,jsons/VE125_randls_7.json,http://54.235.29.9/FacialAge/BNav_EC2/DepthDuration/v2_depth_duration_MTurk/v2_DepthDuration_HTML.html#26,26,1881,888,1920,1080,8-30-2022,8-2-57,73,depth_duration_stimuli/002279_2014-06-28_18-55-32_260595134347_rgbf000040-resize_5/002279_2014-06-28_18-55-32_260595134347_rgbf000040-resize_5-target.png,125,1.5043333333333,4,2091,118,feet,jsons/VE125_randls_7.json,471409,725520,36,Man
73,529612,DepthScenes,duration_manipulation_targetAtFixation,jsons/VE125_randls_7.json,http://54.235.29.9/FacialAge/BNav_EC2/DepthDuration/v2_depth_duration_MTurk/v2_DepthDuration_HTML.html#26,26,1881,888,1920,1080,8-30-2022,8-2-57,74,depth_duration_stimuli/000635_2014-06-08_16-38-42_260595134347_rgbf000106-resize_1/000635_2014-06-08_16-38-42_260595134347_rgbf000106-resize_1-target.png,125,2.074,8,2048,120,feet,jsons/VE125_randls_7.json,471409,725520,36,Man
74,529612,DepthScenes,duration_manipulation_targetAtFixation,jsons/VE125_randls_7.json,http://54.235.29.9/FacialAge/BNav_EC2/DepthDuration/v2_depth_duration_MTurk/v2_DepthDuration_HTML.html#26,26,1881,888,1920,1080,8-30-2022,8-2-57,75,depth_duration_stimuli/000736_2014-06-08_18-24-15_260595134347_rgbf000206-resize_3/000736_2014-06-08_18-24-15_260595134347_rgbf000206-resize_3-target.png,125,3.515,7,2379,125,feet,jsons/VE125_randls_7.json,471409,725520,36,Man
75,529612,DepthScenes,duration_manipulation_targetAtFixation,jsons/VE125_randls_7.json,http://54.235.29.9/FacialAge/BNav_EC2/DepthDuration/v2_depth_duration_MTurk/v2_DepthDuration_HTML.html#26,26,1881,888,1920,1080,8-30-2022,8-2-57,76,depth_duration_stimuli/000137_2014-05-20_17-04-49_260595134347_rgbf000120-resize_1/000137_2014-05-20_17-04-49_260595134347_rgbf000120-resize_1-target.png,125,3.786,9,2247,116,feet,jsons/VE125_randls_7.json,471409,725520,36,Man
76,529612,DepthScenes,duration_manipulation_targetAtFixation,jsons/VE125_randls_7.json,http://54.235.29.9/FacialAge/BNav_EC2/DepthDuration/v2_depth_duration_MTurk/v2_DepthDuration_HTML.html#26,26,1881,888,1920,1080,8-30-2022,8-2-57,77,depth_duration_stimuli/000486_2014-06-09_20-47-20_260595134347_rgbf000143-resize_2/000486_2014-06-09_20-47-20_260595134347_rgbf000143-resize_2-target.png,125,4.8325,10,2222,112,feet,jsons/VE125_randls_7.json,471409,725520,36,Man
77,529612,DepthScenes,duration_manipulation_targetAtFixation,jsons/VE125_randls_7.json,http://54.235.29.9/FacialAge/BNav_EC2/DepthDuration/v2_depth_duration_MTurk/v2_DepthDuration_HTML.html#26,26,1881,888,1920,1080,8-30-2022,8-2-57,78,depth_duration_stimuli/003083_2014-06-15_15-21-03_094959634447_rgbf000063-resize_1/003083_2014-06-15_15-21-03_094959634447_rgbf000063-resize_1-target.png,125,4.1405,8,2027,133,feet,jsons/VE125_randls_7.json,471409,725520,36,Man
78,529612,DepthScenes,duration_manipulation_targetAtFixation,jsons/VE125_randls_7.json,http://54.235.29.9/FacialAge/BNav_EC2/DepthDuration/v2_depth_duration_MTurk/v2_DepthDuration_HTML.html#26,26,1881,888,1920,1080,8-30-2022,8-2-57,79,depth_duration_stimuli/002763_2014-06-22_19-13-10_094959634447_rgbf000075-resize_4/002763_2014-06-22_19-13-10_094959634447_rgbf000075-resize_4-target.png,125,1.68375,4,1907,123,feet,jsons/VE125_randls_7.json,471409,725520,36,Man
79,529612,DepthScenes,duration_manipulation_targetAtFixation,jsons/VE125_randls_7.json,http://54.235.29.9/FacialAge/BNav_EC2/DepthDuration/v2_depth_duration_MTurk/v2_DepthDuration_HTML.html#26,26,1881,888,1920,1080,8-30-2022,8-2-57,80,depth_duration_stimuli/002209_2014-06-28_18-36-10_260595134347_rgbf000051-resize_1/002209_2014-06-28_18-36-10_260595134347_rgbf000051-resize_1-target.png,125,2.057,4,1739,136,feet,jsons/VE125_randls_7.json,471409,725520,36,Man
80,529612,DepthScenes,duration_manipulation_targetAtFixation,jsons/VE125_randls_7.json,http://54.235.29.9/FacialAge/BNav_EC2/DepthDuration/v2_depth_duration_MTurk/v2_DepthDuration_HTML.html#26,26,1881,888,1920,1080,8-30-2022,8-2-57,81,depth_duration_stimuli/002549_2014-06-24_13-41-39_094959634447_rgbf000022-resize_3/002549_2014-06-24_13-41-39_094959634447_rgbf000022-resize_3-target.png,125,1.476,5,1764,134,feet,jsons/VE125_randls_7.json,471409,725520,36,Man
81,529612,DepthScenes,duration_manipulation_targetAtFixation,jsons/VE125_randls_7.json,http://54.235.29.9/FacialAge/BNav_EC2/DepthDuration/v2_depth_duration_MTurk/v2_DepthDuration_HTML.html#26,26,1881,888,1920,1080,8-30-2022,8-2-57,82,depth_duration_stimuli/002750_2014-06-22_19-08-03_094959634447_rgbf000094-resize_4/002750_2014-06-22_19-08-03_094959634447_rgbf000094-resize_4-target.png,125,2.354,10,2235,124,feet,jsons/VE125_randls_7.json,471409,725520,36,Man
82,529612,DepthScenes,duration_manipulation_targetAtFixation,jsons/VE125_randls_7.json,http://54.235.29.9/FacialAge/BNav_EC2/DepthDuration/v2_depth_duration_MTurk/v2_DepthDuration_HTML.html#26,26,1881,888,1920,1080,8-30-2022,8-2-57,83,depth_duration_stimuli/002153_2014-06-25_21-27-18_260595134347_rgbf000038-resize_5/002153_2014-06-25_21-27-18_260595134347_rgbf000038-resize_5-target.png,125,2.505,9,2212,137,feet,jsons/VE125_randls_7.json,471409,725520,36,Man
83,529612,DepthScenes,duration_manipulation_targetAtFixation,jsons/VE125_randls_7.json,http://54.235.29.9/FacialAge/BNav_EC2/DepthDuration/v2_depth_duration_MTurk/v2_DepthDuration_HTML.html#26,26,1881,888,1920,1080,8-30-2022,8-2-57,84,depth_duration_stimuli/002660_2014-06-13_15-44-18_094959634447_rgbf001878-resize_2/002660_2014-06-13_15-44-18_094959634447_rgbf001878-resize_2-target.png,125,3.576,11,2268,129,feet,jsons/VE125_randls_7.json,471409,725520,36,Man
84,529612,DepthScenes,duration_manipulation_targetAtFixation,jsons/VE125_randls_7.json,http://54.235.29.9/FacialAge/BNav_EC2/DepthDuration/v2_depth_duration_MTurk/v2_DepthDuration_HTML.html#26,26,1881,888,1920,1080,8-30-2022,8-2-57,85,depth_duration_stimuli/003492_2014-05-21_15-50-55_094959634447_rgbf000828-resize_1/003492_2014-05-21_15-50-55_094959634447_rgbf000828-resize_1-target.png,125,4.06875,15,3713,123,feet,jsons/VE125_randls_7.json,471409,725520,36,Man
85,529612,DepthScenes,duration_manipulation_targetAtFixation,jsons/VE125_randls_7.json,http://54.235.29.9/FacialAge/BNav_EC2/DepthDuration/v2_depth_duration_MTurk/v2_DepthDuration_HTML.html#26,26,1881,888,1920,1080,8-30-2022,8-2-57,86,depth_duration_stimuli/002568_2014-06-24_13-59-21_094959634447_rgbf000062-resize_4/002568_2014-06-24_13-59-21_094959634447_rgbf000062-resize_4-target.png,125,3.015,9,2211,137,feet,jsons/VE125_randls_7.json,471409,725520,36,Man
86,529612,DepthScenes,duration_manipulation_targetAtFixation,jsons/VE125_randls_7.json,http://54.235.29.9/FacialAge/BNav_EC2/DepthDuration/v2_depth_duration_MTurk/v2_DepthDuration_HTML.html#26,26,1881,888,1920,1080,8-30-2022,8-2-57,87,depth_duration_stimuli/000929_2014-06-09_16-33-19_260595134347_rgbf000139-resize_0/000929_2014-06-09_16-33-19_260595134347_rgbf000139-resize_0-target.png,125,2.8680000000000003,8,2090,123,feet,jsons/VE125_randls_7.json,471409,725520,36,Man
87,529612,DepthScenes,duration_manipulation_targetAtFixation,jsons/VE125_randls_7.json,http://54.235.29.9/FacialAge/BNav_EC2/DepthDuration/v2_depth_duration_MTurk/v2_DepthDuration_HTML.html#26,26,1881,888,1920,1080,8-30-2022,8-2-57,88,depth_duration_stimuli/000457_2014-06-08_16-52-43_260595134347_rgbf000199-resize_1/000457_2014-06-08_16-52-43_260595134347_rgbf000199-resize_1-target.png,125,3.6489999999999996,10,1848,121,feet,jsons/VE125_randls_7.json,471409,725520,36,Man
88,529612,DepthScenes,duration_manipulation_targetAtFixation,jsons/VE125_randls_7.json,http://54.235.29.9/FacialAge/BNav_EC2/DepthDuration/v2_depth_duration_MTurk/v2_DepthDuration_HTML.html#26,26,1881,888,1920,1080,8-30-2022,8-2-57,89,depth_duration_stimuli/002630_2014-06-24_14-47-50_094959634447_rgbf000055-resize_1/002630_2014-06-24_14-47-50_094959634447_rgbf000055-resize_1-target.png,125,3.0095,14,2892,125,feet,jsons/VE125_randls_7.json,471409,725520,36,Man
89,529612,DepthScenes,duration_manipulation_targetAtFixation,jsons/VE125_randls_7.json,http://54.235.29.9/FacialAge/BNav_EC2/DepthDuration/v2_depth_duration_MTurk/v2_DepthDuration_HTML.html#26,26,1881,888,1920,1080,8-30-2022,8-2-57,90,depth_duration_stimuli/002758_2014-06-22_19-11-20_094959634447_rgbf000128-resize_1/002758_2014-06-22_19-11-20_094959634447_rgbf000128-resize_1-target.png,125,2.555,6,2043,123,feet,jsons/VE125_randls_7.json,471409,725520,36,Man
90,529612,DepthScenes,duration_manipulation_targetAtFixation,jsons/VE125_randls_7.json,http://54.235.29.9/FacialAge/BNav_EC2/DepthDuration/v2_depth_duration_MTurk/v2_DepthDuration_HTML.html#26,26,1881,888,1920,1080,8-30-2022,8-2-57,91,depth_duration_stimuli/000810_2014-06-08_17-20-01_260595134347_rgbf000105-resize_0/000810_2014-06-08_17-20-01_260595134347_rgbf000105-resize_0-target.png,125,1.4865,4,2082,116,feet,jsons/VE125_randls_7.json,471409,725520,36,Man
91,529612,DepthScenes,duration_manipulation_targetAtFixation,jsons/VE125_randls_7.json,http://54.235.29.9/FacialAge/BNav_EC2/DepthDuration/v2_depth_duration_MTurk/v2_DepthDuration_HTML.html#26,26,1881,888,1920,1080,8-30-2022,8-2-57,92,depth_duration_stimuli/001214_2014-06-17_16-13-55_260595134347_rgbf000111-resize_0/001214_2014-06-17_16-13-55_260595134347_rgbf000111-resize_0-target.png,125,2.6505,5,1683,124,feet,jsons/VE125_randls_7.json,471409,725520,36,Man
92,529612,DepthScenes,duration_manipulation_targetAtFixation,jsons/VE125_randls_7.json,http://54.235.29.9/FacialAge/BNav_EC2/DepthDuration/v2_depth_duration_MTurk/v2_DepthDuration_HTML.html#26,26,1881,888,1920,1080,8-30-2022,8-2-57,93,depth_duration_stimuli/001133_2014-06-17_14-49-16_260595134347_rgbf000100-resize_0/001133_2014-06-17_14-49-16_260595134347_rgbf000100-resize_0-target.png,125,4.2115,10,2227,137,feet,jsons/VE125_randls_7.json,471409,725520,36,Man
93,529612,DepthScenes,duration_manipulation_targetAtFixation,jsons/VE125_randls_7.json,http://54.235.29.9/FacialAge/BNav_EC2/DepthDuration/v2_depth_duration_MTurk/v2_DepthDuration_HTML.html#26,26,1881,888,1920,1080,8-30-2022,8-2-57,94,depth_duration_stimuli/001132_2014-06-17_14-48-54_260595134347_rgbf000100-resize_2/001132_2014-06-17_14-48-54_260595134347_rgbf000100-resize_2-target.png,125,3.753,9,2615,124,feet,jsons/VE125_randls_7.json,471409,725520,36,Man
94,529612,DepthScenes,duration_manipulation_targetAtFixation,jsons/VE125_randls_7.json,http://54.235.29.9/FacialAge/BNav_EC2/DepthDuration/v2_depth_duration_MTurk/v2_DepthDuration_HTML.html#26,26,1881,888,1920,1080,8-30-2022,8-2-57,95,depth_duration_stimuli/000414_2014-06-04_19-49-13_260595134347_rgbf000044-resize_0/000414_2014-06-04_19-49-13_260595134347_rgbf000044-resize_0-target.png,125,4.329,10,1715,128,feet,jsons/VE125_randls_7.json,471409,725520,36,Man
95,529612,DepthScenes,duration_manipulation_targetAtFixation,jsons/VE125_randls_7.json,http://54.235.29.9/FacialAge/BNav_EC2/DepthDuration/v2_depth_duration_MTurk/v2_DepthDuration_HTML.html#26,26,1881,888,1920,1080,8-30-2022,8-2-57,96,depth_duration_stimuli/003129_2014-05-12_10-48-10_094959634447_rgbf000100-resize_0/003129_2014-05-12_10-48-10_094959634447_rgbf000100-resize_0-target.png,125,4.9305,10,1644,126,feet,jsons/VE125_randls_7.json,471409,725520,36,Man
96,529612,DepthScenes,duration_manipulation_targetAtFixation,jsons/VE125_randls_7.json,http://54.235.29.9/FacialAge/BNav_EC2/DepthDuration/v2_depth_duration_MTurk/v2_DepthDuration_HTML.html#26,26,1881,888,1920,1080,8-30-2022,8-2-57,97,depth_duration_stimuli/001016_2014-06-09_16-16-10_260595134347_rgbf000112-resize_5/001016_2014-06-09_16-16-10_260595134347_rgbf000112-resize_5-target.png,125,1.6565,8,2131,136,feet,jsons/VE125_randls_7.json,471409,725520,36,Man
97,529612,DepthScenes,duration_manipulation_targetAtFixation,jsons/VE125_randls_7.json,http://54.235.29.9/FacialAge/BNav_EC2/DepthDuration/v2_depth_duration_MTurk/v2_DepthDuration_HTML.html#26,26,1881,888,1920,1080,8-30-2022,8-2-57,98,depth_duration_stimuli/002340_2014-06-28_20-05-46_260595134347_rgbf000113-resize_0/002340_2014-06-28_20-05-46_260595134347_rgbf000113-resize_0-target.png,125,2.4735,10,1815,111,feet,jsons/VE125_randls_7.json,471409,725520,36,Man
98,529612,DepthScenes,duration_manipulation_targetAtFixation,jsons/VE125_randls_7.json,http://54.235.29.9/FacialAge/BNav_EC2/DepthDuration/v2_depth_duration_MTurk/v2_DepthDuration_HTML.html#26,26,1881,888,1920,1080,8-30-2022,8-2-57,99,depth_duration_stimuli/001540_2014-06-20_17-01-05_260595134347_rgbf000086-resize_2/001540_2014-06-20_17-01-05_260595134347_rgbf000086-resize-original.jpg,125,1.459,0,1609,128,feet,jsons/VE125_randls_7.json,471409,725520,36,Man
99,529612,DepthScenes,duration_manipulation_targetAtFixation,jsons/VE125_randls_7.json,http://54.235.29.9/FacialAge/BNav_EC2/DepthDuration/v2_depth_duration_MTurk/v2_DepthDuration_HTML.html#26,26,1881,888,1920,1080,8-30-2022,8-2-57,100,depth_duration_stimuli/002964_2014-06-08_17-46-11_094959634447_rgbf000091-resize_4/002964_2014-06-08_17-46-11_094959634447_rgbf000091-resize_4-target.png,125,1.6909999999999998,2,2180,138,feet,jsons/VE125_randls_7.json,471409,725520,36,Man
100,529612,DepthScenes,duration_manipulation_targetAtFixation,jsons/VE125_randls_7.json,http://54.235.29.9/FacialAge/BNav_EC2/DepthDuration/v2_depth_duration_MTurk/v2_DepthDuration_HTML.html#26,26,1881,888,1920,1080,8-30-2022,8-2-57,101,depth_duration_stimuli/002136_2014-06-25_21-18-03_260595134347_rgbf000109-resize_3/002136_2014-06-25_21-18-03_260595134347_rgbf000109-resize_3-target.png,125,1.9569999999999999,4,2873,126,feet,jsons/VE125_randls_7.json,471409,725520,36,Man
101,529612,DepthScenes,duration_manipulation_targetAtFixation,jsons/VE125_randls_7.json,http://54.235.29.9/FacialAge/BNav_EC2/DepthDuration/v2_depth_duration_MTurk/v2_DepthDuration_HTML.html#26,26,1881,888,1920,1080,8-30-2022,8-2-57,102,depth_duration_stimuli/003621_2014-05-23_18-06-08_094959634447_rgbf000101-resize_1/003621_2014-05-23_18-06-08_094959634447_rgbf000101-resize_1-target.png,125,3.9835,8,3259,138,feet,jsons/VE125_randls_7.json,471409,725520,36,Man
102,529612,DepthScenes,duration_manipulation_targetAtFixation,jsons/VE125_randls_7.json,http://54.235.29.9/FacialAge/BNav_EC2/DepthDuration/v2_depth_duration_MTurk/v2_DepthDuration_HTML.html#26,26,1881,888,1920,1080,8-30-2022,8-2-57,103,depth_duration_stimuli/001584_2014-06-20_11-07-43_260595134347_rgbf000002-resize_1/001584_2014-06-20_11-07-43_260595134347_rgbf000002-resize_1-target.png,125,3.53,7,3102,127,feet,jsons/VE125_randls_7.json,471409,725520,36,Man
103,529612,DepthScenes,duration_manipulation_targetAtFixation,jsons/VE125_randls_7.json,http://54.235.29.9/FacialAge/BNav_EC2/DepthDuration/v2_depth_duration_MTurk/v2_DepthDuration_HTML.html#26,26,1881,888,1920,1080,8-30-2022,8-2-57,104,depth_duration_stimuli/002788_2014-06-22_19-36-03_094959634447_rgbf000088-resize_2/002788_2014-06-22_19-36-03_094959634447_rgbf000088-resize_2-target.png,125,1.6465,7,2924,120,feet,jsons/VE125_randls_7.json,471409,725520,36,Man
104,529612,DepthScenes,duration_manipulation_targetAtFixation,jsons/VE125_randls_7.json,http://54.235.29.9/FacialAge/BNav_EC2/DepthDuration/v2_depth_duration_MTurk/v2_DepthDuration_HTML.html#26,26,1881,888,1920,1080,8-30-2022,8-2-57,105,depth_duration_stimuli/000749_2014-06-08_21-55-06_260595134347_rgbf000070-resize_2/000749_2014-06-08_21-55-06_260595134347_rgbf000070-resize_2-target.png,125,2.331,6,2603,131,feet,jsons/VE125_randls_7.json,471409,725520,36,Man
105,529612,DepthScenes,duration_manipulation_targetAtFixation,jsons/VE125_randls_7.json,http://54.235.29.9/FacialAge/BNav_EC2/DepthDuration/v2_depth_duration_MTurk/v2_DepthDuration_HTML.html#26,26,1881,888,1920,1080,8-30-2022,8-2-57,106,depth_duration_stimuli/001167_2014-06-17_15-38-07_260595134347_rgbf000108-resize_0/001167_2014-06-17_15-38-07_260595134347_rgbf000108-resize_0-target.png,125,1.8505,4,2439,127,feet,jsons/VE125_randls_7.json,471409,725520,36,Man
106,529612,DepthScenes,duration_manipulation_targetAtFixation,jsons/VE125_randls_7.json,http://54.235.29.9/FacialAge/BNav_EC2/DepthDuration/v2_depth_duration_MTurk/v2_DepthDuration_HTML.html#26,26,1881,888,1920,1080,8-30-2022,8-2-57,107,depth_duration_stimuli/003587_2014-05-23_16-48-02_094959634447_rgbf002384-resize_2/003587_2014-05-23_16-48-02_094959634447_rgbf002384-resize_2-target.png,125,1.357,3,3837,126,feet,jsons/VE125_randls_7.json,471409,725520,36,Man
107,529612,DepthScenes,duration_manipulation_targetAtFixation,jsons/VE125_randls_7.json,http://54.235.29.9/FacialAge/BNav_EC2/DepthDuration/v2_depth_duration_MTurk/v2_DepthDuration_HTML.html#26,26,1881,888,1920,1080,8-30-2022,8-2-57,108,depth_duration_stimuli/000788_2014-06-08_22-34-36_260595134347_rgbf000131-resize_1/000788_2014-06-08_22-34-36_260595134347_rgbf000131-resize_1-target.png,125,3.359,5,2947,126,feet,jsons/VE125_randls_7.json,471409,725520,36,Man
108,529612,DepthScenes,duration_manipulation_targetAtFixation,jsons/VE125_randls_7.json,http://54.235.29.9/FacialAge/BNav_EC2/DepthDuration/v2_depth_duration_MTurk/v2_DepthDuration_HTML.html#26,26,1881,888,1920,1080,8-30-2022,8-2-57,109,depth_duration_stimuli/001235_2014-06-17_16-37-36_260595134347_rgbf000084-resize_4/001235_2014-06-17_16-37-36_260595134347_rgbf000084-resize_4-target.png,125,3.6605,6,2332,132,feet,jsons/VE125_randls_7.json,471409,725520,36,Man
109,529612,DepthScenes,duration_manipulation_targetAtFixation,jsons/VE125_randls_7.json,http://54.235.29.9/FacialAge/BNav_EC2/DepthDuration/v2_depth_duration_MTurk/v2_DepthDuration_HTML.html#26,26,1881,888,1920,1080,8-30-2022,8-2-57,110,depth_duration_stimuli/002039_2014-06-24_20-22-38_260595134347_rgbf000084-resize_1/002039_2014-06-24_20-22-38_260595134347_rgbf000084-resize_1-target.png,125,4.408,8,2346,126,feet,jsons/VE125_randls_7.json,471409,725520,36,Man
110,529612,DepthScenes,duration_manipulation_targetAtFixation,jsons/VE125_randls_7.json,http://54.235.29.9/FacialAge/BNav_EC2/DepthDuration/v2_depth_duration_MTurk/v2_DepthDuration_HTML.html#26,26,1881,888,1920,1080,8-30-2022,8-2-57,111,depth_duration_stimuli/002103_2014-06-25_20-00-40_260595134347_rgbf000049-resize_0/002103_2014-06-25_20-00-40_260595134347_rgbf000049-resize_0-target.png,125,4.105,7,2150,126,feet,jsons/VE125_randls_7.json,471409,725520,36,Man
111,529612,DepthScenes,duration_manipulation_targetAtFixation,jsons/VE125_randls_7.json,http://54.235.29.9/FacialAge/BNav_EC2/DepthDuration/v2_depth_duration_MTurk/v2_DepthDuration_HTML.html#26,26,1881,888,1920,1080,8-30-2022,8-2-57,112,depth_duration_stimuli/001011_2014-06-08_23-18-54_260595134347_rgbf000044-resize_4/001011_2014-06-08_23-18-54_260595134347_rgbf000044-resize_4-target.png,125,2.4730000000000003,6,1901,115,feet,jsons/VE125_randls_7.json,471409,725520,36,Man
112,529612,DepthScenes,duration_manipulation_targetAtFixation,jsons/VE125_randls_7.json,http://54.235.29.9/FacialAge/BNav_EC2/DepthDuration/v2_depth_duration_MTurk/v2_DepthDuration_HTML.html#26,26,1881,888,1920,1080,8-30-2022,8-2-57,113,depth_duration_stimuli/002875_2014-06-01_15-19-00_094959634447_rgbf000151-resize_1/002875_2014-06-01_15-19-00_094959634447_rgbf000151-resize_1-target.png,125,1.9675,0,2625,122,feet,jsons/VE125_randls_7.json,471409,725520,36,Man
113,529612,DepthScenes,duration_manipulation_targetAtFixation,jsons/VE125_randls_7.json,http://54.235.29.9/FacialAge/BNav_EC2/DepthDuration/v2_depth_duration_MTurk/v2_DepthDuration_HTML.html#26,26,1881,888,1920,1080,8-30-2022,8-2-57,114,depth_duration_stimuli/001449_2014-06-19_17-01-27_260595134347_rgbf000116-resize_2/001449_2014-06-19_17-01-27_260595134347_rgbf000116-resize_2-target.png,125,3.452,8,2154,115,feet,jsons/VE125_randls_7.json,471409,725520,36,Man
114,529612,DepthScenes,duration_manipulation_targetAtFixation,jsons/VE125_randls_7.json,http://54.235.29.9/FacialAge/BNav_EC2/DepthDuration/v2_depth_duration_MTurk/v2_DepthDuration_HTML.html#26,26,1881,888,1920,1080,8-30-2022,8-2-57,115,depth_duration_stimuli/001450_2014-06-19_17-02-03_260595134347_rgbf000203-resize_4/001450_2014-06-19_17-02-03_260595134347_rgbf000203-resize_4-target.png,125,4.0106666666667,9,2263,126,feet,jsons/VE125_randls_7.json,471409,725520,36,Man
115,529612,DepthScenes,duration_manipulation_targetAtFixation,jsons/VE125_randls_7.json,http://54.235.29.9/FacialAge/BNav_EC2/DepthDuration/v2_depth_duration_MTurk/v2_DepthDuration_HTML.html#26,26,1881,888,1920,1080,8-30-2022,8-2-57,116,depth_duration_stimuli/001170_2014-06-17_15-43-44_260595134347_rgbf000096-resize_6/001170_2014-06-17_15-43-44_260595134347_rgbf000096-resize-original.jpg,125,1.1909999999999998,0,1707,130,feet,jsons/VE125_randls_7.json,471409,725520,36,Man
116,529612,DepthScenes,duration_manipulation_targetAtFixation,jsons/VE125_randls_7.json,http://54.235.29.9/FacialAge/BNav_EC2/DepthDuration/v2_depth_duration_MTurk/v2_DepthDuration_HTML.html#26,26,1881,888,1920,1080,8-30-2022,8-2-57,117,depth_duration_stimuli/001055_2014-06-08_18-45-35_260595134347_rgbf000111-resize_4/001055_2014-06-08_18-45-35_260595134347_rgbf000111-resize_4-target.png,125,2.4290000000000003,7,2304,115,feet,jsons/VE125_randls_7.json,471409,725520,36,Man
117,529612,DepthScenes,duration_manipulation_targetAtFixation,jsons/VE125_randls_7.json,http://54.235.29.9/FacialAge/BNav_EC2/DepthDuration/v2_depth_duration_MTurk/v2_DepthDuration_HTML.html#26,26,1881,888,1920,1080,8-30-2022,8-2-57,118,depth_duration_stimuli/000549_2014-06-08_22-10-24_260595134347_rgbf000247-resize_3/000549_2014-06-08_22-10-24_260595134347_rgbf000247-resize_3-target.png,125,1.841,3,2274,128,feet,jsons/VE125_randls_7.json,471409,725520,36,Man
118,529612,DepthScenes,duration_manipulation_targetAtFixation,jsons/VE125_randls_7.json,http://54.235.29.9/FacialAge/BNav_EC2/DepthDuration/v2_depth_duration_MTurk/v2_DepthDuration_HTML.html#26,26,1881,888,1920,1080,8-30-2022,8-2-57,119,depth_duration_stimuli/002725_2014-06-22_11-47-51_094959634447_rgbf000070-resize_1/002725_2014-06-22_11-47-51_094959634447_rgbf000070-resize_1-target.png,125,2.195,7,2316,131,feet,jsons/VE125_randls_7.json,471409,725520,36,Man
119,529612,DepthScenes,duration_manipulation_targetAtFixation,jsons/VE125_randls_7.json,http://54.235.29.9/FacialAge/BNav_EC2/DepthDuration/v2_depth_duration_MTurk/v2_DepthDuration_HTML.html#26,26,1881,888,1920,1080,8-30-2022,8-2-57,120,depth_duration_stimuli/002344_2014-06-28_20-06-29_260595134347_rgbf000030-resize_1/002344_2014-06-28_20-06-29_260595134347_rgbf000030-resize_1-target.png,125,1.5795,3,1928,132,feet,jsons/VE125_randls_7.json,471409,725520,36,Man
120,529612,DepthScenes,duration_manipulation_targetAtFixation,jsons/VE125_randls_7.json,http://54.235.29.9/FacialAge/BNav_EC2/DepthDuration/v2_depth_duration_MTurk/v2_DepthDuration_HTML.html#26,26,1881,888,1920,1080,8-30-2022,8-2-57,121,depth_duration_stimuli/000682_2014-06-08_23-14-58_260595134347_rgbf000041-resize_5/000682_2014-06-08_23-14-58_260595134347_rgbf000041-resize_5-target.png,125,2.7239999999999998,6,3081,124,feet,jsons/VE125_randls_7.json,471409,725520,36,Man
121,529612,DepthScenes,duration_manipulation_targetAtFixation,jsons/VE125_randls_7.json,http://54.235.29.9/FacialAge/BNav_EC2/DepthDuration/v2_depth_duration_MTurk/v2_DepthDuration_HTML.html#26,26,1881,888,1920,1080,8-30-2022,8-2-57,122,depth_duration_stimuli/001650_2014-06-20_12-09-00_260595134347_rgbf000087-resize_3/001650_2014-06-20_12-09-00_260595134347_rgbf000087-resize_3-target.png,125,1.9505,3,2247,112,feet,jsons/VE125_randls_7.json,471409,725520,36,Man
122,529612,DepthScenes,duration_manipulation_targetAtFixation,jsons/VE125_randls_7.json,http://54.235.29.9/FacialAge/BNav_EC2/DepthDuration/v2_depth_duration_MTurk/v2_DepthDuration_HTML.html#26,26,1881,888,1920,1080,8-30-2022,8-2-57,123,depth_duration_stimuli/002057_2014-06-24_21-00-13_260595134347_rgbf000120-resize_1/002057_2014-06-24_21-00-13_260595134347_rgbf000120-resize_1-target.png,125,2.967,9,2808,131,feet,jsons/VE125_randls_7.json,471409,725520,36,Man
123,529612,DepthScenes,duration_manipulation_targetAtFixation,jsons/VE125_randls_7.json,http://54.235.29.9/FacialAge/BNav_EC2/DepthDuration/v2_depth_duration_MTurk/v2_DepthDuration_HTML.html#26,26,1881,888,1920,1080,8-30-2022,8-2-57,124,depth_duration_stimuli/000709_2014-06-08_13-51-55_260595134347_rgbf000068-resize_3/000709_2014-06-08_13-51-55_260595134347_rgbf000068-resize_3-target.png,125,1.8030000000000002,7,2169,114,feet,jsons/VE125_randls_7.json,471409,725520,36,Man
124,529612,DepthScenes,duration_manipulation_targetAtFixation,jsons/VE125_randls_7.json,http://54.235.29.9/FacialAge/BNav_EC2/DepthDuration/v2_depth_duration_MTurk/v2_DepthDuration_HTML.html#26,26,1881,888,1920,1080,8-30-2022,8-2-57,125,depth_duration_stimuli/001164_2014-06-17_15-35-46_260595134347_rgbf000085-resize_3/001164_2014-06-17_15-35-46_260595134347_rgbf000085-resize_3-target.png,125,2.354,6,2181,120,feet,jsons/VE125_randls_7.json,471409,725520,36,Man
125,529612,DepthScenes,duration_manipulation_targetAtFixation,jsons/VE125_randls_7.json,http://54.235.29.9/FacialAge/BNav_EC2/DepthDuration/v2_depth_duration_MTurk/v2_DepthDuration_HTML.html#26,26,1881,888,1920,1080,8-30-2022,8-2-57,126,depth_duration_stimuli/001136_2014-06-17_15-19-41_260595134347_rgbf000076-resize_3/001136_2014-06-17_15-19-41_260595134347_rgbf000076-resize_3-target.png,125,1.8655,6,1933,131,feet,jsons/VE125_randls_7.json,471409,725520,36,Man
126,529612,DepthScenes,duration_manipulation_targetAtFixation,jsons/VE125_randls_7.json,http://54.235.29.9/FacialAge/BNav_EC2/DepthDuration/v2_depth_duration_MTurk/v2_DepthDuration_HTML.html#26,26,1881,888,1920,1080,8-30-2022,8-2-57,127,depth_duration_stimuli/001110_2014-06-15_17-25-28_260595134347_rgbf000150-resize_1/001110_2014-06-15_17-25-28_260595134347_rgbf000150-resize_1-target.png,125,1.7115,6,2232,113,feet,jsons/VE125_randls_7.json,471409,725520,36,Man
127,529612,DepthScenes,duration_manipulation_targetAtFixation,jsons/VE125_randls_7.json,http://54.235.29.9/FacialAge/BNav_EC2/DepthDuration/v2_depth_duration_MTurk/v2_DepthDuration_HTML.html#26,26,1881,888,1920,1080,8-30-2022,8-2-57,128,depth_duration_stimuli/000927_2014-06-09_16-32-30_260595134347_rgbf000123-resize_3/000927_2014-06-09_16-32-30_260595134347_rgbf000123-resize_3-target.png,125,2.6785,9,2515,130,feet,jsons/VE125_randls_7.json,471409,725520,36,Man
128,529612,DepthScenes,duration_manipulation_targetAtFixation,jsons/VE125_randls_7.json,http://54.235.29.9/FacialAge/BNav_EC2/DepthDuration/v2_depth_duration_MTurk/v2_DepthDuration_HTML.html#26,26,1881,888,1920,1080,8-30-2022,8-2-57,129,depth_duration_stimuli/001570_2014-06-20_17-21-09_260595134347_rgbf000135-resize_4/001570_2014-06-20_17-21-09_260595134347_rgbf000135-resize_4-target.png,125,4.467,11,2914,133,feet,jsons/VE125_randls_7.json,471409,725520,36,Man
129,529612,DepthScenes,duration_manipulation_targetAtFixation,jsons/VE125_randls_7.json,http://54.235.29.9/FacialAge/BNav_EC2/DepthDuration/v2_depth_duration_MTurk/v2_DepthDuration_HTML.html#26,26,1881,888,1920,1080,8-30-2022,8-2-57,130,depth_duration_stimuli/001392_2014-06-19_16-07-59_260595134347_rgbf000046-resize_1/001392_2014-06-19_16-07-59_260595134347_rgbf000046-resize_1-target.png,125,4.135,12,2333,126,feet,jsons/VE125_randls_7.json,471409,725520,36,Man
130,529612,DepthScenes,duration_manipulation_targetAtFixation,jsons/VE125_randls_7.json,http://54.235.29.9/FacialAge/BNav_EC2/DepthDuration/v2_depth_duration_MTurk/v2_DepthDuration_HTML.html#26,26,1881,888,1920,1080,8-30-2022,8-2-57,131,depth_duration_stimuli/002663_2014-06-13_15-50-26_094959634447_rgbf000075-resize_1/002663_2014-06-13_15-50-26_094959634447_rgbf000075-resize_1-target.png,125,4.7495,10,2488,127,feet,jsons/VE125_randls_7.json,471409,725520,36,Man
131,529612,DepthScenes,duration_manipulation_targetAtFixation,jsons/VE125_randls_7.json,http://54.235.29.9/FacialAge/BNav_EC2/DepthDuration/v2_depth_duration_MTurk/v2_DepthDuration_HTML.html#26,26,1881,888,1920,1080,8-30-2022,8-2-57,132,depth_duration_stimuli/000409_2014-06-04_19-23-33_260595134347_rgbf000067-resize_0/000409_2014-06-04_19-23-33_260595134347_rgbf000067-resize_0-target.png,125,3.7335,9,2358,135,feet,jsons/VE125_randls_7.json,471409,725520,36,Man
132,529612,DepthScenes,duration_manipulation_targetAtFixation,jsons/VE125_randls_7.json,http://54.235.29.9/FacialAge/BNav_EC2/DepthDuration/v2_depth_duration_MTurk/v2_DepthDuration_HTML.html#26,26,1881,888,1920,1080,8-30-2022,8-2-57,133,depth_duration_stimuli/001066_2014-06-08_22-03-20_260595134347_rgbf000066-resize_4/001066_2014-06-08_22-03-20_260595134347_rgbf000066-resize_4-target.png,125,4.2330000000000005,12,2432,125,feet,jsons/VE125_randls_7.json,471409,725520,36,Man
133,529612,DepthScenes,duration_manipulation_targetAtFixation,jsons/VE125_randls_7.json,http://54.235.29.9/FacialAge/BNav_EC2/DepthDuration/v2_depth_duration_MTurk/v2_DepthDuration_HTML.html#26,26,1881,888,1920,1080,8-30-2022,8-2-57,134,depth_duration_stimuli/000742_2014-06-08_18-48-09_260595134347_rgbf000164-resize_4/000742_2014-06-08_18-48-09_260595134347_rgbf000164-resize_4-target.png,125,4.632,10,2044,110,feet,jsons/VE125_randls_7.json,471409,725520,36,Man
134,529612,DepthScenes,duration_manipulation_targetAtFixation,jsons/VE125_randls_7.json,http://54.235.29.9/FacialAge/BNav_EC2/DepthDuration/v2_depth_duration_MTurk/v2_DepthDuration_HTML.html#26,26,1881,888,1920,1080,8-30-2022,8-2-57,135,depth_duration_stimuli/002072_2014-06-24_21-48-06_260595134347_rgbf000115-resize_0/002072_2014-06-24_21-48-06_260595134347_rgbf000115-resize-original.jpg,125,4.702,0,1587,125,feet,jsons/VE125_randls_7.json,471409,725520,36,Man
135,529612,DepthScenes,duration_manipulation_targetAtFixation,jsons/VE125_randls_7.json,http://54.235.29.9/FacialAge/BNav_EC2/DepthDuration/v2_depth_duration_MTurk/v2_DepthDuration_HTML.html#26,26,1881,888,1920,1080,8-30-2022,8-2-57,136,depth_duration_stimuli/001150_2014-06-17_15-27-34_260595134347_rgbf000108-resize_2/001150_2014-06-17_15-27-34_260595134347_rgbf000108-resize_2-target.png,125,4.0325,10,1960,126,feet,jsons/VE125_randls_7.json,471409,725520,36,Man
136,529612,DepthScenes,duration_manipulation_targetAtFixation,jsons/VE125_randls_7.json,http://54.235.29.9/FacialAge/BNav_EC2/DepthDuration/v2_depth_duration_MTurk/v2_DepthDuration_HTML.html#26,26,1881,888,1920,1080,8-30-2022,8-2-57,137,depth_duration_stimuli/000665_2014-06-09_20-42-35_260595134347_rgbf000110-resize_1/000665_2014-06-09_20-42-35_260595134347_rgbf000110-resize_1-target.png,125,3.057,8,2274,124,feet,jsons/VE125_randls_7.json,471409,725520,36,Man
137,529612,DepthScenes,duration_manipulation_targetAtFixation,jsons/VE125_randls_7.json,http://54.235.29.9/FacialAge/BNav_EC2/DepthDuration/v2_depth_duration_MTurk/v2_DepthDuration_HTML.html#26,26,1881,888,1920,1080,8-30-2022,8-2-57,138,depth_duration_stimuli/000773_2014-06-08_22-24-54_260595134347_rgbf000093-resize_1/000773_2014-06-08_22-24-54_260595134347_rgbf000093-resize_1-target.png,125,4.973,9,2611,126,feet,jsons/VE125_randls_7.json,471409,725520,36,Man
138,529612,DepthScenes,duration_manipulation_targetAtFixation,jsons/VE125_randls_7.json,http://54.235.29.9/FacialAge/BNav_EC2/DepthDuration/v2_depth_duration_MTurk/v2_DepthDuration_HTML.html#26,26,1881,888,1920,1080,8-30-2022,8-2-57,139,depth_duration_stimuli/002414_2014-06-28_20-24-58_260595134347_rgbf000067-resize_4/002414_2014-06-28_20-24-58_260595134347_rgbf000067-resize_4-target.png,125,4.363,9,2708,128,feet,jsons/VE125_randls_7.json,471409,725520,36,Man
139,529612,DepthScenes,duration_manipulation_targetAtFixation,jsons/VE125_randls_7.json,http://54.235.29.9/FacialAge/BNav_EC2/DepthDuration/v2_depth_duration_MTurk/v2_DepthDuration_HTML.html#26,26,1881,888,1920,1080,8-30-2022,8-2-57,140,depth_duration_stimuli/000506_2014-06-08_23-21-00_260595134347_rgbf000070-resize_7/000506_2014-06-08_23-21-00_260595134347_rgbf000070-resize_7-target.png,125,4.0585,8,2672,127,feet,jsons/VE125_randls_7.json,471409,725520,36,Man
140,529612,DepthScenes,duration_manipulation_targetAtFixation,jsons/VE125_randls_7.json,http://54.235.29.9/FacialAge/BNav_EC2/DepthDuration/v2_depth_duration_MTurk/v2_DepthDuration_HTML.html#26,26,1881,888,1920,1080,8-30-2022,8-2-57,141,depth_duration_stimuli/003079_2014-06-15_15-18-20_094959634447_rgbf000152-resize_8/003079_2014-06-15_15-18-20_094959634447_rgbf000152-resize_8-target.png,125,2.8775,7,2302,120,feet,jsons/VE125_randls_7.json,471409,725520,36,Man
141,529612,DepthScenes,duration_manipulation_targetAtFixation,jsons/VE125_randls_7.json,http://54.235.29.9/FacialAge/BNav_EC2/DepthDuration/v2_depth_duration_MTurk/v2_DepthDuration_HTML.html#26,26,1881,888,1920,1080,8-30-2022,8-2-57,142,depth_duration_stimuli/001555_2014-06-20_17-12-10_260595134347_rgbf000065-resize_4/001555_2014-06-20_17-12-10_260595134347_rgbf000065-resize_4-target.png,125,1.633,3,2556,122,feet,jsons/VE125_randls_7.json,471409,725520,36,Man
142,529612,DepthScenes,duration_manipulation_targetAtFixation,jsons/VE125_randls_7.json,http://54.235.29.9/FacialAge/BNav_EC2/DepthDuration/v2_depth_duration_MTurk/v2_DepthDuration_HTML.html#26,26,1881,888,1920,1080,8-30-2022,8-2-57,143,depth_duration_stimuli/000103_2014-05-14_22-01-17_260595134347_rgbf000152-resize_5/000103_2014-05-14_22-01-17_260595134347_rgbf000152-resize_5-target.png,125,1.993,7,3356,126,feet,jsons/VE125_randls_7.json,471409,725520,36,Man
143,529612,DepthScenes,duration_manipulation_targetAtFixation,jsons/VE125_randls_7.json,http://54.235.29.9/FacialAge/BNav_EC2/DepthDuration/v2_depth_duration_MTurk/v2_DepthDuration_HTML.html#26,26,1881,888,1920,1080,8-30-2022,8-2-57,144,depth_duration_stimuli/002509_2014-06-24_13-19-22_094959634447_rgbf000077-resize_0/002509_2014-06-24_13-19-22_094959634447_rgbf000077-resize_0-target.png,125,1.3065,3,6883,126,feet,jsons/VE125_randls_7.json,471409,725520,36,Man
144,529612,DepthScenes,duration_manipulation_targetAtFixation,jsons/VE125_randls_7.json,http://54.235.29.9/FacialAge/BNav_EC2/DepthDuration/v2_depth_duration_MTurk/v2_DepthDuration_HTML.html#26,26,1881,888,1920,1080,8-30-2022,8-2-57,145,depth_duration_stimuli/003338_2014-05-20_11-01-23_094959634447_rgbf000051-resize_6/003338_2014-05-20_11-01-23_094959634447_rgbf000051-resize_6-target.png,125,1.693,4,2696,118,feet,jsons/VE125_randls_7.json,471409,725520,36,Man
145,529612,DepthScenes,duration_manipulation_targetAtFixation,jsons/VE125_randls_7.json,http://54.235.29.9/FacialAge/BNav_EC2/DepthDuration/v2_depth_duration_MTurk/v2_DepthDuration_HTML.html#26,26,1881,888,1920,1080,8-30-2022,8-2-57,146,depth_duration_stimuli/001498_2014-06-19_17-45-14_260595134347_rgbf000129-resize_4/001498_2014-06-19_17-45-14_260595134347_rgbf000129-resize-original.jpg,125,1.4075,0,1626,124,feet,jsons/VE125_randls_7.json,471409,725520,36,Man
146,529612,DepthScenes,duration_manipulation_targetAtFixation,jsons/VE125_randls_7.json,http://54.235.29.9/FacialAge/BNav_EC2/DepthDuration/v2_depth_duration_MTurk/v2_DepthDuration_HTML.html#26,26,1881,888,1920,1080,8-30-2022,8-2-57,147,depth_duration_stimuli/000917_2014-06-09_22-45-29_260595134347_rgbf000149-resize_3/000917_2014-06-09_22-45-29_260595134347_rgbf000149-resize_3-target.png,125,4.1865,6,2308,126,feet,jsons/VE125_randls_7.json,471409,725520,36,Man
147,529612,DepthScenes,duration_manipulation_targetAtFixation,jsons/VE125_randls_7.json,http://54.235.29.9/FacialAge/BNav_EC2/DepthDuration/v2_depth_duration_MTurk/v2_DepthDuration_HTML.html#26,26,1881,888,1920,1080,8-30-2022,8-2-57,148,depth_duration_stimuli/002323_2014-06-28_20-01-54_260595134347_rgbf000051-resize_4/002323_2014-06-28_20-01-54_260595134347_rgbf000051-resize_4-target.png,125,3.7310000000000003,6,2012,133,feet,jsons/VE125_randls_7.json,471409,725520,36,Man
148,529612,DepthScenes,duration_manipulation_targetAtFixation,jsons/VE125_randls_7.json,http://54.235.29.9/FacialAge/BNav_EC2/DepthDuration/v2_depth_duration_MTurk/v2_DepthDuration_HTML.html#26,26,1881,888,1920,1080,8-30-2022,8-2-57,149,depth_duration_stimuli/002375_2014-06-28_20-13-44_260595134347_rgbf000032-resize_1/002375_2014-06-28_20-13-44_260595134347_rgbf000032-resize_1-target.png,125,4.0175,7,1778,126,feet,jsons/VE125_randls_7.json,471409,725520,36,Man
149,529612,DepthScenes,duration_manipulation_targetAtFixation,jsons/VE125_randls_7.json,http://54.235.29.9/FacialAge/BNav_EC2/DepthDuration/v2_depth_duration_MTurk/v2_DepthDuration_HTML.html#26,26,1881,888,1920,1080,8-30-2022,8-2-57,150,depth_duration_stimuli/002657_2014-06-13_15-29-54_094959634447_rgbf000150-resize_1/002657_2014-06-13_15-29-54_094959634447_rgbf000150-resize_1-target.png,125,4.919,8,2248,131,feet,jsons/VE125_randls_7.json,471409,725520,36,Man
150,529612,DepthScenes,duration_manipulation_targetAtFixation,jsons/VE125_randls_7.json,http://54.235.29.9/FacialAge/BNav_EC2/DepthDuration/v2_depth_duration_MTurk/v2_DepthDuration_HTML.html#26,26,1881,888,1920,1080,8-30-2022,8-2-57,151,depth_duration_stimuli/001417_2014-06-19_16-25-36_260595134347_rgbf000115-resize_5/001417_2014-06-19_16-25-36_260595134347_rgbf000115-resize_5-target.png,125,4.6255,9,2130,123,feet,jsons/VE125_randls_7.json,471409,725520,36,Man
151,529612,DepthScenes,duration_manipulation_targetAtFixation,jsons/VE125_randls_7.json,http://54.235.29.9/FacialAge/BNav_EC2/DepthDuration/v2_depth_duration_MTurk/v2_DepthDuration_HTML.html#26,26,1881,888,1920,1080,8-30-2022,8-2-57,152,depth_duration_stimuli/003081_2014-06-15_15-19-16_094959634447_rgbf000150-resize_1/003081_2014-06-15_15-19-16_094959634447_rgbf000150-resize_1-target.png,125,3.9125,11,2299,124,feet,jsons/VE125_randls_7.json,471409,725520,36,Man
152,529612,DepthScenes,duration_manipulation_targetAtFixation,jsons/VE125_randls_7.json,http://54.235.29.9/FacialAge/BNav_EC2/DepthDuration/v2_depth_duration_MTurk/v2_DepthDuration_HTML.html#26,26,1881,888,1920,1080,8-30-2022,8-2-57,153,depth_duration_stimuli/002905_2014-06-03_18-04-43_094959634447_rgbf000151-resize_2/002905_2014-06-03_18-04-43_094959634447_rgbf000151-resize_2-target.png,125,2.0295,5,2050,132,feet,jsons/VE125_randls_7.json,471409,725520,36,Man
153,529612,DepthScenes,duration_manipulation_targetAtFixation,jsons/VE125_randls_7.json,http://54.235.29.9/FacialAge/BNav_EC2/DepthDuration/v2_depth_duration_MTurk/v2_DepthDuration_HTML.html#26,26,1881,888,1920,1080,8-30-2022,8-2-57,154,depth_duration_stimuli/003423_2014-05-21_10-23-26_094959634447_rgbf002665-resize_2/003423_2014-05-21_10-23-26_094959634447_rgbf002665-resize_2-target.png,125,3.2575,9,2128,121,feet,jsons/VE125_randls_7.json,471409,725520,36,Man
154,529612,DepthScenes,duration_manipulation_targetAtFixation,jsons/VE125_randls_7.json,http://54.235.29.9/FacialAge/BNav_EC2/DepthDuration/v2_depth_duration_MTurk/v2_DepthDuration_HTML.html#26,26,1881,888,1920,1080,8-30-2022,8-2-57,155,depth_duration_stimuli/000469_2014-06-09_19-42-10_260595134347_rgbf000081-resize_1/000469_2014-06-09_19-42-10_260595134347_rgbf000081-resize_1-target.png,125,1.652,5,2068,130,feet,jsons/VE125_randls_7.json,471409,725520,36,Man
155,529612,DepthScenes,duration_manipulation_targetAtFixation,jsons/VE125_randls_7.json,http://54.235.29.9/FacialAge/BNav_EC2/DepthDuration/v2_depth_duration_MTurk/v2_DepthDuration_HTML.html#26,26,1881,888,1920,1080,8-30-2022,8-2-57,156,depth_duration_stimuli/000483_2014-06-09_20-41-45_260595134347_rgbf000116-resize_4/000483_2014-06-09_20-41-45_260595134347_rgbf000116-resize_4-target.png,125,1.337,4,1597,116,feet,jsons/VE125_randls_7.json,471409,725520,36,Man
156,529612,DepthScenes,duration_manipulation_targetAtFixation,jsons/VE125_randls_7.json,http://54.235.29.9/FacialAge/BNav_EC2/DepthDuration/v2_depth_duration_MTurk/v2_DepthDuration_HTML.html#26,26,1881,888,1920,1080,8-30-2022,8-2-57,157,depth_duration_stimuli/000493_2014-06-09_21-01-18_260595134347_rgbf000196-resize_3/000493_2014-06-09_21-01-18_260595134347_rgbf000196-resize_3-target.png,125,3.44,7,1845,118,feet,jsons/VE125_randls_7.json,471409,725520,36,Man
157,529612,DepthScenes,duration_manipulation_targetAtFixation,jsons/VE125_randls_7.json,http://54.235.29.9/FacialAge/BNav_EC2/DepthDuration/v2_depth_duration_MTurk/v2_DepthDuration_HTML.html#26,26,1881,888,1920,1080,8-30-2022,8-2-57,158,depth_duration_stimuli/000191_2014-05-12_17-07-38_260595134347_rgbf000199-resize_0/000191_2014-05-12_17-07-38_260595134347_rgbf000199-resize_0-target.png,125,3.7995,9,2129,123,feet,jsons/VE125_randls_7.json,471409,725520,36,Man
158,529612,DepthScenes,duration_manipulation_targetAtFixation,jsons/VE125_randls_7.json,http://54.235.29.9/FacialAge/BNav_EC2/DepthDuration/v2_depth_duration_MTurk/v2_DepthDuration_HTML.html#26,26,1881,888,1920,1080,8-30-2022,8-2-57,159,depth_duration_stimuli/003292_2014-05-14_21-53-49_094959634447_rgbf000100-resize_2/003292_2014-05-14_21-53-49_094959634447_rgbf000100-resize_2-target.png,125,3.4815,8,1928,121,feet,jsons/VE125_randls_7.json,471409,725520,36,Man
159,529612,DepthScenes,duration_manipulation_targetAtFixation,jsons/VE125_randls_7.json,http://54.235.29.9/FacialAge/BNav_EC2/DepthDuration/v2_depth_duration_MTurk/v2_DepthDuration_HTML.html#26,26,1881,888,1920,1080,8-30-2022,8-2-57,160,depth_duration_stimuli/002639_2014-06-24_14-51-37_094959634447_rgbf000074-resize_4/002639_2014-06-24_14-51-37_094959634447_rgbf000074-resize_4-target.png,125,4.0375,10,1900,128,feet,jsons/VE125_randls_7.json,471409,725520,36,Man
160,529612,DepthScenes,duration_manipulation_targetAtFixation,jsons/VE125_randls_7.json,http://54.235.29.9/FacialAge/BNav_EC2/DepthDuration/v2_depth_duration_MTurk/v2_DepthDuration_HTML.html#26,26,1881,888,1920,1080,8-30-2022,8-2-57,161,depth_duration_stimuli/003070_2014-06-15_14-58-27_094959634447_rgbf000150-resize_3/003070_2014-06-15_14-58-27_094959634447_rgbf000150-resize_3-target.png,125,2.9415,10,1596,124,feet,jsons/VE125_randls_7.json,471409,725520,36,Man
161,529612,DepthScenes,duration_manipulation_targetAtFixation,jsons/VE125_randls_7.json,http://54.235.29.9/FacialAge/BNav_EC2/DepthDuration/v2_depth_duration_MTurk/v2_DepthDuration_HTML.html#26,26,1881,888,1920,1080,8-30-2022,8-2-57,162,depth_duration_stimuli/000943_2014-06-09_19-31-07_260595134347_rgbf000128-resize_1/000943_2014-06-09_19-31-07_260595134347_rgbf000128-resize_1-target.png,125,1.9765,6,2011,125,feet,jsons/VE125_randls_7.json,471409,725520,36,Man
162,529612,DepthScenes,duration_manipulation_targetAtFixation,jsons/VE125_randls_7.json,http://54.235.29.9/FacialAge/BNav_EC2/DepthDuration/v2_depth_duration_MTurk/v2_DepthDuration_HTML.html#26,26,1881,888,1920,1080,8-30-2022,8-2-57,163,depth_duration_stimuli/001199_2014-06-17_16-03-48_260595134347_rgbf000077-resize_0/001199_2014-06-17_16-03-48_260595134347_rgbf000077-resize_0-target.png,125,3.4375,10,1714,124,feet,jsons/VE125_randls_7.json,471409,725520,36,Man
163,529612,DepthScenes,duration_manipulation_targetAtFixation,jsons/VE125_randls_7.json,http://54.235.29.9/FacialAge/BNav_EC2/DepthDuration/v2_depth_duration_MTurk/v2_DepthDuration_HTML.html#26,26,1881,888,1920,1080,8-30-2022,8-2-57,164,depth_duration_stimuli/000502_2014-06-08_23-02-32_260595134347_rgbf000063-resize_4/000502_2014-06-08_23-02-32_260595134347_rgbf000063-resize_4-target.png,125,2.431,7,1634,133,feet,jsons/VE125_randls_7.json,471409,725520,36,Man
