,subjID,experimentName,versionName,sequenceName,url,selected_row,windowWidth,windowHeight,screenWidth,screenHeight,startDate,startTime,trial,stimulus,duration,actual_depth,depth_estimate,trial_RT,log_sceneDuration,unitSelection,seq_filepath,experimentTime,totalTime,age,gender
0,531629,DepthScenes,duration_manipulation_targetAtFixation,jsons/v1_VE1000_randls_5_rotated.json,http://54.235.29.9/FacialAge/BNav_EC2/DepthDuration/v2_depth_duration_MTurk/v2_DepthDuration_HTML.html#53,53,1920,955,1920,1080,8-22-2022,7-58-28,1,depth_duration_stimuli/000483_2014-06-09_20-41-45_260595134347_rgbf000116-resize_4/000483_2014-06-09_20-41-45_260595134347_rgbf000116-resize_4-target.png,1000,1.337,3,3311,996,feet,jsons/v1_VE1000_randls_5_rotated.json,736558,892065,43,Man
1,531629,DepthScenes,duration_manipulation_targetAtFixation,jsons/v1_VE1000_randls_5_rotated.json,http://54.235.29.9/FacialAge/BNav_EC2/DepthDuration/v2_depth_duration_MTurk/v2_DepthDuration_HTML.html#53,53,1920,955,1920,1080,8-22-2022,7-58-28,2,depth_duration_stimuli/000469_2014-06-09_19-42-10_260595134347_rgbf000081-resize_1/000469_2014-06-09_19-42-10_260595134347_rgbf000081-resize_1-target.png,1000,1.652,4,2934,992,feet,jsons/v1_VE1000_randls_5_rotated.json,736558,892065,43,Man
2,531629,DepthScenes,duration_manipulation_targetAtFixation,jsons/v1_VE1000_randls_5_rotated.json,http://54.235.29.9/FacialAge/BNav_EC2/DepthDuration/v2_depth_duration_MTurk/v2_DepthDuration_HTML.html#53,53,1920,955,1920,1080,8-22-2022,7-58-28,3,depth_duration_stimuli/001136_2014-06-17_15-19-41_260595134347_rgbf000076-resize_3/001136_2014-06-17_15-19-41_260595134347_rgbf000076-resize_3-target.png,1000,1.8655,5,5025,1004,feet,jsons/v1_VE1000_randls_5_rotated.json,736558,892065,43,Man
3,531629,DepthScenes,duration_manipulation_targetAtFixation,jsons/v1_VE1000_randls_5_rotated.json,http://54.235.29.9/FacialAge/BNav_EC2/DepthDuration/v2_depth_duration_MTurk/v2_DepthDuration_HTML.html#53,53,1920,955,1920,1080,8-22-2022,7-58-28,4,depth_duration_stimuli/001164_2014-06-17_15-35-46_260595134347_rgbf000085-resize_3/001164_2014-06-17_15-35-46_260595134347_rgbf000085-resize_3-target.png,1000,2.354,5,3675,1000,feet,jsons/v1_VE1000_randls_5_rotated.json,736558,892065,43,Man
4,531629,DepthScenes,duration_manipulation_targetAtFixation,jsons/v1_VE1000_randls_5_rotated.json,http://54.235.29.9/FacialAge/BNav_EC2/DepthDuration/v2_depth_duration_MTurk/v2_DepthDuration_HTML.html#53,53,1920,955,1920,1080,8-22-2022,7-58-28,5,depth_duration_stimuli/002953_2014-06-08_17-32-18_094959634447_rgbf000059-resize_5/002953_2014-06-08_17-32-18_094959634447_rgbf000059-resize_5-target.png,1000,1.551,4,2924,1006,feet,jsons/v1_VE1000_randls_5_rotated.json,736558,892065,43,Man
5,531629,DepthScenes,duration_manipulation_targetAtFixation,jsons/v1_VE1000_randls_5_rotated.json,http://54.235.29.9/FacialAge/BNav_EC2/DepthDuration/v2_depth_duration_MTurk/v2_DepthDuration_HTML.html#53,53,1920,955,1920,1080,8-22-2022,7-58-28,6,depth_duration_stimuli/000878_2014-06-08_22-52-45_260595134347_rgbf000045-resize_2/000878_2014-06-08_22-52-45_260595134347_rgbf000045-resize_2-target.png,1000,2.092,6,4601,995,feet,jsons/v1_VE1000_randls_5_rotated.json,736558,892065,43,Man
6,531629,DepthScenes,duration_manipulation_targetAtFixation,jsons/v1_VE1000_randls_5_rotated.json,http://54.235.29.9/FacialAge/BNav_EC2/DepthDuration/v2_depth_duration_MTurk/v2_DepthDuration_HTML.html#53,53,1920,955,1920,1080,8-22-2022,7-58-28,7,depth_duration_stimuli/001828_2014-06-26_21-40-03_260595134347_rgbf000024-resize_0/001828_2014-06-26_21-40-03_260595134347_rgbf000024-resize_0-target.png,1000,4.8260000000000005,10,3458,994,feet,jsons/v1_VE1000_randls_5_rotated.json,736558,892065,43,Man
7,531629,DepthScenes,duration_manipulation_targetAtFixation,jsons/v1_VE1000_randls_5_rotated.json,http://54.235.29.9/FacialAge/BNav_EC2/DepthDuration/v2_depth_duration_MTurk/v2_DepthDuration_HTML.html#53,53,1920,955,1920,1080,8-22-2022,7-58-28,8,depth_duration_stimuli/000009_2014-05-26_14-32-05_260595134347_rgbf000034-resize_3/000009_2014-05-26_14-32-05_260595134347_rgbf000034-resize_3-target.png,1000,3.8715,14,3729,1004,feet,jsons/v1_VE1000_randls_5_rotated.json,736558,892065,43,Man
8,531629,DepthScenes,duration_manipulation_targetAtFixation,jsons/v1_VE1000_randls_5_rotated.json,http://54.235.29.9/FacialAge/BNav_EC2/DepthDuration/v2_depth_duration_MTurk/v2_DepthDuration_HTML.html#53,53,1920,955,1920,1080,8-22-2022,7-58-28,9,depth_duration_stimuli/000409_2014-06-04_19-23-33_260595134347_rgbf000067-resize_0/000409_2014-06-04_19-23-33_260595134347_rgbf000067-resize_0-target.png,1000,3.7335,12,3209,1001,feet,jsons/v1_VE1000_randls_5_rotated.json,736558,892065,43,Man
9,531629,DepthScenes,duration_manipulation_targetAtFixation,jsons/v1_VE1000_randls_5_rotated.json,http://54.235.29.9/FacialAge/BNav_EC2/DepthDuration/v2_depth_duration_MTurk/v2_DepthDuration_HTML.html#53,53,1920,955,1920,1080,8-22-2022,7-58-28,10,depth_duration_stimuli/002663_2014-06-13_15-50-26_094959634447_rgbf000075-resize_1/002663_2014-06-13_15-50-26_094959634447_rgbf000075-resize_1-target.png,1000,4.7495,15,4152,991,feet,jsons/v1_VE1000_randls_5_rotated.json,736558,892065,43,Man
10,531629,DepthScenes,duration_manipulation_targetAtFixation,jsons/v1_VE1000_randls_5_rotated.json,http://54.235.29.9/FacialAge/BNav_EC2/DepthDuration/v2_depth_duration_MTurk/v2_DepthDuration_HTML.html#53,53,1920,955,1920,1080,8-22-2022,7-58-28,11,depth_duration_stimuli/001052_2014-06-08_18-24-54_260595134347_rgbf000130-resize_1/001052_2014-06-08_18-24-54_260595134347_rgbf000130-resize_1-target.png,1000,4.1045,10,5165,1004,feet,jsons/v1_VE1000_randls_5_rotated.json,736558,892065,43,Man
11,531629,DepthScenes,duration_manipulation_targetAtFixation,jsons/v1_VE1000_randls_5_rotated.json,http://54.235.29.9/FacialAge/BNav_EC2/DepthDuration/v2_depth_duration_MTurk/v2_DepthDuration_HTML.html#53,53,1920,955,1920,1080,8-22-2022,7-58-28,12,depth_duration_stimuli/002988_2014-06-15_12-24-20_094959634447_rgbf000150-resize_1/002988_2014-06-15_12-24-20_094959634447_rgbf000150-resize_1-target.png,1000,4.7669999999999995,10,3473,980,feet,jsons/v1_VE1000_randls_5_rotated.json,736558,892065,43,Man
12,531629,DepthScenes,duration_manipulation_targetAtFixation,jsons/v1_VE1000_randls_5_rotated.json,http://54.235.29.9/FacialAge/BNav_EC2/DepthDuration/v2_depth_duration_MTurk/v2_DepthDuration_HTML.html#53,53,1920,955,1920,1080,8-22-2022,7-58-28,13,depth_duration_stimuli/003048_2014-06-15_13-49-43_094959634447_rgbf000150-resize_1/003048_2014-06-15_13-49-43_094959634447_rgbf000150-resize_1-target.png,1000,4.0035,12,4001,987,feet,jsons/v1_VE1000_randls_5_rotated.json,736558,892065,43,Man
13,531629,DepthScenes,duration_manipulation_targetAtFixation,jsons/v1_VE1000_randls_5_rotated.json,http://54.235.29.9/FacialAge/BNav_EC2/DepthDuration/v2_depth_duration_MTurk/v2_DepthDuration_HTML.html#53,53,1920,955,1920,1080,8-22-2022,7-58-28,14,depth_duration_stimuli/002043_2014-06-24_20-29-38_260595134347_rgbf000039-resize_4/002043_2014-06-24_20-29-38_260595134347_rgbf000039-resize_4-target.png,1000,2.8435,6,3750,995,feet,jsons/v1_VE1000_randls_5_rotated.json,736558,892065,43,Man
14,531629,DepthScenes,duration_manipulation_targetAtFixation,jsons/v1_VE1000_randls_5_rotated.json,http://54.235.29.9/FacialAge/BNav_EC2/DepthDuration/v2_depth_duration_MTurk/v2_DepthDuration_HTML.html#53,53,1920,955,1920,1080,8-22-2022,7-58-28,15,depth_duration_stimuli/000665_2014-06-09_20-42-35_260595134347_rgbf000110-resize_1/000665_2014-06-09_20-42-35_260595134347_rgbf000110-resize_1-target.png,1000,3.057,8,3075,1003,feet,jsons/v1_VE1000_randls_5_rotated.json,736558,892065,43,Man
15,531629,DepthScenes,duration_manipulation_targetAtFixation,jsons/v1_VE1000_randls_5_rotated.json,http://54.235.29.9/FacialAge/BNav_EC2/DepthDuration/v2_depth_duration_MTurk/v2_DepthDuration_HTML.html#53,53,1920,955,1920,1080,8-22-2022,7-58-28,16,depth_duration_stimuli/001150_2014-06-17_15-27-34_260595134347_rgbf000108-resize_2/001150_2014-06-17_15-27-34_260595134347_rgbf000108-resize_2-target.png,1000,4.0325,10,3201,1003,feet,jsons/v1_VE1000_randls_5_rotated.json,736558,892065,43,Man
16,531629,DepthScenes,duration_manipulation_targetAtFixation,jsons/v1_VE1000_randls_5_rotated.json,http://54.235.29.9/FacialAge/BNav_EC2/DepthDuration/v2_depth_duration_MTurk/v2_DepthDuration_HTML.html#53,53,1920,955,1920,1080,8-22-2022,7-58-28,17,depth_duration_stimuli/002875_2014-06-01_15-19-00_094959634447_rgbf000151-resize_1/002875_2014-06-01_15-19-00_094959634447_rgbf000151-resize_1-target.png,1000,1.9675,6,3893,988,feet,jsons/v1_VE1000_randls_5_rotated.json,736558,892065,43,Man
17,531629,DepthScenes,duration_manipulation_targetAtFixation,jsons/v1_VE1000_randls_5_rotated.json,http://54.235.29.9/FacialAge/BNav_EC2/DepthDuration/v2_depth_duration_MTurk/v2_DepthDuration_HTML.html#53,53,1920,955,1920,1080,8-22-2022,7-58-28,18,depth_duration_stimuli/001011_2014-06-08_23-18-54_260595134347_rgbf000044-resize_4/001011_2014-06-08_23-18-54_260595134347_rgbf000044-resize_4-target.png,1000,2.4730000000000003,10,2846,1002,feet,jsons/v1_VE1000_randls_5_rotated.json,736558,892065,43,Man
18,531629,DepthScenes,duration_manipulation_targetAtFixation,jsons/v1_VE1000_randls_5_rotated.json,http://54.235.29.9/FacialAge/BNav_EC2/DepthDuration/v2_depth_duration_MTurk/v2_DepthDuration_HTML.html#53,53,1920,955,1920,1080,8-22-2022,7-58-28,19,depth_duration_stimuli/001498_2014-06-19_17-45-14_260595134347_rgbf000129-resize_4/001498_2014-06-19_17-45-14_260595134347_rgbf000129-resize-original.jpg,1000,1.4075,0,3496,1003,feet,jsons/v1_VE1000_randls_5_rotated.json,736558,892065,43,Man
19,531629,DepthScenes,duration_manipulation_targetAtFixation,jsons/v1_VE1000_randls_5_rotated.json,http://54.235.29.9/FacialAge/BNav_EC2/DepthDuration/v2_depth_duration_MTurk/v2_DepthDuration_HTML.html#53,53,1920,955,1920,1080,8-22-2022,7-58-28,20,depth_duration_stimuli/000927_2014-06-09_16-32-30_260595134347_rgbf000123-resize_3/000927_2014-06-09_16-32-30_260595134347_rgbf000123-resize_3-target.png,1000,2.6785,8,3196,1003,feet,jsons/v1_VE1000_randls_5_rotated.json,736558,892065,43,Man
20,531629,DepthScenes,duration_manipulation_targetAtFixation,jsons/v1_VE1000_randls_5_rotated.json,http://54.235.29.9/FacialAge/BNav_EC2/DepthDuration/v2_depth_duration_MTurk/v2_DepthDuration_HTML.html#53,53,1920,955,1920,1080,8-22-2022,7-58-28,21,depth_duration_stimuli/001110_2014-06-15_17-25-28_260595134347_rgbf000150-resize_1/001110_2014-06-15_17-25-28_260595134347_rgbf000150-resize_1-target.png,1000,1.7115,6,2949,1003,feet,jsons/v1_VE1000_randls_5_rotated.json,736558,892065,43,Man
21,531629,DepthScenes,duration_manipulation_targetAtFixation,jsons/v1_VE1000_randls_5_rotated.json,http://54.235.29.9/FacialAge/BNav_EC2/DepthDuration/v2_depth_duration_MTurk/v2_DepthDuration_HTML.html#53,53,1920,955,1920,1080,8-22-2022,7-58-28,22,depth_duration_stimuli/003338_2014-05-20_11-01-23_094959634447_rgbf000051-resize_6/003338_2014-05-20_11-01-23_094959634447_rgbf000051-resize_6-target.png,1000,1.693,4,2663,992,feet,jsons/v1_VE1000_randls_5_rotated.json,736558,892065,43,Man
22,531629,DepthScenes,duration_manipulation_targetAtFixation,jsons/v1_VE1000_randls_5_rotated.json,http://54.235.29.9/FacialAge/BNav_EC2/DepthDuration/v2_depth_duration_MTurk/v2_DepthDuration_HTML.html#53,53,1920,955,1920,1080,8-22-2022,7-58-28,23,depth_duration_stimuli/002509_2014-06-24_13-19-22_094959634447_rgbf000077-resize_0/002509_2014-06-24_13-19-22_094959634447_rgbf000077-resize_0-target.png,1000,1.3065,4,2399,997,feet,jsons/v1_VE1000_randls_5_rotated.json,736558,892065,43,Man
23,531629,DepthScenes,duration_manipulation_targetAtFixation,jsons/v1_VE1000_randls_5_rotated.json,http://54.235.29.9/FacialAge/BNav_EC2/DepthDuration/v2_depth_duration_MTurk/v2_DepthDuration_HTML.html#53,53,1920,955,1920,1080,8-22-2022,7-58-28,24,depth_duration_stimuli/002103_2014-06-25_20-00-40_260595134347_rgbf000049-resize_0/002103_2014-06-25_20-00-40_260595134347_rgbf000049-resize_0-target.png,1000,4.105,10,4546,1001,feet,jsons/v1_VE1000_randls_5_rotated.json,736558,892065,43,Man
24,531629,DepthScenes,duration_manipulation_targetAtFixation,jsons/v1_VE1000_randls_5_rotated.json,http://54.235.29.9/FacialAge/BNav_EC2/DepthDuration/v2_depth_duration_MTurk/v2_DepthDuration_HTML.html#53,53,1920,955,1920,1080,8-22-2022,7-58-28,25,depth_duration_stimuli/002039_2014-06-24_20-22-38_260595134347_rgbf000084-resize_1/002039_2014-06-24_20-22-38_260595134347_rgbf000084-resize_1-target.png,1000,4.408,14,3408,994,feet,jsons/v1_VE1000_randls_5_rotated.json,736558,892065,43,Man
25,531629,DepthScenes,duration_manipulation_targetAtFixation,jsons/v1_VE1000_randls_5_rotated.json,http://54.235.29.9/FacialAge/BNav_EC2/DepthDuration/v2_depth_duration_MTurk/v2_DepthDuration_HTML.html#53,53,1920,955,1920,1080,8-22-2022,7-58-28,26,depth_duration_stimuli/002750_2014-06-22_19-08-03_094959634447_rgbf000094-resize_4/002750_2014-06-22_19-08-03_094959634447_rgbf000094-resize_4-target.png,1000,2.354,0,83404,999,feet,jsons/v1_VE1000_randls_5_rotated.json,736558,892065,43,Man
26,531629,DepthScenes,duration_manipulation_targetAtFixation,jsons/v1_VE1000_randls_5_rotated.json,http://54.235.29.9/FacialAge/BNav_EC2/DepthDuration/v2_depth_duration_MTurk/v2_DepthDuration_HTML.html#53,53,1920,955,1920,1080,8-22-2022,7-58-28,27,depth_duration_stimuli/002549_2014-06-24_13-41-39_094959634447_rgbf000022-resize_3/002549_2014-06-24_13-41-39_094959634447_rgbf000022-resize_3-target.png,1000,1.476,3,3420,999,feet,jsons/v1_VE1000_randls_5_rotated.json,736558,892065,43,Man
27,531629,DepthScenes,duration_manipulation_targetAtFixation,jsons/v1_VE1000_randls_5_rotated.json,http://54.235.29.9/FacialAge/BNav_EC2/DepthDuration/v2_depth_duration_MTurk/v2_DepthDuration_HTML.html#53,53,1920,955,1920,1080,8-22-2022,7-58-28,28,depth_duration_stimuli/000677_2014-06-08_23-10-32_260595134347_rgbf000158-resize_6/000677_2014-06-08_23-10-32_260595134347_rgbf000158-resize_6-target.png,1000,3.556,8,3519,1003,feet,jsons/v1_VE1000_randls_5_rotated.json,736558,892065,43,Man
28,531629,DepthScenes,duration_manipulation_targetAtFixation,jsons/v1_VE1000_randls_5_rotated.json,http://54.235.29.9/FacialAge/BNav_EC2/DepthDuration/v2_depth_duration_MTurk/v2_DepthDuration_HTML.html#53,53,1920,955,1920,1080,8-22-2022,7-58-28,29,depth_duration_stimuli/001029_2014-06-08_13-17-57_260595134347_rgbf000065-resize_1/001029_2014-06-08_13-17-57_260595134347_rgbf000065-resize_1-target.png,1000,3.0835,8,3209,1000,feet,jsons/v1_VE1000_randls_5_rotated.json,736558,892065,43,Man
29,531629,DepthScenes,duration_manipulation_targetAtFixation,jsons/v1_VE1000_randls_5_rotated.json,http://54.235.29.9/FacialAge/BNav_EC2/DepthDuration/v2_depth_duration_MTurk/v2_DepthDuration_HTML.html#53,53,1920,955,1920,1080,8-22-2022,7-58-28,30,depth_duration_stimuli/002072_2014-06-24_21-48-06_260595134347_rgbf000115-resize_0/002072_2014-06-24_21-48-06_260595134347_rgbf000115-resize-original.jpg,1000,4.702,0,4175,1002,feet,jsons/v1_VE1000_randls_5_rotated.json,736558,892065,43,Man
30,531629,DepthScenes,duration_manipulation_targetAtFixation,jsons/v1_VE1000_randls_5_rotated.json,http://54.235.29.9/FacialAge/BNav_EC2/DepthDuration/v2_depth_duration_MTurk/v2_DepthDuration_HTML.html#53,53,1920,955,1920,1080,8-22-2022,7-58-28,31,depth_duration_stimuli/001100_2014-06-15_17-46-26_260595134347_rgbf000225-resize_2/001100_2014-06-15_17-46-26_260595134347_rgbf000225-resize_2-target.png,1000,2.24,5,3489,1002,feet,jsons/v1_VE1000_randls_5_rotated.json,736558,892065,43,Man
31,531629,DepthScenes,duration_manipulation_targetAtFixation,jsons/v1_VE1000_randls_5_rotated.json,http://54.235.29.9/FacialAge/BNav_EC2/DepthDuration/v2_depth_duration_MTurk/v2_DepthDuration_HTML.html#53,53,1920,955,1920,1080,8-22-2022,7-58-28,32,depth_duration_stimuli/002784_2014-06-22_19-26-30_094959634447_rgbf000083-resize_3/002784_2014-06-22_19-26-30_094959634447_rgbf000083-resize_3-target.png,1000,1.8046666666667,5,4117,1002,feet,jsons/v1_VE1000_randls_5_rotated.json,736558,892065,43,Man
32,531629,DepthScenes,duration_manipulation_targetAtFixation,jsons/v1_VE1000_randls_5_rotated.json,http://54.235.29.9/FacialAge/BNav_EC2/DepthDuration/v2_depth_duration_MTurk/v2_DepthDuration_HTML.html#53,53,1920,955,1920,1080,8-22-2022,7-58-28,33,depth_duration_stimuli/000742_2014-06-08_18-48-09_260595134347_rgbf000164-resize_4/000742_2014-06-08_18-48-09_260595134347_rgbf000164-resize_4-target.png,1000,4.632,14,3788,1005,feet,jsons/v1_VE1000_randls_5_rotated.json,736558,892065,43,Man
33,531629,DepthScenes,duration_manipulation_targetAtFixation,jsons/v1_VE1000_randls_5_rotated.json,http://54.235.29.9/FacialAge/BNav_EC2/DepthDuration/v2_depth_duration_MTurk/v2_DepthDuration_HTML.html#53,53,1920,955,1920,1080,8-22-2022,7-58-28,34,depth_duration_stimuli/001066_2014-06-08_22-03-20_260595134347_rgbf000066-resize_4/001066_2014-06-08_22-03-20_260595134347_rgbf000066-resize_4-target.png,1000,4.2330000000000005,12,3488,998,feet,jsons/v1_VE1000_randls_5_rotated.json,736558,892065,43,Man
34,531629,DepthScenes,duration_manipulation_targetAtFixation,jsons/v1_VE1000_randls_5_rotated.json,http://54.235.29.9/FacialAge/BNav_EC2/DepthDuration/v2_depth_duration_MTurk/v2_DepthDuration_HTML.html#53,53,1920,955,1920,1080,8-22-2022,7-58-28,35,depth_duration_stimuli/002995_2014-06-15_12-31-26_094959634447_rgbf000150-resize_1/002995_2014-06-15_12-31-26_094959634447_rgbf000150-resize_1-target.png,1000,3.8360000000000003,15,3360,1001,feet,jsons/v1_VE1000_randls_5_rotated.json,736558,892065,43,Man
35,531629,DepthScenes,duration_manipulation_targetAtFixation,jsons/v1_VE1000_randls_5_rotated.json,http://54.235.29.9/FacialAge/BNav_EC2/DepthDuration/v2_depth_duration_MTurk/v2_DepthDuration_HTML.html#53,53,1920,955,1920,1080,8-22-2022,7-58-28,36,depth_duration_stimuli/002748_2014-06-22_19-07-22_094959634447_rgbf000078-resize_1/002748_2014-06-22_19-07-22_094959634447_rgbf000078-resize_1-target.png,1000,4.6705,18,3884,1004,feet,jsons/v1_VE1000_randls_5_rotated.json,736558,892065,43,Man
36,531629,DepthScenes,duration_manipulation_targetAtFixation,jsons/v1_VE1000_randls_5_rotated.json,http://54.235.29.9/FacialAge/BNav_EC2/DepthDuration/v2_depth_duration_MTurk/v2_DepthDuration_HTML.html#53,53,1920,955,1920,1080,8-22-2022,7-58-28,37,depth_duration_stimuli/000943_2014-06-09_19-31-07_260595134347_rgbf000128-resize_1/000943_2014-06-09_19-31-07_260595134347_rgbf000128-resize_1-target.png,1000,1.9765,6,3722,1000,feet,jsons/v1_VE1000_randls_5_rotated.json,736558,892065,43,Man
37,531629,DepthScenes,duration_manipulation_targetAtFixation,jsons/v1_VE1000_randls_5_rotated.json,http://54.235.29.9/FacialAge/BNav_EC2/DepthDuration/v2_depth_duration_MTurk/v2_DepthDuration_HTML.html#53,53,1920,955,1920,1080,8-22-2022,7-58-28,38,depth_duration_stimuli/003070_2014-06-15_14-58-27_094959634447_rgbf000150-resize_3/003070_2014-06-15_14-58-27_094959634447_rgbf000150-resize_3-target.png,1000,2.9415,8,3567,1002,feet,jsons/v1_VE1000_randls_5_rotated.json,736558,892065,43,Man
38,531629,DepthScenes,duration_manipulation_targetAtFixation,jsons/v1_VE1000_randls_5_rotated.json,http://54.235.29.9/FacialAge/BNav_EC2/DepthDuration/v2_depth_duration_MTurk/v2_DepthDuration_HTML.html#53,53,1920,955,1920,1080,8-22-2022,7-58-28,39,depth_duration_stimuli/000780_2014-06-08_22-28-29_260595134347_rgbf000126-resize_1/000780_2014-06-08_22-28-29_260595134347_rgbf000126-resize_1-target.png,1000,3.3825,10,3563,1007,feet,jsons/v1_VE1000_randls_5_rotated.json,736558,892065,43,Man
39,531629,DepthScenes,duration_manipulation_targetAtFixation,jsons/v1_VE1000_randls_5_rotated.json,http://54.235.29.9/FacialAge/BNav_EC2/DepthDuration/v2_depth_duration_MTurk/v2_DepthDuration_HTML.html#53,53,1920,955,1920,1080,8-22-2022,7-58-28,40,depth_duration_stimuli/002445_2014-06-28_20-32-16_260595134347_rgbf000029-resize_4/002445_2014-06-28_20-32-16_260595134347_rgbf000029-resize_4-target.png,1000,2.5315,10,3452,1016,feet,jsons/v1_VE1000_randls_5_rotated.json,736558,892065,43,Man
40,531629,DepthScenes,duration_manipulation_targetAtFixation,jsons/v1_VE1000_randls_5_rotated.json,http://54.235.29.9/FacialAge/BNav_EC2/DepthDuration/v2_depth_duration_MTurk/v2_DepthDuration_HTML.html#53,53,1920,955,1920,1080,8-22-2022,7-58-28,41,depth_duration_stimuli/002949_2014-06-26_15-57-42_094959634447_rgbf000079-resize_1/002949_2014-06-26_15-57-42_094959634447_rgbf000079-resize_1-target.png,1000,1.8915,6,3598,997,feet,jsons/v1_VE1000_randls_5_rotated.json,736558,892065,43,Man
41,531629,DepthScenes,duration_manipulation_targetAtFixation,jsons/v1_VE1000_randls_5_rotated.json,http://54.235.29.9/FacialAge/BNav_EC2/DepthDuration/v2_depth_duration_MTurk/v2_DepthDuration_HTML.html#53,53,1920,955,1920,1080,8-22-2022,7-58-28,42,depth_duration_stimuli/000522_2014-06-08_13-35-06_260595134347_rgbf000244-resize_1/000522_2014-06-08_13-35-06_260595134347_rgbf000244-resize_1-target.png,1000,2.3715,4,3138,1001,feet,jsons/v1_VE1000_randls_5_rotated.json,736558,892065,43,Man
42,531629,DepthScenes,duration_manipulation_targetAtFixation,jsons/v1_VE1000_randls_5_rotated.json,http://54.235.29.9/FacialAge/BNav_EC2/DepthDuration/v2_depth_duration_MTurk/v2_DepthDuration_HTML.html#53,53,1920,955,1920,1080,8-22-2022,7-58-28,43,depth_duration_stimuli/000866_2014-06-09_20-45-42_260595134347_rgbf000139-resize_1/000866_2014-06-09_20-45-42_260595134347_rgbf000139-resize_1-target.png,1000,3.2155,8,3682,1002,feet,jsons/v1_VE1000_randls_5_rotated.json,736558,892065,43,Man
43,531629,DepthScenes,duration_manipulation_targetAtFixation,jsons/v1_VE1000_randls_5_rotated.json,http://54.235.29.9/FacialAge/BNav_EC2/DepthDuration/v2_depth_duration_MTurk/v2_DepthDuration_HTML.html#53,53,1920,955,1920,1080,8-22-2022,7-58-28,44,depth_duration_stimuli/002989_2014-06-15_12-25-03_094959634447_rgbf000150-resize_3/002989_2014-06-15_12-25-03_094959634447_rgbf000150-resize_3-target.png,1000,4.1975,12,3371,988,feet,jsons/v1_VE1000_randls_5_rotated.json,736558,892065,43,Man
44,531629,DepthScenes,duration_manipulation_targetAtFixation,jsons/v1_VE1000_randls_5_rotated.json,http://54.235.29.9/FacialAge/BNav_EC2/DepthDuration/v2_depth_duration_MTurk/v2_DepthDuration_HTML.html#53,53,1920,955,1920,1080,8-22-2022,7-58-28,45,depth_duration_stimuli/002414_2014-06-28_20-24-58_260595134347_rgbf000067-resize_4/002414_2014-06-28_20-24-58_260595134347_rgbf000067-resize_4-target.png,1000,4.363,14,3314,988,feet,jsons/v1_VE1000_randls_5_rotated.json,736558,892065,43,Man
45,531629,DepthScenes,duration_manipulation_targetAtFixation,jsons/v1_VE1000_randls_5_rotated.json,http://54.235.29.9/FacialAge/BNav_EC2/DepthDuration/v2_depth_duration_MTurk/v2_DepthDuration_HTML.html#53,53,1920,955,1920,1080,8-22-2022,7-58-28,46,depth_duration_stimuli/000773_2014-06-08_22-24-54_260595134347_rgbf000093-resize_1/000773_2014-06-08_22-24-54_260595134347_rgbf000093-resize_1-target.png,1000,4.973,8,5247,1003,feet,jsons/v1_VE1000_randls_5_rotated.json,736558,892065,43,Man
46,531629,DepthScenes,duration_manipulation_targetAtFixation,jsons/v1_VE1000_randls_5_rotated.json,http://54.235.29.9/FacialAge/BNav_EC2/DepthDuration/v2_depth_duration_MTurk/v2_DepthDuration_HTML.html#53,53,1920,955,1920,1080,8-22-2022,7-58-28,47,depth_duration_stimuli/000749_2014-06-08_21-55-06_260595134347_rgbf000070-resize_2/000749_2014-06-08_21-55-06_260595134347_rgbf000070-resize_2-target.png,1000,2.331,8,3082,1002,feet,jsons/v1_VE1000_randls_5_rotated.json,736558,892065,43,Man
47,531629,DepthScenes,duration_manipulation_targetAtFixation,jsons/v1_VE1000_randls_5_rotated.json,http://54.235.29.9/FacialAge/BNav_EC2/DepthDuration/v2_depth_duration_MTurk/v2_DepthDuration_HTML.html#53,53,1920,955,1920,1080,8-22-2022,7-58-28,48,depth_duration_stimuli/002788_2014-06-22_19-36-03_094959634447_rgbf000088-resize_2/002788_2014-06-22_19-36-03_094959634447_rgbf000088-resize_2-target.png,1000,1.6465,10,3387,1004,feet,jsons/v1_VE1000_randls_5_rotated.json,736558,892065,43,Man
48,531629,DepthScenes,duration_manipulation_targetAtFixation,jsons/v1_VE1000_randls_5_rotated.json,http://54.235.29.9/FacialAge/BNav_EC2/DepthDuration/v2_depth_duration_MTurk/v2_DepthDuration_HTML.html#53,53,1920,955,1920,1080,8-22-2022,7-58-28,49,depth_duration_stimuli/001170_2014-06-17_15-43-44_260595134347_rgbf000096-resize_6/001170_2014-06-17_15-43-44_260595134347_rgbf000096-resize-original.jpg,1000,1.1909999999999998,0,3221,1003,feet,jsons/v1_VE1000_randls_5_rotated.json,736558,892065,43,Man
49,531629,DepthScenes,duration_manipulation_targetAtFixation,jsons/v1_VE1000_randls_5_rotated.json,http://54.235.29.9/FacialAge/BNav_EC2/DepthDuration/v2_depth_duration_MTurk/v2_DepthDuration_HTML.html#53,53,1920,955,1920,1080,8-22-2022,7-58-28,50,depth_duration_stimuli/002209_2014-06-28_18-36-10_260595134347_rgbf000051-resize_1/002209_2014-06-28_18-36-10_260595134347_rgbf000051-resize_1-target.png,1000,2.057,7,4709,1001,feet,jsons/v1_VE1000_randls_5_rotated.json,736558,892065,43,Man
50,531629,DepthScenes,duration_manipulation_targetAtFixation,jsons/v1_VE1000_randls_5_rotated.json,http://54.235.29.9/FacialAge/BNav_EC2/DepthDuration/v2_depth_duration_MTurk/v2_DepthDuration_HTML.html#53,53,1920,955,1920,1080,8-22-2022,7-58-28,51,depth_duration_stimuli/002763_2014-06-22_19-13-10_094959634447_rgbf000075-resize_4/002763_2014-06-22_19-13-10_094959634447_rgbf000075-resize_4-target.png,1000,1.68375,6,3029,1003,feet,jsons/v1_VE1000_randls_5_rotated.json,736558,892065,43,Man
51,531629,DepthScenes,duration_manipulation_targetAtFixation,jsons/v1_VE1000_randls_5_rotated.json,http://54.235.29.9/FacialAge/BNav_EC2/DepthDuration/v2_depth_duration_MTurk/v2_DepthDuration_HTML.html#53,53,1920,955,1920,1080,8-22-2022,7-58-28,52,depth_duration_stimuli/002657_2014-06-13_15-29-54_094959634447_rgbf000150-resize_1/002657_2014-06-13_15-29-54_094959634447_rgbf000150-resize_1-target.png,1000,4.919,14,3452,988,feet,jsons/v1_VE1000_randls_5_rotated.json,736558,892065,43,Man
52,531629,DepthScenes,duration_manipulation_targetAtFixation,jsons/v1_VE1000_randls_5_rotated.json,http://54.235.29.9/FacialAge/BNav_EC2/DepthDuration/v2_depth_duration_MTurk/v2_DepthDuration_HTML.html#53,53,1920,955,1920,1080,8-22-2022,7-58-28,53,depth_duration_stimuli/002375_2014-06-28_20-13-44_260595134347_rgbf000032-resize_1/002375_2014-06-28_20-13-44_260595134347_rgbf000032-resize_1-target.png,1000,4.0175,10,3242,1002,feet,jsons/v1_VE1000_randls_5_rotated.json,736558,892065,43,Man
53,531629,DepthScenes,duration_manipulation_targetAtFixation,jsons/v1_VE1000_randls_5_rotated.json,http://54.235.29.9/FacialAge/BNav_EC2/DepthDuration/v2_depth_duration_MTurk/v2_DepthDuration_HTML.html#53,53,1920,955,1920,1080,8-22-2022,7-58-28,54,depth_duration_stimuli/000191_2014-05-12_17-07-38_260595134347_rgbf000199-resize_0/000191_2014-05-12_17-07-38_260595134347_rgbf000199-resize_0-target.png,1000,3.7995,12,4490,1002,feet,jsons/v1_VE1000_randls_5_rotated.json,736558,892065,43,Man
54,531629,DepthScenes,duration_manipulation_targetAtFixation,jsons/v1_VE1000_randls_5_rotated.json,http://54.235.29.9/FacialAge/BNav_EC2/DepthDuration/v2_depth_duration_MTurk/v2_DepthDuration_HTML.html#53,53,1920,955,1920,1080,8-22-2022,7-58-28,55,depth_duration_stimuli/000493_2014-06-09_21-01-18_260595134347_rgbf000196-resize_3/000493_2014-06-09_21-01-18_260595134347_rgbf000196-resize_3-target.png,1000,3.44,10,4503,1004,feet,jsons/v1_VE1000_randls_5_rotated.json,736558,892065,43,Man
55,531629,DepthScenes,duration_manipulation_targetAtFixation,jsons/v1_VE1000_randls_5_rotated.json,http://54.235.29.9/FacialAge/BNav_EC2/DepthDuration/v2_depth_duration_MTurk/v2_DepthDuration_HTML.html#53,53,1920,955,1920,1080,8-22-2022,7-58-28,56,depth_duration_stimuli/003129_2014-05-12_10-48-10_094959634447_rgbf000100-resize_0/003129_2014-05-12_10-48-10_094959634447_rgbf000100-resize_0-target.png,1000,4.9305,15,3927,998,feet,jsons/v1_VE1000_randls_5_rotated.json,736558,892065,43,Man
56,531629,DepthScenes,duration_manipulation_targetAtFixation,jsons/v1_VE1000_randls_5_rotated.json,http://54.235.29.9/FacialAge/BNav_EC2/DepthDuration/v2_depth_duration_MTurk/v2_DepthDuration_HTML.html#53,53,1920,955,1920,1080,8-22-2022,7-58-28,57,depth_duration_stimuli/000414_2014-06-04_19-49-13_260595134347_rgbf000044-resize_0/000414_2014-06-04_19-49-13_260595134347_rgbf000044-resize_0-target.png,1000,4.329,18,4414,1002,feet,jsons/v1_VE1000_randls_5_rotated.json,736558,892065,43,Man
57,531629,DepthScenes,duration_manipulation_targetAtFixation,jsons/v1_VE1000_randls_5_rotated.json,http://54.235.29.9/FacialAge/BNav_EC2/DepthDuration/v2_depth_duration_MTurk/v2_DepthDuration_HTML.html#53,53,1920,955,1920,1080,8-22-2022,7-58-28,58,depth_duration_stimuli/002444_2014-06-28_20-32-08_260595134347_rgbf000027-resize_0/002444_2014-06-28_20-32-08_260595134347_rgbf000027-resize_0-target.png,1000,4.388999999999999,16,5757,1003,feet,jsons/v1_VE1000_randls_5_rotated.json,736558,892065,43,Man
58,531629,DepthScenes,duration_manipulation_targetAtFixation,jsons/v1_VE1000_randls_5_rotated.json,http://54.235.29.9/FacialAge/BNav_EC2/DepthDuration/v2_depth_duration_MTurk/v2_DepthDuration_HTML.html#53,53,1920,955,1920,1080,8-22-2022,7-58-28,59,depth_duration_stimuli/000436_2014-06-09_22-25-11_260595134347_rgbf000137-resize_1/000436_2014-06-09_22-25-11_260595134347_rgbf000137-resize_1-target.png,1000,4.0705,16,4281,993,feet,jsons/v1_VE1000_randls_5_rotated.json,736558,892065,43,Man
59,531629,DepthScenes,duration_manipulation_targetAtFixation,jsons/v1_VE1000_randls_5_rotated.json,http://54.235.29.9/FacialAge/BNav_EC2/DepthDuration/v2_depth_duration_MTurk/v2_DepthDuration_HTML.html#53,53,1920,955,1920,1080,8-22-2022,7-58-28,60,depth_duration_stimuli/002678_2014-06-13_16-15-32_094959634447_rgbf000151-resize_6/002678_2014-06-13_16-15-32_094959634447_rgbf000151-resize_6-target.png,1000,2.1830000000000003,8,2896,1001,feet,jsons/v1_VE1000_randls_5_rotated.json,736558,892065,43,Man
60,531629,DepthScenes,duration_manipulation_targetAtFixation,jsons/v1_VE1000_randls_5_rotated.json,http://54.235.29.9/FacialAge/BNav_EC2/DepthDuration/v2_depth_duration_MTurk/v2_DepthDuration_HTML.html#53,53,1920,955,1920,1080,8-22-2022,7-58-28,61,depth_duration_stimuli/000368_2014-06-09_15-53-01_260595134347_rgbf000155-resize_2/000368_2014-06-09_15-53-01_260595134347_rgbf000155-resize_2-target.png,1000,2.4859999999999998,6,3112,1001,feet,jsons/v1_VE1000_randls_5_rotated.json,736558,892065,43,Man
61,531629,DepthScenes,duration_manipulation_targetAtFixation,jsons/v1_VE1000_randls_5_rotated.json,http://54.235.29.9/FacialAge/BNav_EC2/DepthDuration/v2_depth_duration_MTurk/v2_DepthDuration_HTML.html#53,53,1920,955,1920,1080,8-22-2022,7-58-28,62,depth_duration_stimuli/002545_2014-06-24_13-38-53_094959634447_rgbf000080-resize_4/002545_2014-06-24_13-38-53_094959634447_rgbf000080-resize_4-target.png,1000,1.9205,6,3161,994,feet,jsons/v1_VE1000_randls_5_rotated.json,736558,892065,43,Man
62,531629,DepthScenes,duration_manipulation_targetAtFixation,jsons/v1_VE1000_randls_5_rotated.json,http://54.235.29.9/FacialAge/BNav_EC2/DepthDuration/v2_depth_duration_MTurk/v2_DepthDuration_HTML.html#53,53,1920,955,1920,1080,8-22-2022,7-58-28,63,depth_duration_stimuli/001092_2014-06-15_17-34-58_260595134347_rgbf000171-resize_3/001092_2014-06-15_17-34-58_260595134347_rgbf000171-resize_3-target.png,1000,2.6935,5,3788,1002,feet,jsons/v1_VE1000_randls_5_rotated.json,736558,892065,43,Man
63,531629,DepthScenes,duration_manipulation_targetAtFixation,jsons/v1_VE1000_randls_5_rotated.json,http://54.235.29.9/FacialAge/BNav_EC2/DepthDuration/v2_depth_duration_MTurk/v2_DepthDuration_HTML.html#53,53,1920,955,1920,1080,8-22-2022,7-58-28,64,depth_duration_stimuli/002805_2014-06-22_19-54-03_094959634447_rgbf000079-resize_1/002805_2014-06-22_19-54-03_094959634447_rgbf000079-resize_1-target.png,1000,3.1439999999999997,10,2932,1007,feet,jsons/v1_VE1000_randls_5_rotated.json,736558,892065,43,Man
64,531629,DepthScenes,duration_manipulation_targetAtFixation,jsons/v1_VE1000_randls_5_rotated.json,http://54.235.29.9/FacialAge/BNav_EC2/DepthDuration/v2_depth_duration_MTurk/v2_DepthDuration_HTML.html#53,53,1920,955,1920,1080,8-22-2022,7-58-28,65,depth_duration_stimuli/000906_2014-06-08_13-35-43_260595134347_rgbf000155-resize_1/000906_2014-06-08_13-35-43_260595134347_rgbf000155-resize_1-target.png,1000,2.8489999999999998,10,2791,998,feet,jsons/v1_VE1000_randls_5_rotated.json,736558,892065,43,Man
65,531629,DepthScenes,duration_manipulation_targetAtFixation,jsons/v1_VE1000_randls_5_rotated.json,http://54.235.29.9/FacialAge/BNav_EC2/DepthDuration/v2_depth_duration_MTurk/v2_DepthDuration_HTML.html#53,53,1920,955,1920,1080,8-22-2022,7-58-28,66,depth_duration_stimuli/001540_2014-06-20_17-01-05_260595134347_rgbf000086-resize_2/001540_2014-06-20_17-01-05_260595134347_rgbf000086-resize-original.jpg,1000,1.459,0,2909,1003,feet,jsons/v1_VE1000_randls_5_rotated.json,736558,892065,43,Man
66,531629,DepthScenes,duration_manipulation_targetAtFixation,jsons/v1_VE1000_randls_5_rotated.json,http://54.235.29.9/FacialAge/BNav_EC2/DepthDuration/v2_depth_duration_MTurk/v2_DepthDuration_HTML.html#53,53,1920,955,1920,1080,8-22-2022,7-58-28,67,depth_duration_stimuli/001571_2014-06-20_17-21-32_260595134347_rgbf000089-resize_1/001571_2014-06-20_17-21-32_260595134347_rgbf000089-resize_1-target.png,1000,1.86,6,3504,1007,feet,jsons/v1_VE1000_randls_5_rotated.json,736558,892065,43,Man
67,531629,DepthScenes,duration_manipulation_targetAtFixation,jsons/v1_VE1000_randls_5_rotated.json,http://54.235.29.9/FacialAge/BNav_EC2/DepthDuration/v2_depth_duration_MTurk/v2_DepthDuration_HTML.html#53,53,1920,955,1920,1080,8-22-2022,7-58-28,68,depth_duration_stimuli/002272_2014-06-28_18-53-56_260595134347_rgbf000067-resize_2/002272_2014-06-28_18-53-56_260595134347_rgbf000067-resize_2-target.png,1000,1.138,4,3054,1002,feet,jsons/v1_VE1000_randls_5_rotated.json,736558,892065,43,Man
68,531629,DepthScenes,duration_manipulation_targetAtFixation,jsons/v1_VE1000_randls_5_rotated.json,http://54.235.29.9/FacialAge/BNav_EC2/DepthDuration/v2_depth_duration_MTurk/v2_DepthDuration_HTML.html#53,53,1920,955,1920,1080,8-22-2022,7-58-28,69,depth_duration_stimuli/002758_2014-06-22_19-11-20_094959634447_rgbf000128-resize_1/002758_2014-06-22_19-11-20_094959634447_rgbf000128-resize_1-target.png,1000,2.555,6,3160,1002,feet,jsons/v1_VE1000_randls_5_rotated.json,736558,892065,43,Man
69,531629,DepthScenes,duration_manipulation_targetAtFixation,jsons/v1_VE1000_randls_5_rotated.json,http://54.235.29.9/FacialAge/BNav_EC2/DepthDuration/v2_depth_duration_MTurk/v2_DepthDuration_HTML.html#53,53,1920,955,1920,1080,8-22-2022,7-58-28,70,depth_duration_stimuli/002630_2014-06-24_14-47-50_094959634447_rgbf000055-resize_1/002630_2014-06-24_14-47-50_094959634447_rgbf000055-resize_1-target.png,1000,3.0095,15,4095,994,feet,jsons/v1_VE1000_randls_5_rotated.json,736558,892065,43,Man
70,531629,DepthScenes,duration_manipulation_targetAtFixation,jsons/v1_VE1000_randls_5_rotated.json,http://54.235.29.9/FacialAge/BNav_EC2/DepthDuration/v2_depth_duration_MTurk/v2_DepthDuration_HTML.html#53,53,1920,955,1920,1080,8-22-2022,7-58-28,71,depth_duration_stimuli/003081_2014-06-15_15-19-16_094959634447_rgbf000150-resize_1/003081_2014-06-15_15-19-16_094959634447_rgbf000150-resize_1-target.png,1000,3.9125,12,3365,1000,feet,jsons/v1_VE1000_randls_5_rotated.json,736558,892065,43,Man
71,531629,DepthScenes,duration_manipulation_targetAtFixation,jsons/v1_VE1000_randls_5_rotated.json,http://54.235.29.9/FacialAge/BNav_EC2/DepthDuration/v2_depth_duration_MTurk/v2_DepthDuration_HTML.html#53,53,1920,955,1920,1080,8-22-2022,7-58-28,72,depth_duration_stimuli/001417_2014-06-19_16-25-36_260595134347_rgbf000115-resize_5/001417_2014-06-19_16-25-36_260595134347_rgbf000115-resize_5-target.png,1000,4.6255,10,3253,1006,feet,jsons/v1_VE1000_randls_5_rotated.json,736558,892065,43,Man
72,531629,DepthScenes,duration_manipulation_targetAtFixation,jsons/v1_VE1000_randls_5_rotated.json,http://54.235.29.9/FacialAge/BNav_EC2/DepthDuration/v2_depth_duration_MTurk/v2_DepthDuration_HTML.html#53,53,1920,955,1920,1080,8-22-2022,7-58-28,73,depth_duration_stimuli/002467_2014-06-28_20-38-07_260595134347_rgbf000026-resize_2/002467_2014-06-28_20-38-07_260595134347_rgbf000026-resize_2-target.png,1000,4.742,14,3408,1005,feet,jsons/v1_VE1000_randls_5_rotated.json,736558,892065,43,Man
73,531629,DepthScenes,duration_manipulation_targetAtFixation,jsons/v1_VE1000_randls_5_rotated.json,http://54.235.29.9/FacialAge/BNav_EC2/DepthDuration/v2_depth_duration_MTurk/v2_DepthDuration_HTML.html#53,53,1920,955,1920,1080,8-22-2022,7-58-28,74,depth_duration_stimuli/002570_2014-06-24_13-59-54_094959634447_rgbf000059-resize_0/002570_2014-06-24_13-59-54_094959634447_rgbf000059-resize_0-target.png,1000,4.037,12,8529,1005,feet,jsons/v1_VE1000_randls_5_rotated.json,736558,892065,43,Man
74,531629,DepthScenes,duration_manipulation_targetAtFixation,jsons/v1_VE1000_randls_5_rotated.json,http://54.235.29.9/FacialAge/BNav_EC2/DepthDuration/v2_depth_duration_MTurk/v2_DepthDuration_HTML.html#53,53,1920,955,1920,1080,8-22-2022,7-58-28,75,depth_duration_stimuli/000457_2014-06-08_16-52-43_260595134347_rgbf000199-resize_1/000457_2014-06-08_16-52-43_260595134347_rgbf000199-resize_1-target.png,1000,3.6489999999999996,8,3792,1002,feet,jsons/v1_VE1000_randls_5_rotated.json,736558,892065,43,Man
75,531629,DepthScenes,duration_manipulation_targetAtFixation,jsons/v1_VE1000_randls_5_rotated.json,http://54.235.29.9/FacialAge/BNav_EC2/DepthDuration/v2_depth_duration_MTurk/v2_DepthDuration_HTML.html#53,53,1920,955,1920,1080,8-22-2022,7-58-28,76,depth_duration_stimuli/000929_2014-06-09_16-33-19_260595134347_rgbf000139-resize_0/000929_2014-06-09_16-33-19_260595134347_rgbf000139-resize_0-target.png,1000,2.8680000000000003,8,3971,1003,feet,jsons/v1_VE1000_randls_5_rotated.json,736558,892065,43,Man
76,531629,DepthScenes,duration_manipulation_targetAtFixation,jsons/v1_VE1000_randls_5_rotated.json,http://54.235.29.9/FacialAge/BNav_EC2/DepthDuration/v2_depth_duration_MTurk/v2_DepthDuration_HTML.html#53,53,1920,955,1920,1080,8-22-2022,7-58-28,77,depth_duration_stimuli/002639_2014-06-24_14-51-37_094959634447_rgbf000074-resize_4/002639_2014-06-24_14-51-37_094959634447_rgbf000074-resize_4-target.png,1000,4.0375,12,5457,1001,feet,jsons/v1_VE1000_randls_5_rotated.json,736558,892065,43,Man
77,531629,DepthScenes,duration_manipulation_targetAtFixation,jsons/v1_VE1000_randls_5_rotated.json,http://54.235.29.9/FacialAge/BNav_EC2/DepthDuration/v2_depth_duration_MTurk/v2_DepthDuration_HTML.html#53,53,1920,955,1920,1080,8-22-2022,7-58-28,78,depth_duration_stimuli/003292_2014-05-14_21-53-49_094959634447_rgbf000100-resize_2/003292_2014-05-14_21-53-49_094959634447_rgbf000100-resize_2-target.png,1000,3.4815,8,3025,999,feet,jsons/v1_VE1000_randls_5_rotated.json,736558,892065,43,Man
78,531629,DepthScenes,duration_manipulation_targetAtFixation,jsons/v1_VE1000_randls_5_rotated.json,http://54.235.29.9/FacialAge/BNav_EC2/DepthDuration/v2_depth_duration_MTurk/v2_DepthDuration_HTML.html#53,53,1920,955,1920,1080,8-22-2022,7-58-28,79,depth_duration_stimuli/002637_2014-06-24_14-51-13_094959634447_rgbf000066-resize_4/002637_2014-06-24_14-51-13_094959634447_rgbf000066-resize_4-target.png,1000,1.9955,8,3359,1008,feet,jsons/v1_VE1000_randls_5_rotated.json,736558,892065,43,Man
79,531629,DepthScenes,duration_manipulation_targetAtFixation,jsons/v1_VE1000_randls_5_rotated.json,http://54.235.29.9/FacialAge/BNav_EC2/DepthDuration/v2_depth_duration_MTurk/v2_DepthDuration_HTML.html#53,53,1920,955,1920,1080,8-22-2022,7-58-28,80,depth_duration_stimuli/003534_2014-05-22_15-06-10_094959634447_rgbf000102-resize_4/003534_2014-05-22_15-06-10_094959634447_rgbf000102-resize_4-target.png,1000,1.426,3,3236,997,feet,jsons/v1_VE1000_randls_5_rotated.json,736558,892065,43,Man
80,531629,DepthScenes,duration_manipulation_targetAtFixation,jsons/v1_VE1000_randls_5_rotated.json,http://54.235.29.9/FacialAge/BNav_EC2/DepthDuration/v2_depth_duration_MTurk/v2_DepthDuration_HTML.html#53,53,1920,955,1920,1080,8-22-2022,7-58-28,81,depth_duration_stimuli/000137_2014-05-20_17-04-49_260595134347_rgbf000120-resize_1/000137_2014-05-20_17-04-49_260595134347_rgbf000120-resize_1-target.png,1000,3.786,10,2930,1001,feet,jsons/v1_VE1000_randls_5_rotated.json,736558,892065,43,Man
81,531629,DepthScenes,duration_manipulation_targetAtFixation,jsons/v1_VE1000_randls_5_rotated.json,http://54.235.29.9/FacialAge/BNav_EC2/DepthDuration/v2_depth_duration_MTurk/v2_DepthDuration_HTML.html#53,53,1920,955,1920,1080,8-22-2022,7-58-28,82,depth_duration_stimuli/000736_2014-06-08_18-24-15_260595134347_rgbf000206-resize_3/000736_2014-06-08_18-24-15_260595134347_rgbf000206-resize_3-target.png,1000,3.515,8,3987,1007,feet,jsons/v1_VE1000_randls_5_rotated.json,736558,892065,43,Man
82,531629,DepthScenes,duration_manipulation_targetAtFixation,jsons/v1_VE1000_randls_5_rotated.json,http://54.235.29.9/FacialAge/BNav_EC2/DepthDuration/v2_depth_duration_MTurk/v2_DepthDuration_HTML.html#53,53,1920,955,1920,1080,8-22-2022,7-58-28,83,depth_duration_stimuli/002199_2014-06-28_18-33-56_260595134347_rgbf000074-resize_0/002199_2014-06-28_18-33-56_260595134347_rgbf000074-resize_0-target.png,1000,1.996,4,3390,997,feet,jsons/v1_VE1000_randls_5_rotated.json,736558,892065,43,Man
83,531629,DepthScenes,duration_manipulation_targetAtFixation,jsons/v1_VE1000_randls_5_rotated.json,http://54.235.29.9/FacialAge/BNav_EC2/DepthDuration/v2_depth_duration_MTurk/v2_DepthDuration_HTML.html#53,53,1920,955,1920,1080,8-22-2022,7-58-28,84,depth_duration_stimuli/001056_2014-06-08_18-46-44_260595134347_rgbf000068-resize_0/001056_2014-06-08_18-46-44_260595134347_rgbf000068-resize_0-target.png,1000,2.6625,8,2933,1002,feet,jsons/v1_VE1000_randls_5_rotated.json,736558,892065,43,Man
84,531629,DepthScenes,duration_manipulation_targetAtFixation,jsons/v1_VE1000_randls_5_rotated.json,http://54.235.29.9/FacialAge/BNav_EC2/DepthDuration/v2_depth_duration_MTurk/v2_DepthDuration_HTML.html#53,53,1920,955,1920,1080,8-22-2022,7-58-28,85,depth_duration_stimuli/001032_2014-06-08_13-23-17_260595134347_rgbf000021-resize_3/001032_2014-06-08_13-23-17_260595134347_rgbf000021-resize_3-target.png,1000,3.2725,10,2801,989,feet,jsons/v1_VE1000_randls_5_rotated.json,736558,892065,43,Man
85,531629,DepthScenes,duration_manipulation_targetAtFixation,jsons/v1_VE1000_randls_5_rotated.json,http://54.235.29.9/FacialAge/BNav_EC2/DepthDuration/v2_depth_duration_MTurk/v2_DepthDuration_HTML.html#53,53,1920,955,1920,1080,8-22-2022,7-58-28,86,depth_duration_stimuli/001059_2014-06-08_21-53-27_260595134347_rgbf000061-resize_4/001059_2014-06-08_21-53-27_260595134347_rgbf000061-resize_4-target.png,1000,2.4185,8,3010,1002,feet,jsons/v1_VE1000_randls_5_rotated.json,736558,892065,43,Man
86,531629,DepthScenes,duration_manipulation_targetAtFixation,jsons/v1_VE1000_randls_5_rotated.json,http://54.235.29.9/FacialAge/BNav_EC2/DepthDuration/v2_depth_duration_MTurk/v2_DepthDuration_HTML.html#53,53,1920,955,1920,1080,8-22-2022,7-58-28,87,depth_duration_stimuli/001815_2014-06-26_20-52-55_260595134347_rgbf000020-resize_0/001815_2014-06-26_20-52-55_260595134347_rgbf000020-resize_0-target.png,1000,3.3865,12,3351,1009,feet,jsons/v1_VE1000_randls_5_rotated.json,736558,892065,43,Man
87,531629,DepthScenes,duration_manipulation_targetAtFixation,jsons/v1_VE1000_randls_5_rotated.json,http://54.235.29.9/FacialAge/BNav_EC2/DepthDuration/v2_depth_duration_MTurk/v2_DepthDuration_HTML.html#53,53,1920,955,1920,1080,8-22-2022,7-58-28,88,depth_duration_stimuli/001808_2014-06-26_20-50-58_260595134347_rgbf000029-resize_1/001808_2014-06-26_20-50-58_260595134347_rgbf000029-resize_1-target.png,1000,4.249,15,3361,1001,feet,jsons/v1_VE1000_randls_5_rotated.json,736558,892065,43,Man
88,531629,DepthScenes,duration_manipulation_targetAtFixation,jsons/v1_VE1000_randls_5_rotated.json,http://54.235.29.9/FacialAge/BNav_EC2/DepthDuration/v2_depth_duration_MTurk/v2_DepthDuration_HTML.html#53,53,1920,955,1920,1080,8-22-2022,7-58-28,89,depth_duration_stimuli/002136_2014-06-25_21-18-03_260595134347_rgbf000109-resize_3/002136_2014-06-25_21-18-03_260595134347_rgbf000109-resize_3-target.png,1000,1.9569999999999999,6,5196,1005,feet,jsons/v1_VE1000_randls_5_rotated.json,736558,892065,43,Man
89,531629,DepthScenes,duration_manipulation_targetAtFixation,jsons/v1_VE1000_randls_5_rotated.json,http://54.235.29.9/FacialAge/BNav_EC2/DepthDuration/v2_depth_duration_MTurk/v2_DepthDuration_HTML.html#53,53,1920,955,1920,1080,8-22-2022,7-58-28,90,depth_duration_stimuli/002964_2014-06-08_17-46-11_094959634447_rgbf000091-resize_4/002964_2014-06-08_17-46-11_094959634447_rgbf000091-resize_4-target.png,1000,1.6909999999999998,5,3315,1003,feet,jsons/v1_VE1000_randls_5_rotated.json,736558,892065,43,Man
90,531629,DepthScenes,duration_manipulation_targetAtFixation,jsons/v1_VE1000_randls_5_rotated.json,http://54.235.29.9/FacialAge/BNav_EC2/DepthDuration/v2_depth_duration_MTurk/v2_DepthDuration_HTML.html#53,53,1920,955,1920,1080,8-22-2022,7-58-28,91,depth_duration_stimuli/000691_2014-06-08_13-08-50_260595134347_rgbf000132-resize_3/000691_2014-06-08_13-08-50_260595134347_rgbf000132-resize_3-target.png,1000,4.1530000000000005,10,2751,1002,feet,jsons/v1_VE1000_randls_5_rotated.json,736558,892065,43,Man
91,531629,DepthScenes,duration_manipulation_targetAtFixation,jsons/v1_VE1000_randls_5_rotated.json,http://54.235.29.9/FacialAge/BNav_EC2/DepthDuration/v2_depth_duration_MTurk/v2_DepthDuration_HTML.html#53,53,1920,955,1920,1080,8-22-2022,7-58-28,92,depth_duration_stimuli/002213_2014-06-28_18-37-58_260595134347_rgbf000055-resize_1/002213_2014-06-28_18-37-58_260595134347_rgbf000055-resize_1-target.png,1000,3.62,12,3510,1002,feet,jsons/v1_VE1000_randls_5_rotated.json,736558,892065,43,Man
92,531629,DepthScenes,duration_manipulation_targetAtFixation,jsons/v1_VE1000_randls_5_rotated.json,http://54.235.29.9/FacialAge/BNav_EC2/DepthDuration/v2_depth_duration_MTurk/v2_DepthDuration_HTML.html#53,53,1920,955,1920,1080,8-22-2022,7-58-28,93,depth_duration_stimuli/002344_2014-06-28_20-06-29_260595134347_rgbf000030-resize_1/002344_2014-06-28_20-06-29_260595134347_rgbf000030-resize_1-target.png,1000,1.5795,5,3438,1003,feet,jsons/v1_VE1000_randls_5_rotated.json,736558,892065,43,Man
93,531629,DepthScenes,duration_manipulation_targetAtFixation,jsons/v1_VE1000_randls_5_rotated.json,http://54.235.29.9/FacialAge/BNav_EC2/DepthDuration/v2_depth_duration_MTurk/v2_DepthDuration_HTML.html#53,53,1920,955,1920,1080,8-22-2022,7-58-28,94,depth_duration_stimuli/002725_2014-06-22_11-47-51_094959634447_rgbf000070-resize_1/002725_2014-06-22_11-47-51_094959634447_rgbf000070-resize_1-target.png,1000,2.195,8,4224,985,feet,jsons/v1_VE1000_randls_5_rotated.json,736558,892065,43,Man
94,531629,DepthScenes,duration_manipulation_targetAtFixation,jsons/v1_VE1000_randls_5_rotated.json,http://54.235.29.9/FacialAge/BNav_EC2/DepthDuration/v2_depth_duration_MTurk/v2_DepthDuration_HTML.html#53,53,1920,955,1920,1080,8-22-2022,7-58-28,95,depth_duration_stimuli/002660_2014-06-13_15-44-18_094959634447_rgbf001878-resize_2/002660_2014-06-13_15-44-18_094959634447_rgbf001878-resize_2-target.png,1000,3.576,12,2691,1004,feet,jsons/v1_VE1000_randls_5_rotated.json,736558,892065,43,Man
95,531629,DepthScenes,duration_manipulation_targetAtFixation,jsons/v1_VE1000_randls_5_rotated.json,http://54.235.29.9/FacialAge/BNav_EC2/DepthDuration/v2_depth_duration_MTurk/v2_DepthDuration_HTML.html#53,53,1920,955,1920,1080,8-22-2022,7-58-28,96,depth_duration_stimuli/002153_2014-06-25_21-27-18_260595134347_rgbf000038-resize_5/002153_2014-06-25_21-27-18_260595134347_rgbf000038-resize_5-target.png,1000,2.505,8,3319,989,feet,jsons/v1_VE1000_randls_5_rotated.json,736558,892065,43,Man
96,531629,DepthScenes,duration_manipulation_targetAtFixation,jsons/v1_VE1000_randls_5_rotated.json,http://54.235.29.9/FacialAge/BNav_EC2/DepthDuration/v2_depth_duration_MTurk/v2_DepthDuration_HTML.html#53,53,1920,955,1920,1080,8-22-2022,7-58-28,97,depth_duration_stimuli/000854_2014-06-09_19-43-13_260595134347_rgbf000066-resize_0/000854_2014-06-09_19-43-13_260595134347_rgbf000066-resize_0-target.png,1000,3.068,8,2977,1002,feet,jsons/v1_VE1000_randls_5_rotated.json,736558,892065,43,Man
97,531629,DepthScenes,duration_manipulation_targetAtFixation,jsons/v1_VE1000_randls_5_rotated.json,http://54.235.29.9/FacialAge/BNav_EC2/DepthDuration/v2_depth_duration_MTurk/v2_DepthDuration_HTML.html#53,53,1920,955,1920,1080,8-22-2022,7-58-28,98,depth_duration_stimuli/000758_2014-06-08_22-05-08_260595134347_rgbf000085-resize_0/000758_2014-06-08_22-05-08_260595134347_rgbf000085-resize_0-target.png,1000,3.3810000000000002,12,3174,1003,feet,jsons/v1_VE1000_randls_5_rotated.json,736558,892065,43,Man
98,531629,DepthScenes,duration_manipulation_targetAtFixation,jsons/v1_VE1000_randls_5_rotated.json,http://54.235.29.9/FacialAge/BNav_EC2/DepthDuration/v2_depth_duration_MTurk/v2_DepthDuration_HTML.html#53,53,1920,955,1920,1080,8-22-2022,7-58-28,99,depth_duration_stimuli/001222_2014-06-17_16-24-06_260595134347_rgbf000073-resize_0/001222_2014-06-17_16-24-06_260595134347_rgbf000073-resize-original.jpg,1000,1.4385,0,2991,997,feet,jsons/v1_VE1000_randls_5_rotated.json,736558,892065,43,Man
99,531629,DepthScenes,duration_manipulation_targetAtFixation,jsons/v1_VE1000_randls_5_rotated.json,http://54.235.29.9/FacialAge/BNav_EC2/DepthDuration/v2_depth_duration_MTurk/v2_DepthDuration_HTML.html#53,53,1920,955,1920,1080,8-22-2022,7-58-28,100,depth_duration_stimuli/001450_2014-06-19_17-02-03_260595134347_rgbf000203-resize_4/001450_2014-06-19_17-02-03_260595134347_rgbf000203-resize_4-target.png,1000,4.0106666666667,14,4952,991,feet,jsons/v1_VE1000_randls_5_rotated.json,736558,892065,43,Man
100,531629,DepthScenes,duration_manipulation_targetAtFixation,jsons/v1_VE1000_randls_5_rotated.json,http://54.235.29.9/FacialAge/BNav_EC2/DepthDuration/v2_depth_duration_MTurk/v2_DepthDuration_HTML.html#53,53,1920,955,1920,1080,8-22-2022,7-58-28,101,depth_duration_stimuli/001449_2014-06-19_17-01-27_260595134347_rgbf000116-resize_2/001449_2014-06-19_17-01-27_260595134347_rgbf000116-resize_2-target.png,1000,3.452,10,3370,1001,feet,jsons/v1_VE1000_randls_5_rotated.json,736558,892065,43,Man
101,531629,DepthScenes,duration_manipulation_targetAtFixation,jsons/v1_VE1000_randls_5_rotated.json,http://54.235.29.9/FacialAge/BNav_EC2/DepthDuration/v2_depth_duration_MTurk/v2_DepthDuration_HTML.html#53,53,1920,955,1920,1080,8-22-2022,7-58-28,102,depth_duration_stimuli/001214_2014-06-17_16-13-55_260595134347_rgbf000111-resize_0/001214_2014-06-17_16-13-55_260595134347_rgbf000111-resize_0-target.png,1000,2.6505,6,3149,1003,feet,jsons/v1_VE1000_randls_5_rotated.json,736558,892065,43,Man
102,531629,DepthScenes,duration_manipulation_targetAtFixation,jsons/v1_VE1000_randls_5_rotated.json,http://54.235.29.9/FacialAge/BNav_EC2/DepthDuration/v2_depth_duration_MTurk/v2_DepthDuration_HTML.html#53,53,1920,955,1920,1080,8-22-2022,7-58-28,103,depth_duration_stimuli/000810_2014-06-08_17-20-01_260595134347_rgbf000105-resize_0/000810_2014-06-08_17-20-01_260595134347_rgbf000105-resize_0-target.png,1000,1.4865,8,3162,986,feet,jsons/v1_VE1000_randls_5_rotated.json,736558,892065,43,Man
103,531629,DepthScenes,duration_manipulation_targetAtFixation,jsons/v1_VE1000_randls_5_rotated.json,http://54.235.29.9/FacialAge/BNav_EC2/DepthDuration/v2_depth_duration_MTurk/v2_DepthDuration_HTML.html#53,53,1920,955,1920,1080,8-22-2022,7-58-28,104,depth_duration_stimuli/001447_2014-06-19_17-00-32_260595134347_rgbf000082-resize_5/001447_2014-06-19_17-00-32_260595134347_rgbf000082-resize_5-target.png,1000,4.13775,8,3220,1003,feet,jsons/v1_VE1000_randls_5_rotated.json,736558,892065,43,Man
104,531629,DepthScenes,duration_manipulation_targetAtFixation,jsons/v1_VE1000_randls_5_rotated.json,http://54.235.29.9/FacialAge/BNav_EC2/DepthDuration/v2_depth_duration_MTurk/v2_DepthDuration_HTML.html#53,53,1920,955,1920,1080,8-22-2022,7-58-28,105,depth_duration_stimuli/000447_2014-06-08_16-15-46_260595134347_rgbf000130-resize_1/000447_2014-06-08_16-15-46_260595134347_rgbf000130-resize_1-target.png,1000,4.479,14,2972,987,feet,jsons/v1_VE1000_randls_5_rotated.json,736558,892065,43,Man
105,531629,DepthScenes,duration_manipulation_targetAtFixation,jsons/v1_VE1000_randls_5_rotated.json,http://54.235.29.9/FacialAge/BNav_EC2/DepthDuration/v2_depth_duration_MTurk/v2_DepthDuration_HTML.html#53,53,1920,955,1920,1080,8-22-2022,7-58-28,106,depth_duration_stimuli/000635_2014-06-08_16-38-42_260595134347_rgbf000106-resize_1/000635_2014-06-08_16-38-42_260595134347_rgbf000106-resize_1-target.png,1000,2.074,8,3062,1003,feet,jsons/v1_VE1000_randls_5_rotated.json,736558,892065,43,Man
106,531629,DepthScenes,duration_manipulation_targetAtFixation,jsons/v1_VE1000_randls_5_rotated.json,http://54.235.29.9/FacialAge/BNav_EC2/DepthDuration/v2_depth_duration_MTurk/v2_DepthDuration_HTML.html#53,53,1920,955,1920,1080,8-22-2022,7-58-28,107,depth_duration_stimuli/002279_2014-06-28_18-55-32_260595134347_rgbf000040-resize_5/002279_2014-06-28_18-55-32_260595134347_rgbf000040-resize_5-target.png,1000,1.5043333333333,5,2915,1006,feet,jsons/v1_VE1000_randls_5_rotated.json,736558,892065,43,Man
107,531629,DepthScenes,duration_manipulation_targetAtFixation,jsons/v1_VE1000_randls_5_rotated.json,http://54.235.29.9/FacialAge/BNav_EC2/DepthDuration/v2_depth_duration_MTurk/v2_DepthDuration_HTML.html#53,53,1920,955,1920,1080,8-22-2022,7-58-28,108,depth_duration_stimuli/000502_2014-06-08_23-02-32_260595134347_rgbf000063-resize_4/000502_2014-06-08_23-02-32_260595134347_rgbf000063-resize_4-target.png,1000,2.431,6,3438,995,feet,jsons/v1_VE1000_randls_5_rotated.json,736558,892065,43,Man
108,531629,DepthScenes,duration_manipulation_targetAtFixation,jsons/v1_VE1000_randls_5_rotated.json,http://54.235.29.9/FacialAge/BNav_EC2/DepthDuration/v2_depth_duration_MTurk/v2_DepthDuration_HTML.html#53,53,1920,955,1920,1080,8-22-2022,7-58-28,109,depth_duration_stimuli/001199_2014-06-17_16-03-48_260595134347_rgbf000077-resize_0/001199_2014-06-17_16-03-48_260595134347_rgbf000077-resize_0-target.png,1000,3.4375,10,2788,1000,feet,jsons/v1_VE1000_randls_5_rotated.json,736558,892065,43,Man
109,531629,DepthScenes,duration_manipulation_targetAtFixation,jsons/v1_VE1000_randls_5_rotated.json,http://54.235.29.9/FacialAge/BNav_EC2/DepthDuration/v2_depth_duration_MTurk/v2_DepthDuration_HTML.html#53,53,1920,955,1920,1080,8-22-2022,7-58-28,110,depth_duration_stimuli/001392_2014-06-19_16-07-59_260595134347_rgbf000046-resize_1/001392_2014-06-19_16-07-59_260595134347_rgbf000046-resize_1-target.png,1000,4.135,12,2796,1012,feet,jsons/v1_VE1000_randls_5_rotated.json,736558,892065,43,Man
110,531629,DepthScenes,duration_manipulation_targetAtFixation,jsons/v1_VE1000_randls_5_rotated.json,http://54.235.29.9/FacialAge/BNav_EC2/DepthDuration/v2_depth_duration_MTurk/v2_DepthDuration_HTML.html#53,53,1920,955,1920,1080,8-22-2022,7-58-28,111,depth_duration_stimuli/001570_2014-06-20_17-21-09_260595134347_rgbf000135-resize_4/001570_2014-06-20_17-21-09_260595134347_rgbf000135-resize_4-target.png,1000,4.467,14,3168,1006,feet,jsons/v1_VE1000_randls_5_rotated.json,736558,892065,43,Man
111,531629,DepthScenes,duration_manipulation_targetAtFixation,jsons/v1_VE1000_randls_5_rotated.json,http://54.235.29.9/FacialAge/BNav_EC2/DepthDuration/v2_depth_duration_MTurk/v2_DepthDuration_HTML.html#53,53,1920,955,1920,1080,8-22-2022,7-58-28,112,depth_duration_stimuli/003083_2014-06-15_15-21-03_094959634447_rgbf000063-resize_1/003083_2014-06-15_15-21-03_094959634447_rgbf000063-resize_1-target.png,1000,4.1405,20,3424,1006,feet,jsons/v1_VE1000_randls_5_rotated.json,736558,892065,43,Man
112,531629,DepthScenes,duration_manipulation_targetAtFixation,jsons/v1_VE1000_randls_5_rotated.json,http://54.235.29.9/FacialAge/BNav_EC2/DepthDuration/v2_depth_duration_MTurk/v2_DepthDuration_HTML.html#53,53,1920,955,1920,1080,8-22-2022,7-58-28,113,depth_duration_stimuli/000486_2014-06-09_20-47-20_260595134347_rgbf000143-resize_2/000486_2014-06-09_20-47-20_260595134347_rgbf000143-resize_2-target.png,1000,4.8325,15,3220,1003,feet,jsons/v1_VE1000_randls_5_rotated.json,736558,892065,43,Man
113,531629,DepthScenes,duration_manipulation_targetAtFixation,jsons/v1_VE1000_randls_5_rotated.json,http://54.235.29.9/FacialAge/BNav_EC2/DepthDuration/v2_depth_duration_MTurk/v2_DepthDuration_HTML.html#53,53,1920,955,1920,1080,8-22-2022,7-58-28,114,depth_duration_stimuli/003490_2014-05-21_15-50-11_094959634447_rgbf000101-resize_3/003490_2014-05-21_15-50-11_094959634447_rgbf000101-resize_3-target.png,1000,3.6445,14,2758,1003,feet,jsons/v1_VE1000_randls_5_rotated.json,736558,892065,43,Man
114,531629,DepthScenes,duration_manipulation_targetAtFixation,jsons/v1_VE1000_randls_5_rotated.json,http://54.235.29.9/FacialAge/BNav_EC2/DepthDuration/v2_depth_duration_MTurk/v2_DepthDuration_HTML.html#53,53,1920,955,1920,1080,8-22-2022,7-58-28,115,depth_duration_stimuli/001175_2014-06-17_15-45-55_260595134347_rgbf000129-resize_4/001175_2014-06-17_15-45-55_260595134347_rgbf000129-resize_4-target.png,1000,4.255,15,3435,1002,feet,jsons/v1_VE1000_randls_5_rotated.json,736558,892065,43,Man
115,531629,DepthScenes,duration_manipulation_targetAtFixation,jsons/v1_VE1000_randls_5_rotated.json,http://54.235.29.9/FacialAge/BNav_EC2/DepthDuration/v2_depth_duration_MTurk/v2_DepthDuration_HTML.html#53,53,1920,955,1920,1080,8-22-2022,7-58-28,116,depth_duration_stimuli/000556_2014-06-09_22-42-56_260595134347_rgbf000214-resize_1/000556_2014-06-09_22-42-56_260595134347_rgbf000214-resize_1-target.png,1000,4.8415,14,3178,1002,feet,jsons/v1_VE1000_randls_5_rotated.json,736558,892065,43,Man
116,531629,DepthScenes,duration_manipulation_targetAtFixation,jsons/v1_VE1000_randls_5_rotated.json,http://54.235.29.9/FacialAge/BNav_EC2/DepthDuration/v2_depth_duration_MTurk/v2_DepthDuration_HTML.html#53,53,1920,955,1920,1080,8-22-2022,7-58-28,117,depth_duration_stimuli/001158_2014-06-17_15-32-16_260595134347_rgbf000138-resize_2/001158_2014-06-17_15-32-16_260595134347_rgbf000138-resize_2-target.png,1000,4.5315,18,3844,993,feet,jsons/v1_VE1000_randls_5_rotated.json,736558,892065,43,Man
117,531629,DepthScenes,duration_manipulation_targetAtFixation,jsons/v1_VE1000_randls_5_rotated.json,http://54.235.29.9/FacialAge/BNav_EC2/DepthDuration/v2_depth_duration_MTurk/v2_DepthDuration_HTML.html#53,53,1920,955,1920,1080,8-22-2022,7-58-28,118,depth_duration_stimuli/001617_2014-06-20_11-35-32_260595134347_rgbf000066-resize_1/001617_2014-06-20_11-35-32_260595134347_rgbf000066-resize_1-target.png,1000,3.7910000000000004,12,3083,1003,feet,jsons/v1_VE1000_randls_5_rotated.json,736558,892065,43,Man
118,531629,DepthScenes,duration_manipulation_targetAtFixation,jsons/v1_VE1000_randls_5_rotated.json,http://54.235.29.9/FacialAge/BNav_EC2/DepthDuration/v2_depth_duration_MTurk/v2_DepthDuration_HTML.html#53,53,1920,955,1920,1080,8-22-2022,7-58-28,119,depth_duration_stimuli/001806_2014-06-26_20-50-20_260595134347_rgbf000091-resize_1/001806_2014-06-26_20-50-20_260595134347_rgbf000091-resize_1-target.png,1000,2.7305,8,3053,1000,feet,jsons/v1_VE1000_randls_5_rotated.json,736558,892065,43,Man
119,531629,DepthScenes,duration_manipulation_targetAtFixation,jsons/v1_VE1000_randls_5_rotated.json,http://54.235.29.9/FacialAge/BNav_EC2/DepthDuration/v2_depth_duration_MTurk/v2_DepthDuration_HTML.html#53,53,1920,955,1920,1080,8-22-2022,7-58-28,120,depth_duration_stimuli/000787_2014-06-08_22-33-53_260595134347_rgbf000175-resize_1/000787_2014-06-08_22-33-53_260595134347_rgbf000175-resize-original.jpg,1000,4.784,0,2714,1001,feet,jsons/v1_VE1000_randls_5_rotated.json,736558,892065,43,Man
120,531629,DepthScenes,duration_manipulation_targetAtFixation,jsons/v1_VE1000_randls_5_rotated.json,http://54.235.29.9/FacialAge/BNav_EC2/DepthDuration/v2_depth_duration_MTurk/v2_DepthDuration_HTML.html#53,53,1920,955,1920,1080,8-22-2022,7-58-28,121,depth_duration_stimuli/001650_2014-06-20_12-09-00_260595134347_rgbf000087-resize_3/001650_2014-06-20_12-09-00_260595134347_rgbf000087-resize_3-target.png,1000,1.9505,3,3210,998,feet,jsons/v1_VE1000_randls_5_rotated.json,736558,892065,43,Man
121,531629,DepthScenes,duration_manipulation_targetAtFixation,jsons/v1_VE1000_randls_5_rotated.json,http://54.235.29.9/FacialAge/BNav_EC2/DepthDuration/v2_depth_duration_MTurk/v2_DepthDuration_HTML.html#53,53,1920,955,1920,1080,8-22-2022,7-58-28,122,depth_duration_stimuli/000682_2014-06-08_23-14-58_260595134347_rgbf000041-resize_5/000682_2014-06-08_23-14-58_260595134347_rgbf000041-resize_5-target.png,1000,2.7239999999999998,8,3093,995,feet,jsons/v1_VE1000_randls_5_rotated.json,736558,892065,43,Man
122,531629,DepthScenes,duration_manipulation_targetAtFixation,jsons/v1_VE1000_randls_5_rotated.json,http://54.235.29.9/FacialAge/BNav_EC2/DepthDuration/v2_depth_duration_MTurk/v2_DepthDuration_HTML.html#53,53,1920,955,1920,1080,8-22-2022,7-58-28,123,depth_duration_stimuli/001132_2014-06-17_14-48-54_260595134347_rgbf000100-resize_2/001132_2014-06-17_14-48-54_260595134347_rgbf000100-resize_2-target.png,1000,3.753,10,2832,988,feet,jsons/v1_VE1000_randls_5_rotated.json,736558,892065,43,Man
123,531629,DepthScenes,duration_manipulation_targetAtFixation,jsons/v1_VE1000_randls_5_rotated.json,http://54.235.29.9/FacialAge/BNav_EC2/DepthDuration/v2_depth_duration_MTurk/v2_DepthDuration_HTML.html#53,53,1920,955,1920,1080,8-22-2022,7-58-28,124,depth_duration_stimuli/001133_2014-06-17_14-49-16_260595134347_rgbf000100-resize_0/001133_2014-06-17_14-49-16_260595134347_rgbf000100-resize_0-target.png,1000,4.2115,12,2535,1001,feet,jsons/v1_VE1000_randls_5_rotated.json,736558,892065,43,Man
124,531629,DepthScenes,duration_manipulation_targetAtFixation,jsons/v1_VE1000_randls_5_rotated.json,http://54.235.29.9/FacialAge/BNav_EC2/DepthDuration/v2_depth_duration_MTurk/v2_DepthDuration_HTML.html#53,53,1920,955,1920,1080,8-22-2022,7-58-28,125,depth_duration_stimuli/001584_2014-06-20_11-07-43_260595134347_rgbf000002-resize_1/001584_2014-06-20_11-07-43_260595134347_rgbf000002-resize_1-target.png,1000,3.53,10,3046,1002,feet,jsons/v1_VE1000_randls_5_rotated.json,736558,892065,43,Man
125,531629,DepthScenes,duration_manipulation_targetAtFixation,jsons/v1_VE1000_randls_5_rotated.json,http://54.235.29.9/FacialAge/BNav_EC2/DepthDuration/v2_depth_duration_MTurk/v2_DepthDuration_HTML.html#53,53,1920,955,1920,1080,8-22-2022,7-58-28,126,depth_duration_stimuli/003621_2014-05-23_18-06-08_094959634447_rgbf000101-resize_1/003621_2014-05-23_18-06-08_094959634447_rgbf000101-resize_1-target.png,1000,3.9835,12,3348,987,feet,jsons/v1_VE1000_randls_5_rotated.json,736558,892065,43,Man
126,531629,DepthScenes,duration_manipulation_targetAtFixation,jsons/v1_VE1000_randls_5_rotated.json,http://54.235.29.9/FacialAge/BNav_EC2/DepthDuration/v2_depth_duration_MTurk/v2_DepthDuration_HTML.html#53,53,1920,955,1920,1080,8-22-2022,7-58-28,127,depth_duration_stimuli/002340_2014-06-28_20-05-46_260595134347_rgbf000113-resize_0/002340_2014-06-28_20-05-46_260595134347_rgbf000113-resize_0-target.png,1000,2.4735,8,5150,1020,feet,jsons/v1_VE1000_randls_5_rotated.json,736558,892065,43,Man
127,531629,DepthScenes,duration_manipulation_targetAtFixation,jsons/v1_VE1000_randls_5_rotated.json,http://54.235.29.9/FacialAge/BNav_EC2/DepthDuration/v2_depth_duration_MTurk/v2_DepthDuration_HTML.html#53,53,1920,955,1920,1080,8-22-2022,7-58-28,128,depth_duration_stimuli/001016_2014-06-09_16-16-10_260595134347_rgbf000112-resize_5/001016_2014-06-09_16-16-10_260595134347_rgbf000112-resize_5-target.png,1000,1.6565,6,4771,1003,feet,jsons/v1_VE1000_randls_5_rotated.json,736558,892065,43,Man
128,531629,DepthScenes,duration_manipulation_targetAtFixation,jsons/v1_VE1000_randls_5_rotated.json,http://54.235.29.9/FacialAge/BNav_EC2/DepthDuration/v2_depth_duration_MTurk/v2_DepthDuration_HTML.html#53,53,1920,955,1920,1080,8-22-2022,7-58-28,129,depth_duration_stimuli/003010_2014-06-15_12-54-35_094959634447_rgbf000112-resize_0/003010_2014-06-15_12-54-35_094959634447_rgbf000112-resize_0-target.png,1000,3.1185,10,2788,1017,feet,jsons/v1_VE1000_randls_5_rotated.json,736558,892065,43,Man
129,531629,DepthScenes,duration_manipulation_targetAtFixation,jsons/v1_VE1000_randls_5_rotated.json,http://54.235.29.9/FacialAge/BNav_EC2/DepthDuration/v2_depth_duration_MTurk/v2_DepthDuration_HTML.html#53,53,1920,955,1920,1080,8-22-2022,7-58-28,130,depth_duration_stimuli/001810_2014-06-26_20-51-35_260595134347_rgbf000040-resize_3/001810_2014-06-26_20-51-35_260595134347_rgbf000040-resize_3-target.png,1000,2.2525,6,3159,1002,feet,jsons/v1_VE1000_randls_5_rotated.json,736558,892065,43,Man
130,531629,DepthScenes,duration_manipulation_targetAtFixation,jsons/v1_VE1000_randls_5_rotated.json,http://54.235.29.9/FacialAge/BNav_EC2/DepthDuration/v2_depth_duration_MTurk/v2_DepthDuration_HTML.html#53,53,1920,955,1920,1080,8-22-2022,7-58-28,131,depth_duration_stimuli/002425_2014-06-28_20-27-29_260595134347_rgbf000031-resize_8/002425_2014-06-28_20-27-29_260595134347_rgbf000031-resize_8-target.png,1000,3.8960000000000004,10,2691,1003,feet,jsons/v1_VE1000_randls_5_rotated.json,736558,892065,43,Man
131,531629,DepthScenes,duration_manipulation_targetAtFixation,jsons/v1_VE1000_randls_5_rotated.json,http://54.235.29.9/FacialAge/BNav_EC2/DepthDuration/v2_depth_duration_MTurk/v2_DepthDuration_HTML.html#53,53,1920,955,1920,1080,8-22-2022,7-58-28,132,depth_duration_stimuli/000642_2014-06-08_16-59-25_260595134347_rgbf000098-resize_2/000642_2014-06-08_16-59-25_260595134347_rgbf000098-resize_2-target.png,1000,2.8815,6,3685,1003,feet,jsons/v1_VE1000_randls_5_rotated.json,736558,892065,43,Man
132,531629,DepthScenes,duration_manipulation_targetAtFixation,jsons/v1_VE1000_randls_5_rotated.json,http://54.235.29.9/FacialAge/BNav_EC2/DepthDuration/v2_depth_duration_MTurk/v2_DepthDuration_HTML.html#53,53,1920,955,1920,1080,8-22-2022,7-58-28,133,depth_duration_stimuli/000734_2014-06-08_17-39-11_260595134347_rgbf000128-resize_2/000734_2014-06-08_17-39-11_260595134347_rgbf000128-resize_2-target.png,1000,4.098,10,3416,1002,feet,jsons/v1_VE1000_randls_5_rotated.json,736558,892065,43,Man
133,531629,DepthScenes,duration_manipulation_targetAtFixation,jsons/v1_VE1000_randls_5_rotated.json,http://54.235.29.9/FacialAge/BNav_EC2/DepthDuration/v2_depth_duration_MTurk/v2_DepthDuration_HTML.html#53,53,1920,955,1920,1080,8-22-2022,7-58-28,134,depth_duration_stimuli/000739_2014-06-08_18-45-58_260595134347_rgbf000068-resize_1/000739_2014-06-08_18-45-58_260595134347_rgbf000068-resize_1-target.png,1000,3.534,10,3592,1003,feet,jsons/v1_VE1000_randls_5_rotated.json,736558,892065,43,Man
134,531629,DepthScenes,duration_manipulation_targetAtFixation,jsons/v1_VE1000_randls_5_rotated.json,http://54.235.29.9/FacialAge/BNav_EC2/DepthDuration/v2_depth_duration_MTurk/v2_DepthDuration_HTML.html#53,53,1920,955,1920,1080,8-22-2022,7-58-28,135,depth_duration_stimuli/000375_2014-06-08_11-17-29_260595134347_rgbf000133-resize_2/000375_2014-06-08_11-17-29_260595134347_rgbf000133-resize-original.jpg,1000,4.718,0,3109,986,feet,jsons/v1_VE1000_randls_5_rotated.json,736558,892065,43,Man
135,531629,DepthScenes,duration_manipulation_targetAtFixation,jsons/v1_VE1000_randls_5_rotated.json,http://54.235.29.9/FacialAge/BNav_EC2/DepthDuration/v2_depth_duration_MTurk/v2_DepthDuration_HTML.html#53,53,1920,955,1920,1080,8-22-2022,7-58-28,136,depth_duration_stimuli/000549_2014-06-08_22-10-24_260595134347_rgbf000247-resize_3/000549_2014-06-08_22-10-24_260595134347_rgbf000247-resize_3-target.png,1000,1.841,5,3075,1002,feet,jsons/v1_VE1000_randls_5_rotated.json,736558,892065,43,Man
136,531629,DepthScenes,duration_manipulation_targetAtFixation,jsons/v1_VE1000_randls_5_rotated.json,http://54.235.29.9/FacialAge/BNav_EC2/DepthDuration/v2_depth_duration_MTurk/v2_DepthDuration_HTML.html#53,53,1920,955,1920,1080,8-22-2022,7-58-28,137,depth_duration_stimuli/001055_2014-06-08_18-45-35_260595134347_rgbf000111-resize_4/001055_2014-06-08_18-45-35_260595134347_rgbf000111-resize_4-target.png,1000,2.4290000000000003,8,5511,1002,feet,jsons/v1_VE1000_randls_5_rotated.json,736558,892065,43,Man
137,531629,DepthScenes,duration_manipulation_targetAtFixation,jsons/v1_VE1000_randls_5_rotated.json,http://54.235.29.9/FacialAge/BNav_EC2/DepthDuration/v2_depth_duration_MTurk/v2_DepthDuration_HTML.html#53,53,1920,955,1920,1080,8-22-2022,7-58-28,138,depth_duration_stimuli/003587_2014-05-23_16-48-02_094959634447_rgbf002384-resize_2/003587_2014-05-23_16-48-02_094959634447_rgbf002384-resize_2-target.png,1000,1.357,3,3055,1004,feet,jsons/v1_VE1000_randls_5_rotated.json,736558,892065,43,Man
138,531629,DepthScenes,duration_manipulation_targetAtFixation,jsons/v1_VE1000_randls_5_rotated.json,http://54.235.29.9/FacialAge/BNav_EC2/DepthDuration/v2_depth_duration_MTurk/v2_DepthDuration_HTML.html#53,53,1920,955,1920,1080,8-22-2022,7-58-28,139,depth_duration_stimuli/001167_2014-06-17_15-38-07_260595134347_rgbf000108-resize_0/001167_2014-06-17_15-38-07_260595134347_rgbf000108-resize_0-target.png,1000,1.8505,4,3125,1001,feet,jsons/v1_VE1000_randls_5_rotated.json,736558,892065,43,Man
139,531629,DepthScenes,duration_manipulation_targetAtFixation,jsons/v1_VE1000_randls_5_rotated.json,http://54.235.29.9/FacialAge/BNav_EC2/DepthDuration/v2_depth_duration_MTurk/v2_DepthDuration_HTML.html#53,53,1920,955,1920,1080,8-22-2022,7-58-28,140,depth_duration_stimuli/003079_2014-06-15_15-18-20_094959634447_rgbf000152-resize_8/003079_2014-06-15_15-18-20_094959634447_rgbf000152-resize_8-target.png,1000,2.8775,10,2631,1002,feet,jsons/v1_VE1000_randls_5_rotated.json,736558,892065,43,Man
140,531629,DepthScenes,duration_manipulation_targetAtFixation,jsons/v1_VE1000_randls_5_rotated.json,http://54.235.29.9/FacialAge/BNav_EC2/DepthDuration/v2_depth_duration_MTurk/v2_DepthDuration_HTML.html#53,53,1920,955,1920,1080,8-22-2022,7-58-28,141,depth_duration_stimuli/000506_2014-06-08_23-21-00_260595134347_rgbf000070-resize_7/000506_2014-06-08_23-21-00_260595134347_rgbf000070-resize_7-target.png,1000,4.0585,10,2931,1003,feet,jsons/v1_VE1000_randls_5_rotated.json,736558,892065,43,Man
141,531629,DepthScenes,duration_manipulation_targetAtFixation,jsons/v1_VE1000_randls_5_rotated.json,http://54.235.29.9/FacialAge/BNav_EC2/DepthDuration/v2_depth_duration_MTurk/v2_DepthDuration_HTML.html#53,53,1920,955,1920,1080,8-22-2022,7-58-28,142,depth_duration_stimuli/000109_2014-05-14_23-41-52_260595134347_rgbf000035-resize_9/000109_2014-05-14_23-41-52_260595134347_rgbf000035-resize_9-target.png,1000,1.3545,6,3092,1005,feet,jsons/v1_VE1000_randls_5_rotated.json,736558,892065,43,Man
142,531629,DepthScenes,duration_manipulation_targetAtFixation,jsons/v1_VE1000_randls_5_rotated.json,http://54.235.29.9/FacialAge/BNav_EC2/DepthDuration/v2_depth_duration_MTurk/v2_DepthDuration_HTML.html#53,53,1920,955,1920,1080,8-22-2022,7-58-28,143,depth_duration_stimuli/000470_2014-06-09_19-42-40_260595134347_rgbf000094-resize_1/000470_2014-06-09_19-42-40_260595134347_rgbf000094-resize_1-target.png,1000,1.831,5,2883,1009,feet,jsons/v1_VE1000_randls_5_rotated.json,736558,892065,43,Man
143,531629,DepthScenes,duration_manipulation_targetAtFixation,jsons/v1_VE1000_randls_5_rotated.json,http://54.235.29.9/FacialAge/BNav_EC2/DepthDuration/v2_depth_duration_MTurk/v2_DepthDuration_HTML.html#53,53,1920,955,1920,1080,8-22-2022,7-58-28,144,depth_duration_stimuli/003228_2014-05-14_13-42-35_094959634447_rgbf000101-resize_1/003228_2014-05-14_13-42-35_094959634447_rgbf000101-resize_1-target.png,1000,1.9680000000000002,3,2575,996,feet,jsons/v1_VE1000_randls_5_rotated.json,736558,892065,43,Man
144,531629,DepthScenes,duration_manipulation_targetAtFixation,jsons/v1_VE1000_randls_5_rotated.json,http://54.235.29.9/FacialAge/BNav_EC2/DepthDuration/v2_depth_duration_MTurk/v2_DepthDuration_HTML.html#53,53,1920,955,1920,1080,8-22-2022,7-58-28,145,depth_duration_stimuli/002600_2014-06-24_14-27-04_094959634447_rgbf000074-resize_2/002600_2014-06-24_14-27-04_094959634447_rgbf000074-resize_2-target.png,1000,2.7575,6,3352,987,feet,jsons/v1_VE1000_randls_5_rotated.json,736558,892065,43,Man
145,531629,DepthScenes,duration_manipulation_targetAtFixation,jsons/v1_VE1000_randls_5_rotated.json,http://54.235.29.9/FacialAge/BNav_EC2/DepthDuration/v2_depth_duration_MTurk/v2_DepthDuration_HTML.html#53,53,1920,955,1920,1080,8-22-2022,7-58-28,146,depth_duration_stimuli/001516_2014-06-20_16-25-09_260595134347_rgbf000076-resize_2/001516_2014-06-20_16-25-09_260595134347_rgbf000076-resize_2-target.png,1000,1.7445,5,5313,980,feet,jsons/v1_VE1000_randls_5_rotated.json,736558,892065,43,Man
146,531629,DepthScenes,duration_manipulation_targetAtFixation,jsons/v1_VE1000_randls_5_rotated.json,http://54.235.29.9/FacialAge/BNav_EC2/DepthDuration/v2_depth_duration_MTurk/v2_DepthDuration_HTML.html#53,53,1920,955,1920,1080,8-22-2022,7-58-28,147,depth_duration_stimuli/002118_2014-06-25_20-32-08_260595134347_rgbf000078-resize_1/002118_2014-06-25_20-32-08_260595134347_rgbf000078-resize_1-target.png,1000,2.6460000000000004,8,3866,989,feet,jsons/v1_VE1000_randls_5_rotated.json,736558,892065,43,Man
147,531629,DepthScenes,duration_manipulation_targetAtFixation,jsons/v1_VE1000_randls_5_rotated.json,http://54.235.29.9/FacialAge/BNav_EC2/DepthDuration/v2_depth_duration_MTurk/v2_DepthDuration_HTML.html#53,53,1920,955,1920,1080,8-22-2022,7-58-28,148,depth_duration_stimuli/002323_2014-06-28_20-01-54_260595134347_rgbf000051-resize_4/002323_2014-06-28_20-01-54_260595134347_rgbf000051-resize_4-target.png,1000,3.7310000000000003,14,2981,986,feet,jsons/v1_VE1000_randls_5_rotated.json,736558,892065,43,Man
148,531629,DepthScenes,duration_manipulation_targetAtFixation,jsons/v1_VE1000_randls_5_rotated.json,http://54.235.29.9/FacialAge/BNav_EC2/DepthDuration/v2_depth_duration_MTurk/v2_DepthDuration_HTML.html#53,53,1920,955,1920,1080,8-22-2022,7-58-28,149,depth_duration_stimuli/000917_2014-06-09_22-45-29_260595134347_rgbf000149-resize_3/000917_2014-06-09_22-45-29_260595134347_rgbf000149-resize_3-target.png,1000,4.1865,8,3678,1006,feet,jsons/v1_VE1000_randls_5_rotated.json,736558,892065,43,Man
149,531629,DepthScenes,duration_manipulation_targetAtFixation,jsons/v1_VE1000_randls_5_rotated.json,http://54.235.29.9/FacialAge/BNav_EC2/DepthDuration/v2_depth_duration_MTurk/v2_DepthDuration_HTML.html#53,53,1920,955,1920,1080,8-22-2022,7-58-28,150,depth_duration_stimuli/003423_2014-05-21_10-23-26_094959634447_rgbf002665-resize_2/003423_2014-05-21_10-23-26_094959634447_rgbf002665-resize_2-target.png,1000,3.2575,10,2754,991,feet,jsons/v1_VE1000_randls_5_rotated.json,736558,892065,43,Man
150,531629,DepthScenes,duration_manipulation_targetAtFixation,jsons/v1_VE1000_randls_5_rotated.json,http://54.235.29.9/FacialAge/BNav_EC2/DepthDuration/v2_depth_duration_MTurk/v2_DepthDuration_HTML.html#53,53,1920,955,1920,1080,8-22-2022,7-58-28,151,depth_duration_stimuli/002905_2014-06-03_18-04-43_094959634447_rgbf000151-resize_2/002905_2014-06-03_18-04-43_094959634447_rgbf000151-resize_2-target.png,1000,2.0295,6,3025,1007,feet,jsons/v1_VE1000_randls_5_rotated.json,736558,892065,43,Man
151,531629,DepthScenes,duration_manipulation_targetAtFixation,jsons/v1_VE1000_randls_5_rotated.json,http://54.235.29.9/FacialAge/BNav_EC2/DepthDuration/v2_depth_duration_MTurk/v2_DepthDuration_HTML.html#53,53,1920,955,1920,1080,8-22-2022,7-58-28,152,depth_duration_stimuli/000569_2014-06-09_22-51-47_260595134347_rgbf000141-resize_3/000569_2014-06-09_22-51-47_260595134347_rgbf000141-resize-original.jpg,1000,4.512,0,2651,1001,feet,jsons/v1_VE1000_randls_5_rotated.json,736558,892065,43,Man
152,531629,DepthScenes,duration_manipulation_targetAtFixation,jsons/v1_VE1000_randls_5_rotated.json,http://54.235.29.9/FacialAge/BNav_EC2/DepthDuration/v2_depth_duration_MTurk/v2_DepthDuration_HTML.html#53,53,1920,955,1920,1080,8-22-2022,7-58-28,153,depth_duration_stimuli/000103_2014-05-14_22-01-17_260595134347_rgbf000152-resize_5/000103_2014-05-14_22-01-17_260595134347_rgbf000152-resize_5-target.png,1000,1.993,8,3118,1003,feet,jsons/v1_VE1000_randls_5_rotated.json,736558,892065,43,Man
153,531629,DepthScenes,duration_manipulation_targetAtFixation,jsons/v1_VE1000_randls_5_rotated.json,http://54.235.29.9/FacialAge/BNav_EC2/DepthDuration/v2_depth_duration_MTurk/v2_DepthDuration_HTML.html#53,53,1920,955,1920,1080,8-22-2022,7-58-28,154,depth_duration_stimuli/001555_2014-06-20_17-12-10_260595134347_rgbf000065-resize_4/001555_2014-06-20_17-12-10_260595134347_rgbf000065-resize_4-target.png,1000,1.633,6,3748,1003,feet,jsons/v1_VE1000_randls_5_rotated.json,736558,892065,43,Man
154,531629,DepthScenes,duration_manipulation_targetAtFixation,jsons/v1_VE1000_randls_5_rotated.json,http://54.235.29.9/FacialAge/BNav_EC2/DepthDuration/v2_depth_duration_MTurk/v2_DepthDuration_HTML.html#53,53,1920,955,1920,1080,8-22-2022,7-58-28,155,depth_duration_stimuli/002568_2014-06-24_13-59-21_094959634447_rgbf000062-resize_4/002568_2014-06-24_13-59-21_094959634447_rgbf000062-resize_4-target.png,1000,3.015,10,2752,1002,feet,jsons/v1_VE1000_randls_5_rotated.json,736558,892065,43,Man
155,531629,DepthScenes,duration_manipulation_targetAtFixation,jsons/v1_VE1000_randls_5_rotated.json,http://54.235.29.9/FacialAge/BNav_EC2/DepthDuration/v2_depth_duration_MTurk/v2_DepthDuration_HTML.html#53,53,1920,955,1920,1080,8-22-2022,7-58-28,156,depth_duration_stimuli/003492_2014-05-21_15-50-55_094959634447_rgbf000828-resize_1/003492_2014-05-21_15-50-55_094959634447_rgbf000828-resize_1-target.png,1000,4.06875,12,2775,989,feet,jsons/v1_VE1000_randls_5_rotated.json,736558,892065,43,Man
156,531629,DepthScenes,duration_manipulation_targetAtFixation,jsons/v1_VE1000_randls_5_rotated.json,http://54.235.29.9/FacialAge/BNav_EC2/DepthDuration/v2_depth_duration_MTurk/v2_DepthDuration_HTML.html#53,53,1920,955,1920,1080,8-22-2022,7-58-28,157,depth_duration_stimuli/003495_2014-05-21_16-01-51_094959634447_rgbf000100-resize_3/003495_2014-05-21_16-01-51_094959634447_rgbf000100-resize_3-target.png,1000,1.6255,6,3233,995,feet,jsons/v1_VE1000_randls_5_rotated.json,736558,892065,43,Man
157,531629,DepthScenes,duration_manipulation_targetAtFixation,jsons/v1_VE1000_randls_5_rotated.json,http://54.235.29.9/FacialAge/BNav_EC2/DepthDuration/v2_depth_duration_MTurk/v2_DepthDuration_HTML.html#53,53,1920,955,1920,1080,8-22-2022,7-58-28,158,depth_duration_stimuli/001244_2014-06-17_16-47-45_260595134347_rgbf000030-resize_4/001244_2014-06-17_16-47-45_260595134347_rgbf000030-resize_4-target.png,1000,2.0425,6,3424,1010,feet,jsons/v1_VE1000_randls_5_rotated.json,736558,892065,43,Man
158,531629,DepthScenes,duration_manipulation_targetAtFixation,jsons/v1_VE1000_randls_5_rotated.json,http://54.235.29.9/FacialAge/BNav_EC2/DepthDuration/v2_depth_duration_MTurk/v2_DepthDuration_HTML.html#53,53,1920,955,1920,1080,8-22-2022,7-58-28,159,depth_duration_stimuli/001235_2014-06-17_16-37-36_260595134347_rgbf000084-resize_4/001235_2014-06-17_16-37-36_260595134347_rgbf000084-resize_4-target.png,1000,3.6605,8,4410,1008,feet,jsons/v1_VE1000_randls_5_rotated.json,736558,892065,43,Man
159,531629,DepthScenes,duration_manipulation_targetAtFixation,jsons/v1_VE1000_randls_5_rotated.json,http://54.235.29.9/FacialAge/BNav_EC2/DepthDuration/v2_depth_duration_MTurk/v2_DepthDuration_HTML.html#53,53,1920,955,1920,1080,8-22-2022,7-58-28,160,depth_duration_stimuli/000788_2014-06-08_22-34-36_260595134347_rgbf000131-resize_1/000788_2014-06-08_22-34-36_260595134347_rgbf000131-resize_1-target.png,1000,3.359,10,3316,1011,feet,jsons/v1_VE1000_randls_5_rotated.json,736558,892065,43,Man
160,531629,DepthScenes,duration_manipulation_targetAtFixation,jsons/v1_VE1000_randls_5_rotated.json,http://54.235.29.9/FacialAge/BNav_EC2/DepthDuration/v2_depth_duration_MTurk/v2_DepthDuration_HTML.html#53,53,1920,955,1920,1080,8-22-2022,7-58-28,161,depth_duration_stimuli/001094_2014-06-15_17-36-00_260595134347_rgbf000205-resize_0/001094_2014-06-15_17-36-00_260595134347_rgbf000205-resize_0-target.png,1000,4.2175,12,2659,1001,feet,jsons/v1_VE1000_randls_5_rotated.json,736558,892065,43,Man
161,531629,DepthScenes,duration_manipulation_targetAtFixation,jsons/v1_VE1000_randls_5_rotated.json,http://54.235.29.9/FacialAge/BNav_EC2/DepthDuration/v2_depth_duration_MTurk/v2_DepthDuration_HTML.html#53,53,1920,955,1920,1080,8-22-2022,7-58-28,162,depth_duration_stimuli/000692_2014-06-08_13-09-42_260595134347_rgbf000199-resize_2/000692_2014-06-08_13-09-42_260595134347_rgbf000199-resize_2-target.png,1000,3.661,10,3779,1003,feet,jsons/v1_VE1000_randls_5_rotated.json,736558,892065,43,Man
162,531629,DepthScenes,duration_manipulation_targetAtFixation,jsons/v1_VE1000_randls_5_rotated.json,http://54.235.29.9/FacialAge/BNav_EC2/DepthDuration/v2_depth_duration_MTurk/v2_DepthDuration_HTML.html#53,53,1920,955,1920,1080,8-22-2022,7-58-28,163,depth_duration_stimuli/000709_2014-06-08_13-51-55_260595134347_rgbf000068-resize_3/000709_2014-06-08_13-51-55_260595134347_rgbf000068-resize_3-target.png,1000,1.8030000000000002,6,3652,1000,feet,jsons/v1_VE1000_randls_5_rotated.json,736558,892065,43,Man
163,531629,DepthScenes,duration_manipulation_targetAtFixation,jsons/v1_VE1000_randls_5_rotated.json,http://54.235.29.9/FacialAge/BNav_EC2/DepthDuration/v2_depth_duration_MTurk/v2_DepthDuration_HTML.html#53,53,1920,955,1920,1080,8-22-2022,7-58-28,164,depth_duration_stimuli/002057_2014-06-24_21-00-13_260595134347_rgbf000120-resize_1/002057_2014-06-24_21-00-13_260595134347_rgbf000120-resize_1-target.png,1000,2.967,10,4489,1002,feet,jsons/v1_VE1000_randls_5_rotated.json,736558,892065,43,Man
