,subjID,experimentName,versionName,sequenceName,url,selected_row,windowWidth,windowHeight,screenWidth,screenHeight,startDate,startTime,trial,stimulus,duration,actual_depth,depth_estimate,trial_RT,log_sceneDuration,unitSelection,seq_filepath,experimentTime,totalTime,age,gender
0,531988,DepthScenes,duration_manipulation_targetAtFixation,jsons/v1_VE250_randls_37.json,http://54.235.29.9/FacialAge/BNav_EC2/DepthDuration/v2_depth_duration_MTurk/v2_DepthDuration_HTML.html#149,149,1152,606,1440,900,8-20-2022,13-0-58,1,depth_duration_stimuli/002279_2014-06-28_18-55-32_260595134347_rgbf000040-resize_5/002279_2014-06-28_18-55-32_260595134347_rgbf000040-resize_5-target.png,250,1.5043333333333,60.0,2969,249,meters,jsons/v1_VE250_randls_37.json,1665819,1841520,40,Man
1,531988,DepthScenes,duration_manipulation_targetAtFixation,jsons/v1_VE250_randls_37.json,http://54.235.29.9/FacialAge/BNav_EC2/DepthDuration/v2_depth_duration_MTurk/v2_DepthDuration_HTML.html#149,149,1152,606,1440,900,8-20-2022,13-0-58,2,depth_duration_stimuli/000635_2014-06-08_16-38-42_260595134347_rgbf000106-resize_1/000635_2014-06-08_16-38-42_260595134347_rgbf000106-resize_1-target.png,250,2.074,80.0,2562,249,meters,jsons/v1_VE250_randls_37.json,1665819,1841520,40,Man
2,531988,DepthScenes,duration_manipulation_targetAtFixation,jsons/v1_VE250_randls_37.json,http://54.235.29.9/FacialAge/BNav_EC2/DepthDuration/v2_depth_duration_MTurk/v2_DepthDuration_HTML.html#149,149,1152,606,1440,900,8-20-2022,13-0-58,3,depth_duration_stimuli/002988_2014-06-15_12-24-20_094959634447_rgbf000150-resize_1/002988_2014-06-15_12-24-20_094959634447_rgbf000150-resize_1-target.png,250,4.7669999999999995,80.0,6691,248,meters,jsons/v1_VE250_randls_37.json,1665819,1841520,40,Man
3,531988,DepthScenes,duration_manipulation_targetAtFixation,jsons/v1_VE250_randls_37.json,http://54.235.29.9/FacialAge/BNav_EC2/DepthDuration/v2_depth_duration_MTurk/v2_DepthDuration_HTML.html#149,149,1152,606,1440,900,8-20-2022,13-0-58,4,depth_duration_stimuli/001052_2014-06-08_18-24-54_260595134347_rgbf000130-resize_1/001052_2014-06-08_18-24-54_260595134347_rgbf000130-resize_1-target.png,250,4.1045,60.0,2403,250,meters,jsons/v1_VE250_randls_37.json,1665819,1841520,40,Man
4,531988,DepthScenes,duration_manipulation_targetAtFixation,jsons/v1_VE250_randls_37.json,http://54.235.29.9/FacialAge/BNav_EC2/DepthDuration/v2_depth_duration_MTurk/v2_DepthDuration_HTML.html#149,149,1152,606,1440,900,8-20-2022,13-0-58,5,depth_duration_stimuli/001092_2014-06-15_17-34-58_260595134347_rgbf000171-resize_3/001092_2014-06-15_17-34-58_260595134347_rgbf000171-resize_3-target.png,250,2.6935,50.0,2522,250,meters,jsons/v1_VE250_randls_37.json,1665819,1841520,40,Man
5,531988,DepthScenes,duration_manipulation_targetAtFixation,jsons/v1_VE250_randls_37.json,http://54.235.29.9/FacialAge/BNav_EC2/DepthDuration/v2_depth_duration_MTurk/v2_DepthDuration_HTML.html#149,149,1152,606,1440,900,8-20-2022,13-0-58,6,depth_duration_stimuli/002545_2014-06-24_13-38-53_094959634447_rgbf000080-resize_4/002545_2014-06-24_13-38-53_094959634447_rgbf000080-resize_4-target.png,250,1.9205,60.0,2682,251,meters,jsons/v1_VE250_randls_37.json,1665819,1841520,40,Man
6,531988,DepthScenes,duration_manipulation_targetAtFixation,jsons/v1_VE250_randls_37.json,http://54.235.29.9/FacialAge/BNav_EC2/DepthDuration/v2_depth_duration_MTurk/v2_DepthDuration_HTML.html#149,149,1152,606,1440,900,8-20-2022,13-0-58,7,depth_duration_stimuli/000906_2014-06-08_13-35-43_260595134347_rgbf000155-resize_1/000906_2014-06-08_13-35-43_260595134347_rgbf000155-resize_1-target.png,250,2.8489999999999998,50.0,3084,251,meters,jsons/v1_VE250_randls_37.json,1665819,1841520,40,Man
7,531988,DepthScenes,duration_manipulation_targetAtFixation,jsons/v1_VE250_randls_37.json,http://54.235.29.9/FacialAge/BNav_EC2/DepthDuration/v2_depth_duration_MTurk/v2_DepthDuration_HTML.html#149,149,1152,606,1440,900,8-20-2022,13-0-58,8,depth_duration_stimuli/002805_2014-06-22_19-54-03_094959634447_rgbf000079-resize_1/002805_2014-06-22_19-54-03_094959634447_rgbf000079-resize_1-target.png,250,3.1439999999999997,60.0,2464,248,meters,jsons/v1_VE250_randls_37.json,1665819,1841520,40,Man
8,531988,DepthScenes,duration_manipulation_targetAtFixation,jsons/v1_VE250_randls_37.json,http://54.235.29.9/FacialAge/BNav_EC2/DepthDuration/v2_depth_duration_MTurk/v2_DepthDuration_HTML.html#149,149,1152,606,1440,900,8-20-2022,13-0-58,9,depth_duration_stimuli/002600_2014-06-24_14-27-04_094959634447_rgbf000074-resize_2/002600_2014-06-24_14-27-04_094959634447_rgbf000074-resize_2-target.png,250,2.7575,50.0,2452,250,meters,jsons/v1_VE250_randls_37.json,1665819,1841520,40,Man
9,531988,DepthScenes,duration_manipulation_targetAtFixation,jsons/v1_VE250_randls_37.json,http://54.235.29.9/FacialAge/BNav_EC2/DepthDuration/v2_depth_duration_MTurk/v2_DepthDuration_HTML.html#149,149,1152,606,1440,900,8-20-2022,13-0-58,10,depth_duration_stimuli/003228_2014-05-14_13-42-35_094959634447_rgbf000101-resize_1/003228_2014-05-14_13-42-35_094959634447_rgbf000101-resize_1-target.png,250,1.9680000000000002,60.0,2465,249,meters,jsons/v1_VE250_randls_37.json,1665819,1841520,40,Man
10,531988,DepthScenes,duration_manipulation_targetAtFixation,jsons/v1_VE250_randls_37.json,http://54.235.29.9/FacialAge/BNav_EC2/DepthDuration/v2_depth_duration_MTurk/v2_DepthDuration_HTML.html#149,149,1152,606,1440,900,8-20-2022,13-0-58,11,depth_duration_stimuli/002057_2014-06-24_21-00-13_260595134347_rgbf000120-resize_1/002057_2014-06-24_21-00-13_260595134347_rgbf000120-resize_1-target.png,250,2.967,80.0,107484,249,meters,jsons/v1_VE250_randls_37.json,1665819,1841520,40,Man
11,531988,DepthScenes,duration_manipulation_targetAtFixation,jsons/v1_VE250_randls_37.json,http://54.235.29.9/FacialAge/BNav_EC2/DepthDuration/v2_depth_duration_MTurk/v2_DepthDuration_HTML.html#149,149,1152,606,1440,900,8-20-2022,13-0-58,12,depth_duration_stimuli/000709_2014-06-08_13-51-55_260595134347_rgbf000068-resize_3/000709_2014-06-08_13-51-55_260595134347_rgbf000068-resize_3-target.png,250,1.8030000000000002,60.0,2465,250,meters,jsons/v1_VE250_randls_37.json,1665819,1841520,40,Man
12,531988,DepthScenes,duration_manipulation_targetAtFixation,jsons/v1_VE250_randls_37.json,http://54.235.29.9/FacialAge/BNav_EC2/DepthDuration/v2_depth_duration_MTurk/v2_DepthDuration_HTML.html#149,149,1152,606,1440,900,8-20-2022,13-0-58,13,depth_duration_stimuli/000569_2014-06-09_22-51-47_260595134347_rgbf000141-resize_3/000569_2014-06-09_22-51-47_260595134347_rgbf000141-resize-original.jpg,250,4.512,60.0,9907,250,meters,jsons/v1_VE250_randls_37.json,1665819,1841520,40,Man
13,531988,DepthScenes,duration_manipulation_targetAtFixation,jsons/v1_VE250_randls_37.json,http://54.235.29.9/FacialAge/BNav_EC2/DepthDuration/v2_depth_duration_MTurk/v2_DepthDuration_HTML.html#149,149,1152,606,1440,900,8-20-2022,13-0-58,14,depth_duration_stimuli/001066_2014-06-08_22-03-20_260595134347_rgbf000066-resize_4/001066_2014-06-08_22-03-20_260595134347_rgbf000066-resize_4-target.png,250,4.2330000000000005,80.0,17458,251,meters,jsons/v1_VE250_randls_37.json,1665819,1841520,40,Man
14,531988,DepthScenes,duration_manipulation_targetAtFixation,jsons/v1_VE250_randls_37.json,http://54.235.29.9/FacialAge/BNav_EC2/DepthDuration/v2_depth_duration_MTurk/v2_DepthDuration_HTML.html#149,149,1152,606,1440,900,8-20-2022,13-0-58,15,depth_duration_stimuli/000742_2014-06-08_18-48-09_260595134347_rgbf000164-resize_4/000742_2014-06-08_18-48-09_260595134347_rgbf000164-resize_4-target.png,250,4.632,80.0,3025,250,meters,jsons/v1_VE250_randls_37.json,1665819,1841520,40,Man
15,531988,DepthScenes,duration_manipulation_targetAtFixation,jsons/v1_VE250_randls_37.json,http://54.235.29.9/FacialAge/BNav_EC2/DepthDuration/v2_depth_duration_MTurk/v2_DepthDuration_HTML.html#149,149,1152,606,1440,900,8-20-2022,13-0-58,16,depth_duration_stimuli/001059_2014-06-08_21-53-27_260595134347_rgbf000061-resize_4/001059_2014-06-08_21-53-27_260595134347_rgbf000061-resize_4-target.png,250,2.4185,60.0,3171,249,meters,jsons/v1_VE250_randls_37.json,1665819,1841520,40,Man
16,531988,DepthScenes,duration_manipulation_targetAtFixation,jsons/v1_VE250_randls_37.json,http://54.235.29.9/FacialAge/BNav_EC2/DepthDuration/v2_depth_duration_MTurk/v2_DepthDuration_HTML.html#149,149,1152,606,1440,900,8-20-2022,13-0-58,17,depth_duration_stimuli/001032_2014-06-08_13-23-17_260595134347_rgbf000021-resize_3/001032_2014-06-08_13-23-17_260595134347_rgbf000021-resize_3-target.png,250,3.2725,60.0,3234,249,meters,jsons/v1_VE250_randls_37.json,1665819,1841520,40,Man
17,531988,DepthScenes,duration_manipulation_targetAtFixation,jsons/v1_VE250_randls_37.json,http://54.235.29.9/FacialAge/BNav_EC2/DepthDuration/v2_depth_duration_MTurk/v2_DepthDuration_HTML.html#149,149,1152,606,1440,900,8-20-2022,13-0-58,18,depth_duration_stimuli/000009_2014-05-26_14-32-05_260595134347_rgbf000034-resize_3/000009_2014-05-26_14-32-05_260595134347_rgbf000034-resize_3-target.png,250,3.8715,60.0,2587,249,meters,jsons/v1_VE250_randls_37.json,1665819,1841520,40,Man
18,531988,DepthScenes,duration_manipulation_targetAtFixation,jsons/v1_VE250_randls_37.json,http://54.235.29.9/FacialAge/BNav_EC2/DepthDuration/v2_depth_duration_MTurk/v2_DepthDuration_HTML.html#149,149,1152,606,1440,900,8-20-2022,13-0-58,19,depth_duration_stimuli/001828_2014-06-26_21-40-03_260595134347_rgbf000024-resize_0/001828_2014-06-26_21-40-03_260595134347_rgbf000024-resize_0-target.png,250,4.8260000000000005,60.0,90458,250,meters,jsons/v1_VE250_randls_37.json,1665819,1841520,40,Man
19,531988,DepthScenes,duration_manipulation_targetAtFixation,jsons/v1_VE250_randls_37.json,http://54.235.29.9/FacialAge/BNav_EC2/DepthDuration/v2_depth_duration_MTurk/v2_DepthDuration_HTML.html#149,149,1152,606,1440,900,8-20-2022,13-0-58,20,depth_duration_stimuli/000522_2014-06-08_13-35-06_260595134347_rgbf000244-resize_1/000522_2014-06-08_13-35-06_260595134347_rgbf000244-resize_1-target.png,250,2.3715,80.0,2642,250,meters,jsons/v1_VE250_randls_37.json,1665819,1841520,40,Man
20,531988,DepthScenes,duration_manipulation_targetAtFixation,jsons/v1_VE250_randls_37.json,http://54.235.29.9/FacialAge/BNav_EC2/DepthDuration/v2_depth_duration_MTurk/v2_DepthDuration_HTML.html#149,149,1152,606,1440,900,8-20-2022,13-0-58,21,depth_duration_stimuli/002949_2014-06-26_15-57-42_094959634447_rgbf000079-resize_1/002949_2014-06-26_15-57-42_094959634447_rgbf000079-resize_1-target.png,250,1.8915,50.0,311068,250,meters,jsons/v1_VE250_randls_37.json,1665819,1841520,40,Man
21,531988,DepthScenes,duration_manipulation_targetAtFixation,jsons/v1_VE250_randls_37.json,http://54.235.29.9/FacialAge/BNav_EC2/DepthDuration/v2_depth_duration_MTurk/v2_DepthDuration_HTML.html#149,149,1152,606,1440,900,8-20-2022,13-0-58,22,depth_duration_stimuli/002153_2014-06-25_21-27-18_260595134347_rgbf000038-resize_5/002153_2014-06-25_21-27-18_260595134347_rgbf000038-resize_5-target.png,250,2.505,50.0,2881,250,meters,jsons/v1_VE250_randls_37.json,1665819,1841520,40,Man
22,531988,DepthScenes,duration_manipulation_targetAtFixation,jsons/v1_VE250_randls_37.json,http://54.235.29.9/FacialAge/BNav_EC2/DepthDuration/v2_depth_duration_MTurk/v2_DepthDuration_HTML.html#149,149,1152,606,1440,900,8-20-2022,13-0-58,23,depth_duration_stimuli/002660_2014-06-13_15-44-18_094959634447_rgbf001878-resize_2/002660_2014-06-13_15-44-18_094959634447_rgbf001878-resize_2-target.png,250,3.576,50.0,2378,250,meters,jsons/v1_VE250_randls_37.json,1665819,1841520,40,Man
23,531988,DepthScenes,duration_manipulation_targetAtFixation,jsons/v1_VE250_randls_37.json,http://54.235.29.9/FacialAge/BNav_EC2/DepthDuration/v2_depth_duration_MTurk/v2_DepthDuration_HTML.html#149,149,1152,606,1440,900,8-20-2022,13-0-58,24,depth_duration_stimuli/000773_2014-06-08_22-24-54_260595134347_rgbf000093-resize_1/000773_2014-06-08_22-24-54_260595134347_rgbf000093-resize_1-target.png,250,4.973,50.0,3788,251,meters,jsons/v1_VE250_randls_37.json,1665819,1841520,40,Man
24,531988,DepthScenes,duration_manipulation_targetAtFixation,jsons/v1_VE250_randls_37.json,http://54.235.29.9/FacialAge/BNav_EC2/DepthDuration/v2_depth_duration_MTurk/v2_DepthDuration_HTML.html#149,149,1152,606,1440,900,8-20-2022,13-0-58,25,depth_duration_stimuli/002414_2014-06-28_20-24-58_260595134347_rgbf000067-resize_4/002414_2014-06-28_20-24-58_260595134347_rgbf000067-resize_4-target.png,250,4.363,50.0,2409,250,meters,jsons/v1_VE250_randls_37.json,1665819,1841520,40,Man
25,531988,DepthScenes,duration_manipulation_targetAtFixation,jsons/v1_VE250_randls_37.json,http://54.235.29.9/FacialAge/BNav_EC2/DepthDuration/v2_depth_duration_MTurk/v2_DepthDuration_HTML.html#149,149,1152,606,1440,900,8-20-2022,13-0-58,26,depth_duration_stimuli/000447_2014-06-08_16-15-46_260595134347_rgbf000130-resize_1/000447_2014-06-08_16-15-46_260595134347_rgbf000130-resize_1-target.png,250,4.479,80.0,2715,250,meters,jsons/v1_VE250_randls_37.json,1665819,1841520,40,Man
26,531988,DepthScenes,duration_manipulation_targetAtFixation,jsons/v1_VE250_randls_37.json,http://54.235.29.9/FacialAge/BNav_EC2/DepthDuration/v2_depth_duration_MTurk/v2_DepthDuration_HTML.html#149,149,1152,606,1440,900,8-20-2022,13-0-58,27,depth_duration_stimuli/001447_2014-06-19_17-00-32_260595134347_rgbf000082-resize_5/001447_2014-06-19_17-00-32_260595134347_rgbf000082-resize_5-target.png,250,4.13775,50.0,2498,250,meters,jsons/v1_VE250_randls_37.json,1665819,1841520,40,Man
27,531988,DepthScenes,duration_manipulation_targetAtFixation,jsons/v1_VE250_randls_37.json,http://54.235.29.9/FacialAge/BNav_EC2/DepthDuration/v2_depth_duration_MTurk/v2_DepthDuration_HTML.html#149,149,1152,606,1440,900,8-20-2022,13-0-58,28,depth_duration_stimuli/000758_2014-06-08_22-05-08_260595134347_rgbf000085-resize_0/000758_2014-06-08_22-05-08_260595134347_rgbf000085-resize_0-target.png,250,3.3810000000000002,50.0,2496,250,meters,jsons/v1_VE250_randls_37.json,1665819,1841520,40,Man
28,531988,DepthScenes,duration_manipulation_targetAtFixation,jsons/v1_VE250_randls_37.json,http://54.235.29.9/FacialAge/BNav_EC2/DepthDuration/v2_depth_duration_MTurk/v2_DepthDuration_HTML.html#149,149,1152,606,1440,900,8-20-2022,13-0-58,29,depth_duration_stimuli/000854_2014-06-09_19-43-13_260595134347_rgbf000066-resize_0/000854_2014-06-09_19-43-13_260595134347_rgbf000066-resize_0-target.png,250,3.068,60.0,2515,251,meters,jsons/v1_VE250_randls_37.json,1665819,1841520,40,Man
29,531988,DepthScenes,duration_manipulation_targetAtFixation,jsons/v1_VE250_randls_37.json,http://54.235.29.9/FacialAge/BNav_EC2/DepthDuration/v2_depth_duration_MTurk/v2_DepthDuration_HTML.html#149,149,1152,606,1440,900,8-20-2022,13-0-58,30,depth_duration_stimuli/000375_2014-06-08_11-17-29_260595134347_rgbf000133-resize_2/000375_2014-06-08_11-17-29_260595134347_rgbf000133-resize-original.jpg,250,4.718,80.0,2218,250,meters,jsons/v1_VE250_randls_37.json,1665819,1841520,40,Man
30,531988,DepthScenes,duration_manipulation_targetAtFixation,jsons/v1_VE250_randls_37.json,http://54.235.29.9/FacialAge/BNav_EC2/DepthDuration/v2_depth_duration_MTurk/v2_DepthDuration_HTML.html#149,149,1152,606,1440,900,8-20-2022,13-0-58,31,depth_duration_stimuli/000506_2014-06-08_23-21-00_260595134347_rgbf000070-resize_7/000506_2014-06-08_23-21-00_260595134347_rgbf000070-resize_7-target.png,250,4.0585,80.0,2347,250,meters,jsons/v1_VE250_randls_37.json,1665819,1841520,40,Man
31,531988,DepthScenes,duration_manipulation_targetAtFixation,jsons/v1_VE250_randls_37.json,http://54.235.29.9/FacialAge/BNav_EC2/DepthDuration/v2_depth_duration_MTurk/v2_DepthDuration_HTML.html#149,149,1152,606,1440,900,8-20-2022,13-0-58,32,depth_duration_stimuli/003079_2014-06-15_15-18-20_094959634447_rgbf000152-resize_8/003079_2014-06-15_15-18-20_094959634447_rgbf000152-resize_8-target.png,250,2.8775,80.0,2579,250,meters,jsons/v1_VE250_randls_37.json,1665819,1841520,40,Man
32,531988,DepthScenes,duration_manipulation_targetAtFixation,jsons/v1_VE250_randls_37.json,http://54.235.29.9/FacialAge/BNav_EC2/DepthDuration/v2_depth_duration_MTurk/v2_DepthDuration_HTML.html#149,149,1152,606,1440,900,8-20-2022,13-0-58,33,depth_duration_stimuli/003292_2014-05-14_21-53-49_094959634447_rgbf000100-resize_2/003292_2014-05-14_21-53-49_094959634447_rgbf000100-resize_2-target.png,250,3.4815,60.0,2490,249,meters,jsons/v1_VE250_randls_37.json,1665819,1841520,40,Man
33,531988,DepthScenes,duration_manipulation_targetAtFixation,jsons/v1_VE250_randls_37.json,http://54.235.29.9/FacialAge/BNav_EC2/DepthDuration/v2_depth_duration_MTurk/v2_DepthDuration_HTML.html#149,149,1152,606,1440,900,8-20-2022,13-0-58,34,depth_duration_stimuli/002639_2014-06-24_14-51-37_094959634447_rgbf000074-resize_4/002639_2014-06-24_14-51-37_094959634447_rgbf000074-resize_4-target.png,250,4.0375,80.0,2738,249,meters,jsons/v1_VE250_randls_37.json,1665819,1841520,40,Man
34,531988,DepthScenes,duration_manipulation_targetAtFixation,jsons/v1_VE250_randls_37.json,http://54.235.29.9/FacialAge/BNav_EC2/DepthDuration/v2_depth_duration_MTurk/v2_DepthDuration_HTML.html#149,149,1152,606,1440,900,8-20-2022,13-0-58,35,depth_duration_stimuli/002213_2014-06-28_18-37-58_260595134347_rgbf000055-resize_1/002213_2014-06-28_18-37-58_260595134347_rgbf000055-resize_1-target.png,250,3.62,50.0,536907,250,meters,jsons/v1_VE250_randls_37.json,1665819,1841520,40,Man
35,531988,DepthScenes,duration_manipulation_targetAtFixation,jsons/v1_VE250_randls_37.json,http://54.235.29.9/FacialAge/BNav_EC2/DepthDuration/v2_depth_duration_MTurk/v2_DepthDuration_HTML.html#149,149,1152,606,1440,900,8-20-2022,13-0-58,36,depth_duration_stimuli/000691_2014-06-08_13-08-50_260595134347_rgbf000132-resize_3/000691_2014-06-08_13-08-50_260595134347_rgbf000132-resize_3-target.png,250,4.1530000000000005,50.0,6866,248,meters,jsons/v1_VE250_randls_37.json,1665819,1841520,40,Man
36,531988,DepthScenes,duration_manipulation_targetAtFixation,jsons/v1_VE250_randls_37.json,http://54.235.29.9/FacialAge/BNav_EC2/DepthDuration/v2_depth_duration_MTurk/v2_DepthDuration_HTML.html#149,149,1152,606,1440,900,8-20-2022,13-0-58,37,depth_duration_stimuli/002748_2014-06-22_19-07-22_094959634447_rgbf000078-resize_1/002748_2014-06-22_19-07-22_094959634447_rgbf000078-resize_1-target.png,250,4.6705,50.0,2602,249,meters,jsons/v1_VE250_randls_37.json,1665819,1841520,40,Man
37,531988,DepthScenes,duration_manipulation_targetAtFixation,jsons/v1_VE250_randls_37.json,http://54.235.29.9/FacialAge/BNav_EC2/DepthDuration/v2_depth_duration_MTurk/v2_DepthDuration_HTML.html#149,149,1152,606,1440,900,8-20-2022,13-0-58,38,depth_duration_stimuli/002995_2014-06-15_12-31-26_094959634447_rgbf000150-resize_1/002995_2014-06-15_12-31-26_094959634447_rgbf000150-resize_1-target.png,250,3.8360000000000003,50.0,2553,250,meters,jsons/v1_VE250_randls_37.json,1665819,1841520,40,Man
38,531988,DepthScenes,duration_manipulation_targetAtFixation,jsons/v1_VE250_randls_37.json,http://54.235.29.9/FacialAge/BNav_EC2/DepthDuration/v2_depth_duration_MTurk/v2_DepthDuration_HTML.html#149,149,1152,606,1440,900,8-20-2022,13-0-58,39,depth_duration_stimuli/000810_2014-06-08_17-20-01_260595134347_rgbf000105-resize_0/000810_2014-06-08_17-20-01_260595134347_rgbf000105-resize_0-target.png,250,1.4865,50.0,20627,250,meters,jsons/v1_VE250_randls_37.json,1665819,1841520,40,Man
39,531988,DepthScenes,duration_manipulation_targetAtFixation,jsons/v1_VE250_randls_37.json,http://54.235.29.9/FacialAge/BNav_EC2/DepthDuration/v2_depth_duration_MTurk/v2_DepthDuration_HTML.html#149,149,1152,606,1440,900,8-20-2022,13-0-58,40,depth_duration_stimuli/001214_2014-06-17_16-13-55_260595134347_rgbf000111-resize_0/001214_2014-06-17_16-13-55_260595134347_rgbf000111-resize_0-target.png,250,2.6505,50.0,2305,250,meters,jsons/v1_VE250_randls_37.json,1665819,1841520,40,Man
40,531988,DepthScenes,duration_manipulation_targetAtFixation,jsons/v1_VE250_randls_37.json,http://54.235.29.9/FacialAge/BNav_EC2/DepthDuration/v2_depth_duration_MTurk/v2_DepthDuration_HTML.html#149,149,1152,606,1440,900,8-20-2022,13-0-58,41,depth_duration_stimuli/002039_2014-06-24_20-22-38_260595134347_rgbf000084-resize_1/002039_2014-06-24_20-22-38_260595134347_rgbf000084-resize_1-target.png,250,4.408,50.0,2924,250,meters,jsons/v1_VE250_randls_37.json,1665819,1841520,40,Man
41,531988,DepthScenes,duration_manipulation_targetAtFixation,jsons/v1_VE250_randls_37.json,http://54.235.29.9/FacialAge/BNav_EC2/DepthDuration/v2_depth_duration_MTurk/v2_DepthDuration_HTML.html#149,149,1152,606,1440,900,8-20-2022,13-0-58,42,depth_duration_stimuli/002103_2014-06-25_20-00-40_260595134347_rgbf000049-resize_0/002103_2014-06-25_20-00-40_260595134347_rgbf000049-resize_0-target.png,250,4.105,20.0,24562,250,meters,jsons/v1_VE250_randls_37.json,1665819,1841520,40,Man
42,531988,DepthScenes,duration_manipulation_targetAtFixation,jsons/v1_VE250_randls_37.json,http://54.235.29.9/FacialAge/BNav_EC2/DepthDuration/v2_depth_duration_MTurk/v2_DepthDuration_HTML.html#149,149,1152,606,1440,900,8-20-2022,13-0-58,43,depth_duration_stimuli/001011_2014-06-08_23-18-54_260595134347_rgbf000044-resize_4/001011_2014-06-08_23-18-54_260595134347_rgbf000044-resize_4-target.png,250,2.4730000000000003,22.0,4715,250,meters,jsons/v1_VE250_randls_37.json,1665819,1841520,40,Man
43,531988,DepthScenes,duration_manipulation_targetAtFixation,jsons/v1_VE250_randls_37.json,http://54.235.29.9/FacialAge/BNav_EC2/DepthDuration/v2_depth_duration_MTurk/v2_DepthDuration_HTML.html#149,149,1152,606,1440,900,8-20-2022,13-0-58,44,depth_duration_stimuli/002875_2014-06-01_15-19-00_094959634447_rgbf000151-resize_1/002875_2014-06-01_15-19-00_094959634447_rgbf000151-resize_1-target.png,250,1.9675,100.0,8289,248,meters,jsons/v1_VE250_randls_37.json,1665819,1841520,40,Man
44,531988,DepthScenes,duration_manipulation_targetAtFixation,jsons/v1_VE250_randls_37.json,http://54.235.29.9/FacialAge/BNav_EC2/DepthDuration/v2_depth_duration_MTurk/v2_DepthDuration_HTML.html#149,149,1152,606,1440,900,8-20-2022,13-0-58,45,depth_duration_stimuli/000787_2014-06-08_22-33-53_260595134347_rgbf000175-resize_1/000787_2014-06-08_22-33-53_260595134347_rgbf000175-resize-original.jpg,250,4.784,0.0,5660,251,meters,jsons/v1_VE250_randls_37.json,1665819,1841520,40,Man
45,531988,DepthScenes,duration_manipulation_targetAtFixation,jsons/v1_VE250_randls_37.json,http://54.235.29.9/FacialAge/BNav_EC2/DepthDuration/v2_depth_duration_MTurk/v2_DepthDuration_HTML.html#149,149,1152,606,1440,900,8-20-2022,13-0-58,46,depth_duration_stimuli/002272_2014-06-28_18-53-56_260595134347_rgbf000067-resize_2/002272_2014-06-28_18-53-56_260595134347_rgbf000067-resize_2-target.png,250,1.138,225.0,4322,249,meters,jsons/v1_VE250_randls_37.json,1665819,1841520,40,Man
46,531988,DepthScenes,duration_manipulation_targetAtFixation,jsons/v1_VE250_randls_37.json,http://54.235.29.9/FacialAge/BNav_EC2/DepthDuration/v2_depth_duration_MTurk/v2_DepthDuration_HTML.html#149,149,1152,606,1440,900,8-20-2022,13-0-58,47,depth_duration_stimuli/001571_2014-06-20_17-21-32_260595134347_rgbf000089-resize_1/001571_2014-06-20_17-21-32_260595134347_rgbf000089-resize_1-target.png,250,1.86,22.0,2674,250,meters,jsons/v1_VE250_randls_37.json,1665819,1841520,40,Man
47,531988,DepthScenes,duration_manipulation_targetAtFixation,jsons/v1_VE250_randls_37.json,http://54.235.29.9/FacialAge/BNav_EC2/DepthDuration/v2_depth_duration_MTurk/v2_DepthDuration_HTML.html#149,149,1152,606,1440,900,8-20-2022,13-0-58,48,depth_duration_stimuli/002989_2014-06-15_12-25-03_094959634447_rgbf000150-resize_3/002989_2014-06-15_12-25-03_094959634447_rgbf000150-resize_3-target.png,250,4.1975,10.0,4332,249,meters,jsons/v1_VE250_randls_37.json,1665819,1841520,40,Man
48,531988,DepthScenes,duration_manipulation_targetAtFixation,jsons/v1_VE250_randls_37.json,http://54.235.29.9/FacialAge/BNav_EC2/DepthDuration/v2_depth_duration_MTurk/v2_DepthDuration_HTML.html#149,149,1152,606,1440,900,8-20-2022,13-0-58,49,depth_duration_stimuli/000866_2014-06-09_20-45-42_260595134347_rgbf000139-resize_1/000866_2014-06-09_20-45-42_260595134347_rgbf000139-resize_1-target.png,250,3.2155,22.0,11965,249,meters,jsons/v1_VE250_randls_37.json,1665819,1841520,40,Man
49,531988,DepthScenes,duration_manipulation_targetAtFixation,jsons/v1_VE250_randls_37.json,http://54.235.29.9/FacialAge/BNav_EC2/DepthDuration/v2_depth_duration_MTurk/v2_DepthDuration_HTML.html#149,149,1152,606,1440,900,8-20-2022,13-0-58,50,depth_duration_stimuli/002549_2014-06-24_13-41-39_094959634447_rgbf000022-resize_3/002549_2014-06-24_13-41-39_094959634447_rgbf000022-resize_3-target.png,250,1.476,58.0,2671,250,meters,jsons/v1_VE250_randls_37.json,1665819,1841520,40,Man
50,531988,DepthScenes,duration_manipulation_targetAtFixation,jsons/v1_VE250_randls_37.json,http://54.235.29.9/FacialAge/BNav_EC2/DepthDuration/v2_depth_duration_MTurk/v2_DepthDuration_HTML.html#149,149,1152,606,1440,900,8-20-2022,13-0-58,51,depth_duration_stimuli/002750_2014-06-22_19-08-03_094959634447_rgbf000094-resize_4/002750_2014-06-22_19-08-03_094959634447_rgbf000094-resize_4-target.png,250,2.354,60.0,2692,250,meters,jsons/v1_VE250_randls_37.json,1665819,1841520,40,Man
51,531988,DepthScenes,duration_manipulation_targetAtFixation,jsons/v1_VE250_randls_37.json,http://54.235.29.9/FacialAge/BNav_EC2/DepthDuration/v2_depth_duration_MTurk/v2_DepthDuration_HTML.html#149,149,1152,606,1440,900,8-20-2022,13-0-58,52,depth_duration_stimuli/001016_2014-06-09_16-16-10_260595134347_rgbf000112-resize_5/001016_2014-06-09_16-16-10_260595134347_rgbf000112-resize_5-target.png,250,1.6565,66.0,2329,250,meters,jsons/v1_VE250_randls_37.json,1665819,1841520,40,Man
52,531988,DepthScenes,duration_manipulation_targetAtFixation,jsons/v1_VE250_randls_37.json,http://54.235.29.9/FacialAge/BNav_EC2/DepthDuration/v2_depth_duration_MTurk/v2_DepthDuration_HTML.html#149,149,1152,606,1440,900,8-20-2022,13-0-58,53,depth_duration_stimuli/002340_2014-06-28_20-05-46_260595134347_rgbf000113-resize_0/002340_2014-06-28_20-05-46_260595134347_rgbf000113-resize_0-target.png,250,2.4735,65.0,2908,249,meters,jsons/v1_VE250_randls_37.json,1665819,1841520,40,Man
53,531988,DepthScenes,duration_manipulation_targetAtFixation,jsons/v1_VE250_randls_37.json,http://54.235.29.9/FacialAge/BNav_EC2/DepthDuration/v2_depth_duration_MTurk/v2_DepthDuration_HTML.html#149,149,1152,606,1440,900,8-20-2022,13-0-58,54,depth_duration_stimuli/000469_2014-06-09_19-42-10_260595134347_rgbf000081-resize_1/000469_2014-06-09_19-42-10_260595134347_rgbf000081-resize_1-target.png,250,1.652,70.0,2480,249,meters,jsons/v1_VE250_randls_37.json,1665819,1841520,40,Man
54,531988,DepthScenes,duration_manipulation_targetAtFixation,jsons/v1_VE250_randls_37.json,http://54.235.29.9/FacialAge/BNav_EC2/DepthDuration/v2_depth_duration_MTurk/v2_DepthDuration_HTML.html#149,149,1152,606,1440,900,8-20-2022,13-0-58,55,depth_duration_stimuli/000483_2014-06-09_20-41-45_260595134347_rgbf000116-resize_4/000483_2014-06-09_20-41-45_260595134347_rgbf000116-resize_4-target.png,250,1.337,88.0,2338,249,meters,jsons/v1_VE250_randls_37.json,1665819,1841520,40,Man
55,531988,DepthScenes,duration_manipulation_targetAtFixation,jsons/v1_VE250_randls_37.json,http://54.235.29.9/FacialAge/BNav_EC2/DepthDuration/v2_depth_duration_MTurk/v2_DepthDuration_HTML.html#149,149,1152,606,1440,900,8-20-2022,13-0-58,56,depth_duration_stimuli/002118_2014-06-25_20-32-08_260595134347_rgbf000078-resize_1/002118_2014-06-25_20-32-08_260595134347_rgbf000078-resize_1-target.png,250,2.6460000000000004,98.0,2266,250,meters,jsons/v1_VE250_randls_37.json,1665819,1841520,40,Man
56,531988,DepthScenes,duration_manipulation_targetAtFixation,jsons/v1_VE250_randls_37.json,http://54.235.29.9/FacialAge/BNav_EC2/DepthDuration/v2_depth_duration_MTurk/v2_DepthDuration_HTML.html#149,149,1152,606,1440,900,8-20-2022,13-0-58,57,depth_duration_stimuli/001516_2014-06-20_16-25-09_260595134347_rgbf000076-resize_2/001516_2014-06-20_16-25-09_260595134347_rgbf000076-resize_2-target.png,250,1.7445,89.0,3546,250,meters,jsons/v1_VE250_randls_37.json,1665819,1841520,40,Man
57,531988,DepthScenes,duration_manipulation_targetAtFixation,jsons/v1_VE250_randls_37.json,http://54.235.29.9/FacialAge/BNav_EC2/DepthDuration/v2_depth_duration_MTurk/v2_DepthDuration_HTML.html#149,149,1152,606,1440,900,8-20-2022,13-0-58,58,depth_duration_stimuli/002663_2014-06-13_15-50-26_094959634447_rgbf000075-resize_1/002663_2014-06-13_15-50-26_094959634447_rgbf000075-resize_1-target.png,250,4.7495,77.0,2265,250,meters,jsons/v1_VE250_randls_37.json,1665819,1841520,40,Man
58,531988,DepthScenes,duration_manipulation_targetAtFixation,jsons/v1_VE250_randls_37.json,http://54.235.29.9/FacialAge/BNav_EC2/DepthDuration/v2_depth_duration_MTurk/v2_DepthDuration_HTML.html#149,149,1152,606,1440,900,8-20-2022,13-0-58,59,depth_duration_stimuli/000409_2014-06-04_19-23-33_260595134347_rgbf000067-resize_0/000409_2014-06-04_19-23-33_260595134347_rgbf000067-resize_0-target.png,250,3.7335,67.0,2338,249,meters,jsons/v1_VE250_randls_37.json,1665819,1841520,40,Man
59,531988,DepthScenes,duration_manipulation_targetAtFixation,jsons/v1_VE250_randls_37.json,http://54.235.29.9/FacialAge/BNav_EC2/DepthDuration/v2_depth_duration_MTurk/v2_DepthDuration_HTML.html#149,149,1152,606,1440,900,8-20-2022,13-0-58,60,depth_duration_stimuli/002509_2014-06-24_13-19-22_094959634447_rgbf000077-resize_0/002509_2014-06-24_13-19-22_094959634447_rgbf000077-resize_0-target.png,250,1.3065,66.0,2269,249,meters,jsons/v1_VE250_randls_37.json,1665819,1841520,40,Man
60,531988,DepthScenes,duration_manipulation_targetAtFixation,jsons/v1_VE250_randls_37.json,http://54.235.29.9/FacialAge/BNav_EC2/DepthDuration/v2_depth_duration_MTurk/v2_DepthDuration_HTML.html#149,149,1152,606,1440,900,8-20-2022,13-0-58,61,depth_duration_stimuli/003338_2014-05-20_11-01-23_094959634447_rgbf000051-resize_6/003338_2014-05-20_11-01-23_094959634447_rgbf000051-resize_6-target.png,250,1.693,63.0,2336,248,meters,jsons/v1_VE250_randls_37.json,1665819,1841520,40,Man
61,531988,DepthScenes,duration_manipulation_targetAtFixation,jsons/v1_VE250_randls_37.json,http://54.235.29.9/FacialAge/BNav_EC2/DepthDuration/v2_depth_duration_MTurk/v2_DepthDuration_HTML.html#149,149,1152,606,1440,900,8-20-2022,13-0-58,62,depth_duration_stimuli/001570_2014-06-20_17-21-09_260595134347_rgbf000135-resize_4/001570_2014-06-20_17-21-09_260595134347_rgbf000135-resize_4-target.png,250,4.467,20.0,2467,249,meters,jsons/v1_VE250_randls_37.json,1665819,1841520,40,Man
62,531988,DepthScenes,duration_manipulation_targetAtFixation,jsons/v1_VE250_randls_37.json,http://54.235.29.9/FacialAge/BNav_EC2/DepthDuration/v2_depth_duration_MTurk/v2_DepthDuration_HTML.html#149,149,1152,606,1440,900,8-20-2022,13-0-58,63,depth_duration_stimuli/001392_2014-06-19_16-07-59_260595134347_rgbf000046-resize_1/001392_2014-06-19_16-07-59_260595134347_rgbf000046-resize_1-target.png,250,4.135,55.0,2402,250,meters,jsons/v1_VE250_randls_37.json,1665819,1841520,40,Man
63,531988,DepthScenes,duration_manipulation_targetAtFixation,jsons/v1_VE250_randls_37.json,http://54.235.29.9/FacialAge/BNav_EC2/DepthDuration/v2_depth_duration_MTurk/v2_DepthDuration_HTML.html#149,149,1152,606,1440,900,8-20-2022,13-0-58,64,depth_duration_stimuli/000682_2014-06-08_23-14-58_260595134347_rgbf000041-resize_5/000682_2014-06-08_23-14-58_260595134347_rgbf000041-resize_5-target.png,250,2.7239999999999998,47.0,2651,249,meters,jsons/v1_VE250_randls_37.json,1665819,1841520,40,Man
64,531988,DepthScenes,duration_manipulation_targetAtFixation,jsons/v1_VE250_randls_37.json,http://54.235.29.9/FacialAge/BNav_EC2/DepthDuration/v2_depth_duration_MTurk/v2_DepthDuration_HTML.html#149,149,1152,606,1440,900,8-20-2022,13-0-58,65,depth_duration_stimuli/001650_2014-06-20_12-09-00_260595134347_rgbf000087-resize_3/001650_2014-06-20_12-09-00_260595134347_rgbf000087-resize_3-target.png,250,1.9505,87.0,2339,250,meters,jsons/v1_VE250_randls_37.json,1665819,1841520,40,Man
65,531988,DepthScenes,duration_manipulation_targetAtFixation,jsons/v1_VE250_randls_37.json,http://54.235.29.9/FacialAge/BNav_EC2/DepthDuration/v2_depth_duration_MTurk/v2_DepthDuration_HTML.html#149,149,1152,606,1440,900,8-20-2022,13-0-58,66,depth_duration_stimuli/001222_2014-06-17_16-24-06_260595134347_rgbf000073-resize_0/001222_2014-06-17_16-24-06_260595134347_rgbf000073-resize-original.jpg,250,1.4385,0.0,2194,249,meters,jsons/v1_VE250_randls_37.json,1665819,1841520,40,Man
66,531988,DepthScenes,duration_manipulation_targetAtFixation,jsons/v1_VE250_randls_37.json,http://54.235.29.9/FacialAge/BNav_EC2/DepthDuration/v2_depth_duration_MTurk/v2_DepthDuration_HTML.html#149,149,1152,606,1440,900,8-20-2022,13-0-58,67,depth_duration_stimuli/000917_2014-06-09_22-45-29_260595134347_rgbf000149-resize_3/000917_2014-06-09_22-45-29_260595134347_rgbf000149-resize_3-target.png,250,4.1865,232.0,2675,250,meters,jsons/v1_VE250_randls_37.json,1665819,1841520,40,Man
67,531988,DepthScenes,duration_manipulation_targetAtFixation,jsons/v1_VE250_randls_37.json,http://54.235.29.9/FacialAge/BNav_EC2/DepthDuration/v2_depth_duration_MTurk/v2_DepthDuration_HTML.html#149,149,1152,606,1440,900,8-20-2022,13-0-58,68,depth_duration_stimuli/002323_2014-06-28_20-01-54_260595134347_rgbf000051-resize_4/002323_2014-06-28_20-01-54_260595134347_rgbf000051-resize_4-target.png,250,3.7310000000000003,66.0,2171,249,meters,jsons/v1_VE250_randls_37.json,1665819,1841520,40,Man
68,531988,DepthScenes,duration_manipulation_targetAtFixation,jsons/v1_VE250_randls_37.json,http://54.235.29.9/FacialAge/BNav_EC2/DepthDuration/v2_depth_duration_MTurk/v2_DepthDuration_HTML.html#149,149,1152,606,1440,900,8-20-2022,13-0-58,69,depth_duration_stimuli/001029_2014-06-08_13-17-57_260595134347_rgbf000065-resize_1/001029_2014-06-08_13-17-57_260595134347_rgbf000065-resize_1-target.png,250,3.0835,69.0,2538,248,meters,jsons/v1_VE250_randls_37.json,1665819,1841520,40,Man
69,531988,DepthScenes,duration_manipulation_targetAtFixation,jsons/v1_VE250_randls_37.json,http://54.235.29.9/FacialAge/BNav_EC2/DepthDuration/v2_depth_duration_MTurk/v2_DepthDuration_HTML.html#149,149,1152,606,1440,900,8-20-2022,13-0-58,70,depth_duration_stimuli/000677_2014-06-08_23-10-32_260595134347_rgbf000158-resize_6/000677_2014-06-08_23-10-32_260595134347_rgbf000158-resize_6-target.png,250,3.556,70.0,2274,249,meters,jsons/v1_VE250_randls_37.json,1665819,1841520,40,Man
70,531988,DepthScenes,duration_manipulation_targetAtFixation,jsons/v1_VE250_randls_37.json,http://54.235.29.9/FacialAge/BNav_EC2/DepthDuration/v2_depth_duration_MTurk/v2_DepthDuration_HTML.html#149,149,1152,606,1440,900,8-20-2022,13-0-58,71,depth_duration_stimuli/000739_2014-06-08_18-45-58_260595134347_rgbf000068-resize_1/000739_2014-06-08_18-45-58_260595134347_rgbf000068-resize_1-target.png,250,3.534,77.0,2291,249,meters,jsons/v1_VE250_randls_37.json,1665819,1841520,40,Man
71,531988,DepthScenes,duration_manipulation_targetAtFixation,jsons/v1_VE250_randls_37.json,http://54.235.29.9/FacialAge/BNav_EC2/DepthDuration/v2_depth_duration_MTurk/v2_DepthDuration_HTML.html#149,149,1152,606,1440,900,8-20-2022,13-0-58,72,depth_duration_stimuli/000734_2014-06-08_17-39-11_260595134347_rgbf000128-resize_2/000734_2014-06-08_17-39-11_260595134347_rgbf000128-resize_2-target.png,250,4.098,80.0,2220,250,meters,jsons/v1_VE250_randls_37.json,1665819,1841520,40,Man
72,531988,DepthScenes,duration_manipulation_targetAtFixation,jsons/v1_VE250_randls_37.json,http://54.235.29.9/FacialAge/BNav_EC2/DepthDuration/v2_depth_duration_MTurk/v2_DepthDuration_HTML.html#149,149,1152,606,1440,900,8-20-2022,13-0-58,73,depth_duration_stimuli/001808_2014-06-26_20-50-58_260595134347_rgbf000029-resize_1/001808_2014-06-26_20-50-58_260595134347_rgbf000029-resize_1-target.png,250,4.249,20.0,3562,250,meters,jsons/v1_VE250_randls_37.json,1665819,1841520,40,Man
73,531988,DepthScenes,duration_manipulation_targetAtFixation,jsons/v1_VE250_randls_37.json,http://54.235.29.9/FacialAge/BNav_EC2/DepthDuration/v2_depth_duration_MTurk/v2_DepthDuration_HTML.html#149,149,1152,606,1440,900,8-20-2022,13-0-58,74,depth_duration_stimuli/001815_2014-06-26_20-52-55_260595134347_rgbf000020-resize_0/001815_2014-06-26_20-52-55_260595134347_rgbf000020-resize_0-target.png,250,3.3865,38.0,2594,249,meters,jsons/v1_VE250_randls_37.json,1665819,1841520,40,Man
74,531988,DepthScenes,duration_manipulation_targetAtFixation,jsons/v1_VE250_randls_37.json,http://54.235.29.9/FacialAge/BNav_EC2/DepthDuration/v2_depth_duration_MTurk/v2_DepthDuration_HTML.html#149,149,1152,606,1440,900,8-20-2022,13-0-58,75,depth_duration_stimuli/001199_2014-06-17_16-03-48_260595134347_rgbf000077-resize_0/001199_2014-06-17_16-03-48_260595134347_rgbf000077-resize_0-target.png,250,3.4375,88.0,4242,250,meters,jsons/v1_VE250_randls_37.json,1665819,1841520,40,Man
75,531988,DepthScenes,duration_manipulation_targetAtFixation,jsons/v1_VE250_randls_37.json,http://54.235.29.9/FacialAge/BNav_EC2/DepthDuration/v2_depth_duration_MTurk/v2_DepthDuration_HTML.html#149,149,1152,606,1440,900,8-20-2022,13-0-58,76,depth_duration_stimuli/000502_2014-06-08_23-02-32_260595134347_rgbf000063-resize_4/000502_2014-06-08_23-02-32_260595134347_rgbf000063-resize_4-target.png,250,2.431,88.0,3290,248,meters,jsons/v1_VE250_randls_37.json,1665819,1841520,40,Man
76,531988,DepthScenes,duration_manipulation_targetAtFixation,jsons/v1_VE250_randls_37.json,http://54.235.29.9/FacialAge/BNav_EC2/DepthDuration/v2_depth_duration_MTurk/v2_DepthDuration_HTML.html#149,149,1152,606,1440,900,8-20-2022,13-0-58,77,depth_duration_stimuli/001167_2014-06-17_15-38-07_260595134347_rgbf000108-resize_0/001167_2014-06-17_15-38-07_260595134347_rgbf000108-resize_0-target.png,250,1.8505,99.0,3315,249,meters,jsons/v1_VE250_randls_37.json,1665819,1841520,40,Man
77,531988,DepthScenes,duration_manipulation_targetAtFixation,jsons/v1_VE250_randls_37.json,http://54.235.29.9/FacialAge/BNav_EC2/DepthDuration/v2_depth_duration_MTurk/v2_DepthDuration_HTML.html#149,149,1152,606,1440,900,8-20-2022,13-0-58,78,depth_duration_stimuli/003587_2014-05-23_16-48-02_094959634447_rgbf002384-resize_2/003587_2014-05-23_16-48-02_094959634447_rgbf002384-resize_2-target.png,250,1.357,100.0,2651,248,meters,jsons/v1_VE250_randls_37.json,1665819,1841520,40,Man
78,531988,DepthScenes,duration_manipulation_targetAtFixation,jsons/v1_VE250_randls_37.json,http://54.235.29.9/FacialAge/BNav_EC2/DepthDuration/v2_depth_duration_MTurk/v2_DepthDuration_HTML.html#149,149,1152,606,1440,900,8-20-2022,13-0-58,79,depth_duration_stimuli/002784_2014-06-22_19-26-30_094959634447_rgbf000083-resize_3/002784_2014-06-22_19-26-30_094959634447_rgbf000083-resize_3-target.png,250,1.8046666666667,77.0,3138,250,meters,jsons/v1_VE250_randls_37.json,1665819,1841520,40,Man
79,531988,DepthScenes,duration_manipulation_targetAtFixation,jsons/v1_VE250_randls_37.json,http://54.235.29.9/FacialAge/BNav_EC2/DepthDuration/v2_depth_duration_MTurk/v2_DepthDuration_HTML.html#149,149,1152,606,1440,900,8-20-2022,13-0-58,80,depth_duration_stimuli/001100_2014-06-15_17-46-26_260595134347_rgbf000225-resize_2/001100_2014-06-15_17-46-26_260595134347_rgbf000225-resize_2-target.png,250,2.24,52.0,4937,249,meters,jsons/v1_VE250_randls_37.json,1665819,1841520,40,Man
80,531988,DepthScenes,duration_manipulation_targetAtFixation,jsons/v1_VE250_randls_37.json,http://54.235.29.9/FacialAge/BNav_EC2/DepthDuration/v2_depth_duration_MTurk/v2_DepthDuration_HTML.html#149,149,1152,606,1440,900,8-20-2022,13-0-58,81,depth_duration_stimuli/001806_2014-06-26_20-50-20_260595134347_rgbf000091-resize_1/001806_2014-06-26_20-50-20_260595134347_rgbf000091-resize_1-target.png,250,2.7305,29.0,3530,251,meters,jsons/v1_VE250_randls_37.json,1665819,1841520,40,Man
81,531988,DepthScenes,duration_manipulation_targetAtFixation,jsons/v1_VE250_randls_37.json,http://54.235.29.9/FacialAge/BNav_EC2/DepthDuration/v2_depth_duration_MTurk/v2_DepthDuration_HTML.html#149,149,1152,606,1440,900,8-20-2022,13-0-58,82,depth_duration_stimuli/001617_2014-06-20_11-35-32_260595134347_rgbf000066-resize_1/001617_2014-06-20_11-35-32_260595134347_rgbf000066-resize_1-target.png,250,3.7910000000000004,30.0,2579,249,meters,jsons/v1_VE250_randls_37.json,1665819,1841520,40,Man
82,531988,DepthScenes,duration_manipulation_targetAtFixation,jsons/v1_VE250_randls_37.json,http://54.235.29.9/FacialAge/BNav_EC2/DepthDuration/v2_depth_duration_MTurk/v2_DepthDuration_HTML.html#149,149,1152,606,1440,900,8-20-2022,13-0-58,83,depth_duration_stimuli/001150_2014-06-17_15-27-34_260595134347_rgbf000108-resize_2/001150_2014-06-17_15-27-34_260595134347_rgbf000108-resize_2-target.png,250,4.0325,39.0,2897,250,meters,jsons/v1_VE250_randls_37.json,1665819,1841520,40,Man
83,531988,DepthScenes,duration_manipulation_targetAtFixation,jsons/v1_VE250_randls_37.json,http://54.235.29.9/FacialAge/BNav_EC2/DepthDuration/v2_depth_duration_MTurk/v2_DepthDuration_HTML.html#149,149,1152,606,1440,900,8-20-2022,13-0-58,84,depth_duration_stimuli/000665_2014-06-09_20-42-35_260595134347_rgbf000110-resize_1/000665_2014-06-09_20-42-35_260595134347_rgbf000110-resize_1-target.png,250,3.057,46.0,2569,249,meters,jsons/v1_VE250_randls_37.json,1665819,1841520,40,Man
84,531988,DepthScenes,duration_manipulation_targetAtFixation,jsons/v1_VE250_randls_37.json,http://54.235.29.9/FacialAge/BNav_EC2/DepthDuration/v2_depth_duration_MTurk/v2_DepthDuration_HTML.html#149,149,1152,606,1440,900,8-20-2022,13-0-58,85,depth_duration_stimuli/001158_2014-06-17_15-32-16_260595134347_rgbf000138-resize_2/001158_2014-06-17_15-32-16_260595134347_rgbf000138-resize_2-target.png,250,4.5315,47.0,2866,251,meters,jsons/v1_VE250_randls_37.json,1665819,1841520,40,Man
85,531988,DepthScenes,duration_manipulation_targetAtFixation,jsons/v1_VE250_randls_37.json,http://54.235.29.9/FacialAge/BNav_EC2/DepthDuration/v2_depth_duration_MTurk/v2_DepthDuration_HTML.html#149,149,1152,606,1440,900,8-20-2022,13-0-58,86,depth_duration_stimuli/000556_2014-06-09_22-42-56_260595134347_rgbf000214-resize_1/000556_2014-06-09_22-42-56_260595134347_rgbf000214-resize_1-target.png,250,4.8415,99.0,2499,249,meters,jsons/v1_VE250_randls_37.json,1665819,1841520,40,Man
86,531988,DepthScenes,duration_manipulation_targetAtFixation,jsons/v1_VE250_randls_37.json,http://54.235.29.9/FacialAge/BNav_EC2/DepthDuration/v2_depth_duration_MTurk/v2_DepthDuration_HTML.html#149,149,1152,606,1440,900,8-20-2022,13-0-58,87,depth_duration_stimuli/000368_2014-06-09_15-53-01_260595134347_rgbf000155-resize_2/000368_2014-06-09_15-53-01_260595134347_rgbf000155-resize_2-target.png,250,2.4859999999999998,52.0,2227,249,meters,jsons/v1_VE250_randls_37.json,1665819,1841520,40,Man
87,531988,DepthScenes,duration_manipulation_targetAtFixation,jsons/v1_VE250_randls_37.json,http://54.235.29.9/FacialAge/BNav_EC2/DepthDuration/v2_depth_duration_MTurk/v2_DepthDuration_HTML.html#149,149,1152,606,1440,900,8-20-2022,13-0-58,88,depth_duration_stimuli/002678_2014-06-13_16-15-32_094959634447_rgbf000151-resize_6/002678_2014-06-13_16-15-32_094959634447_rgbf000151-resize_6-target.png,250,2.1830000000000003,20.0,2376,250,meters,jsons/v1_VE250_randls_37.json,1665819,1841520,40,Man
88,531988,DepthScenes,duration_manipulation_targetAtFixation,jsons/v1_VE250_randls_37.json,http://54.235.29.9/FacialAge/BNav_EC2/DepthDuration/v2_depth_duration_MTurk/v2_DepthDuration_HTML.html#149,149,1152,606,1440,900,8-20-2022,13-0-58,89,depth_duration_stimuli/002964_2014-06-08_17-46-11_094959634447_rgbf000091-resize_4/002964_2014-06-08_17-46-11_094959634447_rgbf000091-resize_4-target.png,250,1.6909999999999998,583.0,2443,250,meters,jsons/v1_VE250_randls_37.json,1665819,1841520,40,Man
89,531988,DepthScenes,duration_manipulation_targetAtFixation,jsons/v1_VE250_randls_37.json,http://54.235.29.9/FacialAge/BNav_EC2/DepthDuration/v2_depth_duration_MTurk/v2_DepthDuration_HTML.html#149,149,1152,606,1440,900,8-20-2022,13-0-58,90,depth_duration_stimuli/002136_2014-06-25_21-18-03_260595134347_rgbf000109-resize_3/002136_2014-06-25_21-18-03_260595134347_rgbf000109-resize_3-target.png,250,1.9569999999999999,36.0,2617,250,meters,jsons/v1_VE250_randls_37.json,1665819,1841520,40,Man
90,531988,DepthScenes,duration_manipulation_targetAtFixation,jsons/v1_VE250_randls_37.json,http://54.235.29.9/FacialAge/BNav_EC2/DepthDuration/v2_depth_duration_MTurk/v2_DepthDuration_HTML.html#149,149,1152,606,1440,900,8-20-2022,13-0-58,91,depth_duration_stimuli/001244_2014-06-17_16-47-45_260595134347_rgbf000030-resize_4/001244_2014-06-17_16-47-45_260595134347_rgbf000030-resize_4-target.png,250,2.0425,58.0,2835,250,meters,jsons/v1_VE250_randls_37.json,1665819,1841520,40,Man
91,531988,DepthScenes,duration_manipulation_targetAtFixation,jsons/v1_VE250_randls_37.json,http://54.235.29.9/FacialAge/BNav_EC2/DepthDuration/v2_depth_duration_MTurk/v2_DepthDuration_HTML.html#149,149,1152,606,1440,900,8-20-2022,13-0-58,92,depth_duration_stimuli/003495_2014-05-21_16-01-51_094959634447_rgbf000100-resize_3/003495_2014-05-21_16-01-51_094959634447_rgbf000100-resize_3-target.png,250,1.6255,60.0,2737,250,meters,jsons/v1_VE250_randls_37.json,1665819,1841520,40,Man
92,531988,DepthScenes,duration_manipulation_targetAtFixation,jsons/v1_VE250_randls_37.json,http://54.235.29.9/FacialAge/BNav_EC2/DepthDuration/v2_depth_duration_MTurk/v2_DepthDuration_HTML.html#149,149,1152,606,1440,900,8-20-2022,13-0-58,93,depth_duration_stimuli/002375_2014-06-28_20-13-44_260595134347_rgbf000032-resize_1/002375_2014-06-28_20-13-44_260595134347_rgbf000032-resize_1-target.png,250,4.0175,28.0,7226,250,meters,jsons/v1_VE250_randls_37.json,1665819,1841520,40,Man
93,531988,DepthScenes,duration_manipulation_targetAtFixation,jsons/v1_VE250_randls_37.json,http://54.235.29.9/FacialAge/BNav_EC2/DepthDuration/v2_depth_duration_MTurk/v2_DepthDuration_HTML.html#149,149,1152,606,1440,900,8-20-2022,13-0-58,94,depth_duration_stimuli/002657_2014-06-13_15-29-54_094959634447_rgbf000150-resize_1/002657_2014-06-13_15-29-54_094959634447_rgbf000150-resize_1-target.png,250,4.919,30.0,2634,249,meters,jsons/v1_VE250_randls_37.json,1665819,1841520,40,Man
94,531988,DepthScenes,duration_manipulation_targetAtFixation,jsons/v1_VE250_randls_37.json,http://54.235.29.9/FacialAge/BNav_EC2/DepthDuration/v2_depth_duration_MTurk/v2_DepthDuration_HTML.html#149,149,1152,606,1440,900,8-20-2022,13-0-58,95,depth_duration_stimuli/003534_2014-05-22_15-06-10_094959634447_rgbf000102-resize_4/003534_2014-05-22_15-06-10_094959634447_rgbf000102-resize_4-target.png,250,1.426,0.0,2515,249,meters,jsons/v1_VE250_randls_37.json,1665819,1841520,40,Man
95,531988,DepthScenes,duration_manipulation_targetAtFixation,jsons/v1_VE250_randls_37.json,http://54.235.29.9/FacialAge/BNav_EC2/DepthDuration/v2_depth_duration_MTurk/v2_DepthDuration_HTML.html#149,149,1152,606,1440,900,8-20-2022,13-0-58,96,depth_duration_stimuli/002637_2014-06-24_14-51-13_094959634447_rgbf000066-resize_4/002637_2014-06-24_14-51-13_094959634447_rgbf000066-resize_4-target.png,250,1.9955,33.0,3169,249,meters,jsons/v1_VE250_randls_37.json,1665819,1841520,40,Man
96,531988,DepthScenes,duration_manipulation_targetAtFixation,jsons/v1_VE250_randls_37.json,http://54.235.29.9/FacialAge/BNav_EC2/DepthDuration/v2_depth_duration_MTurk/v2_DepthDuration_HTML.html#149,149,1152,606,1440,900,8-20-2022,13-0-58,97,depth_duration_stimuli/001449_2014-06-19_17-01-27_260595134347_rgbf000116-resize_2/001449_2014-06-19_17-01-27_260595134347_rgbf000116-resize_2-target.png,250,3.452,38.0,2546,248,meters,jsons/v1_VE250_randls_37.json,1665819,1841520,40,Man
97,531988,DepthScenes,duration_manipulation_targetAtFixation,jsons/v1_VE250_randls_37.json,http://54.235.29.9/FacialAge/BNav_EC2/DepthDuration/v2_depth_duration_MTurk/v2_DepthDuration_HTML.html#149,149,1152,606,1440,900,8-20-2022,13-0-58,98,depth_duration_stimuli/001450_2014-06-19_17-02-03_260595134347_rgbf000203-resize_4/001450_2014-06-19_17-02-03_260595134347_rgbf000203-resize_4-target.png,250,4.0106666666667,87.0,3433,249,meters,jsons/v1_VE250_randls_37.json,1665819,1841520,40,Man
98,531988,DepthScenes,duration_manipulation_targetAtFixation,jsons/v1_VE250_randls_37.json,http://54.235.29.9/FacialAge/BNav_EC2/DepthDuration/v2_depth_duration_MTurk/v2_DepthDuration_HTML.html#149,149,1152,606,1440,900,8-20-2022,13-0-58,99,depth_duration_stimuli/001540_2014-06-20_17-01-05_260595134347_rgbf000086-resize_2/001540_2014-06-20_17-01-05_260595134347_rgbf000086-resize-original.jpg,250,1.459,0.0,2131,250,meters,jsons/v1_VE250_randls_37.json,1665819,1841520,40,Man
99,531988,DepthScenes,duration_manipulation_targetAtFixation,jsons/v1_VE250_randls_37.json,http://54.235.29.9/FacialAge/BNav_EC2/DepthDuration/v2_depth_duration_MTurk/v2_DepthDuration_HTML.html#149,149,1152,606,1440,900,8-20-2022,13-0-58,100,depth_duration_stimuli/000788_2014-06-08_22-34-36_260595134347_rgbf000131-resize_1/000788_2014-06-08_22-34-36_260595134347_rgbf000131-resize_1-target.png,250,3.359,90.0,6787,248,meters,jsons/v1_VE250_randls_37.json,1665819,1841520,40,Man
100,531988,DepthScenes,duration_manipulation_targetAtFixation,jsons/v1_VE250_randls_37.json,http://54.235.29.9/FacialAge/BNav_EC2/DepthDuration/v2_depth_duration_MTurk/v2_DepthDuration_HTML.html#149,149,1152,606,1440,900,8-20-2022,13-0-58,101,depth_duration_stimuli/001235_2014-06-17_16-37-36_260595134347_rgbf000084-resize_4/001235_2014-06-17_16-37-36_260595134347_rgbf000084-resize_4-target.png,250,3.6605,22.0,6090,249,meters,jsons/v1_VE250_randls_37.json,1665819,1841520,40,Man
101,531988,DepthScenes,duration_manipulation_targetAtFixation,jsons/v1_VE250_randls_37.json,http://54.235.29.9/FacialAge/BNav_EC2/DepthDuration/v2_depth_duration_MTurk/v2_DepthDuration_HTML.html#149,149,1152,606,1440,900,8-20-2022,13-0-58,102,depth_duration_stimuli/001417_2014-06-19_16-25-36_260595134347_rgbf000115-resize_5/001417_2014-06-19_16-25-36_260595134347_rgbf000115-resize_5-target.png,250,4.6255,21.0,2866,250,meters,jsons/v1_VE250_randls_37.json,1665819,1841520,40,Man
102,531988,DepthScenes,duration_manipulation_targetAtFixation,jsons/v1_VE250_randls_37.json,http://54.235.29.9/FacialAge/BNav_EC2/DepthDuration/v2_depth_duration_MTurk/v2_DepthDuration_HTML.html#149,149,1152,606,1440,900,8-20-2022,13-0-58,103,depth_duration_stimuli/003081_2014-06-15_15-19-16_094959634447_rgbf000150-resize_1/003081_2014-06-15_15-19-16_094959634447_rgbf000150-resize_1-target.png,250,3.9125,46.0,3355,250,meters,jsons/v1_VE250_randls_37.json,1665819,1841520,40,Man
103,531988,DepthScenes,duration_manipulation_targetAtFixation,jsons/v1_VE250_randls_37.json,http://54.235.29.9/FacialAge/BNav_EC2/DepthDuration/v2_depth_duration_MTurk/v2_DepthDuration_HTML.html#149,149,1152,606,1440,900,8-20-2022,13-0-58,104,depth_duration_stimuli/000878_2014-06-08_22-52-45_260595134347_rgbf000045-resize_2/000878_2014-06-08_22-52-45_260595134347_rgbf000045-resize_2-target.png,250,2.092,80.0,2889,250,meters,jsons/v1_VE250_randls_37.json,1665819,1841520,40,Man
104,531988,DepthScenes,duration_manipulation_targetAtFixation,jsons/v1_VE250_randls_37.json,http://54.235.29.9/FacialAge/BNav_EC2/DepthDuration/v2_depth_duration_MTurk/v2_DepthDuration_HTML.html#149,149,1152,606,1440,900,8-20-2022,13-0-58,105,depth_duration_stimuli/002953_2014-06-08_17-32-18_094959634447_rgbf000059-resize_5/002953_2014-06-08_17-32-18_094959634447_rgbf000059-resize_5-target.png,250,1.551,87.0,2506,249,meters,jsons/v1_VE250_randls_37.json,1665819,1841520,40,Man
105,531988,DepthScenes,duration_manipulation_targetAtFixation,jsons/v1_VE250_randls_37.json,http://54.235.29.9/FacialAge/BNav_EC2/DepthDuration/v2_depth_duration_MTurk/v2_DepthDuration_HTML.html#149,149,1152,606,1440,900,8-20-2022,13-0-58,106,depth_duration_stimuli/000736_2014-06-08_18-24-15_260595134347_rgbf000206-resize_3/000736_2014-06-08_18-24-15_260595134347_rgbf000206-resize_3-target.png,250,3.515,86.0,2634,250,meters,jsons/v1_VE250_randls_37.json,1665819,1841520,40,Man
106,531988,DepthScenes,duration_manipulation_targetAtFixation,jsons/v1_VE250_randls_37.json,http://54.235.29.9/FacialAge/BNav_EC2/DepthDuration/v2_depth_duration_MTurk/v2_DepthDuration_HTML.html#149,149,1152,606,1440,900,8-20-2022,13-0-58,107,depth_duration_stimuli/000137_2014-05-20_17-04-49_260595134347_rgbf000120-resize_1/000137_2014-05-20_17-04-49_260595134347_rgbf000120-resize_1-target.png,250,3.786,88.0,3690,250,meters,jsons/v1_VE250_randls_37.json,1665819,1841520,40,Man
107,531988,DepthScenes,duration_manipulation_targetAtFixation,jsons/v1_VE250_randls_37.json,http://54.235.29.9/FacialAge/BNav_EC2/DepthDuration/v2_depth_duration_MTurk/v2_DepthDuration_HTML.html#149,149,1152,606,1440,900,8-20-2022,13-0-58,108,depth_duration_stimuli/001055_2014-06-08_18-45-35_260595134347_rgbf000111-resize_4/001055_2014-06-08_18-45-35_260595134347_rgbf000111-resize_4-target.png,250,2.4290000000000003,90.0,2428,249,meters,jsons/v1_VE250_randls_37.json,1665819,1841520,40,Man
108,531988,DepthScenes,duration_manipulation_targetAtFixation,jsons/v1_VE250_randls_37.json,http://54.235.29.9/FacialAge/BNav_EC2/DepthDuration/v2_depth_duration_MTurk/v2_DepthDuration_HTML.html#149,149,1152,606,1440,900,8-20-2022,13-0-58,109,depth_duration_stimuli/000549_2014-06-08_22-10-24_260595134347_rgbf000247-resize_3/000549_2014-06-08_22-10-24_260595134347_rgbf000247-resize_3-target.png,250,1.841,99.0,2769,249,meters,jsons/v1_VE250_randls_37.json,1665819,1841520,40,Man
109,531988,DepthScenes,duration_manipulation_targetAtFixation,jsons/v1_VE250_randls_37.json,http://54.235.29.9/FacialAge/BNav_EC2/DepthDuration/v2_depth_duration_MTurk/v2_DepthDuration_HTML.html#149,149,1152,606,1440,900,8-20-2022,13-0-58,110,depth_duration_stimuli/000486_2014-06-09_20-47-20_260595134347_rgbf000143-resize_2/000486_2014-06-09_20-47-20_260595134347_rgbf000143-resize_2-target.png,250,4.8325,100.0,2916,250,meters,jsons/v1_VE250_randls_37.json,1665819,1841520,40,Man
110,531988,DepthScenes,duration_manipulation_targetAtFixation,jsons/v1_VE250_randls_37.json,http://54.235.29.9/FacialAge/BNav_EC2/DepthDuration/v2_depth_duration_MTurk/v2_DepthDuration_HTML.html#149,149,1152,606,1440,900,8-20-2022,13-0-58,111,depth_duration_stimuli/003083_2014-06-15_15-21-03_094959634447_rgbf000063-resize_1/003083_2014-06-15_15-21-03_094959634447_rgbf000063-resize_1-target.png,250,4.1405,121.0,2760,250,meters,jsons/v1_VE250_randls_37.json,1665819,1841520,40,Man
111,531988,DepthScenes,duration_manipulation_targetAtFixation,jsons/v1_VE250_randls_37.json,http://54.235.29.9/FacialAge/BNav_EC2/DepthDuration/v2_depth_duration_MTurk/v2_DepthDuration_HTML.html#149,149,1152,606,1440,900,8-20-2022,13-0-58,112,depth_duration_stimuli/002788_2014-06-22_19-36-03_094959634447_rgbf000088-resize_2/002788_2014-06-22_19-36-03_094959634447_rgbf000088-resize_2-target.png,250,1.6465,20.0,2586,250,meters,jsons/v1_VE250_randls_37.json,1665819,1841520,40,Man
112,531988,DepthScenes,duration_manipulation_targetAtFixation,jsons/v1_VE250_randls_37.json,http://54.235.29.9/FacialAge/BNav_EC2/DepthDuration/v2_depth_duration_MTurk/v2_DepthDuration_HTML.html#149,149,1152,606,1440,900,8-20-2022,13-0-58,113,depth_duration_stimuli/000749_2014-06-08_21-55-06_260595134347_rgbf000070-resize_2/000749_2014-06-08_21-55-06_260595134347_rgbf000070-resize_2-target.png,250,2.331,200.0,2466,250,meters,jsons/v1_VE250_randls_37.json,1665819,1841520,40,Man
113,531988,DepthScenes,duration_manipulation_targetAtFixation,jsons/v1_VE250_randls_37.json,http://54.235.29.9/FacialAge/BNav_EC2/DepthDuration/v2_depth_duration_MTurk/v2_DepthDuration_HTML.html#149,149,1152,606,1440,900,8-20-2022,13-0-58,114,depth_duration_stimuli/000414_2014-06-04_19-49-13_260595134347_rgbf000044-resize_0/000414_2014-06-04_19-49-13_260595134347_rgbf000044-resize_0-target.png,250,4.329,39.0,2596,249,meters,jsons/v1_VE250_randls_37.json,1665819,1841520,40,Man
114,531988,DepthScenes,duration_manipulation_targetAtFixation,jsons/v1_VE250_randls_37.json,http://54.235.29.9/FacialAge/BNav_EC2/DepthDuration/v2_depth_duration_MTurk/v2_DepthDuration_HTML.html#149,149,1152,606,1440,900,8-20-2022,13-0-58,115,depth_duration_stimuli/003129_2014-05-12_10-48-10_094959634447_rgbf000100-resize_0/003129_2014-05-12_10-48-10_094959634447_rgbf000100-resize_0-target.png,250,4.9305,43.0,2315,249,meters,jsons/v1_VE250_randls_37.json,1665819,1841520,40,Man
115,531988,DepthScenes,duration_manipulation_targetAtFixation,jsons/v1_VE250_randls_37.json,http://54.235.29.9/FacialAge/BNav_EC2/DepthDuration/v2_depth_duration_MTurk/v2_DepthDuration_HTML.html#149,149,1152,606,1440,900,8-20-2022,13-0-58,116,depth_duration_stimuli/001170_2014-06-17_15-43-44_260595134347_rgbf000096-resize_6/001170_2014-06-17_15-43-44_260595134347_rgbf000096-resize-original.jpg,250,1.1909999999999998,0.0,2018,248,meters,jsons/v1_VE250_randls_37.json,1665819,1841520,40,Man
116,531988,DepthScenes,duration_manipulation_targetAtFixation,jsons/v1_VE250_randls_37.json,http://54.235.29.9/FacialAge/BNav_EC2/DepthDuration/v2_depth_duration_MTurk/v2_DepthDuration_HTML.html#149,149,1152,606,1440,900,8-20-2022,13-0-58,117,depth_duration_stimuli/002763_2014-06-22_19-13-10_094959634447_rgbf000075-resize_4/002763_2014-06-22_19-13-10_094959634447_rgbf000075-resize_4-target.png,250,1.68375,47.0,2265,250,meters,jsons/v1_VE250_randls_37.json,1665819,1841520,40,Man
117,531988,DepthScenes,duration_manipulation_targetAtFixation,jsons/v1_VE250_randls_37.json,http://54.235.29.9/FacialAge/BNav_EC2/DepthDuration/v2_depth_duration_MTurk/v2_DepthDuration_HTML.html#149,149,1152,606,1440,900,8-20-2022,13-0-58,118,depth_duration_stimuli/002209_2014-06-28_18-36-10_260595134347_rgbf000051-resize_1/002209_2014-06-28_18-36-10_260595134347_rgbf000051-resize_1-target.png,250,2.057,287.0,6738,250,meters,jsons/v1_VE250_randls_37.json,1665819,1841520,40,Man
118,531988,DepthScenes,duration_manipulation_targetAtFixation,jsons/v1_VE250_randls_37.json,http://54.235.29.9/FacialAge/BNav_EC2/DepthDuration/v2_depth_duration_MTurk/v2_DepthDuration_HTML.html#149,149,1152,606,1440,900,8-20-2022,13-0-58,119,depth_duration_stimuli/000436_2014-06-09_22-25-11_260595134347_rgbf000137-resize_1/000436_2014-06-09_22-25-11_260595134347_rgbf000137-resize_1-target.png,250,4.0705,39.0,3154,249,meters,jsons/v1_VE250_randls_37.json,1665819,1841520,40,Man
119,531988,DepthScenes,duration_manipulation_targetAtFixation,jsons/v1_VE250_randls_37.json,http://54.235.29.9/FacialAge/BNav_EC2/DepthDuration/v2_depth_duration_MTurk/v2_DepthDuration_HTML.html#149,149,1152,606,1440,900,8-20-2022,13-0-58,120,depth_duration_stimuli/002444_2014-06-28_20-32-08_260595134347_rgbf000027-resize_0/002444_2014-06-28_20-32-08_260595134347_rgbf000027-resize_0-target.png,250,4.388999999999999,45.0,2362,250,meters,jsons/v1_VE250_randls_37.json,1665819,1841520,40,Man
120,531988,DepthScenes,duration_manipulation_targetAtFixation,jsons/v1_VE250_randls_37.json,http://54.235.29.9/FacialAge/BNav_EC2/DepthDuration/v2_depth_duration_MTurk/v2_DepthDuration_HTML.html#149,149,1152,606,1440,900,8-20-2022,13-0-58,121,depth_duration_stimuli/002570_2014-06-24_13-59-54_094959634447_rgbf000059-resize_0/002570_2014-06-24_13-59-54_094959634447_rgbf000059-resize_0-target.png,250,4.037,0.0,2683,249,meters,jsons/v1_VE250_randls_37.json,1665819,1841520,40,Man
121,531988,DepthScenes,duration_manipulation_targetAtFixation,jsons/v1_VE250_randls_37.json,http://54.235.29.9/FacialAge/BNav_EC2/DepthDuration/v2_depth_duration_MTurk/v2_DepthDuration_HTML.html#149,149,1152,606,1440,900,8-20-2022,13-0-58,122,depth_duration_stimuli/002467_2014-06-28_20-38-07_260595134347_rgbf000026-resize_2/002467_2014-06-28_20-38-07_260595134347_rgbf000026-resize_2-target.png,250,4.742,33.0,2092,249,meters,jsons/v1_VE250_randls_37.json,1665819,1841520,40,Man
122,531988,DepthScenes,duration_manipulation_targetAtFixation,jsons/v1_VE250_randls_37.json,http://54.235.29.9/FacialAge/BNav_EC2/DepthDuration/v2_depth_duration_MTurk/v2_DepthDuration_HTML.html#149,149,1152,606,1440,900,8-20-2022,13-0-58,123,depth_duration_stimuli/003621_2014-05-23_18-06-08_094959634447_rgbf000101-resize_1/003621_2014-05-23_18-06-08_094959634447_rgbf000101-resize_1-target.png,250,3.9835,87.0,2281,250,meters,jsons/v1_VE250_randls_37.json,1665819,1841520,40,Man
123,531988,DepthScenes,duration_manipulation_targetAtFixation,jsons/v1_VE250_randls_37.json,http://54.235.29.9/FacialAge/BNav_EC2/DepthDuration/v2_depth_duration_MTurk/v2_DepthDuration_HTML.html#149,149,1152,606,1440,900,8-20-2022,13-0-58,124,depth_duration_stimuli/001584_2014-06-20_11-07-43_260595134347_rgbf000002-resize_1/001584_2014-06-20_11-07-43_260595134347_rgbf000002-resize_1-target.png,250,3.53,88.0,2171,249,meters,jsons/v1_VE250_randls_37.json,1665819,1841520,40,Man
124,531988,DepthScenes,duration_manipulation_targetAtFixation,jsons/v1_VE250_randls_37.json,http://54.235.29.9/FacialAge/BNav_EC2/DepthDuration/v2_depth_duration_MTurk/v2_DepthDuration_HTML.html#149,149,1152,606,1440,900,8-20-2022,13-0-58,125,depth_duration_stimuli/001555_2014-06-20_17-12-10_260595134347_rgbf000065-resize_4/001555_2014-06-20_17-12-10_260595134347_rgbf000065-resize_4-target.png,250,1.633,98.0,3298,249,meters,jsons/v1_VE250_randls_37.json,1665819,1841520,40,Man
125,531988,DepthScenes,duration_manipulation_targetAtFixation,jsons/v1_VE250_randls_37.json,http://54.235.29.9/FacialAge/BNav_EC2/DepthDuration/v2_depth_duration_MTurk/v2_DepthDuration_HTML.html#149,149,1152,606,1440,900,8-20-2022,13-0-58,126,depth_duration_stimuli/000103_2014-05-14_22-01-17_260595134347_rgbf000152-resize_5/000103_2014-05-14_22-01-17_260595134347_rgbf000152-resize_5-target.png,250,1.993,100.0,2322,250,meters,jsons/v1_VE250_randls_37.json,1665819,1841520,40,Man
126,531988,DepthScenes,duration_manipulation_targetAtFixation,jsons/v1_VE250_randls_37.json,http://54.235.29.9/FacialAge/BNav_EC2/DepthDuration/v2_depth_duration_MTurk/v2_DepthDuration_HTML.html#149,149,1152,606,1440,900,8-20-2022,13-0-58,127,depth_duration_stimuli/002630_2014-06-24_14-47-50_094959634447_rgbf000055-resize_1/002630_2014-06-24_14-47-50_094959634447_rgbf000055-resize_1-target.png,250,3.0095,30.0,2195,251,meters,jsons/v1_VE250_randls_37.json,1665819,1841520,40,Man
127,531988,DepthScenes,duration_manipulation_targetAtFixation,jsons/v1_VE250_randls_37.json,http://54.235.29.9/FacialAge/BNav_EC2/DepthDuration/v2_depth_duration_MTurk/v2_DepthDuration_HTML.html#149,149,1152,606,1440,900,8-20-2022,13-0-58,128,depth_duration_stimuli/002758_2014-06-22_19-11-20_094959634447_rgbf000128-resize_1/002758_2014-06-22_19-11-20_094959634447_rgbf000128-resize_1-target.png,250,2.555,20.0,2410,250,meters,jsons/v1_VE250_randls_37.json,1665819,1841520,40,Man
128,531988,DepthScenes,duration_manipulation_targetAtFixation,jsons/v1_VE250_randls_37.json,http://54.235.29.9/FacialAge/BNav_EC2/DepthDuration/v2_depth_duration_MTurk/v2_DepthDuration_HTML.html#149,149,1152,606,1440,900,8-20-2022,13-0-58,129,depth_duration_stimuli/001110_2014-06-15_17-25-28_260595134347_rgbf000150-resize_1/001110_2014-06-15_17-25-28_260595134347_rgbf000150-resize_1-target.png,250,1.7115,30.0,2211,249,meters,jsons/v1_VE250_randls_37.json,1665819,1841520,40,Man
129,531988,DepthScenes,duration_manipulation_targetAtFixation,jsons/v1_VE250_randls_37.json,http://54.235.29.9/FacialAge/BNav_EC2/DepthDuration/v2_depth_duration_MTurk/v2_DepthDuration_HTML.html#149,149,1152,606,1440,900,8-20-2022,13-0-58,130,depth_duration_stimuli/000927_2014-06-09_16-32-30_260595134347_rgbf000123-resize_3/000927_2014-06-09_16-32-30_260595134347_rgbf000123-resize_3-target.png,250,2.6785,38.0,2369,249,meters,jsons/v1_VE250_randls_37.json,1665819,1841520,40,Man
130,531988,DepthScenes,duration_manipulation_targetAtFixation,jsons/v1_VE250_randls_37.json,http://54.235.29.9/FacialAge/BNav_EC2/DepthDuration/v2_depth_duration_MTurk/v2_DepthDuration_HTML.html#149,149,1152,606,1440,900,8-20-2022,13-0-58,131,depth_duration_stimuli/000470_2014-06-09_19-42-40_260595134347_rgbf000094-resize_1/000470_2014-06-09_19-42-40_260595134347_rgbf000094-resize_1-target.png,250,1.831,47.0,2266,250,meters,jsons/v1_VE250_randls_37.json,1665819,1841520,40,Man
131,531988,DepthScenes,duration_manipulation_targetAtFixation,jsons/v1_VE250_randls_37.json,http://54.235.29.9/FacialAge/BNav_EC2/DepthDuration/v2_depth_duration_MTurk/v2_DepthDuration_HTML.html#149,149,1152,606,1440,900,8-20-2022,13-0-58,132,depth_duration_stimuli/000109_2014-05-14_23-41-52_260595134347_rgbf000035-resize_9/000109_2014-05-14_23-41-52_260595134347_rgbf000035-resize_9-target.png,250,1.3545,58.0,3728,250,meters,jsons/v1_VE250_randls_37.json,1665819,1841520,40,Man
132,531988,DepthScenes,duration_manipulation_targetAtFixation,jsons/v1_VE250_randls_37.json,http://54.235.29.9/FacialAge/BNav_EC2/DepthDuration/v2_depth_duration_MTurk/v2_DepthDuration_HTML.html#149,149,1152,606,1440,900,8-20-2022,13-0-58,133,depth_duration_stimuli/003492_2014-05-21_15-50-55_094959634447_rgbf000828-resize_1/003492_2014-05-21_15-50-55_094959634447_rgbf000828-resize_1-target.png,250,4.06875,56.0,2404,251,meters,jsons/v1_VE250_randls_37.json,1665819,1841520,40,Man
133,531988,DepthScenes,duration_manipulation_targetAtFixation,jsons/v1_VE250_randls_37.json,http://54.235.29.9/FacialAge/BNav_EC2/DepthDuration/v2_depth_duration_MTurk/v2_DepthDuration_HTML.html#149,149,1152,606,1440,900,8-20-2022,13-0-58,134,depth_duration_stimuli/002568_2014-06-24_13-59-21_094959634447_rgbf000062-resize_4/002568_2014-06-24_13-59-21_094959634447_rgbf000062-resize_4-target.png,250,3.015,87.0,3088,250,meters,jsons/v1_VE250_randls_37.json,1665819,1841520,40,Man
134,531988,DepthScenes,duration_manipulation_targetAtFixation,jsons/v1_VE250_randls_37.json,http://54.235.29.9/FacialAge/BNav_EC2/DepthDuration/v2_depth_duration_MTurk/v2_DepthDuration_HTML.html#149,149,1152,606,1440,900,8-20-2022,13-0-58,135,depth_duration_stimuli/002072_2014-06-24_21-48-06_260595134347_rgbf000115-resize_0/002072_2014-06-24_21-48-06_260595134347_rgbf000115-resize-original.jpg,250,4.702,88.0,2987,251,meters,jsons/v1_VE250_randls_37.json,1665819,1841520,40,Man
135,531988,DepthScenes,duration_manipulation_targetAtFixation,jsons/v1_VE250_randls_37.json,http://54.235.29.9/FacialAge/BNav_EC2/DepthDuration/v2_depth_duration_MTurk/v2_DepthDuration_HTML.html#149,149,1152,606,1440,900,8-20-2022,13-0-58,136,depth_duration_stimuli/000692_2014-06-08_13-09-42_260595134347_rgbf000199-resize_2/000692_2014-06-08_13-09-42_260595134347_rgbf000199-resize_2-target.png,250,3.661,90.0,2315,249,meters,jsons/v1_VE250_randls_37.json,1665819,1841520,40,Man
136,531988,DepthScenes,duration_manipulation_targetAtFixation,jsons/v1_VE250_randls_37.json,http://54.235.29.9/FacialAge/BNav_EC2/DepthDuration/v2_depth_duration_MTurk/v2_DepthDuration_HTML.html#149,149,1152,606,1440,900,8-20-2022,13-0-58,137,depth_duration_stimuli/001094_2014-06-15_17-36-00_260595134347_rgbf000205-resize_0/001094_2014-06-15_17-36-00_260595134347_rgbf000205-resize_0-target.png,250,4.2175,99.0,2658,250,meters,jsons/v1_VE250_randls_37.json,1665819,1841520,40,Man
137,531988,DepthScenes,duration_manipulation_targetAtFixation,jsons/v1_VE250_randls_37.json,http://54.235.29.9/FacialAge/BNav_EC2/DepthDuration/v2_depth_duration_MTurk/v2_DepthDuration_HTML.html#149,149,1152,606,1440,900,8-20-2022,13-0-58,138,depth_duration_stimuli/001164_2014-06-17_15-35-46_260595134347_rgbf000085-resize_3/001164_2014-06-17_15-35-46_260595134347_rgbf000085-resize_3-target.png,250,2.354,100.0,4994,250,meters,jsons/v1_VE250_randls_37.json,1665819,1841520,40,Man
138,531988,DepthScenes,duration_manipulation_targetAtFixation,jsons/v1_VE250_randls_37.json,http://54.235.29.9/FacialAge/BNav_EC2/DepthDuration/v2_depth_duration_MTurk/v2_DepthDuration_HTML.html#149,149,1152,606,1440,900,8-20-2022,13-0-58,139,depth_duration_stimuli/001136_2014-06-17_15-19-41_260595134347_rgbf000076-resize_3/001136_2014-06-17_15-19-41_260595134347_rgbf000076-resize_3-target.png,250,1.8655,25.0,3275,251,meters,jsons/v1_VE250_randls_37.json,1665819,1841520,40,Man
139,531988,DepthScenes,duration_manipulation_targetAtFixation,jsons/v1_VE250_randls_37.json,http://54.235.29.9/FacialAge/BNav_EC2/DepthDuration/v2_depth_duration_MTurk/v2_DepthDuration_HTML.html#149,149,1152,606,1440,900,8-20-2022,13-0-58,140,depth_duration_stimuli/002725_2014-06-22_11-47-51_094959634447_rgbf000070-resize_1/002725_2014-06-22_11-47-51_094959634447_rgbf000070-resize_1-target.png,250,2.195,80.0,2474,249,meters,jsons/v1_VE250_randls_37.json,1665819,1841520,40,Man
140,531988,DepthScenes,duration_manipulation_targetAtFixation,jsons/v1_VE250_randls_37.json,http://54.235.29.9/FacialAge/BNav_EC2/DepthDuration/v2_depth_duration_MTurk/v2_DepthDuration_HTML.html#149,149,1152,606,1440,900,8-20-2022,13-0-58,141,depth_duration_stimuli/002344_2014-06-28_20-06-29_260595134347_rgbf000030-resize_1/002344_2014-06-28_20-06-29_260595134347_rgbf000030-resize_1-target.png,250,1.5795,30.0,2346,250,meters,jsons/v1_VE250_randls_37.json,1665819,1841520,40,Man
141,531988,DepthScenes,duration_manipulation_targetAtFixation,jsons/v1_VE250_randls_37.json,http://54.235.29.9/FacialAge/BNav_EC2/DepthDuration/v2_depth_duration_MTurk/v2_DepthDuration_HTML.html#149,149,1152,606,1440,900,8-20-2022,13-0-58,142,depth_duration_stimuli/000929_2014-06-09_16-33-19_260595134347_rgbf000139-resize_0/000929_2014-06-09_16-33-19_260595134347_rgbf000139-resize_0-target.png,250,2.8680000000000003,48.0,2425,249,meters,jsons/v1_VE250_randls_37.json,1665819,1841520,40,Man
142,531988,DepthScenes,duration_manipulation_targetAtFixation,jsons/v1_VE250_randls_37.json,http://54.235.29.9/FacialAge/BNav_EC2/DepthDuration/v2_depth_duration_MTurk/v2_DepthDuration_HTML.html#149,149,1152,606,1440,900,8-20-2022,13-0-58,143,depth_duration_stimuli/000457_2014-06-08_16-52-43_260595134347_rgbf000199-resize_1/000457_2014-06-08_16-52-43_260595134347_rgbf000199-resize_1-target.png,250,3.6489999999999996,85.0,2586,250,meters,jsons/v1_VE250_randls_37.json,1665819,1841520,40,Man
143,531988,DepthScenes,duration_manipulation_targetAtFixation,jsons/v1_VE250_randls_37.json,http://54.235.29.9/FacialAge/BNav_EC2/DepthDuration/v2_depth_duration_MTurk/v2_DepthDuration_HTML.html#149,149,1152,606,1440,900,8-20-2022,13-0-58,144,depth_duration_stimuli/002445_2014-06-28_20-32-16_260595134347_rgbf000029-resize_4/002445_2014-06-28_20-32-16_260595134347_rgbf000029-resize_4-target.png,250,2.5315,65.0,2746,249,meters,jsons/v1_VE250_randls_37.json,1665819,1841520,40,Man
144,531988,DepthScenes,duration_manipulation_targetAtFixation,jsons/v1_VE250_randls_37.json,http://54.235.29.9/FacialAge/BNav_EC2/DepthDuration/v2_depth_duration_MTurk/v2_DepthDuration_HTML.html#149,149,1152,606,1440,900,8-20-2022,13-0-58,145,depth_duration_stimuli/000780_2014-06-08_22-28-29_260595134347_rgbf000126-resize_1/000780_2014-06-08_22-28-29_260595134347_rgbf000126-resize_1-target.png,250,3.3825,45.0,2451,250,meters,jsons/v1_VE250_randls_37.json,1665819,1841520,40,Man
145,531988,DepthScenes,duration_manipulation_targetAtFixation,jsons/v1_VE250_randls_37.json,http://54.235.29.9/FacialAge/BNav_EC2/DepthDuration/v2_depth_duration_MTurk/v2_DepthDuration_HTML.html#149,149,1152,606,1440,900,8-20-2022,13-0-58,146,depth_duration_stimuli/001498_2014-06-19_17-45-14_260595134347_rgbf000129-resize_4/001498_2014-06-19_17-45-14_260595134347_rgbf000129-resize-original.jpg,250,1.4075,0.0,1995,249,meters,jsons/v1_VE250_randls_37.json,1665819,1841520,40,Man
146,531988,DepthScenes,duration_manipulation_targetAtFixation,jsons/v1_VE250_randls_37.json,http://54.235.29.9/FacialAge/BNav_EC2/DepthDuration/v2_depth_duration_MTurk/v2_DepthDuration_HTML.html#149,149,1152,606,1440,900,8-20-2022,13-0-58,147,depth_duration_stimuli/001175_2014-06-17_15-45-55_260595134347_rgbf000129-resize_4/001175_2014-06-17_15-45-55_260595134347_rgbf000129-resize_4-target.png,250,4.255,20.0,2129,249,meters,jsons/v1_VE250_randls_37.json,1665819,1841520,40,Man
147,531988,DepthScenes,duration_manipulation_targetAtFixation,jsons/v1_VE250_randls_37.json,http://54.235.29.9/FacialAge/BNav_EC2/DepthDuration/v2_depth_duration_MTurk/v2_DepthDuration_HTML.html#149,149,1152,606,1440,900,8-20-2022,13-0-58,148,depth_duration_stimuli/003490_2014-05-21_15-50-11_094959634447_rgbf000101-resize_3/003490_2014-05-21_15-50-11_094959634447_rgbf000101-resize_3-target.png,250,3.6445,20.0,2141,250,meters,jsons/v1_VE250_randls_37.json,1665819,1841520,40,Man
148,531988,DepthScenes,duration_manipulation_targetAtFixation,jsons/v1_VE250_randls_37.json,http://54.235.29.9/FacialAge/BNav_EC2/DepthDuration/v2_depth_duration_MTurk/v2_DepthDuration_HTML.html#149,149,1152,606,1440,900,8-20-2022,13-0-58,149,depth_duration_stimuli/003070_2014-06-15_14-58-27_094959634447_rgbf000150-resize_3/003070_2014-06-15_14-58-27_094959634447_rgbf000150-resize_3-target.png,250,2.9415,58.0,2657,249,meters,jsons/v1_VE250_randls_37.json,1665819,1841520,40,Man
149,531988,DepthScenes,duration_manipulation_targetAtFixation,jsons/v1_VE250_randls_37.json,http://54.235.29.9/FacialAge/BNav_EC2/DepthDuration/v2_depth_duration_MTurk/v2_DepthDuration_HTML.html#149,149,1152,606,1440,900,8-20-2022,13-0-58,150,depth_duration_stimuli/000943_2014-06-09_19-31-07_260595134347_rgbf000128-resize_1/000943_2014-06-09_19-31-07_260595134347_rgbf000128-resize_1-target.png,250,1.9765,65.0,2433,250,meters,jsons/v1_VE250_randls_37.json,1665819,1841520,40,Man
150,531988,DepthScenes,duration_manipulation_targetAtFixation,jsons/v1_VE250_randls_37.json,http://54.235.29.9/FacialAge/BNav_EC2/DepthDuration/v2_depth_duration_MTurk/v2_DepthDuration_HTML.html#149,149,1152,606,1440,900,8-20-2022,13-0-58,151,depth_duration_stimuli/001133_2014-06-17_14-49-16_260595134347_rgbf000100-resize_0/001133_2014-06-17_14-49-16_260595134347_rgbf000100-resize_0-target.png,250,4.2115,58.0,2442,249,meters,jsons/v1_VE250_randls_37.json,1665819,1841520,40,Man
151,531988,DepthScenes,duration_manipulation_targetAtFixation,jsons/v1_VE250_randls_37.json,http://54.235.29.9/FacialAge/BNav_EC2/DepthDuration/v2_depth_duration_MTurk/v2_DepthDuration_HTML.html#149,149,1152,606,1440,900,8-20-2022,13-0-58,152,depth_duration_stimuli/001132_2014-06-17_14-48-54_260595134347_rgbf000100-resize_2/001132_2014-06-17_14-48-54_260595134347_rgbf000100-resize_2-target.png,250,3.753,710.0,2645,249,meters,jsons/v1_VE250_randls_37.json,1665819,1841520,40,Man
152,531988,DepthScenes,duration_manipulation_targetAtFixation,jsons/v1_VE250_randls_37.json,http://54.235.29.9/FacialAge/BNav_EC2/DepthDuration/v2_depth_duration_MTurk/v2_DepthDuration_HTML.html#149,149,1152,606,1440,900,8-20-2022,13-0-58,153,depth_duration_stimuli/001810_2014-06-26_20-51-35_260595134347_rgbf000040-resize_3/001810_2014-06-26_20-51-35_260595134347_rgbf000040-resize_3-target.png,250,2.2525,12.0,2368,250,meters,jsons/v1_VE250_randls_37.json,1665819,1841520,40,Man
153,531988,DepthScenes,duration_manipulation_targetAtFixation,jsons/v1_VE250_randls_37.json,http://54.235.29.9/FacialAge/BNav_EC2/DepthDuration/v2_depth_duration_MTurk/v2_DepthDuration_HTML.html#149,149,1152,606,1440,900,8-20-2022,13-0-58,154,depth_duration_stimuli/003010_2014-06-15_12-54-35_094959634447_rgbf000112-resize_0/003010_2014-06-15_12-54-35_094959634447_rgbf000112-resize_0-target.png,250,3.1185,10.0,2586,250,meters,jsons/v1_VE250_randls_37.json,1665819,1841520,40,Man
154,531988,DepthScenes,duration_manipulation_targetAtFixation,jsons/v1_VE250_randls_37.json,http://54.235.29.9/FacialAge/BNav_EC2/DepthDuration/v2_depth_duration_MTurk/v2_DepthDuration_HTML.html#149,149,1152,606,1440,900,8-20-2022,13-0-58,155,depth_duration_stimuli/000642_2014-06-08_16-59-25_260595134347_rgbf000098-resize_2/000642_2014-06-08_16-59-25_260595134347_rgbf000098-resize_2-target.png,250,2.8815,20.0,2218,250,meters,jsons/v1_VE250_randls_37.json,1665819,1841520,40,Man
155,531988,DepthScenes,duration_manipulation_targetAtFixation,jsons/v1_VE250_randls_37.json,http://54.235.29.9/FacialAge/BNav_EC2/DepthDuration/v2_depth_duration_MTurk/v2_DepthDuration_HTML.html#149,149,1152,606,1440,900,8-20-2022,13-0-58,156,depth_duration_stimuli/002425_2014-06-28_20-27-29_260595134347_rgbf000031-resize_8/002425_2014-06-28_20-27-29_260595134347_rgbf000031-resize_8-target.png,250,3.8960000000000004,30.0,2499,249,meters,jsons/v1_VE250_randls_37.json,1665819,1841520,40,Man
156,531988,DepthScenes,duration_manipulation_targetAtFixation,jsons/v1_VE250_randls_37.json,http://54.235.29.9/FacialAge/BNav_EC2/DepthDuration/v2_depth_duration_MTurk/v2_DepthDuration_HTML.html#149,149,1152,606,1440,900,8-20-2022,13-0-58,157,depth_duration_stimuli/002905_2014-06-03_18-04-43_094959634447_rgbf000151-resize_2/002905_2014-06-03_18-04-43_094959634447_rgbf000151-resize_2-target.png,250,2.0295,40.0,3778,249,meters,jsons/v1_VE250_randls_37.json,1665819,1841520,40,Man
157,531988,DepthScenes,duration_manipulation_targetAtFixation,jsons/v1_VE250_randls_37.json,http://54.235.29.9/FacialAge/BNav_EC2/DepthDuration/v2_depth_duration_MTurk/v2_DepthDuration_HTML.html#149,149,1152,606,1440,900,8-20-2022,13-0-58,158,depth_duration_stimuli/003423_2014-05-21_10-23-26_094959634447_rgbf002665-resize_2/003423_2014-05-21_10-23-26_094959634447_rgbf002665-resize_2-target.png,250,3.2575,50.0,2539,250,meters,jsons/v1_VE250_randls_37.json,1665819,1841520,40,Man
158,531988,DepthScenes,duration_manipulation_targetAtFixation,jsons/v1_VE250_randls_37.json,http://54.235.29.9/FacialAge/BNav_EC2/DepthDuration/v2_depth_duration_MTurk/v2_DepthDuration_HTML.html#149,149,1152,606,1440,900,8-20-2022,13-0-58,159,depth_duration_stimuli/001056_2014-06-08_18-46-44_260595134347_rgbf000068-resize_0/001056_2014-06-08_18-46-44_260595134347_rgbf000068-resize_0-target.png,250,2.6625,60.0,2601,250,meters,jsons/v1_VE250_randls_37.json,1665819,1841520,40,Man
159,531988,DepthScenes,duration_manipulation_targetAtFixation,jsons/v1_VE250_randls_37.json,http://54.235.29.9/FacialAge/BNav_EC2/DepthDuration/v2_depth_duration_MTurk/v2_DepthDuration_HTML.html#149,149,1152,606,1440,900,8-20-2022,13-0-58,160,depth_duration_stimuli/002199_2014-06-28_18-33-56_260595134347_rgbf000074-resize_0/002199_2014-06-28_18-33-56_260595134347_rgbf000074-resize_0-target.png,250,1.996,70.0,2539,250,meters,jsons/v1_VE250_randls_37.json,1665819,1841520,40,Man
160,531988,DepthScenes,duration_manipulation_targetAtFixation,jsons/v1_VE250_randls_37.json,http://54.235.29.9/FacialAge/BNav_EC2/DepthDuration/v2_depth_duration_MTurk/v2_DepthDuration_HTML.html#149,149,1152,606,1440,900,8-20-2022,13-0-58,161,depth_duration_stimuli/002043_2014-06-24_20-29-38_260595134347_rgbf000039-resize_4/002043_2014-06-24_20-29-38_260595134347_rgbf000039-resize_4-target.png,250,2.8435,80.0,2754,250,meters,jsons/v1_VE250_randls_37.json,1665819,1841520,40,Man
161,531988,DepthScenes,duration_manipulation_targetAtFixation,jsons/v1_VE250_randls_37.json,http://54.235.29.9/FacialAge/BNav_EC2/DepthDuration/v2_depth_duration_MTurk/v2_DepthDuration_HTML.html#149,149,1152,606,1440,900,8-20-2022,13-0-58,162,depth_duration_stimuli/003048_2014-06-15_13-49-43_094959634447_rgbf000150-resize_1/003048_2014-06-15_13-49-43_094959634447_rgbf000150-resize_1-target.png,250,4.0035,90.0,2666,250,meters,jsons/v1_VE250_randls_37.json,1665819,1841520,40,Man
162,531988,DepthScenes,duration_manipulation_targetAtFixation,jsons/v1_VE250_randls_37.json,http://54.235.29.9/FacialAge/BNav_EC2/DepthDuration/v2_depth_duration_MTurk/v2_DepthDuration_HTML.html#149,149,1152,606,1440,900,8-20-2022,13-0-58,163,depth_duration_stimuli/000493_2014-06-09_21-01-18_260595134347_rgbf000196-resize_3/000493_2014-06-09_21-01-18_260595134347_rgbf000196-resize_3-target.png,250,3.44,10.0,3131,250,meters,jsons/v1_VE250_randls_37.json,1665819,1841520,40,Man
163,531988,DepthScenes,duration_manipulation_targetAtFixation,jsons/v1_VE250_randls_37.json,http://54.235.29.9/FacialAge/BNav_EC2/DepthDuration/v2_depth_duration_MTurk/v2_DepthDuration_HTML.html#149,149,1152,606,1440,900,8-20-2022,13-0-58,164,depth_duration_stimuli/000191_2014-05-12_17-07-38_260595134347_rgbf000199-resize_0/000191_2014-05-12_17-07-38_260595134347_rgbf000199-resize_0-target.png,250,3.7995,50.0,3074,249,meters,jsons/v1_VE250_randls_37.json,1665819,1841520,40,Man
