,subjID,experimentName,versionName,sequenceName,url,selected_row,windowWidth,windowHeight,screenWidth,screenHeight,startDate,startTime,trial,stimulus,duration,actual_depth,depth_estimate,trial_RT,log_sceneDuration,unitSelection,seq_filepath,experimentTime,totalTime,age,gender
0,532442,DepthScenes,duration_manipulation_targetAtFixation,jsons/VE125_randls_5.json,http://54.235.29.9/FacialAge/BNav_EC2/DepthDuration/v2_depth_duration_MTurk/v2_DepthDuration_HTML.html#132,132,1536,864,1536,864,8-21-2022,8-35-15,1,depth_duration_stimuli/002057_2014-06-24_21-00-13_260595134347_rgbf000120-resize_1/002057_2014-06-24_21-00-13_260595134347_rgbf000120-resize_1-target.png,125,2.967,4,3120,126,feet,jsons/VE125_randls_5.json,396124,533930,32,Woman
1,532442,DepthScenes,duration_manipulation_targetAtFixation,jsons/VE125_randls_5.json,http://54.235.29.9/FacialAge/BNav_EC2/DepthDuration/v2_depth_duration_MTurk/v2_DepthDuration_HTML.html#132,132,1536,864,1536,864,8-21-2022,8-35-15,2,depth_duration_stimuli/000709_2014-06-08_13-51-55_260595134347_rgbf000068-resize_3/000709_2014-06-08_13-51-55_260595134347_rgbf000068-resize_3-target.png,125,1.8030000000000002,2,1980,123,feet,jsons/VE125_randls_5.json,396124,533930,32,Woman
2,532442,DepthScenes,duration_manipulation_targetAtFixation,jsons/VE125_randls_5.json,http://54.235.29.9/FacialAge/BNav_EC2/DepthDuration/v2_depth_duration_MTurk/v2_DepthDuration_HTML.html#132,132,1536,864,1536,864,8-21-2022,8-35-15,3,depth_duration_stimuli/000692_2014-06-08_13-09-42_260595134347_rgbf000199-resize_2/000692_2014-06-08_13-09-42_260595134347_rgbf000199-resize_2-target.png,125,3.661,6,2057,123,feet,jsons/VE125_randls_5.json,396124,533930,32,Woman
3,532442,DepthScenes,duration_manipulation_targetAtFixation,jsons/VE125_randls_5.json,http://54.235.29.9/FacialAge/BNav_EC2/DepthDuration/v2_depth_duration_MTurk/v2_DepthDuration_HTML.html#132,132,1536,864,1536,864,8-21-2022,8-35-15,4,depth_duration_stimuli/001094_2014-06-15_17-36-00_260595134347_rgbf000205-resize_0/001094_2014-06-15_17-36-00_260595134347_rgbf000205-resize_0-target.png,125,4.2175,4,3196,122,feet,jsons/VE125_randls_5.json,396124,533930,32,Woman
4,532442,DepthScenes,duration_manipulation_targetAtFixation,jsons/VE125_randls_5.json,http://54.235.29.9/FacialAge/BNav_EC2/DepthDuration/v2_depth_duration_MTurk/v2_DepthDuration_HTML.html#132,132,1536,864,1536,864,8-21-2022,8-35-15,5,depth_duration_stimuli/000788_2014-06-08_22-34-36_260595134347_rgbf000131-resize_1/000788_2014-06-08_22-34-36_260595134347_rgbf000131-resize_1-target.png,125,3.359,3,1924,124,feet,jsons/VE125_randls_5.json,396124,533930,32,Woman
5,532442,DepthScenes,duration_manipulation_targetAtFixation,jsons/VE125_randls_5.json,http://54.235.29.9/FacialAge/BNav_EC2/DepthDuration/v2_depth_duration_MTurk/v2_DepthDuration_HTML.html#132,132,1536,864,1536,864,8-21-2022,8-35-15,6,depth_duration_stimuli/001235_2014-06-17_16-37-36_260595134347_rgbf000084-resize_4/001235_2014-06-17_16-37-36_260595134347_rgbf000084-resize_4-target.png,125,3.6605,2,2814,123,feet,jsons/VE125_randls_5.json,396124,533930,32,Woman
6,532442,DepthScenes,duration_manipulation_targetAtFixation,jsons/VE125_randls_5.json,http://54.235.29.9/FacialAge/BNav_EC2/DepthDuration/v2_depth_duration_MTurk/v2_DepthDuration_HTML.html#132,132,1536,864,1536,864,8-21-2022,8-35-15,7,depth_duration_stimuli/001244_2014-06-17_16-47-45_260595134347_rgbf000030-resize_4/001244_2014-06-17_16-47-45_260595134347_rgbf000030-resize_4-target.png,125,2.0425,3,1973,113,feet,jsons/VE125_randls_5.json,396124,533930,32,Woman
7,532442,DepthScenes,duration_manipulation_targetAtFixation,jsons/VE125_randls_5.json,http://54.235.29.9/FacialAge/BNav_EC2/DepthDuration/v2_depth_duration_MTurk/v2_DepthDuration_HTML.html#132,132,1536,864,1536,864,8-21-2022,8-35-15,8,depth_duration_stimuli/003495_2014-05-21_16-01-51_094959634447_rgbf000100-resize_3/003495_2014-05-21_16-01-51_094959634447_rgbf000100-resize_3-target.png,125,1.6255,1,1732,134,feet,jsons/VE125_randls_5.json,396124,533930,32,Woman
8,532442,DepthScenes,duration_manipulation_targetAtFixation,jsons/VE125_randls_5.json,http://54.235.29.9/FacialAge/BNav_EC2/DepthDuration/v2_depth_duration_MTurk/v2_DepthDuration_HTML.html#132,132,1536,864,1536,864,8-21-2022,8-35-15,9,depth_duration_stimuli/003492_2014-05-21_15-50-55_094959634447_rgbf000828-resize_1/003492_2014-05-21_15-50-55_094959634447_rgbf000828-resize_1-target.png,125,4.06875,5,2065,122,feet,jsons/VE125_randls_5.json,396124,533930,32,Woman
9,532442,DepthScenes,duration_manipulation_targetAtFixation,jsons/VE125_randls_5.json,http://54.235.29.9/FacialAge/BNav_EC2/DepthDuration/v2_depth_duration_MTurk/v2_DepthDuration_HTML.html#132,132,1536,864,1536,864,8-21-2022,8-35-15,10,depth_duration_stimuli/002568_2014-06-24_13-59-21_094959634447_rgbf000062-resize_4/002568_2014-06-24_13-59-21_094959634447_rgbf000062-resize_4-target.png,125,3.015,3,1883,123,feet,jsons/VE125_randls_5.json,396124,533930,32,Woman
10,532442,DepthScenes,duration_manipulation_targetAtFixation,jsons/VE125_randls_5.json,http://54.235.29.9/FacialAge/BNav_EC2/DepthDuration/v2_depth_duration_MTurk/v2_DepthDuration_HTML.html#132,132,1536,864,1536,864,8-21-2022,8-35-15,11,depth_duration_stimuli/001555_2014-06-20_17-12-10_260595134347_rgbf000065-resize_4/001555_2014-06-20_17-12-10_260595134347_rgbf000065-resize_4-target.png,125,1.633,2,1433,124,feet,jsons/VE125_randls_5.json,396124,533930,32,Woman
11,532442,DepthScenes,duration_manipulation_targetAtFixation,jsons/VE125_randls_5.json,http://54.235.29.9/FacialAge/BNav_EC2/DepthDuration/v2_depth_duration_MTurk/v2_DepthDuration_HTML.html#132,132,1536,864,1536,864,8-21-2022,8-35-15,12,depth_duration_stimuli/000103_2014-05-14_22-01-17_260595134347_rgbf000152-resize_5/000103_2014-05-14_22-01-17_260595134347_rgbf000152-resize_5-target.png,125,1.993,6,2036,124,feet,jsons/VE125_randls_5.json,396124,533930,32,Woman
12,532442,DepthScenes,duration_manipulation_targetAtFixation,jsons/VE125_randls_5.json,http://54.235.29.9/FacialAge/BNav_EC2/DepthDuration/v2_depth_duration_MTurk/v2_DepthDuration_HTML.html#132,132,1536,864,1536,864,8-21-2022,8-35-15,13,depth_duration_stimuli/000569_2014-06-09_22-51-47_260595134347_rgbf000141-resize_3/000569_2014-06-09_22-51-47_260595134347_rgbf000141-resize-original.jpg,125,4.512,0,1911,138,feet,jsons/VE125_randls_5.json,396124,533930,32,Woman
13,532442,DepthScenes,duration_manipulation_targetAtFixation,jsons/VE125_randls_5.json,http://54.235.29.9/FacialAge/BNav_EC2/DepthDuration/v2_depth_duration_MTurk/v2_DepthDuration_HTML.html#132,132,1536,864,1536,864,8-21-2022,8-35-15,14,depth_duration_stimuli/002905_2014-06-03_18-04-43_094959634447_rgbf000151-resize_2/002905_2014-06-03_18-04-43_094959634447_rgbf000151-resize_2-target.png,125,2.0295,2,1684,120,feet,jsons/VE125_randls_5.json,396124,533930,32,Woman
14,532442,DepthScenes,duration_manipulation_targetAtFixation,jsons/VE125_randls_5.json,http://54.235.29.9/FacialAge/BNav_EC2/DepthDuration/v2_depth_duration_MTurk/v2_DepthDuration_HTML.html#132,132,1536,864,1536,864,8-21-2022,8-35-15,15,depth_duration_stimuli/003423_2014-05-21_10-23-26_094959634447_rgbf002665-resize_2/003423_2014-05-21_10-23-26_094959634447_rgbf002665-resize_2-target.png,125,3.2575,6,1996,123,feet,jsons/VE125_randls_5.json,396124,533930,32,Woman
15,532442,DepthScenes,duration_manipulation_targetAtFixation,jsons/VE125_randls_5.json,http://54.235.29.9/FacialAge/BNav_EC2/DepthDuration/v2_depth_duration_MTurk/v2_DepthDuration_HTML.html#132,132,1536,864,1536,864,8-21-2022,8-35-15,16,depth_duration_stimuli/000917_2014-06-09_22-45-29_260595134347_rgbf000149-resize_3/000917_2014-06-09_22-45-29_260595134347_rgbf000149-resize_3-target.png,125,4.1865,4,1942,124,feet,jsons/VE125_randls_5.json,396124,533930,32,Woman
16,532442,DepthScenes,duration_manipulation_targetAtFixation,jsons/VE125_randls_5.json,http://54.235.29.9/FacialAge/BNav_EC2/DepthDuration/v2_depth_duration_MTurk/v2_DepthDuration_HTML.html#132,132,1536,864,1536,864,8-21-2022,8-35-15,17,depth_duration_stimuli/002323_2014-06-28_20-01-54_260595134347_rgbf000051-resize_4/002323_2014-06-28_20-01-54_260595134347_rgbf000051-resize_4-target.png,125,3.7310000000000003,5,1839,124,feet,jsons/VE125_randls_5.json,396124,533930,32,Woman
17,532442,DepthScenes,duration_manipulation_targetAtFixation,jsons/VE125_randls_5.json,http://54.235.29.9/FacialAge/BNav_EC2/DepthDuration/v2_depth_duration_MTurk/v2_DepthDuration_HTML.html#132,132,1536,864,1536,864,8-21-2022,8-35-15,18,depth_duration_stimuli/002118_2014-06-25_20-32-08_260595134347_rgbf000078-resize_1/002118_2014-06-25_20-32-08_260595134347_rgbf000078-resize_1-target.png,125,2.6460000000000004,5,2089,122,feet,jsons/VE125_randls_5.json,396124,533930,32,Woman
18,532442,DepthScenes,duration_manipulation_targetAtFixation,jsons/VE125_randls_5.json,http://54.235.29.9/FacialAge/BNav_EC2/DepthDuration/v2_depth_duration_MTurk/v2_DepthDuration_HTML.html#132,132,1536,864,1536,864,8-21-2022,8-35-15,19,depth_duration_stimuli/001516_2014-06-20_16-25-09_260595134347_rgbf000076-resize_2/001516_2014-06-20_16-25-09_260595134347_rgbf000076-resize_2-target.png,125,1.7445,3,2140,123,feet,jsons/VE125_randls_5.json,396124,533930,32,Woman
19,532442,DepthScenes,duration_manipulation_targetAtFixation,jsons/VE125_randls_5.json,http://54.235.29.9/FacialAge/BNav_EC2/DepthDuration/v2_depth_duration_MTurk/v2_DepthDuration_HTML.html#132,132,1536,864,1536,864,8-21-2022,8-35-15,20,depth_duration_stimuli/002600_2014-06-24_14-27-04_094959634447_rgbf000074-resize_2/002600_2014-06-24_14-27-04_094959634447_rgbf000074-resize_2-target.png,125,2.7575,4,2210,123,feet,jsons/VE125_randls_5.json,396124,533930,32,Woman
20,532442,DepthScenes,duration_manipulation_targetAtFixation,jsons/VE125_randls_5.json,http://54.235.29.9/FacialAge/BNav_EC2/DepthDuration/v2_depth_duration_MTurk/v2_DepthDuration_HTML.html#132,132,1536,864,1536,864,8-21-2022,8-35-15,21,depth_duration_stimuli/003228_2014-05-14_13-42-35_094959634447_rgbf000101-resize_1/003228_2014-05-14_13-42-35_094959634447_rgbf000101-resize_1-target.png,125,1.9680000000000002,2,1669,124,feet,jsons/VE125_randls_5.json,396124,533930,32,Woman
21,532442,DepthScenes,duration_manipulation_targetAtFixation,jsons/VE125_randls_5.json,http://54.235.29.9/FacialAge/BNav_EC2/DepthDuration/v2_depth_duration_MTurk/v2_DepthDuration_HTML.html#132,132,1536,864,1536,864,8-21-2022,8-35-15,22,depth_duration_stimuli/000470_2014-06-09_19-42-40_260595134347_rgbf000094-resize_1/000470_2014-06-09_19-42-40_260595134347_rgbf000094-resize_1-target.png,125,1.831,2,1414,124,feet,jsons/VE125_randls_5.json,396124,533930,32,Woman
22,532442,DepthScenes,duration_manipulation_targetAtFixation,jsons/VE125_randls_5.json,http://54.235.29.9/FacialAge/BNav_EC2/DepthDuration/v2_depth_duration_MTurk/v2_DepthDuration_HTML.html#132,132,1536,864,1536,864,8-21-2022,8-35-15,23,depth_duration_stimuli/000109_2014-05-14_23-41-52_260595134347_rgbf000035-resize_9/000109_2014-05-14_23-41-52_260595134347_rgbf000035-resize_9-target.png,125,1.3545,2,1414,121,feet,jsons/VE125_randls_5.json,396124,533930,32,Woman
23,532442,DepthScenes,duration_manipulation_targetAtFixation,jsons/VE125_randls_5.json,http://54.235.29.9/FacialAge/BNav_EC2/DepthDuration/v2_depth_duration_MTurk/v2_DepthDuration_HTML.html#132,132,1536,864,1536,864,8-21-2022,8-35-15,24,depth_duration_stimuli/000506_2014-06-08_23-21-00_260595134347_rgbf000070-resize_7/000506_2014-06-08_23-21-00_260595134347_rgbf000070-resize_7-target.png,125,4.0585,5,1828,124,feet,jsons/VE125_randls_5.json,396124,533930,32,Woman
24,532442,DepthScenes,duration_manipulation_targetAtFixation,jsons/VE125_randls_5.json,http://54.235.29.9/FacialAge/BNav_EC2/DepthDuration/v2_depth_duration_MTurk/v2_DepthDuration_HTML.html#132,132,1536,864,1536,864,8-21-2022,8-35-15,25,depth_duration_stimuli/003079_2014-06-15_15-18-20_094959634447_rgbf000152-resize_8/003079_2014-06-15_15-18-20_094959634447_rgbf000152-resize_8-target.png,125,2.8775,5,1729,138,feet,jsons/VE125_randls_5.json,396124,533930,32,Woman
25,532442,DepthScenes,duration_manipulation_targetAtFixation,jsons/VE125_randls_5.json,http://54.235.29.9/FacialAge/BNav_EC2/DepthDuration/v2_depth_duration_MTurk/v2_DepthDuration_HTML.html#132,132,1536,864,1536,864,8-21-2022,8-35-15,26,depth_duration_stimuli/001167_2014-06-17_15-38-07_260595134347_rgbf000108-resize_0/001167_2014-06-17_15-38-07_260595134347_rgbf000108-resize_0-target.png,125,1.8505,3,1543,117,feet,jsons/VE125_randls_5.json,396124,533930,32,Woman
26,532442,DepthScenes,duration_manipulation_targetAtFixation,jsons/VE125_randls_5.json,http://54.235.29.9/FacialAge/BNav_EC2/DepthDuration/v2_depth_duration_MTurk/v2_DepthDuration_HTML.html#132,132,1536,864,1536,864,8-21-2022,8-35-15,27,depth_duration_stimuli/003587_2014-05-23_16-48-02_094959634447_rgbf002384-resize_2/003587_2014-05-23_16-48-02_094959634447_rgbf002384-resize_2-target.png,125,1.357,2,1475,137,feet,jsons/VE125_randls_5.json,396124,533930,32,Woman
27,532442,DepthScenes,duration_manipulation_targetAtFixation,jsons/VE125_randls_5.json,http://54.235.29.9/FacialAge/BNav_EC2/DepthDuration/v2_depth_duration_MTurk/v2_DepthDuration_HTML.html#132,132,1536,864,1536,864,8-21-2022,8-35-15,28,depth_duration_stimuli/001055_2014-06-08_18-45-35_260595134347_rgbf000111-resize_4/001055_2014-06-08_18-45-35_260595134347_rgbf000111-resize_4-target.png,125,2.4290000000000003,5,2307,125,feet,jsons/VE125_randls_5.json,396124,533930,32,Woman
28,532442,DepthScenes,duration_manipulation_targetAtFixation,jsons/VE125_randls_5.json,http://54.235.29.9/FacialAge/BNav_EC2/DepthDuration/v2_depth_duration_MTurk/v2_DepthDuration_HTML.html#132,132,1536,864,1536,864,8-21-2022,8-35-15,29,depth_duration_stimuli/000549_2014-06-08_22-10-24_260595134347_rgbf000247-resize_3/000549_2014-06-08_22-10-24_260595134347_rgbf000247-resize_3-target.png,125,1.841,2,1705,125,feet,jsons/VE125_randls_5.json,396124,533930,32,Woman
29,532442,DepthScenes,duration_manipulation_targetAtFixation,jsons/VE125_randls_5.json,http://54.235.29.9/FacialAge/BNav_EC2/DepthDuration/v2_depth_duration_MTurk/v2_DepthDuration_HTML.html#132,132,1536,864,1536,864,8-21-2022,8-35-15,30,depth_duration_stimuli/000375_2014-06-08_11-17-29_260595134347_rgbf000133-resize_2/000375_2014-06-08_11-17-29_260595134347_rgbf000133-resize-original.jpg,125,4.718,0,2880,125,feet,jsons/VE125_randls_5.json,396124,533930,32,Woman
30,532442,DepthScenes,duration_manipulation_targetAtFixation,jsons/VE125_randls_5.json,http://54.235.29.9/FacialAge/BNav_EC2/DepthDuration/v2_depth_duration_MTurk/v2_DepthDuration_HTML.html#132,132,1536,864,1536,864,8-21-2022,8-35-15,31,depth_duration_stimuli/000739_2014-06-08_18-45-58_260595134347_rgbf000068-resize_1/000739_2014-06-08_18-45-58_260595134347_rgbf000068-resize_1-target.png,125,3.534,5,2158,126,feet,jsons/VE125_randls_5.json,396124,533930,32,Woman
31,532442,DepthScenes,duration_manipulation_targetAtFixation,jsons/VE125_randls_5.json,http://54.235.29.9/FacialAge/BNav_EC2/DepthDuration/v2_depth_duration_MTurk/v2_DepthDuration_HTML.html#132,132,1536,864,1536,864,8-21-2022,8-35-15,32,depth_duration_stimuli/000734_2014-06-08_17-39-11_260595134347_rgbf000128-resize_2/000734_2014-06-08_17-39-11_260595134347_rgbf000128-resize_2-target.png,125,4.098,5,1752,133,feet,jsons/VE125_randls_5.json,396124,533930,32,Woman
32,532442,DepthScenes,duration_manipulation_targetAtFixation,jsons/VE125_randls_5.json,http://54.235.29.9/FacialAge/BNav_EC2/DepthDuration/v2_depth_duration_MTurk/v2_DepthDuration_HTML.html#132,132,1536,864,1536,864,8-21-2022,8-35-15,33,depth_duration_stimuli/000642_2014-06-08_16-59-25_260595134347_rgbf000098-resize_2/000642_2014-06-08_16-59-25_260595134347_rgbf000098-resize_2-target.png,125,2.8815,4,1352,122,feet,jsons/VE125_randls_5.json,396124,533930,32,Woman
33,532442,DepthScenes,duration_manipulation_targetAtFixation,jsons/VE125_randls_5.json,http://54.235.29.9/FacialAge/BNav_EC2/DepthDuration/v2_depth_duration_MTurk/v2_DepthDuration_HTML.html#132,132,1536,864,1536,864,8-21-2022,8-35-15,34,depth_duration_stimuli/002425_2014-06-28_20-27-29_260595134347_rgbf000031-resize_8/002425_2014-06-28_20-27-29_260595134347_rgbf000031-resize_8-target.png,125,3.8960000000000004,6,1923,124,feet,jsons/VE125_randls_5.json,396124,533930,32,Woman
34,532442,DepthScenes,duration_manipulation_targetAtFixation,jsons/VE125_randls_5.json,http://54.235.29.9/FacialAge/BNav_EC2/DepthDuration/v2_depth_duration_MTurk/v2_DepthDuration_HTML.html#132,132,1536,864,1536,864,8-21-2022,8-35-15,35,depth_duration_stimuli/001810_2014-06-26_20-51-35_260595134347_rgbf000040-resize_3/001810_2014-06-26_20-51-35_260595134347_rgbf000040-resize_3-target.png,125,2.2525,3,2511,123,feet,jsons/VE125_randls_5.json,396124,533930,32,Woman
35,532442,DepthScenes,duration_manipulation_targetAtFixation,jsons/VE125_randls_5.json,http://54.235.29.9/FacialAge/BNav_EC2/DepthDuration/v2_depth_duration_MTurk/v2_DepthDuration_HTML.html#132,132,1536,864,1536,864,8-21-2022,8-35-15,36,depth_duration_stimuli/003010_2014-06-15_12-54-35_094959634447_rgbf000112-resize_0/003010_2014-06-15_12-54-35_094959634447_rgbf000112-resize_0-target.png,125,3.1185,5,1777,135,feet,jsons/VE125_randls_5.json,396124,533930,32,Woman
36,532442,DepthScenes,duration_manipulation_targetAtFixation,jsons/VE125_randls_5.json,http://54.235.29.9/FacialAge/BNav_EC2/DepthDuration/v2_depth_duration_MTurk/v2_DepthDuration_HTML.html#132,132,1536,864,1536,864,8-21-2022,8-35-15,37,depth_duration_stimuli/001016_2014-06-09_16-16-10_260595134347_rgbf000112-resize_5/001016_2014-06-09_16-16-10_260595134347_rgbf000112-resize_5-target.png,125,1.6565,3,1518,124,feet,jsons/VE125_randls_5.json,396124,533930,32,Woman
37,532442,DepthScenes,duration_manipulation_targetAtFixation,jsons/VE125_randls_5.json,http://54.235.29.9/FacialAge/BNav_EC2/DepthDuration/v2_depth_duration_MTurk/v2_DepthDuration_HTML.html#132,132,1536,864,1536,864,8-21-2022,8-35-15,38,depth_duration_stimuli/002340_2014-06-28_20-05-46_260595134347_rgbf000113-resize_0/002340_2014-06-28_20-05-46_260595134347_rgbf000113-resize_0-target.png,125,2.4735,4,1681,137,feet,jsons/VE125_randls_5.json,396124,533930,32,Woman
38,532442,DepthScenes,duration_manipulation_targetAtFixation,jsons/VE125_randls_5.json,http://54.235.29.9/FacialAge/BNav_EC2/DepthDuration/v2_depth_duration_MTurk/v2_DepthDuration_HTML.html#132,132,1536,864,1536,864,8-21-2022,8-35-15,39,depth_duration_stimuli/003621_2014-05-23_18-06-08_094959634447_rgbf000101-resize_1/003621_2014-05-23_18-06-08_094959634447_rgbf000101-resize_1-target.png,125,3.9835,6,1844,138,feet,jsons/VE125_randls_5.json,396124,533930,32,Woman
39,532442,DepthScenes,duration_manipulation_targetAtFixation,jsons/VE125_randls_5.json,http://54.235.29.9/FacialAge/BNav_EC2/DepthDuration/v2_depth_duration_MTurk/v2_DepthDuration_HTML.html#132,132,1536,864,1536,864,8-21-2022,8-35-15,40,depth_duration_stimuli/001584_2014-06-20_11-07-43_260595134347_rgbf000002-resize_1/001584_2014-06-20_11-07-43_260595134347_rgbf000002-resize_1-target.png,125,3.53,6,1833,123,feet,jsons/VE125_randls_5.json,396124,533930,32,Woman
40,532442,DepthScenes,duration_manipulation_targetAtFixation,jsons/VE125_randls_5.json,http://54.235.29.9/FacialAge/BNav_EC2/DepthDuration/v2_depth_duration_MTurk/v2_DepthDuration_HTML.html#132,132,1536,864,1536,864,8-21-2022,8-35-15,41,depth_duration_stimuli/001133_2014-06-17_14-49-16_260595134347_rgbf000100-resize_0/001133_2014-06-17_14-49-16_260595134347_rgbf000100-resize_0-target.png,125,4.2115,7,1861,130,feet,jsons/VE125_randls_5.json,396124,533930,32,Woman
41,532442,DepthScenes,duration_manipulation_targetAtFixation,jsons/VE125_randls_5.json,http://54.235.29.9/FacialAge/BNav_EC2/DepthDuration/v2_depth_duration_MTurk/v2_DepthDuration_HTML.html#132,132,1536,864,1536,864,8-21-2022,8-35-15,42,depth_duration_stimuli/001132_2014-06-17_14-48-54_260595134347_rgbf000100-resize_2/001132_2014-06-17_14-48-54_260595134347_rgbf000100-resize_2-target.png,125,3.753,5,2025,138,feet,jsons/VE125_randls_5.json,396124,533930,32,Woman
42,532442,DepthScenes,duration_manipulation_targetAtFixation,jsons/VE125_randls_5.json,http://54.235.29.9/FacialAge/BNav_EC2/DepthDuration/v2_depth_duration_MTurk/v2_DepthDuration_HTML.html#132,132,1536,864,1536,864,8-21-2022,8-35-15,43,depth_duration_stimuli/000682_2014-06-08_23-14-58_260595134347_rgbf000041-resize_5/000682_2014-06-08_23-14-58_260595134347_rgbf000041-resize_5-target.png,125,2.7239999999999998,3,1775,140,feet,jsons/VE125_randls_5.json,396124,533930,32,Woman
43,532442,DepthScenes,duration_manipulation_targetAtFixation,jsons/VE125_randls_5.json,http://54.235.29.9/FacialAge/BNav_EC2/DepthDuration/v2_depth_duration_MTurk/v2_DepthDuration_HTML.html#132,132,1536,864,1536,864,8-21-2022,8-35-15,44,depth_duration_stimuli/001650_2014-06-20_12-09-00_260595134347_rgbf000087-resize_3/001650_2014-06-20_12-09-00_260595134347_rgbf000087-resize_3-target.png,125,1.9505,1,1557,124,feet,jsons/VE125_randls_5.json,396124,533930,32,Woman
44,532442,DepthScenes,duration_manipulation_targetAtFixation,jsons/VE125_randls_5.json,http://54.235.29.9/FacialAge/BNav_EC2/DepthDuration/v2_depth_duration_MTurk/v2_DepthDuration_HTML.html#132,132,1536,864,1536,864,8-21-2022,8-35-15,45,depth_duration_stimuli/000787_2014-06-08_22-33-53_260595134347_rgbf000175-resize_1/000787_2014-06-08_22-33-53_260595134347_rgbf000175-resize-original.jpg,125,4.784,0,2795,122,feet,jsons/VE125_randls_5.json,396124,533930,32,Woman
45,532442,DepthScenes,duration_manipulation_targetAtFixation,jsons/VE125_randls_5.json,http://54.235.29.9/FacialAge/BNav_EC2/DepthDuration/v2_depth_duration_MTurk/v2_DepthDuration_HTML.html#132,132,1536,864,1536,864,8-21-2022,8-35-15,46,depth_duration_stimuli/001806_2014-06-26_20-50-20_260595134347_rgbf000091-resize_1/001806_2014-06-26_20-50-20_260595134347_rgbf000091-resize_1-target.png,125,2.7305,3,1745,123,feet,jsons/VE125_randls_5.json,396124,533930,32,Woman
46,532442,DepthScenes,duration_manipulation_targetAtFixation,jsons/VE125_randls_5.json,http://54.235.29.9/FacialAge/BNav_EC2/DepthDuration/v2_depth_duration_MTurk/v2_DepthDuration_HTML.html#132,132,1536,864,1536,864,8-21-2022,8-35-15,47,depth_duration_stimuli/001617_2014-06-20_11-35-32_260595134347_rgbf000066-resize_1/001617_2014-06-20_11-35-32_260595134347_rgbf000066-resize_1-target.png,125,3.7910000000000004,6,1993,125,feet,jsons/VE125_randls_5.json,396124,533930,32,Woman
47,532442,DepthScenes,duration_manipulation_targetAtFixation,jsons/VE125_randls_5.json,http://54.235.29.9/FacialAge/BNav_EC2/DepthDuration/v2_depth_duration_MTurk/v2_DepthDuration_HTML.html#132,132,1536,864,1536,864,8-21-2022,8-35-15,48,depth_duration_stimuli/001158_2014-06-17_15-32-16_260595134347_rgbf000138-resize_2/001158_2014-06-17_15-32-16_260595134347_rgbf000138-resize_2-target.png,125,4.5315,7,1864,123,feet,jsons/VE125_randls_5.json,396124,533930,32,Woman
48,532442,DepthScenes,duration_manipulation_targetAtFixation,jsons/VE125_randls_5.json,http://54.235.29.9/FacialAge/BNav_EC2/DepthDuration/v2_depth_duration_MTurk/v2_DepthDuration_HTML.html#132,132,1536,864,1536,864,8-21-2022,8-35-15,49,depth_duration_stimuli/000556_2014-06-09_22-42-56_260595134347_rgbf000214-resize_1/000556_2014-06-09_22-42-56_260595134347_rgbf000214-resize_1-target.png,125,4.8415,7,3002,122,feet,jsons/VE125_randls_5.json,396124,533930,32,Woman
49,532442,DepthScenes,duration_manipulation_targetAtFixation,jsons/VE125_randls_5.json,http://54.235.29.9/FacialAge/BNav_EC2/DepthDuration/v2_depth_duration_MTurk/v2_DepthDuration_HTML.html#132,132,1536,864,1536,864,8-21-2022,8-35-15,50,depth_duration_stimuli/001175_2014-06-17_15-45-55_260595134347_rgbf000129-resize_4/001175_2014-06-17_15-45-55_260595134347_rgbf000129-resize_4-target.png,125,4.255,8,2063,138,feet,jsons/VE125_randls_5.json,396124,533930,32,Woman
50,532442,DepthScenes,duration_manipulation_targetAtFixation,jsons/VE125_randls_5.json,http://54.235.29.9/FacialAge/BNav_EC2/DepthDuration/v2_depth_duration_MTurk/v2_DepthDuration_HTML.html#132,132,1536,864,1536,864,8-21-2022,8-35-15,51,depth_duration_stimuli/003490_2014-05-21_15-50-11_094959634447_rgbf000101-resize_3/003490_2014-05-21_15-50-11_094959634447_rgbf000101-resize_3-target.png,125,3.6445,5,1869,126,feet,jsons/VE125_randls_5.json,396124,533930,32,Woman
51,532442,DepthScenes,duration_manipulation_targetAtFixation,jsons/VE125_randls_5.json,http://54.235.29.9/FacialAge/BNav_EC2/DepthDuration/v2_depth_duration_MTurk/v2_DepthDuration_HTML.html#132,132,1536,864,1536,864,8-21-2022,8-35-15,52,depth_duration_stimuli/000486_2014-06-09_20-47-20_260595134347_rgbf000143-resize_2/000486_2014-06-09_20-47-20_260595134347_rgbf000143-resize_2-target.png,125,4.8325,5,1751,130,feet,jsons/VE125_randls_5.json,396124,533930,32,Woman
52,532442,DepthScenes,duration_manipulation_targetAtFixation,jsons/VE125_randls_5.json,http://54.235.29.9/FacialAge/BNav_EC2/DepthDuration/v2_depth_duration_MTurk/v2_DepthDuration_HTML.html#132,132,1536,864,1536,864,8-21-2022,8-35-15,53,depth_duration_stimuli/003083_2014-06-15_15-21-03_094959634447_rgbf000063-resize_1/003083_2014-06-15_15-21-03_094959634447_rgbf000063-resize_1-target.png,125,4.1405,6,1847,122,feet,jsons/VE125_randls_5.json,396124,533930,32,Woman
53,532442,DepthScenes,duration_manipulation_targetAtFixation,jsons/VE125_randls_5.json,http://54.235.29.9/FacialAge/BNav_EC2/DepthDuration/v2_depth_duration_MTurk/v2_DepthDuration_HTML.html#132,132,1536,864,1536,864,8-21-2022,8-35-15,54,depth_duration_stimuli/001570_2014-06-20_17-21-09_260595134347_rgbf000135-resize_4/001570_2014-06-20_17-21-09_260595134347_rgbf000135-resize_4-target.png,125,4.467,8,1930,123,feet,jsons/VE125_randls_5.json,396124,533930,32,Woman
54,532442,DepthScenes,duration_manipulation_targetAtFixation,jsons/VE125_randls_5.json,http://54.235.29.9/FacialAge/BNav_EC2/DepthDuration/v2_depth_duration_MTurk/v2_DepthDuration_HTML.html#132,132,1536,864,1536,864,8-21-2022,8-35-15,55,depth_duration_stimuli/001392_2014-06-19_16-07-59_260595134347_rgbf000046-resize_1/001392_2014-06-19_16-07-59_260595134347_rgbf000046-resize_1-target.png,125,4.135,7,1934,123,feet,jsons/VE125_randls_5.json,396124,533930,32,Woman
55,532442,DepthScenes,duration_manipulation_targetAtFixation,jsons/VE125_randls_5.json,http://54.235.29.9/FacialAge/BNav_EC2/DepthDuration/v2_depth_duration_MTurk/v2_DepthDuration_HTML.html#132,132,1536,864,1536,864,8-21-2022,8-35-15,56,depth_duration_stimuli/001199_2014-06-17_16-03-48_260595134347_rgbf000077-resize_0/001199_2014-06-17_16-03-48_260595134347_rgbf000077-resize_0-target.png,125,3.4375,7,1852,138,feet,jsons/VE125_randls_5.json,396124,533930,32,Woman
56,532442,DepthScenes,duration_manipulation_targetAtFixation,jsons/VE125_randls_5.json,http://54.235.29.9/FacialAge/BNav_EC2/DepthDuration/v2_depth_duration_MTurk/v2_DepthDuration_HTML.html#132,132,1536,864,1536,864,8-21-2022,8-35-15,57,depth_duration_stimuli/000502_2014-06-08_23-02-32_260595134347_rgbf000063-resize_4/000502_2014-06-08_23-02-32_260595134347_rgbf000063-resize_4-target.png,125,2.431,4,1936,126,feet,jsons/VE125_randls_5.json,396124,533930,32,Woman
57,532442,DepthScenes,duration_manipulation_targetAtFixation,jsons/VE125_randls_5.json,http://54.235.29.9/FacialAge/BNav_EC2/DepthDuration/v2_depth_duration_MTurk/v2_DepthDuration_HTML.html#132,132,1536,864,1536,864,8-21-2022,8-35-15,58,depth_duration_stimuli/002279_2014-06-28_18-55-32_260595134347_rgbf000040-resize_5/002279_2014-06-28_18-55-32_260595134347_rgbf000040-resize_5-target.png,125,1.5043333333333,2,1841,123,feet,jsons/VE125_randls_5.json,396124,533930,32,Woman
58,532442,DepthScenes,duration_manipulation_targetAtFixation,jsons/VE125_randls_5.json,http://54.235.29.9/FacialAge/BNav_EC2/DepthDuration/v2_depth_duration_MTurk/v2_DepthDuration_HTML.html#132,132,1536,864,1536,864,8-21-2022,8-35-15,59,depth_duration_stimuli/000635_2014-06-08_16-38-42_260595134347_rgbf000106-resize_1/000635_2014-06-08_16-38-42_260595134347_rgbf000106-resize_1-target.png,125,2.074,4,3423,124,feet,jsons/VE125_randls_5.json,396124,533930,32,Woman
59,532442,DepthScenes,duration_manipulation_targetAtFixation,jsons/VE125_randls_5.json,http://54.235.29.9/FacialAge/BNav_EC2/DepthDuration/v2_depth_duration_MTurk/v2_DepthDuration_HTML.html#132,132,1536,864,1536,864,8-21-2022,8-35-15,60,depth_duration_stimuli/000447_2014-06-08_16-15-46_260595134347_rgbf000130-resize_1/000447_2014-06-08_16-15-46_260595134347_rgbf000130-resize_1-target.png,125,4.479,9,2120,125,feet,jsons/VE125_randls_5.json,396124,533930,32,Woman
60,532442,DepthScenes,duration_manipulation_targetAtFixation,jsons/VE125_randls_5.json,http://54.235.29.9/FacialAge/BNav_EC2/DepthDuration/v2_depth_duration_MTurk/v2_DepthDuration_HTML.html#132,132,1536,864,1536,864,8-21-2022,8-35-15,61,depth_duration_stimuli/001447_2014-06-19_17-00-32_260595134347_rgbf000082-resize_5/001447_2014-06-19_17-00-32_260595134347_rgbf000082-resize_5-target.png,125,4.13775,3,2153,121,feet,jsons/VE125_randls_5.json,396124,533930,32,Woman
61,532442,DepthScenes,duration_manipulation_targetAtFixation,jsons/VE125_randls_5.json,http://54.235.29.9/FacialAge/BNav_EC2/DepthDuration/v2_depth_duration_MTurk/v2_DepthDuration_HTML.html#132,132,1536,864,1536,864,8-21-2022,8-35-15,62,depth_duration_stimuli/000810_2014-06-08_17-20-01_260595134347_rgbf000105-resize_0/000810_2014-06-08_17-20-01_260595134347_rgbf000105-resize_0-target.png,125,1.4865,4,2399,124,feet,jsons/VE125_randls_5.json,396124,533930,32,Woman
62,532442,DepthScenes,duration_manipulation_targetAtFixation,jsons/VE125_randls_5.json,http://54.235.29.9/FacialAge/BNav_EC2/DepthDuration/v2_depth_duration_MTurk/v2_DepthDuration_HTML.html#132,132,1536,864,1536,864,8-21-2022,8-35-15,63,depth_duration_stimuli/001214_2014-06-17_16-13-55_260595134347_rgbf000111-resize_0/001214_2014-06-17_16-13-55_260595134347_rgbf000111-resize_0-target.png,125,2.6505,2,1727,123,feet,jsons/VE125_randls_5.json,396124,533930,32,Woman
63,532442,DepthScenes,duration_manipulation_targetAtFixation,jsons/VE125_randls_5.json,http://54.235.29.9/FacialAge/BNav_EC2/DepthDuration/v2_depth_duration_MTurk/v2_DepthDuration_HTML.html#132,132,1536,864,1536,864,8-21-2022,8-35-15,64,depth_duration_stimuli/001449_2014-06-19_17-01-27_260595134347_rgbf000116-resize_2/001449_2014-06-19_17-01-27_260595134347_rgbf000116-resize_2-target.png,125,3.452,5,1983,122,feet,jsons/VE125_randls_5.json,396124,533930,32,Woman
64,532442,DepthScenes,duration_manipulation_targetAtFixation,jsons/VE125_randls_5.json,http://54.235.29.9/FacialAge/BNav_EC2/DepthDuration/v2_depth_duration_MTurk/v2_DepthDuration_HTML.html#132,132,1536,864,1536,864,8-21-2022,8-35-15,65,depth_duration_stimuli/001450_2014-06-19_17-02-03_260595134347_rgbf000203-resize_4/001450_2014-06-19_17-02-03_260595134347_rgbf000203-resize_4-target.png,125,4.0106666666667,7,1812,125,feet,jsons/VE125_randls_5.json,396124,533930,32,Woman
65,532442,DepthScenes,duration_manipulation_targetAtFixation,jsons/VE125_randls_5.json,http://54.235.29.9/FacialAge/BNav_EC2/DepthDuration/v2_depth_duration_MTurk/v2_DepthDuration_HTML.html#132,132,1536,864,1536,864,8-21-2022,8-35-15,66,depth_duration_stimuli/001222_2014-06-17_16-24-06_260595134347_rgbf000073-resize_0/001222_2014-06-17_16-24-06_260595134347_rgbf000073-resize-original.jpg,125,1.4385,0,2442,123,feet,jsons/VE125_randls_5.json,396124,533930,32,Woman
66,532442,DepthScenes,duration_manipulation_targetAtFixation,jsons/VE125_randls_5.json,http://54.235.29.9/FacialAge/BNav_EC2/DepthDuration/v2_depth_duration_MTurk/v2_DepthDuration_HTML.html#132,132,1536,864,1536,864,8-21-2022,8-35-15,67,depth_duration_stimuli/000758_2014-06-08_22-05-08_260595134347_rgbf000085-resize_0/000758_2014-06-08_22-05-08_260595134347_rgbf000085-resize_0-target.png,125,3.3810000000000002,7,3372,125,feet,jsons/VE125_randls_5.json,396124,533930,32,Woman
67,532442,DepthScenes,duration_manipulation_targetAtFixation,jsons/VE125_randls_5.json,http://54.235.29.9/FacialAge/BNav_EC2/DepthDuration/v2_depth_duration_MTurk/v2_DepthDuration_HTML.html#132,132,1536,864,1536,864,8-21-2022,8-35-15,68,depth_duration_stimuli/000854_2014-06-09_19-43-13_260595134347_rgbf000066-resize_0/000854_2014-06-09_19-43-13_260595134347_rgbf000066-resize_0-target.png,125,3.068,2,1864,123,feet,jsons/VE125_randls_5.json,396124,533930,32,Woman
68,532442,DepthScenes,duration_manipulation_targetAtFixation,jsons/VE125_randls_5.json,http://54.235.29.9/FacialAge/BNav_EC2/DepthDuration/v2_depth_duration_MTurk/v2_DepthDuration_HTML.html#132,132,1536,864,1536,864,8-21-2022,8-35-15,69,depth_duration_stimuli/002153_2014-06-25_21-27-18_260595134347_rgbf000038-resize_5/002153_2014-06-25_21-27-18_260595134347_rgbf000038-resize_5-target.png,125,2.505,4,1878,127,feet,jsons/VE125_randls_5.json,396124,533930,32,Woman
69,532442,DepthScenes,duration_manipulation_targetAtFixation,jsons/VE125_randls_5.json,http://54.235.29.9/FacialAge/BNav_EC2/DepthDuration/v2_depth_duration_MTurk/v2_DepthDuration_HTML.html#132,132,1536,864,1536,864,8-21-2022,8-35-15,70,depth_duration_stimuli/002660_2014-06-13_15-44-18_094959634447_rgbf001878-resize_2/002660_2014-06-13_15-44-18_094959634447_rgbf001878-resize_2-target.png,125,3.576,7,1829,136,feet,jsons/VE125_randls_5.json,396124,533930,32,Woman
70,532442,DepthScenes,duration_manipulation_targetAtFixation,jsons/VE125_randls_5.json,http://54.235.29.9/FacialAge/BNav_EC2/DepthDuration/v2_depth_duration_MTurk/v2_DepthDuration_HTML.html#132,132,1536,864,1536,864,8-21-2022,8-35-15,71,depth_duration_stimuli/002725_2014-06-22_11-47-51_094959634447_rgbf000070-resize_1/002725_2014-06-22_11-47-51_094959634447_rgbf000070-resize_1-target.png,125,2.195,5,1815,135,feet,jsons/VE125_randls_5.json,396124,533930,32,Woman
71,532442,DepthScenes,duration_manipulation_targetAtFixation,jsons/VE125_randls_5.json,http://54.235.29.9/FacialAge/BNav_EC2/DepthDuration/v2_depth_duration_MTurk/v2_DepthDuration_HTML.html#132,132,1536,864,1536,864,8-21-2022,8-35-15,72,depth_duration_stimuli/002344_2014-06-28_20-06-29_260595134347_rgbf000030-resize_1/002344_2014-06-28_20-06-29_260595134347_rgbf000030-resize_1-target.png,125,1.5795,2,1796,124,feet,jsons/VE125_randls_5.json,396124,533930,32,Woman
72,532442,DepthScenes,duration_manipulation_targetAtFixation,jsons/VE125_randls_5.json,http://54.235.29.9/FacialAge/BNav_EC2/DepthDuration/v2_depth_duration_MTurk/v2_DepthDuration_HTML.html#132,132,1536,864,1536,864,8-21-2022,8-35-15,73,depth_duration_stimuli/002213_2014-06-28_18-37-58_260595134347_rgbf000055-resize_1/002213_2014-06-28_18-37-58_260595134347_rgbf000055-resize_1-target.png,125,3.62,7,1928,123,feet,jsons/VE125_randls_5.json,396124,533930,32,Woman
73,532442,DepthScenes,duration_manipulation_targetAtFixation,jsons/VE125_randls_5.json,http://54.235.29.9/FacialAge/BNav_EC2/DepthDuration/v2_depth_duration_MTurk/v2_DepthDuration_HTML.html#132,132,1536,864,1536,864,8-21-2022,8-35-15,74,depth_duration_stimuli/000691_2014-06-08_13-08-50_260595134347_rgbf000132-resize_3/000691_2014-06-08_13-08-50_260595134347_rgbf000132-resize_3-target.png,125,4.1530000000000005,6,1731,124,feet,jsons/VE125_randls_5.json,396124,533930,32,Woman
74,532442,DepthScenes,duration_manipulation_targetAtFixation,jsons/VE125_randls_5.json,http://54.235.29.9/FacialAge/BNav_EC2/DepthDuration/v2_depth_duration_MTurk/v2_DepthDuration_HTML.html#132,132,1536,864,1536,864,8-21-2022,8-35-15,75,depth_duration_stimuli/002964_2014-06-08_17-46-11_094959634447_rgbf000091-resize_4/002964_2014-06-08_17-46-11_094959634447_rgbf000091-resize_4-target.png,125,1.6909999999999998,2,1682,129,feet,jsons/VE125_randls_5.json,396124,533930,32,Woman
75,532442,DepthScenes,duration_manipulation_targetAtFixation,jsons/VE125_randls_5.json,http://54.235.29.9/FacialAge/BNav_EC2/DepthDuration/v2_depth_duration_MTurk/v2_DepthDuration_HTML.html#132,132,1536,864,1536,864,8-21-2022,8-35-15,76,depth_duration_stimuli/002136_2014-06-25_21-18-03_260595134347_rgbf000109-resize_3/002136_2014-06-25_21-18-03_260595134347_rgbf000109-resize_3-target.png,125,1.9569999999999999,4,2023,126,feet,jsons/VE125_randls_5.json,396124,533930,32,Woman
76,532442,DepthScenes,duration_manipulation_targetAtFixation,jsons/VE125_randls_5.json,http://54.235.29.9/FacialAge/BNav_EC2/DepthDuration/v2_depth_duration_MTurk/v2_DepthDuration_HTML.html#132,132,1536,864,1536,864,8-21-2022,8-35-15,77,depth_duration_stimuli/001808_2014-06-26_20-50-58_260595134347_rgbf000029-resize_1/001808_2014-06-26_20-50-58_260595134347_rgbf000029-resize_1-target.png,125,4.249,7,1879,124,feet,jsons/VE125_randls_5.json,396124,533930,32,Woman
77,532442,DepthScenes,duration_manipulation_targetAtFixation,jsons/VE125_randls_5.json,http://54.235.29.9/FacialAge/BNav_EC2/DepthDuration/v2_depth_duration_MTurk/v2_DepthDuration_HTML.html#132,132,1536,864,1536,864,8-21-2022,8-35-15,78,depth_duration_stimuli/001815_2014-06-26_20-52-55_260595134347_rgbf000020-resize_0/001815_2014-06-26_20-52-55_260595134347_rgbf000020-resize_0-target.png,125,3.3865,6,1878,125,feet,jsons/VE125_randls_5.json,396124,533930,32,Woman
78,532442,DepthScenes,duration_manipulation_targetAtFixation,jsons/VE125_randls_5.json,http://54.235.29.9/FacialAge/BNav_EC2/DepthDuration/v2_depth_duration_MTurk/v2_DepthDuration_HTML.html#132,132,1536,864,1536,864,8-21-2022,8-35-15,79,depth_duration_stimuli/001059_2014-06-08_21-53-27_260595134347_rgbf000061-resize_4/001059_2014-06-08_21-53-27_260595134347_rgbf000061-resize_4-target.png,125,2.4185,4,1801,124,feet,jsons/VE125_randls_5.json,396124,533930,32,Woman
79,532442,DepthScenes,duration_manipulation_targetAtFixation,jsons/VE125_randls_5.json,http://54.235.29.9/FacialAge/BNav_EC2/DepthDuration/v2_depth_duration_MTurk/v2_DepthDuration_HTML.html#132,132,1536,864,1536,864,8-21-2022,8-35-15,80,depth_duration_stimuli/001032_2014-06-08_13-23-17_260595134347_rgbf000021-resize_3/001032_2014-06-08_13-23-17_260595134347_rgbf000021-resize_3-target.png,125,3.2725,3,1828,124,feet,jsons/VE125_randls_5.json,396124,533930,32,Woman
80,532442,DepthScenes,duration_manipulation_targetAtFixation,jsons/VE125_randls_5.json,http://54.235.29.9/FacialAge/BNav_EC2/DepthDuration/v2_depth_duration_MTurk/v2_DepthDuration_HTML.html#132,132,1536,864,1536,864,8-21-2022,8-35-15,81,depth_duration_stimuli/001056_2014-06-08_18-46-44_260595134347_rgbf000068-resize_0/001056_2014-06-08_18-46-44_260595134347_rgbf000068-resize_0-target.png,125,2.6625,4,1698,115,feet,jsons/VE125_randls_5.json,396124,533930,32,Woman
81,532442,DepthScenes,duration_manipulation_targetAtFixation,jsons/VE125_randls_5.json,http://54.235.29.9/FacialAge/BNav_EC2/DepthDuration/v2_depth_duration_MTurk/v2_DepthDuration_HTML.html#132,132,1536,864,1536,864,8-21-2022,8-35-15,82,depth_duration_stimuli/002199_2014-06-28_18-33-56_260595134347_rgbf000074-resize_0/002199_2014-06-28_18-33-56_260595134347_rgbf000074-resize_0-target.png,125,1.996,2,1538,112,feet,jsons/VE125_randls_5.json,396124,533930,32,Woman
82,532442,DepthScenes,duration_manipulation_targetAtFixation,jsons/VE125_randls_5.json,http://54.235.29.9/FacialAge/BNav_EC2/DepthDuration/v2_depth_duration_MTurk/v2_DepthDuration_HTML.html#132,132,1536,864,1536,864,8-21-2022,8-35-15,83,depth_duration_stimuli/000736_2014-06-08_18-24-15_260595134347_rgbf000206-resize_3/000736_2014-06-08_18-24-15_260595134347_rgbf000206-resize_3-target.png,125,3.515,5,2592,132,feet,jsons/VE125_randls_5.json,396124,533930,32,Woman
83,532442,DepthScenes,duration_manipulation_targetAtFixation,jsons/VE125_randls_5.json,http://54.235.29.9/FacialAge/BNav_EC2/DepthDuration/v2_depth_duration_MTurk/v2_DepthDuration_HTML.html#132,132,1536,864,1536,864,8-21-2022,8-35-15,84,depth_duration_stimuli/000137_2014-05-20_17-04-49_260595134347_rgbf000120-resize_1/000137_2014-05-20_17-04-49_260595134347_rgbf000120-resize_1-target.png,125,3.786,3,1827,125,feet,jsons/VE125_randls_5.json,396124,533930,32,Woman
84,532442,DepthScenes,duration_manipulation_targetAtFixation,jsons/VE125_randls_5.json,http://54.235.29.9/FacialAge/BNav_EC2/DepthDuration/v2_depth_duration_MTurk/v2_DepthDuration_HTML.html#132,132,1536,864,1536,864,8-21-2022,8-35-15,85,depth_duration_stimuli/003534_2014-05-22_15-06-10_094959634447_rgbf000102-resize_4/003534_2014-05-22_15-06-10_094959634447_rgbf000102-resize_4-target.png,125,1.426,1,1751,124,feet,jsons/VE125_randls_5.json,396124,533930,32,Woman
85,532442,DepthScenes,duration_manipulation_targetAtFixation,jsons/VE125_randls_5.json,http://54.235.29.9/FacialAge/BNav_EC2/DepthDuration/v2_depth_duration_MTurk/v2_DepthDuration_HTML.html#132,132,1536,864,1536,864,8-21-2022,8-35-15,86,depth_duration_stimuli/002637_2014-06-24_14-51-13_094959634447_rgbf000066-resize_4/002637_2014-06-24_14-51-13_094959634447_rgbf000066-resize_4-target.png,125,1.9955,3,2066,121,feet,jsons/VE125_randls_5.json,396124,533930,32,Woman
86,532442,DepthScenes,duration_manipulation_targetAtFixation,jsons/VE125_randls_5.json,http://54.235.29.9/FacialAge/BNav_EC2/DepthDuration/v2_depth_duration_MTurk/v2_DepthDuration_HTML.html#132,132,1536,864,1536,864,8-21-2022,8-35-15,87,depth_duration_stimuli/003292_2014-05-14_21-53-49_094959634447_rgbf000100-resize_2/003292_2014-05-14_21-53-49_094959634447_rgbf000100-resize_2-target.png,125,3.4815,6,2376,125,feet,jsons/VE125_randls_5.json,396124,533930,32,Woman
87,532442,DepthScenes,duration_manipulation_targetAtFixation,jsons/VE125_randls_5.json,http://54.235.29.9/FacialAge/BNav_EC2/DepthDuration/v2_depth_duration_MTurk/v2_DepthDuration_HTML.html#132,132,1536,864,1536,864,8-21-2022,8-35-15,88,depth_duration_stimuli/002639_2014-06-24_14-51-37_094959634447_rgbf000074-resize_4/002639_2014-06-24_14-51-37_094959634447_rgbf000074-resize_4-target.png,125,4.0375,7,1840,136,feet,jsons/VE125_randls_5.json,396124,533930,32,Woman
88,532442,DepthScenes,duration_manipulation_targetAtFixation,jsons/VE125_randls_5.json,http://54.235.29.9/FacialAge/BNav_EC2/DepthDuration/v2_depth_duration_MTurk/v2_DepthDuration_HTML.html#132,132,1536,864,1536,864,8-21-2022,8-35-15,89,depth_duration_stimuli/000929_2014-06-09_16-33-19_260595134347_rgbf000139-resize_0/000929_2014-06-09_16-33-19_260595134347_rgbf000139-resize_0-target.png,125,2.8680000000000003,5,1659,123,feet,jsons/VE125_randls_5.json,396124,533930,32,Woman
89,532442,DepthScenes,duration_manipulation_targetAtFixation,jsons/VE125_randls_5.json,http://54.235.29.9/FacialAge/BNav_EC2/DepthDuration/v2_depth_duration_MTurk/v2_DepthDuration_HTML.html#132,132,1536,864,1536,864,8-21-2022,8-35-15,90,depth_duration_stimuli/000457_2014-06-08_16-52-43_260595134347_rgbf000199-resize_1/000457_2014-06-08_16-52-43_260595134347_rgbf000199-resize_1-target.png,125,3.6489999999999996,6,1721,135,feet,jsons/VE125_randls_5.json,396124,533930,32,Woman
90,532442,DepthScenes,duration_manipulation_targetAtFixation,jsons/VE125_randls_5.json,http://54.235.29.9/FacialAge/BNav_EC2/DepthDuration/v2_depth_duration_MTurk/v2_DepthDuration_HTML.html#132,132,1536,864,1536,864,8-21-2022,8-35-15,91,depth_duration_stimuli/002570_2014-06-24_13-59-54_094959634447_rgbf000059-resize_0/002570_2014-06-24_13-59-54_094959634447_rgbf000059-resize_0-target.png,125,4.037,6,1813,135,feet,jsons/VE125_randls_5.json,396124,533930,32,Woman
91,532442,DepthScenes,duration_manipulation_targetAtFixation,jsons/VE125_randls_5.json,http://54.235.29.9/FacialAge/BNav_EC2/DepthDuration/v2_depth_duration_MTurk/v2_DepthDuration_HTML.html#132,132,1536,864,1536,864,8-21-2022,8-35-15,92,depth_duration_stimuli/002467_2014-06-28_20-38-07_260595134347_rgbf000026-resize_2/002467_2014-06-28_20-38-07_260595134347_rgbf000026-resize_2-target.png,125,4.742,7,1906,133,feet,jsons/VE125_randls_5.json,396124,533930,32,Woman
92,532442,DepthScenes,duration_manipulation_targetAtFixation,jsons/VE125_randls_5.json,http://54.235.29.9/FacialAge/BNav_EC2/DepthDuration/v2_depth_duration_MTurk/v2_DepthDuration_HTML.html#132,132,1536,864,1536,864,8-21-2022,8-35-15,93,depth_duration_stimuli/001417_2014-06-19_16-25-36_260595134347_rgbf000115-resize_5/001417_2014-06-19_16-25-36_260595134347_rgbf000115-resize_5-target.png,125,4.6255,7,2128,124,feet,jsons/VE125_randls_5.json,396124,533930,32,Woman
93,532442,DepthScenes,duration_manipulation_targetAtFixation,jsons/VE125_randls_5.json,http://54.235.29.9/FacialAge/BNav_EC2/DepthDuration/v2_depth_duration_MTurk/v2_DepthDuration_HTML.html#132,132,1536,864,1536,864,8-21-2022,8-35-15,94,depth_duration_stimuli/003081_2014-06-15_15-19-16_094959634447_rgbf000150-resize_1/003081_2014-06-15_15-19-16_094959634447_rgbf000150-resize_1-target.png,125,3.9125,5,1770,124,feet,jsons/VE125_randls_5.json,396124,533930,32,Woman
94,532442,DepthScenes,duration_manipulation_targetAtFixation,jsons/VE125_randls_5.json,http://54.235.29.9/FacialAge/BNav_EC2/DepthDuration/v2_depth_duration_MTurk/v2_DepthDuration_HTML.html#132,132,1536,864,1536,864,8-21-2022,8-35-15,95,depth_duration_stimuli/002630_2014-06-24_14-47-50_094959634447_rgbf000055-resize_1/002630_2014-06-24_14-47-50_094959634447_rgbf000055-resize_1-target.png,125,3.0095,6,1806,136,feet,jsons/VE125_randls_5.json,396124,533930,32,Woman
95,532442,DepthScenes,duration_manipulation_targetAtFixation,jsons/VE125_randls_5.json,http://54.235.29.9/FacialAge/BNav_EC2/DepthDuration/v2_depth_duration_MTurk/v2_DepthDuration_HTML.html#132,132,1536,864,1536,864,8-21-2022,8-35-15,96,depth_duration_stimuli/002758_2014-06-22_19-11-20_094959634447_rgbf000128-resize_1/002758_2014-06-22_19-11-20_094959634447_rgbf000128-resize_1-target.png,125,2.555,3,2040,138,feet,jsons/VE125_randls_5.json,396124,533930,32,Woman
96,532442,DepthScenes,duration_manipulation_targetAtFixation,jsons/VE125_randls_5.json,http://54.235.29.9/FacialAge/BNav_EC2/DepthDuration/v2_depth_duration_MTurk/v2_DepthDuration_HTML.html#132,132,1536,864,1536,864,8-21-2022,8-35-15,97,depth_duration_stimuli/002272_2014-06-28_18-53-56_260595134347_rgbf000067-resize_2/002272_2014-06-28_18-53-56_260595134347_rgbf000067-resize_2-target.png,125,1.138,1,1552,125,feet,jsons/VE125_randls_5.json,396124,533930,32,Woman
97,532442,DepthScenes,duration_manipulation_targetAtFixation,jsons/VE125_randls_5.json,http://54.235.29.9/FacialAge/BNav_EC2/DepthDuration/v2_depth_duration_MTurk/v2_DepthDuration_HTML.html#132,132,1536,864,1536,864,8-21-2022,8-35-15,98,depth_duration_stimuli/001571_2014-06-20_17-21-32_260595134347_rgbf000089-resize_1/001571_2014-06-20_17-21-32_260595134347_rgbf000089-resize_1-target.png,125,1.86,2,1508,124,feet,jsons/VE125_randls_5.json,396124,533930,32,Woman
98,532442,DepthScenes,duration_manipulation_targetAtFixation,jsons/VE125_randls_5.json,http://54.235.29.9/FacialAge/BNav_EC2/DepthDuration/v2_depth_duration_MTurk/v2_DepthDuration_HTML.html#132,132,1536,864,1536,864,8-21-2022,8-35-15,99,depth_duration_stimuli/001540_2014-06-20_17-01-05_260595134347_rgbf000086-resize_2/001540_2014-06-20_17-01-05_260595134347_rgbf000086-resize-original.jpg,125,1.459,0,2455,123,feet,jsons/VE125_randls_5.json,396124,533930,32,Woman
99,532442,DepthScenes,duration_manipulation_targetAtFixation,jsons/VE125_randls_5.json,http://54.235.29.9/FacialAge/BNav_EC2/DepthDuration/v2_depth_duration_MTurk/v2_DepthDuration_HTML.html#132,132,1536,864,1536,864,8-21-2022,8-35-15,100,depth_duration_stimuli/000906_2014-06-08_13-35-43_260595134347_rgbf000155-resize_1/000906_2014-06-08_13-35-43_260595134347_rgbf000155-resize_1-target.png,125,2.8489999999999998,5,1953,136,feet,jsons/VE125_randls_5.json,396124,533930,32,Woman
100,532442,DepthScenes,duration_manipulation_targetAtFixation,jsons/VE125_randls_5.json,http://54.235.29.9/FacialAge/BNav_EC2/DepthDuration/v2_depth_duration_MTurk/v2_DepthDuration_HTML.html#132,132,1536,864,1536,864,8-21-2022,8-35-15,101,depth_duration_stimuli/002805_2014-06-22_19-54-03_094959634447_rgbf000079-resize_1/002805_2014-06-22_19-54-03_094959634447_rgbf000079-resize_1-target.png,125,3.1439999999999997,5,1465,138,feet,jsons/VE125_randls_5.json,396124,533930,32,Woman
101,532442,DepthScenes,duration_manipulation_targetAtFixation,jsons/VE125_randls_5.json,http://54.235.29.9/FacialAge/BNav_EC2/DepthDuration/v2_depth_duration_MTurk/v2_DepthDuration_HTML.html#132,132,1536,864,1536,864,8-21-2022,8-35-15,102,depth_duration_stimuli/001092_2014-06-15_17-34-58_260595134347_rgbf000171-resize_3/001092_2014-06-15_17-34-58_260595134347_rgbf000171-resize_3-target.png,125,2.6935,2,1597,126,feet,jsons/VE125_randls_5.json,396124,533930,32,Woman
102,532442,DepthScenes,duration_manipulation_targetAtFixation,jsons/VE125_randls_5.json,http://54.235.29.9/FacialAge/BNav_EC2/DepthDuration/v2_depth_duration_MTurk/v2_DepthDuration_HTML.html#132,132,1536,864,1536,864,8-21-2022,8-35-15,103,depth_duration_stimuli/002545_2014-06-24_13-38-53_094959634447_rgbf000080-resize_4/002545_2014-06-24_13-38-53_094959634447_rgbf000080-resize_4-target.png,125,1.9205,4,1605,124,feet,jsons/VE125_randls_5.json,396124,533930,32,Woman
103,532442,DepthScenes,duration_manipulation_targetAtFixation,jsons/VE125_randls_5.json,http://54.235.29.9/FacialAge/BNav_EC2/DepthDuration/v2_depth_duration_MTurk/v2_DepthDuration_HTML.html#132,132,1536,864,1536,864,8-21-2022,8-35-15,104,depth_duration_stimuli/000368_2014-06-09_15-53-01_260595134347_rgbf000155-resize_2/000368_2014-06-09_15-53-01_260595134347_rgbf000155-resize_2-target.png,125,2.4859999999999998,3,1482,127,feet,jsons/VE125_randls_5.json,396124,533930,32,Woman
104,532442,DepthScenes,duration_manipulation_targetAtFixation,jsons/VE125_randls_5.json,http://54.235.29.9/FacialAge/BNav_EC2/DepthDuration/v2_depth_duration_MTurk/v2_DepthDuration_HTML.html#132,132,1536,864,1536,864,8-21-2022,8-35-15,105,depth_duration_stimuli/002678_2014-06-13_16-15-32_094959634447_rgbf000151-resize_6/002678_2014-06-13_16-15-32_094959634447_rgbf000151-resize_6-target.png,125,2.1830000000000003,3,1463,134,feet,jsons/VE125_randls_5.json,396124,533930,32,Woman
105,532442,DepthScenes,duration_manipulation_targetAtFixation,jsons/VE125_randls_5.json,http://54.235.29.9/FacialAge/BNav_EC2/DepthDuration/v2_depth_duration_MTurk/v2_DepthDuration_HTML.html#132,132,1536,864,1536,864,8-21-2022,8-35-15,106,depth_duration_stimuli/000436_2014-06-09_22-25-11_260595134347_rgbf000137-resize_1/000436_2014-06-09_22-25-11_260595134347_rgbf000137-resize_1-target.png,125,4.0705,8,2048,124,feet,jsons/VE125_randls_5.json,396124,533930,32,Woman
106,532442,DepthScenes,duration_manipulation_targetAtFixation,jsons/VE125_randls_5.json,http://54.235.29.9/FacialAge/BNav_EC2/DepthDuration/v2_depth_duration_MTurk/v2_DepthDuration_HTML.html#132,132,1536,864,1536,864,8-21-2022,8-35-15,107,depth_duration_stimuli/002444_2014-06-28_20-32-08_260595134347_rgbf000027-resize_0/002444_2014-06-28_20-32-08_260595134347_rgbf000027-resize_0-target.png,125,4.388999999999999,6,2078,125,feet,jsons/VE125_randls_5.json,396124,533930,32,Woman
107,532442,DepthScenes,duration_manipulation_targetAtFixation,jsons/VE125_randls_5.json,http://54.235.29.9/FacialAge/BNav_EC2/DepthDuration/v2_depth_duration_MTurk/v2_DepthDuration_HTML.html#132,132,1536,864,1536,864,8-21-2022,8-35-15,108,depth_duration_stimuli/000414_2014-06-04_19-49-13_260595134347_rgbf000044-resize_0/000414_2014-06-04_19-49-13_260595134347_rgbf000044-resize_0-target.png,125,4.329,8,1890,125,feet,jsons/VE125_randls_5.json,396124,533930,32,Woman
108,532442,DepthScenes,duration_manipulation_targetAtFixation,jsons/VE125_randls_5.json,http://54.235.29.9/FacialAge/BNav_EC2/DepthDuration/v2_depth_duration_MTurk/v2_DepthDuration_HTML.html#132,132,1536,864,1536,864,8-21-2022,8-35-15,109,depth_duration_stimuli/003129_2014-05-12_10-48-10_094959634447_rgbf000100-resize_0/003129_2014-05-12_10-48-10_094959634447_rgbf000100-resize_0-target.png,125,4.9305,4,2017,139,feet,jsons/VE125_randls_5.json,396124,533930,32,Woman
109,532442,DepthScenes,duration_manipulation_targetAtFixation,jsons/VE125_randls_5.json,http://54.235.29.9/FacialAge/BNav_EC2/DepthDuration/v2_depth_duration_MTurk/v2_DepthDuration_HTML.html#132,132,1536,864,1536,864,8-21-2022,8-35-15,110,depth_duration_stimuli/000493_2014-06-09_21-01-18_260595134347_rgbf000196-resize_3/000493_2014-06-09_21-01-18_260595134347_rgbf000196-resize_3-target.png,125,3.44,6,1938,130,feet,jsons/VE125_randls_5.json,396124,533930,32,Woman
110,532442,DepthScenes,duration_manipulation_targetAtFixation,jsons/VE125_randls_5.json,http://54.235.29.9/FacialAge/BNav_EC2/DepthDuration/v2_depth_duration_MTurk/v2_DepthDuration_HTML.html#132,132,1536,864,1536,864,8-21-2022,8-35-15,111,depth_duration_stimuli/000191_2014-05-12_17-07-38_260595134347_rgbf000199-resize_0/000191_2014-05-12_17-07-38_260595134347_rgbf000199-resize_0-target.png,125,3.7995,9,2062,125,feet,jsons/VE125_randls_5.json,396124,533930,32,Woman
111,532442,DepthScenes,duration_manipulation_targetAtFixation,jsons/VE125_randls_5.json,http://54.235.29.9/FacialAge/BNav_EC2/DepthDuration/v2_depth_duration_MTurk/v2_DepthDuration_HTML.html#132,132,1536,864,1536,864,8-21-2022,8-35-15,112,depth_duration_stimuli/002375_2014-06-28_20-13-44_260595134347_rgbf000032-resize_1/002375_2014-06-28_20-13-44_260595134347_rgbf000032-resize_1-target.png,125,4.0175,4,1661,123,feet,jsons/VE125_randls_5.json,396124,533930,32,Woman
112,532442,DepthScenes,duration_manipulation_targetAtFixation,jsons/VE125_randls_5.json,http://54.235.29.9/FacialAge/BNav_EC2/DepthDuration/v2_depth_duration_MTurk/v2_DepthDuration_HTML.html#132,132,1536,864,1536,864,8-21-2022,8-35-15,113,depth_duration_stimuli/002657_2014-06-13_15-29-54_094959634447_rgbf000150-resize_1/002657_2014-06-13_15-29-54_094959634447_rgbf000150-resize_1-target.png,125,4.919,8,1907,134,feet,jsons/VE125_randls_5.json,396124,533930,32,Woman
113,532442,DepthScenes,duration_manipulation_targetAtFixation,jsons/VE125_randls_5.json,http://54.235.29.9/FacialAge/BNav_EC2/DepthDuration/v2_depth_duration_MTurk/v2_DepthDuration_HTML.html#132,132,1536,864,1536,864,8-21-2022,8-35-15,114,depth_duration_stimuli/002763_2014-06-22_19-13-10_094959634447_rgbf000075-resize_4/002763_2014-06-22_19-13-10_094959634447_rgbf000075-resize_4-target.png,125,1.68375,3,1515,123,feet,jsons/VE125_randls_5.json,396124,533930,32,Woman
114,532442,DepthScenes,duration_manipulation_targetAtFixation,jsons/VE125_randls_5.json,http://54.235.29.9/FacialAge/BNav_EC2/DepthDuration/v2_depth_duration_MTurk/v2_DepthDuration_HTML.html#132,132,1536,864,1536,864,8-21-2022,8-35-15,115,depth_duration_stimuli/002209_2014-06-28_18-36-10_260595134347_rgbf000051-resize_1/002209_2014-06-28_18-36-10_260595134347_rgbf000051-resize_1-target.png,125,2.057,4,1580,139,feet,jsons/VE125_randls_5.json,396124,533930,32,Woman
115,532442,DepthScenes,duration_manipulation_targetAtFixation,jsons/VE125_randls_5.json,http://54.235.29.9/FacialAge/BNav_EC2/DepthDuration/v2_depth_duration_MTurk/v2_DepthDuration_HTML.html#132,132,1536,864,1536,864,8-21-2022,8-35-15,116,depth_duration_stimuli/001170_2014-06-17_15-43-44_260595134347_rgbf000096-resize_6/001170_2014-06-17_15-43-44_260595134347_rgbf000096-resize-original.jpg,125,1.1909999999999998,0,2839,124,feet,jsons/VE125_randls_5.json,396124,533930,32,Woman
116,532442,DepthScenes,duration_manipulation_targetAtFixation,jsons/VE125_randls_5.json,http://54.235.29.9/FacialAge/BNav_EC2/DepthDuration/v2_depth_duration_MTurk/v2_DepthDuration_HTML.html#132,132,1536,864,1536,864,8-21-2022,8-35-15,117,depth_duration_stimuli/002788_2014-06-22_19-36-03_094959634447_rgbf000088-resize_2/002788_2014-06-22_19-36-03_094959634447_rgbf000088-resize_2-target.png,125,1.6465,4,1765,124,feet,jsons/VE125_randls_5.json,396124,533930,32,Woman
117,532442,DepthScenes,duration_manipulation_targetAtFixation,jsons/VE125_randls_5.json,http://54.235.29.9/FacialAge/BNav_EC2/DepthDuration/v2_depth_duration_MTurk/v2_DepthDuration_HTML.html#132,132,1536,864,1536,864,8-21-2022,8-35-15,118,depth_duration_stimuli/000749_2014-06-08_21-55-06_260595134347_rgbf000070-resize_2/000749_2014-06-08_21-55-06_260595134347_rgbf000070-resize_2-target.png,125,2.331,4,1791,138,feet,jsons/VE125_randls_5.json,396124,533930,32,Woman
118,532442,DepthScenes,duration_manipulation_targetAtFixation,jsons/VE125_randls_5.json,http://54.235.29.9/FacialAge/BNav_EC2/DepthDuration/v2_depth_duration_MTurk/v2_DepthDuration_HTML.html#132,132,1536,864,1536,864,8-21-2022,8-35-15,119,depth_duration_stimuli/000773_2014-06-08_22-24-54_260595134347_rgbf000093-resize_1/000773_2014-06-08_22-24-54_260595134347_rgbf000093-resize_1-target.png,125,4.973,8,2151,124,feet,jsons/VE125_randls_5.json,396124,533930,32,Woman
119,532442,DepthScenes,duration_manipulation_targetAtFixation,jsons/VE125_randls_5.json,http://54.235.29.9/FacialAge/BNav_EC2/DepthDuration/v2_depth_duration_MTurk/v2_DepthDuration_HTML.html#132,132,1536,864,1536,864,8-21-2022,8-35-15,120,depth_duration_stimuli/002414_2014-06-28_20-24-58_260595134347_rgbf000067-resize_4/002414_2014-06-28_20-24-58_260595134347_rgbf000067-resize_4-target.png,125,4.363,7,1924,133,feet,jsons/VE125_randls_5.json,396124,533930,32,Woman
120,532442,DepthScenes,duration_manipulation_targetAtFixation,jsons/VE125_randls_5.json,http://54.235.29.9/FacialAge/BNav_EC2/DepthDuration/v2_depth_duration_MTurk/v2_DepthDuration_HTML.html#132,132,1536,864,1536,864,8-21-2022,8-35-15,121,depth_duration_stimuli/002989_2014-06-15_12-25-03_094959634447_rgbf000150-resize_3/002989_2014-06-15_12-25-03_094959634447_rgbf000150-resize_3-target.png,125,4.1975,5,1896,123,feet,jsons/VE125_randls_5.json,396124,533930,32,Woman
121,532442,DepthScenes,duration_manipulation_targetAtFixation,jsons/VE125_randls_5.json,http://54.235.29.9/FacialAge/BNav_EC2/DepthDuration/v2_depth_duration_MTurk/v2_DepthDuration_HTML.html#132,132,1536,864,1536,864,8-21-2022,8-35-15,122,depth_duration_stimuli/000866_2014-06-09_20-45-42_260595134347_rgbf000139-resize_1/000866_2014-06-09_20-45-42_260595134347_rgbf000139-resize_1-target.png,125,3.2155,4,2010,122,feet,jsons/VE125_randls_5.json,396124,533930,32,Woman
122,532442,DepthScenes,duration_manipulation_targetAtFixation,jsons/VE125_randls_5.json,http://54.235.29.9/FacialAge/BNav_EC2/DepthDuration/v2_depth_duration_MTurk/v2_DepthDuration_HTML.html#132,132,1536,864,1536,864,8-21-2022,8-35-15,123,depth_duration_stimuli/000522_2014-06-08_13-35-06_260595134347_rgbf000244-resize_1/000522_2014-06-08_13-35-06_260595134347_rgbf000244-resize_1-target.png,125,2.3715,1,1598,125,feet,jsons/VE125_randls_5.json,396124,533930,32,Woman
123,532442,DepthScenes,duration_manipulation_targetAtFixation,jsons/VE125_randls_5.json,http://54.235.29.9/FacialAge/BNav_EC2/DepthDuration/v2_depth_duration_MTurk/v2_DepthDuration_HTML.html#132,132,1536,864,1536,864,8-21-2022,8-35-15,124,depth_duration_stimuli/002949_2014-06-26_15-57-42_094959634447_rgbf000079-resize_1/002949_2014-06-26_15-57-42_094959634447_rgbf000079-resize_1-target.png,125,1.8915,2,1549,124,feet,jsons/VE125_randls_5.json,396124,533930,32,Woman
124,532442,DepthScenes,duration_manipulation_targetAtFixation,jsons/VE125_randls_5.json,http://54.235.29.9/FacialAge/BNav_EC2/DepthDuration/v2_depth_duration_MTurk/v2_DepthDuration_HTML.html#132,132,1536,864,1536,864,8-21-2022,8-35-15,125,depth_duration_stimuli/002445_2014-06-28_20-32-16_260595134347_rgbf000029-resize_4/002445_2014-06-28_20-32-16_260595134347_rgbf000029-resize_4-target.png,125,2.5315,2,1448,138,feet,jsons/VE125_randls_5.json,396124,533930,32,Woman
125,532442,DepthScenes,duration_manipulation_targetAtFixation,jsons/VE125_randls_5.json,http://54.235.29.9/FacialAge/BNav_EC2/DepthDuration/v2_depth_duration_MTurk/v2_DepthDuration_HTML.html#132,132,1536,864,1536,864,8-21-2022,8-35-15,126,depth_duration_stimuli/000780_2014-06-08_22-28-29_260595134347_rgbf000126-resize_1/000780_2014-06-08_22-28-29_260595134347_rgbf000126-resize_1-target.png,125,3.3825,5,1974,123,feet,jsons/VE125_randls_5.json,396124,533930,32,Woman
126,532442,DepthScenes,duration_manipulation_targetAtFixation,jsons/VE125_randls_5.json,http://54.235.29.9/FacialAge/BNav_EC2/DepthDuration/v2_depth_duration_MTurk/v2_DepthDuration_HTML.html#132,132,1536,864,1536,864,8-21-2022,8-35-15,127,depth_duration_stimuli/003070_2014-06-15_14-58-27_094959634447_rgbf000150-resize_3/003070_2014-06-15_14-58-27_094959634447_rgbf000150-resize_3-target.png,125,2.9415,5,1696,135,feet,jsons/VE125_randls_5.json,396124,533930,32,Woman
127,532442,DepthScenes,duration_manipulation_targetAtFixation,jsons/VE125_randls_5.json,http://54.235.29.9/FacialAge/BNav_EC2/DepthDuration/v2_depth_duration_MTurk/v2_DepthDuration_HTML.html#132,132,1536,864,1536,864,8-21-2022,8-35-15,128,depth_duration_stimuli/000943_2014-06-09_19-31-07_260595134347_rgbf000128-resize_1/000943_2014-06-09_19-31-07_260595134347_rgbf000128-resize_1-target.png,125,1.9765,3,1648,123,feet,jsons/VE125_randls_5.json,396124,533930,32,Woman
128,532442,DepthScenes,duration_manipulation_targetAtFixation,jsons/VE125_randls_5.json,http://54.235.29.9/FacialAge/BNav_EC2/DepthDuration/v2_depth_duration_MTurk/v2_DepthDuration_HTML.html#132,132,1536,864,1536,864,8-21-2022,8-35-15,129,depth_duration_stimuli/002748_2014-06-22_19-07-22_094959634447_rgbf000078-resize_1/002748_2014-06-22_19-07-22_094959634447_rgbf000078-resize_1-target.png,125,4.6705,6,1883,124,feet,jsons/VE125_randls_5.json,396124,533930,32,Woman
129,532442,DepthScenes,duration_manipulation_targetAtFixation,jsons/VE125_randls_5.json,http://54.235.29.9/FacialAge/BNav_EC2/DepthDuration/v2_depth_duration_MTurk/v2_DepthDuration_HTML.html#132,132,1536,864,1536,864,8-21-2022,8-35-15,130,depth_duration_stimuli/002995_2014-06-15_12-31-26_094959634447_rgbf000150-resize_1/002995_2014-06-15_12-31-26_094959634447_rgbf000150-resize_1-target.png,125,3.8360000000000003,6,1678,125,feet,jsons/VE125_randls_5.json,396124,533930,32,Woman
130,532442,DepthScenes,duration_manipulation_targetAtFixation,jsons/VE125_randls_5.json,http://54.235.29.9/FacialAge/BNav_EC2/DepthDuration/v2_depth_duration_MTurk/v2_DepthDuration_HTML.html#132,132,1536,864,1536,864,8-21-2022,8-35-15,131,depth_duration_stimuli/001066_2014-06-08_22-03-20_260595134347_rgbf000066-resize_4/001066_2014-06-08_22-03-20_260595134347_rgbf000066-resize_4-target.png,125,4.2330000000000005,9,1915,127,feet,jsons/VE125_randls_5.json,396124,533930,32,Woman
131,532442,DepthScenes,duration_manipulation_targetAtFixation,jsons/VE125_randls_5.json,http://54.235.29.9/FacialAge/BNav_EC2/DepthDuration/v2_depth_duration_MTurk/v2_DepthDuration_HTML.html#132,132,1536,864,1536,864,8-21-2022,8-35-15,132,depth_duration_stimuli/000742_2014-06-08_18-48-09_260595134347_rgbf000164-resize_4/000742_2014-06-08_18-48-09_260595134347_rgbf000164-resize_4-target.png,125,4.632,6,1930,124,feet,jsons/VE125_randls_5.json,396124,533930,32,Woman
132,532442,DepthScenes,duration_manipulation_targetAtFixation,jsons/VE125_randls_5.json,http://54.235.29.9/FacialAge/BNav_EC2/DepthDuration/v2_depth_duration_MTurk/v2_DepthDuration_HTML.html#132,132,1536,864,1536,864,8-21-2022,8-35-15,133,depth_duration_stimuli/002784_2014-06-22_19-26-30_094959634447_rgbf000083-resize_3/002784_2014-06-22_19-26-30_094959634447_rgbf000083-resize_3-target.png,125,1.8046666666667,2,1518,124,feet,jsons/VE125_randls_5.json,396124,533930,32,Woman
133,532442,DepthScenes,duration_manipulation_targetAtFixation,jsons/VE125_randls_5.json,http://54.235.29.9/FacialAge/BNav_EC2/DepthDuration/v2_depth_duration_MTurk/v2_DepthDuration_HTML.html#132,132,1536,864,1536,864,8-21-2022,8-35-15,134,depth_duration_stimuli/001100_2014-06-15_17-46-26_260595134347_rgbf000225-resize_2/001100_2014-06-15_17-46-26_260595134347_rgbf000225-resize_2-target.png,125,2.24,1,1985,127,feet,jsons/VE125_randls_5.json,396124,533930,32,Woman
134,532442,DepthScenes,duration_manipulation_targetAtFixation,jsons/VE125_randls_5.json,http://54.235.29.9/FacialAge/BNav_EC2/DepthDuration/v2_depth_duration_MTurk/v2_DepthDuration_HTML.html#132,132,1536,864,1536,864,8-21-2022,8-35-15,135,depth_duration_stimuli/002072_2014-06-24_21-48-06_260595134347_rgbf000115-resize_0/002072_2014-06-24_21-48-06_260595134347_rgbf000115-resize-original.jpg,125,4.702,0,2492,125,feet,jsons/VE125_randls_5.json,396124,533930,32,Woman
135,532442,DepthScenes,duration_manipulation_targetAtFixation,jsons/VE125_randls_5.json,http://54.235.29.9/FacialAge/BNav_EC2/DepthDuration/v2_depth_duration_MTurk/v2_DepthDuration_HTML.html#132,132,1536,864,1536,864,8-21-2022,8-35-15,136,depth_duration_stimuli/001029_2014-06-08_13-17-57_260595134347_rgbf000065-resize_1/001029_2014-06-08_13-17-57_260595134347_rgbf000065-resize_1-target.png,125,3.0835,5,2265,124,feet,jsons/VE125_randls_5.json,396124,533930,32,Woman
136,532442,DepthScenes,duration_manipulation_targetAtFixation,jsons/VE125_randls_5.json,http://54.235.29.9/FacialAge/BNav_EC2/DepthDuration/v2_depth_duration_MTurk/v2_DepthDuration_HTML.html#132,132,1536,864,1536,864,8-21-2022,8-35-15,137,depth_duration_stimuli/000677_2014-06-08_23-10-32_260595134347_rgbf000158-resize_6/000677_2014-06-08_23-10-32_260595134347_rgbf000158-resize_6-target.png,125,3.556,5,1616,125,feet,jsons/VE125_randls_5.json,396124,533930,32,Woman
137,532442,DepthScenes,duration_manipulation_targetAtFixation,jsons/VE125_randls_5.json,http://54.235.29.9/FacialAge/BNav_EC2/DepthDuration/v2_depth_duration_MTurk/v2_DepthDuration_HTML.html#132,132,1536,864,1536,864,8-21-2022,8-35-15,138,depth_duration_stimuli/002549_2014-06-24_13-41-39_094959634447_rgbf000022-resize_3/002549_2014-06-24_13-41-39_094959634447_rgbf000022-resize_3-target.png,125,1.476,2,1922,123,feet,jsons/VE125_randls_5.json,396124,533930,32,Woman
138,532442,DepthScenes,duration_manipulation_targetAtFixation,jsons/VE125_randls_5.json,http://54.235.29.9/FacialAge/BNav_EC2/DepthDuration/v2_depth_duration_MTurk/v2_DepthDuration_HTML.html#132,132,1536,864,1536,864,8-21-2022,8-35-15,139,depth_duration_stimuli/002750_2014-06-22_19-08-03_094959634447_rgbf000094-resize_4/002750_2014-06-22_19-08-03_094959634447_rgbf000094-resize_4-target.png,125,2.354,3,1451,122,feet,jsons/VE125_randls_5.json,396124,533930,32,Woman
139,532442,DepthScenes,duration_manipulation_targetAtFixation,jsons/VE125_randls_5.json,http://54.235.29.9/FacialAge/BNav_EC2/DepthDuration/v2_depth_duration_MTurk/v2_DepthDuration_HTML.html#132,132,1536,864,1536,864,8-21-2022,8-35-15,140,depth_duration_stimuli/002039_2014-06-24_20-22-38_260595134347_rgbf000084-resize_1/002039_2014-06-24_20-22-38_260595134347_rgbf000084-resize_1-target.png,125,4.408,5,1719,124,feet,jsons/VE125_randls_5.json,396124,533930,32,Woman
140,532442,DepthScenes,duration_manipulation_targetAtFixation,jsons/VE125_randls_5.json,http://54.235.29.9/FacialAge/BNav_EC2/DepthDuration/v2_depth_duration_MTurk/v2_DepthDuration_HTML.html#132,132,1536,864,1536,864,8-21-2022,8-35-15,141,depth_duration_stimuli/002103_2014-06-25_20-00-40_260595134347_rgbf000049-resize_0/002103_2014-06-25_20-00-40_260595134347_rgbf000049-resize_0-target.png,125,4.105,3,1573,124,feet,jsons/VE125_randls_5.json,396124,533930,32,Woman
141,532442,DepthScenes,duration_manipulation_targetAtFixation,jsons/VE125_randls_5.json,http://54.235.29.9/FacialAge/BNav_EC2/DepthDuration/v2_depth_duration_MTurk/v2_DepthDuration_HTML.html#132,132,1536,864,1536,864,8-21-2022,8-35-15,142,depth_duration_stimuli/002509_2014-06-24_13-19-22_094959634447_rgbf000077-resize_0/002509_2014-06-24_13-19-22_094959634447_rgbf000077-resize_0-target.png,125,1.3065,2,1456,123,feet,jsons/VE125_randls_5.json,396124,533930,32,Woman
142,532442,DepthScenes,duration_manipulation_targetAtFixation,jsons/VE125_randls_5.json,http://54.235.29.9/FacialAge/BNav_EC2/DepthDuration/v2_depth_duration_MTurk/v2_DepthDuration_HTML.html#132,132,1536,864,1536,864,8-21-2022,8-35-15,143,depth_duration_stimuli/003338_2014-05-20_11-01-23_094959634447_rgbf000051-resize_6/003338_2014-05-20_11-01-23_094959634447_rgbf000051-resize_6-target.png,125,1.693,2,1403,140,feet,jsons/VE125_randls_5.json,396124,533930,32,Woman
143,532442,DepthScenes,duration_manipulation_targetAtFixation,jsons/VE125_randls_5.json,http://54.235.29.9/FacialAge/BNav_EC2/DepthDuration/v2_depth_duration_MTurk/v2_DepthDuration_HTML.html#132,132,1536,864,1536,864,8-21-2022,8-35-15,144,depth_duration_stimuli/001110_2014-06-15_17-25-28_260595134347_rgbf000150-resize_1/001110_2014-06-15_17-25-28_260595134347_rgbf000150-resize_1-target.png,125,1.7115,4,1746,124,feet,jsons/VE125_randls_5.json,396124,533930,32,Woman
144,532442,DepthScenes,duration_manipulation_targetAtFixation,jsons/VE125_randls_5.json,http://54.235.29.9/FacialAge/BNav_EC2/DepthDuration/v2_depth_duration_MTurk/v2_DepthDuration_HTML.html#132,132,1536,864,1536,864,8-21-2022,8-35-15,145,depth_duration_stimuli/000927_2014-06-09_16-32-30_260595134347_rgbf000123-resize_3/000927_2014-06-09_16-32-30_260595134347_rgbf000123-resize_3-target.png,125,2.6785,5,1730,132,feet,jsons/VE125_randls_5.json,396124,533930,32,Woman
145,532442,DepthScenes,duration_manipulation_targetAtFixation,jsons/VE125_randls_5.json,http://54.235.29.9/FacialAge/BNav_EC2/DepthDuration/v2_depth_duration_MTurk/v2_DepthDuration_HTML.html#132,132,1536,864,1536,864,8-21-2022,8-35-15,146,depth_duration_stimuli/001498_2014-06-19_17-45-14_260595134347_rgbf000129-resize_4/001498_2014-06-19_17-45-14_260595134347_rgbf000129-resize-original.jpg,125,1.4075,0,2597,125,feet,jsons/VE125_randls_5.json,396124,533930,32,Woman
146,532442,DepthScenes,duration_manipulation_targetAtFixation,jsons/VE125_randls_5.json,http://54.235.29.9/FacialAge/BNav_EC2/DepthDuration/v2_depth_duration_MTurk/v2_DepthDuration_HTML.html#132,132,1536,864,1536,864,8-21-2022,8-35-15,147,depth_duration_stimuli/001011_2014-06-08_23-18-54_260595134347_rgbf000044-resize_4/001011_2014-06-08_23-18-54_260595134347_rgbf000044-resize_4-target.png,125,2.4730000000000003,6,1878,123,feet,jsons/VE125_randls_5.json,396124,533930,32,Woman
147,532442,DepthScenes,duration_manipulation_targetAtFixation,jsons/VE125_randls_5.json,http://54.235.29.9/FacialAge/BNav_EC2/DepthDuration/v2_depth_duration_MTurk/v2_DepthDuration_HTML.html#132,132,1536,864,1536,864,8-21-2022,8-35-15,148,depth_duration_stimuli/002875_2014-06-01_15-19-00_094959634447_rgbf000151-resize_1/002875_2014-06-01_15-19-00_094959634447_rgbf000151-resize_1-target.png,125,1.9675,5,1637,123,feet,jsons/VE125_randls_5.json,396124,533930,32,Woman
148,532442,DepthScenes,duration_manipulation_targetAtFixation,jsons/VE125_randls_5.json,http://54.235.29.9/FacialAge/BNav_EC2/DepthDuration/v2_depth_duration_MTurk/v2_DepthDuration_HTML.html#132,132,1536,864,1536,864,8-21-2022,8-35-15,149,depth_duration_stimuli/001150_2014-06-17_15-27-34_260595134347_rgbf000108-resize_2/001150_2014-06-17_15-27-34_260595134347_rgbf000108-resize_2-target.png,125,4.0325,4,1889,124,feet,jsons/VE125_randls_5.json,396124,533930,32,Woman
149,532442,DepthScenes,duration_manipulation_targetAtFixation,jsons/VE125_randls_5.json,http://54.235.29.9/FacialAge/BNav_EC2/DepthDuration/v2_depth_duration_MTurk/v2_DepthDuration_HTML.html#132,132,1536,864,1536,864,8-21-2022,8-35-15,150,depth_duration_stimuli/000665_2014-06-09_20-42-35_260595134347_rgbf000110-resize_1/000665_2014-06-09_20-42-35_260595134347_rgbf000110-resize_1-target.png,125,3.057,4,1436,125,feet,jsons/VE125_randls_5.json,396124,533930,32,Woman
150,532442,DepthScenes,duration_manipulation_targetAtFixation,jsons/VE125_randls_5.json,http://54.235.29.9/FacialAge/BNav_EC2/DepthDuration/v2_depth_duration_MTurk/v2_DepthDuration_HTML.html#132,132,1536,864,1536,864,8-21-2022,8-35-15,151,depth_duration_stimuli/002043_2014-06-24_20-29-38_260595134347_rgbf000039-resize_4/002043_2014-06-24_20-29-38_260595134347_rgbf000039-resize_4-target.png,125,2.8435,4,1500,125,feet,jsons/VE125_randls_5.json,396124,533930,32,Woman
151,532442,DepthScenes,duration_manipulation_targetAtFixation,jsons/VE125_randls_5.json,http://54.235.29.9/FacialAge/BNav_EC2/DepthDuration/v2_depth_duration_MTurk/v2_DepthDuration_HTML.html#132,132,1536,864,1536,864,8-21-2022,8-35-15,152,depth_duration_stimuli/003048_2014-06-15_13-49-43_094959634447_rgbf000150-resize_1/003048_2014-06-15_13-49-43_094959634447_rgbf000150-resize_1-target.png,125,4.0035,6,1737,140,feet,jsons/VE125_randls_5.json,396124,533930,32,Woman
152,532442,DepthScenes,duration_manipulation_targetAtFixation,jsons/VE125_randls_5.json,http://54.235.29.9/FacialAge/BNav_EC2/DepthDuration/v2_depth_duration_MTurk/v2_DepthDuration_HTML.html#132,132,1536,864,1536,864,8-21-2022,8-35-15,153,depth_duration_stimuli/002988_2014-06-15_12-24-20_094959634447_rgbf000150-resize_1/002988_2014-06-15_12-24-20_094959634447_rgbf000150-resize_1-target.png,125,4.7669999999999995,7,1744,123,feet,jsons/VE125_randls_5.json,396124,533930,32,Woman
153,532442,DepthScenes,duration_manipulation_targetAtFixation,jsons/VE125_randls_5.json,http://54.235.29.9/FacialAge/BNav_EC2/DepthDuration/v2_depth_duration_MTurk/v2_DepthDuration_HTML.html#132,132,1536,864,1536,864,8-21-2022,8-35-15,154,depth_duration_stimuli/001052_2014-06-08_18-24-54_260595134347_rgbf000130-resize_1/001052_2014-06-08_18-24-54_260595134347_rgbf000130-resize_1-target.png,125,4.1045,7,2231,124,feet,jsons/VE125_randls_5.json,396124,533930,32,Woman
154,532442,DepthScenes,duration_manipulation_targetAtFixation,jsons/VE125_randls_5.json,http://54.235.29.9/FacialAge/BNav_EC2/DepthDuration/v2_depth_duration_MTurk/v2_DepthDuration_HTML.html#132,132,1536,864,1536,864,8-21-2022,8-35-15,155,depth_duration_stimuli/002663_2014-06-13_15-50-26_094959634447_rgbf000075-resize_1/002663_2014-06-13_15-50-26_094959634447_rgbf000075-resize_1-target.png,125,4.7495,5,1723,123,feet,jsons/VE125_randls_5.json,396124,533930,32,Woman
155,532442,DepthScenes,duration_manipulation_targetAtFixation,jsons/VE125_randls_5.json,http://54.235.29.9/FacialAge/BNav_EC2/DepthDuration/v2_depth_duration_MTurk/v2_DepthDuration_HTML.html#132,132,1536,864,1536,864,8-21-2022,8-35-15,156,depth_duration_stimuli/000409_2014-06-04_19-23-33_260595134347_rgbf000067-resize_0/000409_2014-06-04_19-23-33_260595134347_rgbf000067-resize_0-target.png,125,3.7335,7,2196,128,feet,jsons/VE125_randls_5.json,396124,533930,32,Woman
156,532442,DepthScenes,duration_manipulation_targetAtFixation,jsons/VE125_randls_5.json,http://54.235.29.9/FacialAge/BNav_EC2/DepthDuration/v2_depth_duration_MTurk/v2_DepthDuration_HTML.html#132,132,1536,864,1536,864,8-21-2022,8-35-15,157,depth_duration_stimuli/000009_2014-05-26_14-32-05_260595134347_rgbf000034-resize_3/000009_2014-05-26_14-32-05_260595134347_rgbf000034-resize_3-target.png,125,3.8715,6,1732,122,feet,jsons/VE125_randls_5.json,396124,533930,32,Woman
157,532442,DepthScenes,duration_manipulation_targetAtFixation,jsons/VE125_randls_5.json,http://54.235.29.9/FacialAge/BNav_EC2/DepthDuration/v2_depth_duration_MTurk/v2_DepthDuration_HTML.html#132,132,1536,864,1536,864,8-21-2022,8-35-15,158,depth_duration_stimuli/001828_2014-06-26_21-40-03_260595134347_rgbf000024-resize_0/001828_2014-06-26_21-40-03_260595134347_rgbf000024-resize_0-target.png,125,4.8260000000000005,8,2456,124,feet,jsons/VE125_randls_5.json,396124,533930,32,Woman
158,532442,DepthScenes,duration_manipulation_targetAtFixation,jsons/VE125_randls_5.json,http://54.235.29.9/FacialAge/BNav_EC2/DepthDuration/v2_depth_duration_MTurk/v2_DepthDuration_HTML.html#132,132,1536,864,1536,864,8-21-2022,8-35-15,159,depth_duration_stimuli/000878_2014-06-08_22-52-45_260595134347_rgbf000045-resize_2/000878_2014-06-08_22-52-45_260595134347_rgbf000045-resize_2-target.png,125,2.092,5,1790,131,feet,jsons/VE125_randls_5.json,396124,533930,32,Woman
159,532442,DepthScenes,duration_manipulation_targetAtFixation,jsons/VE125_randls_5.json,http://54.235.29.9/FacialAge/BNav_EC2/DepthDuration/v2_depth_duration_MTurk/v2_DepthDuration_HTML.html#132,132,1536,864,1536,864,8-21-2022,8-35-15,160,depth_duration_stimuli/002953_2014-06-08_17-32-18_094959634447_rgbf000059-resize_5/002953_2014-06-08_17-32-18_094959634447_rgbf000059-resize_5-target.png,125,1.551,3,1816,122,feet,jsons/VE125_randls_5.json,396124,533930,32,Woman
160,532442,DepthScenes,duration_manipulation_targetAtFixation,jsons/VE125_randls_5.json,http://54.235.29.9/FacialAge/BNav_EC2/DepthDuration/v2_depth_duration_MTurk/v2_DepthDuration_HTML.html#132,132,1536,864,1536,864,8-21-2022,8-35-15,161,depth_duration_stimuli/001164_2014-06-17_15-35-46_260595134347_rgbf000085-resize_3/001164_2014-06-17_15-35-46_260595134347_rgbf000085-resize_3-target.png,125,2.354,5,1931,129,feet,jsons/VE125_randls_5.json,396124,533930,32,Woman
161,532442,DepthScenes,duration_manipulation_targetAtFixation,jsons/VE125_randls_5.json,http://54.235.29.9/FacialAge/BNav_EC2/DepthDuration/v2_depth_duration_MTurk/v2_DepthDuration_HTML.html#132,132,1536,864,1536,864,8-21-2022,8-35-15,162,depth_duration_stimuli/001136_2014-06-17_15-19-41_260595134347_rgbf000076-resize_3/001136_2014-06-17_15-19-41_260595134347_rgbf000076-resize_3-target.png,125,1.8655,4,1701,122,feet,jsons/VE125_randls_5.json,396124,533930,32,Woman
162,532442,DepthScenes,duration_manipulation_targetAtFixation,jsons/VE125_randls_5.json,http://54.235.29.9/FacialAge/BNav_EC2/DepthDuration/v2_depth_duration_MTurk/v2_DepthDuration_HTML.html#132,132,1536,864,1536,864,8-21-2022,8-35-15,163,depth_duration_stimuli/000469_2014-06-09_19-42-10_260595134347_rgbf000081-resize_1/000469_2014-06-09_19-42-10_260595134347_rgbf000081-resize_1-target.png,125,1.652,2,1442,139,feet,jsons/VE125_randls_5.json,396124,533930,32,Woman
163,532442,DepthScenes,duration_manipulation_targetAtFixation,jsons/VE125_randls_5.json,http://54.235.29.9/FacialAge/BNav_EC2/DepthDuration/v2_depth_duration_MTurk/v2_DepthDuration_HTML.html#132,132,1536,864,1536,864,8-21-2022,8-35-15,164,depth_duration_stimuli/000483_2014-06-09_20-41-45_260595134347_rgbf000116-resize_4/000483_2014-06-09_20-41-45_260595134347_rgbf000116-resize_4-target.png,125,1.337,2,1597,124,feet,jsons/VE125_randls_5.json,396124,533930,32,Woman
