,subjID,experimentName,versionName,sequenceName,url,selected_row,windowWidth,windowHeight,screenWidth,screenHeight,startDate,startTime,trial,stimulus,duration,actual_depth,depth_estimate,trial_RT,log_sceneDuration,unitSelection,seq_filepath,experimentTime,totalTime,age,gender
0,535559,DepthScenes,duration_manipulation_targetAtFixation,jsons/v1_VE250_randls_17_rotated.json,http://54.235.29.9/FacialAge/BNav_EC2/DepthDuration/v2_depth_duration_MTurk/v2_DepthDuration_HTML.html#147,147,2560,1335,2560,1440,8-20-2022,10-11-48,1,depth_duration_stimuli/002875_2014-06-01_15-19-00_094959634447_rgbf000151-resize_1/002875_2014-06-01_15-19-00_094959634447_rgbf000151-resize_1-target.png,250,1.9675,7,4344,250,feet,jsons/v1_VE250_randls_17_rotated.json,511288,1043629,37,Man
1,535559,DepthScenes,duration_manipulation_targetAtFixation,jsons/v1_VE250_randls_17_rotated.json,http://54.235.29.9/FacialAge/BNav_EC2/DepthDuration/v2_depth_duration_MTurk/v2_DepthDuration_HTML.html#147,147,2560,1335,2560,1440,8-20-2022,10-11-48,2,depth_duration_stimuli/001011_2014-06-08_23-18-54_260595134347_rgbf000044-resize_4/001011_2014-06-08_23-18-54_260595134347_rgbf000044-resize_4-target.png,250,2.4730000000000003,6,2954,248,feet,jsons/v1_VE250_randls_17_rotated.json,511288,1043629,37,Man
2,535559,DepthScenes,duration_manipulation_targetAtFixation,jsons/v1_VE250_randls_17_rotated.json,http://54.235.29.9/FacialAge/BNav_EC2/DepthDuration/v2_depth_duration_MTurk/v2_DepthDuration_HTML.html#147,147,2560,1335,2560,1440,8-20-2022,10-11-48,3,depth_duration_stimuli/002995_2014-06-15_12-31-26_094959634447_rgbf000150-resize_1/002995_2014-06-15_12-31-26_094959634447_rgbf000150-resize_1-target.png,250,3.8360000000000003,8,2517,250,feet,jsons/v1_VE250_randls_17_rotated.json,511288,1043629,37,Man
3,535559,DepthScenes,duration_manipulation_targetAtFixation,jsons/v1_VE250_randls_17_rotated.json,http://54.235.29.9/FacialAge/BNav_EC2/DepthDuration/v2_depth_duration_MTurk/v2_DepthDuration_HTML.html#147,147,2560,1335,2560,1440,8-20-2022,10-11-48,4,depth_duration_stimuli/002748_2014-06-22_19-07-22_094959634447_rgbf000078-resize_1/002748_2014-06-22_19-07-22_094959634447_rgbf000078-resize_1-target.png,250,4.6705,12,2830,249,feet,jsons/v1_VE250_randls_17_rotated.json,511288,1043629,37,Man
4,535559,DepthScenes,duration_manipulation_targetAtFixation,jsons/v1_VE250_randls_17_rotated.json,http://54.235.29.9/FacialAge/BNav_EC2/DepthDuration/v2_depth_duration_MTurk/v2_DepthDuration_HTML.html#147,147,2560,1335,2560,1440,8-20-2022,10-11-48,5,depth_duration_stimuli/000943_2014-06-09_19-31-07_260595134347_rgbf000128-resize_1/000943_2014-06-09_19-31-07_260595134347_rgbf000128-resize_1-target.png,250,1.9765,4,3110,251,feet,jsons/v1_VE250_randls_17_rotated.json,511288,1043629,37,Man
5,535559,DepthScenes,duration_manipulation_targetAtFixation,jsons/v1_VE250_randls_17_rotated.json,http://54.235.29.9/FacialAge/BNav_EC2/DepthDuration/v2_depth_duration_MTurk/v2_DepthDuration_HTML.html#147,147,2560,1335,2560,1440,8-20-2022,10-11-48,6,depth_duration_stimuli/003070_2014-06-15_14-58-27_094959634447_rgbf000150-resize_3/003070_2014-06-15_14-58-27_094959634447_rgbf000150-resize_3-target.png,250,2.9415,6,2199,250,feet,jsons/v1_VE250_randls_17_rotated.json,511288,1043629,37,Man
6,535559,DepthScenes,duration_manipulation_targetAtFixation,jsons/v1_VE250_randls_17_rotated.json,http://54.235.29.9/FacialAge/BNav_EC2/DepthDuration/v2_depth_duration_MTurk/v2_DepthDuration_HTML.html#147,147,2560,1335,2560,1440,8-20-2022,10-11-48,7,depth_duration_stimuli/000734_2014-06-08_17-39-11_260595134347_rgbf000128-resize_2/000734_2014-06-08_17-39-11_260595134347_rgbf000128-resize_2-target.png,250,4.098,6,2173,250,feet,jsons/v1_VE250_randls_17_rotated.json,511288,1043629,37,Man
7,535559,DepthScenes,duration_manipulation_targetAtFixation,jsons/v1_VE250_randls_17_rotated.json,http://54.235.29.9/FacialAge/BNav_EC2/DepthDuration/v2_depth_duration_MTurk/v2_DepthDuration_HTML.html#147,147,2560,1335,2560,1440,8-20-2022,10-11-48,8,depth_duration_stimuli/000739_2014-06-08_18-45-58_260595134347_rgbf000068-resize_1/000739_2014-06-08_18-45-58_260595134347_rgbf000068-resize_1-target.png,250,3.534,7,2316,249,feet,jsons/v1_VE250_randls_17_rotated.json,511288,1043629,37,Man
8,535559,DepthScenes,duration_manipulation_targetAtFixation,jsons/v1_VE250_randls_17_rotated.json,http://54.235.29.9/FacialAge/BNav_EC2/DepthDuration/v2_depth_duration_MTurk/v2_DepthDuration_HTML.html#147,147,2560,1335,2560,1440,8-20-2022,10-11-48,9,depth_duration_stimuli/002568_2014-06-24_13-59-21_094959634447_rgbf000062-resize_4/002568_2014-06-24_13-59-21_094959634447_rgbf000062-resize_4-target.png,250,3.015,7,2365,250,feet,jsons/v1_VE250_randls_17_rotated.json,511288,1043629,37,Man
9,535559,DepthScenes,duration_manipulation_targetAtFixation,jsons/v1_VE250_randls_17_rotated.json,http://54.235.29.9/FacialAge/BNav_EC2/DepthDuration/v2_depth_duration_MTurk/v2_DepthDuration_HTML.html#147,147,2560,1335,2560,1440,8-20-2022,10-11-48,10,depth_duration_stimuli/003492_2014-05-21_15-50-55_094959634447_rgbf000828-resize_1/003492_2014-05-21_15-50-55_094959634447_rgbf000828-resize_1-target.png,250,4.06875,10,2928,250,feet,jsons/v1_VE250_randls_17_rotated.json,511288,1043629,37,Man
10,535559,DepthScenes,duration_manipulation_targetAtFixation,jsons/v1_VE250_randls_17_rotated.json,http://54.235.29.9/FacialAge/BNav_EC2/DepthDuration/v2_depth_duration_MTurk/v2_DepthDuration_HTML.html#147,147,2560,1335,2560,1440,8-20-2022,10-11-48,11,depth_duration_stimuli/003081_2014-06-15_15-19-16_094959634447_rgbf000150-resize_1/003081_2014-06-15_15-19-16_094959634447_rgbf000150-resize_1-target.png,250,3.9125,8,2571,249,feet,jsons/v1_VE250_randls_17_rotated.json,511288,1043629,37,Man
11,535559,DepthScenes,duration_manipulation_targetAtFixation,jsons/v1_VE250_randls_17_rotated.json,http://54.235.29.9/FacialAge/BNav_EC2/DepthDuration/v2_depth_duration_MTurk/v2_DepthDuration_HTML.html#147,147,2560,1335,2560,1440,8-20-2022,10-11-48,12,depth_duration_stimuli/001417_2014-06-19_16-25-36_260595134347_rgbf000115-resize_5/001417_2014-06-19_16-25-36_260595134347_rgbf000115-resize_5-target.png,250,4.6255,7,2604,251,feet,jsons/v1_VE250_randls_17_rotated.json,511288,1043629,37,Man
12,535559,DepthScenes,duration_manipulation_targetAtFixation,jsons/v1_VE250_randls_17_rotated.json,http://54.235.29.9/FacialAge/BNav_EC2/DepthDuration/v2_depth_duration_MTurk/v2_DepthDuration_HTML.html#147,147,2560,1335,2560,1440,8-20-2022,10-11-48,13,depth_duration_stimuli/000691_2014-06-08_13-08-50_260595134347_rgbf000132-resize_3/000691_2014-06-08_13-08-50_260595134347_rgbf000132-resize_3-target.png,250,4.1530000000000005,8,2208,249,feet,jsons/v1_VE250_randls_17_rotated.json,511288,1043629,37,Man
13,535559,DepthScenes,duration_manipulation_targetAtFixation,jsons/v1_VE250_randls_17_rotated.json,http://54.235.29.9/FacialAge/BNav_EC2/DepthDuration/v2_depth_duration_MTurk/v2_DepthDuration_HTML.html#147,147,2560,1335,2560,1440,8-20-2022,10-11-48,14,depth_duration_stimuli/002213_2014-06-28_18-37-58_260595134347_rgbf000055-resize_1/002213_2014-06-28_18-37-58_260595134347_rgbf000055-resize_1-target.png,250,3.62,10,2952,249,feet,jsons/v1_VE250_randls_17_rotated.json,511288,1043629,37,Man
14,535559,DepthScenes,duration_manipulation_targetAtFixation,jsons/v1_VE250_randls_17_rotated.json,http://54.235.29.9/FacialAge/BNav_EC2/DepthDuration/v2_depth_duration_MTurk/v2_DepthDuration_HTML.html#147,147,2560,1335,2560,1440,8-20-2022,10-11-48,15,depth_duration_stimuli/002444_2014-06-28_20-32-08_260595134347_rgbf000027-resize_0/002444_2014-06-28_20-32-08_260595134347_rgbf000027-resize_0-target.png,250,4.388999999999999,10,3281,249,feet,jsons/v1_VE250_randls_17_rotated.json,511288,1043629,37,Man
15,535559,DepthScenes,duration_manipulation_targetAtFixation,jsons/v1_VE250_randls_17_rotated.json,http://54.235.29.9/FacialAge/BNav_EC2/DepthDuration/v2_depth_duration_MTurk/v2_DepthDuration_HTML.html#147,147,2560,1335,2560,1440,8-20-2022,10-11-48,16,depth_duration_stimuli/000436_2014-06-09_22-25-11_260595134347_rgbf000137-resize_1/000436_2014-06-09_22-25-11_260595134347_rgbf000137-resize_1-target.png,250,4.0705,6,6314,249,feet,jsons/v1_VE250_randls_17_rotated.json,511288,1043629,37,Man
16,535559,DepthScenes,duration_manipulation_targetAtFixation,jsons/v1_VE250_randls_17_rotated.json,http://54.235.29.9/FacialAge/BNav_EC2/DepthDuration/v2_depth_duration_MTurk/v2_DepthDuration_HTML.html#147,147,2560,1335,2560,1440,8-20-2022,10-11-48,17,depth_duration_stimuli/003010_2014-06-15_12-54-35_094959634447_rgbf000112-resize_0/003010_2014-06-15_12-54-35_094959634447_rgbf000112-resize_0-target.png,250,3.1185,8,6349,251,feet,jsons/v1_VE250_randls_17_rotated.json,511288,1043629,37,Man
17,535559,DepthScenes,duration_manipulation_targetAtFixation,jsons/v1_VE250_randls_17_rotated.json,http://54.235.29.9/FacialAge/BNav_EC2/DepthDuration/v2_depth_duration_MTurk/v2_DepthDuration_HTML.html#147,147,2560,1335,2560,1440,8-20-2022,10-11-48,18,depth_duration_stimuli/001810_2014-06-26_20-51-35_260595134347_rgbf000040-resize_3/001810_2014-06-26_20-51-35_260595134347_rgbf000040-resize_3-target.png,250,2.2525,6,8302,251,feet,jsons/v1_VE250_randls_17_rotated.json,511288,1043629,37,Man
18,535559,DepthScenes,duration_manipulation_targetAtFixation,jsons/v1_VE250_randls_17_rotated.json,http://54.235.29.9/FacialAge/BNav_EC2/DepthDuration/v2_depth_duration_MTurk/v2_DepthDuration_HTML.html#147,147,2560,1335,2560,1440,8-20-2022,10-11-48,19,depth_duration_stimuli/001498_2014-06-19_17-45-14_260595134347_rgbf000129-resize_4/001498_2014-06-19_17-45-14_260595134347_rgbf000129-resize-original.jpg,250,1.4075,1,3251,250,feet,jsons/v1_VE250_randls_17_rotated.json,511288,1043629,37,Man
19,535559,DepthScenes,duration_manipulation_targetAtFixation,jsons/v1_VE250_randls_17_rotated.json,http://54.235.29.9/FacialAge/BNav_EC2/DepthDuration/v2_depth_duration_MTurk/v2_DepthDuration_HTML.html#147,147,2560,1335,2560,1440,8-20-2022,10-11-48,20,depth_duration_stimuli/002414_2014-06-28_20-24-58_260595134347_rgbf000067-resize_4/002414_2014-06-28_20-24-58_260595134347_rgbf000067-resize_4-target.png,250,4.363,7,2656,250,feet,jsons/v1_VE250_randls_17_rotated.json,511288,1043629,37,Man
20,535559,DepthScenes,duration_manipulation_targetAtFixation,jsons/v1_VE250_randls_17_rotated.json,http://54.235.29.9/FacialAge/BNav_EC2/DepthDuration/v2_depth_duration_MTurk/v2_DepthDuration_HTML.html#147,147,2560,1335,2560,1440,8-20-2022,10-11-48,21,depth_duration_stimuli/000773_2014-06-08_22-24-54_260595134347_rgbf000093-resize_1/000773_2014-06-08_22-24-54_260595134347_rgbf000093-resize_1-target.png,250,4.973,8,2346,250,feet,jsons/v1_VE250_randls_17_rotated.json,511288,1043629,37,Man
21,535559,DepthScenes,duration_manipulation_targetAtFixation,jsons/v1_VE250_randls_17_rotated.json,http://54.235.29.9/FacialAge/BNav_EC2/DepthDuration/v2_depth_duration_MTurk/v2_DepthDuration_HTML.html#147,147,2560,1335,2560,1440,8-20-2022,10-11-48,22,depth_duration_stimuli/000483_2014-06-09_20-41-45_260595134347_rgbf000116-resize_4/000483_2014-06-09_20-41-45_260595134347_rgbf000116-resize_4-target.png,250,1.337,2,2169,250,feet,jsons/v1_VE250_randls_17_rotated.json,511288,1043629,37,Man
22,535559,DepthScenes,duration_manipulation_targetAtFixation,jsons/v1_VE250_randls_17_rotated.json,http://54.235.29.9/FacialAge/BNav_EC2/DepthDuration/v2_depth_duration_MTurk/v2_DepthDuration_HTML.html#147,147,2560,1335,2560,1440,8-20-2022,10-11-48,23,depth_duration_stimuli/000469_2014-06-09_19-42-10_260595134347_rgbf000081-resize_1/000469_2014-06-09_19-42-10_260595134347_rgbf000081-resize_1-target.png,250,1.652,2,1911,251,feet,jsons/v1_VE250_randls_17_rotated.json,511288,1043629,37,Man
23,535559,DepthScenes,duration_manipulation_targetAtFixation,jsons/v1_VE250_randls_17_rotated.json,http://54.235.29.9/FacialAge/BNav_EC2/DepthDuration/v2_depth_duration_MTurk/v2_DepthDuration_HTML.html#147,147,2560,1335,2560,1440,8-20-2022,10-11-48,24,depth_duration_stimuli/000635_2014-06-08_16-38-42_260595134347_rgbf000106-resize_1/000635_2014-06-08_16-38-42_260595134347_rgbf000106-resize_1-target.png,250,2.074,4,2252,249,feet,jsons/v1_VE250_randls_17_rotated.json,511288,1043629,37,Man
24,535559,DepthScenes,duration_manipulation_targetAtFixation,jsons/v1_VE250_randls_17_rotated.json,http://54.235.29.9/FacialAge/BNav_EC2/DepthDuration/v2_depth_duration_MTurk/v2_DepthDuration_HTML.html#147,147,2560,1335,2560,1440,8-20-2022,10-11-48,25,depth_duration_stimuli/002279_2014-06-28_18-55-32_260595134347_rgbf000040-resize_5/002279_2014-06-28_18-55-32_260595134347_rgbf000040-resize_5-target.png,250,1.5043333333333,1,1935,250,feet,jsons/v1_VE250_randls_17_rotated.json,511288,1043629,37,Man
25,535559,DepthScenes,duration_manipulation_targetAtFixation,jsons/v1_VE250_randls_17_rotated.json,http://54.235.29.9/FacialAge/BNav_EC2/DepthDuration/v2_depth_duration_MTurk/v2_DepthDuration_HTML.html#147,147,2560,1335,2560,1440,8-20-2022,10-11-48,26,depth_duration_stimuli/001447_2014-06-19_17-00-32_260595134347_rgbf000082-resize_5/001447_2014-06-19_17-00-32_260595134347_rgbf000082-resize_5-target.png,250,4.13775,4,2612,249,feet,jsons/v1_VE250_randls_17_rotated.json,511288,1043629,37,Man
26,535559,DepthScenes,duration_manipulation_targetAtFixation,jsons/v1_VE250_randls_17_rotated.json,http://54.235.29.9/FacialAge/BNav_EC2/DepthDuration/v2_depth_duration_MTurk/v2_DepthDuration_HTML.html#147,147,2560,1335,2560,1440,8-20-2022,10-11-48,27,depth_duration_stimuli/000447_2014-06-08_16-15-46_260595134347_rgbf000130-resize_1/000447_2014-06-08_16-15-46_260595134347_rgbf000130-resize_1-target.png,250,4.479,8,3115,251,feet,jsons/v1_VE250_randls_17_rotated.json,511288,1043629,37,Man
27,535559,DepthScenes,duration_manipulation_targetAtFixation,jsons/v1_VE250_randls_17_rotated.json,http://54.235.29.9/FacialAge/BNav_EC2/DepthDuration/v2_depth_duration_MTurk/v2_DepthDuration_HTML.html#147,147,2560,1335,2560,1440,8-20-2022,10-11-48,28,depth_duration_stimuli/002209_2014-06-28_18-36-10_260595134347_rgbf000051-resize_1/002209_2014-06-28_18-36-10_260595134347_rgbf000051-resize_1-target.png,250,2.057,5,2239,250,feet,jsons/v1_VE250_randls_17_rotated.json,511288,1043629,37,Man
28,535559,DepthScenes,duration_manipulation_targetAtFixation,jsons/v1_VE250_randls_17_rotated.json,http://54.235.29.9/FacialAge/BNav_EC2/DepthDuration/v2_depth_duration_MTurk/v2_DepthDuration_HTML.html#147,147,2560,1335,2560,1440,8-20-2022,10-11-48,29,depth_duration_stimuli/002763_2014-06-22_19-13-10_094959634447_rgbf000075-resize_4/002763_2014-06-22_19-13-10_094959634447_rgbf000075-resize_4-target.png,250,1.68375,4,2203,250,feet,jsons/v1_VE250_randls_17_rotated.json,511288,1043629,37,Man
29,535559,DepthScenes,duration_manipulation_targetAtFixation,jsons/v1_VE250_randls_17_rotated.json,http://54.235.29.9/FacialAge/BNav_EC2/DepthDuration/v2_depth_duration_MTurk/v2_DepthDuration_HTML.html#147,147,2560,1335,2560,1440,8-20-2022,10-11-48,30,depth_duration_stimuli/002072_2014-06-24_21-48-06_260595134347_rgbf000115-resize_0/002072_2014-06-24_21-48-06_260595134347_rgbf000115-resize-original.jpg,250,4.702,0,2654,250,feet,jsons/v1_VE250_randls_17_rotated.json,511288,1043629,37,Man
30,535559,DepthScenes,duration_manipulation_targetAtFixation,jsons/v1_VE250_randls_17_rotated.json,http://54.235.29.9/FacialAge/BNav_EC2/DepthDuration/v2_depth_duration_MTurk/v2_DepthDuration_HTML.html#147,147,2560,1335,2560,1440,8-20-2022,10-11-48,31,depth_duration_stimuli/001815_2014-06-26_20-52-55_260595134347_rgbf000020-resize_0/001815_2014-06-26_20-52-55_260595134347_rgbf000020-resize_0-target.png,250,3.3865,10,3009,248,feet,jsons/v1_VE250_randls_17_rotated.json,511288,1043629,37,Man
31,535559,DepthScenes,duration_manipulation_targetAtFixation,jsons/v1_VE250_randls_17_rotated.json,http://54.235.29.9/FacialAge/BNav_EC2/DepthDuration/v2_depth_duration_MTurk/v2_DepthDuration_HTML.html#147,147,2560,1335,2560,1440,8-20-2022,10-11-48,32,depth_duration_stimuli/001808_2014-06-26_20-50-58_260595134347_rgbf000029-resize_1/001808_2014-06-26_20-50-58_260595134347_rgbf000029-resize_1-target.png,250,4.249,10,2512,250,feet,jsons/v1_VE250_randls_17_rotated.json,511288,1043629,37,Man
32,535559,DepthScenes,duration_manipulation_targetAtFixation,jsons/v1_VE250_randls_17_rotated.json,http://54.235.29.9/FacialAge/BNav_EC2/DepthDuration/v2_depth_duration_MTurk/v2_DepthDuration_HTML.html#147,147,2560,1335,2560,1440,8-20-2022,10-11-48,33,depth_duration_stimuli/001392_2014-06-19_16-07-59_260595134347_rgbf000046-resize_1/001392_2014-06-19_16-07-59_260595134347_rgbf000046-resize_1-target.png,250,4.135,12,3132,250,feet,jsons/v1_VE250_randls_17_rotated.json,511288,1043629,37,Man
33,535559,DepthScenes,duration_manipulation_targetAtFixation,jsons/v1_VE250_randls_17_rotated.json,http://54.235.29.9/FacialAge/BNav_EC2/DepthDuration/v2_depth_duration_MTurk/v2_DepthDuration_HTML.html#147,147,2560,1335,2560,1440,8-20-2022,10-11-48,34,depth_duration_stimuli/001570_2014-06-20_17-21-09_260595134347_rgbf000135-resize_4/001570_2014-06-20_17-21-09_260595134347_rgbf000135-resize_4-target.png,250,4.467,10,2301,249,feet,jsons/v1_VE250_randls_17_rotated.json,511288,1043629,37,Man
34,535559,DepthScenes,duration_manipulation_targetAtFixation,jsons/v1_VE250_randls_17_rotated.json,http://54.235.29.9/FacialAge/BNav_EC2/DepthDuration/v2_depth_duration_MTurk/v2_DepthDuration_HTML.html#147,147,2560,1335,2560,1440,8-20-2022,10-11-48,35,depth_duration_stimuli/000457_2014-06-08_16-52-43_260595134347_rgbf000199-resize_1/000457_2014-06-08_16-52-43_260595134347_rgbf000199-resize_1-target.png,250,3.6489999999999996,6,2136,250,feet,jsons/v1_VE250_randls_17_rotated.json,511288,1043629,37,Man
35,535559,DepthScenes,duration_manipulation_targetAtFixation,jsons/v1_VE250_randls_17_rotated.json,http://54.235.29.9/FacialAge/BNav_EC2/DepthDuration/v2_depth_duration_MTurk/v2_DepthDuration_HTML.html#147,147,2560,1335,2560,1440,8-20-2022,10-11-48,36,depth_duration_stimuli/000929_2014-06-09_16-33-19_260595134347_rgbf000139-resize_0/000929_2014-06-09_16-33-19_260595134347_rgbf000139-resize_0-target.png,250,2.8680000000000003,7,2465,249,feet,jsons/v1_VE250_randls_17_rotated.json,511288,1043629,37,Man
36,535559,DepthScenes,duration_manipulation_targetAtFixation,jsons/v1_VE250_randls_17_rotated.json,http://54.235.29.9/FacialAge/BNav_EC2/DepthDuration/v2_depth_duration_MTurk/v2_DepthDuration_HTML.html#147,147,2560,1335,2560,1440,8-20-2022,10-11-48,37,depth_duration_stimuli/002467_2014-06-28_20-38-07_260595134347_rgbf000026-resize_2/002467_2014-06-28_20-38-07_260595134347_rgbf000026-resize_2-target.png,250,4.742,10,2844,250,feet,jsons/v1_VE250_randls_17_rotated.json,511288,1043629,37,Man
37,535559,DepthScenes,duration_manipulation_targetAtFixation,jsons/v1_VE250_randls_17_rotated.json,http://54.235.29.9/FacialAge/BNav_EC2/DepthDuration/v2_depth_duration_MTurk/v2_DepthDuration_HTML.html#147,147,2560,1335,2560,1440,8-20-2022,10-11-48,38,depth_duration_stimuli/002570_2014-06-24_13-59-54_094959634447_rgbf000059-resize_0/002570_2014-06-24_13-59-54_094959634447_rgbf000059-resize_0-target.png,250,4.037,6,2118,248,feet,jsons/v1_VE250_randls_17_rotated.json,511288,1043629,37,Man
38,535559,DepthScenes,duration_manipulation_targetAtFixation,jsons/v1_VE250_randls_17_rotated.json,http://54.235.29.9/FacialAge/BNav_EC2/DepthDuration/v2_depth_duration_MTurk/v2_DepthDuration_HTML.html#147,147,2560,1335,2560,1440,8-20-2022,10-11-48,39,depth_duration_stimuli/003495_2014-05-21_16-01-51_094959634447_rgbf000100-resize_3/003495_2014-05-21_16-01-51_094959634447_rgbf000100-resize_3-target.png,250,1.6255,4,2120,250,feet,jsons/v1_VE250_randls_17_rotated.json,511288,1043629,37,Man
39,535559,DepthScenes,duration_manipulation_targetAtFixation,jsons/v1_VE250_randls_17_rotated.json,http://54.235.29.9/FacialAge/BNav_EC2/DepthDuration/v2_depth_duration_MTurk/v2_DepthDuration_HTML.html#147,147,2560,1335,2560,1440,8-20-2022,10-11-48,40,depth_duration_stimuli/001244_2014-06-17_16-47-45_260595134347_rgbf000030-resize_4/001244_2014-06-17_16-47-45_260595134347_rgbf000030-resize_4-target.png,250,2.0425,4,2907,250,feet,jsons/v1_VE250_randls_17_rotated.json,511288,1043629,37,Man
40,535559,DepthScenes,duration_manipulation_targetAtFixation,jsons/v1_VE250_randls_17_rotated.json,http://54.235.29.9/FacialAge/BNav_EC2/DepthDuration/v2_depth_duration_MTurk/v2_DepthDuration_HTML.html#147,147,2560,1335,2560,1440,8-20-2022,10-11-48,41,depth_duration_stimuli/002425_2014-06-28_20-27-29_260595134347_rgbf000031-resize_8/002425_2014-06-28_20-27-29_260595134347_rgbf000031-resize_8-target.png,250,3.8960000000000004,8,2552,249,feet,jsons/v1_VE250_randls_17_rotated.json,511288,1043629,37,Man
41,535559,DepthScenes,duration_manipulation_targetAtFixation,jsons/v1_VE250_randls_17_rotated.json,http://54.235.29.9/FacialAge/BNav_EC2/DepthDuration/v2_depth_duration_MTurk/v2_DepthDuration_HTML.html#147,147,2560,1335,2560,1440,8-20-2022,10-11-48,42,depth_duration_stimuli/000642_2014-06-08_16-59-25_260595134347_rgbf000098-resize_2/000642_2014-06-08_16-59-25_260595134347_rgbf000098-resize_2-target.png,250,2.8815,6,2081,249,feet,jsons/v1_VE250_randls_17_rotated.json,511288,1043629,37,Man
42,535559,DepthScenes,duration_manipulation_targetAtFixation,jsons/v1_VE250_randls_17_rotated.json,http://54.235.29.9/FacialAge/BNav_EC2/DepthDuration/v2_depth_duration_MTurk/v2_DepthDuration_HTML.html#147,147,2560,1335,2560,1440,8-20-2022,10-11-48,43,depth_duration_stimuli/001094_2014-06-15_17-36-00_260595134347_rgbf000205-resize_0/001094_2014-06-15_17-36-00_260595134347_rgbf000205-resize_0-target.png,250,4.2175,8,2694,249,feet,jsons/v1_VE250_randls_17_rotated.json,511288,1043629,37,Man
43,535559,DepthScenes,duration_manipulation_targetAtFixation,jsons/v1_VE250_randls_17_rotated.json,http://54.235.29.9/FacialAge/BNav_EC2/DepthDuration/v2_depth_duration_MTurk/v2_DepthDuration_HTML.html#147,147,2560,1335,2560,1440,8-20-2022,10-11-48,44,depth_duration_stimuli/000692_2014-06-08_13-09-42_260595134347_rgbf000199-resize_2/000692_2014-06-08_13-09-42_260595134347_rgbf000199-resize_2-target.png,250,3.661,10,2332,249,feet,jsons/v1_VE250_randls_17_rotated.json,511288,1043629,37,Man
44,535559,DepthScenes,duration_manipulation_targetAtFixation,jsons/v1_VE250_randls_17_rotated.json,http://54.235.29.9/FacialAge/BNav_EC2/DepthDuration/v2_depth_duration_MTurk/v2_DepthDuration_HTML.html#147,147,2560,1335,2560,1440,8-20-2022,10-11-48,45,depth_duration_stimuli/000137_2014-05-20_17-04-49_260595134347_rgbf000120-resize_1/000137_2014-05-20_17-04-49_260595134347_rgbf000120-resize_1-target.png,250,3.786,7,2588,250,feet,jsons/v1_VE250_randls_17_rotated.json,511288,1043629,37,Man
45,535559,DepthScenes,duration_manipulation_targetAtFixation,jsons/v1_VE250_randls_17_rotated.json,http://54.235.29.9/FacialAge/BNav_EC2/DepthDuration/v2_depth_duration_MTurk/v2_DepthDuration_HTML.html#147,147,2560,1335,2560,1440,8-20-2022,10-11-48,46,depth_duration_stimuli/000736_2014-06-08_18-24-15_260595134347_rgbf000206-resize_3/000736_2014-06-08_18-24-15_260595134347_rgbf000206-resize_3-target.png,250,3.515,7,2120,249,feet,jsons/v1_VE250_randls_17_rotated.json,511288,1043629,37,Man
46,535559,DepthScenes,duration_manipulation_targetAtFixation,jsons/v1_VE250_randls_17_rotated.json,http://54.235.29.9/FacialAge/BNav_EC2/DepthDuration/v2_depth_duration_MTurk/v2_DepthDuration_HTML.html#147,147,2560,1335,2560,1440,8-20-2022,10-11-48,47,depth_duration_stimuli/003338_2014-05-20_11-01-23_094959634447_rgbf000051-resize_6/003338_2014-05-20_11-01-23_094959634447_rgbf000051-resize_6-target.png,250,1.693,3,4533,249,feet,jsons/v1_VE250_randls_17_rotated.json,511288,1043629,37,Man
47,535559,DepthScenes,duration_manipulation_targetAtFixation,jsons/v1_VE250_randls_17_rotated.json,http://54.235.29.9/FacialAge/BNav_EC2/DepthDuration/v2_depth_duration_MTurk/v2_DepthDuration_HTML.html#147,147,2560,1335,2560,1440,8-20-2022,10-11-48,48,depth_duration_stimuli/002509_2014-06-24_13-19-22_094959634447_rgbf000077-resize_0/002509_2014-06-24_13-19-22_094959634447_rgbf000077-resize_0-target.png,250,1.3065,3,4982,250,feet,jsons/v1_VE250_randls_17_rotated.json,511288,1043629,37,Man
48,535559,DepthScenes,duration_manipulation_targetAtFixation,jsons/v1_VE250_randls_17_rotated.json,http://54.235.29.9/FacialAge/BNav_EC2/DepthDuration/v2_depth_duration_MTurk/v2_DepthDuration_HTML.html#147,147,2560,1335,2560,1440,8-20-2022,10-11-48,49,depth_duration_stimuli/001170_2014-06-17_15-43-44_260595134347_rgbf000096-resize_6/001170_2014-06-17_15-43-44_260595134347_rgbf000096-resize-original.jpg,250,1.1909999999999998,0,3243,215,feet,jsons/v1_VE250_randls_17_rotated.json,511288,1043629,37,Man
49,535559,DepthScenes,duration_manipulation_targetAtFixation,jsons/v1_VE250_randls_17_rotated.json,http://54.235.29.9/FacialAge/BNav_EC2/DepthDuration/v2_depth_duration_MTurk/v2_DepthDuration_HTML.html#147,147,2560,1335,2560,1440,8-20-2022,10-11-48,50,depth_duration_stimuli/001828_2014-06-26_21-40-03_260595134347_rgbf000024-resize_0/001828_2014-06-26_21-40-03_260595134347_rgbf000024-resize_0-target.png,250,4.8260000000000005,8,2327,250,feet,jsons/v1_VE250_randls_17_rotated.json,511288,1043629,37,Man
50,535559,DepthScenes,duration_manipulation_targetAtFixation,jsons/v1_VE250_randls_17_rotated.json,http://54.235.29.9/FacialAge/BNav_EC2/DepthDuration/v2_depth_duration_MTurk/v2_DepthDuration_HTML.html#147,147,2560,1335,2560,1440,8-20-2022,10-11-48,51,depth_duration_stimuli/000009_2014-05-26_14-32-05_260595134347_rgbf000034-resize_3/000009_2014-05-26_14-32-05_260595134347_rgbf000034-resize_3-target.png,250,3.8715,10,2890,250,feet,jsons/v1_VE250_randls_17_rotated.json,511288,1043629,37,Man
51,535559,DepthScenes,duration_manipulation_targetAtFixation,jsons/v1_VE250_randls_17_rotated.json,http://54.235.29.9/FacialAge/BNav_EC2/DepthDuration/v2_depth_duration_MTurk/v2_DepthDuration_HTML.html#147,147,2560,1335,2560,1440,8-20-2022,10-11-48,52,depth_duration_stimuli/000103_2014-05-14_22-01-17_260595134347_rgbf000152-resize_5/000103_2014-05-14_22-01-17_260595134347_rgbf000152-resize_5-target.png,250,1.993,6,2129,249,feet,jsons/v1_VE250_randls_17_rotated.json,511288,1043629,37,Man
52,535559,DepthScenes,duration_manipulation_targetAtFixation,jsons/v1_VE250_randls_17_rotated.json,http://54.235.29.9/FacialAge/BNav_EC2/DepthDuration/v2_depth_duration_MTurk/v2_DepthDuration_HTML.html#147,147,2560,1335,2560,1440,8-20-2022,10-11-48,53,depth_duration_stimuli/001555_2014-06-20_17-12-10_260595134347_rgbf000065-resize_4/001555_2014-06-20_17-12-10_260595134347_rgbf000065-resize_4-target.png,250,1.633,2,5074,250,feet,jsons/v1_VE250_randls_17_rotated.json,511288,1043629,37,Man
53,535559,DepthScenes,duration_manipulation_targetAtFixation,jsons/v1_VE250_randls_17_rotated.json,http://54.235.29.9/FacialAge/BNav_EC2/DepthDuration/v2_depth_duration_MTurk/v2_DepthDuration_HTML.html#147,147,2560,1335,2560,1440,8-20-2022,10-11-48,54,depth_duration_stimuli/002953_2014-06-08_17-32-18_094959634447_rgbf000059-resize_5/002953_2014-06-08_17-32-18_094959634447_rgbf000059-resize_5-target.png,250,1.551,3,2559,250,feet,jsons/v1_VE250_randls_17_rotated.json,511288,1043629,37,Man
54,535559,DepthScenes,duration_manipulation_targetAtFixation,jsons/v1_VE250_randls_17_rotated.json,http://54.235.29.9/FacialAge/BNav_EC2/DepthDuration/v2_depth_duration_MTurk/v2_DepthDuration_HTML.html#147,147,2560,1335,2560,1440,8-20-2022,10-11-48,55,depth_duration_stimuli/000878_2014-06-08_22-52-45_260595134347_rgbf000045-resize_2/000878_2014-06-08_22-52-45_260595134347_rgbf000045-resize_2-target.png,250,2.092,5,3785,249,feet,jsons/v1_VE250_randls_17_rotated.json,511288,1043629,37,Man
55,535559,DepthScenes,duration_manipulation_targetAtFixation,jsons/v1_VE250_randls_17_rotated.json,http://54.235.29.9/FacialAge/BNav_EC2/DepthDuration/v2_depth_duration_MTurk/v2_DepthDuration_HTML.html#147,147,2560,1335,2560,1440,8-20-2022,10-11-48,56,depth_duration_stimuli/001214_2014-06-17_16-13-55_260595134347_rgbf000111-resize_0/001214_2014-06-17_16-13-55_260595134347_rgbf000111-resize_0-target.png,250,2.6505,6,2050,251,feet,jsons/v1_VE250_randls_17_rotated.json,511288,1043629,37,Man
56,535559,DepthScenes,duration_manipulation_targetAtFixation,jsons/v1_VE250_randls_17_rotated.json,http://54.235.29.9/FacialAge/BNav_EC2/DepthDuration/v2_depth_duration_MTurk/v2_DepthDuration_HTML.html#147,147,2560,1335,2560,1440,8-20-2022,10-11-48,57,depth_duration_stimuli/000810_2014-06-08_17-20-01_260595134347_rgbf000105-resize_0/000810_2014-06-08_17-20-01_260595134347_rgbf000105-resize_0-target.png,250,1.4865,4,2152,250,feet,jsons/v1_VE250_randls_17_rotated.json,511288,1043629,37,Man
57,535559,DepthScenes,duration_manipulation_targetAtFixation,jsons/v1_VE250_randls_17_rotated.json,http://54.235.29.9/FacialAge/BNav_EC2/DepthDuration/v2_depth_duration_MTurk/v2_DepthDuration_HTML.html#147,147,2560,1335,2560,1440,8-20-2022,10-11-48,58,depth_duration_stimuli/002639_2014-06-24_14-51-37_094959634447_rgbf000074-resize_4/002639_2014-06-24_14-51-37_094959634447_rgbf000074-resize_4-target.png,250,4.0375,8,2416,250,feet,jsons/v1_VE250_randls_17_rotated.json,511288,1043629,37,Man
58,535559,DepthScenes,duration_manipulation_targetAtFixation,jsons/v1_VE250_randls_17_rotated.json,http://54.235.29.9/FacialAge/BNav_EC2/DepthDuration/v2_depth_duration_MTurk/v2_DepthDuration_HTML.html#147,147,2560,1335,2560,1440,8-20-2022,10-11-48,59,depth_duration_stimuli/003292_2014-05-14_21-53-49_094959634447_rgbf000100-resize_2/003292_2014-05-14_21-53-49_094959634447_rgbf000100-resize_2-target.png,250,3.4815,7,2531,250,feet,jsons/v1_VE250_randls_17_rotated.json,511288,1043629,37,Man
59,535559,DepthScenes,duration_manipulation_targetAtFixation,jsons/v1_VE250_randls_17_rotated.json,http://54.235.29.9/FacialAge/BNav_EC2/DepthDuration/v2_depth_duration_MTurk/v2_DepthDuration_HTML.html#147,147,2560,1335,2560,1440,8-20-2022,10-11-48,60,depth_duration_stimuli/003490_2014-05-21_15-50-11_094959634447_rgbf000101-resize_3/003490_2014-05-21_15-50-11_094959634447_rgbf000101-resize_3-target.png,250,3.6445,8,2450,250,feet,jsons/v1_VE250_randls_17_rotated.json,511288,1043629,37,Man
60,535559,DepthScenes,duration_manipulation_targetAtFixation,jsons/v1_VE250_randls_17_rotated.json,http://54.235.29.9/FacialAge/BNav_EC2/DepthDuration/v2_depth_duration_MTurk/v2_DepthDuration_HTML.html#147,147,2560,1335,2560,1440,8-20-2022,10-11-48,61,depth_duration_stimuli/001175_2014-06-17_15-45-55_260595134347_rgbf000129-resize_4/001175_2014-06-17_15-45-55_260595134347_rgbf000129-resize_4-target.png,250,4.255,12,4108,251,feet,jsons/v1_VE250_randls_17_rotated.json,511288,1043629,37,Man
61,535559,DepthScenes,duration_manipulation_targetAtFixation,jsons/v1_VE250_randls_17_rotated.json,http://54.235.29.9/FacialAge/BNav_EC2/DepthDuration/v2_depth_duration_MTurk/v2_DepthDuration_HTML.html#147,147,2560,1335,2560,1440,8-20-2022,10-11-48,62,depth_duration_stimuli/001571_2014-06-20_17-21-32_260595134347_rgbf000089-resize_1/001571_2014-06-20_17-21-32_260595134347_rgbf000089-resize_1-target.png,250,1.86,3,2515,250,feet,jsons/v1_VE250_randls_17_rotated.json,511288,1043629,37,Man
62,535559,DepthScenes,duration_manipulation_targetAtFixation,jsons/v1_VE250_randls_17_rotated.json,http://54.235.29.9/FacialAge/BNav_EC2/DepthDuration/v2_depth_duration_MTurk/v2_DepthDuration_HTML.html#147,147,2560,1335,2560,1440,8-20-2022,10-11-48,63,depth_duration_stimuli/002272_2014-06-28_18-53-56_260595134347_rgbf000067-resize_2/002272_2014-06-28_18-53-56_260595134347_rgbf000067-resize_2-target.png,250,1.138,2,2249,251,feet,jsons/v1_VE250_randls_17_rotated.json,511288,1043629,37,Man
63,535559,DepthScenes,duration_manipulation_targetAtFixation,jsons/v1_VE250_randls_17_rotated.json,http://54.235.29.9/FacialAge/BNav_EC2/DepthDuration/v2_depth_duration_MTurk/v2_DepthDuration_HTML.html#147,147,2560,1335,2560,1440,8-20-2022,10-11-48,64,depth_duration_stimuli/003129_2014-05-12_10-48-10_094959634447_rgbf000100-resize_0/003129_2014-05-12_10-48-10_094959634447_rgbf000100-resize_0-target.png,250,4.9305,10,2755,250,feet,jsons/v1_VE250_randls_17_rotated.json,511288,1043629,37,Man
64,535559,DepthScenes,duration_manipulation_targetAtFixation,jsons/v1_VE250_randls_17_rotated.json,http://54.235.29.9/FacialAge/BNav_EC2/DepthDuration/v2_depth_duration_MTurk/v2_DepthDuration_HTML.html#147,147,2560,1335,2560,1440,8-20-2022,10-11-48,65,depth_duration_stimuli/000414_2014-06-04_19-49-13_260595134347_rgbf000044-resize_0/000414_2014-06-04_19-49-13_260595134347_rgbf000044-resize_0-target.png,250,4.329,12,1886,250,feet,jsons/v1_VE250_randls_17_rotated.json,511288,1043629,37,Man
65,535559,DepthScenes,duration_manipulation_targetAtFixation,jsons/v1_VE250_randls_17_rotated.json,http://54.235.29.9/FacialAge/BNav_EC2/DepthDuration/v2_depth_duration_MTurk/v2_DepthDuration_HTML.html#147,147,2560,1335,2560,1440,8-20-2022,10-11-48,66,depth_duration_stimuli/001540_2014-06-20_17-01-05_260595134347_rgbf000086-resize_2/001540_2014-06-20_17-01-05_260595134347_rgbf000086-resize-original.jpg,250,1.459,0,2262,250,feet,jsons/v1_VE250_randls_17_rotated.json,511288,1043629,37,Man
66,535559,DepthScenes,duration_manipulation_targetAtFixation,jsons/v1_VE250_randls_17_rotated.json,http://54.235.29.9/FacialAge/BNav_EC2/DepthDuration/v2_depth_duration_MTurk/v2_DepthDuration_HTML.html#147,147,2560,1335,2560,1440,8-20-2022,10-11-48,67,depth_duration_stimuli/000927_2014-06-09_16-32-30_260595134347_rgbf000123-resize_3/000927_2014-06-09_16-32-30_260595134347_rgbf000123-resize_3-target.png,250,2.6785,7,4106,251,feet,jsons/v1_VE250_randls_17_rotated.json,511288,1043629,37,Man
67,535559,DepthScenes,duration_manipulation_targetAtFixation,jsons/v1_VE250_randls_17_rotated.json,http://54.235.29.9/FacialAge/BNav_EC2/DepthDuration/v2_depth_duration_MTurk/v2_DepthDuration_HTML.html#147,147,2560,1335,2560,1440,8-20-2022,10-11-48,68,depth_duration_stimuli/001110_2014-06-15_17-25-28_260595134347_rgbf000150-resize_1/001110_2014-06-15_17-25-28_260595134347_rgbf000150-resize_1-target.png,250,1.7115,4,2271,251,feet,jsons/v1_VE250_randls_17_rotated.json,511288,1043629,37,Man
68,535559,DepthScenes,duration_manipulation_targetAtFixation,jsons/v1_VE250_randls_17_rotated.json,http://54.235.29.9/FacialAge/BNav_EC2/DepthDuration/v2_depth_duration_MTurk/v2_DepthDuration_HTML.html#147,147,2560,1335,2560,1440,8-20-2022,10-11-48,69,depth_duration_stimuli/002344_2014-06-28_20-06-29_260595134347_rgbf000030-resize_1/002344_2014-06-28_20-06-29_260595134347_rgbf000030-resize_1-target.png,250,1.5795,3,1822,249,feet,jsons/v1_VE250_randls_17_rotated.json,511288,1043629,37,Man
69,535559,DepthScenes,duration_manipulation_targetAtFixation,jsons/v1_VE250_randls_17_rotated.json,http://54.235.29.9/FacialAge/BNav_EC2/DepthDuration/v2_depth_duration_MTurk/v2_DepthDuration_HTML.html#147,147,2560,1335,2560,1440,8-20-2022,10-11-48,70,depth_duration_stimuli/002725_2014-06-22_11-47-51_094959634447_rgbf000070-resize_1/002725_2014-06-22_11-47-51_094959634447_rgbf000070-resize_1-target.png,250,2.195,5,2166,249,feet,jsons/v1_VE250_randls_17_rotated.json,511288,1043629,37,Man
70,535559,DepthScenes,duration_manipulation_targetAtFixation,jsons/v1_VE250_randls_17_rotated.json,http://54.235.29.9/FacialAge/BNav_EC2/DepthDuration/v2_depth_duration_MTurk/v2_DepthDuration_HTML.html#147,147,2560,1335,2560,1440,8-20-2022,10-11-48,71,depth_duration_stimuli/002758_2014-06-22_19-11-20_094959634447_rgbf000128-resize_1/002758_2014-06-22_19-11-20_094959634447_rgbf000128-resize_1-target.png,250,2.555,4,2110,249,feet,jsons/v1_VE250_randls_17_rotated.json,511288,1043629,37,Man
71,535559,DepthScenes,duration_manipulation_targetAtFixation,jsons/v1_VE250_randls_17_rotated.json,http://54.235.29.9/FacialAge/BNav_EC2/DepthDuration/v2_depth_duration_MTurk/v2_DepthDuration_HTML.html#147,147,2560,1335,2560,1440,8-20-2022,10-11-48,72,depth_duration_stimuli/002630_2014-06-24_14-47-50_094959634447_rgbf000055-resize_1/002630_2014-06-24_14-47-50_094959634447_rgbf000055-resize_1-target.png,250,3.0095,7,2206,249,feet,jsons/v1_VE250_randls_17_rotated.json,511288,1043629,37,Man
72,535559,DepthScenes,duration_manipulation_targetAtFixation,jsons/v1_VE250_randls_17_rotated.json,http://54.235.29.9/FacialAge/BNav_EC2/DepthDuration/v2_depth_duration_MTurk/v2_DepthDuration_HTML.html#147,147,2560,1335,2560,1440,8-20-2022,10-11-48,73,depth_duration_stimuli/002340_2014-06-28_20-05-46_260595134347_rgbf000113-resize_0/002340_2014-06-28_20-05-46_260595134347_rgbf000113-resize_0-target.png,250,2.4735,9,2751,249,feet,jsons/v1_VE250_randls_17_rotated.json,511288,1043629,37,Man
73,535559,DepthScenes,duration_manipulation_targetAtFixation,jsons/v1_VE250_randls_17_rotated.json,http://54.235.29.9/FacialAge/BNav_EC2/DepthDuration/v2_depth_duration_MTurk/v2_DepthDuration_HTML.html#147,147,2560,1335,2560,1440,8-20-2022,10-11-48,74,depth_duration_stimuli/001016_2014-06-09_16-16-10_260595134347_rgbf000112-resize_5/001016_2014-06-09_16-16-10_260595134347_rgbf000112-resize_5-target.png,250,1.6565,4,2614,251,feet,jsons/v1_VE250_randls_17_rotated.json,511288,1043629,37,Man
74,535559,DepthScenes,duration_manipulation_targetAtFixation,jsons/v1_VE250_randls_17_rotated.json,http://54.235.29.9/FacialAge/BNav_EC2/DepthDuration/v2_depth_duration_MTurk/v2_DepthDuration_HTML.html#147,147,2560,1335,2560,1440,8-20-2022,10-11-48,75,depth_duration_stimuli/001450_2014-06-19_17-02-03_260595134347_rgbf000203-resize_4/001450_2014-06-19_17-02-03_260595134347_rgbf000203-resize_4-target.png,250,4.0106666666667,7,2251,250,feet,jsons/v1_VE250_randls_17_rotated.json,511288,1043629,37,Man
75,535559,DepthScenes,duration_manipulation_targetAtFixation,jsons/v1_VE250_randls_17_rotated.json,http://54.235.29.9/FacialAge/BNav_EC2/DepthDuration/v2_depth_duration_MTurk/v2_DepthDuration_HTML.html#147,147,2560,1335,2560,1440,8-20-2022,10-11-48,76,depth_duration_stimuli/001449_2014-06-19_17-01-27_260595134347_rgbf000116-resize_2/001449_2014-06-19_17-01-27_260595134347_rgbf000116-resize_2-target.png,250,3.452,6,2062,249,feet,jsons/v1_VE250_randls_17_rotated.json,511288,1043629,37,Man
76,535559,DepthScenes,duration_manipulation_targetAtFixation,jsons/v1_VE250_randls_17_rotated.json,http://54.235.29.9/FacialAge/BNav_EC2/DepthDuration/v2_depth_duration_MTurk/v2_DepthDuration_HTML.html#147,147,2560,1335,2560,1440,8-20-2022,10-11-48,77,depth_duration_stimuli/002323_2014-06-28_20-01-54_260595134347_rgbf000051-resize_4/002323_2014-06-28_20-01-54_260595134347_rgbf000051-resize_4-target.png,250,3.7310000000000003,8,2431,249,feet,jsons/v1_VE250_randls_17_rotated.json,511288,1043629,37,Man
77,535559,DepthScenes,duration_manipulation_targetAtFixation,jsons/v1_VE250_randls_17_rotated.json,http://54.235.29.9/FacialAge/BNav_EC2/DepthDuration/v2_depth_duration_MTurk/v2_DepthDuration_HTML.html#147,147,2560,1335,2560,1440,8-20-2022,10-11-48,78,depth_duration_stimuli/000917_2014-06-09_22-45-29_260595134347_rgbf000149-resize_3/000917_2014-06-09_22-45-29_260595134347_rgbf000149-resize_3-target.png,250,4.1865,8,2587,251,feet,jsons/v1_VE250_randls_17_rotated.json,511288,1043629,37,Man
78,535559,DepthScenes,duration_manipulation_targetAtFixation,jsons/v1_VE250_randls_17_rotated.json,http://54.235.29.9/FacialAge/BNav_EC2/DepthDuration/v2_depth_duration_MTurk/v2_DepthDuration_HTML.html#147,147,2560,1335,2560,1440,8-20-2022,10-11-48,79,depth_duration_stimuli/000749_2014-06-08_21-55-06_260595134347_rgbf000070-resize_2/000749_2014-06-08_21-55-06_260595134347_rgbf000070-resize_2-target.png,250,2.331,6,2180,250,feet,jsons/v1_VE250_randls_17_rotated.json,511288,1043629,37,Man
79,535559,DepthScenes,duration_manipulation_targetAtFixation,jsons/v1_VE250_randls_17_rotated.json,http://54.235.29.9/FacialAge/BNav_EC2/DepthDuration/v2_depth_duration_MTurk/v2_DepthDuration_HTML.html#147,147,2560,1335,2560,1440,8-20-2022,10-11-48,80,depth_duration_stimuli/002788_2014-06-22_19-36-03_094959634447_rgbf000088-resize_2/002788_2014-06-22_19-36-03_094959634447_rgbf000088-resize_2-target.png,250,1.6465,7,2140,251,feet,jsons/v1_VE250_randls_17_rotated.json,511288,1043629,37,Man
80,535559,DepthScenes,duration_manipulation_targetAtFixation,jsons/v1_VE250_randls_17_rotated.json,http://54.235.29.9/FacialAge/BNav_EC2/DepthDuration/v2_depth_duration_MTurk/v2_DepthDuration_HTML.html#147,147,2560,1335,2560,1440,8-20-2022,10-11-48,81,depth_duration_stimuli/002678_2014-06-13_16-15-32_094959634447_rgbf000151-resize_6/002678_2014-06-13_16-15-32_094959634447_rgbf000151-resize_6-target.png,250,2.1830000000000003,6,1972,249,feet,jsons/v1_VE250_randls_17_rotated.json,511288,1043629,37,Man
81,535559,DepthScenes,duration_manipulation_targetAtFixation,jsons/v1_VE250_randls_17_rotated.json,http://54.235.29.9/FacialAge/BNav_EC2/DepthDuration/v2_depth_duration_MTurk/v2_DepthDuration_HTML.html#147,147,2560,1335,2560,1440,8-20-2022,10-11-48,82,depth_duration_stimuli/000368_2014-06-09_15-53-01_260595134347_rgbf000155-resize_2/000368_2014-06-09_15-53-01_260595134347_rgbf000155-resize_2-target.png,250,2.4859999999999998,5,1978,249,feet,jsons/v1_VE250_randls_17_rotated.json,511288,1043629,37,Man
82,535559,DepthScenes,duration_manipulation_targetAtFixation,jsons/v1_VE250_randls_17_rotated.json,http://54.235.29.9/FacialAge/BNav_EC2/DepthDuration/v2_depth_duration_MTurk/v2_DepthDuration_HTML.html#147,147,2560,1335,2560,1440,8-20-2022,10-11-48,83,depth_duration_stimuli/000742_2014-06-08_18-48-09_260595134347_rgbf000164-resize_4/000742_2014-06-08_18-48-09_260595134347_rgbf000164-resize_4-target.png,250,4.632,7,2079,249,feet,jsons/v1_VE250_randls_17_rotated.json,511288,1043629,37,Man
83,535559,DepthScenes,duration_manipulation_targetAtFixation,jsons/v1_VE250_randls_17_rotated.json,http://54.235.29.9/FacialAge/BNav_EC2/DepthDuration/v2_depth_duration_MTurk/v2_DepthDuration_HTML.html#147,147,2560,1335,2560,1440,8-20-2022,10-11-48,84,depth_duration_stimuli/001066_2014-06-08_22-03-20_260595134347_rgbf000066-resize_4/001066_2014-06-08_22-03-20_260595134347_rgbf000066-resize_4-target.png,250,4.2330000000000005,10,4027,251,feet,jsons/v1_VE250_randls_17_rotated.json,511288,1043629,37,Man
84,535559,DepthScenes,duration_manipulation_targetAtFixation,jsons/v1_VE250_randls_17_rotated.json,http://54.235.29.9/FacialAge/BNav_EC2/DepthDuration/v2_depth_duration_MTurk/v2_DepthDuration_HTML.html#147,147,2560,1335,2560,1440,8-20-2022,10-11-48,85,depth_duration_stimuli/002949_2014-06-26_15-57-42_094959634447_rgbf000079-resize_1/002949_2014-06-26_15-57-42_094959634447_rgbf000079-resize_1-target.png,250,1.8915,3,2410,251,feet,jsons/v1_VE250_randls_17_rotated.json,511288,1043629,37,Man
85,535559,DepthScenes,duration_manipulation_targetAtFixation,jsons/v1_VE250_randls_17_rotated.json,http://54.235.29.9/FacialAge/BNav_EC2/DepthDuration/v2_depth_duration_MTurk/v2_DepthDuration_HTML.html#147,147,2560,1335,2560,1440,8-20-2022,10-11-48,86,depth_duration_stimuli/000522_2014-06-08_13-35-06_260595134347_rgbf000244-resize_1/000522_2014-06-08_13-35-06_260595134347_rgbf000244-resize_1-target.png,250,2.3715,1,1982,249,feet,jsons/v1_VE250_randls_17_rotated.json,511288,1043629,37,Man
86,535559,DepthScenes,duration_manipulation_targetAtFixation,jsons/v1_VE250_randls_17_rotated.json,http://54.235.29.9/FacialAge/BNav_EC2/DepthDuration/v2_depth_duration_MTurk/v2_DepthDuration_HTML.html#147,147,2560,1335,2560,1440,8-20-2022,10-11-48,87,depth_duration_stimuli/000549_2014-06-08_22-10-24_260595134347_rgbf000247-resize_3/000549_2014-06-08_22-10-24_260595134347_rgbf000247-resize_3-target.png,250,1.841,2,1777,249,feet,jsons/v1_VE250_randls_17_rotated.json,511288,1043629,37,Man
87,535559,DepthScenes,duration_manipulation_targetAtFixation,jsons/v1_VE250_randls_17_rotated.json,http://54.235.29.9/FacialAge/BNav_EC2/DepthDuration/v2_depth_duration_MTurk/v2_DepthDuration_HTML.html#147,147,2560,1335,2560,1440,8-20-2022,10-11-48,88,depth_duration_stimuli/001055_2014-06-08_18-45-35_260595134347_rgbf000111-resize_4/001055_2014-06-08_18-45-35_260595134347_rgbf000111-resize_4-target.png,250,2.4290000000000003,9,3050,250,feet,jsons/v1_VE250_randls_17_rotated.json,511288,1043629,37,Man
88,535559,DepthScenes,duration_manipulation_targetAtFixation,jsons/v1_VE250_randls_17_rotated.json,http://54.235.29.9/FacialAge/BNav_EC2/DepthDuration/v2_depth_duration_MTurk/v2_DepthDuration_HTML.html#147,147,2560,1335,2560,1440,8-20-2022,10-11-48,89,depth_duration_stimuli/001650_2014-06-20_12-09-00_260595134347_rgbf000087-resize_3/001650_2014-06-20_12-09-00_260595134347_rgbf000087-resize_3-target.png,250,1.9505,1,2165,250,feet,jsons/v1_VE250_randls_17_rotated.json,511288,1043629,37,Man
89,535559,DepthScenes,duration_manipulation_targetAtFixation,jsons/v1_VE250_randls_17_rotated.json,http://54.235.29.9/FacialAge/BNav_EC2/DepthDuration/v2_depth_duration_MTurk/v2_DepthDuration_HTML.html#147,147,2560,1335,2560,1440,8-20-2022,10-11-48,90,depth_duration_stimuli/000682_2014-06-08_23-14-58_260595134347_rgbf000041-resize_5/000682_2014-06-08_23-14-58_260595134347_rgbf000041-resize_5-target.png,250,2.7239999999999998,5,4019,250,feet,jsons/v1_VE250_randls_17_rotated.json,511288,1043629,37,Man
90,535559,DepthScenes,duration_manipulation_targetAtFixation,jsons/v1_VE250_randls_17_rotated.json,http://54.235.29.9/FacialAge/BNav_EC2/DepthDuration/v2_depth_duration_MTurk/v2_DepthDuration_HTML.html#147,147,2560,1335,2560,1440,8-20-2022,10-11-48,91,depth_duration_stimuli/001100_2014-06-15_17-46-26_260595134347_rgbf000225-resize_2/001100_2014-06-15_17-46-26_260595134347_rgbf000225-resize_2-target.png,250,2.24,3,2145,251,feet,jsons/v1_VE250_randls_17_rotated.json,511288,1043629,37,Man
91,535559,DepthScenes,duration_manipulation_targetAtFixation,jsons/v1_VE250_randls_17_rotated.json,http://54.235.29.9/FacialAge/BNav_EC2/DepthDuration/v2_depth_duration_MTurk/v2_DepthDuration_HTML.html#147,147,2560,1335,2560,1440,8-20-2022,10-11-48,92,depth_duration_stimuli/002784_2014-06-22_19-26-30_094959634447_rgbf000083-resize_3/002784_2014-06-22_19-26-30_094959634447_rgbf000083-resize_3-target.png,250,1.8046666666667,3,2176,248,feet,jsons/v1_VE250_randls_17_rotated.json,511288,1043629,37,Man
92,535559,DepthScenes,duration_manipulation_targetAtFixation,jsons/v1_VE250_randls_17_rotated.json,http://54.235.29.9/FacialAge/BNav_EC2/DepthDuration/v2_depth_duration_MTurk/v2_DepthDuration_HTML.html#147,147,2560,1335,2560,1440,8-20-2022,10-11-48,93,depth_duration_stimuli/002545_2014-06-24_13-38-53_094959634447_rgbf000080-resize_4/002545_2014-06-24_13-38-53_094959634447_rgbf000080-resize_4-target.png,250,1.9205,5,2058,249,feet,jsons/v1_VE250_randls_17_rotated.json,511288,1043629,37,Man
93,535559,DepthScenes,duration_manipulation_targetAtFixation,jsons/v1_VE250_randls_17_rotated.json,http://54.235.29.9/FacialAge/BNav_EC2/DepthDuration/v2_depth_duration_MTurk/v2_DepthDuration_HTML.html#147,147,2560,1335,2560,1440,8-20-2022,10-11-48,94,depth_duration_stimuli/001092_2014-06-15_17-34-58_260595134347_rgbf000171-resize_3/001092_2014-06-15_17-34-58_260595134347_rgbf000171-resize_3-target.png,250,2.6935,6,3254,249,feet,jsons/v1_VE250_randls_17_rotated.json,511288,1043629,37,Man
94,535559,DepthScenes,duration_manipulation_targetAtFixation,jsons/v1_VE250_randls_17_rotated.json,http://54.235.29.9/FacialAge/BNav_EC2/DepthDuration/v2_depth_duration_MTurk/v2_DepthDuration_HTML.html#147,147,2560,1335,2560,1440,8-20-2022,10-11-48,95,depth_duration_stimuli/000854_2014-06-09_19-43-13_260595134347_rgbf000066-resize_0/000854_2014-06-09_19-43-13_260595134347_rgbf000066-resize_0-target.png,250,3.068,4,2553,250,feet,jsons/v1_VE250_randls_17_rotated.json,511288,1043629,37,Man
95,535559,DepthScenes,duration_manipulation_targetAtFixation,jsons/v1_VE250_randls_17_rotated.json,http://54.235.29.9/FacialAge/BNav_EC2/DepthDuration/v2_depth_duration_MTurk/v2_DepthDuration_HTML.html#147,147,2560,1335,2560,1440,8-20-2022,10-11-48,96,depth_duration_stimuli/000758_2014-06-08_22-05-08_260595134347_rgbf000085-resize_0/000758_2014-06-08_22-05-08_260595134347_rgbf000085-resize_0-target.png,250,3.3810000000000002,8,2256,251,feet,jsons/v1_VE250_randls_17_rotated.json,511288,1043629,37,Man
96,535559,DepthScenes,duration_manipulation_targetAtFixation,jsons/v1_VE250_randls_17_rotated.json,http://54.235.29.9/FacialAge/BNav_EC2/DepthDuration/v2_depth_duration_MTurk/v2_DepthDuration_HTML.html#147,147,2560,1335,2560,1440,8-20-2022,10-11-48,97,depth_duration_stimuli/000191_2014-05-12_17-07-38_260595134347_rgbf000199-resize_0/000191_2014-05-12_17-07-38_260595134347_rgbf000199-resize_0-target.png,250,3.7995,10,2858,250,feet,jsons/v1_VE250_randls_17_rotated.json,511288,1043629,37,Man
97,535559,DepthScenes,duration_manipulation_targetAtFixation,jsons/v1_VE250_randls_17_rotated.json,http://54.235.29.9/FacialAge/BNav_EC2/DepthDuration/v2_depth_duration_MTurk/v2_DepthDuration_HTML.html#147,147,2560,1335,2560,1440,8-20-2022,10-11-48,98,depth_duration_stimuli/000493_2014-06-09_21-01-18_260595134347_rgbf000196-resize_3/000493_2014-06-09_21-01-18_260595134347_rgbf000196-resize_3-target.png,250,3.44,7,2113,251,feet,jsons/v1_VE250_randls_17_rotated.json,511288,1043629,37,Man
98,535559,DepthScenes,duration_manipulation_targetAtFixation,jsons/v1_VE250_randls_17_rotated.json,http://54.235.29.9/FacialAge/BNav_EC2/DepthDuration/v2_depth_duration_MTurk/v2_DepthDuration_HTML.html#147,147,2560,1335,2560,1440,8-20-2022,10-11-48,99,depth_duration_stimuli/001222_2014-06-17_16-24-06_260595134347_rgbf000073-resize_0/001222_2014-06-17_16-24-06_260595134347_rgbf000073-resize-original.jpg,250,1.4385,0,2658,249,feet,jsons/v1_VE250_randls_17_rotated.json,511288,1043629,37,Man
99,535559,DepthScenes,duration_manipulation_targetAtFixation,jsons/v1_VE250_randls_17_rotated.json,http://54.235.29.9/FacialAge/BNav_EC2/DepthDuration/v2_depth_duration_MTurk/v2_DepthDuration_HTML.html#147,147,2560,1335,2560,1440,8-20-2022,10-11-48,100,depth_duration_stimuli/002660_2014-06-13_15-44-18_094959634447_rgbf001878-resize_2/002660_2014-06-13_15-44-18_094959634447_rgbf001878-resize_2-target.png,250,3.576,6,2119,249,feet,jsons/v1_VE250_randls_17_rotated.json,511288,1043629,37,Man
100,535559,DepthScenes,duration_manipulation_targetAtFixation,jsons/v1_VE250_randls_17_rotated.json,http://54.235.29.9/FacialAge/BNav_EC2/DepthDuration/v2_depth_duration_MTurk/v2_DepthDuration_HTML.html#147,147,2560,1335,2560,1440,8-20-2022,10-11-48,101,depth_duration_stimuli/002153_2014-06-25_21-27-18_260595134347_rgbf000038-resize_5/002153_2014-06-25_21-27-18_260595134347_rgbf000038-resize_5-target.png,250,2.505,6,1964,249,feet,jsons/v1_VE250_randls_17_rotated.json,511288,1043629,37,Man
101,535559,DepthScenes,duration_manipulation_targetAtFixation,jsons/v1_VE250_randls_17_rotated.json,http://54.235.29.9/FacialAge/BNav_EC2/DepthDuration/v2_depth_duration_MTurk/v2_DepthDuration_HTML.html#147,147,2560,1335,2560,1440,8-20-2022,10-11-48,102,depth_duration_stimuli/000866_2014-06-09_20-45-42_260595134347_rgbf000139-resize_1/000866_2014-06-09_20-45-42_260595134347_rgbf000139-resize_1-target.png,250,3.2155,4,2108,250,feet,jsons/v1_VE250_randls_17_rotated.json,511288,1043629,37,Man
102,535559,DepthScenes,duration_manipulation_targetAtFixation,jsons/v1_VE250_randls_17_rotated.json,http://54.235.29.9/FacialAge/BNav_EC2/DepthDuration/v2_depth_duration_MTurk/v2_DepthDuration_HTML.html#147,147,2560,1335,2560,1440,8-20-2022,10-11-48,103,depth_duration_stimuli/002989_2014-06-15_12-25-03_094959634447_rgbf000150-resize_3/002989_2014-06-15_12-25-03_094959634447_rgbf000150-resize_3-target.png,250,4.1975,10,2422,250,feet,jsons/v1_VE250_randls_17_rotated.json,511288,1043629,37,Man
103,535559,DepthScenes,duration_manipulation_targetAtFixation,jsons/v1_VE250_randls_17_rotated.json,http://54.235.29.9/FacialAge/BNav_EC2/DepthDuration/v2_depth_duration_MTurk/v2_DepthDuration_HTML.html#147,147,2560,1335,2560,1440,8-20-2022,10-11-48,104,depth_duration_stimuli/002136_2014-06-25_21-18-03_260595134347_rgbf000109-resize_3/002136_2014-06-25_21-18-03_260595134347_rgbf000109-resize_3-target.png,250,1.9569999999999999,4,2866,249,feet,jsons/v1_VE250_randls_17_rotated.json,511288,1043629,37,Man
104,535559,DepthScenes,duration_manipulation_targetAtFixation,jsons/v1_VE250_randls_17_rotated.json,http://54.235.29.9/FacialAge/BNav_EC2/DepthDuration/v2_depth_duration_MTurk/v2_DepthDuration_HTML.html#147,147,2560,1335,2560,1440,8-20-2022,10-11-48,105,depth_duration_stimuli/002964_2014-06-08_17-46-11_094959634447_rgbf000091-resize_4/002964_2014-06-08_17-46-11_094959634447_rgbf000091-resize_4-target.png,250,1.6909999999999998,3,2163,249,feet,jsons/v1_VE250_randls_17_rotated.json,511288,1043629,37,Man
105,535559,DepthScenes,duration_manipulation_targetAtFixation,jsons/v1_VE250_randls_17_rotated.json,http://54.235.29.9/FacialAge/BNav_EC2/DepthDuration/v2_depth_duration_MTurk/v2_DepthDuration_HTML.html#147,147,2560,1335,2560,1440,8-20-2022,10-11-48,106,depth_duration_stimuli/001032_2014-06-08_13-23-17_260595134347_rgbf000021-resize_3/001032_2014-06-08_13-23-17_260595134347_rgbf000021-resize_3-target.png,250,3.2725,5,2024,250,feet,jsons/v1_VE250_randls_17_rotated.json,511288,1043629,37,Man
106,535559,DepthScenes,duration_manipulation_targetAtFixation,jsons/v1_VE250_randls_17_rotated.json,http://54.235.29.9/FacialAge/BNav_EC2/DepthDuration/v2_depth_duration_MTurk/v2_DepthDuration_HTML.html#147,147,2560,1335,2560,1440,8-20-2022,10-11-48,107,depth_duration_stimuli/001059_2014-06-08_21-53-27_260595134347_rgbf000061-resize_4/001059_2014-06-08_21-53-27_260595134347_rgbf000061-resize_4-target.png,250,2.4185,6,1927,250,feet,jsons/v1_VE250_randls_17_rotated.json,511288,1043629,37,Man
107,535559,DepthScenes,duration_manipulation_targetAtFixation,jsons/v1_VE250_randls_17_rotated.json,http://54.235.29.9/FacialAge/BNav_EC2/DepthDuration/v2_depth_duration_MTurk/v2_DepthDuration_HTML.html#147,147,2560,1335,2560,1440,8-20-2022,10-11-48,108,depth_duration_stimuli/001052_2014-06-08_18-24-54_260595134347_rgbf000130-resize_1/001052_2014-06-08_18-24-54_260595134347_rgbf000130-resize_1-target.png,250,4.1045,7,2198,249,feet,jsons/v1_VE250_randls_17_rotated.json,511288,1043629,37,Man
108,535559,DepthScenes,duration_manipulation_targetAtFixation,jsons/v1_VE250_randls_17_rotated.json,http://54.235.29.9/FacialAge/BNav_EC2/DepthDuration/v2_depth_duration_MTurk/v2_DepthDuration_HTML.html#147,147,2560,1335,2560,1440,8-20-2022,10-11-48,109,depth_duration_stimuli/002988_2014-06-15_12-24-20_094959634447_rgbf000150-resize_1/002988_2014-06-15_12-24-20_094959634447_rgbf000150-resize_1-target.png,250,4.7669999999999995,10,3210,249,feet,jsons/v1_VE250_randls_17_rotated.json,511288,1043629,37,Man
109,535559,DepthScenes,duration_manipulation_targetAtFixation,jsons/v1_VE250_randls_17_rotated.json,http://54.235.29.9/FacialAge/BNav_EC2/DepthDuration/v2_depth_duration_MTurk/v2_DepthDuration_HTML.html#147,147,2560,1335,2560,1440,8-20-2022,10-11-48,110,depth_duration_stimuli/002637_2014-06-24_14-51-13_094959634447_rgbf000066-resize_4/002637_2014-06-24_14-51-13_094959634447_rgbf000066-resize_4-target.png,250,1.9955,6,2006,250,feet,jsons/v1_VE250_randls_17_rotated.json,511288,1043629,37,Man
110,535559,DepthScenes,duration_manipulation_targetAtFixation,jsons/v1_VE250_randls_17_rotated.json,http://54.235.29.9/FacialAge/BNav_EC2/DepthDuration/v2_depth_duration_MTurk/v2_DepthDuration_HTML.html#147,147,2560,1335,2560,1440,8-20-2022,10-11-48,111,depth_duration_stimuli/003534_2014-05-22_15-06-10_094959634447_rgbf000102-resize_4/003534_2014-05-22_15-06-10_094959634447_rgbf000102-resize_4-target.png,250,1.426,2,3608,249,feet,jsons/v1_VE250_randls_17_rotated.json,511288,1043629,37,Man
111,535559,DepthScenes,duration_manipulation_targetAtFixation,jsons/v1_VE250_randls_17_rotated.json,http://54.235.29.9/FacialAge/BNav_EC2/DepthDuration/v2_depth_duration_MTurk/v2_DepthDuration_HTML.html#147,147,2560,1335,2560,1440,8-20-2022,10-11-48,112,depth_duration_stimuli/000677_2014-06-08_23-10-32_260595134347_rgbf000158-resize_6/000677_2014-06-08_23-10-32_260595134347_rgbf000158-resize_6-target.png,250,3.556,5,2128,249,feet,jsons/v1_VE250_randls_17_rotated.json,511288,1043629,37,Man
112,535559,DepthScenes,duration_manipulation_targetAtFixation,jsons/v1_VE250_randls_17_rotated.json,http://54.235.29.9/FacialAge/BNav_EC2/DepthDuration/v2_depth_duration_MTurk/v2_DepthDuration_HTML.html#147,147,2560,1335,2560,1440,8-20-2022,10-11-48,113,depth_duration_stimuli/001029_2014-06-08_13-17-57_260595134347_rgbf000065-resize_1/001029_2014-06-08_13-17-57_260595134347_rgbf000065-resize_1-target.png,250,3.0835,6,1940,251,feet,jsons/v1_VE250_randls_17_rotated.json,511288,1043629,37,Man
113,535559,DepthScenes,duration_manipulation_targetAtFixation,jsons/v1_VE250_randls_17_rotated.json,http://54.235.29.9/FacialAge/BNav_EC2/DepthDuration/v2_depth_duration_MTurk/v2_DepthDuration_HTML.html#147,147,2560,1335,2560,1440,8-20-2022,10-11-48,114,depth_duration_stimuli/000780_2014-06-08_22-28-29_260595134347_rgbf000126-resize_1/000780_2014-06-08_22-28-29_260595134347_rgbf000126-resize_1-target.png,250,3.3825,8,2122,250,feet,jsons/v1_VE250_randls_17_rotated.json,511288,1043629,37,Man
114,535559,DepthScenes,duration_manipulation_targetAtFixation,jsons/v1_VE250_randls_17_rotated.json,http://54.235.29.9/FacialAge/BNav_EC2/DepthDuration/v2_depth_duration_MTurk/v2_DepthDuration_HTML.html#147,147,2560,1335,2560,1440,8-20-2022,10-11-48,115,depth_duration_stimuli/002445_2014-06-28_20-32-16_260595134347_rgbf000029-resize_4/002445_2014-06-28_20-32-16_260595134347_rgbf000029-resize_4-target.png,250,2.5315,5,2040,250,feet,jsons/v1_VE250_randls_17_rotated.json,511288,1043629,37,Man
115,535559,DepthScenes,duration_manipulation_targetAtFixation,jsons/v1_VE250_randls_17_rotated.json,http://54.235.29.9/FacialAge/BNav_EC2/DepthDuration/v2_depth_duration_MTurk/v2_DepthDuration_HTML.html#147,147,2560,1335,2560,1440,8-20-2022,10-11-48,116,depth_duration_stimuli/003587_2014-05-23_16-48-02_094959634447_rgbf002384-resize_2/003587_2014-05-23_16-48-02_094959634447_rgbf002384-resize_2-target.png,250,1.357,2,2186,250,feet,jsons/v1_VE250_randls_17_rotated.json,511288,1043629,37,Man
116,535559,DepthScenes,duration_manipulation_targetAtFixation,jsons/v1_VE250_randls_17_rotated.json,http://54.235.29.9/FacialAge/BNav_EC2/DepthDuration/v2_depth_duration_MTurk/v2_DepthDuration_HTML.html#147,147,2560,1335,2560,1440,8-20-2022,10-11-48,117,depth_duration_stimuli/001167_2014-06-17_15-38-07_260595134347_rgbf000108-resize_0/001167_2014-06-17_15-38-07_260595134347_rgbf000108-resize_0-target.png,250,1.8505,3,2358,250,feet,jsons/v1_VE250_randls_17_rotated.json,511288,1043629,37,Man
117,535559,DepthScenes,duration_manipulation_targetAtFixation,jsons/v1_VE250_randls_17_rotated.json,http://54.235.29.9/FacialAge/BNav_EC2/DepthDuration/v2_depth_duration_MTurk/v2_DepthDuration_HTML.html#147,147,2560,1335,2560,1440,8-20-2022,10-11-48,118,depth_duration_stimuli/001132_2014-06-17_14-48-54_260595134347_rgbf000100-resize_2/001132_2014-06-17_14-48-54_260595134347_rgbf000100-resize_2-target.png,250,3.753,7,1990,250,feet,jsons/v1_VE250_randls_17_rotated.json,511288,1043629,37,Man
118,535559,DepthScenes,duration_manipulation_targetAtFixation,jsons/v1_VE250_randls_17_rotated.json,http://54.235.29.9/FacialAge/BNav_EC2/DepthDuration/v2_depth_duration_MTurk/v2_DepthDuration_HTML.html#147,147,2560,1335,2560,1440,8-20-2022,10-11-48,119,depth_duration_stimuli/001133_2014-06-17_14-49-16_260595134347_rgbf000100-resize_0/001133_2014-06-17_14-49-16_260595134347_rgbf000100-resize_0-target.png,250,4.2115,9,2633,250,feet,jsons/v1_VE250_randls_17_rotated.json,511288,1043629,37,Man
119,535559,DepthScenes,duration_manipulation_targetAtFixation,jsons/v1_VE250_randls_17_rotated.json,http://54.235.29.9/FacialAge/BNav_EC2/DepthDuration/v2_depth_duration_MTurk/v2_DepthDuration_HTML.html#147,147,2560,1335,2560,1440,8-20-2022,10-11-48,120,depth_duration_stimuli/000787_2014-06-08_22-33-53_260595134347_rgbf000175-resize_1/000787_2014-06-08_22-33-53_260595134347_rgbf000175-resize-original.jpg,250,4.784,0,2734,252,feet,jsons/v1_VE250_randls_17_rotated.json,511288,1043629,37,Man
120,535559,DepthScenes,duration_manipulation_targetAtFixation,jsons/v1_VE250_randls_17_rotated.json,http://54.235.29.9/FacialAge/BNav_EC2/DepthDuration/v2_depth_duration_MTurk/v2_DepthDuration_HTML.html#147,147,2560,1335,2560,1440,8-20-2022,10-11-48,121,depth_duration_stimuli/000109_2014-05-14_23-41-52_260595134347_rgbf000035-resize_9/000109_2014-05-14_23-41-52_260595134347_rgbf000035-resize_9-target.png,250,1.3545,2,2123,251,feet,jsons/v1_VE250_randls_17_rotated.json,511288,1043629,37,Man
121,535559,DepthScenes,duration_manipulation_targetAtFixation,jsons/v1_VE250_randls_17_rotated.json,http://54.235.29.9/FacialAge/BNav_EC2/DepthDuration/v2_depth_duration_MTurk/v2_DepthDuration_HTML.html#147,147,2560,1335,2560,1440,8-20-2022,10-11-48,122,depth_duration_stimuli/000470_2014-06-09_19-42-40_260595134347_rgbf000094-resize_1/000470_2014-06-09_19-42-40_260595134347_rgbf000094-resize_1-target.png,250,1.831,3,2078,249,feet,jsons/v1_VE250_randls_17_rotated.json,511288,1043629,37,Man
122,535559,DepthScenes,duration_manipulation_targetAtFixation,jsons/v1_VE250_randls_17_rotated.json,http://54.235.29.9/FacialAge/BNav_EC2/DepthDuration/v2_depth_duration_MTurk/v2_DepthDuration_HTML.html#147,147,2560,1335,2560,1440,8-20-2022,10-11-48,123,depth_duration_stimuli/000665_2014-06-09_20-42-35_260595134347_rgbf000110-resize_1/000665_2014-06-09_20-42-35_260595134347_rgbf000110-resize_1-target.png,250,3.057,6,1930,250,feet,jsons/v1_VE250_randls_17_rotated.json,511288,1043629,37,Man
123,535559,DepthScenes,duration_manipulation_targetAtFixation,jsons/v1_VE250_randls_17_rotated.json,http://54.235.29.9/FacialAge/BNav_EC2/DepthDuration/v2_depth_duration_MTurk/v2_DepthDuration_HTML.html#147,147,2560,1335,2560,1440,8-20-2022,10-11-48,124,depth_duration_stimuli/001150_2014-06-17_15-27-34_260595134347_rgbf000108-resize_2/001150_2014-06-17_15-27-34_260595134347_rgbf000108-resize_2-target.png,250,4.0325,7,1994,249,feet,jsons/v1_VE250_randls_17_rotated.json,511288,1043629,37,Man
124,535559,DepthScenes,duration_manipulation_targetAtFixation,jsons/v1_VE250_randls_17_rotated.json,http://54.235.29.9/FacialAge/BNav_EC2/DepthDuration/v2_depth_duration_MTurk/v2_DepthDuration_HTML.html#147,147,2560,1335,2560,1440,8-20-2022,10-11-48,125,depth_duration_stimuli/000409_2014-06-04_19-23-33_260595134347_rgbf000067-resize_0/000409_2014-06-04_19-23-33_260595134347_rgbf000067-resize_0-target.png,250,3.7335,9,6512,250,feet,jsons/v1_VE250_randls_17_rotated.json,511288,1043629,37,Man
125,535559,DepthScenes,duration_manipulation_targetAtFixation,jsons/v1_VE250_randls_17_rotated.json,http://54.235.29.9/FacialAge/BNav_EC2/DepthDuration/v2_depth_duration_MTurk/v2_DepthDuration_HTML.html#147,147,2560,1335,2560,1440,8-20-2022,10-11-48,126,depth_duration_stimuli/002663_2014-06-13_15-50-26_094959634447_rgbf000075-resize_1/002663_2014-06-13_15-50-26_094959634447_rgbf000075-resize_1-target.png,250,4.7495,10,2799,249,feet,jsons/v1_VE250_randls_17_rotated.json,511288,1043629,37,Man
126,535559,DepthScenes,duration_manipulation_targetAtFixation,jsons/v1_VE250_randls_17_rotated.json,http://54.235.29.9/FacialAge/BNav_EC2/DepthDuration/v2_depth_duration_MTurk/v2_DepthDuration_HTML.html#147,147,2560,1335,2560,1440,8-20-2022,10-11-48,127,depth_duration_stimuli/002199_2014-06-28_18-33-56_260595134347_rgbf000074-resize_0/002199_2014-06-28_18-33-56_260595134347_rgbf000074-resize_0-target.png,250,1.996,2,2445,250,feet,jsons/v1_VE250_randls_17_rotated.json,511288,1043629,37,Man
127,535559,DepthScenes,duration_manipulation_targetAtFixation,jsons/v1_VE250_randls_17_rotated.json,http://54.235.29.9/FacialAge/BNav_EC2/DepthDuration/v2_depth_duration_MTurk/v2_DepthDuration_HTML.html#147,147,2560,1335,2560,1440,8-20-2022,10-11-48,128,depth_duration_stimuli/001056_2014-06-08_18-46-44_260595134347_rgbf000068-resize_0/001056_2014-06-08_18-46-44_260595134347_rgbf000068-resize_0-target.png,250,2.6625,6,2432,249,feet,jsons/v1_VE250_randls_17_rotated.json,511288,1043629,37,Man
128,535559,DepthScenes,duration_manipulation_targetAtFixation,jsons/v1_VE250_randls_17_rotated.json,http://54.235.29.9/FacialAge/BNav_EC2/DepthDuration/v2_depth_duration_MTurk/v2_DepthDuration_HTML.html#147,147,2560,1335,2560,1440,8-20-2022,10-11-48,129,depth_duration_stimuli/003079_2014-06-15_15-18-20_094959634447_rgbf000152-resize_8/003079_2014-06-15_15-18-20_094959634447_rgbf000152-resize_8-target.png,250,2.8775,9,3079,251,feet,jsons/v1_VE250_randls_17_rotated.json,511288,1043629,37,Man
129,535559,DepthScenes,duration_manipulation_targetAtFixation,jsons/v1_VE250_randls_17_rotated.json,http://54.235.29.9/FacialAge/BNav_EC2/DepthDuration/v2_depth_duration_MTurk/v2_DepthDuration_HTML.html#147,147,2560,1335,2560,1440,8-20-2022,10-11-48,130,depth_duration_stimuli/000506_2014-06-08_23-21-00_260595134347_rgbf000070-resize_7/000506_2014-06-08_23-21-00_260595134347_rgbf000070-resize_7-target.png,250,4.0585,9,2720,249,feet,jsons/v1_VE250_randls_17_rotated.json,511288,1043629,37,Man
130,535559,DepthScenes,duration_manipulation_targetAtFixation,jsons/v1_VE250_randls_17_rotated.json,http://54.235.29.9/FacialAge/BNav_EC2/DepthDuration/v2_depth_duration_MTurk/v2_DepthDuration_HTML.html#147,147,2560,1335,2560,1440,8-20-2022,10-11-48,131,depth_duration_stimuli/003048_2014-06-15_13-49-43_094959634447_rgbf000150-resize_1/003048_2014-06-15_13-49-43_094959634447_rgbf000150-resize_1-target.png,250,4.0035,10,3180,249,feet,jsons/v1_VE250_randls_17_rotated.json,511288,1043629,37,Man
131,535559,DepthScenes,duration_manipulation_targetAtFixation,jsons/v1_VE250_randls_17_rotated.json,http://54.235.29.9/FacialAge/BNav_EC2/DepthDuration/v2_depth_duration_MTurk/v2_DepthDuration_HTML.html#147,147,2560,1335,2560,1440,8-20-2022,10-11-48,132,depth_duration_stimuli/002043_2014-06-24_20-29-38_260595134347_rgbf000039-resize_4/002043_2014-06-24_20-29-38_260595134347_rgbf000039-resize_4-target.png,250,2.8435,7,2247,250,feet,jsons/v1_VE250_randls_17_rotated.json,511288,1043629,37,Man
132,535559,DepthScenes,duration_manipulation_targetAtFixation,jsons/v1_VE250_randls_17_rotated.json,http://54.235.29.9/FacialAge/BNav_EC2/DepthDuration/v2_depth_duration_MTurk/v2_DepthDuration_HTML.html#147,147,2560,1335,2560,1440,8-20-2022,10-11-48,133,depth_duration_stimuli/001516_2014-06-20_16-25-09_260595134347_rgbf000076-resize_2/001516_2014-06-20_16-25-09_260595134347_rgbf000076-resize_2-target.png,250,1.7445,5,2212,249,feet,jsons/v1_VE250_randls_17_rotated.json,511288,1043629,37,Man
133,535559,DepthScenes,duration_manipulation_targetAtFixation,jsons/v1_VE250_randls_17_rotated.json,http://54.235.29.9/FacialAge/BNav_EC2/DepthDuration/v2_depth_duration_MTurk/v2_DepthDuration_HTML.html#147,147,2560,1335,2560,1440,8-20-2022,10-11-48,134,depth_duration_stimuli/002118_2014-06-25_20-32-08_260595134347_rgbf000078-resize_1/002118_2014-06-25_20-32-08_260595134347_rgbf000078-resize_1-target.png,250,2.6460000000000004,6,2115,250,feet,jsons/v1_VE250_randls_17_rotated.json,511288,1043629,37,Man
134,535559,DepthScenes,duration_manipulation_targetAtFixation,jsons/v1_VE250_randls_17_rotated.json,http://54.235.29.9/FacialAge/BNav_EC2/DepthDuration/v2_depth_duration_MTurk/v2_DepthDuration_HTML.html#147,147,2560,1335,2560,1440,8-20-2022,10-11-48,135,depth_duration_stimuli/000375_2014-06-08_11-17-29_260595134347_rgbf000133-resize_2/000375_2014-06-08_11-17-29_260595134347_rgbf000133-resize-original.jpg,250,4.718,0,2783,250,feet,jsons/v1_VE250_randls_17_rotated.json,511288,1043629,37,Man
135,535559,DepthScenes,duration_manipulation_targetAtFixation,jsons/v1_VE250_randls_17_rotated.json,http://54.235.29.9/FacialAge/BNav_EC2/DepthDuration/v2_depth_duration_MTurk/v2_DepthDuration_HTML.html#147,147,2560,1335,2560,1440,8-20-2022,10-11-48,136,depth_duration_stimuli/002750_2014-06-22_19-08-03_094959634447_rgbf000094-resize_4/002750_2014-06-22_19-08-03_094959634447_rgbf000094-resize_4-target.png,250,2.354,6,1984,249,feet,jsons/v1_VE250_randls_17_rotated.json,511288,1043629,37,Man
136,535559,DepthScenes,duration_manipulation_targetAtFixation,jsons/v1_VE250_randls_17_rotated.json,http://54.235.29.9/FacialAge/BNav_EC2/DepthDuration/v2_depth_duration_MTurk/v2_DepthDuration_HTML.html#147,147,2560,1335,2560,1440,8-20-2022,10-11-48,137,depth_duration_stimuli/002549_2014-06-24_13-41-39_094959634447_rgbf000022-resize_3/002549_2014-06-24_13-41-39_094959634447_rgbf000022-resize_3-target.png,250,1.476,4,2416,249,feet,jsons/v1_VE250_randls_17_rotated.json,511288,1043629,37,Man
137,535559,DepthScenes,duration_manipulation_targetAtFixation,jsons/v1_VE250_randls_17_rotated.json,http://54.235.29.9/FacialAge/BNav_EC2/DepthDuration/v2_depth_duration_MTurk/v2_DepthDuration_HTML.html#147,147,2560,1335,2560,1440,8-20-2022,10-11-48,138,depth_duration_stimuli/000556_2014-06-09_22-42-56_260595134347_rgbf000214-resize_1/000556_2014-06-09_22-42-56_260595134347_rgbf000214-resize_1-target.png,250,4.8415,8,2631,249,feet,jsons/v1_VE250_randls_17_rotated.json,511288,1043629,37,Man
138,535559,DepthScenes,duration_manipulation_targetAtFixation,jsons/v1_VE250_randls_17_rotated.json,http://54.235.29.9/FacialAge/BNav_EC2/DepthDuration/v2_depth_duration_MTurk/v2_DepthDuration_HTML.html#147,147,2560,1335,2560,1440,8-20-2022,10-11-48,139,depth_duration_stimuli/001158_2014-06-17_15-32-16_260595134347_rgbf000138-resize_2/001158_2014-06-17_15-32-16_260595134347_rgbf000138-resize_2-target.png,250,4.5315,8,2053,250,feet,jsons/v1_VE250_randls_17_rotated.json,511288,1043629,37,Man
139,535559,DepthScenes,duration_manipulation_targetAtFixation,jsons/v1_VE250_randls_17_rotated.json,http://54.235.29.9/FacialAge/BNav_EC2/DepthDuration/v2_depth_duration_MTurk/v2_DepthDuration_HTML.html#147,147,2560,1335,2560,1440,8-20-2022,10-11-48,140,depth_duration_stimuli/001617_2014-06-20_11-35-32_260595134347_rgbf000066-resize_1/001617_2014-06-20_11-35-32_260595134347_rgbf000066-resize_1-target.png,250,3.7910000000000004,7,2238,249,feet,jsons/v1_VE250_randls_17_rotated.json,511288,1043629,37,Man
140,535559,DepthScenes,duration_manipulation_targetAtFixation,jsons/v1_VE250_randls_17_rotated.json,http://54.235.29.9/FacialAge/BNav_EC2/DepthDuration/v2_depth_duration_MTurk/v2_DepthDuration_HTML.html#147,147,2560,1335,2560,1440,8-20-2022,10-11-48,141,depth_duration_stimuli/001806_2014-06-26_20-50-20_260595134347_rgbf000091-resize_1/001806_2014-06-26_20-50-20_260595134347_rgbf000091-resize_1-target.png,250,2.7305,5,2723,250,feet,jsons/v1_VE250_randls_17_rotated.json,511288,1043629,37,Man
141,535559,DepthScenes,duration_manipulation_targetAtFixation,jsons/v1_VE250_randls_17_rotated.json,http://54.235.29.9/FacialAge/BNav_EC2/DepthDuration/v2_depth_duration_MTurk/v2_DepthDuration_HTML.html#147,147,2560,1335,2560,1440,8-20-2022,10-11-48,142,depth_duration_stimuli/003423_2014-05-21_10-23-26_094959634447_rgbf002665-resize_2/003423_2014-05-21_10-23-26_094959634447_rgbf002665-resize_2-target.png,250,3.2575,7,2158,249,feet,jsons/v1_VE250_randls_17_rotated.json,511288,1043629,37,Man
142,535559,DepthScenes,duration_manipulation_targetAtFixation,jsons/v1_VE250_randls_17_rotated.json,http://54.235.29.9/FacialAge/BNav_EC2/DepthDuration/v2_depth_duration_MTurk/v2_DepthDuration_HTML.html#147,147,2560,1335,2560,1440,8-20-2022,10-11-48,143,depth_duration_stimuli/002905_2014-06-03_18-04-43_094959634447_rgbf000151-resize_2/002905_2014-06-03_18-04-43_094959634447_rgbf000151-resize_2-target.png,250,2.0295,5,2302,249,feet,jsons/v1_VE250_randls_17_rotated.json,511288,1043629,37,Man
143,535559,DepthScenes,duration_manipulation_targetAtFixation,jsons/v1_VE250_randls_17_rotated.json,http://54.235.29.9/FacialAge/BNav_EC2/DepthDuration/v2_depth_duration_MTurk/v2_DepthDuration_HTML.html#147,147,2560,1335,2560,1440,8-20-2022,10-11-48,144,depth_duration_stimuli/000709_2014-06-08_13-51-55_260595134347_rgbf000068-resize_3/000709_2014-06-08_13-51-55_260595134347_rgbf000068-resize_3-target.png,250,1.8030000000000002,4,2846,249,feet,jsons/v1_VE250_randls_17_rotated.json,511288,1043629,37,Man
144,535559,DepthScenes,duration_manipulation_targetAtFixation,jsons/v1_VE250_randls_17_rotated.json,http://54.235.29.9/FacialAge/BNav_EC2/DepthDuration/v2_depth_duration_MTurk/v2_DepthDuration_HTML.html#147,147,2560,1335,2560,1440,8-20-2022,10-11-48,145,depth_duration_stimuli/002057_2014-06-24_21-00-13_260595134347_rgbf000120-resize_1/002057_2014-06-24_21-00-13_260595134347_rgbf000120-resize_1-target.png,250,2.967,8,2333,249,feet,jsons/v1_VE250_randls_17_rotated.json,511288,1043629,37,Man
145,535559,DepthScenes,duration_manipulation_targetAtFixation,jsons/v1_VE250_randls_17_rotated.json,http://54.235.29.9/FacialAge/BNav_EC2/DepthDuration/v2_depth_duration_MTurk/v2_DepthDuration_HTML.html#147,147,2560,1335,2560,1440,8-20-2022,10-11-48,146,depth_duration_stimuli/002805_2014-06-22_19-54-03_094959634447_rgbf000079-resize_1/002805_2014-06-22_19-54-03_094959634447_rgbf000079-resize_1-target.png,250,3.1439999999999997,9,2181,250,feet,jsons/v1_VE250_randls_17_rotated.json,511288,1043629,37,Man
146,535559,DepthScenes,duration_manipulation_targetAtFixation,jsons/v1_VE250_randls_17_rotated.json,http://54.235.29.9/FacialAge/BNav_EC2/DepthDuration/v2_depth_duration_MTurk/v2_DepthDuration_HTML.html#147,147,2560,1335,2560,1440,8-20-2022,10-11-48,147,depth_duration_stimuli/000906_2014-06-08_13-35-43_260595134347_rgbf000155-resize_1/000906_2014-06-08_13-35-43_260595134347_rgbf000155-resize_1-target.png,250,2.8489999999999998,8,2070,250,feet,jsons/v1_VE250_randls_17_rotated.json,511288,1043629,37,Man
147,535559,DepthScenes,duration_manipulation_targetAtFixation,jsons/v1_VE250_randls_17_rotated.json,http://54.235.29.9/FacialAge/BNav_EC2/DepthDuration/v2_depth_duration_MTurk/v2_DepthDuration_HTML.html#147,147,2560,1335,2560,1440,8-20-2022,10-11-48,148,depth_duration_stimuli/001136_2014-06-17_15-19-41_260595134347_rgbf000076-resize_3/001136_2014-06-17_15-19-41_260595134347_rgbf000076-resize_3-target.png,250,1.8655,6,2227,249,feet,jsons/v1_VE250_randls_17_rotated.json,511288,1043629,37,Man
148,535559,DepthScenes,duration_manipulation_targetAtFixation,jsons/v1_VE250_randls_17_rotated.json,http://54.235.29.9/FacialAge/BNav_EC2/DepthDuration/v2_depth_duration_MTurk/v2_DepthDuration_HTML.html#147,147,2560,1335,2560,1440,8-20-2022,10-11-48,149,depth_duration_stimuli/001164_2014-06-17_15-35-46_260595134347_rgbf000085-resize_3/001164_2014-06-17_15-35-46_260595134347_rgbf000085-resize_3-target.png,250,2.354,5,1974,251,feet,jsons/v1_VE250_randls_17_rotated.json,511288,1043629,37,Man
149,535559,DepthScenes,duration_manipulation_targetAtFixation,jsons/v1_VE250_randls_17_rotated.json,http://54.235.29.9/FacialAge/BNav_EC2/DepthDuration/v2_depth_duration_MTurk/v2_DepthDuration_HTML.html#147,147,2560,1335,2560,1440,8-20-2022,10-11-48,150,depth_duration_stimuli/003083_2014-06-15_15-21-03_094959634447_rgbf000063-resize_1/003083_2014-06-15_15-21-03_094959634447_rgbf000063-resize_1-target.png,250,4.1405,9,2307,248,feet,jsons/v1_VE250_randls_17_rotated.json,511288,1043629,37,Man
150,535559,DepthScenes,duration_manipulation_targetAtFixation,jsons/v1_VE250_randls_17_rotated.json,http://54.235.29.9/FacialAge/BNav_EC2/DepthDuration/v2_depth_duration_MTurk/v2_DepthDuration_HTML.html#147,147,2560,1335,2560,1440,8-20-2022,10-11-48,151,depth_duration_stimuli/000486_2014-06-09_20-47-20_260595134347_rgbf000143-resize_2/000486_2014-06-09_20-47-20_260595134347_rgbf000143-resize_2-target.png,250,4.8325,8,3667,250,feet,jsons/v1_VE250_randls_17_rotated.json,511288,1043629,37,Man
151,535559,DepthScenes,duration_manipulation_targetAtFixation,jsons/v1_VE250_randls_17_rotated.json,http://54.235.29.9/FacialAge/BNav_EC2/DepthDuration/v2_depth_duration_MTurk/v2_DepthDuration_HTML.html#147,147,2560,1335,2560,1440,8-20-2022,10-11-48,152,depth_duration_stimuli/000569_2014-06-09_22-51-47_260595134347_rgbf000141-resize_3/000569_2014-06-09_22-51-47_260595134347_rgbf000141-resize-original.jpg,250,4.512,0,2428,249,feet,jsons/v1_VE250_randls_17_rotated.json,511288,1043629,37,Man
152,535559,DepthScenes,duration_manipulation_targetAtFixation,jsons/v1_VE250_randls_17_rotated.json,http://54.235.29.9/FacialAge/BNav_EC2/DepthDuration/v2_depth_duration_MTurk/v2_DepthDuration_HTML.html#147,147,2560,1335,2560,1440,8-20-2022,10-11-48,153,depth_duration_stimuli/001235_2014-06-17_16-37-36_260595134347_rgbf000084-resize_4/001235_2014-06-17_16-37-36_260595134347_rgbf000084-resize_4-target.png,250,3.6605,7,2054,249,feet,jsons/v1_VE250_randls_17_rotated.json,511288,1043629,37,Man
153,535559,DepthScenes,duration_manipulation_targetAtFixation,jsons/v1_VE250_randls_17_rotated.json,http://54.235.29.9/FacialAge/BNav_EC2/DepthDuration/v2_depth_duration_MTurk/v2_DepthDuration_HTML.html#147,147,2560,1335,2560,1440,8-20-2022,10-11-48,154,depth_duration_stimuli/000788_2014-06-08_22-34-36_260595134347_rgbf000131-resize_1/000788_2014-06-08_22-34-36_260595134347_rgbf000131-resize_1-target.png,250,3.359,6,2434,249,feet,jsons/v1_VE250_randls_17_rotated.json,511288,1043629,37,Man
154,535559,DepthScenes,duration_manipulation_targetAtFixation,jsons/v1_VE250_randls_17_rotated.json,http://54.235.29.9/FacialAge/BNav_EC2/DepthDuration/v2_depth_duration_MTurk/v2_DepthDuration_HTML.html#147,147,2560,1335,2560,1440,8-20-2022,10-11-48,155,depth_duration_stimuli/000502_2014-06-08_23-02-32_260595134347_rgbf000063-resize_4/000502_2014-06-08_23-02-32_260595134347_rgbf000063-resize_4-target.png,250,2.431,6,2018,250,feet,jsons/v1_VE250_randls_17_rotated.json,511288,1043629,37,Man
155,535559,DepthScenes,duration_manipulation_targetAtFixation,jsons/v1_VE250_randls_17_rotated.json,http://54.235.29.9/FacialAge/BNav_EC2/DepthDuration/v2_depth_duration_MTurk/v2_DepthDuration_HTML.html#147,147,2560,1335,2560,1440,8-20-2022,10-11-48,156,depth_duration_stimuli/001199_2014-06-17_16-03-48_260595134347_rgbf000077-resize_0/001199_2014-06-17_16-03-48_260595134347_rgbf000077-resize_0-target.png,250,3.4375,9,2281,250,feet,jsons/v1_VE250_randls_17_rotated.json,511288,1043629,37,Man
156,535559,DepthScenes,duration_manipulation_targetAtFixation,jsons/v1_VE250_randls_17_rotated.json,http://54.235.29.9/FacialAge/BNav_EC2/DepthDuration/v2_depth_duration_MTurk/v2_DepthDuration_HTML.html#147,147,2560,1335,2560,1440,8-20-2022,10-11-48,157,depth_duration_stimuli/002657_2014-06-13_15-29-54_094959634447_rgbf000150-resize_1/002657_2014-06-13_15-29-54_094959634447_rgbf000150-resize_1-target.png,250,4.919,10,2973,250,feet,jsons/v1_VE250_randls_17_rotated.json,511288,1043629,37,Man
157,535559,DepthScenes,duration_manipulation_targetAtFixation,jsons/v1_VE250_randls_17_rotated.json,http://54.235.29.9/FacialAge/BNav_EC2/DepthDuration/v2_depth_duration_MTurk/v2_DepthDuration_HTML.html#147,147,2560,1335,2560,1440,8-20-2022,10-11-48,158,depth_duration_stimuli/002375_2014-06-28_20-13-44_260595134347_rgbf000032-resize_1/002375_2014-06-28_20-13-44_260595134347_rgbf000032-resize_1-target.png,250,4.0175,6,2243,249,feet,jsons/v1_VE250_randls_17_rotated.json,511288,1043629,37,Man
158,535559,DepthScenes,duration_manipulation_targetAtFixation,jsons/v1_VE250_randls_17_rotated.json,http://54.235.29.9/FacialAge/BNav_EC2/DepthDuration/v2_depth_duration_MTurk/v2_DepthDuration_HTML.html#147,147,2560,1335,2560,1440,8-20-2022,10-11-48,159,depth_duration_stimuli/001584_2014-06-20_11-07-43_260595134347_rgbf000002-resize_1/001584_2014-06-20_11-07-43_260595134347_rgbf000002-resize_1-target.png,250,3.53,6,1924,251,feet,jsons/v1_VE250_randls_17_rotated.json,511288,1043629,37,Man
159,535559,DepthScenes,duration_manipulation_targetAtFixation,jsons/v1_VE250_randls_17_rotated.json,http://54.235.29.9/FacialAge/BNav_EC2/DepthDuration/v2_depth_duration_MTurk/v2_DepthDuration_HTML.html#147,147,2560,1335,2560,1440,8-20-2022,10-11-48,160,depth_duration_stimuli/003621_2014-05-23_18-06-08_094959634447_rgbf000101-resize_1/003621_2014-05-23_18-06-08_094959634447_rgbf000101-resize_1-target.png,250,3.9835,7,2067,248,feet,jsons/v1_VE250_randls_17_rotated.json,511288,1043629,37,Man
160,535559,DepthScenes,duration_manipulation_targetAtFixation,jsons/v1_VE250_randls_17_rotated.json,http://54.235.29.9/FacialAge/BNav_EC2/DepthDuration/v2_depth_duration_MTurk/v2_DepthDuration_HTML.html#147,147,2560,1335,2560,1440,8-20-2022,10-11-48,161,depth_duration_stimuli/002103_2014-06-25_20-00-40_260595134347_rgbf000049-resize_0/002103_2014-06-25_20-00-40_260595134347_rgbf000049-resize_0-target.png,250,4.105,9,2124,251,feet,jsons/v1_VE250_randls_17_rotated.json,511288,1043629,37,Man
161,535559,DepthScenes,duration_manipulation_targetAtFixation,jsons/v1_VE250_randls_17_rotated.json,http://54.235.29.9/FacialAge/BNav_EC2/DepthDuration/v2_depth_duration_MTurk/v2_DepthDuration_HTML.html#147,147,2560,1335,2560,1440,8-20-2022,10-11-48,162,depth_duration_stimuli/002039_2014-06-24_20-22-38_260595134347_rgbf000084-resize_1/002039_2014-06-24_20-22-38_260595134347_rgbf000084-resize_1-target.png,250,4.408,8,2151,251,feet,jsons/v1_VE250_randls_17_rotated.json,511288,1043629,37,Man
162,535559,DepthScenes,duration_manipulation_targetAtFixation,jsons/v1_VE250_randls_17_rotated.json,http://54.235.29.9/FacialAge/BNav_EC2/DepthDuration/v2_depth_duration_MTurk/v2_DepthDuration_HTML.html#147,147,2560,1335,2560,1440,8-20-2022,10-11-48,163,depth_duration_stimuli/003228_2014-05-14_13-42-35_094959634447_rgbf000101-resize_1/003228_2014-05-14_13-42-35_094959634447_rgbf000101-resize_1-target.png,250,1.9680000000000002,4,2895,250,feet,jsons/v1_VE250_randls_17_rotated.json,511288,1043629,37,Man
163,535559,DepthScenes,duration_manipulation_targetAtFixation,jsons/v1_VE250_randls_17_rotated.json,http://54.235.29.9/FacialAge/BNav_EC2/DepthDuration/v2_depth_duration_MTurk/v2_DepthDuration_HTML.html#147,147,2560,1335,2560,1440,8-20-2022,10-11-48,164,depth_duration_stimuli/002600_2014-06-24_14-27-04_094959634447_rgbf000074-resize_2/002600_2014-06-24_14-27-04_094959634447_rgbf000074-resize_2-target.png,250,2.7575,7,2270,251,feet,jsons/v1_VE250_randls_17_rotated.json,511288,1043629,37,Man
