,subjID,experimentName,versionName,sequenceName,url,selected_row,windowWidth,windowHeight,screenWidth,screenHeight,startDate,startTime,trial,stimulus,duration,actual_depth,depth_estimate,trial_RT,log_sceneDuration,unitSelection,seq_filepath,experimentTime,totalTime,age,gender
0,537441,DepthScenes,duration_manipulation_targetAtFixation,jsons/VE83_randls_76_rotated.json,http://54.235.29.9/FacialAge/BNav_EC2/DepthDuration/v2_depth_duration_MTurk/v2_DepthDuration_HTML.html#11,11,1366,651,1366,768,8-29-2023,12-17-30,1,depth_duration_stimuli/001100_2014-06-15_17-46-26_260595134347_rgbf000225-resize_2/001100_2014-06-15_17-46-26_260595134347_rgbf000225-resize_2-target.png,83,2.24,2,4154,82,feet,jsons/VE83_randls_76_rotated.json,830701,1204919,36,Man
1,537441,DepthScenes,duration_manipulation_targetAtFixation,jsons/VE83_randls_76_rotated.json,http://54.235.29.9/FacialAge/BNav_EC2/DepthDuration/v2_depth_duration_MTurk/v2_DepthDuration_HTML.html#11,11,1366,651,1366,768,8-29-2023,12-17-30,2,depth_duration_stimuli/002784_2014-06-22_19-26-30_094959634447_rgbf000083-resize_3/002784_2014-06-22_19-26-30_094959634447_rgbf000083-resize_3-target.png,83,1.8046666666667,2,5897,83,feet,jsons/VE83_randls_76_rotated.json,830701,1204919,36,Man
2,537441,DepthScenes,duration_manipulation_targetAtFixation,jsons/VE83_randls_76_rotated.json,http://54.235.29.9/FacialAge/BNav_EC2/DepthDuration/v2_depth_duration_MTurk/v2_DepthDuration_HTML.html#11,11,1366,651,1366,768,8-29-2023,12-17-30,3,depth_duration_stimuli/002467_2014-06-28_20-38-07_260595134347_rgbf000026-resize_2/002467_2014-06-28_20-38-07_260595134347_rgbf000026-resize_2-target.png,83,4.742,7,4515,85,feet,jsons/VE83_randls_76_rotated.json,830701,1204919,36,Man
3,537441,DepthScenes,duration_manipulation_targetAtFixation,jsons/VE83_randls_76_rotated.json,http://54.235.29.9/FacialAge/BNav_EC2/DepthDuration/v2_depth_duration_MTurk/v2_DepthDuration_HTML.html#11,11,1366,651,1366,768,8-29-2023,12-17-30,4,depth_duration_stimuli/002570_2014-06-24_13-59-54_094959634447_rgbf000059-resize_0/002570_2014-06-24_13-59-54_094959634447_rgbf000059-resize_0-target.png,83,4.037,4,3873,83,feet,jsons/VE83_randls_76_rotated.json,830701,1204919,36,Man
4,537441,DepthScenes,duration_manipulation_targetAtFixation,jsons/VE83_randls_76_rotated.json,http://54.235.29.9/FacialAge/BNav_EC2/DepthDuration/v2_depth_duration_MTurk/v2_DepthDuration_HTML.html#11,11,1366,651,1366,768,8-29-2023,12-17-30,5,depth_duration_stimuli/003079_2014-06-15_15-18-20_094959634447_rgbf000152-resize_8/003079_2014-06-15_15-18-20_094959634447_rgbf000152-resize_8-target.png,83,2.8775,5,4003,84,feet,jsons/VE83_randls_76_rotated.json,830701,1204919,36,Man
5,537441,DepthScenes,duration_manipulation_targetAtFixation,jsons/VE83_randls_76_rotated.json,http://54.235.29.9/FacialAge/BNav_EC2/DepthDuration/v2_depth_duration_MTurk/v2_DepthDuration_HTML.html#11,11,1366,651,1366,768,8-29-2023,12-17-30,6,depth_duration_stimuli/000506_2014-06-08_23-21-00_260595134347_rgbf000070-resize_7/000506_2014-06-08_23-21-00_260595134347_rgbf000070-resize_7-target.png,83,4.0585,5,4114,82,feet,jsons/VE83_randls_76_rotated.json,830701,1204919,36,Man
6,537441,DepthScenes,duration_manipulation_targetAtFixation,jsons/VE83_randls_76_rotated.json,http://54.235.29.9/FacialAge/BNav_EC2/DepthDuration/v2_depth_duration_MTurk/v2_DepthDuration_HTML.html#11,11,1366,651,1366,768,8-29-2023,12-17-30,7,depth_duration_stimuli/000749_2014-06-08_21-55-06_260595134347_rgbf000070-resize_2/000749_2014-06-08_21-55-06_260595134347_rgbf000070-resize_2-target.png,83,2.331,3,3883,84,feet,jsons/VE83_randls_76_rotated.json,830701,1204919,36,Man
7,537441,DepthScenes,duration_manipulation_targetAtFixation,jsons/VE83_randls_76_rotated.json,http://54.235.29.9/FacialAge/BNav_EC2/DepthDuration/v2_depth_duration_MTurk/v2_DepthDuration_HTML.html#11,11,1366,651,1366,768,8-29-2023,12-17-30,8,depth_duration_stimuli/002788_2014-06-22_19-36-03_094959634447_rgbf000088-resize_2/002788_2014-06-22_19-36-03_094959634447_rgbf000088-resize_2-target.png,83,1.6465,3,3819,83,feet,jsons/VE83_randls_76_rotated.json,830701,1204919,36,Man
8,537441,DepthScenes,duration_manipulation_targetAtFixation,jsons/VE83_randls_76_rotated.json,http://54.235.29.9/FacialAge/BNav_EC2/DepthDuration/v2_depth_duration_MTurk/v2_DepthDuration_HTML.html#11,11,1366,651,1366,768,8-29-2023,12-17-30,9,depth_duration_stimuli/002995_2014-06-15_12-31-26_094959634447_rgbf000150-resize_1/002995_2014-06-15_12-31-26_094959634447_rgbf000150-resize_1-target.png,83,3.8360000000000003,4,3146,83,feet,jsons/VE83_randls_76_rotated.json,830701,1204919,36,Man
9,537441,DepthScenes,duration_manipulation_targetAtFixation,jsons/VE83_randls_76_rotated.json,http://54.235.29.9/FacialAge/BNav_EC2/DepthDuration/v2_depth_duration_MTurk/v2_DepthDuration_HTML.html#11,11,1366,651,1366,768,8-29-2023,12-17-30,10,depth_duration_stimuli/002748_2014-06-22_19-07-22_094959634447_rgbf000078-resize_1/002748_2014-06-22_19-07-22_094959634447_rgbf000078-resize_1-target.png,83,4.6705,5,3930,83,feet,jsons/VE83_randls_76_rotated.json,830701,1204919,36,Man
10,537441,DepthScenes,duration_manipulation_targetAtFixation,jsons/VE83_randls_76_rotated.json,http://54.235.29.9/FacialAge/BNav_EC2/DepthDuration/v2_depth_duration_MTurk/v2_DepthDuration_HTML.html#11,11,1366,651,1366,768,8-29-2023,12-17-30,11,depth_duration_stimuli/002568_2014-06-24_13-59-21_094959634447_rgbf000062-resize_4/002568_2014-06-24_13-59-21_094959634447_rgbf000062-resize_4-target.png,83,3.015,3,3188,84,feet,jsons/VE83_randls_76_rotated.json,830701,1204919,36,Man
11,537441,DepthScenes,duration_manipulation_targetAtFixation,jsons/VE83_randls_76_rotated.json,http://54.235.29.9/FacialAge/BNav_EC2/DepthDuration/v2_depth_duration_MTurk/v2_DepthDuration_HTML.html#11,11,1366,651,1366,768,8-29-2023,12-17-30,12,depth_duration_stimuli/003492_2014-05-21_15-50-55_094959634447_rgbf000828-resize_1/003492_2014-05-21_15-50-55_094959634447_rgbf000828-resize_1-target.png,83,4.06875,6,7267,84,feet,jsons/VE83_randls_76_rotated.json,830701,1204919,36,Man
12,537441,DepthScenes,duration_manipulation_targetAtFixation,jsons/VE83_randls_76_rotated.json,http://54.235.29.9/FacialAge/BNav_EC2/DepthDuration/v2_depth_duration_MTurk/v2_DepthDuration_HTML.html#11,11,1366,651,1366,768,8-29-2023,12-17-30,13,depth_duration_stimuli/001235_2014-06-17_16-37-36_260595134347_rgbf000084-resize_4/001235_2014-06-17_16-37-36_260595134347_rgbf000084-resize_4-target.png,83,3.6605,4,3049,82,feet,jsons/VE83_randls_76_rotated.json,830701,1204919,36,Man
13,537441,DepthScenes,duration_manipulation_targetAtFixation,jsons/VE83_randls_76_rotated.json,http://54.235.29.9/FacialAge/BNav_EC2/DepthDuration/v2_depth_duration_MTurk/v2_DepthDuration_HTML.html#11,11,1366,651,1366,768,8-29-2023,12-17-30,14,depth_duration_stimuli/000788_2014-06-08_22-34-36_260595134347_rgbf000131-resize_1/000788_2014-06-08_22-34-36_260595134347_rgbf000131-resize_1-target.png,83,3.359,4,3892,83,feet,jsons/VE83_randls_76_rotated.json,830701,1204919,36,Man
14,537441,DepthScenes,duration_manipulation_targetAtFixation,jsons/VE83_randls_76_rotated.json,http://54.235.29.9/FacialAge/BNav_EC2/DepthDuration/v2_depth_duration_MTurk/v2_DepthDuration_HTML.html#11,11,1366,651,1366,768,8-29-2023,12-17-30,15,depth_duration_stimuli/003129_2014-05-12_10-48-10_094959634447_rgbf000100-resize_0/003129_2014-05-12_10-48-10_094959634447_rgbf000100-resize_0-target.png,83,4.9305,7,3811,84,feet,jsons/VE83_randls_76_rotated.json,830701,1204919,36,Man
15,537441,DepthScenes,duration_manipulation_targetAtFixation,jsons/VE83_randls_76_rotated.json,http://54.235.29.9/FacialAge/BNav_EC2/DepthDuration/v2_depth_duration_MTurk/v2_DepthDuration_HTML.html#11,11,1366,651,1366,768,8-29-2023,12-17-30,16,depth_duration_stimuli/000414_2014-06-04_19-49-13_260595134347_rgbf000044-resize_0/000414_2014-06-04_19-49-13_260595134347_rgbf000044-resize_0-target.png,83,4.329,5,4154,83,feet,jsons/VE83_randls_76_rotated.json,830701,1204919,36,Man
16,537441,DepthScenes,duration_manipulation_targetAtFixation,jsons/VE83_randls_76_rotated.json,http://54.235.29.9/FacialAge/BNav_EC2/DepthDuration/v2_depth_duration_MTurk/v2_DepthDuration_HTML.html#11,11,1366,651,1366,768,8-29-2023,12-17-30,17,depth_duration_stimuli/001132_2014-06-17_14-48-54_260595134347_rgbf000100-resize_2/001132_2014-06-17_14-48-54_260595134347_rgbf000100-resize_2-target.png,83,3.753,5,3516,83,feet,jsons/VE83_randls_76_rotated.json,830701,1204919,36,Man
17,537441,DepthScenes,duration_manipulation_targetAtFixation,jsons/VE83_randls_76_rotated.json,http://54.235.29.9/FacialAge/BNav_EC2/DepthDuration/v2_depth_duration_MTurk/v2_DepthDuration_HTML.html#11,11,1366,651,1366,768,8-29-2023,12-17-30,18,depth_duration_stimuli/001133_2014-06-17_14-49-16_260595134347_rgbf000100-resize_0/001133_2014-06-17_14-49-16_260595134347_rgbf000100-resize_0-target.png,83,4.2115,4,3170,83,feet,jsons/VE83_randls_76_rotated.json,830701,1204919,36,Man
18,537441,DepthScenes,duration_manipulation_targetAtFixation,jsons/VE83_randls_76_rotated.json,http://54.235.29.9/FacialAge/BNav_EC2/DepthDuration/v2_depth_duration_MTurk/v2_DepthDuration_HTML.html#11,11,1366,651,1366,768,8-29-2023,12-17-30,19,depth_duration_stimuli/001498_2014-06-19_17-45-14_260595134347_rgbf000129-resize_4/001498_2014-06-19_17-45-14_260595134347_rgbf000129-resize-original.jpg,83,1.4075,4,3571,84,feet,jsons/VE83_randls_76_rotated.json,830701,1204919,36,Man
19,537441,DepthScenes,duration_manipulation_targetAtFixation,jsons/VE83_randls_76_rotated.json,http://54.235.29.9/FacialAge/BNav_EC2/DepthDuration/v2_depth_duration_MTurk/v2_DepthDuration_HTML.html#11,11,1366,651,1366,768,8-29-2023,12-17-30,20,depth_duration_stimuli/000665_2014-06-09_20-42-35_260595134347_rgbf000110-resize_1/000665_2014-06-09_20-42-35_260595134347_rgbf000110-resize_1-target.png,83,3.057,4,3596,83,feet,jsons/VE83_randls_76_rotated.json,830701,1204919,36,Man
20,537441,DepthScenes,duration_manipulation_targetAtFixation,jsons/VE83_randls_76_rotated.json,http://54.235.29.9/FacialAge/BNav_EC2/DepthDuration/v2_depth_duration_MTurk/v2_DepthDuration_HTML.html#11,11,1366,651,1366,768,8-29-2023,12-17-30,21,depth_duration_stimuli/001150_2014-06-17_15-27-34_260595134347_rgbf000108-resize_2/001150_2014-06-17_15-27-34_260595134347_rgbf000108-resize_2-target.png,83,4.0325,6,3281,83,feet,jsons/VE83_randls_76_rotated.json,830701,1204919,36,Man
21,537441,DepthScenes,duration_manipulation_targetAtFixation,jsons/VE83_randls_76_rotated.json,http://54.235.29.9/FacialAge/BNav_EC2/DepthDuration/v2_depth_duration_MTurk/v2_DepthDuration_HTML.html#11,11,1366,651,1366,768,8-29-2023,12-17-30,22,depth_duration_stimuli/003495_2014-05-21_16-01-51_094959634447_rgbf000100-resize_3/003495_2014-05-21_16-01-51_094959634447_rgbf000100-resize_3-target.png,83,1.6255,2,2961,82,feet,jsons/VE83_randls_76_rotated.json,830701,1204919,36,Man
22,537441,DepthScenes,duration_manipulation_targetAtFixation,jsons/VE83_randls_76_rotated.json,http://54.235.29.9/FacialAge/BNav_EC2/DepthDuration/v2_depth_duration_MTurk/v2_DepthDuration_HTML.html#11,11,1366,651,1366,768,8-29-2023,12-17-30,23,depth_duration_stimuli/001244_2014-06-17_16-47-45_260595134347_rgbf000030-resize_4/001244_2014-06-17_16-47-45_260595134347_rgbf000030-resize_4-target.png,83,2.0425,3,2947,83,feet,jsons/VE83_randls_76_rotated.json,830701,1204919,36,Man
23,537441,DepthScenes,duration_manipulation_targetAtFixation,jsons/VE83_randls_76_rotated.json,http://54.235.29.9/FacialAge/BNav_EC2/DepthDuration/v2_depth_duration_MTurk/v2_DepthDuration_HTML.html#11,11,1366,651,1366,768,8-29-2023,12-17-30,24,depth_duration_stimuli/000734_2014-06-08_17-39-11_260595134347_rgbf000128-resize_2/000734_2014-06-08_17-39-11_260595134347_rgbf000128-resize_2-target.png,83,4.098,5,5660,83,feet,jsons/VE83_randls_76_rotated.json,830701,1204919,36,Man
24,537441,DepthScenes,duration_manipulation_targetAtFixation,jsons/VE83_randls_76_rotated.json,http://54.235.29.9/FacialAge/BNav_EC2/DepthDuration/v2_depth_duration_MTurk/v2_DepthDuration_HTML.html#11,11,1366,651,1366,768,8-29-2023,12-17-30,25,depth_duration_stimuli/000739_2014-06-08_18-45-58_260595134347_rgbf000068-resize_1/000739_2014-06-08_18-45-58_260595134347_rgbf000068-resize_1-target.png,83,3.534,5,7393,83,feet,jsons/VE83_randls_76_rotated.json,830701,1204919,36,Man
25,537441,DepthScenes,duration_manipulation_targetAtFixation,jsons/VE83_randls_76_rotated.json,http://54.235.29.9/FacialAge/BNav_EC2/DepthDuration/v2_depth_duration_MTurk/v2_DepthDuration_HTML.html#11,11,1366,651,1366,768,8-29-2023,12-17-30,26,depth_duration_stimuli/000137_2014-05-20_17-04-49_260595134347_rgbf000120-resize_1/000137_2014-05-20_17-04-49_260595134347_rgbf000120-resize_1-target.png,83,3.786,5,3226,83,feet,jsons/VE83_randls_76_rotated.json,830701,1204919,36,Man
26,537441,DepthScenes,duration_manipulation_targetAtFixation,jsons/VE83_randls_76_rotated.json,http://54.235.29.9/FacialAge/BNav_EC2/DepthDuration/v2_depth_duration_MTurk/v2_DepthDuration_HTML.html#11,11,1366,651,1366,768,8-29-2023,12-17-30,27,depth_duration_stimuli/000736_2014-06-08_18-24-15_260595134347_rgbf000206-resize_3/000736_2014-06-08_18-24-15_260595134347_rgbf000206-resize_3-target.png,83,3.515,4,3259,84,feet,jsons/VE83_randls_76_rotated.json,830701,1204919,36,Man
27,537441,DepthScenes,duration_manipulation_targetAtFixation,jsons/VE83_randls_76_rotated.json,http://54.235.29.9/FacialAge/BNav_EC2/DepthDuration/v2_depth_duration_MTurk/v2_DepthDuration_HTML.html#11,11,1366,651,1366,768,8-29-2023,12-17-30,28,depth_duration_stimuli/001450_2014-06-19_17-02-03_260595134347_rgbf000203-resize_4/001450_2014-06-19_17-02-03_260595134347_rgbf000203-resize_4-target.png,83,4.0106666666667,7,3675,85,feet,jsons/VE83_randls_76_rotated.json,830701,1204919,36,Man
28,537441,DepthScenes,duration_manipulation_targetAtFixation,jsons/VE83_randls_76_rotated.json,http://54.235.29.9/FacialAge/BNav_EC2/DepthDuration/v2_depth_duration_MTurk/v2_DepthDuration_HTML.html#11,11,1366,651,1366,768,8-29-2023,12-17-30,29,depth_duration_stimuli/001449_2014-06-19_17-01-27_260595134347_rgbf000116-resize_2/001449_2014-06-19_17-01-27_260595134347_rgbf000116-resize_2-target.png,83,3.452,5,7124,83,feet,jsons/VE83_randls_76_rotated.json,830701,1204919,36,Man
29,537441,DepthScenes,duration_manipulation_targetAtFixation,jsons/VE83_randls_76_rotated.json,http://54.235.29.9/FacialAge/BNav_EC2/DepthDuration/v2_depth_duration_MTurk/v2_DepthDuration_HTML.html#11,11,1366,651,1366,768,8-29-2023,12-17-30,30,depth_duration_stimuli/002072_2014-06-24_21-48-06_260595134347_rgbf000115-resize_0/002072_2014-06-24_21-48-06_260595134347_rgbf000115-resize-original.jpg,83,4.702,4,4184,82,feet,jsons/VE83_randls_76_rotated.json,830701,1204919,36,Man
30,537441,DepthScenes,duration_manipulation_targetAtFixation,jsons/VE83_randls_76_rotated.json,http://54.235.29.9/FacialAge/BNav_EC2/DepthDuration/v2_depth_duration_MTurk/v2_DepthDuration_HTML.html#11,11,1366,651,1366,768,8-29-2023,12-17-30,31,depth_duration_stimuli/000483_2014-06-09_20-41-45_260595134347_rgbf000116-resize_4/000483_2014-06-09_20-41-45_260595134347_rgbf000116-resize_4-target.png,83,1.337,2,3036,84,feet,jsons/VE83_randls_76_rotated.json,830701,1204919,36,Man
31,537441,DepthScenes,duration_manipulation_targetAtFixation,jsons/VE83_randls_76_rotated.json,http://54.235.29.9/FacialAge/BNav_EC2/DepthDuration/v2_depth_duration_MTurk/v2_DepthDuration_HTML.html#11,11,1366,651,1366,768,8-29-2023,12-17-30,32,depth_duration_stimuli/000469_2014-06-09_19-42-10_260595134347_rgbf000081-resize_1/000469_2014-06-09_19-42-10_260595134347_rgbf000081-resize_1-target.png,83,1.652,2,2946,83,feet,jsons/VE83_randls_76_rotated.json,830701,1204919,36,Man
32,537441,DepthScenes,duration_manipulation_targetAtFixation,jsons/VE83_randls_76_rotated.json,http://54.235.29.9/FacialAge/BNav_EC2/DepthDuration/v2_depth_duration_MTurk/v2_DepthDuration_HTML.html#11,11,1366,651,1366,768,8-29-2023,12-17-30,33,depth_duration_stimuli/002545_2014-06-24_13-38-53_094959634447_rgbf000080-resize_4/002545_2014-06-24_13-38-53_094959634447_rgbf000080-resize_4-target.png,83,1.9205,4,3179,83,feet,jsons/VE83_randls_76_rotated.json,830701,1204919,36,Man
33,537441,DepthScenes,duration_manipulation_targetAtFixation,jsons/VE83_randls_76_rotated.json,http://54.235.29.9/FacialAge/BNav_EC2/DepthDuration/v2_depth_duration_MTurk/v2_DepthDuration_HTML.html#11,11,1366,651,1366,768,8-29-2023,12-17-30,34,depth_duration_stimuli/001092_2014-06-15_17-34-58_260595134347_rgbf000171-resize_3/001092_2014-06-15_17-34-58_260595134347_rgbf000171-resize_3-target.png,83,2.6935,3,4355,84,feet,jsons/VE83_randls_76_rotated.json,830701,1204919,36,Man
34,537441,DepthScenes,duration_manipulation_targetAtFixation,jsons/VE83_randls_76_rotated.json,http://54.235.29.9/FacialAge/BNav_EC2/DepthDuration/v2_depth_duration_MTurk/v2_DepthDuration_HTML.html#11,11,1366,651,1366,768,8-29-2023,12-17-30,35,depth_duration_stimuli/000635_2014-06-08_16-38-42_260595134347_rgbf000106-resize_1/000635_2014-06-08_16-38-42_260595134347_rgbf000106-resize_1-target.png,83,2.074,5,3474,82,feet,jsons/VE83_randls_76_rotated.json,830701,1204919,36,Man
35,537441,DepthScenes,duration_manipulation_targetAtFixation,jsons/VE83_randls_76_rotated.json,http://54.235.29.9/FacialAge/BNav_EC2/DepthDuration/v2_depth_duration_MTurk/v2_DepthDuration_HTML.html#11,11,1366,651,1366,768,8-29-2023,12-17-30,36,depth_duration_stimuli/002279_2014-06-28_18-55-32_260595134347_rgbf000040-resize_5/002279_2014-06-28_18-55-32_260595134347_rgbf000040-resize_5-target.png,83,1.5043333333333,3,3145,83,feet,jsons/VE83_randls_76_rotated.json,830701,1204919,36,Man
36,537441,DepthScenes,duration_manipulation_targetAtFixation,jsons/VE83_randls_76_rotated.json,http://54.235.29.9/FacialAge/BNav_EC2/DepthDuration/v2_depth_duration_MTurk/v2_DepthDuration_HTML.html#11,11,1366,651,1366,768,8-29-2023,12-17-30,37,depth_duration_stimuli/000191_2014-05-12_17-07-38_260595134347_rgbf000199-resize_0/000191_2014-05-12_17-07-38_260595134347_rgbf000199-resize_0-target.png,83,3.7995,8,4546,82,feet,jsons/VE83_randls_76_rotated.json,830701,1204919,36,Man
37,537441,DepthScenes,duration_manipulation_targetAtFixation,jsons/VE83_randls_76_rotated.json,http://54.235.29.9/FacialAge/BNav_EC2/DepthDuration/v2_depth_duration_MTurk/v2_DepthDuration_HTML.html#11,11,1366,651,1366,768,8-29-2023,12-17-30,38,depth_duration_stimuli/000493_2014-06-09_21-01-18_260595134347_rgbf000196-resize_3/000493_2014-06-09_21-01-18_260595134347_rgbf000196-resize_3-target.png,83,3.44,4,3681,82,feet,jsons/VE83_randls_76_rotated.json,830701,1204919,36,Man
38,537441,DepthScenes,duration_manipulation_targetAtFixation,jsons/VE83_randls_76_rotated.json,http://54.235.29.9/FacialAge/BNav_EC2/DepthDuration/v2_depth_duration_MTurk/v2_DepthDuration_HTML.html#11,11,1366,651,1366,768,8-29-2023,12-17-30,39,depth_duration_stimuli/003490_2014-05-21_15-50-11_094959634447_rgbf000101-resize_3/003490_2014-05-21_15-50-11_094959634447_rgbf000101-resize_3-target.png,83,3.6445,5,3196,83,feet,jsons/VE83_randls_76_rotated.json,830701,1204919,36,Man
39,537441,DepthScenes,duration_manipulation_targetAtFixation,jsons/VE83_randls_76_rotated.json,http://54.235.29.9/FacialAge/BNav_EC2/DepthDuration/v2_depth_duration_MTurk/v2_DepthDuration_HTML.html#11,11,1366,651,1366,768,8-29-2023,12-17-30,40,depth_duration_stimuli/001175_2014-06-17_15-45-55_260595134347_rgbf000129-resize_4/001175_2014-06-17_15-45-55_260595134347_rgbf000129-resize_4-target.png,83,4.255,8,3553,83,feet,jsons/VE83_randls_76_rotated.json,830701,1204919,36,Man
40,537441,DepthScenes,duration_manipulation_targetAtFixation,jsons/VE83_randls_76_rotated.json,http://54.235.29.9/FacialAge/BNav_EC2/DepthDuration/v2_depth_duration_MTurk/v2_DepthDuration_HTML.html#11,11,1366,651,1366,768,8-29-2023,12-17-30,41,depth_duration_stimuli/003010_2014-06-15_12-54-35_094959634447_rgbf000112-resize_0/003010_2014-06-15_12-54-35_094959634447_rgbf000112-resize_0-target.png,83,3.1185,5,3386,83,feet,jsons/VE83_randls_76_rotated.json,830701,1204919,36,Man
41,537441,DepthScenes,duration_manipulation_targetAtFixation,jsons/VE83_randls_76_rotated.json,http://54.235.29.9/FacialAge/BNav_EC2/DepthDuration/v2_depth_duration_MTurk/v2_DepthDuration_HTML.html#11,11,1366,651,1366,768,8-29-2023,12-17-30,42,depth_duration_stimuli/001810_2014-06-26_20-51-35_260595134347_rgbf000040-resize_3/001810_2014-06-26_20-51-35_260595134347_rgbf000040-resize_3-target.png,83,2.2525,5,6835,84,feet,jsons/VE83_randls_76_rotated.json,830701,1204919,36,Man
42,537441,DepthScenes,duration_manipulation_targetAtFixation,jsons/VE83_randls_76_rotated.json,http://54.235.29.9/FacialAge/BNav_EC2/DepthDuration/v2_depth_duration_MTurk/v2_DepthDuration_HTML.html#11,11,1366,651,1366,768,8-29-2023,12-17-30,43,depth_duration_stimuli/001815_2014-06-26_20-52-55_260595134347_rgbf000020-resize_0/001815_2014-06-26_20-52-55_260595134347_rgbf000020-resize_0-target.png,83,3.3865,6,3354,82,feet,jsons/VE83_randls_76_rotated.json,830701,1204919,36,Man
43,537441,DepthScenes,duration_manipulation_targetAtFixation,jsons/VE83_randls_76_rotated.json,http://54.235.29.9/FacialAge/BNav_EC2/DepthDuration/v2_depth_duration_MTurk/v2_DepthDuration_HTML.html#11,11,1366,651,1366,768,8-29-2023,12-17-30,44,depth_duration_stimuli/001808_2014-06-26_20-50-58_260595134347_rgbf000029-resize_1/001808_2014-06-26_20-50-58_260595134347_rgbf000029-resize_1-target.png,83,4.249,9,4554,82,feet,jsons/VE83_randls_76_rotated.json,830701,1204919,36,Man
44,537441,DepthScenes,duration_manipulation_targetAtFixation,jsons/VE83_randls_76_rotated.json,http://54.235.29.9/FacialAge/BNav_EC2/DepthDuration/v2_depth_duration_MTurk/v2_DepthDuration_HTML.html#11,11,1366,651,1366,768,8-29-2023,12-17-30,45,depth_duration_stimuli/000780_2014-06-08_22-28-29_260595134347_rgbf000126-resize_1/000780_2014-06-08_22-28-29_260595134347_rgbf000126-resize_1-target.png,83,3.3825,8,4203,83,feet,jsons/VE83_randls_76_rotated.json,830701,1204919,36,Man
45,537441,DepthScenes,duration_manipulation_targetAtFixation,jsons/VE83_randls_76_rotated.json,http://54.235.29.9/FacialAge/BNav_EC2/DepthDuration/v2_depth_duration_MTurk/v2_DepthDuration_HTML.html#11,11,1366,651,1366,768,8-29-2023,12-17-30,46,depth_duration_stimuli/002445_2014-06-28_20-32-16_260595134347_rgbf000029-resize_4/002445_2014-06-28_20-32-16_260595134347_rgbf000029-resize_4-target.png,83,2.5315,3,3371,83,feet,jsons/VE83_randls_76_rotated.json,830701,1204919,36,Man
46,537441,DepthScenes,duration_manipulation_targetAtFixation,jsons/VE83_randls_76_rotated.json,http://54.235.29.9/FacialAge/BNav_EC2/DepthDuration/v2_depth_duration_MTurk/v2_DepthDuration_HTML.html#11,11,1366,651,1366,768,8-29-2023,12-17-30,47,depth_duration_stimuli/001617_2014-06-20_11-35-32_260595134347_rgbf000066-resize_1/001617_2014-06-20_11-35-32_260595134347_rgbf000066-resize_1-target.png,83,3.7910000000000004,5,3393,82,feet,jsons/VE83_randls_76_rotated.json,830701,1204919,36,Man
47,537441,DepthScenes,duration_manipulation_targetAtFixation,jsons/VE83_randls_76_rotated.json,http://54.235.29.9/FacialAge/BNav_EC2/DepthDuration/v2_depth_duration_MTurk/v2_DepthDuration_HTML.html#11,11,1366,651,1366,768,8-29-2023,12-17-30,48,depth_duration_stimuli/001806_2014-06-26_20-50-20_260595134347_rgbf000091-resize_1/001806_2014-06-26_20-50-20_260595134347_rgbf000091-resize_1-target.png,83,2.7305,4,3378,82,feet,jsons/VE83_randls_76_rotated.json,830701,1204919,36,Man
48,537441,DepthScenes,duration_manipulation_targetAtFixation,jsons/VE83_randls_76_rotated.json,http://54.235.29.9/FacialAge/BNav_EC2/DepthDuration/v2_depth_duration_MTurk/v2_DepthDuration_HTML.html#11,11,1366,651,1366,768,8-29-2023,12-17-30,49,depth_duration_stimuli/001170_2014-06-17_15-43-44_260595134347_rgbf000096-resize_6/001170_2014-06-17_15-43-44_260595134347_rgbf000096-resize-original.jpg,83,1.1909999999999998,5,4953,83,feet,jsons/VE83_randls_76_rotated.json,830701,1204919,36,Man
49,537441,DepthScenes,duration_manipulation_targetAtFixation,jsons/VE83_randls_76_rotated.json,http://54.235.29.9/FacialAge/BNav_EC2/DepthDuration/v2_depth_duration_MTurk/v2_DepthDuration_HTML.html#11,11,1366,651,1366,768,8-29-2023,12-17-30,50,depth_duration_stimuli/000927_2014-06-09_16-32-30_260595134347_rgbf000123-resize_3/000927_2014-06-09_16-32-30_260595134347_rgbf000123-resize_3-target.png,83,2.6785,5,9618,83,feet,jsons/VE83_randls_76_rotated.json,830701,1204919,36,Man
50,537441,DepthScenes,duration_manipulation_targetAtFixation,jsons/VE83_randls_76_rotated.json,http://54.235.29.9/FacialAge/BNav_EC2/DepthDuration/v2_depth_duration_MTurk/v2_DepthDuration_HTML.html#11,11,1366,651,1366,768,8-29-2023,12-17-30,51,depth_duration_stimuli/001110_2014-06-15_17-25-28_260595134347_rgbf000150-resize_1/001110_2014-06-15_17-25-28_260595134347_rgbf000150-resize_1-target.png,83,1.7115,4,3930,83,feet,jsons/VE83_randls_76_rotated.json,830701,1204919,36,Man
51,537441,DepthScenes,duration_manipulation_targetAtFixation,jsons/VE83_randls_76_rotated.json,http://54.235.29.9/FacialAge/BNav_EC2/DepthDuration/v2_depth_duration_MTurk/v2_DepthDuration_HTML.html#11,11,1366,651,1366,768,8-29-2023,12-17-30,52,depth_duration_stimuli/002758_2014-06-22_19-11-20_094959634447_rgbf000128-resize_1/002758_2014-06-22_19-11-20_094959634447_rgbf000128-resize_1-target.png,83,2.555,4,3724,83,feet,jsons/VE83_randls_76_rotated.json,830701,1204919,36,Man
52,537441,DepthScenes,duration_manipulation_targetAtFixation,jsons/VE83_randls_76_rotated.json,http://54.235.29.9/FacialAge/BNav_EC2/DepthDuration/v2_depth_duration_MTurk/v2_DepthDuration_HTML.html#11,11,1366,651,1366,768,8-29-2023,12-17-30,53,depth_duration_stimuli/002630_2014-06-24_14-47-50_094959634447_rgbf000055-resize_1/002630_2014-06-24_14-47-50_094959634447_rgbf000055-resize_1-target.png,83,3.0095,8,3338,84,feet,jsons/VE83_randls_76_rotated.json,830701,1204919,36,Man
53,537441,DepthScenes,duration_manipulation_targetAtFixation,jsons/VE83_randls_76_rotated.json,http://54.235.29.9/FacialAge/BNav_EC2/DepthDuration/v2_depth_duration_MTurk/v2_DepthDuration_HTML.html#11,11,1366,651,1366,768,8-29-2023,12-17-30,54,depth_duration_stimuli/002875_2014-06-01_15-19-00_094959634447_rgbf000151-resize_1/002875_2014-06-01_15-19-00_094959634447_rgbf000151-resize_1-target.png,83,1.9675,6,4715,83,feet,jsons/VE83_randls_76_rotated.json,830701,1204919,36,Man
54,537441,DepthScenes,duration_manipulation_targetAtFixation,jsons/VE83_randls_76_rotated.json,http://54.235.29.9/FacialAge/BNav_EC2/DepthDuration/v2_depth_duration_MTurk/v2_DepthDuration_HTML.html#11,11,1366,651,1366,768,8-29-2023,12-17-30,55,depth_duration_stimuli/001011_2014-06-08_23-18-54_260595134347_rgbf000044-resize_4/001011_2014-06-08_23-18-54_260595134347_rgbf000044-resize_4-target.png,83,2.4730000000000003,4,4816,82,feet,jsons/VE83_randls_76_rotated.json,830701,1204919,36,Man
55,537441,DepthScenes,duration_manipulation_targetAtFixation,jsons/VE83_randls_76_rotated.json,http://54.235.29.9/FacialAge/BNav_EC2/DepthDuration/v2_depth_duration_MTurk/v2_DepthDuration_HTML.html#11,11,1366,651,1366,768,8-29-2023,12-17-30,56,depth_duration_stimuli/000691_2014-06-08_13-08-50_260595134347_rgbf000132-resize_3/000691_2014-06-08_13-08-50_260595134347_rgbf000132-resize_3-target.png,83,4.1530000000000005,5,3369,82,feet,jsons/VE83_randls_76_rotated.json,830701,1204919,36,Man
56,537441,DepthScenes,duration_manipulation_targetAtFixation,jsons/VE83_randls_76_rotated.json,http://54.235.29.9/FacialAge/BNav_EC2/DepthDuration/v2_depth_duration_MTurk/v2_DepthDuration_HTML.html#11,11,1366,651,1366,768,8-29-2023,12-17-30,57,depth_duration_stimuli/002213_2014-06-28_18-37-58_260595134347_rgbf000055-resize_1/002213_2014-06-28_18-37-58_260595134347_rgbf000055-resize_1-target.png,83,3.62,8,8321,82,feet,jsons/VE83_randls_76_rotated.json,830701,1204919,36,Man
57,537441,DepthScenes,duration_manipulation_targetAtFixation,jsons/VE83_randls_76_rotated.json,http://54.235.29.9/FacialAge/BNav_EC2/DepthDuration/v2_depth_duration_MTurk/v2_DepthDuration_HTML.html#11,11,1366,651,1366,768,8-29-2023,12-17-30,58,depth_duration_stimuli/002805_2014-06-22_19-54-03_094959634447_rgbf000079-resize_1/002805_2014-06-22_19-54-03_094959634447_rgbf000079-resize_1-target.png,83,3.1439999999999997,8,3177,82,feet,jsons/VE83_randls_76_rotated.json,830701,1204919,36,Man
58,537441,DepthScenes,duration_manipulation_targetAtFixation,jsons/VE83_randls_76_rotated.json,http://54.235.29.9/FacialAge/BNav_EC2/DepthDuration/v2_depth_duration_MTurk/v2_DepthDuration_HTML.html#11,11,1366,651,1366,768,8-29-2023,12-17-30,59,depth_duration_stimuli/000906_2014-06-08_13-35-43_260595134347_rgbf000155-resize_1/000906_2014-06-08_13-35-43_260595134347_rgbf000155-resize_1-target.png,83,2.8489999999999998,9,2907,83,feet,jsons/VE83_randls_76_rotated.json,830701,1204919,36,Man
59,537441,DepthScenes,duration_manipulation_targetAtFixation,jsons/VE83_randls_76_rotated.json,http://54.235.29.9/FacialAge/BNav_EC2/DepthDuration/v2_depth_duration_MTurk/v2_DepthDuration_HTML.html#11,11,1366,651,1366,768,8-29-2023,12-17-30,60,depth_duration_stimuli/001032_2014-06-08_13-23-17_260595134347_rgbf000021-resize_3/001032_2014-06-08_13-23-17_260595134347_rgbf000021-resize_3-target.png,83,3.2725,5,3347,84,feet,jsons/VE83_randls_76_rotated.json,830701,1204919,36,Man
60,537441,DepthScenes,duration_manipulation_targetAtFixation,jsons/VE83_randls_76_rotated.json,http://54.235.29.9/FacialAge/BNav_EC2/DepthDuration/v2_depth_duration_MTurk/v2_DepthDuration_HTML.html#11,11,1366,651,1366,768,8-29-2023,12-17-30,61,depth_duration_stimuli/001059_2014-06-08_21-53-27_260595134347_rgbf000061-resize_4/001059_2014-06-08_21-53-27_260595134347_rgbf000061-resize_4-target.png,83,2.4185,5,3394,82,feet,jsons/VE83_randls_76_rotated.json,830701,1204919,36,Man
61,537441,DepthScenes,duration_manipulation_targetAtFixation,jsons/VE83_randls_76_rotated.json,http://54.235.29.9/FacialAge/BNav_EC2/DepthDuration/v2_depth_duration_MTurk/v2_DepthDuration_HTML.html#11,11,1366,651,1366,768,8-29-2023,12-17-30,62,depth_duration_stimuli/002639_2014-06-24_14-51-37_094959634447_rgbf000074-resize_4/002639_2014-06-24_14-51-37_094959634447_rgbf000074-resize_4-target.png,83,4.0375,6,3146,82,feet,jsons/VE83_randls_76_rotated.json,830701,1204919,36,Man
62,537441,DepthScenes,duration_manipulation_targetAtFixation,jsons/VE83_randls_76_rotated.json,http://54.235.29.9/FacialAge/BNav_EC2/DepthDuration/v2_depth_duration_MTurk/v2_DepthDuration_HTML.html#11,11,1366,651,1366,768,8-29-2023,12-17-30,63,depth_duration_stimuli/003292_2014-05-14_21-53-49_094959634447_rgbf000100-resize_2/003292_2014-05-14_21-53-49_094959634447_rgbf000100-resize_2-target.png,83,3.4815,5,13283,83,feet,jsons/VE83_randls_76_rotated.json,830701,1204919,36,Man
63,537441,DepthScenes,duration_manipulation_targetAtFixation,jsons/VE83_randls_76_rotated.json,http://54.235.29.9/FacialAge/BNav_EC2/DepthDuration/v2_depth_duration_MTurk/v2_DepthDuration_HTML.html#11,11,1366,651,1366,768,8-29-2023,12-17-30,64,depth_duration_stimuli/000103_2014-05-14_22-01-17_260595134347_rgbf000152-resize_5/000103_2014-05-14_22-01-17_260595134347_rgbf000152-resize_5-target.png,83,1.993,5,3873,83,feet,jsons/VE83_randls_76_rotated.json,830701,1204919,36,Man
64,537441,DepthScenes,duration_manipulation_targetAtFixation,jsons/VE83_randls_76_rotated.json,http://54.235.29.9/FacialAge/BNav_EC2/DepthDuration/v2_depth_duration_MTurk/v2_DepthDuration_HTML.html#11,11,1366,651,1366,768,8-29-2023,12-17-30,65,depth_duration_stimuli/001555_2014-06-20_17-12-10_260595134347_rgbf000065-resize_4/001555_2014-06-20_17-12-10_260595134347_rgbf000065-resize_4-target.png,83,1.633,4,3123,83,feet,jsons/VE83_randls_76_rotated.json,830701,1204919,36,Man
65,537441,DepthScenes,duration_manipulation_targetAtFixation,jsons/VE83_randls_76_rotated.json,http://54.235.29.9/FacialAge/BNav_EC2/DepthDuration/v2_depth_duration_MTurk/v2_DepthDuration_HTML.html#11,11,1366,651,1366,768,8-29-2023,12-17-30,66,depth_duration_stimuli/001540_2014-06-20_17-01-05_260595134347_rgbf000086-resize_2/001540_2014-06-20_17-01-05_260595134347_rgbf000086-resize-original.jpg,83,1.459,8,3649,82,feet,jsons/VE83_randls_76_rotated.json,830701,1204919,36,Man
66,537441,DepthScenes,duration_manipulation_targetAtFixation,jsons/VE83_randls_76_rotated.json,http://54.235.29.9/FacialAge/BNav_EC2/DepthDuration/v2_depth_duration_MTurk/v2_DepthDuration_HTML.html#11,11,1366,651,1366,768,8-29-2023,12-17-30,67,depth_duration_stimuli/000709_2014-06-08_13-51-55_260595134347_rgbf000068-resize_3/000709_2014-06-08_13-51-55_260595134347_rgbf000068-resize_3-target.png,83,1.8030000000000002,5,3161,82,feet,jsons/VE83_randls_76_rotated.json,830701,1204919,36,Man
67,537441,DepthScenes,duration_manipulation_targetAtFixation,jsons/VE83_randls_76_rotated.json,http://54.235.29.9/FacialAge/BNav_EC2/DepthDuration/v2_depth_duration_MTurk/v2_DepthDuration_HTML.html#11,11,1366,651,1366,768,8-29-2023,12-17-30,68,depth_duration_stimuli/002057_2014-06-24_21-00-13_260595134347_rgbf000120-resize_1/002057_2014-06-24_21-00-13_260595134347_rgbf000120-resize_1-target.png,83,2.967,6,3850,82,feet,jsons/VE83_randls_76_rotated.json,830701,1204919,36,Man
68,537441,DepthScenes,duration_manipulation_targetAtFixation,jsons/VE83_randls_76_rotated.json,http://54.235.29.9/FacialAge/BNav_EC2/DepthDuration/v2_depth_duration_MTurk/v2_DepthDuration_HTML.html#11,11,1366,651,1366,768,8-29-2023,12-17-30,69,depth_duration_stimuli/001136_2014-06-17_15-19-41_260595134347_rgbf000076-resize_3/001136_2014-06-17_15-19-41_260595134347_rgbf000076-resize_3-target.png,83,1.8655,4,3219,84,feet,jsons/VE83_randls_76_rotated.json,830701,1204919,36,Man
69,537441,DepthScenes,duration_manipulation_targetAtFixation,jsons/VE83_randls_76_rotated.json,http://54.235.29.9/FacialAge/BNav_EC2/DepthDuration/v2_depth_duration_MTurk/v2_DepthDuration_HTML.html#11,11,1366,651,1366,768,8-29-2023,12-17-30,70,depth_duration_stimuli/001164_2014-06-17_15-35-46_260595134347_rgbf000085-resize_3/001164_2014-06-17_15-35-46_260595134347_rgbf000085-resize_3-target.png,83,2.354,7,3889,82,feet,jsons/VE83_randls_76_rotated.json,830701,1204919,36,Man
70,537441,DepthScenes,duration_manipulation_targetAtFixation,jsons/VE83_randls_76_rotated.json,http://54.235.29.9/FacialAge/BNav_EC2/DepthDuration/v2_depth_duration_MTurk/v2_DepthDuration_HTML.html#11,11,1366,651,1366,768,8-29-2023,12-17-30,71,depth_duration_stimuli/002637_2014-06-24_14-51-13_094959634447_rgbf000066-resize_4/002637_2014-06-24_14-51-13_094959634447_rgbf000066-resize_4-target.png,83,1.9955,5,2980,83,feet,jsons/VE83_randls_76_rotated.json,830701,1204919,36,Man
71,537441,DepthScenes,duration_manipulation_targetAtFixation,jsons/VE83_randls_76_rotated.json,http://54.235.29.9/FacialAge/BNav_EC2/DepthDuration/v2_depth_duration_MTurk/v2_DepthDuration_HTML.html#11,11,1366,651,1366,768,8-29-2023,12-17-30,72,depth_duration_stimuli/003534_2014-05-22_15-06-10_094959634447_rgbf000102-resize_4/003534_2014-05-22_15-06-10_094959634447_rgbf000102-resize_4-target.png,83,1.426,2,2976,82,feet,jsons/VE83_randls_76_rotated.json,830701,1204919,36,Man
72,537441,DepthScenes,duration_manipulation_targetAtFixation,jsons/VE83_randls_76_rotated.json,http://54.235.29.9/FacialAge/BNav_EC2/DepthDuration/v2_depth_duration_MTurk/v2_DepthDuration_HTML.html#11,11,1366,651,1366,768,8-29-2023,12-17-30,73,depth_duration_stimuli/002136_2014-06-25_21-18-03_260595134347_rgbf000109-resize_3/002136_2014-06-25_21-18-03_260595134347_rgbf000109-resize_3-target.png,83,1.9569999999999999,4,3226,84,feet,jsons/VE83_randls_76_rotated.json,830701,1204919,36,Man
73,537441,DepthScenes,duration_manipulation_targetAtFixation,jsons/VE83_randls_76_rotated.json,http://54.235.29.9/FacialAge/BNav_EC2/DepthDuration/v2_depth_duration_MTurk/v2_DepthDuration_HTML.html#11,11,1366,651,1366,768,8-29-2023,12-17-30,74,depth_duration_stimuli/002964_2014-06-08_17-46-11_094959634447_rgbf000091-resize_4/002964_2014-06-08_17-46-11_094959634447_rgbf000091-resize_4-target.png,83,1.6909999999999998,3,3363,84,feet,jsons/VE83_randls_76_rotated.json,830701,1204919,36,Man
74,537441,DepthScenes,duration_manipulation_targetAtFixation,jsons/VE83_randls_76_rotated.json,http://54.235.29.9/FacialAge/BNav_EC2/DepthDuration/v2_depth_duration_MTurk/v2_DepthDuration_HTML.html#11,11,1366,651,1366,768,8-29-2023,12-17-30,75,depth_duration_stimuli/000854_2014-06-09_19-43-13_260595134347_rgbf000066-resize_0/000854_2014-06-09_19-43-13_260595134347_rgbf000066-resize_0-target.png,83,3.068,5,3522,83,feet,jsons/VE83_randls_76_rotated.json,830701,1204919,36,Man
75,537441,DepthScenes,duration_manipulation_targetAtFixation,jsons/VE83_randls_76_rotated.json,http://54.235.29.9/FacialAge/BNav_EC2/DepthDuration/v2_depth_duration_MTurk/v2_DepthDuration_HTML.html#11,11,1366,651,1366,768,8-29-2023,12-17-30,76,depth_duration_stimuli/000758_2014-06-08_22-05-08_260595134347_rgbf000085-resize_0/000758_2014-06-08_22-05-08_260595134347_rgbf000085-resize_0-target.png,83,3.3810000000000002,8,3938,83,feet,jsons/VE83_randls_76_rotated.json,830701,1204919,36,Man
76,537441,DepthScenes,duration_manipulation_targetAtFixation,jsons/VE83_randls_76_rotated.json,http://54.235.29.9/FacialAge/BNav_EC2/DepthDuration/v2_depth_duration_MTurk/v2_DepthDuration_HTML.html#11,11,1366,651,1366,768,8-29-2023,12-17-30,77,depth_duration_stimuli/003081_2014-06-15_15-19-16_094959634447_rgbf000150-resize_1/003081_2014-06-15_15-19-16_094959634447_rgbf000150-resize_1-target.png,83,3.9125,8,3522,83,feet,jsons/VE83_randls_76_rotated.json,830701,1204919,36,Man
77,537441,DepthScenes,duration_manipulation_targetAtFixation,jsons/VE83_randls_76_rotated.json,http://54.235.29.9/FacialAge/BNav_EC2/DepthDuration/v2_depth_duration_MTurk/v2_DepthDuration_HTML.html#11,11,1366,651,1366,768,8-29-2023,12-17-30,78,depth_duration_stimuli/001417_2014-06-19_16-25-36_260595134347_rgbf000115-resize_5/001417_2014-06-19_16-25-36_260595134347_rgbf000115-resize_5-target.png,83,4.6255,6,3337,82,feet,jsons/VE83_randls_76_rotated.json,830701,1204919,36,Man
78,537441,DepthScenes,duration_manipulation_targetAtFixation,jsons/VE83_randls_76_rotated.json,http://54.235.29.9/FacialAge/BNav_EC2/DepthDuration/v2_depth_duration_MTurk/v2_DepthDuration_HTML.html#11,11,1366,651,1366,768,8-29-2023,12-17-30,79,depth_duration_stimuli/001094_2014-06-15_17-36-00_260595134347_rgbf000205-resize_0/001094_2014-06-15_17-36-00_260595134347_rgbf000205-resize_0-target.png,83,4.2175,9,3505,82,feet,jsons/VE83_randls_76_rotated.json,830701,1204919,36,Man
79,537441,DepthScenes,duration_manipulation_targetAtFixation,jsons/VE83_randls_76_rotated.json,http://54.235.29.9/FacialAge/BNav_EC2/DepthDuration/v2_depth_duration_MTurk/v2_DepthDuration_HTML.html#11,11,1366,651,1366,768,8-29-2023,12-17-30,80,depth_duration_stimuli/000692_2014-06-08_13-09-42_260595134347_rgbf000199-resize_2/000692_2014-06-08_13-09-42_260595134347_rgbf000199-resize_2-target.png,83,3.661,9,3516,84,feet,jsons/VE83_randls_76_rotated.json,830701,1204919,36,Man
80,537441,DepthScenes,duration_manipulation_targetAtFixation,jsons/VE83_randls_76_rotated.json,http://54.235.29.9/FacialAge/BNav_EC2/DepthDuration/v2_depth_duration_MTurk/v2_DepthDuration_HTML.html#11,11,1366,651,1366,768,8-29-2023,12-17-30,81,depth_duration_stimuli/001516_2014-06-20_16-25-09_260595134347_rgbf000076-resize_2/001516_2014-06-20_16-25-09_260595134347_rgbf000076-resize_2-target.png,83,1.7445,5,3106,82,feet,jsons/VE83_randls_76_rotated.json,830701,1204919,36,Man
81,537441,DepthScenes,duration_manipulation_targetAtFixation,jsons/VE83_randls_76_rotated.json,http://54.235.29.9/FacialAge/BNav_EC2/DepthDuration/v2_depth_duration_MTurk/v2_DepthDuration_HTML.html#11,11,1366,651,1366,768,8-29-2023,12-17-30,82,depth_duration_stimuli/002118_2014-06-25_20-32-08_260595134347_rgbf000078-resize_1/002118_2014-06-25_20-32-08_260595134347_rgbf000078-resize_1-target.png,83,2.6460000000000004,4,6882,84,feet,jsons/VE83_randls_76_rotated.json,830701,1204919,36,Man
82,537441,DepthScenes,duration_manipulation_targetAtFixation,jsons/VE83_randls_76_rotated.json,http://54.235.29.9/FacialAge/BNav_EC2/DepthDuration/v2_depth_duration_MTurk/v2_DepthDuration_HTML.html#11,11,1366,651,1366,768,8-29-2023,12-17-30,83,depth_duration_stimuli/001392_2014-06-19_16-07-59_260595134347_rgbf000046-resize_1/001392_2014-06-19_16-07-59_260595134347_rgbf000046-resize_1-target.png,83,4.135,8,3298,83,feet,jsons/VE83_randls_76_rotated.json,830701,1204919,36,Man
83,537441,DepthScenes,duration_manipulation_targetAtFixation,jsons/VE83_randls_76_rotated.json,http://54.235.29.9/FacialAge/BNav_EC2/DepthDuration/v2_depth_duration_MTurk/v2_DepthDuration_HTML.html#11,11,1366,651,1366,768,8-29-2023,12-17-30,84,depth_duration_stimuli/001570_2014-06-20_17-21-09_260595134347_rgbf000135-resize_4/001570_2014-06-20_17-21-09_260595134347_rgbf000135-resize_4-target.png,83,4.467,7,3099,84,feet,jsons/VE83_randls_76_rotated.json,830701,1204919,36,Man
84,537441,DepthScenes,duration_manipulation_targetAtFixation,jsons/VE83_randls_76_rotated.json,http://54.235.29.9/FacialAge/BNav_EC2/DepthDuration/v2_depth_duration_MTurk/v2_DepthDuration_HTML.html#11,11,1366,651,1366,768,8-29-2023,12-17-30,85,depth_duration_stimuli/001828_2014-06-26_21-40-03_260595134347_rgbf000024-resize_0/001828_2014-06-26_21-40-03_260595134347_rgbf000024-resize_0-target.png,83,4.8260000000000005,6,3140,83,feet,jsons/VE83_randls_76_rotated.json,830701,1204919,36,Man
85,537441,DepthScenes,duration_manipulation_targetAtFixation,jsons/VE83_randls_76_rotated.json,http://54.235.29.9/FacialAge/BNav_EC2/DepthDuration/v2_depth_duration_MTurk/v2_DepthDuration_HTML.html#11,11,1366,651,1366,768,8-29-2023,12-17-30,86,depth_duration_stimuli/000009_2014-05-26_14-32-05_260595134347_rgbf000034-resize_3/000009_2014-05-26_14-32-05_260595134347_rgbf000034-resize_3-target.png,83,3.8715,8,3513,83,feet,jsons/VE83_randls_76_rotated.json,830701,1204919,36,Man
86,537441,DepthScenes,duration_manipulation_targetAtFixation,jsons/VE83_randls_76_rotated.json,http://54.235.29.9/FacialAge/BNav_EC2/DepthDuration/v2_depth_duration_MTurk/v2_DepthDuration_HTML.html#11,11,1366,651,1366,768,8-29-2023,12-17-30,87,depth_duration_stimuli/002340_2014-06-28_20-05-46_260595134347_rgbf000113-resize_0/002340_2014-06-28_20-05-46_260595134347_rgbf000113-resize_0-target.png,83,2.4735,7,3219,84,feet,jsons/VE83_randls_76_rotated.json,830701,1204919,36,Man
87,537441,DepthScenes,duration_manipulation_targetAtFixation,jsons/VE83_randls_76_rotated.json,http://54.235.29.9/FacialAge/BNav_EC2/DepthDuration/v2_depth_duration_MTurk/v2_DepthDuration_HTML.html#11,11,1366,651,1366,768,8-29-2023,12-17-30,88,depth_duration_stimuli/001016_2014-06-09_16-16-10_260595134347_rgbf000112-resize_5/001016_2014-06-09_16-16-10_260595134347_rgbf000112-resize_5-target.png,83,1.6565,6,3546,82,feet,jsons/VE83_randls_76_rotated.json,830701,1204919,36,Man
88,537441,DepthScenes,duration_manipulation_targetAtFixation,jsons/VE83_randls_76_rotated.json,http://54.235.29.9/FacialAge/BNav_EC2/DepthDuration/v2_depth_duration_MTurk/v2_DepthDuration_HTML.html#11,11,1366,651,1366,768,8-29-2023,12-17-30,89,depth_duration_stimuli/002660_2014-06-13_15-44-18_094959634447_rgbf001878-resize_2/002660_2014-06-13_15-44-18_094959634447_rgbf001878-resize_2-target.png,83,3.576,6,3138,82,feet,jsons/VE83_randls_76_rotated.json,830701,1204919,36,Man
89,537441,DepthScenes,duration_manipulation_targetAtFixation,jsons/VE83_randls_76_rotated.json,http://54.235.29.9/FacialAge/BNav_EC2/DepthDuration/v2_depth_duration_MTurk/v2_DepthDuration_HTML.html#11,11,1366,651,1366,768,8-29-2023,12-17-30,90,depth_duration_stimuli/002153_2014-06-25_21-27-18_260595134347_rgbf000038-resize_5/002153_2014-06-25_21-27-18_260595134347_rgbf000038-resize_5-target.png,83,2.505,4,4169,82,feet,jsons/VE83_randls_76_rotated.json,830701,1204919,36,Man
90,537441,DepthScenes,duration_manipulation_targetAtFixation,jsons/VE83_randls_76_rotated.json,http://54.235.29.9/FacialAge/BNav_EC2/DepthDuration/v2_depth_duration_MTurk/v2_DepthDuration_HTML.html#11,11,1366,651,1366,768,8-29-2023,12-17-30,91,depth_duration_stimuli/000409_2014-06-04_19-23-33_260595134347_rgbf000067-resize_0/000409_2014-06-04_19-23-33_260595134347_rgbf000067-resize_0-target.png,83,3.7335,5,3074,82,feet,jsons/VE83_randls_76_rotated.json,830701,1204919,36,Man
91,537441,DepthScenes,duration_manipulation_targetAtFixation,jsons/VE83_randls_76_rotated.json,http://54.235.29.9/FacialAge/BNav_EC2/DepthDuration/v2_depth_duration_MTurk/v2_DepthDuration_HTML.html#11,11,1366,651,1366,768,8-29-2023,12-17-30,92,depth_duration_stimuli/002663_2014-06-13_15-50-26_094959634447_rgbf000075-resize_1/002663_2014-06-13_15-50-26_094959634447_rgbf000075-resize_1-target.png,83,4.7495,8,3196,84,feet,jsons/VE83_randls_76_rotated.json,830701,1204919,36,Man
92,537441,DepthScenes,duration_manipulation_targetAtFixation,jsons/VE83_randls_76_rotated.json,http://54.235.29.9/FacialAge/BNav_EC2/DepthDuration/v2_depth_duration_MTurk/v2_DepthDuration_HTML.html#11,11,1366,651,1366,768,8-29-2023,12-17-30,93,depth_duration_stimuli/002657_2014-06-13_15-29-54_094959634447_rgbf000150-resize_1/002657_2014-06-13_15-29-54_094959634447_rgbf000150-resize_1-target.png,83,4.919,6,4009,83,feet,jsons/VE83_randls_76_rotated.json,830701,1204919,36,Man
93,537441,DepthScenes,duration_manipulation_targetAtFixation,jsons/VE83_randls_76_rotated.json,http://54.235.29.9/FacialAge/BNav_EC2/DepthDuration/v2_depth_duration_MTurk/v2_DepthDuration_HTML.html#11,11,1366,651,1366,768,8-29-2023,12-17-30,94,depth_duration_stimuli/002375_2014-06-28_20-13-44_260595134347_rgbf000032-resize_1/002375_2014-06-28_20-13-44_260595134347_rgbf000032-resize_1-target.png,83,4.0175,6,7499,83,feet,jsons/VE83_randls_76_rotated.json,830701,1204919,36,Man
94,537441,DepthScenes,duration_manipulation_targetAtFixation,jsons/VE83_randls_76_rotated.json,http://54.235.29.9/FacialAge/BNav_EC2/DepthDuration/v2_depth_duration_MTurk/v2_DepthDuration_HTML.html#11,11,1366,651,1366,768,8-29-2023,12-17-30,95,depth_duration_stimuli/002103_2014-06-25_20-00-40_260595134347_rgbf000049-resize_0/002103_2014-06-25_20-00-40_260595134347_rgbf000049-resize_0-target.png,83,4.105,8,3777,83,feet,jsons/VE83_randls_76_rotated.json,830701,1204919,36,Man
95,537441,DepthScenes,duration_manipulation_targetAtFixation,jsons/VE83_randls_76_rotated.json,http://54.235.29.9/FacialAge/BNav_EC2/DepthDuration/v2_depth_duration_MTurk/v2_DepthDuration_HTML.html#11,11,1366,651,1366,768,8-29-2023,12-17-30,96,depth_duration_stimuli/002039_2014-06-24_20-22-38_260595134347_rgbf000084-resize_1/002039_2014-06-24_20-22-38_260595134347_rgbf000084-resize_1-target.png,83,4.408,7,3995,83,feet,jsons/VE83_randls_76_rotated.json,830701,1204919,36,Man
96,537441,DepthScenes,duration_manipulation_targetAtFixation,jsons/VE83_randls_76_rotated.json,http://54.235.29.9/FacialAge/BNav_EC2/DepthDuration/v2_depth_duration_MTurk/v2_DepthDuration_HTML.html#11,11,1366,651,1366,768,8-29-2023,12-17-30,97,depth_duration_stimuli/001214_2014-06-17_16-13-55_260595134347_rgbf000111-resize_0/001214_2014-06-17_16-13-55_260595134347_rgbf000111-resize_0-target.png,83,2.6505,4,3099,83,feet,jsons/VE83_randls_76_rotated.json,830701,1204919,36,Man
97,537441,DepthScenes,duration_manipulation_targetAtFixation,jsons/VE83_randls_76_rotated.json,http://54.235.29.9/FacialAge/BNav_EC2/DepthDuration/v2_depth_duration_MTurk/v2_DepthDuration_HTML.html#11,11,1366,651,1366,768,8-29-2023,12-17-30,98,depth_duration_stimuli/000810_2014-06-08_17-20-01_260595134347_rgbf000105-resize_0/000810_2014-06-08_17-20-01_260595134347_rgbf000105-resize_0-target.png,83,1.4865,5,3739,85,feet,jsons/VE83_randls_76_rotated.json,830701,1204919,36,Man
98,537441,DepthScenes,duration_manipulation_targetAtFixation,jsons/VE83_randls_76_rotated.json,http://54.235.29.9/FacialAge/BNav_EC2/DepthDuration/v2_depth_duration_MTurk/v2_DepthDuration_HTML.html#11,11,1366,651,1366,768,8-29-2023,12-17-30,99,depth_duration_stimuli/001222_2014-06-17_16-24-06_260595134347_rgbf000073-resize_0/001222_2014-06-17_16-24-06_260595134347_rgbf000073-resize-original.jpg,83,1.4385,9,3041,82,feet,jsons/VE83_randls_76_rotated.json,830701,1204919,36,Man
99,537441,DepthScenes,duration_manipulation_targetAtFixation,jsons/VE83_randls_76_rotated.json,http://54.235.29.9/FacialAge/BNav_EC2/DepthDuration/v2_depth_duration_MTurk/v2_DepthDuration_HTML.html#11,11,1366,651,1366,768,8-29-2023,12-17-30,100,depth_duration_stimuli/000549_2014-06-08_22-10-24_260595134347_rgbf000247-resize_3/000549_2014-06-08_22-10-24_260595134347_rgbf000247-resize_3-target.png,83,1.841,2,2945,74,feet,jsons/VE83_randls_76_rotated.json,830701,1204919,36,Man
100,537441,DepthScenes,duration_manipulation_targetAtFixation,jsons/VE83_randls_76_rotated.json,http://54.235.29.9/FacialAge/BNav_EC2/DepthDuration/v2_depth_duration_MTurk/v2_DepthDuration_HTML.html#11,11,1366,651,1366,768,8-29-2023,12-17-30,101,depth_duration_stimuli/001055_2014-06-08_18-45-35_260595134347_rgbf000111-resize_4/001055_2014-06-08_18-45-35_260595134347_rgbf000111-resize_4-target.png,83,2.4290000000000003,5,3035,84,feet,jsons/VE83_randls_76_rotated.json,830701,1204919,36,Man
101,537441,DepthScenes,duration_manipulation_targetAtFixation,jsons/VE83_randls_76_rotated.json,http://54.235.29.9/FacialAge/BNav_EC2/DepthDuration/v2_depth_duration_MTurk/v2_DepthDuration_HTML.html#11,11,1366,651,1366,768,8-29-2023,12-17-30,102,depth_duration_stimuli/001584_2014-06-20_11-07-43_260595134347_rgbf000002-resize_1/001584_2014-06-20_11-07-43_260595134347_rgbf000002-resize_1-target.png,83,3.53,4,3018,82,feet,jsons/VE83_randls_76_rotated.json,830701,1204919,36,Man
102,537441,DepthScenes,duration_manipulation_targetAtFixation,jsons/VE83_randls_76_rotated.json,http://54.235.29.9/FacialAge/BNav_EC2/DepthDuration/v2_depth_duration_MTurk/v2_DepthDuration_HTML.html#11,11,1366,651,1366,768,8-29-2023,12-17-30,103,depth_duration_stimuli/003621_2014-05-23_18-06-08_094959634447_rgbf000101-resize_1/003621_2014-05-23_18-06-08_094959634447_rgbf000101-resize_1-target.png,83,3.9835,5,3323,83,feet,jsons/VE83_randls_76_rotated.json,830701,1204919,36,Man
103,537441,DepthScenes,duration_manipulation_targetAtFixation,jsons/VE83_randls_76_rotated.json,http://54.235.29.9/FacialAge/BNav_EC2/DepthDuration/v2_depth_duration_MTurk/v2_DepthDuration_HTML.html#11,11,1366,651,1366,768,8-29-2023,12-17-30,104,depth_duration_stimuli/002444_2014-06-28_20-32-08_260595134347_rgbf000027-resize_0/002444_2014-06-28_20-32-08_260595134347_rgbf000027-resize_0-target.png,83,4.388999999999999,7,3313,84,feet,jsons/VE83_randls_76_rotated.json,830701,1204919,36,Man
104,537441,DepthScenes,duration_manipulation_targetAtFixation,jsons/VE83_randls_76_rotated.json,http://54.235.29.9/FacialAge/BNav_EC2/DepthDuration/v2_depth_duration_MTurk/v2_DepthDuration_HTML.html#11,11,1366,651,1366,768,8-29-2023,12-17-30,105,depth_duration_stimuli/000436_2014-06-09_22-25-11_260595134347_rgbf000137-resize_1/000436_2014-06-09_22-25-11_260595134347_rgbf000137-resize_1-target.png,83,4.0705,5,4301,84,feet,jsons/VE83_randls_76_rotated.json,830701,1204919,36,Man
105,537441,DepthScenes,duration_manipulation_targetAtFixation,jsons/VE83_randls_76_rotated.json,http://54.235.29.9/FacialAge/BNav_EC2/DepthDuration/v2_depth_duration_MTurk/v2_DepthDuration_HTML.html#11,11,1366,651,1366,768,8-29-2023,12-17-30,106,depth_duration_stimuli/003338_2014-05-20_11-01-23_094959634447_rgbf000051-resize_6/003338_2014-05-20_11-01-23_094959634447_rgbf000051-resize_6-target.png,83,1.693,3,3200,82,feet,jsons/VE83_randls_76_rotated.json,830701,1204919,36,Man
106,537441,DepthScenes,duration_manipulation_targetAtFixation,jsons/VE83_randls_76_rotated.json,http://54.235.29.9/FacialAge/BNav_EC2/DepthDuration/v2_depth_duration_MTurk/v2_DepthDuration_HTML.html#11,11,1366,651,1366,768,8-29-2023,12-17-30,107,depth_duration_stimuli/002509_2014-06-24_13-19-22_094959634447_rgbf000077-resize_0/002509_2014-06-24_13-19-22_094959634447_rgbf000077-resize_0-target.png,83,1.3065,3,3132,83,feet,jsons/VE83_randls_76_rotated.json,830701,1204919,36,Man
107,537441,DepthScenes,duration_manipulation_targetAtFixation,jsons/VE83_randls_76_rotated.json,http://54.235.29.9/FacialAge/BNav_EC2/DepthDuration/v2_depth_duration_MTurk/v2_DepthDuration_HTML.html#11,11,1366,651,1366,768,8-29-2023,12-17-30,108,depth_duration_stimuli/002949_2014-06-26_15-57-42_094959634447_rgbf000079-resize_1/002949_2014-06-26_15-57-42_094959634447_rgbf000079-resize_1-target.png,83,1.8915,4,3000,83,feet,jsons/VE83_randls_76_rotated.json,830701,1204919,36,Man
108,537441,DepthScenes,duration_manipulation_targetAtFixation,jsons/VE83_randls_76_rotated.json,http://54.235.29.9/FacialAge/BNav_EC2/DepthDuration/v2_depth_duration_MTurk/v2_DepthDuration_HTML.html#11,11,1366,651,1366,768,8-29-2023,12-17-30,109,depth_duration_stimuli/000522_2014-06-08_13-35-06_260595134347_rgbf000244-resize_1/000522_2014-06-08_13-35-06_260595134347_rgbf000244-resize_1-target.png,83,2.3715,5,3035,83,feet,jsons/VE83_randls_76_rotated.json,830701,1204919,36,Man
109,537441,DepthScenes,duration_manipulation_targetAtFixation,jsons/VE83_randls_76_rotated.json,http://54.235.29.9/FacialAge/BNav_EC2/DepthDuration/v2_depth_duration_MTurk/v2_DepthDuration_HTML.html#11,11,1366,651,1366,768,8-29-2023,12-17-30,110,depth_duration_stimuli/001052_2014-06-08_18-24-54_260595134347_rgbf000130-resize_1/001052_2014-06-08_18-24-54_260595134347_rgbf000130-resize_1-target.png,83,4.1045,2,3387,84,feet,jsons/VE83_randls_76_rotated.json,830701,1204919,36,Man
110,537441,DepthScenes,duration_manipulation_targetAtFixation,jsons/VE83_randls_76_rotated.json,http://54.235.29.9/FacialAge/BNav_EC2/DepthDuration/v2_depth_duration_MTurk/v2_DepthDuration_HTML.html#11,11,1366,651,1366,768,8-29-2023,12-17-30,111,depth_duration_stimuli/002988_2014-06-15_12-24-20_094959634447_rgbf000150-resize_1/002988_2014-06-15_12-24-20_094959634447_rgbf000150-resize_1-target.png,83,4.7669999999999995,5,5529,83,feet,jsons/VE83_randls_76_rotated.json,830701,1204919,36,Man
111,537441,DepthScenes,duration_manipulation_targetAtFixation,jsons/VE83_randls_76_rotated.json,http://54.235.29.9/FacialAge/BNav_EC2/DepthDuration/v2_depth_duration_MTurk/v2_DepthDuration_HTML.html#11,11,1366,651,1366,768,8-29-2023,12-17-30,112,depth_duration_stimuli/000109_2014-05-14_23-41-52_260595134347_rgbf000035-resize_9/000109_2014-05-14_23-41-52_260595134347_rgbf000035-resize_9-target.png,83,1.3545,3,3106,84,feet,jsons/VE83_randls_76_rotated.json,830701,1204919,36,Man
112,537441,DepthScenes,duration_manipulation_targetAtFixation,jsons/VE83_randls_76_rotated.json,http://54.235.29.9/FacialAge/BNav_EC2/DepthDuration/v2_depth_duration_MTurk/v2_DepthDuration_HTML.html#11,11,1366,651,1366,768,8-29-2023,12-17-30,113,depth_duration_stimuli/000470_2014-06-09_19-42-40_260595134347_rgbf000094-resize_1/000470_2014-06-09_19-42-40_260595134347_rgbf000094-resize_1-target.png,83,1.831,4,19066,82,feet,jsons/VE83_randls_76_rotated.json,830701,1204919,36,Man
113,537441,DepthScenes,duration_manipulation_targetAtFixation,jsons/VE83_randls_76_rotated.json,http://54.235.29.9/FacialAge/BNav_EC2/DepthDuration/v2_depth_duration_MTurk/v2_DepthDuration_HTML.html#11,11,1366,651,1366,768,8-29-2023,12-17-30,114,depth_duration_stimuli/002209_2014-06-28_18-36-10_260595134347_rgbf000051-resize_1/002209_2014-06-28_18-36-10_260595134347_rgbf000051-resize_1-target.png,83,2.057,6,3245,84,feet,jsons/VE83_randls_76_rotated.json,830701,1204919,36,Man
114,537441,DepthScenes,duration_manipulation_targetAtFixation,jsons/VE83_randls_76_rotated.json,http://54.235.29.9/FacialAge/BNav_EC2/DepthDuration/v2_depth_duration_MTurk/v2_DepthDuration_HTML.html#11,11,1366,651,1366,768,8-29-2023,12-17-30,115,depth_duration_stimuli/002763_2014-06-22_19-13-10_094959634447_rgbf000075-resize_4/002763_2014-06-22_19-13-10_094959634447_rgbf000075-resize_4-target.png,83,1.68375,4,3106,84,feet,jsons/VE83_randls_76_rotated.json,830701,1204919,36,Man
115,537441,DepthScenes,duration_manipulation_targetAtFixation,jsons/VE83_randls_76_rotated.json,http://54.235.29.9/FacialAge/BNav_EC2/DepthDuration/v2_depth_duration_MTurk/v2_DepthDuration_HTML.html#11,11,1366,651,1366,768,8-29-2023,12-17-30,116,depth_duration_stimuli/001650_2014-06-20_12-09-00_260595134347_rgbf000087-resize_3/001650_2014-06-20_12-09-00_260595134347_rgbf000087-resize_3-target.png,83,1.9505,4,3289,83,feet,jsons/VE83_randls_76_rotated.json,830701,1204919,36,Man
116,537441,DepthScenes,duration_manipulation_targetAtFixation,jsons/VE83_randls_76_rotated.json,http://54.235.29.9/FacialAge/BNav_EC2/DepthDuration/v2_depth_duration_MTurk/v2_DepthDuration_HTML.html#11,11,1366,651,1366,768,8-29-2023,12-17-30,117,depth_duration_stimuli/000682_2014-06-08_23-14-58_260595134347_rgbf000041-resize_5/000682_2014-06-08_23-14-58_260595134347_rgbf000041-resize_5-target.png,83,2.7239999999999998,5,2683,84,feet,jsons/VE83_randls_76_rotated.json,830701,1204919,36,Man
117,537441,DepthScenes,duration_manipulation_targetAtFixation,jsons/VE83_randls_76_rotated.json,http://54.235.29.9/FacialAge/BNav_EC2/DepthDuration/v2_depth_duration_MTurk/v2_DepthDuration_HTML.html#11,11,1366,651,1366,768,8-29-2023,12-17-30,118,depth_duration_stimuli/002425_2014-06-28_20-27-29_260595134347_rgbf000031-resize_8/002425_2014-06-28_20-27-29_260595134347_rgbf000031-resize_8-target.png,83,3.8960000000000004,7,3170,84,feet,jsons/VE83_randls_76_rotated.json,830701,1204919,36,Man
118,537441,DepthScenes,duration_manipulation_targetAtFixation,jsons/VE83_randls_76_rotated.json,http://54.235.29.9/FacialAge/BNav_EC2/DepthDuration/v2_depth_duration_MTurk/v2_DepthDuration_HTML.html#11,11,1366,651,1366,768,8-29-2023,12-17-30,119,depth_duration_stimuli/000642_2014-06-08_16-59-25_260595134347_rgbf000098-resize_2/000642_2014-06-08_16-59-25_260595134347_rgbf000098-resize_2-target.png,83,2.8815,5,2987,83,feet,jsons/VE83_randls_76_rotated.json,830701,1204919,36,Man
119,537441,DepthScenes,duration_manipulation_targetAtFixation,jsons/VE83_randls_76_rotated.json,http://54.235.29.9/FacialAge/BNav_EC2/DepthDuration/v2_depth_duration_MTurk/v2_DepthDuration_HTML.html#11,11,1366,651,1366,768,8-29-2023,12-17-30,120,depth_duration_stimuli/000787_2014-06-08_22-33-53_260595134347_rgbf000175-resize_1/000787_2014-06-08_22-33-53_260595134347_rgbf000175-resize-original.jpg,83,4.784,4,3315,83,feet,jsons/VE83_randls_76_rotated.json,830701,1204919,36,Man
120,537441,DepthScenes,duration_manipulation_targetAtFixation,jsons/VE83_randls_76_rotated.json,http://54.235.29.9/FacialAge/BNav_EC2/DepthDuration/v2_depth_duration_MTurk/v2_DepthDuration_HTML.html#11,11,1366,651,1366,768,8-29-2023,12-17-30,121,depth_duration_stimuli/002199_2014-06-28_18-33-56_260595134347_rgbf000074-resize_0/002199_2014-06-28_18-33-56_260595134347_rgbf000074-resize_0-target.png,83,1.996,4,2617,82,feet,jsons/VE83_randls_76_rotated.json,830701,1204919,36,Man
121,537441,DepthScenes,duration_manipulation_targetAtFixation,jsons/VE83_randls_76_rotated.json,http://54.235.29.9/FacialAge/BNav_EC2/DepthDuration/v2_depth_duration_MTurk/v2_DepthDuration_HTML.html#11,11,1366,651,1366,768,8-29-2023,12-17-30,122,depth_duration_stimuli/001056_2014-06-08_18-46-44_260595134347_rgbf000068-resize_0/001056_2014-06-08_18-46-44_260595134347_rgbf000068-resize_0-target.png,83,2.6625,5,3001,82,feet,jsons/VE83_randls_76_rotated.json,830701,1204919,36,Man
122,537441,DepthScenes,duration_manipulation_targetAtFixation,jsons/VE83_randls_76_rotated.json,http://54.235.29.9/FacialAge/BNav_EC2/DepthDuration/v2_depth_duration_MTurk/v2_DepthDuration_HTML.html#11,11,1366,651,1366,768,8-29-2023,12-17-30,123,depth_duration_stimuli/001571_2014-06-20_17-21-32_260595134347_rgbf000089-resize_1/001571_2014-06-20_17-21-32_260595134347_rgbf000089-resize_1-target.png,83,1.86,4,2956,83,feet,jsons/VE83_randls_76_rotated.json,830701,1204919,36,Man
123,537441,DepthScenes,duration_manipulation_targetAtFixation,jsons/VE83_randls_76_rotated.json,http://54.235.29.9/FacialAge/BNav_EC2/DepthDuration/v2_depth_duration_MTurk/v2_DepthDuration_HTML.html#11,11,1366,651,1366,768,8-29-2023,12-17-30,124,depth_duration_stimuli/002272_2014-06-28_18-53-56_260595134347_rgbf000067-resize_2/002272_2014-06-28_18-53-56_260595134347_rgbf000067-resize_2-target.png,83,1.138,5,2915,83,feet,jsons/VE83_randls_76_rotated.json,830701,1204919,36,Man
124,537441,DepthScenes,duration_manipulation_targetAtFixation,jsons/VE83_randls_76_rotated.json,http://54.235.29.9/FacialAge/BNav_EC2/DepthDuration/v2_depth_duration_MTurk/v2_DepthDuration_HTML.html#11,11,1366,651,1366,768,8-29-2023,12-17-30,125,depth_duration_stimuli/001447_2014-06-19_17-00-32_260595134347_rgbf000082-resize_5/001447_2014-06-19_17-00-32_260595134347_rgbf000082-resize_5-target.png,83,4.13775,8,4042,82,feet,jsons/VE83_randls_76_rotated.json,830701,1204919,36,Man
125,537441,DepthScenes,duration_manipulation_targetAtFixation,jsons/VE83_randls_76_rotated.json,http://54.235.29.9/FacialAge/BNav_EC2/DepthDuration/v2_depth_duration_MTurk/v2_DepthDuration_HTML.html#11,11,1366,651,1366,768,8-29-2023,12-17-30,126,depth_duration_stimuli/000447_2014-06-08_16-15-46_260595134347_rgbf000130-resize_1/000447_2014-06-08_16-15-46_260595134347_rgbf000130-resize_1-target.png,83,4.479,6,3459,83,feet,jsons/VE83_randls_76_rotated.json,830701,1204919,36,Man
126,537441,DepthScenes,duration_manipulation_targetAtFixation,jsons/VE83_randls_76_rotated.json,http://54.235.29.9/FacialAge/BNav_EC2/DepthDuration/v2_depth_duration_MTurk/v2_DepthDuration_HTML.html#11,11,1366,651,1366,768,8-29-2023,12-17-30,127,depth_duration_stimuli/002414_2014-06-28_20-24-58_260595134347_rgbf000067-resize_4/002414_2014-06-28_20-24-58_260595134347_rgbf000067-resize_4-target.png,83,4.363,8,3522,82,feet,jsons/VE83_randls_76_rotated.json,830701,1204919,36,Man
127,537441,DepthScenes,duration_manipulation_targetAtFixation,jsons/VE83_randls_76_rotated.json,http://54.235.29.9/FacialAge/BNav_EC2/DepthDuration/v2_depth_duration_MTurk/v2_DepthDuration_HTML.html#11,11,1366,651,1366,768,8-29-2023,12-17-30,128,depth_duration_stimuli/000773_2014-06-08_22-24-54_260595134347_rgbf000093-resize_1/000773_2014-06-08_22-24-54_260595134347_rgbf000093-resize_1-target.png,83,4.973,7,4396,84,feet,jsons/VE83_randls_76_rotated.json,830701,1204919,36,Man
128,537441,DepthScenes,duration_manipulation_targetAtFixation,jsons/VE83_randls_76_rotated.json,http://54.235.29.9/FacialAge/BNav_EC2/DepthDuration/v2_depth_duration_MTurk/v2_DepthDuration_HTML.html#11,11,1366,651,1366,768,8-29-2023,12-17-30,129,depth_duration_stimuli/003587_2014-05-23_16-48-02_094959634447_rgbf002384-resize_2/003587_2014-05-23_16-48-02_094959634447_rgbf002384-resize_2-target.png,83,1.357,4,3595,83,feet,jsons/VE83_randls_76_rotated.json,830701,1204919,36,Man
129,537441,DepthScenes,duration_manipulation_targetAtFixation,jsons/VE83_randls_76_rotated.json,http://54.235.29.9/FacialAge/BNav_EC2/DepthDuration/v2_depth_duration_MTurk/v2_DepthDuration_HTML.html#11,11,1366,651,1366,768,8-29-2023,12-17-30,130,depth_duration_stimuli/001167_2014-06-17_15-38-07_260595134347_rgbf000108-resize_0/001167_2014-06-17_15-38-07_260595134347_rgbf000108-resize_0-target.png,83,1.8505,5,15810,82,feet,jsons/VE83_randls_76_rotated.json,830701,1204919,36,Man
130,537441,DepthScenes,duration_manipulation_targetAtFixation,jsons/VE83_randls_76_rotated.json,http://54.235.29.9/FacialAge/BNav_EC2/DepthDuration/v2_depth_duration_MTurk/v2_DepthDuration_HTML.html#11,11,1366,651,1366,768,8-29-2023,12-17-30,131,depth_duration_stimuli/003083_2014-06-15_15-21-03_094959634447_rgbf000063-resize_1/003083_2014-06-15_15-21-03_094959634447_rgbf000063-resize_1-target.png,83,4.1405,8,3243,82,feet,jsons/VE83_randls_76_rotated.json,830701,1204919,36,Man
131,537441,DepthScenes,duration_manipulation_targetAtFixation,jsons/VE83_randls_76_rotated.json,http://54.235.29.9/FacialAge/BNav_EC2/DepthDuration/v2_depth_duration_MTurk/v2_DepthDuration_HTML.html#11,11,1366,651,1366,768,8-29-2023,12-17-30,132,depth_duration_stimuli/000486_2014-06-09_20-47-20_260595134347_rgbf000143-resize_2/000486_2014-06-09_20-47-20_260595134347_rgbf000143-resize_2-target.png,83,4.8325,5,3050,83,feet,jsons/VE83_randls_76_rotated.json,830701,1204919,36,Man
132,537441,DepthScenes,duration_manipulation_targetAtFixation,jsons/VE83_randls_76_rotated.json,http://54.235.29.9/FacialAge/BNav_EC2/DepthDuration/v2_depth_duration_MTurk/v2_DepthDuration_HTML.html#11,11,1366,651,1366,768,8-29-2023,12-17-30,133,depth_duration_stimuli/000502_2014-06-08_23-02-32_260595134347_rgbf000063-resize_4/000502_2014-06-08_23-02-32_260595134347_rgbf000063-resize_4-target.png,83,2.431,7,3234,82,feet,jsons/VE83_randls_76_rotated.json,830701,1204919,36,Man
133,537441,DepthScenes,duration_manipulation_targetAtFixation,jsons/VE83_randls_76_rotated.json,http://54.235.29.9/FacialAge/BNav_EC2/DepthDuration/v2_depth_duration_MTurk/v2_DepthDuration_HTML.html#11,11,1366,651,1366,768,8-29-2023,12-17-30,134,depth_duration_stimuli/001199_2014-06-17_16-03-48_260595134347_rgbf000077-resize_0/001199_2014-06-17_16-03-48_260595134347_rgbf000077-resize_0-target.png,83,3.4375,7,42911,83,feet,jsons/VE83_randls_76_rotated.json,830701,1204919,36,Man
134,537441,DepthScenes,duration_manipulation_targetAtFixation,jsons/VE83_randls_76_rotated.json,http://54.235.29.9/FacialAge/BNav_EC2/DepthDuration/v2_depth_duration_MTurk/v2_DepthDuration_HTML.html#11,11,1366,651,1366,768,8-29-2023,12-17-30,135,depth_duration_stimuli/000375_2014-06-08_11-17-29_260595134347_rgbf000133-resize_2/000375_2014-06-08_11-17-29_260595134347_rgbf000133-resize-original.jpg,83,4.718,2,65719,82,feet,jsons/VE83_randls_76_rotated.json,830701,1204919,36,Man
135,537441,DepthScenes,duration_manipulation_targetAtFixation,jsons/VE83_randls_76_rotated.json,http://54.235.29.9/FacialAge/BNav_EC2/DepthDuration/v2_depth_duration_MTurk/v2_DepthDuration_HTML.html#11,11,1366,651,1366,768,8-29-2023,12-17-30,136,depth_duration_stimuli/003228_2014-05-14_13-42-35_094959634447_rgbf000101-resize_1/003228_2014-05-14_13-42-35_094959634447_rgbf000101-resize_1-target.png,83,1.9680000000000002,3,2986,82,feet,jsons/VE83_randls_76_rotated.json,830701,1204919,36,Man
136,537441,DepthScenes,duration_manipulation_targetAtFixation,jsons/VE83_randls_76_rotated.json,http://54.235.29.9/FacialAge/BNav_EC2/DepthDuration/v2_depth_duration_MTurk/v2_DepthDuration_HTML.html#11,11,1366,651,1366,768,8-29-2023,12-17-30,137,depth_duration_stimuli/002600_2014-06-24_14-27-04_094959634447_rgbf000074-resize_2/002600_2014-06-24_14-27-04_094959634447_rgbf000074-resize_2-target.png,83,2.7575,5,2803,84,feet,jsons/VE83_randls_76_rotated.json,830701,1204919,36,Man
137,537441,DepthScenes,duration_manipulation_targetAtFixation,jsons/VE83_randls_76_rotated.json,http://54.235.29.9/FacialAge/BNav_EC2/DepthDuration/v2_depth_duration_MTurk/v2_DepthDuration_HTML.html#11,11,1366,651,1366,768,8-29-2023,12-17-30,138,depth_duration_stimuli/000457_2014-06-08_16-52-43_260595134347_rgbf000199-resize_1/000457_2014-06-08_16-52-43_260595134347_rgbf000199-resize_1-target.png,83,3.6489999999999996,5,11786,82,feet,jsons/VE83_randls_76_rotated.json,830701,1204919,36,Man
138,537441,DepthScenes,duration_manipulation_targetAtFixation,jsons/VE83_randls_76_rotated.json,http://54.235.29.9/FacialAge/BNav_EC2/DepthDuration/v2_depth_duration_MTurk/v2_DepthDuration_HTML.html#11,11,1366,651,1366,768,8-29-2023,12-17-30,139,depth_duration_stimuli/000929_2014-06-09_16-33-19_260595134347_rgbf000139-resize_0/000929_2014-06-09_16-33-19_260595134347_rgbf000139-resize_0-target.png,83,2.8680000000000003,7,3650,83,feet,jsons/VE83_randls_76_rotated.json,830701,1204919,36,Man
139,537441,DepthScenes,duration_manipulation_targetAtFixation,jsons/VE83_randls_76_rotated.json,http://54.235.29.9/FacialAge/BNav_EC2/DepthDuration/v2_depth_duration_MTurk/v2_DepthDuration_HTML.html#11,11,1366,651,1366,768,8-29-2023,12-17-30,140,depth_duration_stimuli/000943_2014-06-09_19-31-07_260595134347_rgbf000128-resize_1/000943_2014-06-09_19-31-07_260595134347_rgbf000128-resize_1-target.png,83,1.9765,58,3321,82,feet,jsons/VE83_randls_76_rotated.json,830701,1204919,36,Man
140,537441,DepthScenes,duration_manipulation_targetAtFixation,jsons/VE83_randls_76_rotated.json,http://54.235.29.9/FacialAge/BNav_EC2/DepthDuration/v2_depth_duration_MTurk/v2_DepthDuration_HTML.html#11,11,1366,651,1366,768,8-29-2023,12-17-30,141,depth_duration_stimuli/003070_2014-06-15_14-58-27_094959634447_rgbf000150-resize_3/003070_2014-06-15_14-58-27_094959634447_rgbf000150-resize_3-target.png,83,2.9415,5,4107,84,feet,jsons/VE83_randls_76_rotated.json,830701,1204919,36,Man
141,537441,DepthScenes,duration_manipulation_targetAtFixation,jsons/VE83_randls_76_rotated.json,http://54.235.29.9/FacialAge/BNav_EC2/DepthDuration/v2_depth_duration_MTurk/v2_DepthDuration_HTML.html#11,11,1366,651,1366,768,8-29-2023,12-17-30,142,depth_duration_stimuli/002750_2014-06-22_19-08-03_094959634447_rgbf000094-resize_4/002750_2014-06-22_19-08-03_094959634447_rgbf000094-resize_4-target.png,83,2.354,8,3122,84,feet,jsons/VE83_randls_76_rotated.json,830701,1204919,36,Man
142,537441,DepthScenes,duration_manipulation_targetAtFixation,jsons/VE83_randls_76_rotated.json,http://54.235.29.9/FacialAge/BNav_EC2/DepthDuration/v2_depth_duration_MTurk/v2_DepthDuration_HTML.html#11,11,1366,651,1366,768,8-29-2023,12-17-30,143,depth_duration_stimuli/002549_2014-06-24_13-41-39_094959634447_rgbf000022-resize_3/002549_2014-06-24_13-41-39_094959634447_rgbf000022-resize_3-target.png,83,1.476,6,3177,82,feet,jsons/VE83_randls_76_rotated.json,830701,1204919,36,Man
143,537441,DepthScenes,duration_manipulation_targetAtFixation,jsons/VE83_randls_76_rotated.json,http://54.235.29.9/FacialAge/BNav_EC2/DepthDuration/v2_depth_duration_MTurk/v2_DepthDuration_HTML.html#11,11,1366,651,1366,768,8-29-2023,12-17-30,144,depth_duration_stimuli/002678_2014-06-13_16-15-32_094959634447_rgbf000151-resize_6/002678_2014-06-13_16-15-32_094959634447_rgbf000151-resize_6-target.png,83,2.1830000000000003,8,2915,84,feet,jsons/VE83_randls_76_rotated.json,830701,1204919,36,Man
144,537441,DepthScenes,duration_manipulation_targetAtFixation,jsons/VE83_randls_76_rotated.json,http://54.235.29.9/FacialAge/BNav_EC2/DepthDuration/v2_depth_duration_MTurk/v2_DepthDuration_HTML.html#11,11,1366,651,1366,768,8-29-2023,12-17-30,145,depth_duration_stimuli/000368_2014-06-09_15-53-01_260595134347_rgbf000155-resize_2/000368_2014-06-09_15-53-01_260595134347_rgbf000155-resize_2-target.png,83,2.4859999999999998,4,2963,84,feet,jsons/VE83_randls_76_rotated.json,830701,1204919,36,Man
145,537441,DepthScenes,duration_manipulation_targetAtFixation,jsons/VE83_randls_76_rotated.json,http://54.235.29.9/FacialAge/BNav_EC2/DepthDuration/v2_depth_duration_MTurk/v2_DepthDuration_HTML.html#11,11,1366,651,1366,768,8-29-2023,12-17-30,146,depth_duration_stimuli/000742_2014-06-08_18-48-09_260595134347_rgbf000164-resize_4/000742_2014-06-08_18-48-09_260595134347_rgbf000164-resize_4-target.png,83,4.632,5,2993,82,feet,jsons/VE83_randls_76_rotated.json,830701,1204919,36,Man
146,537441,DepthScenes,duration_manipulation_targetAtFixation,jsons/VE83_randls_76_rotated.json,http://54.235.29.9/FacialAge/BNav_EC2/DepthDuration/v2_depth_duration_MTurk/v2_DepthDuration_HTML.html#11,11,1366,651,1366,768,8-29-2023,12-17-30,147,depth_duration_stimuli/001066_2014-06-08_22-03-20_260595134347_rgbf000066-resize_4/001066_2014-06-08_22-03-20_260595134347_rgbf000066-resize_4-target.png,83,4.2330000000000005,6,3090,82,feet,jsons/VE83_randls_76_rotated.json,830701,1204919,36,Man
147,537441,DepthScenes,duration_manipulation_targetAtFixation,jsons/VE83_randls_76_rotated.json,http://54.235.29.9/FacialAge/BNav_EC2/DepthDuration/v2_depth_duration_MTurk/v2_DepthDuration_HTML.html#11,11,1366,651,1366,768,8-29-2023,12-17-30,148,depth_duration_stimuli/003048_2014-06-15_13-49-43_094959634447_rgbf000150-resize_1/003048_2014-06-15_13-49-43_094959634447_rgbf000150-resize_1-target.png,83,4.0035,7,5795,84,feet,jsons/VE83_randls_76_rotated.json,830701,1204919,36,Man
148,537441,DepthScenes,duration_manipulation_targetAtFixation,jsons/VE83_randls_76_rotated.json,http://54.235.29.9/FacialAge/BNav_EC2/DepthDuration/v2_depth_duration_MTurk/v2_DepthDuration_HTML.html#11,11,1366,651,1366,768,8-29-2023,12-17-30,149,depth_duration_stimuli/002043_2014-06-24_20-29-38_260595134347_rgbf000039-resize_4/002043_2014-06-24_20-29-38_260595134347_rgbf000039-resize_4-target.png,83,2.8435,5,3122,83,feet,jsons/VE83_randls_76_rotated.json,830701,1204919,36,Man
149,537441,DepthScenes,duration_manipulation_targetAtFixation,jsons/VE83_randls_76_rotated.json,http://54.235.29.9/FacialAge/BNav_EC2/DepthDuration/v2_depth_duration_MTurk/v2_DepthDuration_HTML.html#11,11,1366,651,1366,768,8-29-2023,12-17-30,150,depth_duration_stimuli/000677_2014-06-08_23-10-32_260595134347_rgbf000158-resize_6/000677_2014-06-08_23-10-32_260595134347_rgbf000158-resize_6-target.png,83,3.556,5,3146,83,feet,jsons/VE83_randls_76_rotated.json,830701,1204919,36,Man
150,537441,DepthScenes,duration_manipulation_targetAtFixation,jsons/VE83_randls_76_rotated.json,http://54.235.29.9/FacialAge/BNav_EC2/DepthDuration/v2_depth_duration_MTurk/v2_DepthDuration_HTML.html#11,11,1366,651,1366,768,8-29-2023,12-17-30,151,depth_duration_stimuli/001029_2014-06-08_13-17-57_260595134347_rgbf000065-resize_1/001029_2014-06-08_13-17-57_260595134347_rgbf000065-resize_1-target.png,83,3.0835,8,2643,84,feet,jsons/VE83_randls_76_rotated.json,830701,1204919,36,Man
151,537441,DepthScenes,duration_manipulation_targetAtFixation,jsons/VE83_randls_76_rotated.json,http://54.235.29.9/FacialAge/BNav_EC2/DepthDuration/v2_depth_duration_MTurk/v2_DepthDuration_HTML.html#11,11,1366,651,1366,768,8-29-2023,12-17-30,152,depth_duration_stimuli/000569_2014-06-09_22-51-47_260595134347_rgbf000141-resize_3/000569_2014-06-09_22-51-47_260595134347_rgbf000141-resize-original.jpg,83,4.512,5,3619,84,feet,jsons/VE83_randls_76_rotated.json,830701,1204919,36,Man
152,537441,DepthScenes,duration_manipulation_targetAtFixation,jsons/VE83_randls_76_rotated.json,http://54.235.29.9/FacialAge/BNav_EC2/DepthDuration/v2_depth_duration_MTurk/v2_DepthDuration_HTML.html#11,11,1366,651,1366,768,8-29-2023,12-17-30,153,depth_duration_stimuli/002953_2014-06-08_17-32-18_094959634447_rgbf000059-resize_5/002953_2014-06-08_17-32-18_094959634447_rgbf000059-resize_5-target.png,83,1.551,3,2746,83,feet,jsons/VE83_randls_76_rotated.json,830701,1204919,36,Man
153,537441,DepthScenes,duration_manipulation_targetAtFixation,jsons/VE83_randls_76_rotated.json,http://54.235.29.9/FacialAge/BNav_EC2/DepthDuration/v2_depth_duration_MTurk/v2_DepthDuration_HTML.html#11,11,1366,651,1366,768,8-29-2023,12-17-30,154,depth_duration_stimuli/000878_2014-06-08_22-52-45_260595134347_rgbf000045-resize_2/000878_2014-06-08_22-52-45_260595134347_rgbf000045-resize_2-target.png,83,2.092,5,3003,83,feet,jsons/VE83_randls_76_rotated.json,830701,1204919,36,Man
154,537441,DepthScenes,duration_manipulation_targetAtFixation,jsons/VE83_randls_76_rotated.json,http://54.235.29.9/FacialAge/BNav_EC2/DepthDuration/v2_depth_duration_MTurk/v2_DepthDuration_HTML.html#11,11,1366,651,1366,768,8-29-2023,12-17-30,155,depth_duration_stimuli/002323_2014-06-28_20-01-54_260595134347_rgbf000051-resize_4/002323_2014-06-28_20-01-54_260595134347_rgbf000051-resize_4-target.png,83,3.7310000000000003,4,2690,82,feet,jsons/VE83_randls_76_rotated.json,830701,1204919,36,Man
155,537441,DepthScenes,duration_manipulation_targetAtFixation,jsons/VE83_randls_76_rotated.json,http://54.235.29.9/FacialAge/BNav_EC2/DepthDuration/v2_depth_duration_MTurk/v2_DepthDuration_HTML.html#11,11,1366,651,1366,768,8-29-2023,12-17-30,156,depth_duration_stimuli/000917_2014-06-09_22-45-29_260595134347_rgbf000149-resize_3/000917_2014-06-09_22-45-29_260595134347_rgbf000149-resize_3-target.png,83,4.1865,6,3186,82,feet,jsons/VE83_randls_76_rotated.json,830701,1204919,36,Man
156,537441,DepthScenes,duration_manipulation_targetAtFixation,jsons/VE83_randls_76_rotated.json,http://54.235.29.9/FacialAge/BNav_EC2/DepthDuration/v2_depth_duration_MTurk/v2_DepthDuration_HTML.html#11,11,1366,651,1366,768,8-29-2023,12-17-30,157,depth_duration_stimuli/000556_2014-06-09_22-42-56_260595134347_rgbf000214-resize_1/000556_2014-06-09_22-42-56_260595134347_rgbf000214-resize_1-target.png,83,4.8415,5,2666,83,feet,jsons/VE83_randls_76_rotated.json,830701,1204919,36,Man
157,537441,DepthScenes,duration_manipulation_targetAtFixation,jsons/VE83_randls_76_rotated.json,http://54.235.29.9/FacialAge/BNav_EC2/DepthDuration/v2_depth_duration_MTurk/v2_DepthDuration_HTML.html#11,11,1366,651,1366,768,8-29-2023,12-17-30,158,depth_duration_stimuli/001158_2014-06-17_15-32-16_260595134347_rgbf000138-resize_2/001158_2014-06-17_15-32-16_260595134347_rgbf000138-resize_2-target.png,83,4.5315,6,2977,82,feet,jsons/VE83_randls_76_rotated.json,830701,1204919,36,Man
158,537441,DepthScenes,duration_manipulation_targetAtFixation,jsons/VE83_randls_76_rotated.json,http://54.235.29.9/FacialAge/BNav_EC2/DepthDuration/v2_depth_duration_MTurk/v2_DepthDuration_HTML.html#11,11,1366,651,1366,768,8-29-2023,12-17-30,159,depth_duration_stimuli/002344_2014-06-28_20-06-29_260595134347_rgbf000030-resize_1/002344_2014-06-28_20-06-29_260595134347_rgbf000030-resize_1-target.png,83,1.5795,3,3403,84,feet,jsons/VE83_randls_76_rotated.json,830701,1204919,36,Man
159,537441,DepthScenes,duration_manipulation_targetAtFixation,jsons/VE83_randls_76_rotated.json,http://54.235.29.9/FacialAge/BNav_EC2/DepthDuration/v2_depth_duration_MTurk/v2_DepthDuration_HTML.html#11,11,1366,651,1366,768,8-29-2023,12-17-30,160,depth_duration_stimuli/002725_2014-06-22_11-47-51_094959634447_rgbf000070-resize_1/002725_2014-06-22_11-47-51_094959634447_rgbf000070-resize_1-target.png,83,2.195,5,2755,84,feet,jsons/VE83_randls_76_rotated.json,830701,1204919,36,Man
160,537441,DepthScenes,duration_manipulation_targetAtFixation,jsons/VE83_randls_76_rotated.json,http://54.235.29.9/FacialAge/BNav_EC2/DepthDuration/v2_depth_duration_MTurk/v2_DepthDuration_HTML.html#11,11,1366,651,1366,768,8-29-2023,12-17-30,161,depth_duration_stimuli/000866_2014-06-09_20-45-42_260595134347_rgbf000139-resize_1/000866_2014-06-09_20-45-42_260595134347_rgbf000139-resize_1-target.png,83,3.2155,5,2945,82,feet,jsons/VE83_randls_76_rotated.json,830701,1204919,36,Man
161,537441,DepthScenes,duration_manipulation_targetAtFixation,jsons/VE83_randls_76_rotated.json,http://54.235.29.9/FacialAge/BNav_EC2/DepthDuration/v2_depth_duration_MTurk/v2_DepthDuration_HTML.html#11,11,1366,651,1366,768,8-29-2023,12-17-30,162,depth_duration_stimuli/002989_2014-06-15_12-25-03_094959634447_rgbf000150-resize_3/002989_2014-06-15_12-25-03_094959634447_rgbf000150-resize_3-target.png,83,4.1975,4,2435,83,feet,jsons/VE83_randls_76_rotated.json,830701,1204919,36,Man
162,537441,DepthScenes,duration_manipulation_targetAtFixation,jsons/VE83_randls_76_rotated.json,http://54.235.29.9/FacialAge/BNav_EC2/DepthDuration/v2_depth_duration_MTurk/v2_DepthDuration_HTML.html#11,11,1366,651,1366,768,8-29-2023,12-17-30,163,depth_duration_stimuli/003423_2014-05-21_10-23-26_094959634447_rgbf002665-resize_2/003423_2014-05-21_10-23-26_094959634447_rgbf002665-resize_2-target.png,83,3.2575,6,3129,81,feet,jsons/VE83_randls_76_rotated.json,830701,1204919,36,Man
163,537441,DepthScenes,duration_manipulation_targetAtFixation,jsons/VE83_randls_76_rotated.json,http://54.235.29.9/FacialAge/BNav_EC2/DepthDuration/v2_depth_duration_MTurk/v2_DepthDuration_HTML.html#11,11,1366,651,1366,768,8-29-2023,12-17-30,164,depth_duration_stimuli/002905_2014-06-03_18-04-43_094959634447_rgbf000151-resize_2/002905_2014-06-03_18-04-43_094959634447_rgbf000151-resize_2-target.png,83,2.0295,3,2537,83,feet,jsons/VE83_randls_76_rotated.json,830701,1204919,36,Man
