,subjID,experimentName,versionName,sequenceName,url,selected_row,windowWidth,windowHeight,screenWidth,screenHeight,startDate,startTime,trial,stimulus,duration,actual_depth,depth_estimate,trial_RT,log_sceneDuration,unitSelection,seq_filepath,experimentTime,totalTime,age,gender
0,538750,DepthScenes,duration_manipulation_targetAtFixation,jsons/v1_VE250_randls_43.json,http://54.235.29.9/FacialAge/BNav_EC2/DepthDuration/v2_depth_duration_MTurk/v2_DepthDuration_HTML.html#47,47,1366,657,1366,768,9-4-2022,8-16-12,1,depth_duration_stimuli/001092_2014-06-15_17-34-58_260595134347_rgbf000171-resize_3/001092_2014-06-15_17-34-58_260595134347_rgbf000171-resize_3-target.png,250,2.6935,65,46877,249,meters,jsons/v1_VE250_randls_43.json,2069598,2305381,44,Man
1,538750,DepthScenes,duration_manipulation_targetAtFixation,jsons/v1_VE250_randls_43.json,http://54.235.29.9/FacialAge/BNav_EC2/DepthDuration/v2_depth_duration_MTurk/v2_DepthDuration_HTML.html#47,47,1366,657,1366,768,9-4-2022,8-16-12,2,depth_duration_stimuli/002545_2014-06-24_13-38-53_094959634447_rgbf000080-resize_4/002545_2014-06-24_13-38-53_094959634447_rgbf000080-resize_4-target.png,250,1.9205,65,5606,249,meters,jsons/v1_VE250_randls_43.json,2069598,2305381,44,Man
2,538750,DepthScenes,duration_manipulation_targetAtFixation,jsons/v1_VE250_randls_43.json,http://54.235.29.9/FacialAge/BNav_EC2/DepthDuration/v2_depth_duration_MTurk/v2_DepthDuration_HTML.html#47,47,1366,657,1366,768,9-4-2022,8-16-12,3,depth_duration_stimuli/000368_2014-06-09_15-53-01_260595134347_rgbf000155-resize_2/000368_2014-06-09_15-53-01_260595134347_rgbf000155-resize_2-target.png,250,2.4859999999999998,54,30010,244,meters,jsons/v1_VE250_randls_43.json,2069598,2305381,44,Man
3,538750,DepthScenes,duration_manipulation_targetAtFixation,jsons/v1_VE250_randls_43.json,http://54.235.29.9/FacialAge/BNav_EC2/DepthDuration/v2_depth_duration_MTurk/v2_DepthDuration_HTML.html#47,47,1366,657,1366,768,9-4-2022,8-16-12,4,depth_duration_stimuli/002678_2014-06-13_16-15-32_094959634447_rgbf000151-resize_6/002678_2014-06-13_16-15-32_094959634447_rgbf000151-resize_6-target.png,250,2.1830000000000003,70,7547,249,meters,jsons/v1_VE250_randls_43.json,2069598,2305381,44,Man
4,538750,DepthScenes,duration_manipulation_targetAtFixation,jsons/v1_VE250_randls_43.json,http://54.235.29.9/FacialAge/BNav_EC2/DepthDuration/v2_depth_duration_MTurk/v2_DepthDuration_HTML.html#47,47,1366,657,1366,768,9-4-2022,8-16-12,5,depth_duration_stimuli/001055_2014-06-08_18-45-35_260595134347_rgbf000111-resize_4/001055_2014-06-08_18-45-35_260595134347_rgbf000111-resize_4-target.png,250,2.4290000000000003,80,7443,161,meters,jsons/v1_VE250_randls_43.json,2069598,2305381,44,Man
5,538750,DepthScenes,duration_manipulation_targetAtFixation,jsons/v1_VE250_randls_43.json,http://54.235.29.9/FacialAge/BNav_EC2/DepthDuration/v2_depth_duration_MTurk/v2_DepthDuration_HTML.html#47,47,1366,657,1366,768,9-4-2022,8-16-12,6,depth_duration_stimuli/000549_2014-06-08_22-10-24_260595134347_rgbf000247-resize_3/000549_2014-06-08_22-10-24_260595134347_rgbf000247-resize_3-target.png,250,1.841,65,7193,224,meters,jsons/v1_VE250_randls_43.json,2069598,2305381,44,Man
6,538750,DepthScenes,duration_manipulation_targetAtFixation,jsons/v1_VE250_randls_43.json,http://54.235.29.9/FacialAge/BNav_EC2/DepthDuration/v2_depth_duration_MTurk/v2_DepthDuration_HTML.html#47,47,1366,657,1366,768,9-4-2022,8-16-12,7,depth_duration_stimuli/000773_2014-06-08_22-24-54_260595134347_rgbf000093-resize_1/000773_2014-06-08_22-24-54_260595134347_rgbf000093-resize_1-target.png,250,4.973,70,5039,249,meters,jsons/v1_VE250_randls_43.json,2069598,2305381,44,Man
7,538750,DepthScenes,duration_manipulation_targetAtFixation,jsons/v1_VE250_randls_43.json,http://54.235.29.9/FacialAge/BNav_EC2/DepthDuration/v2_depth_duration_MTurk/v2_DepthDuration_HTML.html#47,47,1366,657,1366,768,9-4-2022,8-16-12,8,depth_duration_stimuli/002414_2014-06-28_20-24-58_260595134347_rgbf000067-resize_4/002414_2014-06-28_20-24-58_260595134347_rgbf000067-resize_4-target.png,250,4.363,75,29358,249,meters,jsons/v1_VE250_randls_43.json,2069598,2305381,44,Man
8,538750,DepthScenes,duration_manipulation_targetAtFixation,jsons/v1_VE250_randls_43.json,http://54.235.29.9/FacialAge/BNav_EC2/DepthDuration/v2_depth_duration_MTurk/v2_DepthDuration_HTML.html#47,47,1366,657,1366,768,9-4-2022,8-16-12,9,depth_duration_stimuli/003292_2014-05-14_21-53-49_094959634447_rgbf000100-resize_2/003292_2014-05-14_21-53-49_094959634447_rgbf000100-resize_2-target.png,250,3.4815,65,4759,248,meters,jsons/v1_VE250_randls_43.json,2069598,2305381,44,Man
9,538750,DepthScenes,duration_manipulation_targetAtFixation,jsons/v1_VE250_randls_43.json,http://54.235.29.9/FacialAge/BNav_EC2/DepthDuration/v2_depth_duration_MTurk/v2_DepthDuration_HTML.html#47,47,1366,657,1366,768,9-4-2022,8-16-12,10,depth_duration_stimuli/002639_2014-06-24_14-51-37_094959634447_rgbf000074-resize_4/002639_2014-06-24_14-51-37_094959634447_rgbf000074-resize_4-target.png,250,4.0375,75,6377,250,meters,jsons/v1_VE250_randls_43.json,2069598,2305381,44,Man
10,538750,DepthScenes,duration_manipulation_targetAtFixation,jsons/v1_VE250_randls_43.json,http://54.235.29.9/FacialAge/BNav_EC2/DepthDuration/v2_depth_duration_MTurk/v2_DepthDuration_HTML.html#47,47,1366,657,1366,768,9-4-2022,8-16-12,11,depth_duration_stimuli/001167_2014-06-17_15-38-07_260595134347_rgbf000108-resize_0/001167_2014-06-17_15-38-07_260595134347_rgbf000108-resize_0-target.png,250,1.8505,55,4770,250,meters,jsons/v1_VE250_randls_43.json,2069598,2305381,44,Man
11,538750,DepthScenes,duration_manipulation_targetAtFixation,jsons/v1_VE250_randls_43.json,http://54.235.29.9/FacialAge/BNav_EC2/DepthDuration/v2_depth_duration_MTurk/v2_DepthDuration_HTML.html#47,47,1366,657,1366,768,9-4-2022,8-16-12,12,depth_duration_stimuli/003587_2014-05-23_16-48-02_094959634447_rgbf002384-resize_2/003587_2014-05-23_16-48-02_094959634447_rgbf002384-resize_2-target.png,250,1.357,60,4028,249,meters,jsons/v1_VE250_randls_43.json,2069598,2305381,44,Man
12,538750,DepthScenes,duration_manipulation_targetAtFixation,jsons/v1_VE250_randls_43.json,http://54.235.29.9/FacialAge/BNav_EC2/DepthDuration/v2_depth_duration_MTurk/v2_DepthDuration_HTML.html#47,47,1366,657,1366,768,9-4-2022,8-16-12,13,depth_duration_stimuli/000569_2014-06-09_22-51-47_260595134347_rgbf000141-resize_3/000569_2014-06-09_22-51-47_260595134347_rgbf000141-resize-original.jpg,250,4.512,0,4459,249,meters,jsons/v1_VE250_randls_43.json,2069598,2305381,44,Man
13,538750,DepthScenes,duration_manipulation_targetAtFixation,jsons/v1_VE250_randls_43.json,http://54.235.29.9/FacialAge/BNav_EC2/DepthDuration/v2_depth_duration_MTurk/v2_DepthDuration_HTML.html#47,47,1366,657,1366,768,9-4-2022,8-16-12,14,depth_duration_stimuli/002748_2014-06-22_19-07-22_094959634447_rgbf000078-resize_1/002748_2014-06-22_19-07-22_094959634447_rgbf000078-resize_1-target.png,250,4.6705,80,5242,246,meters,jsons/v1_VE250_randls_43.json,2069598,2305381,44,Man
14,538750,DepthScenes,duration_manipulation_targetAtFixation,jsons/v1_VE250_randls_43.json,http://54.235.29.9/FacialAge/BNav_EC2/DepthDuration/v2_depth_duration_MTurk/v2_DepthDuration_HTML.html#47,47,1366,657,1366,768,9-4-2022,8-16-12,15,depth_duration_stimuli/002995_2014-06-15_12-31-26_094959634447_rgbf000150-resize_1/002995_2014-06-15_12-31-26_094959634447_rgbf000150-resize_1-target.png,250,3.8360000000000003,65,4894,241,meters,jsons/v1_VE250_randls_43.json,2069598,2305381,44,Man
15,538750,DepthScenes,duration_manipulation_targetAtFixation,jsons/v1_VE250_randls_43.json,http://54.235.29.9/FacialAge/BNav_EC2/DepthDuration/v2_depth_duration_MTurk/v2_DepthDuration_HTML.html#47,47,1366,657,1366,768,9-4-2022,8-16-12,16,depth_duration_stimuli/000470_2014-06-09_19-42-40_260595134347_rgbf000094-resize_1/000470_2014-06-09_19-42-40_260595134347_rgbf000094-resize_1-target.png,250,1.831,55,4984,248,meters,jsons/v1_VE250_randls_43.json,2069598,2305381,44,Man
16,538750,DepthScenes,duration_manipulation_targetAtFixation,jsons/v1_VE250_randls_43.json,http://54.235.29.9/FacialAge/BNav_EC2/DepthDuration/v2_depth_duration_MTurk/v2_DepthDuration_HTML.html#47,47,1366,657,1366,768,9-4-2022,8-16-12,17,depth_duration_stimuli/000109_2014-05-14_23-41-52_260595134347_rgbf000035-resize_9/000109_2014-05-14_23-41-52_260595134347_rgbf000035-resize_9-target.png,250,1.3545,70,6227,251,meters,jsons/v1_VE250_randls_43.json,2069598,2305381,44,Man
17,538750,DepthScenes,duration_manipulation_targetAtFixation,jsons/v1_VE250_randls_43.json,http://54.235.29.9/FacialAge/BNav_EC2/DepthDuration/v2_depth_duration_MTurk/v2_DepthDuration_HTML.html#47,47,1366,657,1366,768,9-4-2022,8-16-12,18,depth_duration_stimuli/001810_2014-06-26_20-51-35_260595134347_rgbf000040-resize_3/001810_2014-06-26_20-51-35_260595134347_rgbf000040-resize_3-target.png,250,2.2525,60,5298,248,meters,jsons/v1_VE250_randls_43.json,2069598,2305381,44,Man
18,538750,DepthScenes,duration_manipulation_targetAtFixation,jsons/v1_VE250_randls_43.json,http://54.235.29.9/FacialAge/BNav_EC2/DepthDuration/v2_depth_duration_MTurk/v2_DepthDuration_HTML.html#47,47,1366,657,1366,768,9-4-2022,8-16-12,19,depth_duration_stimuli/003010_2014-06-15_12-54-35_094959634447_rgbf000112-resize_0/003010_2014-06-15_12-54-35_094959634447_rgbf000112-resize_0-target.png,250,3.1185,80,7525,249,meters,jsons/v1_VE250_randls_43.json,2069598,2305381,44,Man
19,538750,DepthScenes,duration_manipulation_targetAtFixation,jsons/v1_VE250_randls_43.json,http://54.235.29.9/FacialAge/BNav_EC2/DepthDuration/v2_depth_duration_MTurk/v2_DepthDuration_HTML.html#47,47,1366,657,1366,768,9-4-2022,8-16-12,20,depth_duration_stimuli/001808_2014-06-26_20-50-58_260595134347_rgbf000029-resize_1/001808_2014-06-26_20-50-58_260595134347_rgbf000029-resize_1-target.png,250,4.249,60,5862,248,meters,jsons/v1_VE250_randls_43.json,2069598,2305381,44,Man
20,538750,DepthScenes,duration_manipulation_targetAtFixation,jsons/v1_VE250_randls_43.json,http://54.235.29.9/FacialAge/BNav_EC2/DepthDuration/v2_depth_duration_MTurk/v2_DepthDuration_HTML.html#47,47,1366,657,1366,768,9-4-2022,8-16-12,21,depth_duration_stimuli/001815_2014-06-26_20-52-55_260595134347_rgbf000020-resize_0/001815_2014-06-26_20-52-55_260595134347_rgbf000020-resize_0-target.png,250,3.3865,60,4570,246,meters,jsons/v1_VE250_randls_43.json,2069598,2305381,44,Man
21,538750,DepthScenes,duration_manipulation_targetAtFixation,jsons/v1_VE250_randls_43.json,http://54.235.29.9/FacialAge/BNav_EC2/DepthDuration/v2_depth_duration_MTurk/v2_DepthDuration_HTML.html#47,47,1366,657,1366,768,9-4-2022,8-16-12,22,depth_duration_stimuli/000739_2014-06-08_18-45-58_260595134347_rgbf000068-resize_1/000739_2014-06-08_18-45-58_260595134347_rgbf000068-resize_1-target.png,250,3.534,75,27272,218,meters,jsons/v1_VE250_randls_43.json,2069598,2305381,44,Man
22,538750,DepthScenes,duration_manipulation_targetAtFixation,jsons/v1_VE250_randls_43.json,http://54.235.29.9/FacialAge/BNav_EC2/DepthDuration/v2_depth_duration_MTurk/v2_DepthDuration_HTML.html#47,47,1366,657,1366,768,9-4-2022,8-16-12,23,depth_duration_stimuli/000734_2014-06-08_17-39-11_260595134347_rgbf000128-resize_2/000734_2014-06-08_17-39-11_260595134347_rgbf000128-resize_2-target.png,250,4.098,65,5475,248,meters,jsons/v1_VE250_randls_43.json,2069598,2305381,44,Man
23,538750,DepthScenes,duration_manipulation_targetAtFixation,jsons/v1_VE250_randls_43.json,http://54.235.29.9/FacialAge/BNav_EC2/DepthDuration/v2_depth_duration_MTurk/v2_DepthDuration_HTML.html#47,47,1366,657,1366,768,9-4-2022,8-16-12,24,depth_duration_stimuli/003621_2014-05-23_18-06-08_094959634447_rgbf000101-resize_1/003621_2014-05-23_18-06-08_094959634447_rgbf000101-resize_1-target.png,250,3.9835,75,4976,249,meters,jsons/v1_VE250_randls_43.json,2069598,2305381,44,Man
24,538750,DepthScenes,duration_manipulation_targetAtFixation,jsons/v1_VE250_randls_43.json,http://54.235.29.9/FacialAge/BNav_EC2/DepthDuration/v2_depth_duration_MTurk/v2_DepthDuration_HTML.html#47,47,1366,657,1366,768,9-4-2022,8-16-12,25,depth_duration_stimuli/001584_2014-06-20_11-07-43_260595134347_rgbf000002-resize_1/001584_2014-06-20_11-07-43_260595134347_rgbf000002-resize_1-target.png,250,3.53,75,5893,248,meters,jsons/v1_VE250_randls_43.json,2069598,2305381,44,Man
25,538750,DepthScenes,duration_manipulation_targetAtFixation,jsons/v1_VE250_randls_43.json,http://54.235.29.9/FacialAge/BNav_EC2/DepthDuration/v2_depth_duration_MTurk/v2_DepthDuration_HTML.html#47,47,1366,657,1366,768,9-4-2022,8-16-12,26,depth_duration_stimuli/003070_2014-06-15_14-58-27_094959634447_rgbf000150-resize_3/003070_2014-06-15_14-58-27_094959634447_rgbf000150-resize_3-target.png,250,2.9415,70,24522,248,meters,jsons/v1_VE250_randls_43.json,2069598,2305381,44,Man
26,538750,DepthScenes,duration_manipulation_targetAtFixation,jsons/v1_VE250_randls_43.json,http://54.235.29.9/FacialAge/BNav_EC2/DepthDuration/v2_depth_duration_MTurk/v2_DepthDuration_HTML.html#47,47,1366,657,1366,768,9-4-2022,8-16-12,27,depth_duration_stimuli/000943_2014-06-09_19-31-07_260595134347_rgbf000128-resize_1/000943_2014-06-09_19-31-07_260595134347_rgbf000128-resize_1-target.png,250,1.9765,65,5279,248,meters,jsons/v1_VE250_randls_43.json,2069598,2305381,44,Man
27,538750,DepthScenes,duration_manipulation_targetAtFixation,jsons/v1_VE250_randls_43.json,http://54.235.29.9/FacialAge/BNav_EC2/DepthDuration/v2_depth_duration_MTurk/v2_DepthDuration_HTML.html#47,47,1366,657,1366,768,9-4-2022,8-16-12,28,depth_duration_stimuli/001029_2014-06-08_13-17-57_260595134347_rgbf000065-resize_1/001029_2014-06-08_13-17-57_260595134347_rgbf000065-resize_1-target.png,250,3.0835,75,6373,248,meters,jsons/v1_VE250_randls_43.json,2069598,2305381,44,Man
28,538750,DepthScenes,duration_manipulation_targetAtFixation,jsons/v1_VE250_randls_43.json,http://54.235.29.9/FacialAge/BNav_EC2/DepthDuration/v2_depth_duration_MTurk/v2_DepthDuration_HTML.html#47,47,1366,657,1366,768,9-4-2022,8-16-12,29,depth_duration_stimuli/000677_2014-06-08_23-10-32_260595134347_rgbf000158-resize_6/000677_2014-06-08_23-10-32_260595134347_rgbf000158-resize_6-target.png,250,3.556,80,27497,249,meters,jsons/v1_VE250_randls_43.json,2069598,2305381,44,Man
29,538750,DepthScenes,duration_manipulation_targetAtFixation,jsons/v1_VE250_randls_43.json,http://54.235.29.9/FacialAge/BNav_EC2/DepthDuration/v2_depth_duration_MTurk/v2_DepthDuration_HTML.html#47,47,1366,657,1366,768,9-4-2022,8-16-12,30,depth_duration_stimuli/000375_2014-06-08_11-17-29_260595134347_rgbf000133-resize_2/000375_2014-06-08_11-17-29_260595134347_rgbf000133-resize-original.jpg,250,4.718,0,33229,249,meters,jsons/v1_VE250_randls_43.json,2069598,2305381,44,Man
30,538750,DepthScenes,duration_manipulation_targetAtFixation,jsons/v1_VE250_randls_43.json,http://54.235.29.9/FacialAge/BNav_EC2/DepthDuration/v2_depth_duration_MTurk/v2_DepthDuration_HTML.html#47,47,1366,657,1366,768,9-4-2022,8-16-12,31,depth_duration_stimuli/000878_2014-06-08_22-52-45_260595134347_rgbf000045-resize_2/000878_2014-06-08_22-52-45_260595134347_rgbf000045-resize_2-target.png,250,2.092,75,5631,175,meters,jsons/v1_VE250_randls_43.json,2069598,2305381,44,Man
31,538750,DepthScenes,duration_manipulation_targetAtFixation,jsons/v1_VE250_randls_43.json,http://54.235.29.9/FacialAge/BNav_EC2/DepthDuration/v2_depth_duration_MTurk/v2_DepthDuration_HTML.html#47,47,1366,657,1366,768,9-4-2022,8-16-12,32,depth_duration_stimuli/002953_2014-06-08_17-32-18_094959634447_rgbf000059-resize_5/002953_2014-06-08_17-32-18_094959634447_rgbf000059-resize_5-target.png,250,1.551,55,33582,250,meters,jsons/v1_VE250_randls_43.json,2069598,2305381,44,Man
32,538750,DepthScenes,duration_manipulation_targetAtFixation,jsons/v1_VE250_randls_43.json,http://54.235.29.9/FacialAge/BNav_EC2/DepthDuration/v2_depth_duration_MTurk/v2_DepthDuration_HTML.html#47,47,1366,657,1366,768,9-4-2022,8-16-12,33,depth_duration_stimuli/002663_2014-06-13_15-50-26_094959634447_rgbf000075-resize_1/002663_2014-06-13_15-50-26_094959634447_rgbf000075-resize_1-target.png,250,4.7495,75,31247,248,meters,jsons/v1_VE250_randls_43.json,2069598,2305381,44,Man
33,538750,DepthScenes,duration_manipulation_targetAtFixation,jsons/v1_VE250_randls_43.json,http://54.235.29.9/FacialAge/BNav_EC2/DepthDuration/v2_depth_duration_MTurk/v2_DepthDuration_HTML.html#47,47,1366,657,1366,768,9-4-2022,8-16-12,34,depth_duration_stimuli/000409_2014-06-04_19-23-33_260595134347_rgbf000067-resize_0/000409_2014-06-04_19-23-33_260595134347_rgbf000067-resize_0-target.png,250,3.7335,65,5698,303,meters,jsons/v1_VE250_randls_43.json,2069598,2305381,44,Man
34,538750,DepthScenes,duration_manipulation_targetAtFixation,jsons/v1_VE250_randls_43.json,http://54.235.29.9/FacialAge/BNav_EC2/DepthDuration/v2_depth_duration_MTurk/v2_DepthDuration_HTML.html#47,47,1366,657,1366,768,9-4-2022,8-16-12,35,depth_duration_stimuli/000929_2014-06-09_16-33-19_260595134347_rgbf000139-resize_0/000929_2014-06-09_16-33-19_260595134347_rgbf000139-resize_0-target.png,250,2.8680000000000003,70,5117,249,meters,jsons/v1_VE250_randls_43.json,2069598,2305381,44,Man
35,538750,DepthScenes,duration_manipulation_targetAtFixation,jsons/v1_VE250_randls_43.json,http://54.235.29.9/FacialAge/BNav_EC2/DepthDuration/v2_depth_duration_MTurk/v2_DepthDuration_HTML.html#47,47,1366,657,1366,768,9-4-2022,8-16-12,36,depth_duration_stimuli/000457_2014-06-08_16-52-43_260595134347_rgbf000199-resize_1/000457_2014-06-08_16-52-43_260595134347_rgbf000199-resize_1-target.png,250,3.6489999999999996,75,5668,253,meters,jsons/v1_VE250_randls_43.json,2069598,2305381,44,Man
36,538750,DepthScenes,duration_manipulation_targetAtFixation,jsons/v1_VE250_randls_43.json,http://54.235.29.9/FacialAge/BNav_EC2/DepthDuration/v2_depth_duration_MTurk/v2_DepthDuration_HTML.html#47,47,1366,657,1366,768,9-4-2022,8-16-12,37,depth_duration_stimuli/002549_2014-06-24_13-41-39_094959634447_rgbf000022-resize_3/002549_2014-06-24_13-41-39_094959634447_rgbf000022-resize_3-target.png,250,1.476,65,3979,250,meters,jsons/v1_VE250_randls_43.json,2069598,2305381,44,Man
37,538750,DepthScenes,duration_manipulation_targetAtFixation,jsons/v1_VE250_randls_43.json,http://54.235.29.9/FacialAge/BNav_EC2/DepthDuration/v2_depth_duration_MTurk/v2_DepthDuration_HTML.html#47,47,1366,657,1366,768,9-4-2022,8-16-12,38,depth_duration_stimuli/002750_2014-06-22_19-08-03_094959634447_rgbf000094-resize_4/002750_2014-06-22_19-08-03_094959634447_rgbf000094-resize_4-target.png,250,2.354,75,26268,250,meters,jsons/v1_VE250_randls_43.json,2069598,2305381,44,Man
38,538750,DepthScenes,duration_manipulation_targetAtFixation,jsons/v1_VE250_randls_43.json,http://54.235.29.9/FacialAge/BNav_EC2/DepthDuration/v2_depth_duration_MTurk/v2_DepthDuration_HTML.html#47,47,1366,657,1366,768,9-4-2022,8-16-12,39,depth_duration_stimuli/000906_2014-06-08_13-35-43_260595134347_rgbf000155-resize_1/000906_2014-06-08_13-35-43_260595134347_rgbf000155-resize_1-target.png,250,2.8489999999999998,75,4118,249,meters,jsons/v1_VE250_randls_43.json,2069598,2305381,44,Man
39,538750,DepthScenes,duration_manipulation_targetAtFixation,jsons/v1_VE250_randls_43.json,http://54.235.29.9/FacialAge/BNav_EC2/DepthDuration/v2_depth_duration_MTurk/v2_DepthDuration_HTML.html#47,47,1366,657,1366,768,9-4-2022,8-16-12,40,depth_duration_stimuli/002805_2014-06-22_19-54-03_094959634447_rgbf000079-resize_1/002805_2014-06-22_19-54-03_094959634447_rgbf000079-resize_1-target.png,250,3.1439999999999997,65,4760,249,meters,jsons/v1_VE250_randls_43.json,2069598,2305381,44,Man
40,538750,DepthScenes,duration_manipulation_targetAtFixation,jsons/v1_VE250_randls_43.json,http://54.235.29.9/FacialAge/BNav_EC2/DepthDuration/v2_depth_duration_MTurk/v2_DepthDuration_HTML.html#47,47,1366,657,1366,768,9-4-2022,8-16-12,41,depth_duration_stimuli/000642_2014-06-08_16-59-25_260595134347_rgbf000098-resize_2/000642_2014-06-08_16-59-25_260595134347_rgbf000098-resize_2-target.png,250,2.8815,60,3794,248,meters,jsons/v1_VE250_randls_43.json,2069598,2305381,44,Man
41,538750,DepthScenes,duration_manipulation_targetAtFixation,jsons/v1_VE250_randls_43.json,http://54.235.29.9/FacialAge/BNav_EC2/DepthDuration/v2_depth_duration_MTurk/v2_DepthDuration_HTML.html#47,47,1366,657,1366,768,9-4-2022,8-16-12,42,depth_duration_stimuli/002425_2014-06-28_20-27-29_260595134347_rgbf000031-resize_8/002425_2014-06-28_20-27-29_260595134347_rgbf000031-resize_8-target.png,250,3.8960000000000004,75,4764,249,meters,jsons/v1_VE250_randls_43.json,2069598,2305381,44,Man
42,538750,DepthScenes,duration_manipulation_targetAtFixation,jsons/v1_VE250_randls_43.json,http://54.235.29.9/FacialAge/BNav_EC2/DepthDuration/v2_depth_duration_MTurk/v2_DepthDuration_HTML.html#47,47,1366,657,1366,768,9-4-2022,8-16-12,43,depth_duration_stimuli/002445_2014-06-28_20-32-16_260595134347_rgbf000029-resize_4/002445_2014-06-28_20-32-16_260595134347_rgbf000029-resize_4-target.png,250,2.5315,65,4510,224,meters,jsons/v1_VE250_randls_43.json,2069598,2305381,44,Man
43,538750,DepthScenes,duration_manipulation_targetAtFixation,jsons/v1_VE250_randls_43.json,http://54.235.29.9/FacialAge/BNav_EC2/DepthDuration/v2_depth_duration_MTurk/v2_DepthDuration_HTML.html#47,47,1366,657,1366,768,9-4-2022,8-16-12,44,depth_duration_stimuli/000780_2014-06-08_22-28-29_260595134347_rgbf000126-resize_1/000780_2014-06-08_22-28-29_260595134347_rgbf000126-resize_1-target.png,250,3.3825,65,25880,248,meters,jsons/v1_VE250_randls_43.json,2069598,2305381,44,Man
44,538750,DepthScenes,duration_manipulation_targetAtFixation,jsons/v1_VE250_randls_43.json,http://54.235.29.9/FacialAge/BNav_EC2/DepthDuration/v2_depth_duration_MTurk/v2_DepthDuration_HTML.html#47,47,1366,657,1366,768,9-4-2022,8-16-12,45,depth_duration_stimuli/000787_2014-06-08_22-33-53_260595134347_rgbf000175-resize_1/000787_2014-06-08_22-33-53_260595134347_rgbf000175-resize-original.jpg,250,4.784,0,3828,249,meters,jsons/v1_VE250_randls_43.json,2069598,2305381,44,Man
45,538750,DepthScenes,duration_manipulation_targetAtFixation,jsons/v1_VE250_randls_43.json,http://54.235.29.9/FacialAge/BNav_EC2/DepthDuration/v2_depth_duration_MTurk/v2_DepthDuration_HTML.html#47,47,1366,657,1366,768,9-4-2022,8-16-12,46,depth_duration_stimuli/002057_2014-06-24_21-00-13_260595134347_rgbf000120-resize_1/002057_2014-06-24_21-00-13_260595134347_rgbf000120-resize_1-target.png,250,2.967,85,4459,249,meters,jsons/v1_VE250_randls_43.json,2069598,2305381,44,Man
46,538750,DepthScenes,duration_manipulation_targetAtFixation,jsons/v1_VE250_randls_43.json,http://54.235.29.9/FacialAge/BNav_EC2/DepthDuration/v2_depth_duration_MTurk/v2_DepthDuration_HTML.html#47,47,1366,657,1366,768,9-4-2022,8-16-12,47,depth_duration_stimuli/000709_2014-06-08_13-51-55_260595134347_rgbf000068-resize_3/000709_2014-06-08_13-51-55_260595134347_rgbf000068-resize_3-target.png,250,1.8030000000000002,65,26180,250,meters,jsons/v1_VE250_randls_43.json,2069598,2305381,44,Man
47,538750,DepthScenes,duration_manipulation_targetAtFixation,jsons/v1_VE250_randls_43.json,http://54.235.29.9/FacialAge/BNav_EC2/DepthDuration/v2_depth_duration_MTurk/v2_DepthDuration_HTML.html#47,47,1366,657,1366,768,9-4-2022,8-16-12,48,depth_duration_stimuli/000447_2014-06-08_16-15-46_260595134347_rgbf000130-resize_1/000447_2014-06-08_16-15-46_260595134347_rgbf000130-resize_1-target.png,250,4.479,65,4551,250,meters,jsons/v1_VE250_randls_43.json,2069598,2305381,44,Man
48,538750,DepthScenes,duration_manipulation_targetAtFixation,jsons/v1_VE250_randls_43.json,http://54.235.29.9/FacialAge/BNav_EC2/DepthDuration/v2_depth_duration_MTurk/v2_DepthDuration_HTML.html#47,47,1366,657,1366,768,9-4-2022,8-16-12,49,depth_duration_stimuli/001447_2014-06-19_17-00-32_260595134347_rgbf000082-resize_5/001447_2014-06-19_17-00-32_260595134347_rgbf000082-resize_5-target.png,250,4.13775,60,4146,250,meters,jsons/v1_VE250_randls_43.json,2069598,2305381,44,Man
49,538750,DepthScenes,duration_manipulation_targetAtFixation,jsons/v1_VE250_randls_43.json,http://54.235.29.9/FacialAge/BNav_EC2/DepthDuration/v2_depth_duration_MTurk/v2_DepthDuration_HTML.html#47,47,1366,657,1366,768,9-4-2022,8-16-12,50,depth_duration_stimuli/002988_2014-06-15_12-24-20_094959634447_rgbf000150-resize_1/002988_2014-06-15_12-24-20_094959634447_rgbf000150-resize_1-target.png,250,4.7669999999999995,60,4039,250,meters,jsons/v1_VE250_randls_43.json,2069598,2305381,44,Man
50,538750,DepthScenes,duration_manipulation_targetAtFixation,jsons/v1_VE250_randls_43.json,http://54.235.29.9/FacialAge/BNav_EC2/DepthDuration/v2_depth_duration_MTurk/v2_DepthDuration_HTML.html#47,47,1366,657,1366,768,9-4-2022,8-16-12,51,depth_duration_stimuli/001052_2014-06-08_18-24-54_260595134347_rgbf000130-resize_1/001052_2014-06-08_18-24-54_260595134347_rgbf000130-resize_1-target.png,250,4.1045,75,25459,249,meters,jsons/v1_VE250_randls_43.json,2069598,2305381,44,Man
51,538750,DepthScenes,duration_manipulation_targetAtFixation,jsons/v1_VE250_randls_43.json,http://54.235.29.9/FacialAge/BNav_EC2/DepthDuration/v2_depth_duration_MTurk/v2_DepthDuration_HTML.html#47,47,1366,657,1366,768,9-4-2022,8-16-12,52,depth_duration_stimuli/002153_2014-06-25_21-27-18_260595134347_rgbf000038-resize_5/002153_2014-06-25_21-27-18_260595134347_rgbf000038-resize_5-target.png,250,2.505,65,4843,222,meters,jsons/v1_VE250_randls_43.json,2069598,2305381,44,Man
52,538750,DepthScenes,duration_manipulation_targetAtFixation,jsons/v1_VE250_randls_43.json,http://54.235.29.9/FacialAge/BNav_EC2/DepthDuration/v2_depth_duration_MTurk/v2_DepthDuration_HTML.html#47,47,1366,657,1366,768,9-4-2022,8-16-12,53,depth_duration_stimuli/002660_2014-06-13_15-44-18_094959634447_rgbf001878-resize_2/002660_2014-06-13_15-44-18_094959634447_rgbf001878-resize_2-target.png,250,3.576,75,7329,249,meters,jsons/v1_VE250_randls_43.json,2069598,2305381,44,Man
53,538750,DepthScenes,duration_manipulation_targetAtFixation,jsons/v1_VE250_randls_43.json,http://54.235.29.9/FacialAge/BNav_EC2/DepthDuration/v2_depth_duration_MTurk/v2_DepthDuration_HTML.html#47,47,1366,657,1366,768,9-4-2022,8-16-12,54,depth_duration_stimuli/001150_2014-06-17_15-27-34_260595134347_rgbf000108-resize_2/001150_2014-06-17_15-27-34_260595134347_rgbf000108-resize_2-target.png,250,4.0325,65,27390,249,meters,jsons/v1_VE250_randls_43.json,2069598,2305381,44,Man
54,538750,DepthScenes,duration_manipulation_targetAtFixation,jsons/v1_VE250_randls_43.json,http://54.235.29.9/FacialAge/BNav_EC2/DepthDuration/v2_depth_duration_MTurk/v2_DepthDuration_HTML.html#47,47,1366,657,1366,768,9-4-2022,8-16-12,55,depth_duration_stimuli/000665_2014-06-09_20-42-35_260595134347_rgbf000110-resize_1/000665_2014-06-09_20-42-35_260595134347_rgbf000110-resize_1-target.png,250,3.057,60,3946,249,meters,jsons/v1_VE250_randls_43.json,2069598,2305381,44,Man
55,538750,DepthScenes,duration_manipulation_targetAtFixation,jsons/v1_VE250_randls_43.json,http://54.235.29.9/FacialAge/BNav_EC2/DepthDuration/v2_depth_duration_MTurk/v2_DepthDuration_HTML.html#47,47,1366,657,1366,768,9-4-2022,8-16-12,56,depth_duration_stimuli/001056_2014-06-08_18-46-44_260595134347_rgbf000068-resize_0/001056_2014-06-08_18-46-44_260595134347_rgbf000068-resize_0-target.png,250,2.6625,65,3678,247,meters,jsons/v1_VE250_randls_43.json,2069598,2305381,44,Man
56,538750,DepthScenes,duration_manipulation_targetAtFixation,jsons/v1_VE250_randls_43.json,http://54.235.29.9/FacialAge/BNav_EC2/DepthDuration/v2_depth_duration_MTurk/v2_DepthDuration_HTML.html#47,47,1366,657,1366,768,9-4-2022,8-16-12,57,depth_duration_stimuli/002199_2014-06-28_18-33-56_260595134347_rgbf000074-resize_0/002199_2014-06-28_18-33-56_260595134347_rgbf000074-resize_0-target.png,250,1.996,40,31768,244,meters,jsons/v1_VE250_randls_43.json,2069598,2305381,44,Man
57,538750,DepthScenes,duration_manipulation_targetAtFixation,jsons/v1_VE250_randls_43.json,http://54.235.29.9/FacialAge/BNav_EC2/DepthDuration/v2_depth_duration_MTurk/v2_DepthDuration_HTML.html#47,47,1366,657,1366,768,9-4-2022,8-16-12,58,depth_duration_stimuli/002784_2014-06-22_19-26-30_094959634447_rgbf000083-resize_3/002784_2014-06-22_19-26-30_094959634447_rgbf000083-resize_3-target.png,250,1.8046666666667,60,3384,247,meters,jsons/v1_VE250_randls_43.json,2069598,2305381,44,Man
58,538750,DepthScenes,duration_manipulation_targetAtFixation,jsons/v1_VE250_randls_43.json,http://54.235.29.9/FacialAge/BNav_EC2/DepthDuration/v2_depth_duration_MTurk/v2_DepthDuration_HTML.html#47,47,1366,657,1366,768,9-4-2022,8-16-12,59,depth_duration_stimuli/001100_2014-06-15_17-46-26_260595134347_rgbf000225-resize_2/001100_2014-06-15_17-46-26_260595134347_rgbf000225-resize_2-target.png,250,2.24,60,4438,101,meters,jsons/v1_VE250_randls_43.json,2069598,2305381,44,Man
59,538750,DepthScenes,duration_manipulation_targetAtFixation,jsons/v1_VE250_randls_43.json,http://54.235.29.9/FacialAge/BNav_EC2/DepthDuration/v2_depth_duration_MTurk/v2_DepthDuration_HTML.html#47,47,1366,657,1366,768,9-4-2022,8-16-12,60,depth_duration_stimuli/002213_2014-06-28_18-37-58_260595134347_rgbf000055-resize_1/002213_2014-06-28_18-37-58_260595134347_rgbf000055-resize_1-target.png,250,3.62,80,30425,249,meters,jsons/v1_VE250_randls_43.json,2069598,2305381,44,Man
60,538750,DepthScenes,duration_manipulation_targetAtFixation,jsons/v1_VE250_randls_43.json,http://54.235.29.9/FacialAge/BNav_EC2/DepthDuration/v2_depth_duration_MTurk/v2_DepthDuration_HTML.html#47,47,1366,657,1366,768,9-4-2022,8-16-12,61,depth_duration_stimuli/000691_2014-06-08_13-08-50_260595134347_rgbf000132-resize_3/000691_2014-06-08_13-08-50_260595134347_rgbf000132-resize_3-target.png,250,4.1530000000000005,75,7533,229,meters,jsons/v1_VE250_randls_43.json,2069598,2305381,44,Man
61,538750,DepthScenes,duration_manipulation_targetAtFixation,jsons/v1_VE250_randls_43.json,http://54.235.29.9/FacialAge/BNav_EC2/DepthDuration/v2_depth_duration_MTurk/v2_DepthDuration_HTML.html#47,47,1366,657,1366,768,9-4-2022,8-16-12,62,depth_duration_stimuli/000414_2014-06-04_19-49-13_260595134347_rgbf000044-resize_0/000414_2014-06-04_19-49-13_260595134347_rgbf000044-resize_0-target.png,250,4.329,75,6649,236,meters,jsons/v1_VE250_randls_43.json,2069598,2305381,44,Man
62,538750,DepthScenes,duration_manipulation_targetAtFixation,jsons/v1_VE250_randls_43.json,http://54.235.29.9/FacialAge/BNav_EC2/DepthDuration/v2_depth_duration_MTurk/v2_DepthDuration_HTML.html#47,47,1366,657,1366,768,9-4-2022,8-16-12,63,depth_duration_stimuli/003129_2014-05-12_10-48-10_094959634447_rgbf000100-resize_0/003129_2014-05-12_10-48-10_094959634447_rgbf000100-resize_0-target.png,250,4.9305,70,7108,252,meters,jsons/v1_VE250_randls_43.json,2069598,2305381,44,Man
63,538750,DepthScenes,duration_manipulation_targetAtFixation,jsons/v1_VE250_randls_43.json,http://54.235.29.9/FacialAge/BNav_EC2/DepthDuration/v2_depth_duration_MTurk/v2_DepthDuration_HTML.html#47,47,1366,657,1366,768,9-4-2022,8-16-12,64,depth_duration_stimuli/002905_2014-06-03_18-04-43_094959634447_rgbf000151-resize_2/002905_2014-06-03_18-04-43_094959634447_rgbf000151-resize_2-target.png,250,2.0295,60,7708,247,meters,jsons/v1_VE250_randls_43.json,2069598,2305381,44,Man
64,538750,DepthScenes,duration_manipulation_targetAtFixation,jsons/v1_VE250_randls_43.json,http://54.235.29.9/FacialAge/BNav_EC2/DepthDuration/v2_depth_duration_MTurk/v2_DepthDuration_HTML.html#47,47,1366,657,1366,768,9-4-2022,8-16-12,65,depth_duration_stimuli/003423_2014-05-21_10-23-26_094959634447_rgbf002665-resize_2/003423_2014-05-21_10-23-26_094959634447_rgbf002665-resize_2-target.png,250,3.2575,70,37680,250,meters,jsons/v1_VE250_randls_43.json,2069598,2305381,44,Man
65,538750,DepthScenes,duration_manipulation_targetAtFixation,jsons/v1_VE250_randls_43.json,http://54.235.29.9/FacialAge/BNav_EC2/DepthDuration/v2_depth_duration_MTurk/v2_DepthDuration_HTML.html#47,47,1366,657,1366,768,9-4-2022,8-16-12,66,depth_duration_stimuli/001222_2014-06-17_16-24-06_260595134347_rgbf000073-resize_0/001222_2014-06-17_16-24-06_260595134347_rgbf000073-resize-original.jpg,250,1.4385,0,4447,186,meters,jsons/v1_VE250_randls_43.json,2069598,2305381,44,Man
66,538750,DepthScenes,duration_manipulation_targetAtFixation,jsons/v1_VE250_randls_43.json,http://54.235.29.9/FacialAge/BNav_EC2/DepthDuration/v2_depth_duration_MTurk/v2_DepthDuration_HTML.html#47,47,1366,657,1366,768,9-4-2022,8-16-12,67,depth_duration_stimuli/002272_2014-06-28_18-53-56_260595134347_rgbf000067-resize_2/002272_2014-06-28_18-53-56_260595134347_rgbf000067-resize_2-target.png,250,1.138,65,61383,248,meters,jsons/v1_VE250_randls_43.json,2069598,2305381,44,Man
67,538750,DepthScenes,duration_manipulation_targetAtFixation,jsons/v1_VE250_randls_43.json,http://54.235.29.9/FacialAge/BNav_EC2/DepthDuration/v2_depth_duration_MTurk/v2_DepthDuration_HTML.html#47,47,1366,657,1366,768,9-4-2022,8-16-12,68,depth_duration_stimuli/001571_2014-06-20_17-21-32_260595134347_rgbf000089-resize_1/001571_2014-06-20_17-21-32_260595134347_rgbf000089-resize_1-target.png,250,1.86,60,6670,249,meters,jsons/v1_VE250_randls_43.json,2069598,2305381,44,Man
68,538750,DepthScenes,duration_manipulation_targetAtFixation,jsons/v1_VE250_randls_43.json,http://54.235.29.9/FacialAge/BNav_EC2/DepthDuration/v2_depth_duration_MTurk/v2_DepthDuration_HTML.html#47,47,1366,657,1366,768,9-4-2022,8-16-12,69,depth_duration_stimuli/002118_2014-06-25_20-32-08_260595134347_rgbf000078-resize_1/002118_2014-06-25_20-32-08_260595134347_rgbf000078-resize_1-target.png,250,2.6460000000000004,65,29420,249,meters,jsons/v1_VE250_randls_43.json,2069598,2305381,44,Man
69,538750,DepthScenes,duration_manipulation_targetAtFixation,jsons/v1_VE250_randls_43.json,http://54.235.29.9/FacialAge/BNav_EC2/DepthDuration/v2_depth_duration_MTurk/v2_DepthDuration_HTML.html#47,47,1366,657,1366,768,9-4-2022,8-16-12,70,depth_duration_stimuli/001516_2014-06-20_16-25-09_260595134347_rgbf000076-resize_2/001516_2014-06-20_16-25-09_260595134347_rgbf000076-resize_2-target.png,250,1.7445,70,4797,249,meters,jsons/v1_VE250_randls_43.json,2069598,2305381,44,Man
70,538750,DepthScenes,duration_manipulation_targetAtFixation,jsons/v1_VE250_randls_43.json,http://54.235.29.9/FacialAge/BNav_EC2/DepthDuration/v2_depth_duration_MTurk/v2_DepthDuration_HTML.html#47,47,1366,657,1366,768,9-4-2022,8-16-12,71,depth_duration_stimuli/002763_2014-06-22_19-13-10_094959634447_rgbf000075-resize_4/002763_2014-06-22_19-13-10_094959634447_rgbf000075-resize_4-target.png,250,1.68375,65,3782,229,meters,jsons/v1_VE250_randls_43.json,2069598,2305381,44,Man
71,538750,DepthScenes,duration_manipulation_targetAtFixation,jsons/v1_VE250_randls_43.json,http://54.235.29.9/FacialAge/BNav_EC2/DepthDuration/v2_depth_duration_MTurk/v2_DepthDuration_HTML.html#47,47,1366,657,1366,768,9-4-2022,8-16-12,72,depth_duration_stimuli/002209_2014-06-28_18-36-10_260595134347_rgbf000051-resize_1/002209_2014-06-28_18-36-10_260595134347_rgbf000051-resize_1-target.png,250,2.057,50,4767,249,meters,jsons/v1_VE250_randls_43.json,2069598,2305381,44,Man
72,538750,DepthScenes,duration_manipulation_targetAtFixation,jsons/v1_VE250_randls_43.json,http://54.235.29.9/FacialAge/BNav_EC2/DepthDuration/v2_depth_duration_MTurk/v2_DepthDuration_HTML.html#47,47,1366,657,1366,768,9-4-2022,8-16-12,73,depth_duration_stimuli/001570_2014-06-20_17-21-09_260595134347_rgbf000135-resize_4/001570_2014-06-20_17-21-09_260595134347_rgbf000135-resize_4-target.png,250,4.467,75,3833,249,meters,jsons/v1_VE250_randls_43.json,2069598,2305381,44,Man
73,538750,DepthScenes,duration_manipulation_targetAtFixation,jsons/v1_VE250_randls_43.json,http://54.235.29.9/FacialAge/BNav_EC2/DepthDuration/v2_depth_duration_MTurk/v2_DepthDuration_HTML.html#47,47,1366,657,1366,768,9-4-2022,8-16-12,74,depth_duration_stimuli/001392_2014-06-19_16-07-59_260595134347_rgbf000046-resize_1/001392_2014-06-19_16-07-59_260595134347_rgbf000046-resize_1-target.png,250,4.135,70,5162,249,meters,jsons/v1_VE250_randls_43.json,2069598,2305381,44,Man
74,538750,DepthScenes,duration_manipulation_targetAtFixation,jsons/v1_VE250_randls_43.json,http://54.235.29.9/FacialAge/BNav_EC2/DepthDuration/v2_depth_duration_MTurk/v2_DepthDuration_HTML.html#47,47,1366,657,1366,768,9-4-2022,8-16-12,75,depth_duration_stimuli/002509_2014-06-24_13-19-22_094959634447_rgbf000077-resize_0/002509_2014-06-24_13-19-22_094959634447_rgbf000077-resize_0-target.png,250,1.3065,40,4489,247,meters,jsons/v1_VE250_randls_43.json,2069598,2305381,44,Man
75,538750,DepthScenes,duration_manipulation_targetAtFixation,jsons/v1_VE250_randls_43.json,http://54.235.29.9/FacialAge/BNav_EC2/DepthDuration/v2_depth_duration_MTurk/v2_DepthDuration_HTML.html#47,47,1366,657,1366,768,9-4-2022,8-16-12,76,depth_duration_stimuli/003338_2014-05-20_11-01-23_094959634447_rgbf000051-resize_6/003338_2014-05-20_11-01-23_094959634447_rgbf000051-resize_6-target.png,250,1.693,40,4216,250,meters,jsons/v1_VE250_randls_43.json,2069598,2305381,44,Man
76,538750,DepthScenes,duration_manipulation_targetAtFixation,jsons/v1_VE250_randls_43.json,http://54.235.29.9/FacialAge/BNav_EC2/DepthDuration/v2_depth_duration_MTurk/v2_DepthDuration_HTML.html#47,47,1366,657,1366,768,9-4-2022,8-16-12,77,depth_duration_stimuli/000682_2014-06-08_23-14-58_260595134347_rgbf000041-resize_5/000682_2014-06-08_23-14-58_260595134347_rgbf000041-resize_5-target.png,250,2.7239999999999998,45,5041,250,meters,jsons/v1_VE250_randls_43.json,2069598,2305381,44,Man
77,538750,DepthScenes,duration_manipulation_targetAtFixation,jsons/v1_VE250_randls_43.json,http://54.235.29.9/FacialAge/BNav_EC2/DepthDuration/v2_depth_duration_MTurk/v2_DepthDuration_HTML.html#47,47,1366,657,1366,768,9-4-2022,8-16-12,78,depth_duration_stimuli/001650_2014-06-20_12-09-00_260595134347_rgbf000087-resize_3/001650_2014-06-20_12-09-00_260595134347_rgbf000087-resize_3-target.png,250,1.9505,40,5457,249,meters,jsons/v1_VE250_randls_43.json,2069598,2305381,44,Man
78,538750,DepthScenes,duration_manipulation_targetAtFixation,jsons/v1_VE250_randls_43.json,http://54.235.29.9/FacialAge/BNav_EC2/DepthDuration/v2_depth_duration_MTurk/v2_DepthDuration_HTML.html#47,47,1366,657,1366,768,9-4-2022,8-16-12,79,depth_duration_stimuli/001066_2014-06-08_22-03-20_260595134347_rgbf000066-resize_4/001066_2014-06-08_22-03-20_260595134347_rgbf000066-resize_4-target.png,250,4.2330000000000005,65,7085,249,meters,jsons/v1_VE250_randls_43.json,2069598,2305381,44,Man
79,538750,DepthScenes,duration_manipulation_targetAtFixation,jsons/v1_VE250_randls_43.json,http://54.235.29.9/FacialAge/BNav_EC2/DepthDuration/v2_depth_duration_MTurk/v2_DepthDuration_HTML.html#47,47,1366,657,1366,768,9-4-2022,8-16-12,80,depth_duration_stimuli/000742_2014-06-08_18-48-09_260595134347_rgbf000164-resize_4/000742_2014-06-08_18-48-09_260595134347_rgbf000164-resize_4-target.png,250,4.632,80,4941,245,meters,jsons/v1_VE250_randls_43.json,2069598,2305381,44,Man
80,538750,DepthScenes,duration_manipulation_targetAtFixation,jsons/v1_VE250_randls_43.json,http://54.235.29.9/FacialAge/BNav_EC2/DepthDuration/v2_depth_duration_MTurk/v2_DepthDuration_HTML.html#47,47,1366,657,1366,768,9-4-2022,8-16-12,81,depth_duration_stimuli/002989_2014-06-15_12-25-03_094959634447_rgbf000150-resize_3/002989_2014-06-15_12-25-03_094959634447_rgbf000150-resize_3-target.png,250,4.1975,80,5012,323,meters,jsons/v1_VE250_randls_43.json,2069598,2305381,44,Man
81,538750,DepthScenes,duration_manipulation_targetAtFixation,jsons/v1_VE250_randls_43.json,http://54.235.29.9/FacialAge/BNav_EC2/DepthDuration/v2_depth_duration_MTurk/v2_DepthDuration_HTML.html#47,47,1366,657,1366,768,9-4-2022,8-16-12,82,depth_duration_stimuli/000866_2014-06-09_20-45-42_260595134347_rgbf000139-resize_1/000866_2014-06-09_20-45-42_260595134347_rgbf000139-resize_1-target.png,250,3.2155,75,69409,273,meters,jsons/v1_VE250_randls_43.json,2069598,2305381,44,Man
82,538750,DepthScenes,duration_manipulation_targetAtFixation,jsons/v1_VE250_randls_43.json,http://54.235.29.9/FacialAge/BNav_EC2/DepthDuration/v2_depth_duration_MTurk/v2_DepthDuration_HTML.html#47,47,1366,657,1366,768,9-4-2022,8-16-12,83,depth_duration_stimuli/001417_2014-06-19_16-25-36_260595134347_rgbf000115-resize_5/001417_2014-06-19_16-25-36_260595134347_rgbf000115-resize_5-target.png,250,4.6255,60,3634,159,meters,jsons/v1_VE250_randls_43.json,2069598,2305381,44,Man
83,538750,DepthScenes,duration_manipulation_targetAtFixation,jsons/v1_VE250_randls_43.json,http://54.235.29.9/FacialAge/BNav_EC2/DepthDuration/v2_depth_duration_MTurk/v2_DepthDuration_HTML.html#47,47,1366,657,1366,768,9-4-2022,8-16-12,84,depth_duration_stimuli/003081_2014-06-15_15-19-16_094959634447_rgbf000150-resize_1/003081_2014-06-15_15-19-16_094959634447_rgbf000150-resize_1-target.png,250,3.9125,75,38544,249,meters,jsons/v1_VE250_randls_43.json,2069598,2305381,44,Man
84,538750,DepthScenes,duration_manipulation_targetAtFixation,jsons/v1_VE250_randls_43.json,http://54.235.29.9/FacialAge/BNav_EC2/DepthDuration/v2_depth_duration_MTurk/v2_DepthDuration_HTML.html#47,47,1366,657,1366,768,9-4-2022,8-16-12,85,depth_duration_stimuli/001175_2014-06-17_15-45-55_260595134347_rgbf000129-resize_4/001175_2014-06-17_15-45-55_260595134347_rgbf000129-resize_4-target.png,250,4.255,65,4308,248,meters,jsons/v1_VE250_randls_43.json,2069598,2305381,44,Man
85,538750,DepthScenes,duration_manipulation_targetAtFixation,jsons/v1_VE250_randls_43.json,http://54.235.29.9/FacialAge/BNav_EC2/DepthDuration/v2_depth_duration_MTurk/v2_DepthDuration_HTML.html#47,47,1366,657,1366,768,9-4-2022,8-16-12,86,depth_duration_stimuli/003490_2014-05-21_15-50-11_094959634447_rgbf000101-resize_3/003490_2014-05-21_15-50-11_094959634447_rgbf000101-resize_3-target.png,250,3.6445,65,31249,249,meters,jsons/v1_VE250_randls_43.json,2069598,2305381,44,Man
86,538750,DepthScenes,duration_manipulation_targetAtFixation,jsons/v1_VE250_randls_43.json,http://54.235.29.9/FacialAge/BNav_EC2/DepthDuration/v2_depth_duration_MTurk/v2_DepthDuration_HTML.html#47,47,1366,657,1366,768,9-4-2022,8-16-12,87,depth_duration_stimuli/000788_2014-06-08_22-34-36_260595134347_rgbf000131-resize_1/000788_2014-06-08_22-34-36_260595134347_rgbf000131-resize_1-target.png,250,3.359,60,29278,250,meters,jsons/v1_VE250_randls_43.json,2069598,2305381,44,Man
87,538750,DepthScenes,duration_manipulation_targetAtFixation,jsons/v1_VE250_randls_43.json,http://54.235.29.9/FacialAge/BNav_EC2/DepthDuration/v2_depth_duration_MTurk/v2_DepthDuration_HTML.html#47,47,1366,657,1366,768,9-4-2022,8-16-12,88,depth_duration_stimuli/001235_2014-06-17_16-37-36_260595134347_rgbf000084-resize_4/001235_2014-06-17_16-37-36_260595134347_rgbf000084-resize_4-target.png,250,3.6605,60,4405,248,meters,jsons/v1_VE250_randls_43.json,2069598,2305381,44,Man
88,538750,DepthScenes,duration_manipulation_targetAtFixation,jsons/v1_VE250_randls_43.json,http://54.235.29.9/FacialAge/BNav_EC2/DepthDuration/v2_depth_duration_MTurk/v2_DepthDuration_HTML.html#47,47,1366,657,1366,768,9-4-2022,8-16-12,89,depth_duration_stimuli/000810_2014-06-08_17-20-01_260595134347_rgbf000105-resize_0/000810_2014-06-08_17-20-01_260595134347_rgbf000105-resize_0-target.png,250,1.4865,65,29939,247,meters,jsons/v1_VE250_randls_43.json,2069598,2305381,44,Man
89,538750,DepthScenes,duration_manipulation_targetAtFixation,jsons/v1_VE250_randls_43.json,http://54.235.29.9/FacialAge/BNav_EC2/DepthDuration/v2_depth_duration_MTurk/v2_DepthDuration_HTML.html#47,47,1366,657,1366,768,9-4-2022,8-16-12,90,depth_duration_stimuli/001214_2014-06-17_16-13-55_260595134347_rgbf000111-resize_0/001214_2014-06-17_16-13-55_260595134347_rgbf000111-resize_0-target.png,250,2.6505,55,5146,249,meters,jsons/v1_VE250_randls_43.json,2069598,2305381,44,Man
90,538750,DepthScenes,duration_manipulation_targetAtFixation,jsons/v1_VE250_randls_43.json,http://54.235.29.9/FacialAge/BNav_EC2/DepthDuration/v2_depth_duration_MTurk/v2_DepthDuration_HTML.html#47,47,1366,657,1366,768,9-4-2022,8-16-12,91,depth_duration_stimuli/002279_2014-06-28_18-55-32_260595134347_rgbf000040-resize_5/002279_2014-06-28_18-55-32_260595134347_rgbf000040-resize_5-target.png,250,1.5043333333333,45,4188,249,meters,jsons/v1_VE250_randls_43.json,2069598,2305381,44,Man
91,538750,DepthScenes,duration_manipulation_targetAtFixation,jsons/v1_VE250_randls_43.json,http://54.235.29.9/FacialAge/BNav_EC2/DepthDuration/v2_depth_duration_MTurk/v2_DepthDuration_HTML.html#47,47,1366,657,1366,768,9-4-2022,8-16-12,92,depth_duration_stimuli/000635_2014-06-08_16-38-42_260595134347_rgbf000106-resize_1/000635_2014-06-08_16-38-42_260595134347_rgbf000106-resize_1-target.png,250,2.074,60,3619,249,meters,jsons/v1_VE250_randls_43.json,2069598,2305381,44,Man
92,538750,DepthScenes,duration_manipulation_targetAtFixation,jsons/v1_VE250_randls_43.json,http://54.235.29.9/FacialAge/BNav_EC2/DepthDuration/v2_depth_duration_MTurk/v2_DepthDuration_HTML.html#47,47,1366,657,1366,768,9-4-2022,8-16-12,93,depth_duration_stimuli/001110_2014-06-15_17-25-28_260595134347_rgbf000150-resize_1/001110_2014-06-15_17-25-28_260595134347_rgbf000150-resize_1-target.png,250,1.7115,55,4317,248,meters,jsons/v1_VE250_randls_43.json,2069598,2305381,44,Man
93,538750,DepthScenes,duration_manipulation_targetAtFixation,jsons/v1_VE250_randls_43.json,http://54.235.29.9/FacialAge/BNav_EC2/DepthDuration/v2_depth_duration_MTurk/v2_DepthDuration_HTML.html#47,47,1366,657,1366,768,9-4-2022,8-16-12,94,depth_duration_stimuli/000927_2014-06-09_16-32-30_260595134347_rgbf000123-resize_3/000927_2014-06-09_16-32-30_260595134347_rgbf000123-resize_3-target.png,250,2.6785,65,20421,249,meters,jsons/v1_VE250_randls_43.json,2069598,2305381,44,Man
94,538750,DepthScenes,duration_manipulation_targetAtFixation,jsons/v1_VE250_randls_43.json,http://54.235.29.9/FacialAge/BNav_EC2/DepthDuration/v2_depth_duration_MTurk/v2_DepthDuration_HTML.html#47,47,1366,657,1366,768,9-4-2022,8-16-12,95,depth_duration_stimuli/002600_2014-06-24_14-27-04_094959634447_rgbf000074-resize_2/002600_2014-06-24_14-27-04_094959634447_rgbf000074-resize_2-target.png,250,2.7575,65,27807,249,meters,jsons/v1_VE250_randls_43.json,2069598,2305381,44,Man
95,538750,DepthScenes,duration_manipulation_targetAtFixation,jsons/v1_VE250_randls_43.json,http://54.235.29.9/FacialAge/BNav_EC2/DepthDuration/v2_depth_duration_MTurk/v2_DepthDuration_HTML.html#47,47,1366,657,1366,768,9-4-2022,8-16-12,96,depth_duration_stimuli/003228_2014-05-14_13-42-35_094959634447_rgbf000101-resize_1/003228_2014-05-14_13-42-35_094959634447_rgbf000101-resize_1-target.png,250,1.9680000000000002,45,6438,249,meters,jsons/v1_VE250_randls_43.json,2069598,2305381,44,Man
96,538750,DepthScenes,duration_manipulation_targetAtFixation,jsons/v1_VE250_randls_43.json,http://54.235.29.9/FacialAge/BNav_EC2/DepthDuration/v2_depth_duration_MTurk/v2_DepthDuration_HTML.html#47,47,1366,657,1366,768,9-4-2022,8-16-12,97,depth_duration_stimuli/000917_2014-06-09_22-45-29_260595134347_rgbf000149-resize_3/000917_2014-06-09_22-45-29_260595134347_rgbf000149-resize_3-target.png,250,4.1865,60,4543,214,meters,jsons/v1_VE250_randls_43.json,2069598,2305381,44,Man
97,538750,DepthScenes,duration_manipulation_targetAtFixation,jsons/v1_VE250_randls_43.json,http://54.235.29.9/FacialAge/BNav_EC2/DepthDuration/v2_depth_duration_MTurk/v2_DepthDuration_HTML.html#47,47,1366,657,1366,768,9-4-2022,8-16-12,98,depth_duration_stimuli/002323_2014-06-28_20-01-54_260595134347_rgbf000051-resize_4/002323_2014-06-28_20-01-54_260595134347_rgbf000051-resize_4-target.png,250,3.7310000000000003,80,5338,248,meters,jsons/v1_VE250_randls_43.json,2069598,2305381,44,Man
98,538750,DepthScenes,duration_manipulation_targetAtFixation,jsons/v1_VE250_randls_43.json,http://54.235.29.9/FacialAge/BNav_EC2/DepthDuration/v2_depth_duration_MTurk/v2_DepthDuration_HTML.html#47,47,1366,657,1366,768,9-4-2022,8-16-12,99,depth_duration_stimuli/001540_2014-06-20_17-01-05_260595134347_rgbf000086-resize_2/001540_2014-06-20_17-01-05_260595134347_rgbf000086-resize-original.jpg,250,1.459,0,3937,249,meters,jsons/v1_VE250_randls_43.json,2069598,2305381,44,Man
99,538750,DepthScenes,duration_manipulation_targetAtFixation,jsons/v1_VE250_randls_43.json,http://54.235.29.9/FacialAge/BNav_EC2/DepthDuration/v2_depth_duration_MTurk/v2_DepthDuration_HTML.html#47,47,1366,657,1366,768,9-4-2022,8-16-12,100,depth_duration_stimuli/001158_2014-06-17_15-32-16_260595134347_rgbf000138-resize_2/001158_2014-06-17_15-32-16_260595134347_rgbf000138-resize_2-target.png,250,4.5315,75,28361,244,meters,jsons/v1_VE250_randls_43.json,2069598,2305381,44,Man
100,538750,DepthScenes,duration_manipulation_targetAtFixation,jsons/v1_VE250_randls_43.json,http://54.235.29.9/FacialAge/BNav_EC2/DepthDuration/v2_depth_duration_MTurk/v2_DepthDuration_HTML.html#47,47,1366,657,1366,768,9-4-2022,8-16-12,101,depth_duration_stimuli/000556_2014-06-09_22-42-56_260595134347_rgbf000214-resize_1/000556_2014-06-09_22-42-56_260595134347_rgbf000214-resize_1-target.png,250,4.8415,60,3467,214,meters,jsons/v1_VE250_randls_43.json,2069598,2305381,44,Man
101,538750,DepthScenes,duration_manipulation_targetAtFixation,jsons/v1_VE250_randls_43.json,http://54.235.29.9/FacialAge/BNav_EC2/DepthDuration/v2_depth_duration_MTurk/v2_DepthDuration_HTML.html#47,47,1366,657,1366,768,9-4-2022,8-16-12,102,depth_duration_stimuli/000436_2014-06-09_22-25-11_260595134347_rgbf000137-resize_1/000436_2014-06-09_22-25-11_260595134347_rgbf000137-resize_1-target.png,250,4.0705,75,27175,248,meters,jsons/v1_VE250_randls_43.json,2069598,2305381,44,Man
102,538750,DepthScenes,duration_manipulation_targetAtFixation,jsons/v1_VE250_randls_43.json,http://54.235.29.9/FacialAge/BNav_EC2/DepthDuration/v2_depth_duration_MTurk/v2_DepthDuration_HTML.html#47,47,1366,657,1366,768,9-4-2022,8-16-12,103,depth_duration_stimuli/002444_2014-06-28_20-32-08_260595134347_rgbf000027-resize_0/002444_2014-06-28_20-32-08_260595134347_rgbf000027-resize_0-target.png,250,4.388999999999999,70,5054,249,meters,jsons/v1_VE250_randls_43.json,2069598,2305381,44,Man
103,538750,DepthScenes,duration_manipulation_targetAtFixation,jsons/v1_VE250_randls_43.json,http://54.235.29.9/FacialAge/BNav_EC2/DepthDuration/v2_depth_duration_MTurk/v2_DepthDuration_HTML.html#47,47,1366,657,1366,768,9-4-2022,8-16-12,104,depth_duration_stimuli/001011_2014-06-08_23-18-54_260595134347_rgbf000044-resize_4/001011_2014-06-08_23-18-54_260595134347_rgbf000044-resize_4-target.png,250,2.4730000000000003,65,6462,247,meters,jsons/v1_VE250_randls_43.json,2069598,2305381,44,Man
104,538750,DepthScenes,duration_manipulation_targetAtFixation,jsons/v1_VE250_randls_43.json,http://54.235.29.9/FacialAge/BNav_EC2/DepthDuration/v2_depth_duration_MTurk/v2_DepthDuration_HTML.html#47,47,1366,657,1366,768,9-4-2022,8-16-12,105,depth_duration_stimuli/002875_2014-06-01_15-19-00_094959634447_rgbf000151-resize_1/002875_2014-06-01_15-19-00_094959634447_rgbf000151-resize_1-target.png,250,1.9675,60,4115,249,meters,jsons/v1_VE250_randls_43.json,2069598,2305381,44,Man
105,538750,DepthScenes,duration_manipulation_targetAtFixation,jsons/v1_VE250_randls_43.json,http://54.235.29.9/FacialAge/BNav_EC2/DepthDuration/v2_depth_duration_MTurk/v2_DepthDuration_HTML.html#47,47,1366,657,1366,768,9-4-2022,8-16-12,106,depth_duration_stimuli/003492_2014-05-21_15-50-55_094959634447_rgbf000828-resize_1/003492_2014-05-21_15-50-55_094959634447_rgbf000828-resize_1-target.png,250,4.06875,70,4720,127,meters,jsons/v1_VE250_randls_43.json,2069598,2305381,44,Man
106,538750,DepthScenes,duration_manipulation_targetAtFixation,jsons/v1_VE250_randls_43.json,http://54.235.29.9/FacialAge/BNav_EC2/DepthDuration/v2_depth_duration_MTurk/v2_DepthDuration_HTML.html#47,47,1366,657,1366,768,9-4-2022,8-16-12,107,depth_duration_stimuli/002568_2014-06-24_13-59-21_094959634447_rgbf000062-resize_4/002568_2014-06-24_13-59-21_094959634447_rgbf000062-resize_4-target.png,250,3.015,60,4177,246,meters,jsons/v1_VE250_randls_43.json,2069598,2305381,44,Man
107,538750,DepthScenes,duration_manipulation_targetAtFixation,jsons/v1_VE250_randls_43.json,http://54.235.29.9/FacialAge/BNav_EC2/DepthDuration/v2_depth_duration_MTurk/v2_DepthDuration_HTML.html#47,47,1366,657,1366,768,9-4-2022,8-16-12,108,depth_duration_stimuli/001164_2014-06-17_15-35-46_260595134347_rgbf000085-resize_3/001164_2014-06-17_15-35-46_260595134347_rgbf000085-resize_3-target.png,250,2.354,65,40336,205,meters,jsons/v1_VE250_randls_43.json,2069598,2305381,44,Man
108,538750,DepthScenes,duration_manipulation_targetAtFixation,jsons/v1_VE250_randls_43.json,http://54.235.29.9/FacialAge/BNav_EC2/DepthDuration/v2_depth_duration_MTurk/v2_DepthDuration_HTML.html#47,47,1366,657,1366,768,9-4-2022,8-16-12,109,depth_duration_stimuli/001136_2014-06-17_15-19-41_260595134347_rgbf000076-resize_3/001136_2014-06-17_15-19-41_260595134347_rgbf000076-resize_3-target.png,250,1.8655,65,5595,248,meters,jsons/v1_VE250_randls_43.json,2069598,2305381,44,Man
109,538750,DepthScenes,duration_manipulation_targetAtFixation,jsons/v1_VE250_randls_43.json,http://54.235.29.9/FacialAge/BNav_EC2/DepthDuration/v2_depth_duration_MTurk/v2_DepthDuration_HTML.html#47,47,1366,657,1366,768,9-4-2022,8-16-12,110,depth_duration_stimuli/000506_2014-06-08_23-21-00_260595134347_rgbf000070-resize_7/000506_2014-06-08_23-21-00_260595134347_rgbf000070-resize_7-target.png,250,4.0585,70,6959,250,meters,jsons/v1_VE250_randls_43.json,2069598,2305381,44,Man
110,538750,DepthScenes,duration_manipulation_targetAtFixation,jsons/v1_VE250_randls_43.json,http://54.235.29.9/FacialAge/BNav_EC2/DepthDuration/v2_depth_duration_MTurk/v2_DepthDuration_HTML.html#47,47,1366,657,1366,768,9-4-2022,8-16-12,111,depth_duration_stimuli/003079_2014-06-15_15-18-20_094959634447_rgbf000152-resize_8/003079_2014-06-15_15-18-20_094959634447_rgbf000152-resize_8-target.png,250,2.8775,75,8816,247,meters,jsons/v1_VE250_randls_43.json,2069598,2305381,44,Man
111,538750,DepthScenes,duration_manipulation_targetAtFixation,jsons/v1_VE250_randls_43.json,http://54.235.29.9/FacialAge/BNav_EC2/DepthDuration/v2_depth_duration_MTurk/v2_DepthDuration_HTML.html#47,47,1366,657,1366,768,9-4-2022,8-16-12,112,depth_duration_stimuli/000493_2014-06-09_21-01-18_260595134347_rgbf000196-resize_3/000493_2014-06-09_21-01-18_260595134347_rgbf000196-resize_3-target.png,250,3.44,65,30062,249,meters,jsons/v1_VE250_randls_43.json,2069598,2305381,44,Man
112,538750,DepthScenes,duration_manipulation_targetAtFixation,jsons/v1_VE250_randls_43.json,http://54.235.29.9/FacialAge/BNav_EC2/DepthDuration/v2_depth_duration_MTurk/v2_DepthDuration_HTML.html#47,47,1366,657,1366,768,9-4-2022,8-16-12,113,depth_duration_stimuli/000191_2014-05-12_17-07-38_260595134347_rgbf000199-resize_0/000191_2014-05-12_17-07-38_260595134347_rgbf000199-resize_0-target.png,250,3.7995,85,4751,251,meters,jsons/v1_VE250_randls_43.json,2069598,2305381,44,Man
113,538750,DepthScenes,duration_manipulation_targetAtFixation,jsons/v1_VE250_randls_43.json,http://54.235.29.9/FacialAge/BNav_EC2/DepthDuration/v2_depth_duration_MTurk/v2_DepthDuration_HTML.html#47,47,1366,657,1366,768,9-4-2022,8-16-12,114,depth_duration_stimuli/000486_2014-06-09_20-47-20_260595134347_rgbf000143-resize_2/000486_2014-06-09_20-47-20_260595134347_rgbf000143-resize_2-target.png,250,4.8325,60,4726,232,meters,jsons/v1_VE250_randls_43.json,2069598,2305381,44,Man
114,538750,DepthScenes,duration_manipulation_targetAtFixation,jsons/v1_VE250_randls_43.json,http://54.235.29.9/FacialAge/BNav_EC2/DepthDuration/v2_depth_duration_MTurk/v2_DepthDuration_HTML.html#47,47,1366,657,1366,768,9-4-2022,8-16-12,115,depth_duration_stimuli/003083_2014-06-15_15-21-03_094959634447_rgbf000063-resize_1/003083_2014-06-15_15-21-03_094959634447_rgbf000063-resize_1-target.png,250,4.1405,85,5469,207,meters,jsons/v1_VE250_randls_43.json,2069598,2305381,44,Man
115,538750,DepthScenes,duration_manipulation_targetAtFixation,jsons/v1_VE250_randls_43.json,http://54.235.29.9/FacialAge/BNav_EC2/DepthDuration/v2_depth_duration_MTurk/v2_DepthDuration_HTML.html#47,47,1366,657,1366,768,9-4-2022,8-16-12,116,depth_duration_stimuli/001170_2014-06-17_15-43-44_260595134347_rgbf000096-resize_6/001170_2014-06-17_15-43-44_260595134347_rgbf000096-resize-original.jpg,250,1.1909999999999998,0,4357,249,meters,jsons/v1_VE250_randls_43.json,2069598,2305381,44,Man
116,538750,DepthScenes,duration_manipulation_targetAtFixation,jsons/v1_VE250_randls_43.json,http://54.235.29.9/FacialAge/BNav_EC2/DepthDuration/v2_depth_duration_MTurk/v2_DepthDuration_HTML.html#47,47,1366,657,1366,768,9-4-2022,8-16-12,117,depth_duration_stimuli/000469_2014-06-09_19-42-10_260595134347_rgbf000081-resize_1/000469_2014-06-09_19-42-10_260595134347_rgbf000081-resize_1-target.png,250,1.652,55,22790,247,meters,jsons/v1_VE250_randls_43.json,2069598,2305381,44,Man
117,538750,DepthScenes,duration_manipulation_targetAtFixation,jsons/v1_VE250_randls_43.json,http://54.235.29.9/FacialAge/BNav_EC2/DepthDuration/v2_depth_duration_MTurk/v2_DepthDuration_HTML.html#47,47,1366,657,1366,768,9-4-2022,8-16-12,118,depth_duration_stimuli/000483_2014-06-09_20-41-45_260595134347_rgbf000116-resize_4/000483_2014-06-09_20-41-45_260595134347_rgbf000116-resize_4-target.png,250,1.337,45,4319,250,meters,jsons/v1_VE250_randls_43.json,2069598,2305381,44,Man
118,538750,DepthScenes,duration_manipulation_targetAtFixation,jsons/v1_VE250_randls_43.json,http://54.235.29.9/FacialAge/BNav_EC2/DepthDuration/v2_depth_duration_MTurk/v2_DepthDuration_HTML.html#47,47,1366,657,1366,768,9-4-2022,8-16-12,119,depth_duration_stimuli/001449_2014-06-19_17-01-27_260595134347_rgbf000116-resize_2/001449_2014-06-19_17-01-27_260595134347_rgbf000116-resize_2-target.png,250,3.452,75,28808,249,meters,jsons/v1_VE250_randls_43.json,2069598,2305381,44,Man
119,538750,DepthScenes,duration_manipulation_targetAtFixation,jsons/v1_VE250_randls_43.json,http://54.235.29.9/FacialAge/BNav_EC2/DepthDuration/v2_depth_duration_MTurk/v2_DepthDuration_HTML.html#47,47,1366,657,1366,768,9-4-2022,8-16-12,120,depth_duration_stimuli/001450_2014-06-19_17-02-03_260595134347_rgbf000203-resize_4/001450_2014-06-19_17-02-03_260595134347_rgbf000203-resize_4-target.png,250,4.0106666666667,80,3635,248,meters,jsons/v1_VE250_randls_43.json,2069598,2305381,44,Man
120,538750,DepthScenes,duration_manipulation_targetAtFixation,jsons/v1_VE250_randls_43.json,http://54.235.29.9/FacialAge/BNav_EC2/DepthDuration/v2_depth_duration_MTurk/v2_DepthDuration_HTML.html#47,47,1366,657,1366,768,9-4-2022,8-16-12,121,depth_duration_stimuli/001244_2014-06-17_16-47-45_260595134347_rgbf000030-resize_4/001244_2014-06-17_16-47-45_260595134347_rgbf000030-resize_4-target.png,250,2.0425,65,30470,249,meters,jsons/v1_VE250_randls_43.json,2069598,2305381,44,Man
121,538750,DepthScenes,duration_manipulation_targetAtFixation,jsons/v1_VE250_randls_43.json,http://54.235.29.9/FacialAge/BNav_EC2/DepthDuration/v2_depth_duration_MTurk/v2_DepthDuration_HTML.html#47,47,1366,657,1366,768,9-4-2022,8-16-12,122,depth_duration_stimuli/003495_2014-05-21_16-01-51_094959634447_rgbf000100-resize_3/003495_2014-05-21_16-01-51_094959634447_rgbf000100-resize_3-target.png,250,1.6255,50,5179,212,meters,jsons/v1_VE250_randls_43.json,2069598,2305381,44,Man
122,538750,DepthScenes,duration_manipulation_targetAtFixation,jsons/v1_VE250_randls_43.json,http://54.235.29.9/FacialAge/BNav_EC2/DepthDuration/v2_depth_duration_MTurk/v2_DepthDuration_HTML.html#47,47,1366,657,1366,768,9-4-2022,8-16-12,123,depth_duration_stimuli/000009_2014-05-26_14-32-05_260595134347_rgbf000034-resize_3/000009_2014-05-26_14-32-05_260595134347_rgbf000034-resize_3-target.png,250,3.8715,75,30193,250,meters,jsons/v1_VE250_randls_43.json,2069598,2305381,44,Man
123,538750,DepthScenes,duration_manipulation_targetAtFixation,jsons/v1_VE250_randls_43.json,http://54.235.29.9/FacialAge/BNav_EC2/DepthDuration/v2_depth_duration_MTurk/v2_DepthDuration_HTML.html#47,47,1366,657,1366,768,9-4-2022,8-16-12,124,depth_duration_stimuli/001828_2014-06-26_21-40-03_260595134347_rgbf000024-resize_0/001828_2014-06-26_21-40-03_260595134347_rgbf000024-resize_0-target.png,250,4.8260000000000005,75,5669,249,meters,jsons/v1_VE250_randls_43.json,2069598,2305381,44,Man
124,538750,DepthScenes,duration_manipulation_targetAtFixation,jsons/v1_VE250_randls_43.json,http://54.235.29.9/FacialAge/BNav_EC2/DepthDuration/v2_depth_duration_MTurk/v2_DepthDuration_HTML.html#47,47,1366,657,1366,768,9-4-2022,8-16-12,125,depth_duration_stimuli/000522_2014-06-08_13-35-06_260595134347_rgbf000244-resize_1/000522_2014-06-08_13-35-06_260595134347_rgbf000244-resize_1-target.png,250,2.3715,60,3382,249,meters,jsons/v1_VE250_randls_43.json,2069598,2305381,44,Man
125,538750,DepthScenes,duration_manipulation_targetAtFixation,jsons/v1_VE250_randls_43.json,http://54.235.29.9/FacialAge/BNav_EC2/DepthDuration/v2_depth_duration_MTurk/v2_DepthDuration_HTML.html#47,47,1366,657,1366,768,9-4-2022,8-16-12,126,depth_duration_stimuli/002949_2014-06-26_15-57-42_094959634447_rgbf000079-resize_1/002949_2014-06-26_15-57-42_094959634447_rgbf000079-resize_1-target.png,250,1.8915,75,31805,249,meters,jsons/v1_VE250_randls_43.json,2069598,2305381,44,Man
126,538750,DepthScenes,duration_manipulation_targetAtFixation,jsons/v1_VE250_randls_43.json,http://54.235.29.9/FacialAge/BNav_EC2/DepthDuration/v2_depth_duration_MTurk/v2_DepthDuration_HTML.html#47,47,1366,657,1366,768,9-4-2022,8-16-12,127,depth_duration_stimuli/002043_2014-06-24_20-29-38_260595134347_rgbf000039-resize_4/002043_2014-06-24_20-29-38_260595134347_rgbf000039-resize_4-target.png,250,2.8435,65,4993,249,meters,jsons/v1_VE250_randls_43.json,2069598,2305381,44,Man
127,538750,DepthScenes,duration_manipulation_targetAtFixation,jsons/v1_VE250_randls_43.json,http://54.235.29.9/FacialAge/BNav_EC2/DepthDuration/v2_depth_duration_MTurk/v2_DepthDuration_HTML.html#47,47,1366,657,1366,768,9-4-2022,8-16-12,128,depth_duration_stimuli/003048_2014-06-15_13-49-43_094959634447_rgbf000150-resize_1/003048_2014-06-15_13-49-43_094959634447_rgbf000150-resize_1-target.png,250,4.0035,60,3392,168,meters,jsons/v1_VE250_randls_43.json,2069598,2305381,44,Man
128,538750,DepthScenes,duration_manipulation_targetAtFixation,jsons/v1_VE250_randls_43.json,http://54.235.29.9/FacialAge/BNav_EC2/DepthDuration/v2_depth_duration_MTurk/v2_DepthDuration_HTML.html#47,47,1366,657,1366,768,9-4-2022,8-16-12,129,depth_duration_stimuli/001133_2014-06-17_14-49-16_260595134347_rgbf000100-resize_0/001133_2014-06-17_14-49-16_260595134347_rgbf000100-resize_0-target.png,250,4.2115,55,4360,249,meters,jsons/v1_VE250_randls_43.json,2069598,2305381,44,Man
129,538750,DepthScenes,duration_manipulation_targetAtFixation,jsons/v1_VE250_randls_43.json,http://54.235.29.9/FacialAge/BNav_EC2/DepthDuration/v2_depth_duration_MTurk/v2_DepthDuration_HTML.html#47,47,1366,657,1366,768,9-4-2022,8-16-12,130,depth_duration_stimuli/001132_2014-06-17_14-48-54_260595134347_rgbf000100-resize_2/001132_2014-06-17_14-48-54_260595134347_rgbf000100-resize_2-target.png,250,3.753,70,31318,248,meters,jsons/v1_VE250_randls_43.json,2069598,2305381,44,Man
130,538750,DepthScenes,duration_manipulation_targetAtFixation,jsons/v1_VE250_randls_43.json,http://54.235.29.9/FacialAge/BNav_EC2/DepthDuration/v2_depth_duration_MTurk/v2_DepthDuration_HTML.html#47,47,1366,657,1366,768,9-4-2022,8-16-12,131,depth_duration_stimuli/002788_2014-06-22_19-36-03_094959634447_rgbf000088-resize_2/002788_2014-06-22_19-36-03_094959634447_rgbf000088-resize_2-target.png,250,1.6465,65,26448,248,meters,jsons/v1_VE250_randls_43.json,2069598,2305381,44,Man
131,538750,DepthScenes,duration_manipulation_targetAtFixation,jsons/v1_VE250_randls_43.json,http://54.235.29.9/FacialAge/BNav_EC2/DepthDuration/v2_depth_duration_MTurk/v2_DepthDuration_HTML.html#47,47,1366,657,1366,768,9-4-2022,8-16-12,132,depth_duration_stimuli/000749_2014-06-08_21-55-06_260595134347_rgbf000070-resize_2/000749_2014-06-08_21-55-06_260595134347_rgbf000070-resize_2-target.png,250,2.331,60,8424,255,meters,jsons/v1_VE250_randls_43.json,2069598,2305381,44,Man
132,538750,DepthScenes,duration_manipulation_targetAtFixation,jsons/v1_VE250_randls_43.json,http://54.235.29.9/FacialAge/BNav_EC2/DepthDuration/v2_depth_duration_MTurk/v2_DepthDuration_HTML.html#47,47,1366,657,1366,768,9-4-2022,8-16-12,133,depth_duration_stimuli/000758_2014-06-08_22-05-08_260595134347_rgbf000085-resize_0/000758_2014-06-08_22-05-08_260595134347_rgbf000085-resize_0-target.png,250,3.3810000000000002,75,4838,249,meters,jsons/v1_VE250_randls_43.json,2069598,2305381,44,Man
133,538750,DepthScenes,duration_manipulation_targetAtFixation,jsons/v1_VE250_randls_43.json,http://54.235.29.9/FacialAge/BNav_EC2/DepthDuration/v2_depth_duration_MTurk/v2_DepthDuration_HTML.html#47,47,1366,657,1366,768,9-4-2022,8-16-12,134,depth_duration_stimuli/000854_2014-06-09_19-43-13_260595134347_rgbf000066-resize_0/000854_2014-06-09_19-43-13_260595134347_rgbf000066-resize_0-target.png,250,3.068,55,4499,249,meters,jsons/v1_VE250_randls_43.json,2069598,2305381,44,Man
134,538750,DepthScenes,duration_manipulation_targetAtFixation,jsons/v1_VE250_randls_43.json,http://54.235.29.9/FacialAge/BNav_EC2/DepthDuration/v2_depth_duration_MTurk/v2_DepthDuration_HTML.html#47,47,1366,657,1366,768,9-4-2022,8-16-12,135,depth_duration_stimuli/002072_2014-06-24_21-48-06_260595134347_rgbf000115-resize_0/002072_2014-06-24_21-48-06_260595134347_rgbf000115-resize-original.jpg,250,4.702,0,23371,249,meters,jsons/v1_VE250_randls_43.json,2069598,2305381,44,Man
135,538750,DepthScenes,duration_manipulation_targetAtFixation,jsons/v1_VE250_randls_43.json,http://54.235.29.9/FacialAge/BNav_EC2/DepthDuration/v2_depth_duration_MTurk/v2_DepthDuration_HTML.html#47,47,1366,657,1366,768,9-4-2022,8-16-12,136,depth_duration_stimuli/002725_2014-06-22_11-47-51_094959634447_rgbf000070-resize_1/002725_2014-06-22_11-47-51_094959634447_rgbf000070-resize_1-target.png,250,2.195,70,29306,254,meters,jsons/v1_VE250_randls_43.json,2069598,2305381,44,Man
136,538750,DepthScenes,duration_manipulation_targetAtFixation,jsons/v1_VE250_randls_43.json,http://54.235.29.9/FacialAge/BNav_EC2/DepthDuration/v2_depth_duration_MTurk/v2_DepthDuration_HTML.html#47,47,1366,657,1366,768,9-4-2022,8-16-12,137,depth_duration_stimuli/002344_2014-06-28_20-06-29_260595134347_rgbf000030-resize_1/002344_2014-06-28_20-06-29_260595134347_rgbf000030-resize_1-target.png,250,1.5795,65,4564,248,meters,jsons/v1_VE250_randls_43.json,2069598,2305381,44,Man
137,538750,DepthScenes,duration_manipulation_targetAtFixation,jsons/v1_VE250_randls_43.json,http://54.235.29.9/FacialAge/BNav_EC2/DepthDuration/v2_depth_duration_MTurk/v2_DepthDuration_HTML.html#47,47,1366,657,1366,768,9-4-2022,8-16-12,138,depth_duration_stimuli/001016_2014-06-09_16-16-10_260595134347_rgbf000112-resize_5/001016_2014-06-09_16-16-10_260595134347_rgbf000112-resize_5-target.png,250,1.6565,65,7078,228,meters,jsons/v1_VE250_randls_43.json,2069598,2305381,44,Man
138,538750,DepthScenes,duration_manipulation_targetAtFixation,jsons/v1_VE250_randls_43.json,http://54.235.29.9/FacialAge/BNav_EC2/DepthDuration/v2_depth_duration_MTurk/v2_DepthDuration_HTML.html#47,47,1366,657,1366,768,9-4-2022,8-16-12,139,depth_duration_stimuli/002340_2014-06-28_20-05-46_260595134347_rgbf000113-resize_0/002340_2014-06-28_20-05-46_260595134347_rgbf000113-resize_0-target.png,250,2.4735,65,31439,218,meters,jsons/v1_VE250_randls_43.json,2069598,2305381,44,Man
139,538750,DepthScenes,duration_manipulation_targetAtFixation,jsons/v1_VE250_randls_43.json,http://54.235.29.9/FacialAge/BNav_EC2/DepthDuration/v2_depth_duration_MTurk/v2_DepthDuration_HTML.html#47,47,1366,657,1366,768,9-4-2022,8-16-12,140,depth_duration_stimuli/002375_2014-06-28_20-13-44_260595134347_rgbf000032-resize_1/002375_2014-06-28_20-13-44_260595134347_rgbf000032-resize_1-target.png,250,4.0175,60,7826,306,meters,jsons/v1_VE250_randls_43.json,2069598,2305381,44,Man
140,538750,DepthScenes,duration_manipulation_targetAtFixation,jsons/v1_VE250_randls_43.json,http://54.235.29.9/FacialAge/BNav_EC2/DepthDuration/v2_depth_duration_MTurk/v2_DepthDuration_HTML.html#47,47,1366,657,1366,768,9-4-2022,8-16-12,141,depth_duration_stimuli/002657_2014-06-13_15-29-54_094959634447_rgbf000150-resize_1/002657_2014-06-13_15-29-54_094959634447_rgbf000150-resize_1-target.png,250,4.919,70,5821,249,meters,jsons/v1_VE250_randls_43.json,2069598,2305381,44,Man
141,538750,DepthScenes,duration_manipulation_targetAtFixation,jsons/v1_VE250_randls_43.json,http://54.235.29.9/FacialAge/BNav_EC2/DepthDuration/v2_depth_duration_MTurk/v2_DepthDuration_HTML.html#47,47,1366,657,1366,768,9-4-2022,8-16-12,142,depth_duration_stimuli/001199_2014-06-17_16-03-48_260595134347_rgbf000077-resize_0/001199_2014-06-17_16-03-48_260595134347_rgbf000077-resize_0-target.png,250,3.4375,75,3864,249,meters,jsons/v1_VE250_randls_43.json,2069598,2305381,44,Man
142,538750,DepthScenes,duration_manipulation_targetAtFixation,jsons/v1_VE250_randls_43.json,http://54.235.29.9/FacialAge/BNav_EC2/DepthDuration/v2_depth_duration_MTurk/v2_DepthDuration_HTML.html#47,47,1366,657,1366,768,9-4-2022,8-16-12,143,depth_duration_stimuli/000502_2014-06-08_23-02-32_260595134347_rgbf000063-resize_4/000502_2014-06-08_23-02-32_260595134347_rgbf000063-resize_4-target.png,250,2.431,55,4243,248,meters,jsons/v1_VE250_randls_43.json,2069598,2305381,44,Man
143,538750,DepthScenes,duration_manipulation_targetAtFixation,jsons/v1_VE250_randls_43.json,http://54.235.29.9/FacialAge/BNav_EC2/DepthDuration/v2_depth_duration_MTurk/v2_DepthDuration_HTML.html#47,47,1366,657,1366,768,9-4-2022,8-16-12,144,depth_duration_stimuli/000692_2014-06-08_13-09-42_260595134347_rgbf000199-resize_2/000692_2014-06-08_13-09-42_260595134347_rgbf000199-resize_2-target.png,250,3.661,70,6363,249,meters,jsons/v1_VE250_randls_43.json,2069598,2305381,44,Man
144,538750,DepthScenes,duration_manipulation_targetAtFixation,jsons/v1_VE250_randls_43.json,http://54.235.29.9/FacialAge/BNav_EC2/DepthDuration/v2_depth_duration_MTurk/v2_DepthDuration_HTML.html#47,47,1366,657,1366,768,9-4-2022,8-16-12,145,depth_duration_stimuli/001094_2014-06-15_17-36-00_260595134347_rgbf000205-resize_0/001094_2014-06-15_17-36-00_260595134347_rgbf000205-resize_0-target.png,250,4.2175,75,4193,249,meters,jsons/v1_VE250_randls_43.json,2069598,2305381,44,Man
145,538750,DepthScenes,duration_manipulation_targetAtFixation,jsons/v1_VE250_randls_43.json,http://54.235.29.9/FacialAge/BNav_EC2/DepthDuration/v2_depth_duration_MTurk/v2_DepthDuration_HTML.html#47,47,1366,657,1366,768,9-4-2022,8-16-12,146,depth_duration_stimuli/001498_2014-06-19_17-45-14_260595134347_rgbf000129-resize_4/001498_2014-06-19_17-45-14_260595134347_rgbf000129-resize-original.jpg,250,1.4075,0,5023,248,meters,jsons/v1_VE250_randls_43.json,2069598,2305381,44,Man
146,538750,DepthScenes,duration_manipulation_targetAtFixation,jsons/v1_VE250_randls_43.json,http://54.235.29.9/FacialAge/BNav_EC2/DepthDuration/v2_depth_duration_MTurk/v2_DepthDuration_HTML.html#47,47,1366,657,1366,768,9-4-2022,8-16-12,147,depth_duration_stimuli/003534_2014-05-22_15-06-10_094959634447_rgbf000102-resize_4/003534_2014-05-22_15-06-10_094959634447_rgbf000102-resize_4-target.png,250,1.426,35,46252,146,meters,jsons/v1_VE250_randls_43.json,2069598,2305381,44,Man
147,538750,DepthScenes,duration_manipulation_targetAtFixation,jsons/v1_VE250_randls_43.json,http://54.235.29.9/FacialAge/BNav_EC2/DepthDuration/v2_depth_duration_MTurk/v2_DepthDuration_HTML.html#47,47,1366,657,1366,768,9-4-2022,8-16-12,148,depth_duration_stimuli/002637_2014-06-24_14-51-13_094959634447_rgbf000066-resize_4/002637_2014-06-24_14-51-13_094959634447_rgbf000066-resize_4-target.png,250,1.9955,55,3830,249,meters,jsons/v1_VE250_randls_43.json,2069598,2305381,44,Man
148,538750,DepthScenes,duration_manipulation_targetAtFixation,jsons/v1_VE250_randls_43.json,http://54.235.29.9/FacialAge/BNav_EC2/DepthDuration/v2_depth_duration_MTurk/v2_DepthDuration_HTML.html#47,47,1366,657,1366,768,9-4-2022,8-16-12,149,depth_duration_stimuli/001806_2014-06-26_20-50-20_260595134347_rgbf000091-resize_1/001806_2014-06-26_20-50-20_260595134347_rgbf000091-resize_1-target.png,250,2.7305,60,5173,248,meters,jsons/v1_VE250_randls_43.json,2069598,2305381,44,Man
149,538750,DepthScenes,duration_manipulation_targetAtFixation,jsons/v1_VE250_randls_43.json,http://54.235.29.9/FacialAge/BNav_EC2/DepthDuration/v2_depth_duration_MTurk/v2_DepthDuration_HTML.html#47,47,1366,657,1366,768,9-4-2022,8-16-12,150,depth_duration_stimuli/001617_2014-06-20_11-35-32_260595134347_rgbf000066-resize_1/001617_2014-06-20_11-35-32_260595134347_rgbf000066-resize_1-target.png,250,3.7910000000000004,65,30193,250,meters,jsons/v1_VE250_randls_43.json,2069598,2305381,44,Man
150,538750,DepthScenes,duration_manipulation_targetAtFixation,jsons/v1_VE250_randls_43.json,http://54.235.29.9/FacialAge/BNav_EC2/DepthDuration/v2_depth_duration_MTurk/v2_DepthDuration_HTML.html#47,47,1366,657,1366,768,9-4-2022,8-16-12,151,depth_duration_stimuli/001059_2014-06-08_21-53-27_260595134347_rgbf000061-resize_4/001059_2014-06-08_21-53-27_260595134347_rgbf000061-resize_4-target.png,250,2.4185,70,3747,248,meters,jsons/v1_VE250_randls_43.json,2069598,2305381,44,Man
151,538750,DepthScenes,duration_manipulation_targetAtFixation,jsons/v1_VE250_randls_43.json,http://54.235.29.9/FacialAge/BNav_EC2/DepthDuration/v2_depth_duration_MTurk/v2_DepthDuration_HTML.html#47,47,1366,657,1366,768,9-4-2022,8-16-12,152,depth_duration_stimuli/001032_2014-06-08_13-23-17_260595134347_rgbf000021-resize_3/001032_2014-06-08_13-23-17_260595134347_rgbf000021-resize_3-target.png,250,3.2725,65,4520,249,meters,jsons/v1_VE250_randls_43.json,2069598,2305381,44,Man
152,538750,DepthScenes,duration_manipulation_targetAtFixation,jsons/v1_VE250_randls_43.json,http://54.235.29.9/FacialAge/BNav_EC2/DepthDuration/v2_depth_duration_MTurk/v2_DepthDuration_HTML.html#47,47,1366,657,1366,768,9-4-2022,8-16-12,153,depth_duration_stimuli/001555_2014-06-20_17-12-10_260595134347_rgbf000065-resize_4/001555_2014-06-20_17-12-10_260595134347_rgbf000065-resize_4-target.png,250,1.633,45,4481,249,meters,jsons/v1_VE250_randls_43.json,2069598,2305381,44,Man
153,538750,DepthScenes,duration_manipulation_targetAtFixation,jsons/v1_VE250_randls_43.json,http://54.235.29.9/FacialAge/BNav_EC2/DepthDuration/v2_depth_duration_MTurk/v2_DepthDuration_HTML.html#47,47,1366,657,1366,768,9-4-2022,8-16-12,154,depth_duration_stimuli/000103_2014-05-14_22-01-17_260595134347_rgbf000152-resize_5/000103_2014-05-14_22-01-17_260595134347_rgbf000152-resize_5-target.png,250,1.993,50,5472,248,meters,jsons/v1_VE250_randls_43.json,2069598,2305381,44,Man
154,538750,DepthScenes,duration_manipulation_targetAtFixation,jsons/v1_VE250_randls_43.json,http://54.235.29.9/FacialAge/BNav_EC2/DepthDuration/v2_depth_duration_MTurk/v2_DepthDuration_HTML.html#47,47,1366,657,1366,768,9-4-2022,8-16-12,155,depth_duration_stimuli/002964_2014-06-08_17-46-11_094959634447_rgbf000091-resize_4/002964_2014-06-08_17-46-11_094959634447_rgbf000091-resize_4-target.png,250,1.6909999999999998,60,5270,259,meters,jsons/v1_VE250_randls_43.json,2069598,2305381,44,Man
155,538750,DepthScenes,duration_manipulation_targetAtFixation,jsons/v1_VE250_randls_43.json,http://54.235.29.9/FacialAge/BNav_EC2/DepthDuration/v2_depth_duration_MTurk/v2_DepthDuration_HTML.html#47,47,1366,657,1366,768,9-4-2022,8-16-12,156,depth_duration_stimuli/002136_2014-06-25_21-18-03_260595134347_rgbf000109-resize_3/002136_2014-06-25_21-18-03_260595134347_rgbf000109-resize_3-target.png,250,1.9569999999999999,50,6420,250,meters,jsons/v1_VE250_randls_43.json,2069598,2305381,44,Man
156,538750,DepthScenes,duration_manipulation_targetAtFixation,jsons/v1_VE250_randls_43.json,http://54.235.29.9/FacialAge/BNav_EC2/DepthDuration/v2_depth_duration_MTurk/v2_DepthDuration_HTML.html#47,47,1366,657,1366,768,9-4-2022,8-16-12,157,depth_duration_stimuli/002630_2014-06-24_14-47-50_094959634447_rgbf000055-resize_1/002630_2014-06-24_14-47-50_094959634447_rgbf000055-resize_1-target.png,250,3.0095,65,3890,116,meters,jsons/v1_VE250_randls_43.json,2069598,2305381,44,Man
157,538750,DepthScenes,duration_manipulation_targetAtFixation,jsons/v1_VE250_randls_43.json,http://54.235.29.9/FacialAge/BNav_EC2/DepthDuration/v2_depth_duration_MTurk/v2_DepthDuration_HTML.html#47,47,1366,657,1366,768,9-4-2022,8-16-12,158,depth_duration_stimuli/002758_2014-06-22_19-11-20_094959634447_rgbf000128-resize_1/002758_2014-06-22_19-11-20_094959634447_rgbf000128-resize_1-target.png,250,2.555,50,4828,250,meters,jsons/v1_VE250_randls_43.json,2069598,2305381,44,Man
158,538750,DepthScenes,duration_manipulation_targetAtFixation,jsons/v1_VE250_randls_43.json,http://54.235.29.9/FacialAge/BNav_EC2/DepthDuration/v2_depth_duration_MTurk/v2_DepthDuration_HTML.html#47,47,1366,657,1366,768,9-4-2022,8-16-12,159,depth_duration_stimuli/002039_2014-06-24_20-22-38_260595134347_rgbf000084-resize_1/002039_2014-06-24_20-22-38_260595134347_rgbf000084-resize_1-target.png,250,4.408,70,3480,324,meters,jsons/v1_VE250_randls_43.json,2069598,2305381,44,Man
159,538750,DepthScenes,duration_manipulation_targetAtFixation,jsons/v1_VE250_randls_43.json,http://54.235.29.9/FacialAge/BNav_EC2/DepthDuration/v2_depth_duration_MTurk/v2_DepthDuration_HTML.html#47,47,1366,657,1366,768,9-4-2022,8-16-12,160,depth_duration_stimuli/002103_2014-06-25_20-00-40_260595134347_rgbf000049-resize_0/002103_2014-06-25_20-00-40_260595134347_rgbf000049-resize_0-target.png,250,4.105,65,29856,249,meters,jsons/v1_VE250_randls_43.json,2069598,2305381,44,Man
160,538750,DepthScenes,duration_manipulation_targetAtFixation,jsons/v1_VE250_randls_43.json,http://54.235.29.9/FacialAge/BNav_EC2/DepthDuration/v2_depth_duration_MTurk/v2_DepthDuration_HTML.html#47,47,1366,657,1366,768,9-4-2022,8-16-12,161,depth_duration_stimuli/000736_2014-06-08_18-24-15_260595134347_rgbf000206-resize_3/000736_2014-06-08_18-24-15_260595134347_rgbf000206-resize_3-target.png,250,3.515,55,4458,250,meters,jsons/v1_VE250_randls_43.json,2069598,2305381,44,Man
161,538750,DepthScenes,duration_manipulation_targetAtFixation,jsons/v1_VE250_randls_43.json,http://54.235.29.9/FacialAge/BNav_EC2/DepthDuration/v2_depth_duration_MTurk/v2_DepthDuration_HTML.html#47,47,1366,657,1366,768,9-4-2022,8-16-12,162,depth_duration_stimuli/000137_2014-05-20_17-04-49_260595134347_rgbf000120-resize_1/000137_2014-05-20_17-04-49_260595134347_rgbf000120-resize_1-target.png,250,3.786,55,4776,248,meters,jsons/v1_VE250_randls_43.json,2069598,2305381,44,Man
162,538750,DepthScenes,duration_manipulation_targetAtFixation,jsons/v1_VE250_randls_43.json,http://54.235.29.9/FacialAge/BNav_EC2/DepthDuration/v2_depth_duration_MTurk/v2_DepthDuration_HTML.html#47,47,1366,657,1366,768,9-4-2022,8-16-12,163,depth_duration_stimuli/002570_2014-06-24_13-59-54_094959634447_rgbf000059-resize_0/002570_2014-06-24_13-59-54_094959634447_rgbf000059-resize_0-target.png,250,4.037,60,5197,249,meters,jsons/v1_VE250_randls_43.json,2069598,2305381,44,Man
163,538750,DepthScenes,duration_manipulation_targetAtFixation,jsons/v1_VE250_randls_43.json,http://54.235.29.9/FacialAge/BNav_EC2/DepthDuration/v2_depth_duration_MTurk/v2_DepthDuration_HTML.html#47,47,1366,657,1366,768,9-4-2022,8-16-12,164,depth_duration_stimuli/002467_2014-06-28_20-38-07_260595134347_rgbf000026-resize_2/002467_2014-06-28_20-38-07_260595134347_rgbf000026-resize_2-target.png,250,4.742,65,4796,281,meters,jsons/v1_VE250_randls_43.json,2069598,2305381,44,Man
