,subjID,experimentName,versionName,sequenceName,url,selected_row,windowWidth,windowHeight,screenWidth,screenHeight,startDate,startTime,trial,stimulus,duration,actual_depth,depth_estimate,trial_RT,log_sceneDuration,unitSelection,seq_filepath,experimentTime,totalTime,age,gender
0,541423,DepthScenes,duration_manipulation_targetAtFixation,jsons/VE125_randls_13.json,http://54.235.29.9/FacialAge/BNav_EC2/DepthDuration/v2_depth_duration_MTurk/v2_DepthDuration_HTML.html#175,175,1366,768,1366,768,8-29-2022,11-26-15,1,depth_duration_stimuli/001808_2014-06-26_20-50-58_260595134347_rgbf000029-resize_1/001808_2014-06-26_20-50-58_260595134347_rgbf000029-resize_1-target.png,125,4.249,14,4158,124,feet,jsons/VE125_randls_13.json,519479,676529,28,Man
1,541423,DepthScenes,duration_manipulation_targetAtFixation,jsons/VE125_randls_13.json,http://54.235.29.9/FacialAge/BNav_EC2/DepthDuration/v2_depth_duration_MTurk/v2_DepthDuration_HTML.html#175,175,1366,768,1366,768,8-29-2022,11-26-15,2,depth_duration_stimuli/001815_2014-06-26_20-52-55_260595134347_rgbf000020-resize_0/001815_2014-06-26_20-52-55_260595134347_rgbf000020-resize_0-target.png,125,3.3865,15,4340,130,feet,jsons/VE125_randls_13.json,519479,676529,28,Man
2,541423,DepthScenes,duration_manipulation_targetAtFixation,jsons/VE125_randls_13.json,http://54.235.29.9/FacialAge/BNav_EC2/DepthDuration/v2_depth_duration_MTurk/v2_DepthDuration_HTML.html#175,175,1366,768,1366,768,8-29-2022,11-26-15,3,depth_duration_stimuli/001029_2014-06-08_13-17-57_260595134347_rgbf000065-resize_1/001029_2014-06-08_13-17-57_260595134347_rgbf000065-resize_1-target.png,125,3.0835,7,3237,125,feet,jsons/VE125_randls_13.json,519479,676529,28,Man
3,541423,DepthScenes,duration_manipulation_targetAtFixation,jsons/VE125_randls_13.json,http://54.235.29.9/FacialAge/BNav_EC2/DepthDuration/v2_depth_duration_MTurk/v2_DepthDuration_HTML.html#175,175,1366,768,1366,768,8-29-2022,11-26-15,4,depth_duration_stimuli/000677_2014-06-08_23-10-32_260595134347_rgbf000158-resize_6/000677_2014-06-08_23-10-32_260595134347_rgbf000158-resize_6-target.png,125,3.556,6,2756,127,feet,jsons/VE125_randls_13.json,519479,676529,28,Man
4,541423,DepthScenes,duration_manipulation_targetAtFixation,jsons/VE125_randls_13.json,http://54.235.29.9/FacialAge/BNav_EC2/DepthDuration/v2_depth_duration_MTurk/v2_DepthDuration_HTML.html#175,175,1366,768,1366,768,8-29-2022,11-26-15,5,depth_duration_stimuli/002118_2014-06-25_20-32-08_260595134347_rgbf000078-resize_1/002118_2014-06-25_20-32-08_260595134347_rgbf000078-resize_1-target.png,125,2.6460000000000004,6,2841,121,feet,jsons/VE125_randls_13.json,519479,676529,28,Man
5,541423,DepthScenes,duration_manipulation_targetAtFixation,jsons/VE125_randls_13.json,http://54.235.29.9/FacialAge/BNav_EC2/DepthDuration/v2_depth_duration_MTurk/v2_DepthDuration_HTML.html#175,175,1366,768,1366,768,8-29-2022,11-26-15,6,depth_duration_stimuli/001516_2014-06-20_16-25-09_260595134347_rgbf000076-resize_2/001516_2014-06-20_16-25-09_260595134347_rgbf000076-resize_2-target.png,125,1.7445,4,3346,130,feet,jsons/VE125_randls_13.json,519479,676529,28,Man
6,541423,DepthScenes,duration_manipulation_targetAtFixation,jsons/VE125_randls_13.json,http://54.235.29.9/FacialAge/BNav_EC2/DepthDuration/v2_depth_duration_MTurk/v2_DepthDuration_HTML.html#175,175,1366,768,1366,768,8-29-2022,11-26-15,7,depth_duration_stimuli/001417_2014-06-19_16-25-36_260595134347_rgbf000115-resize_5/001417_2014-06-19_16-25-36_260595134347_rgbf000115-resize_5-target.png,125,4.6255,8,4078,125,feet,jsons/VE125_randls_13.json,519479,676529,28,Man
7,541423,DepthScenes,duration_manipulation_targetAtFixation,jsons/VE125_randls_13.json,http://54.235.29.9/FacialAge/BNav_EC2/DepthDuration/v2_depth_duration_MTurk/v2_DepthDuration_HTML.html#175,175,1366,768,1366,768,8-29-2022,11-26-15,8,depth_duration_stimuli/003081_2014-06-15_15-19-16_094959634447_rgbf000150-resize_1/003081_2014-06-15_15-19-16_094959634447_rgbf000150-resize_1-target.png,125,3.9125,11,2842,124,feet,jsons/VE125_randls_13.json,519479,676529,28,Man
8,541423,DepthScenes,duration_manipulation_targetAtFixation,jsons/VE125_randls_13.json,http://54.235.29.9/FacialAge/BNav_EC2/DepthDuration/v2_depth_duration_MTurk/v2_DepthDuration_HTML.html#175,175,1366,768,1366,768,8-29-2022,11-26-15,9,depth_duration_stimuli/000682_2014-06-08_23-14-58_260595134347_rgbf000041-resize_5/000682_2014-06-08_23-14-58_260595134347_rgbf000041-resize_5-target.png,125,2.7239999999999998,4,3534,121,feet,jsons/VE125_randls_13.json,519479,676529,28,Man
9,541423,DepthScenes,duration_manipulation_targetAtFixation,jsons/VE125_randls_13.json,http://54.235.29.9/FacialAge/BNav_EC2/DepthDuration/v2_depth_duration_MTurk/v2_DepthDuration_HTML.html#175,175,1366,768,1366,768,8-29-2022,11-26-15,10,depth_duration_stimuli/001650_2014-06-20_12-09-00_260595134347_rgbf000087-resize_3/001650_2014-06-20_12-09-00_260595134347_rgbf000087-resize_3-target.png,125,1.9505,2,4808,132,feet,jsons/VE125_randls_13.json,519479,676529,28,Man
10,541423,DepthScenes,duration_manipulation_targetAtFixation,jsons/VE125_randls_13.json,http://54.235.29.9/FacialAge/BNav_EC2/DepthDuration/v2_depth_duration_MTurk/v2_DepthDuration_HTML.html#175,175,1366,768,1366,768,8-29-2022,11-26-15,11,depth_duration_stimuli/001244_2014-06-17_16-47-45_260595134347_rgbf000030-resize_4/001244_2014-06-17_16-47-45_260595134347_rgbf000030-resize_4-target.png,125,2.0425,4,2840,136,feet,jsons/VE125_randls_13.json,519479,676529,28,Man
11,541423,DepthScenes,duration_manipulation_targetAtFixation,jsons/VE125_randls_13.json,http://54.235.29.9/FacialAge/BNav_EC2/DepthDuration/v2_depth_duration_MTurk/v2_DepthDuration_HTML.html#175,175,1366,768,1366,768,8-29-2022,11-26-15,12,depth_duration_stimuli/003495_2014-05-21_16-01-51_094959634447_rgbf000100-resize_3/003495_2014-05-21_16-01-51_094959634447_rgbf000100-resize_3-target.png,125,1.6255,4,3347,124,feet,jsons/VE125_randls_13.json,519479,676529,28,Man
12,541423,DepthScenes,duration_manipulation_targetAtFixation,jsons/VE125_randls_13.json,http://54.235.29.9/FacialAge/BNav_EC2/DepthDuration/v2_depth_duration_MTurk/v2_DepthDuration_HTML.html#175,175,1366,768,1366,768,8-29-2022,11-26-15,13,depth_duration_stimuli/000569_2014-06-09_22-51-47_260595134347_rgbf000141-resize_3/000569_2014-06-09_22-51-47_260595134347_rgbf000141-resize-original.jpg,125,4.512,0,2595,115,feet,jsons/VE125_randls_13.json,519479,676529,28,Man
13,541423,DepthScenes,duration_manipulation_targetAtFixation,jsons/VE125_randls_13.json,http://54.235.29.9/FacialAge/BNav_EC2/DepthDuration/v2_depth_duration_MTurk/v2_DepthDuration_HTML.html#175,175,1366,768,1366,768,8-29-2022,11-26-15,14,depth_duration_stimuli/001158_2014-06-17_15-32-16_260595134347_rgbf000138-resize_2/001158_2014-06-17_15-32-16_260595134347_rgbf000138-resize_2-target.png,125,4.5315,11,4052,136,feet,jsons/VE125_randls_13.json,519479,676529,28,Man
14,541423,DepthScenes,duration_manipulation_targetAtFixation,jsons/VE125_randls_13.json,http://54.235.29.9/FacialAge/BNav_EC2/DepthDuration/v2_depth_duration_MTurk/v2_DepthDuration_HTML.html#175,175,1366,768,1366,768,8-29-2022,11-26-15,15,depth_duration_stimuli/000556_2014-06-09_22-42-56_260595134347_rgbf000214-resize_1/000556_2014-06-09_22-42-56_260595134347_rgbf000214-resize_1-target.png,125,4.8415,10,3697,135,feet,jsons/VE125_randls_13.json,519479,676529,28,Man
15,541423,DepthScenes,duration_manipulation_targetAtFixation,jsons/VE125_randls_13.json,http://54.235.29.9/FacialAge/BNav_EC2/DepthDuration/v2_depth_duration_MTurk/v2_DepthDuration_HTML.html#175,175,1366,768,1366,768,8-29-2022,11-26-15,16,depth_duration_stimuli/001150_2014-06-17_15-27-34_260595134347_rgbf000108-resize_2/001150_2014-06-17_15-27-34_260595134347_rgbf000108-resize_2-target.png,125,4.0325,10,4038,121,feet,jsons/VE125_randls_13.json,519479,676529,28,Man
16,541423,DepthScenes,duration_manipulation_targetAtFixation,jsons/VE125_randls_13.json,http://54.235.29.9/FacialAge/BNav_EC2/DepthDuration/v2_depth_duration_MTurk/v2_DepthDuration_HTML.html#175,175,1366,768,1366,768,8-29-2022,11-26-15,17,depth_duration_stimuli/000665_2014-06-09_20-42-35_260595134347_rgbf000110-resize_1/000665_2014-06-09_20-42-35_260595134347_rgbf000110-resize_1-target.png,125,3.057,5,3066,123,feet,jsons/VE125_randls_13.json,519479,676529,28,Man
17,541423,DepthScenes,duration_manipulation_targetAtFixation,jsons/VE125_randls_13.json,http://54.235.29.9/FacialAge/BNav_EC2/DepthDuration/v2_depth_duration_MTurk/v2_DepthDuration_HTML.html#175,175,1366,768,1366,768,8-29-2022,11-26-15,18,depth_duration_stimuli/002375_2014-06-28_20-13-44_260595134347_rgbf000032-resize_1/002375_2014-06-28_20-13-44_260595134347_rgbf000032-resize_1-target.png,125,4.0175,7,4855,118,feet,jsons/VE125_randls_13.json,519479,676529,28,Man
18,541423,DepthScenes,duration_manipulation_targetAtFixation,jsons/VE125_randls_13.json,http://54.235.29.9/FacialAge/BNav_EC2/DepthDuration/v2_depth_duration_MTurk/v2_DepthDuration_HTML.html#175,175,1366,768,1366,768,8-29-2022,11-26-15,19,depth_duration_stimuli/002657_2014-06-13_15-29-54_094959634447_rgbf000150-resize_1/002657_2014-06-13_15-29-54_094959634447_rgbf000150-resize_1-target.png,125,4.919,9,3230,125,feet,jsons/VE125_randls_13.json,519479,676529,28,Man
19,541423,DepthScenes,duration_manipulation_targetAtFixation,jsons/VE125_randls_13.json,http://54.235.29.9/FacialAge/BNav_EC2/DepthDuration/v2_depth_duration_MTurk/v2_DepthDuration_HTML.html#175,175,1366,768,1366,768,8-29-2022,11-26-15,20,depth_duration_stimuli/003492_2014-05-21_15-50-55_094959634447_rgbf000828-resize_1/003492_2014-05-21_15-50-55_094959634447_rgbf000828-resize_1-target.png,125,4.06875,12,2854,130,feet,jsons/VE125_randls_13.json,519479,676529,28,Man
20,541423,DepthScenes,duration_manipulation_targetAtFixation,jsons/VE125_randls_13.json,http://54.235.29.9/FacialAge/BNav_EC2/DepthDuration/v2_depth_duration_MTurk/v2_DepthDuration_HTML.html#175,175,1366,768,1366,768,8-29-2022,11-26-15,21,depth_duration_stimuli/002568_2014-06-24_13-59-21_094959634447_rgbf000062-resize_4/002568_2014-06-24_13-59-21_094959634447_rgbf000062-resize_4-target.png,125,3.015,11,4867,130,feet,jsons/VE125_randls_13.json,519479,676529,28,Man
21,541423,DepthScenes,duration_manipulation_targetAtFixation,jsons/VE125_randls_13.json,http://54.235.29.9/FacialAge/BNav_EC2/DepthDuration/v2_depth_duration_MTurk/v2_DepthDuration_HTML.html#175,175,1366,768,1366,768,8-29-2022,11-26-15,22,depth_duration_stimuli/000788_2014-06-08_22-34-36_260595134347_rgbf000131-resize_1/000788_2014-06-08_22-34-36_260595134347_rgbf000131-resize_1-target.png,125,3.359,6,2589,124,feet,jsons/VE125_randls_13.json,519479,676529,28,Man
22,541423,DepthScenes,duration_manipulation_targetAtFixation,jsons/VE125_randls_13.json,http://54.235.29.9/FacialAge/BNav_EC2/DepthDuration/v2_depth_duration_MTurk/v2_DepthDuration_HTML.html#175,175,1366,768,1366,768,8-29-2022,11-26-15,23,depth_duration_stimuli/001235_2014-06-17_16-37-36_260595134347_rgbf000084-resize_4/001235_2014-06-17_16-37-36_260595134347_rgbf000084-resize_4-target.png,125,3.6605,12,3317,129,feet,jsons/VE125_randls_13.json,519479,676529,28,Man
23,541423,DepthScenes,duration_manipulation_targetAtFixation,jsons/VE125_randls_13.json,http://54.235.29.9/FacialAge/BNav_EC2/DepthDuration/v2_depth_duration_MTurk/v2_DepthDuration_HTML.html#175,175,1366,768,1366,768,8-29-2022,11-26-15,24,depth_duration_stimuli/000692_2014-06-08_13-09-42_260595134347_rgbf000199-resize_2/000692_2014-06-08_13-09-42_260595134347_rgbf000199-resize_2-target.png,125,3.661,14,2766,121,feet,jsons/VE125_randls_13.json,519479,676529,28,Man
24,541423,DepthScenes,duration_manipulation_targetAtFixation,jsons/VE125_randls_13.json,http://54.235.29.9/FacialAge/BNav_EC2/DepthDuration/v2_depth_duration_MTurk/v2_DepthDuration_HTML.html#175,175,1366,768,1366,768,8-29-2022,11-26-15,25,depth_duration_stimuli/001094_2014-06-15_17-36-00_260595134347_rgbf000205-resize_0/001094_2014-06-15_17-36-00_260595134347_rgbf000205-resize_0-target.png,125,4.2175,8,3307,134,feet,jsons/VE125_randls_13.json,519479,676529,28,Man
25,541423,DepthScenes,duration_manipulation_targetAtFixation,jsons/VE125_randls_13.json,http://54.235.29.9/FacialAge/BNav_EC2/DepthDuration/v2_depth_duration_MTurk/v2_DepthDuration_HTML.html#175,175,1366,768,1366,768,8-29-2022,11-26-15,26,depth_duration_stimuli/002445_2014-06-28_20-32-16_260595134347_rgbf000029-resize_4/002445_2014-06-28_20-32-16_260595134347_rgbf000029-resize_4-target.png,125,2.5315,5,2390,116,feet,jsons/VE125_randls_13.json,519479,676529,28,Man
26,541423,DepthScenes,duration_manipulation_targetAtFixation,jsons/VE125_randls_13.json,http://54.235.29.9/FacialAge/BNav_EC2/DepthDuration/v2_depth_duration_MTurk/v2_DepthDuration_HTML.html#175,175,1366,768,1366,768,8-29-2022,11-26-15,27,depth_duration_stimuli/000780_2014-06-08_22-28-29_260595134347_rgbf000126-resize_1/000780_2014-06-08_22-28-29_260595134347_rgbf000126-resize_1-target.png,125,3.3825,10,3486,125,feet,jsons/VE125_randls_13.json,519479,676529,28,Man
27,541423,DepthScenes,duration_manipulation_targetAtFixation,jsons/VE125_randls_13.json,http://54.235.29.9/FacialAge/BNav_EC2/DepthDuration/v2_depth_duration_MTurk/v2_DepthDuration_HTML.html#175,175,1366,768,1366,768,8-29-2022,11-26-15,28,depth_duration_stimuli/000470_2014-06-09_19-42-40_260595134347_rgbf000094-resize_1/000470_2014-06-09_19-42-40_260595134347_rgbf000094-resize_1-target.png,125,1.831,3,2235,124,feet,jsons/VE125_randls_13.json,519479,676529,28,Man
28,541423,DepthScenes,duration_manipulation_targetAtFixation,jsons/VE125_randls_13.json,http://54.235.29.9/FacialAge/BNav_EC2/DepthDuration/v2_depth_duration_MTurk/v2_DepthDuration_HTML.html#175,175,1366,768,1366,768,8-29-2022,11-26-15,29,depth_duration_stimuli/000109_2014-05-14_23-41-52_260595134347_rgbf000035-resize_9/000109_2014-05-14_23-41-52_260595134347_rgbf000035-resize_9-target.png,125,1.3545,2,2503,121,feet,jsons/VE125_randls_13.json,519479,676529,28,Man
29,541423,DepthScenes,duration_manipulation_targetAtFixation,jsons/VE125_randls_13.json,http://54.235.29.9/FacialAge/BNav_EC2/DepthDuration/v2_depth_duration_MTurk/v2_DepthDuration_HTML.html#175,175,1366,768,1366,768,8-29-2022,11-26-15,30,depth_duration_stimuli/000375_2014-06-08_11-17-29_260595134347_rgbf000133-resize_2/000375_2014-06-08_11-17-29_260595134347_rgbf000133-resize-original.jpg,125,4.718,0,2319,124,feet,jsons/VE125_randls_13.json,519479,676529,28,Man
30,541423,DepthScenes,duration_manipulation_targetAtFixation,jsons/VE125_randls_13.json,http://54.235.29.9/FacialAge/BNav_EC2/DepthDuration/v2_depth_duration_MTurk/v2_DepthDuration_HTML.html#175,175,1366,768,1366,768,8-29-2022,11-26-15,31,depth_duration_stimuli/002509_2014-06-24_13-19-22_094959634447_rgbf000077-resize_0/002509_2014-06-24_13-19-22_094959634447_rgbf000077-resize_0-target.png,125,1.3065,2,2540,121,feet,jsons/VE125_randls_13.json,519479,676529,28,Man
31,541423,DepthScenes,duration_manipulation_targetAtFixation,jsons/VE125_randls_13.json,http://54.235.29.9/FacialAge/BNav_EC2/DepthDuration/v2_depth_duration_MTurk/v2_DepthDuration_HTML.html#175,175,1366,768,1366,768,8-29-2022,11-26-15,32,depth_duration_stimuli/003338_2014-05-20_11-01-23_094959634447_rgbf000051-resize_6/003338_2014-05-20_11-01-23_094959634447_rgbf000051-resize_6-target.png,125,1.693,3,2348,129,feet,jsons/VE125_randls_13.json,519479,676529,28,Man
32,541423,DepthScenes,duration_manipulation_targetAtFixation,jsons/VE125_randls_13.json,http://54.235.29.9/FacialAge/BNav_EC2/DepthDuration/v2_depth_duration_MTurk/v2_DepthDuration_HTML.html#175,175,1366,768,1366,768,8-29-2022,11-26-15,33,depth_duration_stimuli/002784_2014-06-22_19-26-30_094959634447_rgbf000083-resize_3/002784_2014-06-22_19-26-30_094959634447_rgbf000083-resize_3-target.png,125,1.8046666666667,4,2048,123,feet,jsons/VE125_randls_13.json,519479,676529,28,Man
33,541423,DepthScenes,duration_manipulation_targetAtFixation,jsons/VE125_randls_13.json,http://54.235.29.9/FacialAge/BNav_EC2/DepthDuration/v2_depth_duration_MTurk/v2_DepthDuration_HTML.html#175,175,1366,768,1366,768,8-29-2022,11-26-15,34,depth_duration_stimuli/001100_2014-06-15_17-46-26_260595134347_rgbf000225-resize_2/001100_2014-06-15_17-46-26_260595134347_rgbf000225-resize_2-target.png,125,2.24,2,3275,130,feet,jsons/VE125_randls_13.json,519479,676529,28,Man
34,541423,DepthScenes,duration_manipulation_targetAtFixation,jsons/VE125_randls_13.json,http://54.235.29.9/FacialAge/BNav_EC2/DepthDuration/v2_depth_duration_MTurk/v2_DepthDuration_HTML.html#175,175,1366,768,1366,768,8-29-2022,11-26-15,35,depth_duration_stimuli/000469_2014-06-09_19-42-10_260595134347_rgbf000081-resize_1/000469_2014-06-09_19-42-10_260595134347_rgbf000081-resize_1-target.png,125,1.652,3,2377,136,feet,jsons/VE125_randls_13.json,519479,676529,28,Man
35,541423,DepthScenes,duration_manipulation_targetAtFixation,jsons/VE125_randls_13.json,http://54.235.29.9/FacialAge/BNav_EC2/DepthDuration/v2_depth_duration_MTurk/v2_DepthDuration_HTML.html#175,175,1366,768,1366,768,8-29-2022,11-26-15,36,depth_duration_stimuli/000483_2014-06-09_20-41-45_260595134347_rgbf000116-resize_4/000483_2014-06-09_20-41-45_260595134347_rgbf000116-resize_4-target.png,125,1.337,3,1851,112,feet,jsons/VE125_randls_13.json,519479,676529,28,Man
36,541423,DepthScenes,duration_manipulation_targetAtFixation,jsons/VE125_randls_13.json,http://54.235.29.9/FacialAge/BNav_EC2/DepthDuration/v2_depth_duration_MTurk/v2_DepthDuration_HTML.html#175,175,1366,768,1366,768,8-29-2022,11-26-15,37,depth_duration_stimuli/002964_2014-06-08_17-46-11_094959634447_rgbf000091-resize_4/002964_2014-06-08_17-46-11_094959634447_rgbf000091-resize_4-target.png,125,1.6909999999999998,5,2305,114,feet,jsons/VE125_randls_13.json,519479,676529,28,Man
37,541423,DepthScenes,duration_manipulation_targetAtFixation,jsons/VE125_randls_13.json,http://54.235.29.9/FacialAge/BNav_EC2/DepthDuration/v2_depth_duration_MTurk/v2_DepthDuration_HTML.html#175,175,1366,768,1366,768,8-29-2022,11-26-15,38,depth_duration_stimuli/002136_2014-06-25_21-18-03_260595134347_rgbf000109-resize_3/002136_2014-06-25_21-18-03_260595134347_rgbf000109-resize_3-target.png,125,1.9569999999999999,4,2525,125,feet,jsons/VE125_randls_13.json,519479,676529,28,Man
38,541423,DepthScenes,duration_manipulation_targetAtFixation,jsons/VE125_randls_13.json,http://54.235.29.9/FacialAge/BNav_EC2/DepthDuration/v2_depth_duration_MTurk/v2_DepthDuration_HTML.html#175,175,1366,768,1366,768,8-29-2022,11-26-15,39,depth_duration_stimuli/002039_2014-06-24_20-22-38_260595134347_rgbf000084-resize_1/002039_2014-06-24_20-22-38_260595134347_rgbf000084-resize_1-target.png,125,4.408,10,2959,119,feet,jsons/VE125_randls_13.json,519479,676529,28,Man
39,541423,DepthScenes,duration_manipulation_targetAtFixation,jsons/VE125_randls_13.json,http://54.235.29.9/FacialAge/BNav_EC2/DepthDuration/v2_depth_duration_MTurk/v2_DepthDuration_HTML.html#175,175,1366,768,1366,768,8-29-2022,11-26-15,40,depth_duration_stimuli/002103_2014-06-25_20-00-40_260595134347_rgbf000049-resize_0/002103_2014-06-25_20-00-40_260595134347_rgbf000049-resize_0-target.png,125,4.105,9,2840,113,feet,jsons/VE125_randls_13.json,519479,676529,28,Man
40,541423,DepthScenes,duration_manipulation_targetAtFixation,jsons/VE125_randls_13.json,http://54.235.29.9/FacialAge/BNav_EC2/DepthDuration/v2_depth_duration_MTurk/v2_DepthDuration_HTML.html#175,175,1366,768,1366,768,8-29-2022,11-26-15,41,depth_duration_stimuli/002213_2014-06-28_18-37-58_260595134347_rgbf000055-resize_1/002213_2014-06-28_18-37-58_260595134347_rgbf000055-resize_1-target.png,125,3.62,11,2868,137,feet,jsons/VE125_randls_13.json,519479,676529,28,Man
41,541423,DepthScenes,duration_manipulation_targetAtFixation,jsons/VE125_randls_13.json,http://54.235.29.9/FacialAge/BNav_EC2/DepthDuration/v2_depth_duration_MTurk/v2_DepthDuration_HTML.html#175,175,1366,768,1366,768,8-29-2022,11-26-15,42,depth_duration_stimuli/000691_2014-06-08_13-08-50_260595134347_rgbf000132-resize_3/000691_2014-06-08_13-08-50_260595134347_rgbf000132-resize_3-target.png,125,4.1530000000000005,9,3530,131,feet,jsons/VE125_randls_13.json,519479,676529,28,Man
42,541423,DepthScenes,duration_manipulation_targetAtFixation,jsons/VE125_randls_13.json,http://54.235.29.9/FacialAge/BNav_EC2/DepthDuration/v2_depth_duration_MTurk/v2_DepthDuration_HTML.html#175,175,1366,768,1366,768,8-29-2022,11-26-15,43,depth_duration_stimuli/000929_2014-06-09_16-33-19_260595134347_rgbf000139-resize_0/000929_2014-06-09_16-33-19_260595134347_rgbf000139-resize_0-target.png,125,2.8680000000000003,7,2695,124,feet,jsons/VE125_randls_13.json,519479,676529,28,Man
43,541423,DepthScenes,duration_manipulation_targetAtFixation,jsons/VE125_randls_13.json,http://54.235.29.9/FacialAge/BNav_EC2/DepthDuration/v2_depth_duration_MTurk/v2_DepthDuration_HTML.html#175,175,1366,768,1366,768,8-29-2022,11-26-15,44,depth_duration_stimuli/000457_2014-06-08_16-52-43_260595134347_rgbf000199-resize_1/000457_2014-06-08_16-52-43_260595134347_rgbf000199-resize_1-target.png,125,3.6489999999999996,9,2491,116,feet,jsons/VE125_randls_13.json,519479,676529,28,Man
44,541423,DepthScenes,duration_manipulation_targetAtFixation,jsons/VE125_randls_13.json,http://54.235.29.9/FacialAge/BNav_EC2/DepthDuration/v2_depth_duration_MTurk/v2_DepthDuration_HTML.html#175,175,1366,768,1366,768,8-29-2022,11-26-15,45,depth_duration_stimuli/000787_2014-06-08_22-33-53_260595134347_rgbf000175-resize_1/000787_2014-06-08_22-33-53_260595134347_rgbf000175-resize-original.jpg,125,4.784,0,2329,124,feet,jsons/VE125_randls_13.json,519479,676529,28,Man
45,541423,DepthScenes,duration_manipulation_targetAtFixation,jsons/VE125_randls_13.json,http://54.235.29.9/FacialAge/BNav_EC2/DepthDuration/v2_depth_duration_MTurk/v2_DepthDuration_HTML.html#175,175,1366,768,1366,768,8-29-2022,11-26-15,46,depth_duration_stimuli/003621_2014-05-23_18-06-08_094959634447_rgbf000101-resize_1/003621_2014-05-23_18-06-08_094959634447_rgbf000101-resize_1-target.png,125,3.9835,13,2635,136,feet,jsons/VE125_randls_13.json,519479,676529,28,Man
46,541423,DepthScenes,duration_manipulation_targetAtFixation,jsons/VE125_randls_13.json,http://54.235.29.9/FacialAge/BNav_EC2/DepthDuration/v2_depth_duration_MTurk/v2_DepthDuration_HTML.html#175,175,1366,768,1366,768,8-29-2022,11-26-15,47,depth_duration_stimuli/001584_2014-06-20_11-07-43_260595134347_rgbf000002-resize_1/001584_2014-06-20_11-07-43_260595134347_rgbf000002-resize_1-target.png,125,3.53,8,2360,122,feet,jsons/VE125_randls_13.json,519479,676529,28,Man
47,541423,DepthScenes,duration_manipulation_targetAtFixation,jsons/VE125_randls_13.json,http://54.235.29.9/FacialAge/BNav_EC2/DepthDuration/v2_depth_duration_MTurk/v2_DepthDuration_HTML.html#175,175,1366,768,1366,768,8-29-2022,11-26-15,48,depth_duration_stimuli/001175_2014-06-17_15-45-55_260595134347_rgbf000129-resize_4/001175_2014-06-17_15-45-55_260595134347_rgbf000129-resize_4-target.png,125,4.255,12,2818,124,feet,jsons/VE125_randls_13.json,519479,676529,28,Man
48,541423,DepthScenes,duration_manipulation_targetAtFixation,jsons/VE125_randls_13.json,http://54.235.29.9/FacialAge/BNav_EC2/DepthDuration/v2_depth_duration_MTurk/v2_DepthDuration_HTML.html#175,175,1366,768,1366,768,8-29-2022,11-26-15,49,depth_duration_stimuli/003490_2014-05-21_15-50-11_094959634447_rgbf000101-resize_3/003490_2014-05-21_15-50-11_094959634447_rgbf000101-resize_3-target.png,125,3.6445,10,3274,124,feet,jsons/VE125_randls_13.json,519479,676529,28,Man
49,541423,DepthScenes,duration_manipulation_targetAtFixation,jsons/VE125_randls_13.json,http://54.235.29.9/FacialAge/BNav_EC2/DepthDuration/v2_depth_duration_MTurk/v2_DepthDuration_HTML.html#175,175,1366,768,1366,768,8-29-2022,11-26-15,50,depth_duration_stimuli/002279_2014-06-28_18-55-32_260595134347_rgbf000040-resize_5/002279_2014-06-28_18-55-32_260595134347_rgbf000040-resize_5-target.png,125,1.5043333333333,2,2066,130,feet,jsons/VE125_randls_13.json,519479,676529,28,Man
50,541423,DepthScenes,duration_manipulation_targetAtFixation,jsons/VE125_randls_13.json,http://54.235.29.9/FacialAge/BNav_EC2/DepthDuration/v2_depth_duration_MTurk/v2_DepthDuration_HTML.html#175,175,1366,768,1366,768,8-29-2022,11-26-15,51,depth_duration_stimuli/000635_2014-06-08_16-38-42_260595134347_rgbf000106-resize_1/000635_2014-06-08_16-38-42_260595134347_rgbf000106-resize_1-target.png,125,2.074,9,3254,117,feet,jsons/VE125_randls_13.json,519479,676529,28,Man
51,541423,DepthScenes,duration_manipulation_targetAtFixation,jsons/VE125_randls_13.json,http://54.235.29.9/FacialAge/BNav_EC2/DepthDuration/v2_depth_duration_MTurk/v2_DepthDuration_HTML.html#175,175,1366,768,1366,768,8-29-2022,11-26-15,52,depth_duration_stimuli/002043_2014-06-24_20-29-38_260595134347_rgbf000039-resize_4/002043_2014-06-24_20-29-38_260595134347_rgbf000039-resize_4-target.png,125,2.8435,8,2264,123,feet,jsons/VE125_randls_13.json,519479,676529,28,Man
52,541423,DepthScenes,duration_manipulation_targetAtFixation,jsons/VE125_randls_13.json,http://54.235.29.9/FacialAge/BNav_EC2/DepthDuration/v2_depth_duration_MTurk/v2_DepthDuration_HTML.html#175,175,1366,768,1366,768,8-29-2022,11-26-15,53,depth_duration_stimuli/003048_2014-06-15_13-49-43_094959634447_rgbf000150-resize_1/003048_2014-06-15_13-49-43_094959634447_rgbf000150-resize_1-target.png,125,4.0035,13,2864,114,feet,jsons/VE125_randls_13.json,519479,676529,28,Man
53,541423,DepthScenes,duration_manipulation_targetAtFixation,jsons/VE125_randls_13.json,http://54.235.29.9/FacialAge/BNav_EC2/DepthDuration/v2_depth_duration_MTurk/v2_DepthDuration_HTML.html#175,175,1366,768,1366,768,8-29-2022,11-26-15,54,depth_duration_stimuli/002725_2014-06-22_11-47-51_094959634447_rgbf000070-resize_1/002725_2014-06-22_11-47-51_094959634447_rgbf000070-resize_1-target.png,125,2.195,5,2513,132,feet,jsons/VE125_randls_13.json,519479,676529,28,Man
54,541423,DepthScenes,duration_manipulation_targetAtFixation,jsons/VE125_randls_13.json,http://54.235.29.9/FacialAge/BNav_EC2/DepthDuration/v2_depth_duration_MTurk/v2_DepthDuration_HTML.html#175,175,1366,768,1366,768,8-29-2022,11-26-15,55,depth_duration_stimuli/002344_2014-06-28_20-06-29_260595134347_rgbf000030-resize_1/002344_2014-06-28_20-06-29_260595134347_rgbf000030-resize_1-target.png,125,1.5795,3,2507,132,feet,jsons/VE125_randls_13.json,519479,676529,28,Man
55,541423,DepthScenes,duration_manipulation_targetAtFixation,jsons/VE125_randls_13.json,http://54.235.29.9/FacialAge/BNav_EC2/DepthDuration/v2_depth_duration_MTurk/v2_DepthDuration_HTML.html#175,175,1366,768,1366,768,8-29-2022,11-26-15,56,depth_duration_stimuli/001055_2014-06-08_18-45-35_260595134347_rgbf000111-resize_4/001055_2014-06-08_18-45-35_260595134347_rgbf000111-resize_4-target.png,125,2.4290000000000003,10,2603,129,feet,jsons/VE125_randls_13.json,519479,676529,28,Man
56,541423,DepthScenes,duration_manipulation_targetAtFixation,jsons/VE125_randls_13.json,http://54.235.29.9/FacialAge/BNav_EC2/DepthDuration/v2_depth_duration_MTurk/v2_DepthDuration_HTML.html#175,175,1366,768,1366,768,8-29-2022,11-26-15,57,depth_duration_stimuli/000549_2014-06-08_22-10-24_260595134347_rgbf000247-resize_3/000549_2014-06-08_22-10-24_260595134347_rgbf000247-resize_3-target.png,125,1.841,3,2080,133,feet,jsons/VE125_randls_13.json,519479,676529,28,Man
57,541423,DepthScenes,duration_manipulation_targetAtFixation,jsons/VE125_randls_13.json,http://54.235.29.9/FacialAge/BNav_EC2/DepthDuration/v2_depth_duration_MTurk/v2_DepthDuration_HTML.html#175,175,1366,768,1366,768,8-29-2022,11-26-15,58,depth_duration_stimuli/000736_2014-06-08_18-24-15_260595134347_rgbf000206-resize_3/000736_2014-06-08_18-24-15_260595134347_rgbf000206-resize_3-target.png,125,3.515,6,2228,132,feet,jsons/VE125_randls_13.json,519479,676529,28,Man
58,541423,DepthScenes,duration_manipulation_targetAtFixation,jsons/VE125_randls_13.json,http://54.235.29.9/FacialAge/BNav_EC2/DepthDuration/v2_depth_duration_MTurk/v2_DepthDuration_HTML.html#175,175,1366,768,1366,768,8-29-2022,11-26-15,59,depth_duration_stimuli/000137_2014-05-20_17-04-49_260595134347_rgbf000120-resize_1/000137_2014-05-20_17-04-49_260595134347_rgbf000120-resize_1-target.png,125,3.786,10,3310,128,feet,jsons/VE125_randls_13.json,519479,676529,28,Man
59,541423,DepthScenes,duration_manipulation_targetAtFixation,jsons/VE125_randls_13.json,http://54.235.29.9/FacialAge/BNav_EC2/DepthDuration/v2_depth_duration_MTurk/v2_DepthDuration_HTML.html#175,175,1366,768,1366,768,8-29-2022,11-26-15,60,depth_duration_stimuli/000642_2014-06-08_16-59-25_260595134347_rgbf000098-resize_2/000642_2014-06-08_16-59-25_260595134347_rgbf000098-resize_2-target.png,125,2.8815,8,3174,138,feet,jsons/VE125_randls_13.json,519479,676529,28,Man
60,541423,DepthScenes,duration_manipulation_targetAtFixation,jsons/VE125_randls_13.json,http://54.235.29.9/FacialAge/BNav_EC2/DepthDuration/v2_depth_duration_MTurk/v2_DepthDuration_HTML.html#175,175,1366,768,1366,768,8-29-2022,11-26-15,61,depth_duration_stimuli/002425_2014-06-28_20-27-29_260595134347_rgbf000031-resize_8/002425_2014-06-28_20-27-29_260595134347_rgbf000031-resize_8-target.png,125,3.8960000000000004,12,3681,115,feet,jsons/VE125_randls_13.json,519479,676529,28,Man
61,541423,DepthScenes,duration_manipulation_targetAtFixation,jsons/VE125_randls_13.json,http://54.235.29.9/FacialAge/BNav_EC2/DepthDuration/v2_depth_duration_MTurk/v2_DepthDuration_HTML.html#175,175,1366,768,1366,768,8-29-2022,11-26-15,62,depth_duration_stimuli/001056_2014-06-08_18-46-44_260595134347_rgbf000068-resize_0/001056_2014-06-08_18-46-44_260595134347_rgbf000068-resize_0-target.png,125,2.6625,11,3791,131,feet,jsons/VE125_randls_13.json,519479,676529,28,Man
62,541423,DepthScenes,duration_manipulation_targetAtFixation,jsons/VE125_randls_13.json,http://54.235.29.9/FacialAge/BNav_EC2/DepthDuration/v2_depth_duration_MTurk/v2_DepthDuration_HTML.html#175,175,1366,768,1366,768,8-29-2022,11-26-15,63,depth_duration_stimuli/002199_2014-06-28_18-33-56_260595134347_rgbf000074-resize_0/002199_2014-06-28_18-33-56_260595134347_rgbf000074-resize_0-target.png,125,1.996,2,1748,132,feet,jsons/VE125_randls_13.json,519479,676529,28,Man
63,541423,DepthScenes,duration_manipulation_targetAtFixation,jsons/VE125_randls_13.json,http://54.235.29.9/FacialAge/BNav_EC2/DepthDuration/v2_depth_duration_MTurk/v2_DepthDuration_HTML.html#175,175,1366,768,1366,768,8-29-2022,11-26-15,64,depth_duration_stimuli/000917_2014-06-09_22-45-29_260595134347_rgbf000149-resize_3/000917_2014-06-09_22-45-29_260595134347_rgbf000149-resize_3-target.png,125,4.1865,7,2273,124,feet,jsons/VE125_randls_13.json,519479,676529,28,Man
64,541423,DepthScenes,duration_manipulation_targetAtFixation,jsons/VE125_randls_13.json,http://54.235.29.9/FacialAge/BNav_EC2/DepthDuration/v2_depth_duration_MTurk/v2_DepthDuration_HTML.html#175,175,1366,768,1366,768,8-29-2022,11-26-15,65,depth_duration_stimuli/002323_2014-06-28_20-01-54_260595134347_rgbf000051-resize_4/002323_2014-06-28_20-01-54_260595134347_rgbf000051-resize_4-target.png,125,3.7310000000000003,12,4544,122,feet,jsons/VE125_randls_13.json,519479,676529,28,Man
65,541423,DepthScenes,duration_manipulation_targetAtFixation,jsons/VE125_randls_13.json,http://54.235.29.9/FacialAge/BNav_EC2/DepthDuration/v2_depth_duration_MTurk/v2_DepthDuration_HTML.html#175,175,1366,768,1366,768,8-29-2022,11-26-15,66,depth_duration_stimuli/001222_2014-06-17_16-24-06_260595134347_rgbf000073-resize_0/001222_2014-06-17_16-24-06_260595134347_rgbf000073-resize-original.jpg,125,1.4385,0,2379,126,feet,jsons/VE125_randls_13.json,519479,676529,28,Man
66,541423,DepthScenes,duration_manipulation_targetAtFixation,jsons/VE125_randls_13.json,http://54.235.29.9/FacialAge/BNav_EC2/DepthDuration/v2_depth_duration_MTurk/v2_DepthDuration_HTML.html#175,175,1366,768,1366,768,8-29-2022,11-26-15,67,depth_duration_stimuli/000878_2014-06-08_22-52-45_260595134347_rgbf000045-resize_2/000878_2014-06-08_22-52-45_260595134347_rgbf000045-resize_2-target.png,125,2.092,6,2229,124,feet,jsons/VE125_randls_13.json,519479,676529,28,Man
67,541423,DepthScenes,duration_manipulation_targetAtFixation,jsons/VE125_randls_13.json,http://54.235.29.9/FacialAge/BNav_EC2/DepthDuration/v2_depth_duration_MTurk/v2_DepthDuration_HTML.html#175,175,1366,768,1366,768,8-29-2022,11-26-15,68,depth_duration_stimuli/002953_2014-06-08_17-32-18_094959634447_rgbf000059-resize_5/002953_2014-06-08_17-32-18_094959634447_rgbf000059-resize_5-target.png,125,1.551,3,2084,125,feet,jsons/VE125_randls_13.json,519479,676529,28,Man
68,541423,DepthScenes,duration_manipulation_targetAtFixation,jsons/VE125_randls_13.json,http://54.235.29.9/FacialAge/BNav_EC2/DepthDuration/v2_depth_duration_MTurk/v2_DepthDuration_HTML.html#175,175,1366,768,1366,768,8-29-2022,11-26-15,69,depth_duration_stimuli/002905_2014-06-03_18-04-43_094959634447_rgbf000151-resize_2/002905_2014-06-03_18-04-43_094959634447_rgbf000151-resize_2-target.png,125,2.0295,5,2353,139,feet,jsons/VE125_randls_13.json,519479,676529,28,Man
69,541423,DepthScenes,duration_manipulation_targetAtFixation,jsons/VE125_randls_13.json,http://54.235.29.9/FacialAge/BNav_EC2/DepthDuration/v2_depth_duration_MTurk/v2_DepthDuration_HTML.html#175,175,1366,768,1366,768,8-29-2022,11-26-15,70,depth_duration_stimuli/003423_2014-05-21_10-23-26_094959634447_rgbf002665-resize_2/003423_2014-05-21_10-23-26_094959634447_rgbf002665-resize_2-target.png,125,3.2575,15,2684,124,feet,jsons/VE125_randls_13.json,519479,676529,28,Man
70,541423,DepthScenes,duration_manipulation_targetAtFixation,jsons/VE125_randls_13.json,http://54.235.29.9/FacialAge/BNav_EC2/DepthDuration/v2_depth_duration_MTurk/v2_DepthDuration_HTML.html#175,175,1366,768,1366,768,8-29-2022,11-26-15,71,depth_duration_stimuli/000414_2014-06-04_19-49-13_260595134347_rgbf000044-resize_0/000414_2014-06-04_19-49-13_260595134347_rgbf000044-resize_0-target.png,125,4.329,12,2551,124,feet,jsons/VE125_randls_13.json,519479,676529,28,Man
71,541423,DepthScenes,duration_manipulation_targetAtFixation,jsons/VE125_randls_13.json,http://54.235.29.9/FacialAge/BNav_EC2/DepthDuration/v2_depth_duration_MTurk/v2_DepthDuration_HTML.html#175,175,1366,768,1366,768,8-29-2022,11-26-15,72,depth_duration_stimuli/003129_2014-05-12_10-48-10_094959634447_rgbf000100-resize_0/003129_2014-05-12_10-48-10_094959634447_rgbf000100-resize_0-target.png,125,4.9305,12,2393,134,feet,jsons/VE125_randls_13.json,519479,676529,28,Man
72,541423,DepthScenes,duration_manipulation_targetAtFixation,jsons/VE125_randls_13.json,http://54.235.29.9/FacialAge/BNav_EC2/DepthDuration/v2_depth_duration_MTurk/v2_DepthDuration_HTML.html#175,175,1366,768,1366,768,8-29-2022,11-26-15,73,depth_duration_stimuli/002988_2014-06-15_12-24-20_094959634447_rgbf000150-resize_1/002988_2014-06-15_12-24-20_094959634447_rgbf000150-resize_1-target.png,125,4.7669999999999995,15,2166,128,feet,jsons/VE125_randls_13.json,519479,676529,28,Man
73,541423,DepthScenes,duration_manipulation_targetAtFixation,jsons/VE125_randls_13.json,http://54.235.29.9/FacialAge/BNav_EC2/DepthDuration/v2_depth_duration_MTurk/v2_DepthDuration_HTML.html#175,175,1366,768,1366,768,8-29-2022,11-26-15,74,depth_duration_stimuli/001052_2014-06-08_18-24-54_260595134347_rgbf000130-resize_1/001052_2014-06-08_18-24-54_260595134347_rgbf000130-resize_1-target.png,125,4.1045,9,2393,128,feet,jsons/VE125_randls_13.json,519479,676529,28,Man
74,541423,DepthScenes,duration_manipulation_targetAtFixation,jsons/VE125_randls_13.json,http://54.235.29.9/FacialAge/BNav_EC2/DepthDuration/v2_depth_duration_MTurk/v2_DepthDuration_HTML.html#175,175,1366,768,1366,768,8-29-2022,11-26-15,75,depth_duration_stimuli/000810_2014-06-08_17-20-01_260595134347_rgbf000105-resize_0/000810_2014-06-08_17-20-01_260595134347_rgbf000105-resize_0-target.png,125,1.4865,5,2170,111,feet,jsons/VE125_randls_13.json,519479,676529,28,Man
75,541423,DepthScenes,duration_manipulation_targetAtFixation,jsons/VE125_randls_13.json,http://54.235.29.9/FacialAge/BNav_EC2/DepthDuration/v2_depth_duration_MTurk/v2_DepthDuration_HTML.html#175,175,1366,768,1366,768,8-29-2022,11-26-15,76,depth_duration_stimuli/001214_2014-06-17_16-13-55_260595134347_rgbf000111-resize_0/001214_2014-06-17_16-13-55_260595134347_rgbf000111-resize_0-target.png,125,2.6505,7,2522,116,feet,jsons/VE125_randls_13.json,519479,676529,28,Man
76,541423,DepthScenes,duration_manipulation_targetAtFixation,jsons/VE125_randls_13.json,http://54.235.29.9/FacialAge/BNav_EC2/DepthDuration/v2_depth_duration_MTurk/v2_DepthDuration_HTML.html#175,175,1366,768,1366,768,8-29-2022,11-26-15,77,depth_duration_stimuli/002272_2014-06-28_18-53-56_260595134347_rgbf000067-resize_2/002272_2014-06-28_18-53-56_260595134347_rgbf000067-resize_2-target.png,125,1.138,2,1924,125,feet,jsons/VE125_randls_13.json,519479,676529,28,Man
77,541423,DepthScenes,duration_manipulation_targetAtFixation,jsons/VE125_randls_13.json,http://54.235.29.9/FacialAge/BNav_EC2/DepthDuration/v2_depth_duration_MTurk/v2_DepthDuration_HTML.html#175,175,1366,768,1366,768,8-29-2022,11-26-15,78,depth_duration_stimuli/001571_2014-06-20_17-21-32_260595134347_rgbf000089-resize_1/001571_2014-06-20_17-21-32_260595134347_rgbf000089-resize_1-target.png,125,1.86,4,2127,131,feet,jsons/VE125_randls_13.json,519479,676529,28,Man
78,541423,DepthScenes,duration_manipulation_targetAtFixation,jsons/VE125_randls_13.json,http://54.235.29.9/FacialAge/BNav_EC2/DepthDuration/v2_depth_duration_MTurk/v2_DepthDuration_HTML.html#175,175,1366,768,1366,768,8-29-2022,11-26-15,79,depth_duration_stimuli/002788_2014-06-22_19-36-03_094959634447_rgbf000088-resize_2/002788_2014-06-22_19-36-03_094959634447_rgbf000088-resize_2-target.png,125,1.6465,8,2841,124,feet,jsons/VE125_randls_13.json,519479,676529,28,Man
79,541423,DepthScenes,duration_manipulation_targetAtFixation,jsons/VE125_randls_13.json,http://54.235.29.9/FacialAge/BNav_EC2/DepthDuration/v2_depth_duration_MTurk/v2_DepthDuration_HTML.html#175,175,1366,768,1366,768,8-29-2022,11-26-15,80,depth_duration_stimuli/000749_2014-06-08_21-55-06_260595134347_rgbf000070-resize_2/000749_2014-06-08_21-55-06_260595134347_rgbf000070-resize_2-target.png,125,2.331,6,2211,133,feet,jsons/VE125_randls_13.json,519479,676529,28,Man
80,541423,DepthScenes,duration_manipulation_targetAtFixation,jsons/VE125_randls_13.json,http://54.235.29.9/FacialAge/BNav_EC2/DepthDuration/v2_depth_duration_MTurk/v2_DepthDuration_HTML.html#175,175,1366,768,1366,768,8-29-2022,11-26-15,81,depth_duration_stimuli/002748_2014-06-22_19-07-22_094959634447_rgbf000078-resize_1/002748_2014-06-22_19-07-22_094959634447_rgbf000078-resize_1-target.png,125,4.6705,14,2398,123,feet,jsons/VE125_randls_13.json,519479,676529,28,Man
81,541423,DepthScenes,duration_manipulation_targetAtFixation,jsons/VE125_randls_13.json,http://54.235.29.9/FacialAge/BNav_EC2/DepthDuration/v2_depth_duration_MTurk/v2_DepthDuration_HTML.html#175,175,1366,768,1366,768,8-29-2022,11-26-15,82,depth_duration_stimuli/002995_2014-06-15_12-31-26_094959634447_rgbf000150-resize_1/002995_2014-06-15_12-31-26_094959634447_rgbf000150-resize_1-target.png,125,3.8360000000000003,12,2277,120,feet,jsons/VE125_randls_13.json,519479,676529,28,Man
82,541423,DepthScenes,duration_manipulation_targetAtFixation,jsons/VE125_randls_13.json,http://54.235.29.9/FacialAge/BNav_EC2/DepthDuration/v2_depth_duration_MTurk/v2_DepthDuration_HTML.html#175,175,1366,768,1366,768,8-29-2022,11-26-15,83,depth_duration_stimuli/000436_2014-06-09_22-25-11_260595134347_rgbf000137-resize_1/000436_2014-06-09_22-25-11_260595134347_rgbf000137-resize_1-target.png,125,4.0705,12,2195,140,feet,jsons/VE125_randls_13.json,519479,676529,28,Man
83,541423,DepthScenes,duration_manipulation_targetAtFixation,jsons/VE125_randls_13.json,http://54.235.29.9/FacialAge/BNav_EC2/DepthDuration/v2_depth_duration_MTurk/v2_DepthDuration_HTML.html#175,175,1366,768,1366,768,8-29-2022,11-26-15,84,depth_duration_stimuli/002444_2014-06-28_20-32-08_260595134347_rgbf000027-resize_0/002444_2014-06-28_20-32-08_260595134347_rgbf000027-resize_0-target.png,125,4.388999999999999,13,2693,126,feet,jsons/VE125_randls_13.json,519479,676529,28,Man
84,541423,DepthScenes,duration_manipulation_targetAtFixation,jsons/VE125_randls_13.json,http://54.235.29.9/FacialAge/BNav_EC2/DepthDuration/v2_depth_duration_MTurk/v2_DepthDuration_HTML.html#175,175,1366,768,1366,768,8-29-2022,11-26-15,85,depth_duration_stimuli/001133_2014-06-17_14-49-16_260595134347_rgbf000100-resize_0/001133_2014-06-17_14-49-16_260595134347_rgbf000100-resize_0-target.png,125,4.2115,14,2843,116,feet,jsons/VE125_randls_13.json,519479,676529,28,Man
85,541423,DepthScenes,duration_manipulation_targetAtFixation,jsons/VE125_randls_13.json,http://54.235.29.9/FacialAge/BNav_EC2/DepthDuration/v2_depth_duration_MTurk/v2_DepthDuration_HTML.html#175,175,1366,768,1366,768,8-29-2022,11-26-15,86,depth_duration_stimuli/001132_2014-06-17_14-48-54_260595134347_rgbf000100-resize_2/001132_2014-06-17_14-48-54_260595134347_rgbf000100-resize_2-target.png,125,3.753,11,3326,136,feet,jsons/VE125_randls_13.json,519479,676529,28,Man
86,541423,DepthScenes,duration_manipulation_targetAtFixation,jsons/VE125_randls_13.json,http://54.235.29.9/FacialAge/BNav_EC2/DepthDuration/v2_depth_duration_MTurk/v2_DepthDuration_HTML.html#175,175,1366,768,1366,768,8-29-2022,11-26-15,87,depth_duration_stimuli/003070_2014-06-15_14-58-27_094959634447_rgbf000150-resize_3/003070_2014-06-15_14-58-27_094959634447_rgbf000150-resize_3-target.png,125,2.9415,9,2264,117,feet,jsons/VE125_randls_13.json,519479,676529,28,Man
87,541423,DepthScenes,duration_manipulation_targetAtFixation,jsons/VE125_randls_13.json,http://54.235.29.9/FacialAge/BNav_EC2/DepthDuration/v2_depth_duration_MTurk/v2_DepthDuration_HTML.html#175,175,1366,768,1366,768,8-29-2022,11-26-15,88,depth_duration_stimuli/000943_2014-06-09_19-31-07_260595134347_rgbf000128-resize_1/000943_2014-06-09_19-31-07_260595134347_rgbf000128-resize_1-target.png,125,1.9765,6,2092,132,feet,jsons/VE125_randls_13.json,519479,676529,28,Man
88,541423,DepthScenes,duration_manipulation_targetAtFixation,jsons/VE125_randls_13.json,http://54.235.29.9/FacialAge/BNav_EC2/DepthDuration/v2_depth_duration_MTurk/v2_DepthDuration_HTML.html#175,175,1366,768,1366,768,8-29-2022,11-26-15,89,depth_duration_stimuli/002057_2014-06-24_21-00-13_260595134347_rgbf000120-resize_1/002057_2014-06-24_21-00-13_260595134347_rgbf000120-resize_1-target.png,125,2.967,13,4718,126,feet,jsons/VE125_randls_13.json,519479,676529,28,Man
89,541423,DepthScenes,duration_manipulation_targetAtFixation,jsons/VE125_randls_13.json,http://54.235.29.9/FacialAge/BNav_EC2/DepthDuration/v2_depth_duration_MTurk/v2_DepthDuration_HTML.html#175,175,1366,768,1366,768,8-29-2022,11-26-15,90,depth_duration_stimuli/000709_2014-06-08_13-51-55_260595134347_rgbf000068-resize_3/000709_2014-06-08_13-51-55_260595134347_rgbf000068-resize_3-target.png,125,1.8030000000000002,5,2127,124,feet,jsons/VE125_randls_13.json,519479,676529,28,Man
90,541423,DepthScenes,duration_manipulation_targetAtFixation,jsons/VE125_randls_13.json,http://54.235.29.9/FacialAge/BNav_EC2/DepthDuration/v2_depth_duration_MTurk/v2_DepthDuration_HTML.html#175,175,1366,768,1366,768,8-29-2022,11-26-15,91,depth_duration_stimuli/000758_2014-06-08_22-05-08_260595134347_rgbf000085-resize_0/000758_2014-06-08_22-05-08_260595134347_rgbf000085-resize_0-target.png,125,3.3810000000000002,12,2760,125,feet,jsons/VE125_randls_13.json,519479,676529,28,Man
91,541423,DepthScenes,duration_manipulation_targetAtFixation,jsons/VE125_randls_13.json,http://54.235.29.9/FacialAge/BNav_EC2/DepthDuration/v2_depth_duration_MTurk/v2_DepthDuration_HTML.html#175,175,1366,768,1366,768,8-29-2022,11-26-15,92,depth_duration_stimuli/000854_2014-06-09_19-43-13_260595134347_rgbf000066-resize_0/000854_2014-06-09_19-43-13_260595134347_rgbf000066-resize_0-target.png,125,3.068,4,2029,124,feet,jsons/VE125_randls_13.json,519479,676529,28,Man
92,541423,DepthScenes,duration_manipulation_targetAtFixation,jsons/VE125_randls_13.json,http://54.235.29.9/FacialAge/BNav_EC2/DepthDuration/v2_depth_duration_MTurk/v2_DepthDuration_HTML.html#175,175,1366,768,1366,768,8-29-2022,11-26-15,93,depth_duration_stimuli/001164_2014-06-17_15-35-46_260595134347_rgbf000085-resize_3/001164_2014-06-17_15-35-46_260595134347_rgbf000085-resize_3-target.png,125,2.354,6,2103,123,feet,jsons/VE125_randls_13.json,519479,676529,28,Man
93,541423,DepthScenes,duration_manipulation_targetAtFixation,jsons/VE125_randls_13.json,http://54.235.29.9/FacialAge/BNav_EC2/DepthDuration/v2_depth_duration_MTurk/v2_DepthDuration_HTML.html#175,175,1366,768,1366,768,8-29-2022,11-26-15,94,depth_duration_stimuli/001136_2014-06-17_15-19-41_260595134347_rgbf000076-resize_3/001136_2014-06-17_15-19-41_260595134347_rgbf000076-resize_3-target.png,125,1.8655,5,2421,124,feet,jsons/VE125_randls_13.json,519479,676529,28,Man
94,541423,DepthScenes,duration_manipulation_targetAtFixation,jsons/VE125_randls_13.json,http://54.235.29.9/FacialAge/BNav_EC2/DepthDuration/v2_depth_duration_MTurk/v2_DepthDuration_HTML.html#175,175,1366,768,1366,768,8-29-2022,11-26-15,95,depth_duration_stimuli/002153_2014-06-25_21-27-18_260595134347_rgbf000038-resize_5/002153_2014-06-25_21-27-18_260595134347_rgbf000038-resize_5-target.png,125,2.505,7,2684,129,feet,jsons/VE125_randls_13.json,519479,676529,28,Man
95,541423,DepthScenes,duration_manipulation_targetAtFixation,jsons/VE125_randls_13.json,http://54.235.29.9/FacialAge/BNav_EC2/DepthDuration/v2_depth_duration_MTurk/v2_DepthDuration_HTML.html#175,175,1366,768,1366,768,8-29-2022,11-26-15,96,depth_duration_stimuli/002660_2014-06-13_15-44-18_094959634447_rgbf001878-resize_2/002660_2014-06-13_15-44-18_094959634447_rgbf001878-resize_2-target.png,125,3.576,6,2003,128,feet,jsons/VE125_randls_13.json,519479,676529,28,Man
96,541423,DepthScenes,duration_manipulation_targetAtFixation,jsons/VE125_randls_13.json,http://54.235.29.9/FacialAge/BNav_EC2/DepthDuration/v2_depth_duration_MTurk/v2_DepthDuration_HTML.html#175,175,1366,768,1366,768,8-29-2022,11-26-15,97,depth_duration_stimuli/000739_2014-06-08_18-45-58_260595134347_rgbf000068-resize_1/000739_2014-06-08_18-45-58_260595134347_rgbf000068-resize_1-target.png,125,3.534,11,2171,115,feet,jsons/VE125_randls_13.json,519479,676529,28,Man
97,541423,DepthScenes,duration_manipulation_targetAtFixation,jsons/VE125_randls_13.json,http://54.235.29.9/FacialAge/BNav_EC2/DepthDuration/v2_depth_duration_MTurk/v2_DepthDuration_HTML.html#175,175,1366,768,1366,768,8-29-2022,11-26-15,98,depth_duration_stimuli/000734_2014-06-08_17-39-11_260595134347_rgbf000128-resize_2/000734_2014-06-08_17-39-11_260595134347_rgbf000128-resize_2-target.png,125,4.098,7,2606,126,feet,jsons/VE125_randls_13.json,519479,676529,28,Man
98,541423,DepthScenes,duration_manipulation_targetAtFixation,jsons/VE125_randls_13.json,http://54.235.29.9/FacialAge/BNav_EC2/DepthDuration/v2_depth_duration_MTurk/v2_DepthDuration_HTML.html#175,175,1366,768,1366,768,8-29-2022,11-26-15,99,depth_duration_stimuli/001540_2014-06-20_17-01-05_260595134347_rgbf000086-resize_2/001540_2014-06-20_17-01-05_260595134347_rgbf000086-resize-original.jpg,125,1.459,0,2135,125,feet,jsons/VE125_randls_13.json,519479,676529,28,Man
99,541423,DepthScenes,duration_manipulation_targetAtFixation,jsons/VE125_randls_13.json,http://54.235.29.9/FacialAge/BNav_EC2/DepthDuration/v2_depth_duration_MTurk/v2_DepthDuration_HTML.html#175,175,1366,768,1366,768,8-29-2022,11-26-15,100,depth_duration_stimuli/000522_2014-06-08_13-35-06_260595134347_rgbf000244-resize_1/000522_2014-06-08_13-35-06_260595134347_rgbf000244-resize_1-target.png,125,2.3715,2,1959,125,feet,jsons/VE125_randls_13.json,519479,676529,28,Man
100,541423,DepthScenes,duration_manipulation_targetAtFixation,jsons/VE125_randls_13.json,http://54.235.29.9/FacialAge/BNav_EC2/DepthDuration/v2_depth_duration_MTurk/v2_DepthDuration_HTML.html#175,175,1366,768,1366,768,8-29-2022,11-26-15,101,depth_duration_stimuli/002949_2014-06-26_15-57-42_094959634447_rgbf000079-resize_1/002949_2014-06-26_15-57-42_094959634447_rgbf000079-resize_1-target.png,125,1.8915,4,2061,117,feet,jsons/VE125_randls_13.json,519479,676529,28,Man
101,541423,DepthScenes,duration_manipulation_targetAtFixation,jsons/VE125_randls_13.json,http://54.235.29.9/FacialAge/BNav_EC2/DepthDuration/v2_depth_duration_MTurk/v2_DepthDuration_HTML.html#175,175,1366,768,1366,768,8-29-2022,11-26-15,102,depth_duration_stimuli/002989_2014-06-15_12-25-03_094959634447_rgbf000150-resize_3/002989_2014-06-15_12-25-03_094959634447_rgbf000150-resize_3-target.png,125,4.1975,15,2434,124,feet,jsons/VE125_randls_13.json,519479,676529,28,Man
102,541423,DepthScenes,duration_manipulation_targetAtFixation,jsons/VE125_randls_13.json,http://54.235.29.9/FacialAge/BNav_EC2/DepthDuration/v2_depth_duration_MTurk/v2_DepthDuration_HTML.html#175,175,1366,768,1366,768,8-29-2022,11-26-15,103,depth_duration_stimuli/000866_2014-06-09_20-45-42_260595134347_rgbf000139-resize_1/000866_2014-06-09_20-45-42_260595134347_rgbf000139-resize_1-target.png,125,3.2155,6,2087,121,feet,jsons/VE125_randls_13.json,519479,676529,28,Man
103,541423,DepthScenes,duration_manipulation_targetAtFixation,jsons/VE125_randls_13.json,http://54.235.29.9/FacialAge/BNav_EC2/DepthDuration/v2_depth_duration_MTurk/v2_DepthDuration_HTML.html#175,175,1366,768,1366,768,8-29-2022,11-26-15,104,depth_duration_stimuli/001555_2014-06-20_17-12-10_260595134347_rgbf000065-resize_4/001555_2014-06-20_17-12-10_260595134347_rgbf000065-resize_4-target.png,125,1.633,3,2479,130,feet,jsons/VE125_randls_13.json,519479,676529,28,Man
104,541423,DepthScenes,duration_manipulation_targetAtFixation,jsons/VE125_randls_13.json,http://54.235.29.9/FacialAge/BNav_EC2/DepthDuration/v2_depth_duration_MTurk/v2_DepthDuration_HTML.html#175,175,1366,768,1366,768,8-29-2022,11-26-15,105,depth_duration_stimuli/000103_2014-05-14_22-01-17_260595134347_rgbf000152-resize_5/000103_2014-05-14_22-01-17_260595134347_rgbf000152-resize_5-target.png,125,1.993,6,2223,110,feet,jsons/VE125_randls_13.json,519479,676529,28,Man
105,541423,DepthScenes,duration_manipulation_targetAtFixation,jsons/VE125_randls_13.json,http://54.235.29.9/FacialAge/BNav_EC2/DepthDuration/v2_depth_duration_MTurk/v2_DepthDuration_HTML.html#175,175,1366,768,1366,768,8-29-2022,11-26-15,106,depth_duration_stimuli/003534_2014-05-22_15-06-10_094959634447_rgbf000102-resize_4/003534_2014-05-22_15-06-10_094959634447_rgbf000102-resize_4-target.png,125,1.426,3,2026,124,feet,jsons/VE125_randls_13.json,519479,676529,28,Man
106,541423,DepthScenes,duration_manipulation_targetAtFixation,jsons/VE125_randls_13.json,http://54.235.29.9/FacialAge/BNav_EC2/DepthDuration/v2_depth_duration_MTurk/v2_DepthDuration_HTML.html#175,175,1366,768,1366,768,8-29-2022,11-26-15,107,depth_duration_stimuli/002637_2014-06-24_14-51-13_094959634447_rgbf000066-resize_4/002637_2014-06-24_14-51-13_094959634447_rgbf000066-resize_4-target.png,125,1.9955,6,2102,121,feet,jsons/VE125_randls_13.json,519479,676529,28,Man
107,541423,DepthScenes,duration_manipulation_targetAtFixation,jsons/VE125_randls_13.json,http://54.235.29.9/FacialAge/BNav_EC2/DepthDuration/v2_depth_duration_MTurk/v2_DepthDuration_HTML.html#175,175,1366,768,1366,768,8-29-2022,11-26-15,108,depth_duration_stimuli/001016_2014-06-09_16-16-10_260595134347_rgbf000112-resize_5/001016_2014-06-09_16-16-10_260595134347_rgbf000112-resize_5-target.png,125,1.6565,5,3546,122,feet,jsons/VE125_randls_13.json,519479,676529,28,Man
108,541423,DepthScenes,duration_manipulation_targetAtFixation,jsons/VE125_randls_13.json,http://54.235.29.9/FacialAge/BNav_EC2/DepthDuration/v2_depth_duration_MTurk/v2_DepthDuration_HTML.html#175,175,1366,768,1366,768,8-29-2022,11-26-15,109,depth_duration_stimuli/002340_2014-06-28_20-05-46_260595134347_rgbf000113-resize_0/002340_2014-06-28_20-05-46_260595134347_rgbf000113-resize_0-target.png,125,2.4735,9,2586,128,feet,jsons/VE125_randls_13.json,519479,676529,28,Man
109,541423,DepthScenes,duration_manipulation_targetAtFixation,jsons/VE125_randls_13.json,http://54.235.29.9/FacialAge/BNav_EC2/DepthDuration/v2_depth_duration_MTurk/v2_DepthDuration_HTML.html#175,175,1366,768,1366,768,8-29-2022,11-26-15,110,depth_duration_stimuli/000773_2014-06-08_22-24-54_260595134347_rgbf000093-resize_1/000773_2014-06-08_22-24-54_260595134347_rgbf000093-resize_1-target.png,125,4.973,12,2551,124,feet,jsons/VE125_randls_13.json,519479,676529,28,Man
110,541423,DepthScenes,duration_manipulation_targetAtFixation,jsons/VE125_randls_13.json,http://54.235.29.9/FacialAge/BNav_EC2/DepthDuration/v2_depth_duration_MTurk/v2_DepthDuration_HTML.html#175,175,1366,768,1366,768,8-29-2022,11-26-15,111,depth_duration_stimuli/002414_2014-06-28_20-24-58_260595134347_rgbf000067-resize_4/002414_2014-06-28_20-24-58_260595134347_rgbf000067-resize_4-target.png,125,4.363,11,2761,134,feet,jsons/VE125_randls_13.json,519479,676529,28,Man
111,541423,DepthScenes,duration_manipulation_targetAtFixation,jsons/VE125_randls_13.json,http://54.235.29.9/FacialAge/BNav_EC2/DepthDuration/v2_depth_duration_MTurk/v2_DepthDuration_HTML.html#175,175,1366,768,1366,768,8-29-2022,11-26-15,112,depth_duration_stimuli/001059_2014-06-08_21-53-27_260595134347_rgbf000061-resize_4/001059_2014-06-08_21-53-27_260595134347_rgbf000061-resize_4-target.png,125,2.4185,8,2632,115,feet,jsons/VE125_randls_13.json,519479,676529,28,Man
112,541423,DepthScenes,duration_manipulation_targetAtFixation,jsons/VE125_randls_13.json,http://54.235.29.9/FacialAge/BNav_EC2/DepthDuration/v2_depth_duration_MTurk/v2_DepthDuration_HTML.html#175,175,1366,768,1366,768,8-29-2022,11-26-15,113,depth_duration_stimuli/001032_2014-06-08_13-23-17_260595134347_rgbf000021-resize_3/001032_2014-06-08_13-23-17_260595134347_rgbf000021-resize_3-target.png,125,3.2725,9,2092,124,feet,jsons/VE125_randls_13.json,519479,676529,28,Man
113,541423,DepthScenes,duration_manipulation_targetAtFixation,jsons/VE125_randls_13.json,http://54.235.29.9/FacialAge/BNav_EC2/DepthDuration/v2_depth_duration_MTurk/v2_DepthDuration_HTML.html#175,175,1366,768,1366,768,8-29-2022,11-26-15,114,depth_duration_stimuli/003292_2014-05-14_21-53-49_094959634447_rgbf000100-resize_2/003292_2014-05-14_21-53-49_094959634447_rgbf000100-resize_2-target.png,125,3.4815,8,2617,123,feet,jsons/VE125_randls_13.json,519479,676529,28,Man
114,541423,DepthScenes,duration_manipulation_targetAtFixation,jsons/VE125_randls_13.json,http://54.235.29.9/FacialAge/BNav_EC2/DepthDuration/v2_depth_duration_MTurk/v2_DepthDuration_HTML.html#175,175,1366,768,1366,768,8-29-2022,11-26-15,115,depth_duration_stimuli/002639_2014-06-24_14-51-37_094959634447_rgbf000074-resize_4/002639_2014-06-24_14-51-37_094959634447_rgbf000074-resize_4-target.png,125,4.0375,10,2681,137,feet,jsons/VE125_randls_13.json,519479,676529,28,Man
115,541423,DepthScenes,duration_manipulation_targetAtFixation,jsons/VE125_randls_13.json,http://54.235.29.9/FacialAge/BNav_EC2/DepthDuration/v2_depth_duration_MTurk/v2_DepthDuration_HTML.html#175,175,1366,768,1366,768,8-29-2022,11-26-15,116,depth_duration_stimuli/001170_2014-06-17_15-43-44_260595134347_rgbf000096-resize_6/001170_2014-06-17_15-43-44_260595134347_rgbf000096-resize-original.jpg,125,1.1909999999999998,0,2253,126,feet,jsons/VE125_randls_13.json,519479,676529,28,Man
116,541423,DepthScenes,duration_manipulation_targetAtFixation,jsons/VE125_randls_13.json,http://54.235.29.9/FacialAge/BNav_EC2/DepthDuration/v2_depth_duration_MTurk/v2_DepthDuration_HTML.html#175,175,1366,768,1366,768,8-29-2022,11-26-15,117,depth_duration_stimuli/001570_2014-06-20_17-21-09_260595134347_rgbf000135-resize_4/001570_2014-06-20_17-21-09_260595134347_rgbf000135-resize_4-target.png,125,4.467,15,2315,126,feet,jsons/VE125_randls_13.json,519479,676529,28,Man
117,541423,DepthScenes,duration_manipulation_targetAtFixation,jsons/VE125_randls_13.json,http://54.235.29.9/FacialAge/BNav_EC2/DepthDuration/v2_depth_duration_MTurk/v2_DepthDuration_HTML.html#175,175,1366,768,1366,768,8-29-2022,11-26-15,118,depth_duration_stimuli/001392_2014-06-19_16-07-59_260595134347_rgbf000046-resize_1/001392_2014-06-19_16-07-59_260595134347_rgbf000046-resize_1-target.png,125,4.135,14,2459,125,feet,jsons/VE125_randls_13.json,519479,676529,28,Man
118,541423,DepthScenes,duration_manipulation_targetAtFixation,jsons/VE125_randls_13.json,http://54.235.29.9/FacialAge/BNav_EC2/DepthDuration/v2_depth_duration_MTurk/v2_DepthDuration_HTML.html#175,175,1366,768,1366,768,8-29-2022,11-26-15,119,depth_duration_stimuli/000447_2014-06-08_16-15-46_260595134347_rgbf000130-resize_1/000447_2014-06-08_16-15-46_260595134347_rgbf000130-resize_1-target.png,125,4.479,12,5650,127,feet,jsons/VE125_randls_13.json,519479,676529,28,Man
119,541423,DepthScenes,duration_manipulation_targetAtFixation,jsons/VE125_randls_13.json,http://54.235.29.9/FacialAge/BNav_EC2/DepthDuration/v2_depth_duration_MTurk/v2_DepthDuration_HTML.html#175,175,1366,768,1366,768,8-29-2022,11-26-15,120,depth_duration_stimuli/001447_2014-06-19_17-00-32_260595134347_rgbf000082-resize_5/001447_2014-06-19_17-00-32_260595134347_rgbf000082-resize_5-target.png,125,4.13775,8,2110,119,feet,jsons/VE125_randls_13.json,519479,676529,28,Man
120,541423,DepthScenes,duration_manipulation_targetAtFixation,jsons/VE125_randls_13.json,http://54.235.29.9/FacialAge/BNav_EC2/DepthDuration/v2_depth_duration_MTurk/v2_DepthDuration_HTML.html#175,175,1366,768,1366,768,8-29-2022,11-26-15,121,depth_duration_stimuli/001066_2014-06-08_22-03-20_260595134347_rgbf000066-resize_4/001066_2014-06-08_22-03-20_260595134347_rgbf000066-resize_4-target.png,125,4.2330000000000005,14,2379,133,feet,jsons/VE125_randls_13.json,519479,676529,28,Man
121,541423,DepthScenes,duration_manipulation_targetAtFixation,jsons/VE125_randls_13.json,http://54.235.29.9/FacialAge/BNav_EC2/DepthDuration/v2_depth_duration_MTurk/v2_DepthDuration_HTML.html#175,175,1366,768,1366,768,8-29-2022,11-26-15,122,depth_duration_stimuli/000742_2014-06-08_18-48-09_260595134347_rgbf000164-resize_4/000742_2014-06-08_18-48-09_260595134347_rgbf000164-resize_4-target.png,125,4.632,15,2581,124,feet,jsons/VE125_randls_13.json,519479,676529,28,Man
122,541423,DepthScenes,duration_manipulation_targetAtFixation,jsons/VE125_randls_13.json,http://54.235.29.9/FacialAge/BNav_EC2/DepthDuration/v2_depth_duration_MTurk/v2_DepthDuration_HTML.html#175,175,1366,768,1366,768,8-29-2022,11-26-15,123,depth_duration_stimuli/002630_2014-06-24_14-47-50_094959634447_rgbf000055-resize_1/002630_2014-06-24_14-47-50_094959634447_rgbf000055-resize_1-target.png,125,3.0095,11,3037,123,feet,jsons/VE125_randls_13.json,519479,676529,28,Man
123,541423,DepthScenes,duration_manipulation_targetAtFixation,jsons/VE125_randls_13.json,http://54.235.29.9/FacialAge/BNav_EC2/DepthDuration/v2_depth_duration_MTurk/v2_DepthDuration_HTML.html#175,175,1366,768,1366,768,8-29-2022,11-26-15,124,depth_duration_stimuli/002758_2014-06-22_19-11-20_094959634447_rgbf000128-resize_1/002758_2014-06-22_19-11-20_094959634447_rgbf000128-resize_1-target.png,125,2.555,4,1863,114,feet,jsons/VE125_randls_13.json,519479,676529,28,Man
124,541423,DepthScenes,duration_manipulation_targetAtFixation,jsons/VE125_randls_13.json,http://54.235.29.9/FacialAge/BNav_EC2/DepthDuration/v2_depth_duration_MTurk/v2_DepthDuration_HTML.html#175,175,1366,768,1366,768,8-29-2022,11-26-15,125,depth_duration_stimuli/002549_2014-06-24_13-41-39_094959634447_rgbf000022-resize_3/002549_2014-06-24_13-41-39_094959634447_rgbf000022-resize_3-target.png,125,1.476,4,1688,112,feet,jsons/VE125_randls_13.json,519479,676529,28,Man
125,541423,DepthScenes,duration_manipulation_targetAtFixation,jsons/VE125_randls_13.json,http://54.235.29.9/FacialAge/BNav_EC2/DepthDuration/v2_depth_duration_MTurk/v2_DepthDuration_HTML.html#175,175,1366,768,1366,768,8-29-2022,11-26-15,126,depth_duration_stimuli/002750_2014-06-22_19-08-03_094959634447_rgbf000094-resize_4/002750_2014-06-22_19-08-03_094959634447_rgbf000094-resize_4-target.png,125,2.354,7,2041,115,feet,jsons/VE125_randls_13.json,519479,676529,28,Man
126,541423,DepthScenes,duration_manipulation_targetAtFixation,jsons/VE125_randls_13.json,http://54.235.29.9/FacialAge/BNav_EC2/DepthDuration/v2_depth_duration_MTurk/v2_DepthDuration_HTML.html#175,175,1366,768,1366,768,8-29-2022,11-26-15,127,depth_duration_stimuli/001199_2014-06-17_16-03-48_260595134347_rgbf000077-resize_0/001199_2014-06-17_16-03-48_260595134347_rgbf000077-resize_0-target.png,125,3.4375,12,2123,125,feet,jsons/VE125_randls_13.json,519479,676529,28,Man
127,541423,DepthScenes,duration_manipulation_targetAtFixation,jsons/VE125_randls_13.json,http://54.235.29.9/FacialAge/BNav_EC2/DepthDuration/v2_depth_duration_MTurk/v2_DepthDuration_HTML.html#175,175,1366,768,1366,768,8-29-2022,11-26-15,128,depth_duration_stimuli/000502_2014-06-08_23-02-32_260595134347_rgbf000063-resize_4/000502_2014-06-08_23-02-32_260595134347_rgbf000063-resize_4-target.png,125,2.431,6,2254,123,feet,jsons/VE125_randls_13.json,519479,676529,28,Man
128,541423,DepthScenes,duration_manipulation_targetAtFixation,jsons/VE125_randls_13.json,http://54.235.29.9/FacialAge/BNav_EC2/DepthDuration/v2_depth_duration_MTurk/v2_DepthDuration_HTML.html#175,175,1366,768,1366,768,8-29-2022,11-26-15,129,depth_duration_stimuli/000486_2014-06-09_20-47-20_260595134347_rgbf000143-resize_2/000486_2014-06-09_20-47-20_260595134347_rgbf000143-resize_2-target.png,125,4.8325,11,2702,123,feet,jsons/VE125_randls_13.json,519479,676529,28,Man
129,541423,DepthScenes,duration_manipulation_targetAtFixation,jsons/VE125_randls_13.json,http://54.235.29.9/FacialAge/BNav_EC2/DepthDuration/v2_depth_duration_MTurk/v2_DepthDuration_HTML.html#175,175,1366,768,1366,768,8-29-2022,11-26-15,130,depth_duration_stimuli/003083_2014-06-15_15-21-03_094959634447_rgbf000063-resize_1/003083_2014-06-15_15-21-03_094959634447_rgbf000063-resize_1-target.png,125,4.1405,13,3487,124,feet,jsons/VE125_randls_13.json,519479,676529,28,Man
130,541423,DepthScenes,duration_manipulation_targetAtFixation,jsons/VE125_randls_13.json,http://54.235.29.9/FacialAge/BNav_EC2/DepthDuration/v2_depth_duration_MTurk/v2_DepthDuration_HTML.html#175,175,1366,768,1366,768,8-29-2022,11-26-15,131,depth_duration_stimuli/001806_2014-06-26_20-50-20_260595134347_rgbf000091-resize_1/001806_2014-06-26_20-50-20_260595134347_rgbf000091-resize_1-target.png,125,2.7305,5,1889,124,feet,jsons/VE125_randls_13.json,519479,676529,28,Man
131,541423,DepthScenes,duration_manipulation_targetAtFixation,jsons/VE125_randls_13.json,http://54.235.29.9/FacialAge/BNav_EC2/DepthDuration/v2_depth_duration_MTurk/v2_DepthDuration_HTML.html#175,175,1366,768,1366,768,8-29-2022,11-26-15,132,depth_duration_stimuli/001617_2014-06-20_11-35-32_260595134347_rgbf000066-resize_1/001617_2014-06-20_11-35-32_260595134347_rgbf000066-resize_1-target.png,125,3.7910000000000004,12,2276,127,feet,jsons/VE125_randls_13.json,519479,676529,28,Man
132,541423,DepthScenes,duration_manipulation_targetAtFixation,jsons/VE125_randls_13.json,http://54.235.29.9/FacialAge/BNav_EC2/DepthDuration/v2_depth_duration_MTurk/v2_DepthDuration_HTML.html#175,175,1366,768,1366,768,8-29-2022,11-26-15,133,depth_duration_stimuli/000493_2014-06-09_21-01-18_260595134347_rgbf000196-resize_3/000493_2014-06-09_21-01-18_260595134347_rgbf000196-resize_3-target.png,125,3.44,10,2876,126,feet,jsons/VE125_randls_13.json,519479,676529,28,Man
133,541423,DepthScenes,duration_manipulation_targetAtFixation,jsons/VE125_randls_13.json,http://54.235.29.9/FacialAge/BNav_EC2/DepthDuration/v2_depth_duration_MTurk/v2_DepthDuration_HTML.html#175,175,1366,768,1366,768,8-29-2022,11-26-15,134,depth_duration_stimuli/000191_2014-05-12_17-07-38_260595134347_rgbf000199-resize_0/000191_2014-05-12_17-07-38_260595134347_rgbf000199-resize_0-target.png,125,3.7995,14,2675,133,feet,jsons/VE125_randls_13.json,519479,676529,28,Man
134,541423,DepthScenes,duration_manipulation_targetAtFixation,jsons/VE125_randls_13.json,http://54.235.29.9/FacialAge/BNav_EC2/DepthDuration/v2_depth_duration_MTurk/v2_DepthDuration_HTML.html#175,175,1366,768,1366,768,8-29-2022,11-26-15,135,depth_duration_stimuli/002072_2014-06-24_21-48-06_260595134347_rgbf000115-resize_0/002072_2014-06-24_21-48-06_260595134347_rgbf000115-resize-original.jpg,125,4.702,0,2293,133,feet,jsons/VE125_randls_13.json,519479,676529,28,Man
135,541423,DepthScenes,duration_manipulation_targetAtFixation,jsons/VE125_randls_13.json,http://54.235.29.9/FacialAge/BNav_EC2/DepthDuration/v2_depth_duration_MTurk/v2_DepthDuration_HTML.html#175,175,1366,768,1366,768,8-29-2022,11-26-15,136,depth_duration_stimuli/000506_2014-06-08_23-21-00_260595134347_rgbf000070-resize_7/000506_2014-06-08_23-21-00_260595134347_rgbf000070-resize_7-target.png,125,4.0585,10,3218,128,feet,jsons/VE125_randls_13.json,519479,676529,28,Man
136,541423,DepthScenes,duration_manipulation_targetAtFixation,jsons/VE125_randls_13.json,http://54.235.29.9/FacialAge/BNav_EC2/DepthDuration/v2_depth_duration_MTurk/v2_DepthDuration_HTML.html#175,175,1366,768,1366,768,8-29-2022,11-26-15,137,depth_duration_stimuli/003079_2014-06-15_15-18-20_094959634447_rgbf000152-resize_8/003079_2014-06-15_15-18-20_094959634447_rgbf000152-resize_8-target.png,125,2.8775,17,2824,126,feet,jsons/VE125_randls_13.json,519479,676529,28,Man
137,541423,DepthScenes,duration_manipulation_targetAtFixation,jsons/VE125_randls_13.json,http://54.235.29.9/FacialAge/BNav_EC2/DepthDuration/v2_depth_duration_MTurk/v2_DepthDuration_HTML.html#175,175,1366,768,1366,768,8-29-2022,11-26-15,138,depth_duration_stimuli/001449_2014-06-19_17-01-27_260595134347_rgbf000116-resize_2/001449_2014-06-19_17-01-27_260595134347_rgbf000116-resize_2-target.png,125,3.452,7,2346,127,feet,jsons/VE125_randls_13.json,519479,676529,28,Man
138,541423,DepthScenes,duration_manipulation_targetAtFixation,jsons/VE125_randls_13.json,http://54.235.29.9/FacialAge/BNav_EC2/DepthDuration/v2_depth_duration_MTurk/v2_DepthDuration_HTML.html#175,175,1366,768,1366,768,8-29-2022,11-26-15,139,depth_duration_stimuli/001450_2014-06-19_17-02-03_260595134347_rgbf000203-resize_4/001450_2014-06-19_17-02-03_260595134347_rgbf000203-resize_4-target.png,125,4.0106666666667,12,2078,126,feet,jsons/VE125_randls_13.json,519479,676529,28,Man
139,541423,DepthScenes,duration_manipulation_targetAtFixation,jsons/VE125_randls_13.json,http://54.235.29.9/FacialAge/BNav_EC2/DepthDuration/v2_depth_duration_MTurk/v2_DepthDuration_HTML.html#175,175,1366,768,1366,768,8-29-2022,11-26-15,140,depth_duration_stimuli/002600_2014-06-24_14-27-04_094959634447_rgbf000074-resize_2/002600_2014-06-24_14-27-04_094959634447_rgbf000074-resize_2-target.png,125,2.7575,7,2385,124,feet,jsons/VE125_randls_13.json,519479,676529,28,Man
140,541423,DepthScenes,duration_manipulation_targetAtFixation,jsons/VE125_randls_13.json,http://54.235.29.9/FacialAge/BNav_EC2/DepthDuration/v2_depth_duration_MTurk/v2_DepthDuration_HTML.html#175,175,1366,768,1366,768,8-29-2022,11-26-15,141,depth_duration_stimuli/003228_2014-05-14_13-42-35_094959634447_rgbf000101-resize_1/003228_2014-05-14_13-42-35_094959634447_rgbf000101-resize_1-target.png,125,1.9680000000000002,4,2199,125,feet,jsons/VE125_randls_13.json,519479,676529,28,Man
141,541423,DepthScenes,duration_manipulation_targetAtFixation,jsons/VE125_randls_13.json,http://54.235.29.9/FacialAge/BNav_EC2/DepthDuration/v2_depth_duration_MTurk/v2_DepthDuration_HTML.html#175,175,1366,768,1366,768,8-29-2022,11-26-15,142,depth_duration_stimuli/000368_2014-06-09_15-53-01_260595134347_rgbf000155-resize_2/000368_2014-06-09_15-53-01_260595134347_rgbf000155-resize_2-target.png,125,2.4859999999999998,6,2059,116,feet,jsons/VE125_randls_13.json,519479,676529,28,Man
142,541423,DepthScenes,duration_manipulation_targetAtFixation,jsons/VE125_randls_13.json,http://54.235.29.9/FacialAge/BNav_EC2/DepthDuration/v2_depth_duration_MTurk/v2_DepthDuration_HTML.html#175,175,1366,768,1366,768,8-29-2022,11-26-15,143,depth_duration_stimuli/002678_2014-06-13_16-15-32_094959634447_rgbf000151-resize_6/002678_2014-06-13_16-15-32_094959634447_rgbf000151-resize_6-target.png,125,2.1830000000000003,7,2433,131,feet,jsons/VE125_randls_13.json,519479,676529,28,Man
143,541423,DepthScenes,duration_manipulation_targetAtFixation,jsons/VE125_randls_13.json,http://54.235.29.9/FacialAge/BNav_EC2/DepthDuration/v2_depth_duration_MTurk/v2_DepthDuration_HTML.html#175,175,1366,768,1366,768,8-29-2022,11-26-15,144,depth_duration_stimuli/002763_2014-06-22_19-13-10_094959634447_rgbf000075-resize_4/002763_2014-06-22_19-13-10_094959634447_rgbf000075-resize_4-target.png,125,1.68375,5,2014,122,feet,jsons/VE125_randls_13.json,519479,676529,28,Man
144,541423,DepthScenes,duration_manipulation_targetAtFixation,jsons/VE125_randls_13.json,http://54.235.29.9/FacialAge/BNav_EC2/DepthDuration/v2_depth_duration_MTurk/v2_DepthDuration_HTML.html#175,175,1366,768,1366,768,8-29-2022,11-26-15,145,depth_duration_stimuli/002209_2014-06-28_18-36-10_260595134347_rgbf000051-resize_1/002209_2014-06-28_18-36-10_260595134347_rgbf000051-resize_1-target.png,125,2.057,6,1863,136,feet,jsons/VE125_randls_13.json,519479,676529,28,Man
145,541423,DepthScenes,duration_manipulation_targetAtFixation,jsons/VE125_randls_13.json,http://54.235.29.9/FacialAge/BNav_EC2/DepthDuration/v2_depth_duration_MTurk/v2_DepthDuration_HTML.html#175,175,1366,768,1366,768,8-29-2022,11-26-15,146,depth_duration_stimuli/001498_2014-06-19_17-45-14_260595134347_rgbf000129-resize_4/001498_2014-06-19_17-45-14_260595134347_rgbf000129-resize-original.jpg,125,1.4075,0,2286,116,feet,jsons/VE125_randls_13.json,519479,676529,28,Man
146,541423,DepthScenes,duration_manipulation_targetAtFixation,jsons/VE125_randls_13.json,http://54.235.29.9/FacialAge/BNav_EC2/DepthDuration/v2_depth_duration_MTurk/v2_DepthDuration_HTML.html#175,175,1366,768,1366,768,8-29-2022,11-26-15,147,depth_duration_stimuli/000009_2014-05-26_14-32-05_260595134347_rgbf000034-resize_3/000009_2014-05-26_14-32-05_260595134347_rgbf000034-resize_3-target.png,125,3.8715,14,2158,129,feet,jsons/VE125_randls_13.json,519479,676529,28,Man
147,541423,DepthScenes,duration_manipulation_targetAtFixation,jsons/VE125_randls_13.json,http://54.235.29.9/FacialAge/BNav_EC2/DepthDuration/v2_depth_duration_MTurk/v2_DepthDuration_HTML.html#175,175,1366,768,1366,768,8-29-2022,11-26-15,148,depth_duration_stimuli/001828_2014-06-26_21-40-03_260595134347_rgbf000024-resize_0/001828_2014-06-26_21-40-03_260595134347_rgbf000024-resize_0-target.png,125,4.8260000000000005,12,2037,131,feet,jsons/VE125_randls_13.json,519479,676529,28,Man
148,541423,DepthScenes,duration_manipulation_targetAtFixation,jsons/VE125_randls_13.json,http://54.235.29.9/FacialAge/BNav_EC2/DepthDuration/v2_depth_duration_MTurk/v2_DepthDuration_HTML.html#175,175,1366,768,1366,768,8-29-2022,11-26-15,149,depth_duration_stimuli/000906_2014-06-08_13-35-43_260595134347_rgbf000155-resize_1/000906_2014-06-08_13-35-43_260595134347_rgbf000155-resize_1-target.png,125,2.8489999999999998,12,2040,125,feet,jsons/VE125_randls_13.json,519479,676529,28,Man
149,541423,DepthScenes,duration_manipulation_targetAtFixation,jsons/VE125_randls_13.json,http://54.235.29.9/FacialAge/BNav_EC2/DepthDuration/v2_depth_duration_MTurk/v2_DepthDuration_HTML.html#175,175,1366,768,1366,768,8-29-2022,11-26-15,150,depth_duration_stimuli/002805_2014-06-22_19-54-03_094959634447_rgbf000079-resize_1/002805_2014-06-22_19-54-03_094959634447_rgbf000079-resize_1-target.png,125,3.1439999999999997,13,3826,125,feet,jsons/VE125_randls_13.json,519479,676529,28,Man
150,541423,DepthScenes,duration_manipulation_targetAtFixation,jsons/VE125_randls_13.json,http://54.235.29.9/FacialAge/BNav_EC2/DepthDuration/v2_depth_duration_MTurk/v2_DepthDuration_HTML.html#175,175,1366,768,1366,768,8-29-2022,11-26-15,151,depth_duration_stimuli/001110_2014-06-15_17-25-28_260595134347_rgbf000150-resize_1/001110_2014-06-15_17-25-28_260595134347_rgbf000150-resize_1-target.png,125,1.7115,8,2327,125,feet,jsons/VE125_randls_13.json,519479,676529,28,Man
151,541423,DepthScenes,duration_manipulation_targetAtFixation,jsons/VE125_randls_13.json,http://54.235.29.9/FacialAge/BNav_EC2/DepthDuration/v2_depth_duration_MTurk/v2_DepthDuration_HTML.html#175,175,1366,768,1366,768,8-29-2022,11-26-15,152,depth_duration_stimuli/000927_2014-06-09_16-32-30_260595134347_rgbf000123-resize_3/000927_2014-06-09_16-32-30_260595134347_rgbf000123-resize_3-target.png,125,2.6785,10,2674,126,feet,jsons/VE125_randls_13.json,519479,676529,28,Man
152,541423,DepthScenes,duration_manipulation_targetAtFixation,jsons/VE125_randls_13.json,http://54.235.29.9/FacialAge/BNav_EC2/DepthDuration/v2_depth_duration_MTurk/v2_DepthDuration_HTML.html#175,175,1366,768,1366,768,8-29-2022,11-26-15,153,depth_duration_stimuli/002570_2014-06-24_13-59-54_094959634447_rgbf000059-resize_0/002570_2014-06-24_13-59-54_094959634447_rgbf000059-resize_0-target.png,125,4.037,12,2219,128,feet,jsons/VE125_randls_13.json,519479,676529,28,Man
153,541423,DepthScenes,duration_manipulation_targetAtFixation,jsons/VE125_randls_13.json,http://54.235.29.9/FacialAge/BNav_EC2/DepthDuration/v2_depth_duration_MTurk/v2_DepthDuration_HTML.html#175,175,1366,768,1366,768,8-29-2022,11-26-15,154,depth_duration_stimuli/002467_2014-06-28_20-38-07_260595134347_rgbf000026-resize_2/002467_2014-06-28_20-38-07_260595134347_rgbf000026-resize_2-target.png,125,4.742,14,2190,114,feet,jsons/VE125_randls_13.json,519479,676529,28,Man
154,541423,DepthScenes,duration_manipulation_targetAtFixation,jsons/VE125_randls_13.json,http://54.235.29.9/FacialAge/BNav_EC2/DepthDuration/v2_depth_duration_MTurk/v2_DepthDuration_HTML.html#175,175,1366,768,1366,768,8-29-2022,11-26-15,155,depth_duration_stimuli/001810_2014-06-26_20-51-35_260595134347_rgbf000040-resize_3/001810_2014-06-26_20-51-35_260595134347_rgbf000040-resize_3-target.png,125,2.2525,8,2084,124,feet,jsons/VE125_randls_13.json,519479,676529,28,Man
155,541423,DepthScenes,duration_manipulation_targetAtFixation,jsons/VE125_randls_13.json,http://54.235.29.9/FacialAge/BNav_EC2/DepthDuration/v2_depth_duration_MTurk/v2_DepthDuration_HTML.html#175,175,1366,768,1366,768,8-29-2022,11-26-15,156,depth_duration_stimuli/003010_2014-06-15_12-54-35_094959634447_rgbf000112-resize_0/003010_2014-06-15_12-54-35_094959634447_rgbf000112-resize_0-target.png,125,3.1185,7,2634,131,feet,jsons/VE125_randls_13.json,519479,676529,28,Man
156,541423,DepthScenes,duration_manipulation_targetAtFixation,jsons/VE125_randls_13.json,http://54.235.29.9/FacialAge/BNav_EC2/DepthDuration/v2_depth_duration_MTurk/v2_DepthDuration_HTML.html#175,175,1366,768,1366,768,8-29-2022,11-26-15,157,depth_duration_stimuli/002663_2014-06-13_15-50-26_094959634447_rgbf000075-resize_1/002663_2014-06-13_15-50-26_094959634447_rgbf000075-resize_1-target.png,125,4.7495,15,2365,125,feet,jsons/VE125_randls_13.json,519479,676529,28,Man
157,541423,DepthScenes,duration_manipulation_targetAtFixation,jsons/VE125_randls_13.json,http://54.235.29.9/FacialAge/BNav_EC2/DepthDuration/v2_depth_duration_MTurk/v2_DepthDuration_HTML.html#175,175,1366,768,1366,768,8-29-2022,11-26-15,158,depth_duration_stimuli/000409_2014-06-04_19-23-33_260595134347_rgbf000067-resize_0/000409_2014-06-04_19-23-33_260595134347_rgbf000067-resize_0-target.png,125,3.7335,11,2373,110,feet,jsons/VE125_randls_13.json,519479,676529,28,Man
158,541423,DepthScenes,duration_manipulation_targetAtFixation,jsons/VE125_randls_13.json,http://54.235.29.9/FacialAge/BNav_EC2/DepthDuration/v2_depth_duration_MTurk/v2_DepthDuration_HTML.html#175,175,1366,768,1366,768,8-29-2022,11-26-15,159,depth_duration_stimuli/001011_2014-06-08_23-18-54_260595134347_rgbf000044-resize_4/001011_2014-06-08_23-18-54_260595134347_rgbf000044-resize_4-target.png,125,2.4730000000000003,8,2394,125,feet,jsons/VE125_randls_13.json,519479,676529,28,Man
159,541423,DepthScenes,duration_manipulation_targetAtFixation,jsons/VE125_randls_13.json,http://54.235.29.9/FacialAge/BNav_EC2/DepthDuration/v2_depth_duration_MTurk/v2_DepthDuration_HTML.html#175,175,1366,768,1366,768,8-29-2022,11-26-15,160,depth_duration_stimuli/002875_2014-06-01_15-19-00_094959634447_rgbf000151-resize_1/002875_2014-06-01_15-19-00_094959634447_rgbf000151-resize_1-target.png,125,1.9675,7,2181,127,feet,jsons/VE125_randls_13.json,519479,676529,28,Man
160,541423,DepthScenes,duration_manipulation_targetAtFixation,jsons/VE125_randls_13.json,http://54.235.29.9/FacialAge/BNav_EC2/DepthDuration/v2_depth_duration_MTurk/v2_DepthDuration_HTML.html#175,175,1366,768,1366,768,8-29-2022,11-26-15,161,depth_duration_stimuli/001092_2014-06-15_17-34-58_260595134347_rgbf000171-resize_3/001092_2014-06-15_17-34-58_260595134347_rgbf000171-resize_3-target.png,125,2.6935,7,2964,131,feet,jsons/VE125_randls_13.json,519479,676529,28,Man
161,541423,DepthScenes,duration_manipulation_targetAtFixation,jsons/VE125_randls_13.json,http://54.235.29.9/FacialAge/BNav_EC2/DepthDuration/v2_depth_duration_MTurk/v2_DepthDuration_HTML.html#175,175,1366,768,1366,768,8-29-2022,11-26-15,162,depth_duration_stimuli/002545_2014-06-24_13-38-53_094959634447_rgbf000080-resize_4/002545_2014-06-24_13-38-53_094959634447_rgbf000080-resize_4-target.png,125,1.9205,7,2254,124,feet,jsons/VE125_randls_13.json,519479,676529,28,Man
162,541423,DepthScenes,duration_manipulation_targetAtFixation,jsons/VE125_randls_13.json,http://54.235.29.9/FacialAge/BNav_EC2/DepthDuration/v2_depth_duration_MTurk/v2_DepthDuration_HTML.html#175,175,1366,768,1366,768,8-29-2022,11-26-15,163,depth_duration_stimuli/001167_2014-06-17_15-38-07_260595134347_rgbf000108-resize_0/001167_2014-06-17_15-38-07_260595134347_rgbf000108-resize_0-target.png,125,1.8505,3,2338,129,feet,jsons/VE125_randls_13.json,519479,676529,28,Man
163,541423,DepthScenes,duration_manipulation_targetAtFixation,jsons/VE125_randls_13.json,http://54.235.29.9/FacialAge/BNav_EC2/DepthDuration/v2_depth_duration_MTurk/v2_DepthDuration_HTML.html#175,175,1366,768,1366,768,8-29-2022,11-26-15,164,depth_duration_stimuli/003587_2014-05-23_16-48-02_094959634447_rgbf002384-resize_2/003587_2014-05-23_16-48-02_094959634447_rgbf002384-resize_2-target.png,125,1.357,2,1735,136,feet,jsons/VE125_randls_13.json,519479,676529,28,Man
