,subjID,experimentName,versionName,sequenceName,url,selected_row,windowWidth,windowHeight,screenWidth,screenHeight,startDate,startTime,trial,stimulus,duration,actual_depth,depth_estimate,trial_RT,log_sceneDuration,unitSelection,seq_filepath,experimentTime,totalTime,age,gender
0,541690,DepthScenes,duration_manipulation_targetAtFixation,jsons/v1_VE250_randls_6.json,http://54.235.29.9/FacialAge/BNav_EC2/DepthDuration/v2_depth_duration_MTurk/v2_DepthDuration_HTML.html#151,151,1707,916,1707,1067,8-20-2022,9-56-50,1,depth_duration_stimuli/002663_2014-06-13_15-50-26_094959634447_rgbf000075-resize_1/002663_2014-06-13_15-50-26_094959634447_rgbf000075-resize_1-target.png,250,4.7495,10,4823,248,feet,jsons/v1_VE250_randls_6.json,845065,1460702,52,Woman
1,541690,DepthScenes,duration_manipulation_targetAtFixation,jsons/v1_VE250_randls_6.json,http://54.235.29.9/FacialAge/BNav_EC2/DepthDuration/v2_depth_duration_MTurk/v2_DepthDuration_HTML.html#151,151,1707,916,1707,1067,8-20-2022,9-56-50,2,depth_duration_stimuli/000409_2014-06-04_19-23-33_260595134347_rgbf000067-resize_0/000409_2014-06-04_19-23-33_260595134347_rgbf000067-resize_0-target.png,250,3.7335,8,4784,248,feet,jsons/v1_VE250_randls_6.json,845065,1460702,52,Woman
2,541690,DepthScenes,duration_manipulation_targetAtFixation,jsons/v1_VE250_randls_6.json,http://54.235.29.9/FacialAge/BNav_EC2/DepthDuration/v2_depth_duration_MTurk/v2_DepthDuration_HTML.html#151,151,1707,916,1707,1067,8-20-2022,9-56-50,3,depth_duration_stimuli/002905_2014-06-03_18-04-43_094959634447_rgbf000151-resize_2/002905_2014-06-03_18-04-43_094959634447_rgbf000151-resize_2-target.png,250,2.0295,3,3924,249,feet,jsons/v1_VE250_randls_6.json,845065,1460702,52,Woman
3,541690,DepthScenes,duration_manipulation_targetAtFixation,jsons/v1_VE250_randls_6.json,http://54.235.29.9/FacialAge/BNav_EC2/DepthDuration/v2_depth_duration_MTurk/v2_DepthDuration_HTML.html#151,151,1707,916,1707,1067,8-20-2022,9-56-50,4,depth_duration_stimuli/003423_2014-05-21_10-23-26_094959634447_rgbf002665-resize_2/003423_2014-05-21_10-23-26_094959634447_rgbf002665-resize_2-target.png,250,3.2575,12,10251,264,feet,jsons/v1_VE250_randls_6.json,845065,1460702,52,Woman
4,541690,DepthScenes,duration_manipulation_targetAtFixation,jsons/v1_VE250_randls_6.json,http://54.235.29.9/FacialAge/BNav_EC2/DepthDuration/v2_depth_duration_MTurk/v2_DepthDuration_HTML.html#151,151,1707,916,1707,1067,8-20-2022,9-56-50,5,depth_duration_stimuli/000642_2014-06-08_16-59-25_260595134347_rgbf000098-resize_2/000642_2014-06-08_16-59-25_260595134347_rgbf000098-resize_2-target.png,250,2.8815,10,4168,254,feet,jsons/v1_VE250_randls_6.json,845065,1460702,52,Woman
5,541690,DepthScenes,duration_manipulation_targetAtFixation,jsons/v1_VE250_randls_6.json,http://54.235.29.9/FacialAge/BNav_EC2/DepthDuration/v2_depth_duration_MTurk/v2_DepthDuration_HTML.html#151,151,1707,916,1707,1067,8-20-2022,9-56-50,6,depth_duration_stimuli/002425_2014-06-28_20-27-29_260595134347_rgbf000031-resize_8/002425_2014-06-28_20-27-29_260595134347_rgbf000031-resize_8-target.png,250,3.8960000000000004,14,5332,259,feet,jsons/v1_VE250_randls_6.json,845065,1460702,52,Woman
6,541690,DepthScenes,duration_manipulation_targetAtFixation,jsons/v1_VE250_randls_6.json,http://54.235.29.9/FacialAge/BNav_EC2/DepthDuration/v2_depth_duration_MTurk/v2_DepthDuration_HTML.html#151,151,1707,916,1707,1067,8-20-2022,9-56-50,7,depth_duration_stimuli/001449_2014-06-19_17-01-27_260595134347_rgbf000116-resize_2/001449_2014-06-19_17-01-27_260595134347_rgbf000116-resize_2-target.png,250,3.452,11,5804,247,feet,jsons/v1_VE250_randls_6.json,845065,1460702,52,Woman
7,541690,DepthScenes,duration_manipulation_targetAtFixation,jsons/v1_VE250_randls_6.json,http://54.235.29.9/FacialAge/BNav_EC2/DepthDuration/v2_depth_duration_MTurk/v2_DepthDuration_HTML.html#151,151,1707,916,1707,1067,8-20-2022,9-56-50,8,depth_duration_stimuli/001450_2014-06-19_17-02-03_260595134347_rgbf000203-resize_4/001450_2014-06-19_17-02-03_260595134347_rgbf000203-resize_4-target.png,250,4.0106666666667,13,7106,248,feet,jsons/v1_VE250_randls_6.json,845065,1460702,52,Woman
8,541690,DepthScenes,duration_manipulation_targetAtFixation,jsons/v1_VE250_randls_6.json,http://54.235.29.9/FacialAge/BNav_EC2/DepthDuration/v2_depth_duration_MTurk/v2_DepthDuration_HTML.html#151,151,1707,916,1707,1067,8-20-2022,9-56-50,9,depth_duration_stimuli/002272_2014-06-28_18-53-56_260595134347_rgbf000067-resize_2/002272_2014-06-28_18-53-56_260595134347_rgbf000067-resize_2-target.png,250,1.138,2,7486,250,feet,jsons/v1_VE250_randls_6.json,845065,1460702,52,Woman
9,541690,DepthScenes,duration_manipulation_targetAtFixation,jsons/v1_VE250_randls_6.json,http://54.235.29.9/FacialAge/BNav_EC2/DepthDuration/v2_depth_duration_MTurk/v2_DepthDuration_HTML.html#151,151,1707,916,1707,1067,8-20-2022,9-56-50,10,depth_duration_stimuli/001571_2014-06-20_17-21-32_260595134347_rgbf000089-resize_1/001571_2014-06-20_17-21-32_260595134347_rgbf000089-resize_1-target.png,250,1.86,2,4697,247,feet,jsons/v1_VE250_randls_6.json,845065,1460702,52,Woman
10,541690,DepthScenes,duration_manipulation_targetAtFixation,jsons/v1_VE250_randls_6.json,http://54.235.29.9/FacialAge/BNav_EC2/DepthDuration/v2_depth_duration_MTurk/v2_DepthDuration_HTML.html#151,151,1707,916,1707,1067,8-20-2022,9-56-50,11,depth_duration_stimuli/002630_2014-06-24_14-47-50_094959634447_rgbf000055-resize_1/002630_2014-06-24_14-47-50_094959634447_rgbf000055-resize_1-target.png,250,3.0095,9,3703,248,feet,jsons/v1_VE250_randls_6.json,845065,1460702,52,Woman
11,541690,DepthScenes,duration_manipulation_targetAtFixation,jsons/v1_VE250_randls_6.json,http://54.235.29.9/FacialAge/BNav_EC2/DepthDuration/v2_depth_duration_MTurk/v2_DepthDuration_HTML.html#151,151,1707,916,1707,1067,8-20-2022,9-56-50,12,depth_duration_stimuli/002758_2014-06-22_19-11-20_094959634447_rgbf000128-resize_1/002758_2014-06-22_19-11-20_094959634447_rgbf000128-resize_1-target.png,250,2.555,12,4612,249,feet,jsons/v1_VE250_randls_6.json,845065,1460702,52,Woman
12,541690,DepthScenes,duration_manipulation_targetAtFixation,jsons/v1_VE250_randls_6.json,http://54.235.29.9/FacialAge/BNav_EC2/DepthDuration/v2_depth_duration_MTurk/v2_DepthDuration_HTML.html#151,151,1707,916,1707,1067,8-20-2022,9-56-50,13,depth_duration_stimuli/000569_2014-06-09_22-51-47_260595134347_rgbf000141-resize_3/000569_2014-06-09_22-51-47_260595134347_rgbf000141-resize-original.jpg,250,4.512,0,3186,251,feet,jsons/v1_VE250_randls_6.json,845065,1460702,52,Woman
13,541690,DepthScenes,duration_manipulation_targetAtFixation,jsons/v1_VE250_randls_6.json,http://54.235.29.9/FacialAge/BNav_EC2/DepthDuration/v2_depth_duration_MTurk/v2_DepthDuration_HTML.html#151,151,1707,916,1707,1067,8-20-2022,9-56-50,14,depth_duration_stimuli/002784_2014-06-22_19-26-30_094959634447_rgbf000083-resize_3/002784_2014-06-22_19-26-30_094959634447_rgbf000083-resize_3-target.png,250,1.8046666666667,6,4281,245,feet,jsons/v1_VE250_randls_6.json,845065,1460702,52,Woman
14,541690,DepthScenes,duration_manipulation_targetAtFixation,jsons/v1_VE250_randls_6.json,http://54.235.29.9/FacialAge/BNav_EC2/DepthDuration/v2_depth_duration_MTurk/v2_DepthDuration_HTML.html#151,151,1707,916,1707,1067,8-20-2022,9-56-50,15,depth_duration_stimuli/001100_2014-06-15_17-46-26_260595134347_rgbf000225-resize_2/001100_2014-06-15_17-46-26_260595134347_rgbf000225-resize_2-target.png,250,2.24,2,3648,248,feet,jsons/v1_VE250_randls_6.json,845065,1460702,52,Woman
15,541690,DepthScenes,duration_manipulation_targetAtFixation,jsons/v1_VE250_randls_6.json,http://54.235.29.9/FacialAge/BNav_EC2/DepthDuration/v2_depth_duration_MTurk/v2_DepthDuration_HTML.html#151,151,1707,916,1707,1067,8-20-2022,9-56-50,16,depth_duration_stimuli/002988_2014-06-15_12-24-20_094959634447_rgbf000150-resize_1/002988_2014-06-15_12-24-20_094959634447_rgbf000150-resize_1-target.png,250,4.7669999999999995,6,17410,247,feet,jsons/v1_VE250_randls_6.json,845065,1460702,52,Woman
16,541690,DepthScenes,duration_manipulation_targetAtFixation,jsons/v1_VE250_randls_6.json,http://54.235.29.9/FacialAge/BNav_EC2/DepthDuration/v2_depth_duration_MTurk/v2_DepthDuration_HTML.html#151,151,1707,916,1707,1067,8-20-2022,9-56-50,17,depth_duration_stimuli/001052_2014-06-08_18-24-54_260595134347_rgbf000130-resize_1/001052_2014-06-08_18-24-54_260595134347_rgbf000130-resize_1-target.png,250,4.1045,8,4327,241,feet,jsons/v1_VE250_randls_6.json,845065,1460702,52,Woman
17,541690,DepthScenes,duration_manipulation_targetAtFixation,jsons/v1_VE250_randls_6.json,http://54.235.29.9/FacialAge/BNav_EC2/DepthDuration/v2_depth_duration_MTurk/v2_DepthDuration_HTML.html#151,151,1707,916,1707,1067,8-20-2022,9-56-50,18,depth_duration_stimuli/002748_2014-06-22_19-07-22_094959634447_rgbf000078-resize_1/002748_2014-06-22_19-07-22_094959634447_rgbf000078-resize_1-target.png,250,4.6705,16,6780,240,feet,jsons/v1_VE250_randls_6.json,845065,1460702,52,Woman
18,541690,DepthScenes,duration_manipulation_targetAtFixation,jsons/v1_VE250_randls_6.json,http://54.235.29.9/FacialAge/BNav_EC2/DepthDuration/v2_depth_duration_MTurk/v2_DepthDuration_HTML.html#151,151,1707,916,1707,1067,8-20-2022,9-56-50,19,depth_duration_stimuli/002995_2014-06-15_12-31-26_094959634447_rgbf000150-resize_1/002995_2014-06-15_12-31-26_094959634447_rgbf000150-resize_1-target.png,250,3.8360000000000003,8,3739,234,feet,jsons/v1_VE250_randls_6.json,845065,1460702,52,Woman
19,541690,DepthScenes,duration_manipulation_targetAtFixation,jsons/v1_VE250_randls_6.json,http://54.235.29.9/FacialAge/BNav_EC2/DepthDuration/v2_depth_duration_MTurk/v2_DepthDuration_HTML.html#151,151,1707,916,1707,1067,8-20-2022,9-56-50,20,depth_duration_stimuli/002213_2014-06-28_18-37-58_260595134347_rgbf000055-resize_1/002213_2014-06-28_18-37-58_260595134347_rgbf000055-resize_1-target.png,250,3.62,0,3218,263,feet,jsons/v1_VE250_randls_6.json,845065,1460702,52,Woman
20,541690,DepthScenes,duration_manipulation_targetAtFixation,jsons/v1_VE250_randls_6.json,http://54.235.29.9/FacialAge/BNav_EC2/DepthDuration/v2_depth_duration_MTurk/v2_DepthDuration_HTML.html#151,151,1707,916,1707,1067,8-20-2022,9-56-50,21,depth_duration_stimuli/000691_2014-06-08_13-08-50_260595134347_rgbf000132-resize_3/000691_2014-06-08_13-08-50_260595134347_rgbf000132-resize_3-target.png,250,4.1530000000000005,12,3760,267,feet,jsons/v1_VE250_randls_6.json,845065,1460702,52,Woman
21,541690,DepthScenes,duration_manipulation_targetAtFixation,jsons/v1_VE250_randls_6.json,http://54.235.29.9/FacialAge/BNav_EC2/DepthDuration/v2_depth_duration_MTurk/v2_DepthDuration_HTML.html#151,151,1707,916,1707,1067,8-20-2022,9-56-50,22,depth_duration_stimuli/003492_2014-05-21_15-50-55_094959634447_rgbf000828-resize_1/003492_2014-05-21_15-50-55_094959634447_rgbf000828-resize_1-target.png,250,4.06875,24,3890,250,feet,jsons/v1_VE250_randls_6.json,845065,1460702,52,Woman
22,541690,DepthScenes,duration_manipulation_targetAtFixation,jsons/v1_VE250_randls_6.json,http://54.235.29.9/FacialAge/BNav_EC2/DepthDuration/v2_depth_duration_MTurk/v2_DepthDuration_HTML.html#151,151,1707,916,1707,1067,8-20-2022,9-56-50,23,depth_duration_stimuli/002568_2014-06-24_13-59-21_094959634447_rgbf000062-resize_4/002568_2014-06-24_13-59-21_094959634447_rgbf000062-resize_4-target.png,250,3.015,9,4942,249,feet,jsons/v1_VE250_randls_6.json,845065,1460702,52,Woman
23,541690,DepthScenes,duration_manipulation_targetAtFixation,jsons/v1_VE250_randls_6.json,http://54.235.29.9/FacialAge/BNav_EC2/DepthDuration/v2_depth_duration_MTurk/v2_DepthDuration_HTML.html#151,151,1707,916,1707,1067,8-20-2022,9-56-50,24,depth_duration_stimuli/001011_2014-06-08_23-18-54_260595134347_rgbf000044-resize_4/001011_2014-06-08_23-18-54_260595134347_rgbf000044-resize_4-target.png,250,2.4730000000000003,10,4354,263,feet,jsons/v1_VE250_randls_6.json,845065,1460702,52,Woman
24,541690,DepthScenes,duration_manipulation_targetAtFixation,jsons/v1_VE250_randls_6.json,http://54.235.29.9/FacialAge/BNav_EC2/DepthDuration/v2_depth_duration_MTurk/v2_DepthDuration_HTML.html#151,151,1707,916,1707,1067,8-20-2022,9-56-50,25,depth_duration_stimuli/002875_2014-06-01_15-19-00_094959634447_rgbf000151-resize_1/002875_2014-06-01_15-19-00_094959634447_rgbf000151-resize_1-target.png,250,1.9675,6,5097,247,feet,jsons/v1_VE250_randls_6.json,845065,1460702,52,Woman
25,541690,DepthScenes,duration_manipulation_targetAtFixation,jsons/v1_VE250_randls_6.json,http://54.235.29.9/FacialAge/BNav_EC2/DepthDuration/v2_depth_duration_MTurk/v2_DepthDuration_HTML.html#151,151,1707,916,1707,1067,8-20-2022,9-56-50,26,depth_duration_stimuli/002964_2014-06-08_17-46-11_094959634447_rgbf000091-resize_4/002964_2014-06-08_17-46-11_094959634447_rgbf000091-resize_4-target.png,250,1.6909999999999998,4,5870,248,feet,jsons/v1_VE250_randls_6.json,845065,1460702,52,Woman
26,541690,DepthScenes,duration_manipulation_targetAtFixation,jsons/v1_VE250_randls_6.json,http://54.235.29.9/FacialAge/BNav_EC2/DepthDuration/v2_depth_duration_MTurk/v2_DepthDuration_HTML.html#151,151,1707,916,1707,1067,8-20-2022,9-56-50,27,depth_duration_stimuli/002136_2014-06-25_21-18-03_260595134347_rgbf000109-resize_3/002136_2014-06-25_21-18-03_260595134347_rgbf000109-resize_3-target.png,250,1.9569999999999999,4,3328,247,feet,jsons/v1_VE250_randls_6.json,845065,1460702,52,Woman
27,541690,DepthScenes,duration_manipulation_targetAtFixation,jsons/v1_VE250_randls_6.json,http://54.235.29.9/FacialAge/BNav_EC2/DepthDuration/v2_depth_duration_MTurk/v2_DepthDuration_HTML.html#151,151,1707,916,1707,1067,8-20-2022,9-56-50,28,depth_duration_stimuli/001555_2014-06-20_17-12-10_260595134347_rgbf000065-resize_4/001555_2014-06-20_17-12-10_260595134347_rgbf000065-resize_4-target.png,250,1.633,3,3377,250,feet,jsons/v1_VE250_randls_6.json,845065,1460702,52,Woman
28,541690,DepthScenes,duration_manipulation_targetAtFixation,jsons/v1_VE250_randls_6.json,http://54.235.29.9/FacialAge/BNav_EC2/DepthDuration/v2_depth_duration_MTurk/v2_DepthDuration_HTML.html#151,151,1707,916,1707,1067,8-20-2022,9-56-50,29,depth_duration_stimuli/000103_2014-05-14_22-01-17_260595134347_rgbf000152-resize_5/000103_2014-05-14_22-01-17_260595134347_rgbf000152-resize_5-target.png,250,1.993,8,5324,255,feet,jsons/v1_VE250_randls_6.json,845065,1460702,52,Woman
29,541690,DepthScenes,duration_manipulation_targetAtFixation,jsons/v1_VE250_randls_6.json,http://54.235.29.9/FacialAge/BNav_EC2/DepthDuration/v2_depth_duration_MTurk/v2_DepthDuration_HTML.html#151,151,1707,916,1707,1067,8-20-2022,9-56-50,30,depth_duration_stimuli/000375_2014-06-08_11-17-29_260595134347_rgbf000133-resize_2/000375_2014-06-08_11-17-29_260595134347_rgbf000133-resize-original.jpg,250,4.718,0,3149,248,feet,jsons/v1_VE250_randls_6.json,845065,1460702,52,Woman
30,541690,DepthScenes,duration_manipulation_targetAtFixation,jsons/v1_VE250_randls_6.json,http://54.235.29.9/FacialAge/BNav_EC2/DepthDuration/v2_depth_duration_MTurk/v2_DepthDuration_HTML.html#151,151,1707,916,1707,1067,8-20-2022,9-56-50,31,depth_duration_stimuli/001175_2014-06-17_15-45-55_260595134347_rgbf000129-resize_4/001175_2014-06-17_15-45-55_260595134347_rgbf000129-resize_4-target.png,250,4.255,12,4332,253,feet,jsons/v1_VE250_randls_6.json,845065,1460702,52,Woman
31,541690,DepthScenes,duration_manipulation_targetAtFixation,jsons/v1_VE250_randls_6.json,http://54.235.29.9/FacialAge/BNav_EC2/DepthDuration/v2_depth_duration_MTurk/v2_DepthDuration_HTML.html#151,151,1707,916,1707,1067,8-20-2022,9-56-50,32,depth_duration_stimuli/003490_2014-05-21_15-50-11_094959634447_rgbf000101-resize_3/003490_2014-05-21_15-50-11_094959634447_rgbf000101-resize_3-target.png,250,3.6445,14,3456,253,feet,jsons/v1_VE250_randls_6.json,845065,1460702,52,Woman
32,541690,DepthScenes,duration_manipulation_targetAtFixation,jsons/v1_VE250_randls_6.json,http://54.235.29.9/FacialAge/BNav_EC2/DepthDuration/v2_depth_duration_MTurk/v2_DepthDuration_HTML.html#151,151,1707,916,1707,1067,8-20-2022,9-56-50,33,depth_duration_stimuli/003534_2014-05-22_15-06-10_094959634447_rgbf000102-resize_4/003534_2014-05-22_15-06-10_094959634447_rgbf000102-resize_4-target.png,250,1.426,2,3432,249,feet,jsons/v1_VE250_randls_6.json,845065,1460702,52,Woman
33,541690,DepthScenes,duration_manipulation_targetAtFixation,jsons/v1_VE250_randls_6.json,http://54.235.29.9/FacialAge/BNav_EC2/DepthDuration/v2_depth_duration_MTurk/v2_DepthDuration_HTML.html#151,151,1707,916,1707,1067,8-20-2022,9-56-50,34,depth_duration_stimuli/002637_2014-06-24_14-51-13_094959634447_rgbf000066-resize_4/002637_2014-06-24_14-51-13_094959634447_rgbf000066-resize_4-target.png,250,1.9955,5,3436,265,feet,jsons/v1_VE250_randls_6.json,845065,1460702,52,Woman
34,541690,DepthScenes,duration_manipulation_targetAtFixation,jsons/v1_VE250_randls_6.json,http://54.235.29.9/FacialAge/BNav_EC2/DepthDuration/v2_depth_duration_MTurk/v2_DepthDuration_HTML.html#151,151,1707,916,1707,1067,8-20-2022,9-56-50,35,depth_duration_stimuli/001110_2014-06-15_17-25-28_260595134347_rgbf000150-resize_1/001110_2014-06-15_17-25-28_260595134347_rgbf000150-resize_1-target.png,250,1.7115,4,3371,250,feet,jsons/v1_VE250_randls_6.json,845065,1460702,52,Woman
35,541690,DepthScenes,duration_manipulation_targetAtFixation,jsons/v1_VE250_randls_6.json,http://54.235.29.9/FacialAge/BNav_EC2/DepthDuration/v2_depth_duration_MTurk/v2_DepthDuration_HTML.html#151,151,1707,916,1707,1067,8-20-2022,9-56-50,36,depth_duration_stimuli/000927_2014-06-09_16-32-30_260595134347_rgbf000123-resize_3/000927_2014-06-09_16-32-30_260595134347_rgbf000123-resize_3-target.png,250,2.6785,8,3963,247,feet,jsons/v1_VE250_randls_6.json,845065,1460702,52,Woman
36,541690,DepthScenes,duration_manipulation_targetAtFixation,jsons/v1_VE250_randls_6.json,http://54.235.29.9/FacialAge/BNav_EC2/DepthDuration/v2_depth_duration_MTurk/v2_DepthDuration_HTML.html#151,151,1707,916,1707,1067,8-20-2022,9-56-50,37,depth_duration_stimuli/001810_2014-06-26_20-51-35_260595134347_rgbf000040-resize_3/001810_2014-06-26_20-51-35_260595134347_rgbf000040-resize_3-target.png,250,2.2525,4,3790,247,feet,jsons/v1_VE250_randls_6.json,845065,1460702,52,Woman
37,541690,DepthScenes,duration_manipulation_targetAtFixation,jsons/v1_VE250_randls_6.json,http://54.235.29.9/FacialAge/BNav_EC2/DepthDuration/v2_depth_duration_MTurk/v2_DepthDuration_HTML.html#151,151,1707,916,1707,1067,8-20-2022,9-56-50,38,depth_duration_stimuli/003010_2014-06-15_12-54-35_094959634447_rgbf000112-resize_0/003010_2014-06-15_12-54-35_094959634447_rgbf000112-resize_0-target.png,250,3.1185,14,4240,248,feet,jsons/v1_VE250_randls_6.json,845065,1460702,52,Woman
38,541690,DepthScenes,duration_manipulation_targetAtFixation,jsons/v1_VE250_randls_6.json,http://54.235.29.9/FacialAge/BNav_EC2/DepthDuration/v2_depth_duration_MTurk/v2_DepthDuration_HTML.html#151,151,1707,916,1707,1067,8-20-2022,9-56-50,39,depth_duration_stimuli/002445_2014-06-28_20-32-16_260595134347_rgbf000029-resize_4/002445_2014-06-28_20-32-16_260595134347_rgbf000029-resize_4-target.png,250,2.5315,4,3509,253,feet,jsons/v1_VE250_randls_6.json,845065,1460702,52,Woman
39,541690,DepthScenes,duration_manipulation_targetAtFixation,jsons/v1_VE250_randls_6.json,http://54.235.29.9/FacialAge/BNav_EC2/DepthDuration/v2_depth_duration_MTurk/v2_DepthDuration_HTML.html#151,151,1707,916,1707,1067,8-20-2022,9-56-50,40,depth_duration_stimuli/000780_2014-06-08_22-28-29_260595134347_rgbf000126-resize_1/000780_2014-06-08_22-28-29_260595134347_rgbf000126-resize_1-target.png,250,3.3825,12,3740,250,feet,jsons/v1_VE250_randls_6.json,845065,1460702,52,Woman
40,541690,DepthScenes,duration_manipulation_targetAtFixation,jsons/v1_VE250_randls_6.json,http://54.235.29.9/FacialAge/BNav_EC2/DepthDuration/v2_depth_duration_MTurk/v2_DepthDuration_HTML.html#151,151,1707,916,1707,1067,8-20-2022,9-56-50,41,depth_duration_stimuli/002763_2014-06-22_19-13-10_094959634447_rgbf000075-resize_4/002763_2014-06-22_19-13-10_094959634447_rgbf000075-resize_4-target.png,250,1.68375,6,4420,249,feet,jsons/v1_VE250_randls_6.json,845065,1460702,52,Woman
41,541690,DepthScenes,duration_manipulation_targetAtFixation,jsons/v1_VE250_randls_6.json,http://54.235.29.9/FacialAge/BNav_EC2/DepthDuration/v2_depth_duration_MTurk/v2_DepthDuration_HTML.html#151,151,1707,916,1707,1067,8-20-2022,9-56-50,42,depth_duration_stimuli/002209_2014-06-28_18-36-10_260595134347_rgbf000051-resize_1/002209_2014-06-28_18-36-10_260595134347_rgbf000051-resize_1-target.png,250,2.057,4,3363,264,feet,jsons/v1_VE250_randls_6.json,845065,1460702,52,Woman
42,541690,DepthScenes,duration_manipulation_targetAtFixation,jsons/v1_VE250_randls_6.json,http://54.235.29.9/FacialAge/BNav_EC2/DepthDuration/v2_depth_duration_MTurk/v2_DepthDuration_HTML.html#151,151,1707,916,1707,1067,8-20-2022,9-56-50,43,depth_duration_stimuli/000009_2014-05-26_14-32-05_260595134347_rgbf000034-resize_3/000009_2014-05-26_14-32-05_260595134347_rgbf000034-resize_3-target.png,250,3.8715,12,4996,248,feet,jsons/v1_VE250_randls_6.json,845065,1460702,52,Woman
43,541690,DepthScenes,duration_manipulation_targetAtFixation,jsons/v1_VE250_randls_6.json,http://54.235.29.9/FacialAge/BNav_EC2/DepthDuration/v2_depth_duration_MTurk/v2_DepthDuration_HTML.html#151,151,1707,916,1707,1067,8-20-2022,9-56-50,44,depth_duration_stimuli/001828_2014-06-26_21-40-03_260595134347_rgbf000024-resize_0/001828_2014-06-26_21-40-03_260595134347_rgbf000024-resize_0-target.png,250,4.8260000000000005,10,3674,242,feet,jsons/v1_VE250_randls_6.json,845065,1460702,52,Woman
44,541690,DepthScenes,duration_manipulation_targetAtFixation,jsons/v1_VE250_randls_6.json,http://54.235.29.9/FacialAge/BNav_EC2/DepthDuration/v2_depth_duration_MTurk/v2_DepthDuration_HTML.html#151,151,1707,916,1707,1067,8-20-2022,9-56-50,45,depth_duration_stimuli/000787_2014-06-08_22-33-53_260595134347_rgbf000175-resize_1/000787_2014-06-08_22-33-53_260595134347_rgbf000175-resize-original.jpg,250,4.784,0,3881,248,feet,jsons/v1_VE250_randls_6.json,845065,1460702,52,Woman
45,541690,DepthScenes,duration_manipulation_targetAtFixation,jsons/v1_VE250_randls_6.json,http://54.235.29.9/FacialAge/BNav_EC2/DepthDuration/v2_depth_duration_MTurk/v2_DepthDuration_HTML.html#151,151,1707,916,1707,1067,8-20-2022,9-56-50,46,depth_duration_stimuli/000917_2014-06-09_22-45-29_260595134347_rgbf000149-resize_3/000917_2014-06-09_22-45-29_260595134347_rgbf000149-resize_3-target.png,250,4.1865,12,3516,248,feet,jsons/v1_VE250_randls_6.json,845065,1460702,52,Woman
46,541690,DepthScenes,duration_manipulation_targetAtFixation,jsons/v1_VE250_randls_6.json,http://54.235.29.9/FacialAge/BNav_EC2/DepthDuration/v2_depth_duration_MTurk/v2_DepthDuration_HTML.html#151,151,1707,916,1707,1067,8-20-2022,9-56-50,47,depth_duration_stimuli/002323_2014-06-28_20-01-54_260595134347_rgbf000051-resize_4/002323_2014-06-28_20-01-54_260595134347_rgbf000051-resize_4-target.png,250,3.7310000000000003,7,3687,248,feet,jsons/v1_VE250_randls_6.json,845065,1460702,52,Woman
47,541690,DepthScenes,duration_manipulation_targetAtFixation,jsons/v1_VE250_randls_6.json,http://54.235.29.9/FacialAge/BNav_EC2/DepthDuration/v2_depth_duration_MTurk/v2_DepthDuration_HTML.html#151,151,1707,916,1707,1067,8-20-2022,9-56-50,48,depth_duration_stimuli/001570_2014-06-20_17-21-09_260595134347_rgbf000135-resize_4/001570_2014-06-20_17-21-09_260595134347_rgbf000135-resize_4-target.png,250,4.467,12,4575,251,feet,jsons/v1_VE250_randls_6.json,845065,1460702,52,Woman
48,541690,DepthScenes,duration_manipulation_targetAtFixation,jsons/v1_VE250_randls_6.json,http://54.235.29.9/FacialAge/BNav_EC2/DepthDuration/v2_depth_duration_MTurk/v2_DepthDuration_HTML.html#151,151,1707,916,1707,1067,8-20-2022,9-56-50,49,depth_duration_stimuli/001392_2014-06-19_16-07-59_260595134347_rgbf000046-resize_1/001392_2014-06-19_16-07-59_260595134347_rgbf000046-resize_1-target.png,250,4.135,10,3919,248,feet,jsons/v1_VE250_randls_6.json,845065,1460702,52,Woman
49,541690,DepthScenes,duration_manipulation_targetAtFixation,jsons/v1_VE250_randls_6.json,http://54.235.29.9/FacialAge/BNav_EC2/DepthDuration/v2_depth_duration_MTurk/v2_DepthDuration_HTML.html#151,151,1707,916,1707,1067,8-20-2022,9-56-50,50,depth_duration_stimuli/000788_2014-06-08_22-34-36_260595134347_rgbf000131-resize_1/000788_2014-06-08_22-34-36_260595134347_rgbf000131-resize_1-target.png,250,3.359,8,4015,265,feet,jsons/v1_VE250_randls_6.json,845065,1460702,52,Woman
50,541690,DepthScenes,duration_manipulation_targetAtFixation,jsons/v1_VE250_randls_6.json,http://54.235.29.9/FacialAge/BNav_EC2/DepthDuration/v2_depth_duration_MTurk/v2_DepthDuration_HTML.html#151,151,1707,916,1707,1067,8-20-2022,9-56-50,51,depth_duration_stimuli/001235_2014-06-17_16-37-36_260595134347_rgbf000084-resize_4/001235_2014-06-17_16-37-36_260595134347_rgbf000084-resize_4-target.png,250,3.6605,8,3587,250,feet,jsons/v1_VE250_randls_6.json,845065,1460702,52,Woman
51,541690,DepthScenes,duration_manipulation_targetAtFixation,jsons/v1_VE250_randls_6.json,http://54.235.29.9/FacialAge/BNav_EC2/DepthDuration/v2_depth_duration_MTurk/v2_DepthDuration_HTML.html#151,151,1707,916,1707,1067,8-20-2022,9-56-50,52,depth_duration_stimuli/000739_2014-06-08_18-45-58_260595134347_rgbf000068-resize_1/000739_2014-06-08_18-45-58_260595134347_rgbf000068-resize_1-target.png,250,3.534,16,4391,250,feet,jsons/v1_VE250_randls_6.json,845065,1460702,52,Woman
52,541690,DepthScenes,duration_manipulation_targetAtFixation,jsons/v1_VE250_randls_6.json,http://54.235.29.9/FacialAge/BNav_EC2/DepthDuration/v2_depth_duration_MTurk/v2_DepthDuration_HTML.html#151,151,1707,916,1707,1067,8-20-2022,9-56-50,53,depth_duration_stimuli/000734_2014-06-08_17-39-11_260595134347_rgbf000128-resize_2/000734_2014-06-08_17-39-11_260595134347_rgbf000128-resize_2-target.png,250,4.098,10,3490,258,feet,jsons/v1_VE250_randls_6.json,845065,1460702,52,Woman
53,541690,DepthScenes,duration_manipulation_targetAtFixation,jsons/v1_VE250_randls_6.json,http://54.235.29.9/FacialAge/BNav_EC2/DepthDuration/v2_depth_duration_MTurk/v2_DepthDuration_HTML.html#151,151,1707,916,1707,1067,8-20-2022,9-56-50,54,depth_duration_stimuli/000736_2014-06-08_18-24-15_260595134347_rgbf000206-resize_3/000736_2014-06-08_18-24-15_260595134347_rgbf000206-resize_3-target.png,250,3.515,5,3633,251,feet,jsons/v1_VE250_randls_6.json,845065,1460702,52,Woman
54,541690,DepthScenes,duration_manipulation_targetAtFixation,jsons/v1_VE250_randls_6.json,http://54.235.29.9/FacialAge/BNav_EC2/DepthDuration/v2_depth_duration_MTurk/v2_DepthDuration_HTML.html#151,151,1707,916,1707,1067,8-20-2022,9-56-50,55,depth_duration_stimuli/000137_2014-05-20_17-04-49_260595134347_rgbf000120-resize_1/000137_2014-05-20_17-04-49_260595134347_rgbf000120-resize_1-target.png,250,3.786,9,4052,257,feet,jsons/v1_VE250_randls_6.json,845065,1460702,52,Woman
55,541690,DepthScenes,duration_manipulation_targetAtFixation,jsons/v1_VE250_randls_6.json,http://54.235.29.9/FacialAge/BNav_EC2/DepthDuration/v2_depth_duration_MTurk/v2_DepthDuration_HTML.html#151,151,1707,916,1707,1067,8-20-2022,9-56-50,56,depth_duration_stimuli/001244_2014-06-17_16-47-45_260595134347_rgbf000030-resize_4/001244_2014-06-17_16-47-45_260595134347_rgbf000030-resize_4-target.png,250,2.0425,6,3416,237,feet,jsons/v1_VE250_randls_6.json,845065,1460702,52,Woman
56,541690,DepthScenes,duration_manipulation_targetAtFixation,jsons/v1_VE250_randls_6.json,http://54.235.29.9/FacialAge/BNav_EC2/DepthDuration/v2_depth_duration_MTurk/v2_DepthDuration_HTML.html#151,151,1707,916,1707,1067,8-20-2022,9-56-50,57,depth_duration_stimuli/003495_2014-05-21_16-01-51_094959634447_rgbf000100-resize_3/003495_2014-05-21_16-01-51_094959634447_rgbf000100-resize_3-target.png,250,1.6255,5,7877,253,feet,jsons/v1_VE250_randls_6.json,845065,1460702,52,Woman
57,541690,DepthScenes,duration_manipulation_targetAtFixation,jsons/v1_VE250_randls_6.json,http://54.235.29.9/FacialAge/BNav_EC2/DepthDuration/v2_depth_duration_MTurk/v2_DepthDuration_HTML.html#151,151,1707,916,1707,1067,8-20-2022,9-56-50,58,depth_duration_stimuli/002039_2014-06-24_20-22-38_260595134347_rgbf000084-resize_1/002039_2014-06-24_20-22-38_260595134347_rgbf000084-resize_1-target.png,250,4.408,10,3565,248,feet,jsons/v1_VE250_randls_6.json,845065,1460702,52,Woman
58,541690,DepthScenes,duration_manipulation_targetAtFixation,jsons/v1_VE250_randls_6.json,http://54.235.29.9/FacialAge/BNav_EC2/DepthDuration/v2_depth_duration_MTurk/v2_DepthDuration_HTML.html#151,151,1707,916,1707,1067,8-20-2022,9-56-50,59,depth_duration_stimuli/002103_2014-06-25_20-00-40_260595134347_rgbf000049-resize_0/002103_2014-06-25_20-00-40_260595134347_rgbf000049-resize_0-target.png,250,4.105,8,19518,248,feet,jsons/v1_VE250_randls_6.json,845065,1460702,52,Woman
59,541690,DepthScenes,duration_manipulation_targetAtFixation,jsons/v1_VE250_randls_6.json,http://54.235.29.9/FacialAge/BNav_EC2/DepthDuration/v2_depth_duration_MTurk/v2_DepthDuration_HTML.html#151,151,1707,916,1707,1067,8-20-2022,9-56-50,60,depth_duration_stimuli/003070_2014-06-15_14-58-27_094959634447_rgbf000150-resize_3/003070_2014-06-15_14-58-27_094959634447_rgbf000150-resize_3-target.png,250,2.9415,7,4141,247,feet,jsons/v1_VE250_randls_6.json,845065,1460702,52,Woman
60,541690,DepthScenes,duration_manipulation_targetAtFixation,jsons/v1_VE250_randls_6.json,http://54.235.29.9/FacialAge/BNav_EC2/DepthDuration/v2_depth_duration_MTurk/v2_DepthDuration_HTML.html#151,151,1707,916,1707,1067,8-20-2022,9-56-50,61,depth_duration_stimuli/000943_2014-06-09_19-31-07_260595134347_rgbf000128-resize_1/000943_2014-06-09_19-31-07_260595134347_rgbf000128-resize_1-target.png,250,1.9765,5,3664,251,feet,jsons/v1_VE250_randls_6.json,845065,1460702,52,Woman
61,541690,DepthScenes,duration_manipulation_targetAtFixation,jsons/v1_VE250_randls_6.json,http://54.235.29.9/FacialAge/BNav_EC2/DepthDuration/v2_depth_duration_MTurk/v2_DepthDuration_HTML.html#151,151,1707,916,1707,1067,8-20-2022,9-56-50,62,depth_duration_stimuli/001150_2014-06-17_15-27-34_260595134347_rgbf000108-resize_2/001150_2014-06-17_15-27-34_260595134347_rgbf000108-resize_2-target.png,250,4.0325,10,5644,254,feet,jsons/v1_VE250_randls_6.json,845065,1460702,52,Woman
62,541690,DepthScenes,duration_manipulation_targetAtFixation,jsons/v1_VE250_randls_6.json,http://54.235.29.9/FacialAge/BNav_EC2/DepthDuration/v2_depth_duration_MTurk/v2_DepthDuration_HTML.html#151,151,1707,916,1707,1067,8-20-2022,9-56-50,63,depth_duration_stimuli/000665_2014-06-09_20-42-35_260595134347_rgbf000110-resize_1/000665_2014-06-09_20-42-35_260595134347_rgbf000110-resize_1-target.png,250,3.057,7,5796,251,feet,jsons/v1_VE250_randls_6.json,845065,1460702,52,Woman
63,541690,DepthScenes,duration_manipulation_targetAtFixation,jsons/v1_VE250_randls_6.json,http://54.235.29.9/FacialAge/BNav_EC2/DepthDuration/v2_depth_duration_MTurk/v2_DepthDuration_HTML.html#151,151,1707,916,1707,1067,8-20-2022,9-56-50,64,depth_duration_stimuli/000414_2014-06-04_19-49-13_260595134347_rgbf000044-resize_0/000414_2014-06-04_19-49-13_260595134347_rgbf000044-resize_0-target.png,250,4.329,11,8812,246,feet,jsons/v1_VE250_randls_6.json,845065,1460702,52,Woman
64,541690,DepthScenes,duration_manipulation_targetAtFixation,jsons/v1_VE250_randls_6.json,http://54.235.29.9/FacialAge/BNav_EC2/DepthDuration/v2_depth_duration_MTurk/v2_DepthDuration_HTML.html#151,151,1707,916,1707,1067,8-20-2022,9-56-50,65,depth_duration_stimuli/003129_2014-05-12_10-48-10_094959634447_rgbf000100-resize_0/003129_2014-05-12_10-48-10_094959634447_rgbf000100-resize_0-target.png,250,4.9305,12,3994,249,feet,jsons/v1_VE250_randls_6.json,845065,1460702,52,Woman
65,541690,DepthScenes,duration_manipulation_targetAtFixation,jsons/v1_VE250_randls_6.json,http://54.235.29.9/FacialAge/BNav_EC2/DepthDuration/v2_depth_duration_MTurk/v2_DepthDuration_HTML.html#151,151,1707,916,1707,1067,8-20-2022,9-56-50,66,depth_duration_stimuli/001222_2014-06-17_16-24-06_260595134347_rgbf000073-resize_0/001222_2014-06-17_16-24-06_260595134347_rgbf000073-resize-original.jpg,250,1.4385,0,3440,248,feet,jsons/v1_VE250_randls_6.json,845065,1460702,52,Woman
66,541690,DepthScenes,duration_manipulation_targetAtFixation,jsons/v1_VE250_randls_6.json,http://54.235.29.9/FacialAge/BNav_EC2/DepthDuration/v2_depth_duration_MTurk/v2_DepthDuration_HTML.html#151,151,1707,916,1707,1067,8-20-2022,9-56-50,67,depth_duration_stimuli/000368_2014-06-09_15-53-01_260595134347_rgbf000155-resize_2/000368_2014-06-09_15-53-01_260595134347_rgbf000155-resize_2-target.png,250,2.4859999999999998,6,4876,248,feet,jsons/v1_VE250_randls_6.json,845065,1460702,52,Woman
67,541690,DepthScenes,duration_manipulation_targetAtFixation,jsons/v1_VE250_randls_6.json,http://54.235.29.9/FacialAge/BNav_EC2/DepthDuration/v2_depth_duration_MTurk/v2_DepthDuration_HTML.html#151,151,1707,916,1707,1067,8-20-2022,9-56-50,68,depth_duration_stimuli/002678_2014-06-13_16-15-32_094959634447_rgbf000151-resize_6/002678_2014-06-13_16-15-32_094959634447_rgbf000151-resize_6-target.png,250,2.1830000000000003,10,4049,248,feet,jsons/v1_VE250_randls_6.json,845065,1460702,52,Woman
68,541690,DepthScenes,duration_manipulation_targetAtFixation,jsons/v1_VE250_randls_6.json,http://54.235.29.9/FacialAge/BNav_EC2/DepthDuration/v2_depth_duration_MTurk/v2_DepthDuration_HTML.html#151,151,1707,916,1707,1067,8-20-2022,9-56-50,69,depth_duration_stimuli/002043_2014-06-24_20-29-38_260595134347_rgbf000039-resize_4/002043_2014-06-24_20-29-38_260595134347_rgbf000039-resize_4-target.png,250,2.8435,10,4014,264,feet,jsons/v1_VE250_randls_6.json,845065,1460702,52,Woman
69,541690,DepthScenes,duration_manipulation_targetAtFixation,jsons/v1_VE250_randls_6.json,http://54.235.29.9/FacialAge/BNav_EC2/DepthDuration/v2_depth_duration_MTurk/v2_DepthDuration_HTML.html#151,151,1707,916,1707,1067,8-20-2022,9-56-50,70,depth_duration_stimuli/003048_2014-06-15_13-49-43_094959634447_rgbf000150-resize_1/003048_2014-06-15_13-49-43_094959634447_rgbf000150-resize_1-target.png,250,4.0035,14,3860,247,feet,jsons/v1_VE250_randls_6.json,845065,1460702,52,Woman
70,541690,DepthScenes,duration_manipulation_targetAtFixation,jsons/v1_VE250_randls_6.json,http://54.235.29.9/FacialAge/BNav_EC2/DepthDuration/v2_depth_duration_MTurk/v2_DepthDuration_HTML.html#151,151,1707,916,1707,1067,8-20-2022,9-56-50,71,depth_duration_stimuli/000810_2014-06-08_17-20-01_260595134347_rgbf000105-resize_0/000810_2014-06-08_17-20-01_260595134347_rgbf000105-resize_0-target.png,250,1.4865,6,3643,248,feet,jsons/v1_VE250_randls_6.json,845065,1460702,52,Woman
71,541690,DepthScenes,duration_manipulation_targetAtFixation,jsons/v1_VE250_randls_6.json,http://54.235.29.9/FacialAge/BNav_EC2/DepthDuration/v2_depth_duration_MTurk/v2_DepthDuration_HTML.html#151,151,1707,916,1707,1067,8-20-2022,9-56-50,72,depth_duration_stimuli/001214_2014-06-17_16-13-55_260595134347_rgbf000111-resize_0/001214_2014-06-17_16-13-55_260595134347_rgbf000111-resize_0-target.png,250,2.6505,5,3948,250,feet,jsons/v1_VE250_randls_6.json,845065,1460702,52,Woman
72,541690,DepthScenes,duration_manipulation_targetAtFixation,jsons/v1_VE250_randls_6.json,http://54.235.29.9/FacialAge/BNav_EC2/DepthDuration/v2_depth_duration_MTurk/v2_DepthDuration_HTML.html#151,151,1707,916,1707,1067,8-20-2022,9-56-50,73,depth_duration_stimuli/001029_2014-06-08_13-17-57_260595134347_rgbf000065-resize_1/001029_2014-06-08_13-17-57_260595134347_rgbf000065-resize_1-target.png,250,3.0835,10,4564,249,feet,jsons/v1_VE250_randls_6.json,845065,1460702,52,Woman
73,541690,DepthScenes,duration_manipulation_targetAtFixation,jsons/v1_VE250_randls_6.json,http://54.235.29.9/FacialAge/BNav_EC2/DepthDuration/v2_depth_duration_MTurk/v2_DepthDuration_HTML.html#151,151,1707,916,1707,1067,8-20-2022,9-56-50,74,depth_duration_stimuli/000677_2014-06-08_23-10-32_260595134347_rgbf000158-resize_6/000677_2014-06-08_23-10-32_260595134347_rgbf000158-resize_6-target.png,250,3.556,10,3637,240,feet,jsons/v1_VE250_randls_6.json,845065,1460702,52,Woman
74,541690,DepthScenes,duration_manipulation_targetAtFixation,jsons/v1_VE250_randls_6.json,http://54.235.29.9/FacialAge/BNav_EC2/DepthDuration/v2_depth_duration_MTurk/v2_DepthDuration_HTML.html#151,151,1707,916,1707,1067,8-20-2022,9-56-50,75,depth_duration_stimuli/000506_2014-06-08_23-21-00_260595134347_rgbf000070-resize_7/000506_2014-06-08_23-21-00_260595134347_rgbf000070-resize_7-target.png,250,4.0585,12,3361,247,feet,jsons/v1_VE250_randls_6.json,845065,1460702,52,Woman
75,541690,DepthScenes,duration_manipulation_targetAtFixation,jsons/v1_VE250_randls_6.json,http://54.235.29.9/FacialAge/BNav_EC2/DepthDuration/v2_depth_duration_MTurk/v2_DepthDuration_HTML.html#151,151,1707,916,1707,1067,8-20-2022,9-56-50,76,depth_duration_stimuli/003079_2014-06-15_15-18-20_094959634447_rgbf000152-resize_8/003079_2014-06-15_15-18-20_094959634447_rgbf000152-resize_8-target.png,250,2.8775,10,5373,252,feet,jsons/v1_VE250_randls_6.json,845065,1460702,52,Woman
76,541690,DepthScenes,duration_manipulation_targetAtFixation,jsons/v1_VE250_randls_6.json,http://54.235.29.9/FacialAge/BNav_EC2/DepthDuration/v2_depth_duration_MTurk/v2_DepthDuration_HTML.html#151,151,1707,916,1707,1067,8-20-2022,9-56-50,77,depth_duration_stimuli/001417_2014-06-19_16-25-36_260595134347_rgbf000115-resize_5/001417_2014-06-19_16-25-36_260595134347_rgbf000115-resize_5-target.png,250,4.6255,12,4646,248,feet,jsons/v1_VE250_randls_6.json,845065,1460702,52,Woman
77,541690,DepthScenes,duration_manipulation_targetAtFixation,jsons/v1_VE250_randls_6.json,http://54.235.29.9/FacialAge/BNav_EC2/DepthDuration/v2_depth_duration_MTurk/v2_DepthDuration_HTML.html#151,151,1707,916,1707,1067,8-20-2022,9-56-50,78,depth_duration_stimuli/003081_2014-06-15_15-19-16_094959634447_rgbf000150-resize_1/003081_2014-06-15_15-19-16_094959634447_rgbf000150-resize_1-target.png,250,3.9125,10,3654,250,feet,jsons/v1_VE250_randls_6.json,845065,1460702,52,Woman
78,541690,DepthScenes,duration_manipulation_targetAtFixation,jsons/v1_VE250_randls_6.json,http://54.235.29.9/FacialAge/BNav_EC2/DepthDuration/v2_depth_duration_MTurk/v2_DepthDuration_HTML.html#151,151,1707,916,1707,1067,8-20-2022,9-56-50,79,depth_duration_stimuli/003621_2014-05-23_18-06-08_094959634447_rgbf000101-resize_1/003621_2014-05-23_18-06-08_094959634447_rgbf000101-resize_1-target.png,250,3.9835,14,3851,250,feet,jsons/v1_VE250_randls_6.json,845065,1460702,52,Woman
79,541690,DepthScenes,duration_manipulation_targetAtFixation,jsons/v1_VE250_randls_6.json,http://54.235.29.9/FacialAge/BNav_EC2/DepthDuration/v2_depth_duration_MTurk/v2_DepthDuration_HTML.html#151,151,1707,916,1707,1067,8-20-2022,9-56-50,80,depth_duration_stimuli/001584_2014-06-20_11-07-43_260595134347_rgbf000002-resize_1/001584_2014-06-20_11-07-43_260595134347_rgbf000002-resize_1-target.png,250,3.53,8,3527,249,feet,jsons/v1_VE250_randls_6.json,845065,1460702,52,Woman
80,541690,DepthScenes,duration_manipulation_targetAtFixation,jsons/v1_VE250_randls_6.json,http://54.235.29.9/FacialAge/BNav_EC2/DepthDuration/v2_depth_duration_MTurk/v2_DepthDuration_HTML.html#151,151,1707,916,1707,1067,8-20-2022,9-56-50,81,depth_duration_stimuli/002375_2014-06-28_20-13-44_260595134347_rgbf000032-resize_1/002375_2014-06-28_20-13-44_260595134347_rgbf000032-resize_1-target.png,250,4.0175,8,4296,253,feet,jsons/v1_VE250_randls_6.json,845065,1460702,52,Woman
81,541690,DepthScenes,duration_manipulation_targetAtFixation,jsons/v1_VE250_randls_6.json,http://54.235.29.9/FacialAge/BNav_EC2/DepthDuration/v2_depth_duration_MTurk/v2_DepthDuration_HTML.html#151,151,1707,916,1707,1067,8-20-2022,9-56-50,82,depth_duration_stimuli/002657_2014-06-13_15-29-54_094959634447_rgbf000150-resize_1/002657_2014-06-13_15-29-54_094959634447_rgbf000150-resize_1-target.png,250,4.919,10,4204,247,feet,jsons/v1_VE250_randls_6.json,845065,1460702,52,Woman
82,541690,DepthScenes,duration_manipulation_targetAtFixation,jsons/v1_VE250_randls_6.json,http://54.235.29.9/FacialAge/BNav_EC2/DepthDuration/v2_depth_duration_MTurk/v2_DepthDuration_HTML.html#151,151,1707,916,1707,1067,8-20-2022,9-56-50,83,depth_duration_stimuli/002509_2014-06-24_13-19-22_094959634447_rgbf000077-resize_0/002509_2014-06-24_13-19-22_094959634447_rgbf000077-resize_0-target.png,250,1.3065,2,3327,249,feet,jsons/v1_VE250_randls_6.json,845065,1460702,52,Woman
83,541690,DepthScenes,duration_manipulation_targetAtFixation,jsons/v1_VE250_randls_6.json,http://54.235.29.9/FacialAge/BNav_EC2/DepthDuration/v2_depth_duration_MTurk/v2_DepthDuration_HTML.html#151,151,1707,916,1707,1067,8-20-2022,9-56-50,84,depth_duration_stimuli/003338_2014-05-20_11-01-23_094959634447_rgbf000051-resize_6/003338_2014-05-20_11-01-23_094959634447_rgbf000051-resize_6-target.png,250,1.693,4,3307,242,feet,jsons/v1_VE250_randls_6.json,845065,1460702,52,Woman
84,541690,DepthScenes,duration_manipulation_targetAtFixation,jsons/v1_VE250_randls_6.json,http://54.235.29.9/FacialAge/BNav_EC2/DepthDuration/v2_depth_duration_MTurk/v2_DepthDuration_HTML.html#151,151,1707,916,1707,1067,8-20-2022,9-56-50,85,depth_duration_stimuli/002549_2014-06-24_13-41-39_094959634447_rgbf000022-resize_3/002549_2014-06-24_13-41-39_094959634447_rgbf000022-resize_3-target.png,250,1.476,2,3059,251,feet,jsons/v1_VE250_randls_6.json,845065,1460702,52,Woman
85,541690,DepthScenes,duration_manipulation_targetAtFixation,jsons/v1_VE250_randls_6.json,http://54.235.29.9/FacialAge/BNav_EC2/DepthDuration/v2_depth_duration_MTurk/v2_DepthDuration_HTML.html#151,151,1707,916,1707,1067,8-20-2022,9-56-50,86,depth_duration_stimuli/002750_2014-06-22_19-08-03_094959634447_rgbf000094-resize_4/002750_2014-06-22_19-08-03_094959634447_rgbf000094-resize_4-target.png,250,2.354,6,3411,247,feet,jsons/v1_VE250_randls_6.json,845065,1460702,52,Woman
86,541690,DepthScenes,duration_manipulation_targetAtFixation,jsons/v1_VE250_randls_6.json,http://54.235.29.9/FacialAge/BNav_EC2/DepthDuration/v2_depth_duration_MTurk/v2_DepthDuration_HTML.html#151,151,1707,916,1707,1067,8-20-2022,9-56-50,87,depth_duration_stimuli/002057_2014-06-24_21-00-13_260595134347_rgbf000120-resize_1/002057_2014-06-24_21-00-13_260595134347_rgbf000120-resize_1-target.png,250,2.967,8,4639,247,feet,jsons/v1_VE250_randls_6.json,845065,1460702,52,Woman
87,541690,DepthScenes,duration_manipulation_targetAtFixation,jsons/v1_VE250_randls_6.json,http://54.235.29.9/FacialAge/BNav_EC2/DepthDuration/v2_depth_duration_MTurk/v2_DepthDuration_HTML.html#151,151,1707,916,1707,1067,8-20-2022,9-56-50,88,depth_duration_stimuli/000709_2014-06-08_13-51-55_260595134347_rgbf000068-resize_3/000709_2014-06-08_13-51-55_260595134347_rgbf000068-resize_3-target.png,250,1.8030000000000002,4,3915,248,feet,jsons/v1_VE250_randls_6.json,845065,1460702,52,Woman
88,541690,DepthScenes,duration_manipulation_targetAtFixation,jsons/v1_VE250_randls_6.json,http://54.235.29.9/FacialAge/BNav_EC2/DepthDuration/v2_depth_duration_MTurk/v2_DepthDuration_HTML.html#151,151,1707,916,1707,1067,8-20-2022,9-56-50,89,depth_duration_stimuli/000773_2014-06-08_22-24-54_260595134347_rgbf000093-resize_1/000773_2014-06-08_22-24-54_260595134347_rgbf000093-resize_1-target.png,250,4.973,10,3512,262,feet,jsons/v1_VE250_randls_6.json,845065,1460702,52,Woman
89,541690,DepthScenes,duration_manipulation_targetAtFixation,jsons/v1_VE250_randls_6.json,http://54.235.29.9/FacialAge/BNav_EC2/DepthDuration/v2_depth_duration_MTurk/v2_DepthDuration_HTML.html#151,151,1707,916,1707,1067,8-20-2022,9-56-50,90,depth_duration_stimuli/002414_2014-06-28_20-24-58_260595134347_rgbf000067-resize_4/002414_2014-06-28_20-24-58_260595134347_rgbf000067-resize_4-target.png,250,4.363,10,3611,248,feet,jsons/v1_VE250_randls_6.json,845065,1460702,52,Woman
90,541690,DepthScenes,duration_manipulation_targetAtFixation,jsons/v1_VE250_randls_6.json,http://54.235.29.9/FacialAge/BNav_EC2/DepthDuration/v2_depth_duration_MTurk/v2_DepthDuration_HTML.html#151,151,1707,916,1707,1067,8-20-2022,9-56-50,91,depth_duration_stimuli/000906_2014-06-08_13-35-43_260595134347_rgbf000155-resize_1/000906_2014-06-08_13-35-43_260595134347_rgbf000155-resize_1-target.png,250,2.8489999999999998,12,3358,248,feet,jsons/v1_VE250_randls_6.json,845065,1460702,52,Woman
91,541690,DepthScenes,duration_manipulation_targetAtFixation,jsons/v1_VE250_randls_6.json,http://54.235.29.9/FacialAge/BNav_EC2/DepthDuration/v2_depth_duration_MTurk/v2_DepthDuration_HTML.html#151,151,1707,916,1707,1067,8-20-2022,9-56-50,92,depth_duration_stimuli/002805_2014-06-22_19-54-03_094959634447_rgbf000079-resize_1/002805_2014-06-22_19-54-03_094959634447_rgbf000079-resize_1-target.png,250,3.1439999999999997,12,3298,255,feet,jsons/v1_VE250_randls_6.json,845065,1460702,52,Woman
92,541690,DepthScenes,duration_manipulation_targetAtFixation,jsons/v1_VE250_randls_6.json,http://54.235.29.9/FacialAge/BNav_EC2/DepthDuration/v2_depth_duration_MTurk/v2_DepthDuration_HTML.html#151,151,1707,916,1707,1067,8-20-2022,9-56-50,93,depth_duration_stimuli/002570_2014-06-24_13-59-54_094959634447_rgbf000059-resize_0/002570_2014-06-24_13-59-54_094959634447_rgbf000059-resize_0-target.png,250,4.037,8,3915,249,feet,jsons/v1_VE250_randls_6.json,845065,1460702,52,Woman
93,541690,DepthScenes,duration_manipulation_targetAtFixation,jsons/v1_VE250_randls_6.json,http://54.235.29.9/FacialAge/BNav_EC2/DepthDuration/v2_depth_duration_MTurk/v2_DepthDuration_HTML.html#151,151,1707,916,1707,1067,8-20-2022,9-56-50,94,depth_duration_stimuli/002467_2014-06-28_20-38-07_260595134347_rgbf000026-resize_2/002467_2014-06-28_20-38-07_260595134347_rgbf000026-resize_2-target.png,250,4.742,12,3512,243,feet,jsons/v1_VE250_randls_6.json,845065,1460702,52,Woman
94,541690,DepthScenes,duration_manipulation_targetAtFixation,jsons/v1_VE250_randls_6.json,http://54.235.29.9/FacialAge/BNav_EC2/DepthDuration/v2_depth_duration_MTurk/v2_DepthDuration_HTML.html#151,151,1707,916,1707,1067,8-20-2022,9-56-50,95,depth_duration_stimuli/001806_2014-06-26_20-50-20_260595134347_rgbf000091-resize_1/001806_2014-06-26_20-50-20_260595134347_rgbf000091-resize_1-target.png,250,2.7305,5,3933,247,feet,jsons/v1_VE250_randls_6.json,845065,1460702,52,Woman
95,541690,DepthScenes,duration_manipulation_targetAtFixation,jsons/v1_VE250_randls_6.json,http://54.235.29.9/FacialAge/BNav_EC2/DepthDuration/v2_depth_duration_MTurk/v2_DepthDuration_HTML.html#151,151,1707,916,1707,1067,8-20-2022,9-56-50,96,depth_duration_stimuli/001617_2014-06-20_11-35-32_260595134347_rgbf000066-resize_1/001617_2014-06-20_11-35-32_260595134347_rgbf000066-resize_1-target.png,250,3.7910000000000004,10,7405,248,feet,jsons/v1_VE250_randls_6.json,845065,1460702,52,Woman
96,541690,DepthScenes,duration_manipulation_targetAtFixation,jsons/v1_VE250_randls_6.json,http://54.235.29.9/FacialAge/BNav_EC2/DepthDuration/v2_depth_duration_MTurk/v2_DepthDuration_HTML.html#151,151,1707,916,1707,1067,8-20-2022,9-56-50,97,depth_duration_stimuli/002153_2014-06-25_21-27-18_260595134347_rgbf000038-resize_5/002153_2014-06-25_21-27-18_260595134347_rgbf000038-resize_5-target.png,250,2.505,7,8799,248,feet,jsons/v1_VE250_randls_6.json,845065,1460702,52,Woman
97,541690,DepthScenes,duration_manipulation_targetAtFixation,jsons/v1_VE250_randls_6.json,http://54.235.29.9/FacialAge/BNav_EC2/DepthDuration/v2_depth_duration_MTurk/v2_DepthDuration_HTML.html#151,151,1707,916,1707,1067,8-20-2022,9-56-50,98,depth_duration_stimuli/002660_2014-06-13_15-44-18_094959634447_rgbf001878-resize_2/002660_2014-06-13_15-44-18_094959634447_rgbf001878-resize_2-target.png,250,3.576,8,13998,250,feet,jsons/v1_VE250_randls_6.json,845065,1460702,52,Woman
98,541690,DepthScenes,duration_manipulation_targetAtFixation,jsons/v1_VE250_randls_6.json,http://54.235.29.9/FacialAge/BNav_EC2/DepthDuration/v2_depth_duration_MTurk/v2_DepthDuration_HTML.html#151,151,1707,916,1707,1067,8-20-2022,9-56-50,99,depth_duration_stimuli/001540_2014-06-20_17-01-05_260595134347_rgbf000086-resize_2/001540_2014-06-20_17-01-05_260595134347_rgbf000086-resize-original.jpg,250,1.459,0,3997,250,feet,jsons/v1_VE250_randls_6.json,845065,1460702,52,Woman
99,541690,DepthScenes,duration_manipulation_targetAtFixation,jsons/v1_VE250_randls_6.json,http://54.235.29.9/FacialAge/BNav_EC2/DepthDuration/v2_depth_duration_MTurk/v2_DepthDuration_HTML.html#151,151,1707,916,1707,1067,8-20-2022,9-56-50,100,depth_duration_stimuli/001055_2014-06-08_18-45-35_260595134347_rgbf000111-resize_4/001055_2014-06-08_18-45-35_260595134347_rgbf000111-resize_4-target.png,250,2.4290000000000003,6,3894,251,feet,jsons/v1_VE250_randls_6.json,845065,1460702,52,Woman
100,541690,DepthScenes,duration_manipulation_targetAtFixation,jsons/v1_VE250_randls_6.json,http://54.235.29.9/FacialAge/BNav_EC2/DepthDuration/v2_depth_duration_MTurk/v2_DepthDuration_HTML.html#151,151,1707,916,1707,1067,8-20-2022,9-56-50,101,depth_duration_stimuli/000549_2014-06-08_22-10-24_260595134347_rgbf000247-resize_3/000549_2014-06-08_22-10-24_260595134347_rgbf000247-resize_3-target.png,250,1.841,2,12299,254,feet,jsons/v1_VE250_randls_6.json,845065,1460702,52,Woman
101,541690,DepthScenes,duration_manipulation_targetAtFixation,jsons/v1_VE250_randls_6.json,http://54.235.29.9/FacialAge/BNav_EC2/DepthDuration/v2_depth_duration_MTurk/v2_DepthDuration_HTML.html#151,151,1707,916,1707,1067,8-20-2022,9-56-50,102,depth_duration_stimuli/000470_2014-06-09_19-42-40_260595134347_rgbf000094-resize_1/000470_2014-06-09_19-42-40_260595134347_rgbf000094-resize_1-target.png,250,1.831,2,7822,268,feet,jsons/v1_VE250_randls_6.json,845065,1460702,52,Woman
102,541690,DepthScenes,duration_manipulation_targetAtFixation,jsons/v1_VE250_randls_6.json,http://54.235.29.9/FacialAge/BNav_EC2/DepthDuration/v2_depth_duration_MTurk/v2_DepthDuration_HTML.html#151,151,1707,916,1707,1067,8-20-2022,9-56-50,103,depth_duration_stimuli/000109_2014-05-14_23-41-52_260595134347_rgbf000035-resize_9/000109_2014-05-14_23-41-52_260595134347_rgbf000035-resize_9-target.png,250,1.3545,1,3367,262,feet,jsons/v1_VE250_randls_6.json,845065,1460702,52,Woman
103,541690,DepthScenes,duration_manipulation_targetAtFixation,jsons/v1_VE250_randls_6.json,http://54.235.29.9/FacialAge/BNav_EC2/DepthDuration/v2_depth_duration_MTurk/v2_DepthDuration_HTML.html#151,151,1707,916,1707,1067,8-20-2022,9-56-50,104,depth_duration_stimuli/000469_2014-06-09_19-42-10_260595134347_rgbf000081-resize_1/000469_2014-06-09_19-42-10_260595134347_rgbf000081-resize_1-target.png,250,1.652,1,3580,249,feet,jsons/v1_VE250_randls_6.json,845065,1460702,52,Woman
104,541690,DepthScenes,duration_manipulation_targetAtFixation,jsons/v1_VE250_randls_6.json,http://54.235.29.9/FacialAge/BNav_EC2/DepthDuration/v2_depth_duration_MTurk/v2_DepthDuration_HTML.html#151,151,1707,916,1707,1067,8-20-2022,9-56-50,105,depth_duration_stimuli/000483_2014-06-09_20-41-45_260595134347_rgbf000116-resize_4/000483_2014-06-09_20-41-45_260595134347_rgbf000116-resize_4-target.png,250,1.337,1,3323,249,feet,jsons/v1_VE250_randls_6.json,845065,1460702,52,Woman
105,541690,DepthScenes,duration_manipulation_targetAtFixation,jsons/v1_VE250_randls_6.json,http://54.235.29.9/FacialAge/BNav_EC2/DepthDuration/v2_depth_duration_MTurk/v2_DepthDuration_HTML.html#151,151,1707,916,1707,1067,8-20-2022,9-56-50,106,depth_duration_stimuli/001164_2014-06-17_15-35-46_260595134347_rgbf000085-resize_3/001164_2014-06-17_15-35-46_260595134347_rgbf000085-resize_3-target.png,250,2.354,3,3471,256,feet,jsons/v1_VE250_randls_6.json,845065,1460702,52,Woman
106,541690,DepthScenes,duration_manipulation_targetAtFixation,jsons/v1_VE250_randls_6.json,http://54.235.29.9/FacialAge/BNav_EC2/DepthDuration/v2_depth_duration_MTurk/v2_DepthDuration_HTML.html#151,151,1707,916,1707,1067,8-20-2022,9-56-50,107,depth_duration_stimuli/001136_2014-06-17_15-19-41_260595134347_rgbf000076-resize_3/001136_2014-06-17_15-19-41_260595134347_rgbf000076-resize_3-target.png,250,1.8655,4,3183,249,feet,jsons/v1_VE250_randls_6.json,845065,1460702,52,Woman
107,541690,DepthScenes,duration_manipulation_targetAtFixation,jsons/v1_VE250_randls_6.json,http://54.235.29.9/FacialAge/BNav_EC2/DepthDuration/v2_depth_duration_MTurk/v2_DepthDuration_HTML.html#151,151,1707,916,1707,1067,8-20-2022,9-56-50,108,depth_duration_stimuli/003292_2014-05-14_21-53-49_094959634447_rgbf000100-resize_2/003292_2014-05-14_21-53-49_094959634447_rgbf000100-resize_2-target.png,250,3.4815,6,3250,249,feet,jsons/v1_VE250_randls_6.json,845065,1460702,52,Woman
108,541690,DepthScenes,duration_manipulation_targetAtFixation,jsons/v1_VE250_randls_6.json,http://54.235.29.9/FacialAge/BNav_EC2/DepthDuration/v2_depth_duration_MTurk/v2_DepthDuration_HTML.html#151,151,1707,916,1707,1067,8-20-2022,9-56-50,109,depth_duration_stimuli/002639_2014-06-24_14-51-37_094959634447_rgbf000074-resize_4/002639_2014-06-24_14-51-37_094959634447_rgbf000074-resize_4-target.png,250,4.0375,10,3596,255,feet,jsons/v1_VE250_randls_6.json,845065,1460702,52,Woman
109,541690,DepthScenes,duration_manipulation_targetAtFixation,jsons/v1_VE250_randls_6.json,http://54.235.29.9/FacialAge/BNav_EC2/DepthDuration/v2_depth_duration_MTurk/v2_DepthDuration_HTML.html#151,151,1707,916,1707,1067,8-20-2022,9-56-50,110,depth_duration_stimuli/002725_2014-06-22_11-47-51_094959634447_rgbf000070-resize_1/002725_2014-06-22_11-47-51_094959634447_rgbf000070-resize_1-target.png,250,2.195,7,5453,248,feet,jsons/v1_VE250_randls_6.json,845065,1460702,52,Woman
110,541690,DepthScenes,duration_manipulation_targetAtFixation,jsons/v1_VE250_randls_6.json,http://54.235.29.9/FacialAge/BNav_EC2/DepthDuration/v2_depth_duration_MTurk/v2_DepthDuration_HTML.html#151,151,1707,916,1707,1067,8-20-2022,9-56-50,111,depth_duration_stimuli/002344_2014-06-28_20-06-29_260595134347_rgbf000030-resize_1/002344_2014-06-28_20-06-29_260595134347_rgbf000030-resize_1-target.png,250,1.5795,2,3484,248,feet,jsons/v1_VE250_randls_6.json,845065,1460702,52,Woman
111,541690,DepthScenes,duration_manipulation_targetAtFixation,jsons/v1_VE250_randls_6.json,http://54.235.29.9/FacialAge/BNav_EC2/DepthDuration/v2_depth_duration_MTurk/v2_DepthDuration_HTML.html#151,151,1707,916,1707,1067,8-20-2022,9-56-50,112,depth_duration_stimuli/000929_2014-06-09_16-33-19_260595134347_rgbf000139-resize_0/000929_2014-06-09_16-33-19_260595134347_rgbf000139-resize_0-target.png,250,2.8680000000000003,4,3160,249,feet,jsons/v1_VE250_randls_6.json,845065,1460702,52,Woman
112,541690,DepthScenes,duration_manipulation_targetAtFixation,jsons/v1_VE250_randls_6.json,http://54.235.29.9/FacialAge/BNav_EC2/DepthDuration/v2_depth_duration_MTurk/v2_DepthDuration_HTML.html#151,151,1707,916,1707,1067,8-20-2022,9-56-50,113,depth_duration_stimuli/000457_2014-06-08_16-52-43_260595134347_rgbf000199-resize_1/000457_2014-06-08_16-52-43_260595134347_rgbf000199-resize_1-target.png,250,3.6489999999999996,8,3549,247,feet,jsons/v1_VE250_randls_6.json,845065,1460702,52,Woman
113,541690,DepthScenes,duration_manipulation_targetAtFixation,jsons/v1_VE250_randls_6.json,http://54.235.29.9/FacialAge/BNav_EC2/DepthDuration/v2_depth_duration_MTurk/v2_DepthDuration_HTML.html#151,151,1707,916,1707,1067,8-20-2022,9-56-50,114,depth_duration_stimuli/002279_2014-06-28_18-55-32_260595134347_rgbf000040-resize_5/002279_2014-06-28_18-55-32_260595134347_rgbf000040-resize_5-target.png,250,1.5043333333333,2,3221,266,feet,jsons/v1_VE250_randls_6.json,845065,1460702,52,Woman
114,541690,DepthScenes,duration_manipulation_targetAtFixation,jsons/v1_VE250_randls_6.json,http://54.235.29.9/FacialAge/BNav_EC2/DepthDuration/v2_depth_duration_MTurk/v2_DepthDuration_HTML.html#151,151,1707,916,1707,1067,8-20-2022,9-56-50,115,depth_duration_stimuli/000635_2014-06-08_16-38-42_260595134347_rgbf000106-resize_1/000635_2014-06-08_16-38-42_260595134347_rgbf000106-resize_1-target.png,250,2.074,6,3545,249,feet,jsons/v1_VE250_randls_6.json,845065,1460702,52,Woman
115,541690,DepthScenes,duration_manipulation_targetAtFixation,jsons/v1_VE250_randls_6.json,http://54.235.29.9/FacialAge/BNav_EC2/DepthDuration/v2_depth_duration_MTurk/v2_DepthDuration_HTML.html#151,151,1707,916,1707,1067,8-20-2022,9-56-50,116,depth_duration_stimuli/001170_2014-06-17_15-43-44_260595134347_rgbf000096-resize_6/001170_2014-06-17_15-43-44_260595134347_rgbf000096-resize-original.jpg,250,1.1909999999999998,0,3206,248,feet,jsons/v1_VE250_randls_6.json,845065,1460702,52,Woman
116,541690,DepthScenes,duration_manipulation_targetAtFixation,jsons/v1_VE250_randls_6.json,http://54.235.29.9/FacialAge/BNav_EC2/DepthDuration/v2_depth_duration_MTurk/v2_DepthDuration_HTML.html#151,151,1707,916,1707,1067,8-20-2022,9-56-50,117,depth_duration_stimuli/000692_2014-06-08_13-09-42_260595134347_rgbf000199-resize_2/000692_2014-06-08_13-09-42_260595134347_rgbf000199-resize_2-target.png,250,3.661,8,4156,243,feet,jsons/v1_VE250_randls_6.json,845065,1460702,52,Woman
117,541690,DepthScenes,duration_manipulation_targetAtFixation,jsons/v1_VE250_randls_6.json,http://54.235.29.9/FacialAge/BNav_EC2/DepthDuration/v2_depth_duration_MTurk/v2_DepthDuration_HTML.html#151,151,1707,916,1707,1067,8-20-2022,9-56-50,118,depth_duration_stimuli/001094_2014-06-15_17-36-00_260595134347_rgbf000205-resize_0/001094_2014-06-15_17-36-00_260595134347_rgbf000205-resize_0-target.png,250,4.2175,8,3649,257,feet,jsons/v1_VE250_randls_6.json,845065,1460702,52,Woman
118,541690,DepthScenes,duration_manipulation_targetAtFixation,jsons/v1_VE250_randls_6.json,http://54.235.29.9/FacialAge/BNav_EC2/DepthDuration/v2_depth_duration_MTurk/v2_DepthDuration_HTML.html#151,151,1707,916,1707,1067,8-20-2022,9-56-50,119,depth_duration_stimuli/001199_2014-06-17_16-03-48_260595134347_rgbf000077-resize_0/001199_2014-06-17_16-03-48_260595134347_rgbf000077-resize_0-target.png,250,3.4375,9,5919,248,feet,jsons/v1_VE250_randls_6.json,845065,1460702,52,Woman
119,541690,DepthScenes,duration_manipulation_targetAtFixation,jsons/v1_VE250_randls_6.json,http://54.235.29.9/FacialAge/BNav_EC2/DepthDuration/v2_depth_duration_MTurk/v2_DepthDuration_HTML.html#151,151,1707,916,1707,1067,8-20-2022,9-56-50,120,depth_duration_stimuli/000502_2014-06-08_23-02-32_260595134347_rgbf000063-resize_4/000502_2014-06-08_23-02-32_260595134347_rgbf000063-resize_4-target.png,250,2.431,6,4390,239,feet,jsons/v1_VE250_randls_6.json,845065,1460702,52,Woman
120,541690,DepthScenes,duration_manipulation_targetAtFixation,jsons/v1_VE250_randls_6.json,http://54.235.29.9/FacialAge/BNav_EC2/DepthDuration/v2_depth_duration_MTurk/v2_DepthDuration_HTML.html#151,151,1707,916,1707,1067,8-20-2022,9-56-50,121,depth_duration_stimuli/002788_2014-06-22_19-36-03_094959634447_rgbf000088-resize_2/002788_2014-06-22_19-36-03_094959634447_rgbf000088-resize_2-target.png,250,1.6465,7,6331,247,feet,jsons/v1_VE250_randls_6.json,845065,1460702,52,Woman
121,541690,DepthScenes,duration_manipulation_targetAtFixation,jsons/v1_VE250_randls_6.json,http://54.235.29.9/FacialAge/BNav_EC2/DepthDuration/v2_depth_duration_MTurk/v2_DepthDuration_HTML.html#151,151,1707,916,1707,1067,8-20-2022,9-56-50,122,depth_duration_stimuli/000749_2014-06-08_21-55-06_260595134347_rgbf000070-resize_2/000749_2014-06-08_21-55-06_260595134347_rgbf000070-resize_2-target.png,250,2.331,9,4004,248,feet,jsons/v1_VE250_randls_6.json,845065,1460702,52,Woman
122,541690,DepthScenes,duration_manipulation_targetAtFixation,jsons/v1_VE250_randls_6.json,http://54.235.29.9/FacialAge/BNav_EC2/DepthDuration/v2_depth_duration_MTurk/v2_DepthDuration_HTML.html#151,151,1707,916,1707,1067,8-20-2022,9-56-50,123,depth_duration_stimuli/001092_2014-06-15_17-34-58_260595134347_rgbf000171-resize_3/001092_2014-06-15_17-34-58_260595134347_rgbf000171-resize_3-target.png,250,2.6935,6,3565,235,feet,jsons/v1_VE250_randls_6.json,845065,1460702,52,Woman
123,541690,DepthScenes,duration_manipulation_targetAtFixation,jsons/v1_VE250_randls_6.json,http://54.235.29.9/FacialAge/BNav_EC2/DepthDuration/v2_depth_duration_MTurk/v2_DepthDuration_HTML.html#151,151,1707,916,1707,1067,8-20-2022,9-56-50,124,depth_duration_stimuli/002545_2014-06-24_13-38-53_094959634447_rgbf000080-resize_4/002545_2014-06-24_13-38-53_094959634447_rgbf000080-resize_4-target.png,250,1.9205,7,4011,250,feet,jsons/v1_VE250_randls_6.json,845065,1460702,52,Woman
124,541690,DepthScenes,duration_manipulation_targetAtFixation,jsons/v1_VE250_randls_6.json,http://54.235.29.9/FacialAge/BNav_EC2/DepthDuration/v2_depth_duration_MTurk/v2_DepthDuration_HTML.html#151,151,1707,916,1707,1067,8-20-2022,9-56-50,125,depth_duration_stimuli/002989_2014-06-15_12-25-03_094959634447_rgbf000150-resize_3/002989_2014-06-15_12-25-03_094959634447_rgbf000150-resize_3-target.png,250,4.1975,12,3506,247,feet,jsons/v1_VE250_randls_6.json,845065,1460702,52,Woman
125,541690,DepthScenes,duration_manipulation_targetAtFixation,jsons/v1_VE250_randls_6.json,http://54.235.29.9/FacialAge/BNav_EC2/DepthDuration/v2_depth_duration_MTurk/v2_DepthDuration_HTML.html#151,151,1707,916,1707,1067,8-20-2022,9-56-50,126,depth_duration_stimuli/000866_2014-06-09_20-45-42_260595134347_rgbf000139-resize_1/000866_2014-06-09_20-45-42_260595134347_rgbf000139-resize_1-target.png,250,3.2155,6,3605,247,feet,jsons/v1_VE250_randls_6.json,845065,1460702,52,Woman
126,541690,DepthScenes,duration_manipulation_targetAtFixation,jsons/v1_VE250_randls_6.json,http://54.235.29.9/FacialAge/BNav_EC2/DepthDuration/v2_depth_duration_MTurk/v2_DepthDuration_HTML.html#151,151,1707,916,1707,1067,8-20-2022,9-56-50,127,depth_duration_stimuli/000878_2014-06-08_22-52-45_260595134347_rgbf000045-resize_2/000878_2014-06-08_22-52-45_260595134347_rgbf000045-resize_2-target.png,250,2.092,6,3097,247,feet,jsons/v1_VE250_randls_6.json,845065,1460702,52,Woman
127,541690,DepthScenes,duration_manipulation_targetAtFixation,jsons/v1_VE250_randls_6.json,http://54.235.29.9/FacialAge/BNav_EC2/DepthDuration/v2_depth_duration_MTurk/v2_DepthDuration_HTML.html#151,151,1707,916,1707,1067,8-20-2022,9-56-50,128,depth_duration_stimuli/002953_2014-06-08_17-32-18_094959634447_rgbf000059-resize_5/002953_2014-06-08_17-32-18_094959634447_rgbf000059-resize_5-target.png,250,1.551,4,3335,251,feet,jsons/v1_VE250_randls_6.json,845065,1460702,52,Woman
128,541690,DepthScenes,duration_manipulation_targetAtFixation,jsons/v1_VE250_randls_6.json,http://54.235.29.9/FacialAge/BNav_EC2/DepthDuration/v2_depth_duration_MTurk/v2_DepthDuration_HTML.html#151,151,1707,916,1707,1067,8-20-2022,9-56-50,129,depth_duration_stimuli/000447_2014-06-08_16-15-46_260595134347_rgbf000130-resize_1/000447_2014-06-08_16-15-46_260595134347_rgbf000130-resize_1-target.png,250,4.479,10,3324,247,feet,jsons/v1_VE250_randls_6.json,845065,1460702,52,Woman
129,541690,DepthScenes,duration_manipulation_targetAtFixation,jsons/v1_VE250_randls_6.json,http://54.235.29.9/FacialAge/BNav_EC2/DepthDuration/v2_depth_duration_MTurk/v2_DepthDuration_HTML.html#151,151,1707,916,1707,1067,8-20-2022,9-56-50,130,depth_duration_stimuli/001447_2014-06-19_17-00-32_260595134347_rgbf000082-resize_5/001447_2014-06-19_17-00-32_260595134347_rgbf000082-resize_5-target.png,250,4.13775,6,3723,238,feet,jsons/v1_VE250_randls_6.json,845065,1460702,52,Woman
130,541690,DepthScenes,duration_manipulation_targetAtFixation,jsons/v1_VE250_randls_6.json,http://54.235.29.9/FacialAge/BNav_EC2/DepthDuration/v2_depth_duration_MTurk/v2_DepthDuration_HTML.html#151,151,1707,916,1707,1067,8-20-2022,9-56-50,131,depth_duration_stimuli/000493_2014-06-09_21-01-18_260595134347_rgbf000196-resize_3/000493_2014-06-09_21-01-18_260595134347_rgbf000196-resize_3-target.png,250,3.44,10,4384,248,feet,jsons/v1_VE250_randls_6.json,845065,1460702,52,Woman
131,541690,DepthScenes,duration_manipulation_targetAtFixation,jsons/v1_VE250_randls_6.json,http://54.235.29.9/FacialAge/BNav_EC2/DepthDuration/v2_depth_duration_MTurk/v2_DepthDuration_HTML.html#151,151,1707,916,1707,1067,8-20-2022,9-56-50,132,depth_duration_stimuli/000191_2014-05-12_17-07-38_260595134347_rgbf000199-resize_0/000191_2014-05-12_17-07-38_260595134347_rgbf000199-resize_0-target.png,250,3.7995,10,5035,249,feet,jsons/v1_VE250_randls_6.json,845065,1460702,52,Woman
132,541690,DepthScenes,duration_manipulation_targetAtFixation,jsons/v1_VE250_randls_6.json,http://54.235.29.9/FacialAge/BNav_EC2/DepthDuration/v2_depth_duration_MTurk/v2_DepthDuration_HTML.html#151,151,1707,916,1707,1067,8-20-2022,9-56-50,133,depth_duration_stimuli/001059_2014-06-08_21-53-27_260595134347_rgbf000061-resize_4/001059_2014-06-08_21-53-27_260595134347_rgbf000061-resize_4-target.png,250,2.4185,7,4152,252,feet,jsons/v1_VE250_randls_6.json,845065,1460702,52,Woman
133,541690,DepthScenes,duration_manipulation_targetAtFixation,jsons/v1_VE250_randls_6.json,http://54.235.29.9/FacialAge/BNav_EC2/DepthDuration/v2_depth_duration_MTurk/v2_DepthDuration_HTML.html#151,151,1707,916,1707,1067,8-20-2022,9-56-50,134,depth_duration_stimuli/001032_2014-06-08_13-23-17_260595134347_rgbf000021-resize_3/001032_2014-06-08_13-23-17_260595134347_rgbf000021-resize_3-target.png,250,3.2725,5,3460,240,feet,jsons/v1_VE250_randls_6.json,845065,1460702,52,Woman
134,541690,DepthScenes,duration_manipulation_targetAtFixation,jsons/v1_VE250_randls_6.json,http://54.235.29.9/FacialAge/BNav_EC2/DepthDuration/v2_depth_duration_MTurk/v2_DepthDuration_HTML.html#151,151,1707,916,1707,1067,8-20-2022,9-56-50,135,depth_duration_stimuli/002072_2014-06-24_21-48-06_260595134347_rgbf000115-resize_0/002072_2014-06-24_21-48-06_260595134347_rgbf000115-resize-original.jpg,250,4.702,0,3224,248,feet,jsons/v1_VE250_randls_6.json,845065,1460702,52,Woman
135,541690,DepthScenes,duration_manipulation_targetAtFixation,jsons/v1_VE250_randls_6.json,http://54.235.29.9/FacialAge/BNav_EC2/DepthDuration/v2_depth_duration_MTurk/v2_DepthDuration_HTML.html#151,151,1707,916,1707,1067,8-20-2022,9-56-50,136,depth_duration_stimuli/001066_2014-06-08_22-03-20_260595134347_rgbf000066-resize_4/001066_2014-06-08_22-03-20_260595134347_rgbf000066-resize_4-target.png,250,4.2330000000000005,10,20810,246,feet,jsons/v1_VE250_randls_6.json,845065,1460702,52,Woman
136,541690,DepthScenes,duration_manipulation_targetAtFixation,jsons/v1_VE250_randls_6.json,http://54.235.29.9/FacialAge/BNav_EC2/DepthDuration/v2_depth_duration_MTurk/v2_DepthDuration_HTML.html#151,151,1707,916,1707,1067,8-20-2022,9-56-50,137,depth_duration_stimuli/000742_2014-06-08_18-48-09_260595134347_rgbf000164-resize_4/000742_2014-06-08_18-48-09_260595134347_rgbf000164-resize_4-target.png,250,4.632,8,3378,249,feet,jsons/v1_VE250_randls_6.json,845065,1460702,52,Woman
137,541690,DepthScenes,duration_manipulation_targetAtFixation,jsons/v1_VE250_randls_6.json,http://54.235.29.9/FacialAge/BNav_EC2/DepthDuration/v2_depth_duration_MTurk/v2_DepthDuration_HTML.html#151,151,1707,916,1707,1067,8-20-2022,9-56-50,138,depth_duration_stimuli/001056_2014-06-08_18-46-44_260595134347_rgbf000068-resize_0/001056_2014-06-08_18-46-44_260595134347_rgbf000068-resize_0-target.png,250,2.6625,8,3044,240,feet,jsons/v1_VE250_randls_6.json,845065,1460702,52,Woman
138,541690,DepthScenes,duration_manipulation_targetAtFixation,jsons/v1_VE250_randls_6.json,http://54.235.29.9/FacialAge/BNav_EC2/DepthDuration/v2_depth_duration_MTurk/v2_DepthDuration_HTML.html#151,151,1707,916,1707,1067,8-20-2022,9-56-50,139,depth_duration_stimuli/002199_2014-06-28_18-33-56_260595134347_rgbf000074-resize_0/002199_2014-06-28_18-33-56_260595134347_rgbf000074-resize_0-target.png,250,1.996,3,3130,248,feet,jsons/v1_VE250_randls_6.json,845065,1460702,52,Woman
139,541690,DepthScenes,duration_manipulation_targetAtFixation,jsons/v1_VE250_randls_6.json,http://54.235.29.9/FacialAge/BNav_EC2/DepthDuration/v2_depth_duration_MTurk/v2_DepthDuration_HTML.html#151,151,1707,916,1707,1067,8-20-2022,9-56-50,140,depth_duration_stimuli/000436_2014-06-09_22-25-11_260595134347_rgbf000137-resize_1/000436_2014-06-09_22-25-11_260595134347_rgbf000137-resize_1-target.png,250,4.0705,10,4615,234,feet,jsons/v1_VE250_randls_6.json,845065,1460702,52,Woman
140,541690,DepthScenes,duration_manipulation_targetAtFixation,jsons/v1_VE250_randls_6.json,http://54.235.29.9/FacialAge/BNav_EC2/DepthDuration/v2_depth_duration_MTurk/v2_DepthDuration_HTML.html#151,151,1707,916,1707,1067,8-20-2022,9-56-50,141,depth_duration_stimuli/002444_2014-06-28_20-32-08_260595134347_rgbf000027-resize_0/002444_2014-06-28_20-32-08_260595134347_rgbf000027-resize_0-target.png,250,4.388999999999999,8,3358,234,feet,jsons/v1_VE250_randls_6.json,845065,1460702,52,Woman
141,541690,DepthScenes,duration_manipulation_targetAtFixation,jsons/v1_VE250_randls_6.json,http://54.235.29.9/FacialAge/BNav_EC2/DepthDuration/v2_depth_duration_MTurk/v2_DepthDuration_HTML.html#151,151,1707,916,1707,1067,8-20-2022,9-56-50,142,depth_duration_stimuli/001158_2014-06-17_15-32-16_260595134347_rgbf000138-resize_2/001158_2014-06-17_15-32-16_260595134347_rgbf000138-resize_2-target.png,250,4.5315,12,3419,249,feet,jsons/v1_VE250_randls_6.json,845065,1460702,52,Woman
142,541690,DepthScenes,duration_manipulation_targetAtFixation,jsons/v1_VE250_randls_6.json,http://54.235.29.9/FacialAge/BNav_EC2/DepthDuration/v2_depth_duration_MTurk/v2_DepthDuration_HTML.html#151,151,1707,916,1707,1067,8-20-2022,9-56-50,143,depth_duration_stimuli/000556_2014-06-09_22-42-56_260595134347_rgbf000214-resize_1/000556_2014-06-09_22-42-56_260595134347_rgbf000214-resize_1-target.png,250,4.8415,8,3432,248,feet,jsons/v1_VE250_randls_6.json,845065,1460702,52,Woman
143,541690,DepthScenes,duration_manipulation_targetAtFixation,jsons/v1_VE250_randls_6.json,http://54.235.29.9/FacialAge/BNav_EC2/DepthDuration/v2_depth_duration_MTurk/v2_DepthDuration_HTML.html#151,151,1707,916,1707,1067,8-20-2022,9-56-50,144,depth_duration_stimuli/001808_2014-06-26_20-50-58_260595134347_rgbf000029-resize_1/001808_2014-06-26_20-50-58_260595134347_rgbf000029-resize_1-target.png,250,4.249,10,3502,249,feet,jsons/v1_VE250_randls_6.json,845065,1460702,52,Woman
144,541690,DepthScenes,duration_manipulation_targetAtFixation,jsons/v1_VE250_randls_6.json,http://54.235.29.9/FacialAge/BNav_EC2/DepthDuration/v2_depth_duration_MTurk/v2_DepthDuration_HTML.html#151,151,1707,916,1707,1067,8-20-2022,9-56-50,145,depth_duration_stimuli/001815_2014-06-26_20-52-55_260595134347_rgbf000020-resize_0/001815_2014-06-26_20-52-55_260595134347_rgbf000020-resize_0-target.png,250,3.3865,9,4560,249,feet,jsons/v1_VE250_randls_6.json,845065,1460702,52,Woman
145,541690,DepthScenes,duration_manipulation_targetAtFixation,jsons/v1_VE250_randls_6.json,http://54.235.29.9/FacialAge/BNav_EC2/DepthDuration/v2_depth_duration_MTurk/v2_DepthDuration_HTML.html#151,151,1707,916,1707,1067,8-20-2022,9-56-50,146,depth_duration_stimuli/001498_2014-06-19_17-45-14_260595134347_rgbf000129-resize_4/001498_2014-06-19_17-45-14_260595134347_rgbf000129-resize-original.jpg,250,1.4075,0,12375,251,feet,jsons/v1_VE250_randls_6.json,845065,1460702,52,Woman
146,541690,DepthScenes,duration_manipulation_targetAtFixation,jsons/v1_VE250_randls_6.json,http://54.235.29.9/FacialAge/BNav_EC2/DepthDuration/v2_depth_duration_MTurk/v2_DepthDuration_HTML.html#151,151,1707,916,1707,1067,8-20-2022,9-56-50,147,depth_duration_stimuli/000682_2014-06-08_23-14-58_260595134347_rgbf000041-resize_5/000682_2014-06-08_23-14-58_260595134347_rgbf000041-resize_5-target.png,250,2.7239999999999998,5,4211,268,feet,jsons/v1_VE250_randls_6.json,845065,1460702,52,Woman
147,541690,DepthScenes,duration_manipulation_targetAtFixation,jsons/v1_VE250_randls_6.json,http://54.235.29.9/FacialAge/BNav_EC2/DepthDuration/v2_depth_duration_MTurk/v2_DepthDuration_HTML.html#151,151,1707,916,1707,1067,8-20-2022,9-56-50,148,depth_duration_stimuli/001650_2014-06-20_12-09-00_260595134347_rgbf000087-resize_3/001650_2014-06-20_12-09-00_260595134347_rgbf000087-resize_3-target.png,250,1.9505,3,3544,257,feet,jsons/v1_VE250_randls_6.json,845065,1460702,52,Woman
148,541690,DepthScenes,duration_manipulation_targetAtFixation,jsons/v1_VE250_randls_6.json,http://54.235.29.9/FacialAge/BNav_EC2/DepthDuration/v2_depth_duration_MTurk/v2_DepthDuration_HTML.html#151,151,1707,916,1707,1067,8-20-2022,9-56-50,149,depth_duration_stimuli/000758_2014-06-08_22-05-08_260595134347_rgbf000085-resize_0/000758_2014-06-08_22-05-08_260595134347_rgbf000085-resize_0-target.png,250,3.3810000000000002,6,3299,255,feet,jsons/v1_VE250_randls_6.json,845065,1460702,52,Woman
149,541690,DepthScenes,duration_manipulation_targetAtFixation,jsons/v1_VE250_randls_6.json,http://54.235.29.9/FacialAge/BNav_EC2/DepthDuration/v2_depth_duration_MTurk/v2_DepthDuration_HTML.html#151,151,1707,916,1707,1067,8-20-2022,9-56-50,150,depth_duration_stimuli/000854_2014-06-09_19-43-13_260595134347_rgbf000066-resize_0/000854_2014-06-09_19-43-13_260595134347_rgbf000066-resize_0-target.png,250,3.068,4,3393,248,feet,jsons/v1_VE250_randls_6.json,845065,1460702,52,Woman
150,541690,DepthScenes,duration_manipulation_targetAtFixation,jsons/v1_VE250_randls_6.json,http://54.235.29.9/FacialAge/BNav_EC2/DepthDuration/v2_depth_duration_MTurk/v2_DepthDuration_HTML.html#151,151,1707,916,1707,1067,8-20-2022,9-56-50,151,depth_duration_stimuli/002600_2014-06-24_14-27-04_094959634447_rgbf000074-resize_2/002600_2014-06-24_14-27-04_094959634447_rgbf000074-resize_2-target.png,250,2.7575,7,5219,249,feet,jsons/v1_VE250_randls_6.json,845065,1460702,52,Woman
151,541690,DepthScenes,duration_manipulation_targetAtFixation,jsons/v1_VE250_randls_6.json,http://54.235.29.9/FacialAge/BNav_EC2/DepthDuration/v2_depth_duration_MTurk/v2_DepthDuration_HTML.html#151,151,1707,916,1707,1067,8-20-2022,9-56-50,152,depth_duration_stimuli/003228_2014-05-14_13-42-35_094959634447_rgbf000101-resize_1/003228_2014-05-14_13-42-35_094959634447_rgbf000101-resize_1-target.png,250,1.9680000000000002,3,3301,251,feet,jsons/v1_VE250_randls_6.json,845065,1460702,52,Woman
152,541690,DepthScenes,duration_manipulation_targetAtFixation,jsons/v1_VE250_randls_6.json,http://54.235.29.9/FacialAge/BNav_EC2/DepthDuration/v2_depth_duration_MTurk/v2_DepthDuration_HTML.html#151,151,1707,916,1707,1067,8-20-2022,9-56-50,153,depth_duration_stimuli/001016_2014-06-09_16-16-10_260595134347_rgbf000112-resize_5/001016_2014-06-09_16-16-10_260595134347_rgbf000112-resize_5-target.png,250,1.6565,5,3500,270,feet,jsons/v1_VE250_randls_6.json,845065,1460702,52,Woman
153,541690,DepthScenes,duration_manipulation_targetAtFixation,jsons/v1_VE250_randls_6.json,http://54.235.29.9/FacialAge/BNav_EC2/DepthDuration/v2_depth_duration_MTurk/v2_DepthDuration_HTML.html#151,151,1707,916,1707,1067,8-20-2022,9-56-50,154,depth_duration_stimuli/002340_2014-06-28_20-05-46_260595134347_rgbf000113-resize_0/002340_2014-06-28_20-05-46_260595134347_rgbf000113-resize_0-target.png,250,2.4735,7,4193,244,feet,jsons/v1_VE250_randls_6.json,845065,1460702,52,Woman
154,541690,DepthScenes,duration_manipulation_targetAtFixation,jsons/v1_VE250_randls_6.json,http://54.235.29.9/FacialAge/BNav_EC2/DepthDuration/v2_depth_duration_MTurk/v2_DepthDuration_HTML.html#151,151,1707,916,1707,1067,8-20-2022,9-56-50,155,depth_duration_stimuli/002118_2014-06-25_20-32-08_260595134347_rgbf000078-resize_1/002118_2014-06-25_20-32-08_260595134347_rgbf000078-resize_1-target.png,250,2.6460000000000004,6,4991,261,feet,jsons/v1_VE250_randls_6.json,845065,1460702,52,Woman
155,541690,DepthScenes,duration_manipulation_targetAtFixation,jsons/v1_VE250_randls_6.json,http://54.235.29.9/FacialAge/BNav_EC2/DepthDuration/v2_depth_duration_MTurk/v2_DepthDuration_HTML.html#151,151,1707,916,1707,1067,8-20-2022,9-56-50,156,depth_duration_stimuli/001516_2014-06-20_16-25-09_260595134347_rgbf000076-resize_2/001516_2014-06-20_16-25-09_260595134347_rgbf000076-resize_2-target.png,250,1.7445,8,3568,249,feet,jsons/v1_VE250_randls_6.json,845065,1460702,52,Woman
156,541690,DepthScenes,duration_manipulation_targetAtFixation,jsons/v1_VE250_randls_6.json,http://54.235.29.9/FacialAge/BNav_EC2/DepthDuration/v2_depth_duration_MTurk/v2_DepthDuration_HTML.html#151,151,1707,916,1707,1067,8-20-2022,9-56-50,157,depth_duration_stimuli/001167_2014-06-17_15-38-07_260595134347_rgbf000108-resize_0/001167_2014-06-17_15-38-07_260595134347_rgbf000108-resize_0-target.png,250,1.8505,3,6077,247,feet,jsons/v1_VE250_randls_6.json,845065,1460702,52,Woman
157,541690,DepthScenes,duration_manipulation_targetAtFixation,jsons/v1_VE250_randls_6.json,http://54.235.29.9/FacialAge/BNav_EC2/DepthDuration/v2_depth_duration_MTurk/v2_DepthDuration_HTML.html#151,151,1707,916,1707,1067,8-20-2022,9-56-50,158,depth_duration_stimuli/003587_2014-05-23_16-48-02_094959634447_rgbf002384-resize_2/003587_2014-05-23_16-48-02_094959634447_rgbf002384-resize_2-target.png,250,1.357,2,3888,250,feet,jsons/v1_VE250_randls_6.json,845065,1460702,52,Woman
158,541690,DepthScenes,duration_manipulation_targetAtFixation,jsons/v1_VE250_randls_6.json,http://54.235.29.9/FacialAge/BNav_EC2/DepthDuration/v2_depth_duration_MTurk/v2_DepthDuration_HTML.html#151,151,1707,916,1707,1067,8-20-2022,9-56-50,159,depth_duration_stimuli/000486_2014-06-09_20-47-20_260595134347_rgbf000143-resize_2/000486_2014-06-09_20-47-20_260595134347_rgbf000143-resize_2-target.png,250,4.8325,8,6863,246,feet,jsons/v1_VE250_randls_6.json,845065,1460702,52,Woman
159,541690,DepthScenes,duration_manipulation_targetAtFixation,jsons/v1_VE250_randls_6.json,http://54.235.29.9/FacialAge/BNav_EC2/DepthDuration/v2_depth_duration_MTurk/v2_DepthDuration_HTML.html#151,151,1707,916,1707,1067,8-20-2022,9-56-50,160,depth_duration_stimuli/003083_2014-06-15_15-21-03_094959634447_rgbf000063-resize_1/003083_2014-06-15_15-21-03_094959634447_rgbf000063-resize_1-target.png,250,4.1405,10,3530,248,feet,jsons/v1_VE250_randls_6.json,845065,1460702,52,Woman
160,541690,DepthScenes,duration_manipulation_targetAtFixation,jsons/v1_VE250_randls_6.json,http://54.235.29.9/FacialAge/BNav_EC2/DepthDuration/v2_depth_duration_MTurk/v2_DepthDuration_HTML.html#151,151,1707,916,1707,1067,8-20-2022,9-56-50,161,depth_duration_stimuli/000522_2014-06-08_13-35-06_260595134347_rgbf000244-resize_1/000522_2014-06-08_13-35-06_260595134347_rgbf000244-resize_1-target.png,250,2.3715,1,5881,250,feet,jsons/v1_VE250_randls_6.json,845065,1460702,52,Woman
161,541690,DepthScenes,duration_manipulation_targetAtFixation,jsons/v1_VE250_randls_6.json,http://54.235.29.9/FacialAge/BNav_EC2/DepthDuration/v2_depth_duration_MTurk/v2_DepthDuration_HTML.html#151,151,1707,916,1707,1067,8-20-2022,9-56-50,162,depth_duration_stimuli/002949_2014-06-26_15-57-42_094959634447_rgbf000079-resize_1/002949_2014-06-26_15-57-42_094959634447_rgbf000079-resize_1-target.png,250,1.8915,4,3387,249,feet,jsons/v1_VE250_randls_6.json,845065,1460702,52,Woman
162,541690,DepthScenes,duration_manipulation_targetAtFixation,jsons/v1_VE250_randls_6.json,http://54.235.29.9/FacialAge/BNav_EC2/DepthDuration/v2_depth_duration_MTurk/v2_DepthDuration_HTML.html#151,151,1707,916,1707,1067,8-20-2022,9-56-50,163,depth_duration_stimuli/001133_2014-06-17_14-49-16_260595134347_rgbf000100-resize_0/001133_2014-06-17_14-49-16_260595134347_rgbf000100-resize_0-target.png,250,4.2115,7,3688,247,feet,jsons/v1_VE250_randls_6.json,845065,1460702,52,Woman
163,541690,DepthScenes,duration_manipulation_targetAtFixation,jsons/v1_VE250_randls_6.json,http://54.235.29.9/FacialAge/BNav_EC2/DepthDuration/v2_depth_duration_MTurk/v2_DepthDuration_HTML.html#151,151,1707,916,1707,1067,8-20-2022,9-56-50,164,depth_duration_stimuli/001132_2014-06-17_14-48-54_260595134347_rgbf000100-resize_2/001132_2014-06-17_14-48-54_260595134347_rgbf000100-resize_2-target.png,250,3.753,8,3516,248,feet,jsons/v1_VE250_randls_6.json,845065,1460702,52,Woman
