,subjID,experimentName,versionName,sequenceName,url,selected_row,windowWidth,windowHeight,screenWidth,screenHeight,startDate,startTime,trial,stimulus,duration,actual_depth,depth_estimate,trial_RT,log_sceneDuration,unitSelection,seq_filepath,experimentTime,totalTime,age,gender
0,542475,DepthScenes,duration_manipulation_targetAtFixation,jsons/VE125_randls_17_rotated.json,http://54.235.29.9/FacialAge/BNav_EC2/DepthDuration/v2_depth_duration_MTurk/v2_DepthDuration_HTML.html#299,299,1821,833,1366,768,8-30-2022,11-29-38,1,depth_duration_stimuli/002875_2014-06-01_15-19-00_094959634447_rgbf000151-resize_1/002875_2014-06-01_15-19-00_094959634447_rgbf000151-resize_1-target.png,125,1.9675,1,3933,126,meters,jsons/VE125_randls_17_rotated.json,1029737,1497710,25,Man
1,542475,DepthScenes,duration_manipulation_targetAtFixation,jsons/VE125_randls_17_rotated.json,http://54.235.29.9/FacialAge/BNav_EC2/DepthDuration/v2_depth_duration_MTurk/v2_DepthDuration_HTML.html#299,299,1821,833,1366,768,8-30-2022,11-29-38,2,depth_duration_stimuli/001011_2014-06-08_23-18-54_260595134347_rgbf000044-resize_4/001011_2014-06-08_23-18-54_260595134347_rgbf000044-resize_4-target.png,125,2.4730000000000003,2,3599,125,meters,jsons/VE125_randls_17_rotated.json,1029737,1497710,25,Man
2,542475,DepthScenes,duration_manipulation_targetAtFixation,jsons/VE125_randls_17_rotated.json,http://54.235.29.9/FacialAge/BNav_EC2/DepthDuration/v2_depth_duration_MTurk/v2_DepthDuration_HTML.html#299,299,1821,833,1366,768,8-30-2022,11-29-38,3,depth_duration_stimuli/002995_2014-06-15_12-31-26_094959634447_rgbf000150-resize_1/002995_2014-06-15_12-31-26_094959634447_rgbf000150-resize_1-target.png,125,3.8360000000000003,2,3513,125,meters,jsons/VE125_randls_17_rotated.json,1029737,1497710,25,Man
3,542475,DepthScenes,duration_manipulation_targetAtFixation,jsons/VE125_randls_17_rotated.json,http://54.235.29.9/FacialAge/BNav_EC2/DepthDuration/v2_depth_duration_MTurk/v2_DepthDuration_HTML.html#299,299,1821,833,1366,768,8-30-2022,11-29-38,4,depth_duration_stimuli/002748_2014-06-22_19-07-22_094959634447_rgbf000078-resize_1/002748_2014-06-22_19-07-22_094959634447_rgbf000078-resize_1-target.png,125,4.6705,2,3125,125,meters,jsons/VE125_randls_17_rotated.json,1029737,1497710,25,Man
4,542475,DepthScenes,duration_manipulation_targetAtFixation,jsons/VE125_randls_17_rotated.json,http://54.235.29.9/FacialAge/BNav_EC2/DepthDuration/v2_depth_duration_MTurk/v2_DepthDuration_HTML.html#299,299,1821,833,1366,768,8-30-2022,11-29-38,5,depth_duration_stimuli/000943_2014-06-09_19-31-07_260595134347_rgbf000128-resize_1/000943_2014-06-09_19-31-07_260595134347_rgbf000128-resize_1-target.png,125,1.9765,1,3347,126,meters,jsons/VE125_randls_17_rotated.json,1029737,1497710,25,Man
5,542475,DepthScenes,duration_manipulation_targetAtFixation,jsons/VE125_randls_17_rotated.json,http://54.235.29.9/FacialAge/BNav_EC2/DepthDuration/v2_depth_duration_MTurk/v2_DepthDuration_HTML.html#299,299,1821,833,1366,768,8-30-2022,11-29-38,6,depth_duration_stimuli/003070_2014-06-15_14-58-27_094959634447_rgbf000150-resize_3/003070_2014-06-15_14-58-27_094959634447_rgbf000150-resize_3-target.png,125,2.9415,1,3283,125,meters,jsons/VE125_randls_17_rotated.json,1029737,1497710,25,Man
6,542475,DepthScenes,duration_manipulation_targetAtFixation,jsons/VE125_randls_17_rotated.json,http://54.235.29.9/FacialAge/BNav_EC2/DepthDuration/v2_depth_duration_MTurk/v2_DepthDuration_HTML.html#299,299,1821,833,1366,768,8-30-2022,11-29-38,7,depth_duration_stimuli/000734_2014-06-08_17-39-11_260595134347_rgbf000128-resize_2/000734_2014-06-08_17-39-11_260595134347_rgbf000128-resize_2-target.png,125,4.098,1,2986,125,meters,jsons/VE125_randls_17_rotated.json,1029737,1497710,25,Man
7,542475,DepthScenes,duration_manipulation_targetAtFixation,jsons/VE125_randls_17_rotated.json,http://54.235.29.9/FacialAge/BNav_EC2/DepthDuration/v2_depth_duration_MTurk/v2_DepthDuration_HTML.html#299,299,1821,833,1366,768,8-30-2022,11-29-38,8,depth_duration_stimuli/000739_2014-06-08_18-45-58_260595134347_rgbf000068-resize_1/000739_2014-06-08_18-45-58_260595134347_rgbf000068-resize_1-target.png,125,3.534,2,6260,123,meters,jsons/VE125_randls_17_rotated.json,1029737,1497710,25,Man
8,542475,DepthScenes,duration_manipulation_targetAtFixation,jsons/VE125_randls_17_rotated.json,http://54.235.29.9/FacialAge/BNav_EC2/DepthDuration/v2_depth_duration_MTurk/v2_DepthDuration_HTML.html#299,299,1821,833,1366,768,8-30-2022,11-29-38,9,depth_duration_stimuli/002568_2014-06-24_13-59-21_094959634447_rgbf000062-resize_4/002568_2014-06-24_13-59-21_094959634447_rgbf000062-resize_4-target.png,125,3.015,1,3353,125,meters,jsons/VE125_randls_17_rotated.json,1029737,1497710,25,Man
9,542475,DepthScenes,duration_manipulation_targetAtFixation,jsons/VE125_randls_17_rotated.json,http://54.235.29.9/FacialAge/BNav_EC2/DepthDuration/v2_depth_duration_MTurk/v2_DepthDuration_HTML.html#299,299,1821,833,1366,768,8-30-2022,11-29-38,10,depth_duration_stimuli/003492_2014-05-21_15-50-55_094959634447_rgbf000828-resize_1/003492_2014-05-21_15-50-55_094959634447_rgbf000828-resize_1-target.png,125,4.06875,2,3250,126,meters,jsons/VE125_randls_17_rotated.json,1029737,1497710,25,Man
10,542475,DepthScenes,duration_manipulation_targetAtFixation,jsons/VE125_randls_17_rotated.json,http://54.235.29.9/FacialAge/BNav_EC2/DepthDuration/v2_depth_duration_MTurk/v2_DepthDuration_HTML.html#299,299,1821,833,1366,768,8-30-2022,11-29-38,11,depth_duration_stimuli/003081_2014-06-15_15-19-16_094959634447_rgbf000150-resize_1/003081_2014-06-15_15-19-16_094959634447_rgbf000150-resize_1-target.png,125,3.9125,1,3187,125,meters,jsons/VE125_randls_17_rotated.json,1029737,1497710,25,Man
11,542475,DepthScenes,duration_manipulation_targetAtFixation,jsons/VE125_randls_17_rotated.json,http://54.235.29.9/FacialAge/BNav_EC2/DepthDuration/v2_depth_duration_MTurk/v2_DepthDuration_HTML.html#299,299,1821,833,1366,768,8-30-2022,11-29-38,12,depth_duration_stimuli/001417_2014-06-19_16-25-36_260595134347_rgbf000115-resize_5/001417_2014-06-19_16-25-36_260595134347_rgbf000115-resize_5-target.png,125,4.6255,2,3018,125,meters,jsons/VE125_randls_17_rotated.json,1029737,1497710,25,Man
12,542475,DepthScenes,duration_manipulation_targetAtFixation,jsons/VE125_randls_17_rotated.json,http://54.235.29.9/FacialAge/BNav_EC2/DepthDuration/v2_depth_duration_MTurk/v2_DepthDuration_HTML.html#299,299,1821,833,1366,768,8-30-2022,11-29-38,13,depth_duration_stimuli/000691_2014-06-08_13-08-50_260595134347_rgbf000132-resize_3/000691_2014-06-08_13-08-50_260595134347_rgbf000132-resize_3-target.png,125,4.1530000000000005,1,3203,126,meters,jsons/VE125_randls_17_rotated.json,1029737,1497710,25,Man
13,542475,DepthScenes,duration_manipulation_targetAtFixation,jsons/VE125_randls_17_rotated.json,http://54.235.29.9/FacialAge/BNav_EC2/DepthDuration/v2_depth_duration_MTurk/v2_DepthDuration_HTML.html#299,299,1821,833,1366,768,8-30-2022,11-29-38,14,depth_duration_stimuli/002213_2014-06-28_18-37-58_260595134347_rgbf000055-resize_1/002213_2014-06-28_18-37-58_260595134347_rgbf000055-resize_1-target.png,125,3.62,2,3645,125,meters,jsons/VE125_randls_17_rotated.json,1029737,1497710,25,Man
14,542475,DepthScenes,duration_manipulation_targetAtFixation,jsons/VE125_randls_17_rotated.json,http://54.235.29.9/FacialAge/BNav_EC2/DepthDuration/v2_depth_duration_MTurk/v2_DepthDuration_HTML.html#299,299,1821,833,1366,768,8-30-2022,11-29-38,15,depth_duration_stimuli/002444_2014-06-28_20-32-08_260595134347_rgbf000027-resize_0/002444_2014-06-28_20-32-08_260595134347_rgbf000027-resize_0-target.png,125,4.388999999999999,1,3643,125,meters,jsons/VE125_randls_17_rotated.json,1029737,1497710,25,Man
15,542475,DepthScenes,duration_manipulation_targetAtFixation,jsons/VE125_randls_17_rotated.json,http://54.235.29.9/FacialAge/BNav_EC2/DepthDuration/v2_depth_duration_MTurk/v2_DepthDuration_HTML.html#299,299,1821,833,1366,768,8-30-2022,11-29-38,16,depth_duration_stimuli/000436_2014-06-09_22-25-11_260595134347_rgbf000137-resize_1/000436_2014-06-09_22-25-11_260595134347_rgbf000137-resize_1-target.png,125,4.0705,1,3219,126,meters,jsons/VE125_randls_17_rotated.json,1029737,1497710,25,Man
16,542475,DepthScenes,duration_manipulation_targetAtFixation,jsons/VE125_randls_17_rotated.json,http://54.235.29.9/FacialAge/BNav_EC2/DepthDuration/v2_depth_duration_MTurk/v2_DepthDuration_HTML.html#299,299,1821,833,1366,768,8-30-2022,11-29-38,17,depth_duration_stimuli/003010_2014-06-15_12-54-35_094959634447_rgbf000112-resize_0/003010_2014-06-15_12-54-35_094959634447_rgbf000112-resize_0-target.png,125,3.1185,2,3177,126,meters,jsons/VE125_randls_17_rotated.json,1029737,1497710,25,Man
17,542475,DepthScenes,duration_manipulation_targetAtFixation,jsons/VE125_randls_17_rotated.json,http://54.235.29.9/FacialAge/BNav_EC2/DepthDuration/v2_depth_duration_MTurk/v2_DepthDuration_HTML.html#299,299,1821,833,1366,768,8-30-2022,11-29-38,18,depth_duration_stimuli/001810_2014-06-26_20-51-35_260595134347_rgbf000040-resize_3/001810_2014-06-26_20-51-35_260595134347_rgbf000040-resize_3-target.png,125,2.2525,1,3069,125,meters,jsons/VE125_randls_17_rotated.json,1029737,1497710,25,Man
18,542475,DepthScenes,duration_manipulation_targetAtFixation,jsons/VE125_randls_17_rotated.json,http://54.235.29.9/FacialAge/BNav_EC2/DepthDuration/v2_depth_duration_MTurk/v2_DepthDuration_HTML.html#299,299,1821,833,1366,768,8-30-2022,11-29-38,19,depth_duration_stimuli/001498_2014-06-19_17-45-14_260595134347_rgbf000129-resize_4/001498_2014-06-19_17-45-14_260595134347_rgbf000129-resize-original.jpg,125,1.4075,0,3682,126,meters,jsons/VE125_randls_17_rotated.json,1029737,1497710,25,Man
19,542475,DepthScenes,duration_manipulation_targetAtFixation,jsons/VE125_randls_17_rotated.json,http://54.235.29.9/FacialAge/BNav_EC2/DepthDuration/v2_depth_duration_MTurk/v2_DepthDuration_HTML.html#299,299,1821,833,1366,768,8-30-2022,11-29-38,20,depth_duration_stimuli/002414_2014-06-28_20-24-58_260595134347_rgbf000067-resize_4/002414_2014-06-28_20-24-58_260595134347_rgbf000067-resize_4-target.png,125,4.363,2,3346,124,meters,jsons/VE125_randls_17_rotated.json,1029737,1497710,25,Man
20,542475,DepthScenes,duration_manipulation_targetAtFixation,jsons/VE125_randls_17_rotated.json,http://54.235.29.9/FacialAge/BNav_EC2/DepthDuration/v2_depth_duration_MTurk/v2_DepthDuration_HTML.html#299,299,1821,833,1366,768,8-30-2022,11-29-38,21,depth_duration_stimuli/000773_2014-06-08_22-24-54_260595134347_rgbf000093-resize_1/000773_2014-06-08_22-24-54_260595134347_rgbf000093-resize_1-target.png,125,4.973,2,3531,126,meters,jsons/VE125_randls_17_rotated.json,1029737,1497710,25,Man
21,542475,DepthScenes,duration_manipulation_targetAtFixation,jsons/VE125_randls_17_rotated.json,http://54.235.29.9/FacialAge/BNav_EC2/DepthDuration/v2_depth_duration_MTurk/v2_DepthDuration_HTML.html#299,299,1821,833,1366,768,8-30-2022,11-29-38,22,depth_duration_stimuli/000483_2014-06-09_20-41-45_260595134347_rgbf000116-resize_4/000483_2014-06-09_20-41-45_260595134347_rgbf000116-resize_4-target.png,125,1.337,1,2995,126,meters,jsons/VE125_randls_17_rotated.json,1029737,1497710,25,Man
22,542475,DepthScenes,duration_manipulation_targetAtFixation,jsons/VE125_randls_17_rotated.json,http://54.235.29.9/FacialAge/BNav_EC2/DepthDuration/v2_depth_duration_MTurk/v2_DepthDuration_HTML.html#299,299,1821,833,1366,768,8-30-2022,11-29-38,23,depth_duration_stimuli/000469_2014-06-09_19-42-10_260595134347_rgbf000081-resize_1/000469_2014-06-09_19-42-10_260595134347_rgbf000081-resize_1-target.png,125,1.652,1,3387,126,meters,jsons/VE125_randls_17_rotated.json,1029737,1497710,25,Man
23,542475,DepthScenes,duration_manipulation_targetAtFixation,jsons/VE125_randls_17_rotated.json,http://54.235.29.9/FacialAge/BNav_EC2/DepthDuration/v2_depth_duration_MTurk/v2_DepthDuration_HTML.html#299,299,1821,833,1366,768,8-30-2022,11-29-38,24,depth_duration_stimuli/000635_2014-06-08_16-38-42_260595134347_rgbf000106-resize_1/000635_2014-06-08_16-38-42_260595134347_rgbf000106-resize_1-target.png,125,2.074,2,3058,125,meters,jsons/VE125_randls_17_rotated.json,1029737,1497710,25,Man
24,542475,DepthScenes,duration_manipulation_targetAtFixation,jsons/VE125_randls_17_rotated.json,http://54.235.29.9/FacialAge/BNav_EC2/DepthDuration/v2_depth_duration_MTurk/v2_DepthDuration_HTML.html#299,299,1821,833,1366,768,8-30-2022,11-29-38,25,depth_duration_stimuli/002279_2014-06-28_18-55-32_260595134347_rgbf000040-resize_5/002279_2014-06-28_18-55-32_260595134347_rgbf000040-resize_5-target.png,125,1.5043333333333,2,3401,126,meters,jsons/VE125_randls_17_rotated.json,1029737,1497710,25,Man
25,542475,DepthScenes,duration_manipulation_targetAtFixation,jsons/VE125_randls_17_rotated.json,http://54.235.29.9/FacialAge/BNav_EC2/DepthDuration/v2_depth_duration_MTurk/v2_DepthDuration_HTML.html#299,299,1821,833,1366,768,8-30-2022,11-29-38,26,depth_duration_stimuli/001447_2014-06-19_17-00-32_260595134347_rgbf000082-resize_5/001447_2014-06-19_17-00-32_260595134347_rgbf000082-resize_5-target.png,125,4.13775,1,5756,125,meters,jsons/VE125_randls_17_rotated.json,1029737,1497710,25,Man
26,542475,DepthScenes,duration_manipulation_targetAtFixation,jsons/VE125_randls_17_rotated.json,http://54.235.29.9/FacialAge/BNav_EC2/DepthDuration/v2_depth_duration_MTurk/v2_DepthDuration_HTML.html#299,299,1821,833,1366,768,8-30-2022,11-29-38,27,depth_duration_stimuli/000447_2014-06-08_16-15-46_260595134347_rgbf000130-resize_1/000447_2014-06-08_16-15-46_260595134347_rgbf000130-resize_1-target.png,125,4.479,2,3010,126,meters,jsons/VE125_randls_17_rotated.json,1029737,1497710,25,Man
27,542475,DepthScenes,duration_manipulation_targetAtFixation,jsons/VE125_randls_17_rotated.json,http://54.235.29.9/FacialAge/BNav_EC2/DepthDuration/v2_depth_duration_MTurk/v2_DepthDuration_HTML.html#299,299,1821,833,1366,768,8-30-2022,11-29-38,28,depth_duration_stimuli/002209_2014-06-28_18-36-10_260595134347_rgbf000051-resize_1/002209_2014-06-28_18-36-10_260595134347_rgbf000051-resize_1-target.png,125,2.057,1,3093,126,meters,jsons/VE125_randls_17_rotated.json,1029737,1497710,25,Man
28,542475,DepthScenes,duration_manipulation_targetAtFixation,jsons/VE125_randls_17_rotated.json,http://54.235.29.9/FacialAge/BNav_EC2/DepthDuration/v2_depth_duration_MTurk/v2_DepthDuration_HTML.html#299,299,1821,833,1366,768,8-30-2022,11-29-38,29,depth_duration_stimuli/002763_2014-06-22_19-13-10_094959634447_rgbf000075-resize_4/002763_2014-06-22_19-13-10_094959634447_rgbf000075-resize_4-target.png,125,1.68375,1,60826,126,meters,jsons/VE125_randls_17_rotated.json,1029737,1497710,25,Man
29,542475,DepthScenes,duration_manipulation_targetAtFixation,jsons/VE125_randls_17_rotated.json,http://54.235.29.9/FacialAge/BNav_EC2/DepthDuration/v2_depth_duration_MTurk/v2_DepthDuration_HTML.html#299,299,1821,833,1366,768,8-30-2022,11-29-38,30,depth_duration_stimuli/002072_2014-06-24_21-48-06_260595134347_rgbf000115-resize_0/002072_2014-06-24_21-48-06_260595134347_rgbf000115-resize-original.jpg,125,4.702,0,3252,126,meters,jsons/VE125_randls_17_rotated.json,1029737,1497710,25,Man
30,542475,DepthScenes,duration_manipulation_targetAtFixation,jsons/VE125_randls_17_rotated.json,http://54.235.29.9/FacialAge/BNav_EC2/DepthDuration/v2_depth_duration_MTurk/v2_DepthDuration_HTML.html#299,299,1821,833,1366,768,8-30-2022,11-29-38,31,depth_duration_stimuli/001815_2014-06-26_20-52-55_260595134347_rgbf000020-resize_0/001815_2014-06-26_20-52-55_260595134347_rgbf000020-resize_0-target.png,125,3.3865,2,3699,125,meters,jsons/VE125_randls_17_rotated.json,1029737,1497710,25,Man
31,542475,DepthScenes,duration_manipulation_targetAtFixation,jsons/VE125_randls_17_rotated.json,http://54.235.29.9/FacialAge/BNav_EC2/DepthDuration/v2_depth_duration_MTurk/v2_DepthDuration_HTML.html#299,299,1821,833,1366,768,8-30-2022,11-29-38,32,depth_duration_stimuli/001808_2014-06-26_20-50-58_260595134347_rgbf000029-resize_1/001808_2014-06-26_20-50-58_260595134347_rgbf000029-resize_1-target.png,125,4.249,2,5140,124,meters,jsons/VE125_randls_17_rotated.json,1029737,1497710,25,Man
32,542475,DepthScenes,duration_manipulation_targetAtFixation,jsons/VE125_randls_17_rotated.json,http://54.235.29.9/FacialAge/BNav_EC2/DepthDuration/v2_depth_duration_MTurk/v2_DepthDuration_HTML.html#299,299,1821,833,1366,768,8-30-2022,11-29-38,33,depth_duration_stimuli/001392_2014-06-19_16-07-59_260595134347_rgbf000046-resize_1/001392_2014-06-19_16-07-59_260595134347_rgbf000046-resize_1-target.png,125,4.135,2,3739,124,meters,jsons/VE125_randls_17_rotated.json,1029737,1497710,25,Man
33,542475,DepthScenes,duration_manipulation_targetAtFixation,jsons/VE125_randls_17_rotated.json,http://54.235.29.9/FacialAge/BNav_EC2/DepthDuration/v2_depth_duration_MTurk/v2_DepthDuration_HTML.html#299,299,1821,833,1366,768,8-30-2022,11-29-38,34,depth_duration_stimuli/001570_2014-06-20_17-21-09_260595134347_rgbf000135-resize_4/001570_2014-06-20_17-21-09_260595134347_rgbf000135-resize_4-target.png,125,4.467,2,3498,125,meters,jsons/VE125_randls_17_rotated.json,1029737,1497710,25,Man
34,542475,DepthScenes,duration_manipulation_targetAtFixation,jsons/VE125_randls_17_rotated.json,http://54.235.29.9/FacialAge/BNav_EC2/DepthDuration/v2_depth_duration_MTurk/v2_DepthDuration_HTML.html#299,299,1821,833,1366,768,8-30-2022,11-29-38,35,depth_duration_stimuli/000457_2014-06-08_16-52-43_260595134347_rgbf000199-resize_1/000457_2014-06-08_16-52-43_260595134347_rgbf000199-resize_1-target.png,125,3.6489999999999996,2,4316,125,meters,jsons/VE125_randls_17_rotated.json,1029737,1497710,25,Man
35,542475,DepthScenes,duration_manipulation_targetAtFixation,jsons/VE125_randls_17_rotated.json,http://54.235.29.9/FacialAge/BNav_EC2/DepthDuration/v2_depth_duration_MTurk/v2_DepthDuration_HTML.html#299,299,1821,833,1366,768,8-30-2022,11-29-38,36,depth_duration_stimuli/000929_2014-06-09_16-33-19_260595134347_rgbf000139-resize_0/000929_2014-06-09_16-33-19_260595134347_rgbf000139-resize_0-target.png,125,2.8680000000000003,1,3552,125,meters,jsons/VE125_randls_17_rotated.json,1029737,1497710,25,Man
36,542475,DepthScenes,duration_manipulation_targetAtFixation,jsons/VE125_randls_17_rotated.json,http://54.235.29.9/FacialAge/BNav_EC2/DepthDuration/v2_depth_duration_MTurk/v2_DepthDuration_HTML.html#299,299,1821,833,1366,768,8-30-2022,11-29-38,37,depth_duration_stimuli/002467_2014-06-28_20-38-07_260595134347_rgbf000026-resize_2/002467_2014-06-28_20-38-07_260595134347_rgbf000026-resize_2-target.png,125,4.742,1,3403,125,meters,jsons/VE125_randls_17_rotated.json,1029737,1497710,25,Man
37,542475,DepthScenes,duration_manipulation_targetAtFixation,jsons/VE125_randls_17_rotated.json,http://54.235.29.9/FacialAge/BNav_EC2/DepthDuration/v2_depth_duration_MTurk/v2_DepthDuration_HTML.html#299,299,1821,833,1366,768,8-30-2022,11-29-38,38,depth_duration_stimuli/002570_2014-06-24_13-59-54_094959634447_rgbf000059-resize_0/002570_2014-06-24_13-59-54_094959634447_rgbf000059-resize_0-target.png,125,4.037,2,3330,123,meters,jsons/VE125_randls_17_rotated.json,1029737,1497710,25,Man
38,542475,DepthScenes,duration_manipulation_targetAtFixation,jsons/VE125_randls_17_rotated.json,http://54.235.29.9/FacialAge/BNav_EC2/DepthDuration/v2_depth_duration_MTurk/v2_DepthDuration_HTML.html#299,299,1821,833,1366,768,8-30-2022,11-29-38,39,depth_duration_stimuli/003495_2014-05-21_16-01-51_094959634447_rgbf000100-resize_3/003495_2014-05-21_16-01-51_094959634447_rgbf000100-resize_3-target.png,125,1.6255,1,3260,125,meters,jsons/VE125_randls_17_rotated.json,1029737,1497710,25,Man
39,542475,DepthScenes,duration_manipulation_targetAtFixation,jsons/VE125_randls_17_rotated.json,http://54.235.29.9/FacialAge/BNav_EC2/DepthDuration/v2_depth_duration_MTurk/v2_DepthDuration_HTML.html#299,299,1821,833,1366,768,8-30-2022,11-29-38,40,depth_duration_stimuli/001244_2014-06-17_16-47-45_260595134347_rgbf000030-resize_4/001244_2014-06-17_16-47-45_260595134347_rgbf000030-resize_4-target.png,125,2.0425,2,3219,125,meters,jsons/VE125_randls_17_rotated.json,1029737,1497710,25,Man
40,542475,DepthScenes,duration_manipulation_targetAtFixation,jsons/VE125_randls_17_rotated.json,http://54.235.29.9/FacialAge/BNav_EC2/DepthDuration/v2_depth_duration_MTurk/v2_DepthDuration_HTML.html#299,299,1821,833,1366,768,8-30-2022,11-29-38,41,depth_duration_stimuli/002425_2014-06-28_20-27-29_260595134347_rgbf000031-resize_8/002425_2014-06-28_20-27-29_260595134347_rgbf000031-resize_8-target.png,125,3.8960000000000004,2,3369,126,meters,jsons/VE125_randls_17_rotated.json,1029737,1497710,25,Man
41,542475,DepthScenes,duration_manipulation_targetAtFixation,jsons/VE125_randls_17_rotated.json,http://54.235.29.9/FacialAge/BNav_EC2/DepthDuration/v2_depth_duration_MTurk/v2_DepthDuration_HTML.html#299,299,1821,833,1366,768,8-30-2022,11-29-38,42,depth_duration_stimuli/000642_2014-06-08_16-59-25_260595134347_rgbf000098-resize_2/000642_2014-06-08_16-59-25_260595134347_rgbf000098-resize_2-target.png,125,2.8815,1,3347,125,meters,jsons/VE125_randls_17_rotated.json,1029737,1497710,25,Man
42,542475,DepthScenes,duration_manipulation_targetAtFixation,jsons/VE125_randls_17_rotated.json,http://54.235.29.9/FacialAge/BNav_EC2/DepthDuration/v2_depth_duration_MTurk/v2_DepthDuration_HTML.html#299,299,1821,833,1366,768,8-30-2022,11-29-38,43,depth_duration_stimuli/001094_2014-06-15_17-36-00_260595134347_rgbf000205-resize_0/001094_2014-06-15_17-36-00_260595134347_rgbf000205-resize_0-target.png,125,4.2175,2,3614,125,meters,jsons/VE125_randls_17_rotated.json,1029737,1497710,25,Man
43,542475,DepthScenes,duration_manipulation_targetAtFixation,jsons/VE125_randls_17_rotated.json,http://54.235.29.9/FacialAge/BNav_EC2/DepthDuration/v2_depth_duration_MTurk/v2_DepthDuration_HTML.html#299,299,1821,833,1366,768,8-30-2022,11-29-38,44,depth_duration_stimuli/000692_2014-06-08_13-09-42_260595134347_rgbf000199-resize_2/000692_2014-06-08_13-09-42_260595134347_rgbf000199-resize_2-target.png,125,3.661,2,3311,126,meters,jsons/VE125_randls_17_rotated.json,1029737,1497710,25,Man
44,542475,DepthScenes,duration_manipulation_targetAtFixation,jsons/VE125_randls_17_rotated.json,http://54.235.29.9/FacialAge/BNav_EC2/DepthDuration/v2_depth_duration_MTurk/v2_DepthDuration_HTML.html#299,299,1821,833,1366,768,8-30-2022,11-29-38,45,depth_duration_stimuli/000137_2014-05-20_17-04-49_260595134347_rgbf000120-resize_1/000137_2014-05-20_17-04-49_260595134347_rgbf000120-resize_1-target.png,125,3.786,2,4515,126,meters,jsons/VE125_randls_17_rotated.json,1029737,1497710,25,Man
45,542475,DepthScenes,duration_manipulation_targetAtFixation,jsons/VE125_randls_17_rotated.json,http://54.235.29.9/FacialAge/BNav_EC2/DepthDuration/v2_depth_duration_MTurk/v2_DepthDuration_HTML.html#299,299,1821,833,1366,768,8-30-2022,11-29-38,46,depth_duration_stimuli/000736_2014-06-08_18-24-15_260595134347_rgbf000206-resize_3/000736_2014-06-08_18-24-15_260595134347_rgbf000206-resize_3-target.png,125,3.515,1,3177,125,meters,jsons/VE125_randls_17_rotated.json,1029737,1497710,25,Man
46,542475,DepthScenes,duration_manipulation_targetAtFixation,jsons/VE125_randls_17_rotated.json,http://54.235.29.9/FacialAge/BNav_EC2/DepthDuration/v2_depth_duration_MTurk/v2_DepthDuration_HTML.html#299,299,1821,833,1366,768,8-30-2022,11-29-38,47,depth_duration_stimuli/003338_2014-05-20_11-01-23_094959634447_rgbf000051-resize_6/003338_2014-05-20_11-01-23_094959634447_rgbf000051-resize_6-target.png,125,1.693,1,3962,125,meters,jsons/VE125_randls_17_rotated.json,1029737,1497710,25,Man
47,542475,DepthScenes,duration_manipulation_targetAtFixation,jsons/VE125_randls_17_rotated.json,http://54.235.29.9/FacialAge/BNav_EC2/DepthDuration/v2_depth_duration_MTurk/v2_DepthDuration_HTML.html#299,299,1821,833,1366,768,8-30-2022,11-29-38,48,depth_duration_stimuli/002509_2014-06-24_13-19-22_094959634447_rgbf000077-resize_0/002509_2014-06-24_13-19-22_094959634447_rgbf000077-resize_0-target.png,125,1.3065,1,3675,125,meters,jsons/VE125_randls_17_rotated.json,1029737,1497710,25,Man
48,542475,DepthScenes,duration_manipulation_targetAtFixation,jsons/VE125_randls_17_rotated.json,http://54.235.29.9/FacialAge/BNav_EC2/DepthDuration/v2_depth_duration_MTurk/v2_DepthDuration_HTML.html#299,299,1821,833,1366,768,8-30-2022,11-29-38,49,depth_duration_stimuli/001170_2014-06-17_15-43-44_260595134347_rgbf000096-resize_6/001170_2014-06-17_15-43-44_260595134347_rgbf000096-resize-original.jpg,125,1.1909999999999998,0,3307,125,meters,jsons/VE125_randls_17_rotated.json,1029737,1497710,25,Man
49,542475,DepthScenes,duration_manipulation_targetAtFixation,jsons/VE125_randls_17_rotated.json,http://54.235.29.9/FacialAge/BNav_EC2/DepthDuration/v2_depth_duration_MTurk/v2_DepthDuration_HTML.html#299,299,1821,833,1366,768,8-30-2022,11-29-38,50,depth_duration_stimuli/001828_2014-06-26_21-40-03_260595134347_rgbf000024-resize_0/001828_2014-06-26_21-40-03_260595134347_rgbf000024-resize_0-target.png,125,4.8260000000000005,2,3876,125,meters,jsons/VE125_randls_17_rotated.json,1029737,1497710,25,Man
50,542475,DepthScenes,duration_manipulation_targetAtFixation,jsons/VE125_randls_17_rotated.json,http://54.235.29.9/FacialAge/BNav_EC2/DepthDuration/v2_depth_duration_MTurk/v2_DepthDuration_HTML.html#299,299,1821,833,1366,768,8-30-2022,11-29-38,51,depth_duration_stimuli/000009_2014-05-26_14-32-05_260595134347_rgbf000034-resize_3/000009_2014-05-26_14-32-05_260595134347_rgbf000034-resize_3-target.png,125,3.8715,2,3450,125,meters,jsons/VE125_randls_17_rotated.json,1029737,1497710,25,Man
51,542475,DepthScenes,duration_manipulation_targetAtFixation,jsons/VE125_randls_17_rotated.json,http://54.235.29.9/FacialAge/BNav_EC2/DepthDuration/v2_depth_duration_MTurk/v2_DepthDuration_HTML.html#299,299,1821,833,1366,768,8-30-2022,11-29-38,52,depth_duration_stimuli/000103_2014-05-14_22-01-17_260595134347_rgbf000152-resize_5/000103_2014-05-14_22-01-17_260595134347_rgbf000152-resize_5-target.png,125,1.993,1,3299,126,meters,jsons/VE125_randls_17_rotated.json,1029737,1497710,25,Man
52,542475,DepthScenes,duration_manipulation_targetAtFixation,jsons/VE125_randls_17_rotated.json,http://54.235.29.9/FacialAge/BNav_EC2/DepthDuration/v2_depth_duration_MTurk/v2_DepthDuration_HTML.html#299,299,1821,833,1366,768,8-30-2022,11-29-38,53,depth_duration_stimuli/001555_2014-06-20_17-12-10_260595134347_rgbf000065-resize_4/001555_2014-06-20_17-12-10_260595134347_rgbf000065-resize_4-target.png,125,1.633,1,3370,125,meters,jsons/VE125_randls_17_rotated.json,1029737,1497710,25,Man
53,542475,DepthScenes,duration_manipulation_targetAtFixation,jsons/VE125_randls_17_rotated.json,http://54.235.29.9/FacialAge/BNav_EC2/DepthDuration/v2_depth_duration_MTurk/v2_DepthDuration_HTML.html#299,299,1821,833,1366,768,8-30-2022,11-29-38,54,depth_duration_stimuli/002953_2014-06-08_17-32-18_094959634447_rgbf000059-resize_5/002953_2014-06-08_17-32-18_094959634447_rgbf000059-resize_5-target.png,125,1.551,1,3009,124,meters,jsons/VE125_randls_17_rotated.json,1029737,1497710,25,Man
54,542475,DepthScenes,duration_manipulation_targetAtFixation,jsons/VE125_randls_17_rotated.json,http://54.235.29.9/FacialAge/BNav_EC2/DepthDuration/v2_depth_duration_MTurk/v2_DepthDuration_HTML.html#299,299,1821,833,1366,768,8-30-2022,11-29-38,55,depth_duration_stimuli/000878_2014-06-08_22-52-45_260595134347_rgbf000045-resize_2/000878_2014-06-08_22-52-45_260595134347_rgbf000045-resize_2-target.png,125,2.092,2,3267,125,meters,jsons/VE125_randls_17_rotated.json,1029737,1497710,25,Man
55,542475,DepthScenes,duration_manipulation_targetAtFixation,jsons/VE125_randls_17_rotated.json,http://54.235.29.9/FacialAge/BNav_EC2/DepthDuration/v2_depth_duration_MTurk/v2_DepthDuration_HTML.html#299,299,1821,833,1366,768,8-30-2022,11-29-38,56,depth_duration_stimuli/001214_2014-06-17_16-13-55_260595134347_rgbf000111-resize_0/001214_2014-06-17_16-13-55_260595134347_rgbf000111-resize_0-target.png,125,2.6505,1,3641,125,meters,jsons/VE125_randls_17_rotated.json,1029737,1497710,25,Man
56,542475,DepthScenes,duration_manipulation_targetAtFixation,jsons/VE125_randls_17_rotated.json,http://54.235.29.9/FacialAge/BNav_EC2/DepthDuration/v2_depth_duration_MTurk/v2_DepthDuration_HTML.html#299,299,1821,833,1366,768,8-30-2022,11-29-38,57,depth_duration_stimuli/000810_2014-06-08_17-20-01_260595134347_rgbf000105-resize_0/000810_2014-06-08_17-20-01_260595134347_rgbf000105-resize_0-target.png,125,1.4865,2,3369,126,meters,jsons/VE125_randls_17_rotated.json,1029737,1497710,25,Man
57,542475,DepthScenes,duration_manipulation_targetAtFixation,jsons/VE125_randls_17_rotated.json,http://54.235.29.9/FacialAge/BNav_EC2/DepthDuration/v2_depth_duration_MTurk/v2_DepthDuration_HTML.html#299,299,1821,833,1366,768,8-30-2022,11-29-38,58,depth_duration_stimuli/002639_2014-06-24_14-51-37_094959634447_rgbf000074-resize_4/002639_2014-06-24_14-51-37_094959634447_rgbf000074-resize_4-target.png,125,4.0375,2,3316,125,meters,jsons/VE125_randls_17_rotated.json,1029737,1497710,25,Man
58,542475,DepthScenes,duration_manipulation_targetAtFixation,jsons/VE125_randls_17_rotated.json,http://54.235.29.9/FacialAge/BNav_EC2/DepthDuration/v2_depth_duration_MTurk/v2_DepthDuration_HTML.html#299,299,1821,833,1366,768,8-30-2022,11-29-38,59,depth_duration_stimuli/003292_2014-05-14_21-53-49_094959634447_rgbf000100-resize_2/003292_2014-05-14_21-53-49_094959634447_rgbf000100-resize_2-target.png,125,3.4815,1,3355,125,meters,jsons/VE125_randls_17_rotated.json,1029737,1497710,25,Man
59,542475,DepthScenes,duration_manipulation_targetAtFixation,jsons/VE125_randls_17_rotated.json,http://54.235.29.9/FacialAge/BNav_EC2/DepthDuration/v2_depth_duration_MTurk/v2_DepthDuration_HTML.html#299,299,1821,833,1366,768,8-30-2022,11-29-38,60,depth_duration_stimuli/003490_2014-05-21_15-50-11_094959634447_rgbf000101-resize_3/003490_2014-05-21_15-50-11_094959634447_rgbf000101-resize_3-target.png,125,3.6445,2,3413,126,meters,jsons/VE125_randls_17_rotated.json,1029737,1497710,25,Man
60,542475,DepthScenes,duration_manipulation_targetAtFixation,jsons/VE125_randls_17_rotated.json,http://54.235.29.9/FacialAge/BNav_EC2/DepthDuration/v2_depth_duration_MTurk/v2_DepthDuration_HTML.html#299,299,1821,833,1366,768,8-30-2022,11-29-38,61,depth_duration_stimuli/001175_2014-06-17_15-45-55_260595134347_rgbf000129-resize_4/001175_2014-06-17_15-45-55_260595134347_rgbf000129-resize_4-target.png,125,4.255,1,199774,124,meters,jsons/VE125_randls_17_rotated.json,1029737,1497710,25,Man
61,542475,DepthScenes,duration_manipulation_targetAtFixation,jsons/VE125_randls_17_rotated.json,http://54.235.29.9/FacialAge/BNav_EC2/DepthDuration/v2_depth_duration_MTurk/v2_DepthDuration_HTML.html#299,299,1821,833,1366,768,8-30-2022,11-29-38,62,depth_duration_stimuli/001571_2014-06-20_17-21-32_260595134347_rgbf000089-resize_1/001571_2014-06-20_17-21-32_260595134347_rgbf000089-resize_1-target.png,125,1.86,1,3654,124,meters,jsons/VE125_randls_17_rotated.json,1029737,1497710,25,Man
62,542475,DepthScenes,duration_manipulation_targetAtFixation,jsons/VE125_randls_17_rotated.json,http://54.235.29.9/FacialAge/BNav_EC2/DepthDuration/v2_depth_duration_MTurk/v2_DepthDuration_HTML.html#299,299,1821,833,1366,768,8-30-2022,11-29-38,63,depth_duration_stimuli/002272_2014-06-28_18-53-56_260595134347_rgbf000067-resize_2/002272_2014-06-28_18-53-56_260595134347_rgbf000067-resize_2-target.png,125,1.138,1,3069,125,meters,jsons/VE125_randls_17_rotated.json,1029737,1497710,25,Man
63,542475,DepthScenes,duration_manipulation_targetAtFixation,jsons/VE125_randls_17_rotated.json,http://54.235.29.9/FacialAge/BNav_EC2/DepthDuration/v2_depth_duration_MTurk/v2_DepthDuration_HTML.html#299,299,1821,833,1366,768,8-30-2022,11-29-38,64,depth_duration_stimuli/003129_2014-05-12_10-48-10_094959634447_rgbf000100-resize_0/003129_2014-05-12_10-48-10_094959634447_rgbf000100-resize_0-target.png,125,4.9305,2,3219,125,meters,jsons/VE125_randls_17_rotated.json,1029737,1497710,25,Man
64,542475,DepthScenes,duration_manipulation_targetAtFixation,jsons/VE125_randls_17_rotated.json,http://54.235.29.9/FacialAge/BNav_EC2/DepthDuration/v2_depth_duration_MTurk/v2_DepthDuration_HTML.html#299,299,1821,833,1366,768,8-30-2022,11-29-38,65,depth_duration_stimuli/000414_2014-06-04_19-49-13_260595134347_rgbf000044-resize_0/000414_2014-06-04_19-49-13_260595134347_rgbf000044-resize_0-target.png,125,4.329,2,3347,125,meters,jsons/VE125_randls_17_rotated.json,1029737,1497710,25,Man
65,542475,DepthScenes,duration_manipulation_targetAtFixation,jsons/VE125_randls_17_rotated.json,http://54.235.29.9/FacialAge/BNav_EC2/DepthDuration/v2_depth_duration_MTurk/v2_DepthDuration_HTML.html#299,299,1821,833,1366,768,8-30-2022,11-29-38,66,depth_duration_stimuli/001540_2014-06-20_17-01-05_260595134347_rgbf000086-resize_2/001540_2014-06-20_17-01-05_260595134347_rgbf000086-resize-original.jpg,125,1.459,0,3084,126,meters,jsons/VE125_randls_17_rotated.json,1029737,1497710,25,Man
66,542475,DepthScenes,duration_manipulation_targetAtFixation,jsons/VE125_randls_17_rotated.json,http://54.235.29.9/FacialAge/BNav_EC2/DepthDuration/v2_depth_duration_MTurk/v2_DepthDuration_HTML.html#299,299,1821,833,1366,768,8-30-2022,11-29-38,67,depth_duration_stimuli/000927_2014-06-09_16-32-30_260595134347_rgbf000123-resize_3/000927_2014-06-09_16-32-30_260595134347_rgbf000123-resize_3-target.png,125,2.6785,2,5391,124,meters,jsons/VE125_randls_17_rotated.json,1029737,1497710,25,Man
67,542475,DepthScenes,duration_manipulation_targetAtFixation,jsons/VE125_randls_17_rotated.json,http://54.235.29.9/FacialAge/BNav_EC2/DepthDuration/v2_depth_duration_MTurk/v2_DepthDuration_HTML.html#299,299,1821,833,1366,768,8-30-2022,11-29-38,68,depth_duration_stimuli/001110_2014-06-15_17-25-28_260595134347_rgbf000150-resize_1/001110_2014-06-15_17-25-28_260595134347_rgbf000150-resize_1-target.png,125,1.7115,2,3378,125,meters,jsons/VE125_randls_17_rotated.json,1029737,1497710,25,Man
68,542475,DepthScenes,duration_manipulation_targetAtFixation,jsons/VE125_randls_17_rotated.json,http://54.235.29.9/FacialAge/BNav_EC2/DepthDuration/v2_depth_duration_MTurk/v2_DepthDuration_HTML.html#299,299,1821,833,1366,768,8-30-2022,11-29-38,69,depth_duration_stimuli/002344_2014-06-28_20-06-29_260595134347_rgbf000030-resize_1/002344_2014-06-28_20-06-29_260595134347_rgbf000030-resize_1-target.png,125,1.5795,1,3283,125,meters,jsons/VE125_randls_17_rotated.json,1029737,1497710,25,Man
69,542475,DepthScenes,duration_manipulation_targetAtFixation,jsons/VE125_randls_17_rotated.json,http://54.235.29.9/FacialAge/BNav_EC2/DepthDuration/v2_depth_duration_MTurk/v2_DepthDuration_HTML.html#299,299,1821,833,1366,768,8-30-2022,11-29-38,70,depth_duration_stimuli/002725_2014-06-22_11-47-51_094959634447_rgbf000070-resize_1/002725_2014-06-22_11-47-51_094959634447_rgbf000070-resize_1-target.png,125,2.195,1,5614,126,meters,jsons/VE125_randls_17_rotated.json,1029737,1497710,25,Man
70,542475,DepthScenes,duration_manipulation_targetAtFixation,jsons/VE125_randls_17_rotated.json,http://54.235.29.9/FacialAge/BNav_EC2/DepthDuration/v2_depth_duration_MTurk/v2_DepthDuration_HTML.html#299,299,1821,833,1366,768,8-30-2022,11-29-38,71,depth_duration_stimuli/002758_2014-06-22_19-11-20_094959634447_rgbf000128-resize_1/002758_2014-06-22_19-11-20_094959634447_rgbf000128-resize_1-target.png,125,2.555,1,4312,126,meters,jsons/VE125_randls_17_rotated.json,1029737,1497710,25,Man
71,542475,DepthScenes,duration_manipulation_targetAtFixation,jsons/VE125_randls_17_rotated.json,http://54.235.29.9/FacialAge/BNav_EC2/DepthDuration/v2_depth_duration_MTurk/v2_DepthDuration_HTML.html#299,299,1821,833,1366,768,8-30-2022,11-29-38,72,depth_duration_stimuli/002630_2014-06-24_14-47-50_094959634447_rgbf000055-resize_1/002630_2014-06-24_14-47-50_094959634447_rgbf000055-resize_1-target.png,125,3.0095,2,2932,126,meters,jsons/VE125_randls_17_rotated.json,1029737,1497710,25,Man
72,542475,DepthScenes,duration_manipulation_targetAtFixation,jsons/VE125_randls_17_rotated.json,http://54.235.29.9/FacialAge/BNav_EC2/DepthDuration/v2_depth_duration_MTurk/v2_DepthDuration_HTML.html#299,299,1821,833,1366,768,8-30-2022,11-29-38,73,depth_duration_stimuli/002340_2014-06-28_20-05-46_260595134347_rgbf000113-resize_0/002340_2014-06-28_20-05-46_260595134347_rgbf000113-resize_0-target.png,125,2.4735,2,4369,125,meters,jsons/VE125_randls_17_rotated.json,1029737,1497710,25,Man
73,542475,DepthScenes,duration_manipulation_targetAtFixation,jsons/VE125_randls_17_rotated.json,http://54.235.29.9/FacialAge/BNav_EC2/DepthDuration/v2_depth_duration_MTurk/v2_DepthDuration_HTML.html#299,299,1821,833,1366,768,8-30-2022,11-29-38,74,depth_duration_stimuli/001016_2014-06-09_16-16-10_260595134347_rgbf000112-resize_5/001016_2014-06-09_16-16-10_260595134347_rgbf000112-resize_5-target.png,125,1.6565,2,3378,124,meters,jsons/VE125_randls_17_rotated.json,1029737,1497710,25,Man
74,542475,DepthScenes,duration_manipulation_targetAtFixation,jsons/VE125_randls_17_rotated.json,http://54.235.29.9/FacialAge/BNav_EC2/DepthDuration/v2_depth_duration_MTurk/v2_DepthDuration_HTML.html#299,299,1821,833,1366,768,8-30-2022,11-29-38,75,depth_duration_stimuli/001450_2014-06-19_17-02-03_260595134347_rgbf000203-resize_4/001450_2014-06-19_17-02-03_260595134347_rgbf000203-resize_4-target.png,125,4.0106666666667,1,13589,125,meters,jsons/VE125_randls_17_rotated.json,1029737,1497710,25,Man
75,542475,DepthScenes,duration_manipulation_targetAtFixation,jsons/VE125_randls_17_rotated.json,http://54.235.29.9/FacialAge/BNav_EC2/DepthDuration/v2_depth_duration_MTurk/v2_DepthDuration_HTML.html#299,299,1821,833,1366,768,8-30-2022,11-29-38,76,depth_duration_stimuli/001449_2014-06-19_17-01-27_260595134347_rgbf000116-resize_2/001449_2014-06-19_17-01-27_260595134347_rgbf000116-resize_2-target.png,125,3.452,2,3316,125,meters,jsons/VE125_randls_17_rotated.json,1029737,1497710,25,Man
76,542475,DepthScenes,duration_manipulation_targetAtFixation,jsons/VE125_randls_17_rotated.json,http://54.235.29.9/FacialAge/BNav_EC2/DepthDuration/v2_depth_duration_MTurk/v2_DepthDuration_HTML.html#299,299,1821,833,1366,768,8-30-2022,11-29-38,77,depth_duration_stimuli/002323_2014-06-28_20-01-54_260595134347_rgbf000051-resize_4/002323_2014-06-28_20-01-54_260595134347_rgbf000051-resize_4-target.png,125,3.7310000000000003,2,3456,124,meters,jsons/VE125_randls_17_rotated.json,1029737,1497710,25,Man
77,542475,DepthScenes,duration_manipulation_targetAtFixation,jsons/VE125_randls_17_rotated.json,http://54.235.29.9/FacialAge/BNav_EC2/DepthDuration/v2_depth_duration_MTurk/v2_DepthDuration_HTML.html#299,299,1821,833,1366,768,8-30-2022,11-29-38,78,depth_duration_stimuli/000917_2014-06-09_22-45-29_260595134347_rgbf000149-resize_3/000917_2014-06-09_22-45-29_260595134347_rgbf000149-resize_3-target.png,125,4.1865,2,3522,126,meters,jsons/VE125_randls_17_rotated.json,1029737,1497710,25,Man
78,542475,DepthScenes,duration_manipulation_targetAtFixation,jsons/VE125_randls_17_rotated.json,http://54.235.29.9/FacialAge/BNav_EC2/DepthDuration/v2_depth_duration_MTurk/v2_DepthDuration_HTML.html#299,299,1821,833,1366,768,8-30-2022,11-29-38,79,depth_duration_stimuli/000749_2014-06-08_21-55-06_260595134347_rgbf000070-resize_2/000749_2014-06-08_21-55-06_260595134347_rgbf000070-resize_2-target.png,125,2.331,2,3082,126,meters,jsons/VE125_randls_17_rotated.json,1029737,1497710,25,Man
79,542475,DepthScenes,duration_manipulation_targetAtFixation,jsons/VE125_randls_17_rotated.json,http://54.235.29.9/FacialAge/BNav_EC2/DepthDuration/v2_depth_duration_MTurk/v2_DepthDuration_HTML.html#299,299,1821,833,1366,768,8-30-2022,11-29-38,80,depth_duration_stimuli/002788_2014-06-22_19-36-03_094959634447_rgbf000088-resize_2/002788_2014-06-22_19-36-03_094959634447_rgbf000088-resize_2-target.png,125,1.6465,2,3260,126,meters,jsons/VE125_randls_17_rotated.json,1029737,1497710,25,Man
80,542475,DepthScenes,duration_manipulation_targetAtFixation,jsons/VE125_randls_17_rotated.json,http://54.235.29.9/FacialAge/BNav_EC2/DepthDuration/v2_depth_duration_MTurk/v2_DepthDuration_HTML.html#299,299,1821,833,1366,768,8-30-2022,11-29-38,81,depth_duration_stimuli/002678_2014-06-13_16-15-32_094959634447_rgbf000151-resize_6/002678_2014-06-13_16-15-32_094959634447_rgbf000151-resize_6-target.png,125,2.1830000000000003,2,3429,126,meters,jsons/VE125_randls_17_rotated.json,1029737,1497710,25,Man
81,542475,DepthScenes,duration_manipulation_targetAtFixation,jsons/VE125_randls_17_rotated.json,http://54.235.29.9/FacialAge/BNav_EC2/DepthDuration/v2_depth_duration_MTurk/v2_DepthDuration_HTML.html#299,299,1821,833,1366,768,8-30-2022,11-29-38,82,depth_duration_stimuli/000368_2014-06-09_15-53-01_260595134347_rgbf000155-resize_2/000368_2014-06-09_15-53-01_260595134347_rgbf000155-resize_2-target.png,125,2.4859999999999998,0,3392,125,meters,jsons/VE125_randls_17_rotated.json,1029737,1497710,25,Man
82,542475,DepthScenes,duration_manipulation_targetAtFixation,jsons/VE125_randls_17_rotated.json,http://54.235.29.9/FacialAge/BNav_EC2/DepthDuration/v2_depth_duration_MTurk/v2_DepthDuration_HTML.html#299,299,1821,833,1366,768,8-30-2022,11-29-38,83,depth_duration_stimuli/000742_2014-06-08_18-48-09_260595134347_rgbf000164-resize_4/000742_2014-06-08_18-48-09_260595134347_rgbf000164-resize_4-target.png,125,4.632,2,3668,126,meters,jsons/VE125_randls_17_rotated.json,1029737,1497710,25,Man
83,542475,DepthScenes,duration_manipulation_targetAtFixation,jsons/VE125_randls_17_rotated.json,http://54.235.29.9/FacialAge/BNav_EC2/DepthDuration/v2_depth_duration_MTurk/v2_DepthDuration_HTML.html#299,299,1821,833,1366,768,8-30-2022,11-29-38,84,depth_duration_stimuli/001066_2014-06-08_22-03-20_260595134347_rgbf000066-resize_4/001066_2014-06-08_22-03-20_260595134347_rgbf000066-resize_4-target.png,125,4.2330000000000005,2,3426,125,meters,jsons/VE125_randls_17_rotated.json,1029737,1497710,25,Man
84,542475,DepthScenes,duration_manipulation_targetAtFixation,jsons/VE125_randls_17_rotated.json,http://54.235.29.9/FacialAge/BNav_EC2/DepthDuration/v2_depth_duration_MTurk/v2_DepthDuration_HTML.html#299,299,1821,833,1366,768,8-30-2022,11-29-38,85,depth_duration_stimuli/002949_2014-06-26_15-57-42_094959634447_rgbf000079-resize_1/002949_2014-06-26_15-57-42_094959634447_rgbf000079-resize_1-target.png,125,1.8915,2,59500,126,meters,jsons/VE125_randls_17_rotated.json,1029737,1497710,25,Man
85,542475,DepthScenes,duration_manipulation_targetAtFixation,jsons/VE125_randls_17_rotated.json,http://54.235.29.9/FacialAge/BNav_EC2/DepthDuration/v2_depth_duration_MTurk/v2_DepthDuration_HTML.html#299,299,1821,833,1366,768,8-30-2022,11-29-38,86,depth_duration_stimuli/000522_2014-06-08_13-35-06_260595134347_rgbf000244-resize_1/000522_2014-06-08_13-35-06_260595134347_rgbf000244-resize_1-target.png,125,2.3715,1,3184,125,meters,jsons/VE125_randls_17_rotated.json,1029737,1497710,25,Man
86,542475,DepthScenes,duration_manipulation_targetAtFixation,jsons/VE125_randls_17_rotated.json,http://54.235.29.9/FacialAge/BNav_EC2/DepthDuration/v2_depth_duration_MTurk/v2_DepthDuration_HTML.html#299,299,1821,833,1366,768,8-30-2022,11-29-38,87,depth_duration_stimuli/000549_2014-06-08_22-10-24_260595134347_rgbf000247-resize_3/000549_2014-06-08_22-10-24_260595134347_rgbf000247-resize_3-target.png,125,1.841,1,4238,125,meters,jsons/VE125_randls_17_rotated.json,1029737,1497710,25,Man
87,542475,DepthScenes,duration_manipulation_targetAtFixation,jsons/VE125_randls_17_rotated.json,http://54.235.29.9/FacialAge/BNav_EC2/DepthDuration/v2_depth_duration_MTurk/v2_DepthDuration_HTML.html#299,299,1821,833,1366,768,8-30-2022,11-29-38,88,depth_duration_stimuli/001055_2014-06-08_18-45-35_260595134347_rgbf000111-resize_4/001055_2014-06-08_18-45-35_260595134347_rgbf000111-resize_4-target.png,125,2.4290000000000003,2,3641,126,meters,jsons/VE125_randls_17_rotated.json,1029737,1497710,25,Man
88,542475,DepthScenes,duration_manipulation_targetAtFixation,jsons/VE125_randls_17_rotated.json,http://54.235.29.9/FacialAge/BNav_EC2/DepthDuration/v2_depth_duration_MTurk/v2_DepthDuration_HTML.html#299,299,1821,833,1366,768,8-30-2022,11-29-38,89,depth_duration_stimuli/001650_2014-06-20_12-09-00_260595134347_rgbf000087-resize_3/001650_2014-06-20_12-09-00_260595134347_rgbf000087-resize_3-target.png,125,1.9505,1,3075,126,meters,jsons/VE125_randls_17_rotated.json,1029737,1497710,25,Man
89,542475,DepthScenes,duration_manipulation_targetAtFixation,jsons/VE125_randls_17_rotated.json,http://54.235.29.9/FacialAge/BNav_EC2/DepthDuration/v2_depth_duration_MTurk/v2_DepthDuration_HTML.html#299,299,1821,833,1366,768,8-30-2022,11-29-38,90,depth_duration_stimuli/000682_2014-06-08_23-14-58_260595134347_rgbf000041-resize_5/000682_2014-06-08_23-14-58_260595134347_rgbf000041-resize_5-target.png,125,2.7239999999999998,2,4769,125,meters,jsons/VE125_randls_17_rotated.json,1029737,1497710,25,Man
90,542475,DepthScenes,duration_manipulation_targetAtFixation,jsons/VE125_randls_17_rotated.json,http://54.235.29.9/FacialAge/BNav_EC2/DepthDuration/v2_depth_duration_MTurk/v2_DepthDuration_HTML.html#299,299,1821,833,1366,768,8-30-2022,11-29-38,91,depth_duration_stimuli/001100_2014-06-15_17-46-26_260595134347_rgbf000225-resize_2/001100_2014-06-15_17-46-26_260595134347_rgbf000225-resize_2-target.png,125,2.24,0,3947,126,meters,jsons/VE125_randls_17_rotated.json,1029737,1497710,25,Man
91,542475,DepthScenes,duration_manipulation_targetAtFixation,jsons/VE125_randls_17_rotated.json,http://54.235.29.9/FacialAge/BNav_EC2/DepthDuration/v2_depth_duration_MTurk/v2_DepthDuration_HTML.html#299,299,1821,833,1366,768,8-30-2022,11-29-38,92,depth_duration_stimuli/002784_2014-06-22_19-26-30_094959634447_rgbf000083-resize_3/002784_2014-06-22_19-26-30_094959634447_rgbf000083-resize_3-target.png,125,1.8046666666667,2,4186,126,meters,jsons/VE125_randls_17_rotated.json,1029737,1497710,25,Man
92,542475,DepthScenes,duration_manipulation_targetAtFixation,jsons/VE125_randls_17_rotated.json,http://54.235.29.9/FacialAge/BNav_EC2/DepthDuration/v2_depth_duration_MTurk/v2_DepthDuration_HTML.html#299,299,1821,833,1366,768,8-30-2022,11-29-38,93,depth_duration_stimuli/002545_2014-06-24_13-38-53_094959634447_rgbf000080-resize_4/002545_2014-06-24_13-38-53_094959634447_rgbf000080-resize_4-target.png,125,1.9205,2,3587,125,meters,jsons/VE125_randls_17_rotated.json,1029737,1497710,25,Man
93,542475,DepthScenes,duration_manipulation_targetAtFixation,jsons/VE125_randls_17_rotated.json,http://54.235.29.9/FacialAge/BNav_EC2/DepthDuration/v2_depth_duration_MTurk/v2_DepthDuration_HTML.html#299,299,1821,833,1366,768,8-30-2022,11-29-38,94,depth_duration_stimuli/001092_2014-06-15_17-34-58_260595134347_rgbf000171-resize_3/001092_2014-06-15_17-34-58_260595134347_rgbf000171-resize_3-target.png,125,2.6935,2,4047,126,meters,jsons/VE125_randls_17_rotated.json,1029737,1497710,25,Man
94,542475,DepthScenes,duration_manipulation_targetAtFixation,jsons/VE125_randls_17_rotated.json,http://54.235.29.9/FacialAge/BNav_EC2/DepthDuration/v2_depth_duration_MTurk/v2_DepthDuration_HTML.html#299,299,1821,833,1366,768,8-30-2022,11-29-38,95,depth_duration_stimuli/000854_2014-06-09_19-43-13_260595134347_rgbf000066-resize_0/000854_2014-06-09_19-43-13_260595134347_rgbf000066-resize_0-target.png,125,3.068,1,3960,126,meters,jsons/VE125_randls_17_rotated.json,1029737,1497710,25,Man
95,542475,DepthScenes,duration_manipulation_targetAtFixation,jsons/VE125_randls_17_rotated.json,http://54.235.29.9/FacialAge/BNav_EC2/DepthDuration/v2_depth_duration_MTurk/v2_DepthDuration_HTML.html#299,299,1821,833,1366,768,8-30-2022,11-29-38,96,depth_duration_stimuli/000758_2014-06-08_22-05-08_260595134347_rgbf000085-resize_0/000758_2014-06-08_22-05-08_260595134347_rgbf000085-resize_0-target.png,125,3.3810000000000002,2,3320,125,meters,jsons/VE125_randls_17_rotated.json,1029737,1497710,25,Man
96,542475,DepthScenes,duration_manipulation_targetAtFixation,jsons/VE125_randls_17_rotated.json,http://54.235.29.9/FacialAge/BNav_EC2/DepthDuration/v2_depth_duration_MTurk/v2_DepthDuration_HTML.html#299,299,1821,833,1366,768,8-30-2022,11-29-38,97,depth_duration_stimuli/000191_2014-05-12_17-07-38_260595134347_rgbf000199-resize_0/000191_2014-05-12_17-07-38_260595134347_rgbf000199-resize_0-target.png,125,3.7995,2,14550,126,meters,jsons/VE125_randls_17_rotated.json,1029737,1497710,25,Man
97,542475,DepthScenes,duration_manipulation_targetAtFixation,jsons/VE125_randls_17_rotated.json,http://54.235.29.9/FacialAge/BNav_EC2/DepthDuration/v2_depth_duration_MTurk/v2_DepthDuration_HTML.html#299,299,1821,833,1366,768,8-30-2022,11-29-38,98,depth_duration_stimuli/000493_2014-06-09_21-01-18_260595134347_rgbf000196-resize_3/000493_2014-06-09_21-01-18_260595134347_rgbf000196-resize_3-target.png,125,3.44,1,3215,125,meters,jsons/VE125_randls_17_rotated.json,1029737,1497710,25,Man
98,542475,DepthScenes,duration_manipulation_targetAtFixation,jsons/VE125_randls_17_rotated.json,http://54.235.29.9/FacialAge/BNav_EC2/DepthDuration/v2_depth_duration_MTurk/v2_DepthDuration_HTML.html#299,299,1821,833,1366,768,8-30-2022,11-29-38,99,depth_duration_stimuli/001222_2014-06-17_16-24-06_260595134347_rgbf000073-resize_0/001222_2014-06-17_16-24-06_260595134347_rgbf000073-resize-original.jpg,125,1.4385,0,3133,126,meters,jsons/VE125_randls_17_rotated.json,1029737,1497710,25,Man
99,542475,DepthScenes,duration_manipulation_targetAtFixation,jsons/VE125_randls_17_rotated.json,http://54.235.29.9/FacialAge/BNav_EC2/DepthDuration/v2_depth_duration_MTurk/v2_DepthDuration_HTML.html#299,299,1821,833,1366,768,8-30-2022,11-29-38,100,depth_duration_stimuli/002660_2014-06-13_15-44-18_094959634447_rgbf001878-resize_2/002660_2014-06-13_15-44-18_094959634447_rgbf001878-resize_2-target.png,125,3.576,2,5570,126,meters,jsons/VE125_randls_17_rotated.json,1029737,1497710,25,Man
100,542475,DepthScenes,duration_manipulation_targetAtFixation,jsons/VE125_randls_17_rotated.json,http://54.235.29.9/FacialAge/BNav_EC2/DepthDuration/v2_depth_duration_MTurk/v2_DepthDuration_HTML.html#299,299,1821,833,1366,768,8-30-2022,11-29-38,101,depth_duration_stimuli/002153_2014-06-25_21-27-18_260595134347_rgbf000038-resize_5/002153_2014-06-25_21-27-18_260595134347_rgbf000038-resize_5-target.png,125,2.505,1,3628,125,meters,jsons/VE125_randls_17_rotated.json,1029737,1497710,25,Man
101,542475,DepthScenes,duration_manipulation_targetAtFixation,jsons/VE125_randls_17_rotated.json,http://54.235.29.9/FacialAge/BNav_EC2/DepthDuration/v2_depth_duration_MTurk/v2_DepthDuration_HTML.html#299,299,1821,833,1366,768,8-30-2022,11-29-38,102,depth_duration_stimuli/000866_2014-06-09_20-45-42_260595134347_rgbf000139-resize_1/000866_2014-06-09_20-45-42_260595134347_rgbf000139-resize_1-target.png,125,3.2155,3,3571,126,meters,jsons/VE125_randls_17_rotated.json,1029737,1497710,25,Man
102,542475,DepthScenes,duration_manipulation_targetAtFixation,jsons/VE125_randls_17_rotated.json,http://54.235.29.9/FacialAge/BNav_EC2/DepthDuration/v2_depth_duration_MTurk/v2_DepthDuration_HTML.html#299,299,1821,833,1366,768,8-30-2022,11-29-38,103,depth_duration_stimuli/002989_2014-06-15_12-25-03_094959634447_rgbf000150-resize_3/002989_2014-06-15_12-25-03_094959634447_rgbf000150-resize_3-target.png,125,4.1975,2,4482,125,meters,jsons/VE125_randls_17_rotated.json,1029737,1497710,25,Man
103,542475,DepthScenes,duration_manipulation_targetAtFixation,jsons/VE125_randls_17_rotated.json,http://54.235.29.9/FacialAge/BNav_EC2/DepthDuration/v2_depth_duration_MTurk/v2_DepthDuration_HTML.html#299,299,1821,833,1366,768,8-30-2022,11-29-38,104,depth_duration_stimuli/002136_2014-06-25_21-18-03_260595134347_rgbf000109-resize_3/002136_2014-06-25_21-18-03_260595134347_rgbf000109-resize_3-target.png,125,1.9569999999999999,1,5076,125,meters,jsons/VE125_randls_17_rotated.json,1029737,1497710,25,Man
104,542475,DepthScenes,duration_manipulation_targetAtFixation,jsons/VE125_randls_17_rotated.json,http://54.235.29.9/FacialAge/BNav_EC2/DepthDuration/v2_depth_duration_MTurk/v2_DepthDuration_HTML.html#299,299,1821,833,1366,768,8-30-2022,11-29-38,105,depth_duration_stimuli/002964_2014-06-08_17-46-11_094959634447_rgbf000091-resize_4/002964_2014-06-08_17-46-11_094959634447_rgbf000091-resize_4-target.png,125,1.6909999999999998,1,3316,126,meters,jsons/VE125_randls_17_rotated.json,1029737,1497710,25,Man
105,542475,DepthScenes,duration_manipulation_targetAtFixation,jsons/VE125_randls_17_rotated.json,http://54.235.29.9/FacialAge/BNav_EC2/DepthDuration/v2_depth_duration_MTurk/v2_DepthDuration_HTML.html#299,299,1821,833,1366,768,8-30-2022,11-29-38,106,depth_duration_stimuli/001032_2014-06-08_13-23-17_260595134347_rgbf000021-resize_3/001032_2014-06-08_13-23-17_260595134347_rgbf000021-resize_3-target.png,125,3.2725,1,3412,126,meters,jsons/VE125_randls_17_rotated.json,1029737,1497710,25,Man
106,542475,DepthScenes,duration_manipulation_targetAtFixation,jsons/VE125_randls_17_rotated.json,http://54.235.29.9/FacialAge/BNav_EC2/DepthDuration/v2_depth_duration_MTurk/v2_DepthDuration_HTML.html#299,299,1821,833,1366,768,8-30-2022,11-29-38,107,depth_duration_stimuli/001059_2014-06-08_21-53-27_260595134347_rgbf000061-resize_4/001059_2014-06-08_21-53-27_260595134347_rgbf000061-resize_4-target.png,125,2.4185,2,3271,126,meters,jsons/VE125_randls_17_rotated.json,1029737,1497710,25,Man
107,542475,DepthScenes,duration_manipulation_targetAtFixation,jsons/VE125_randls_17_rotated.json,http://54.235.29.9/FacialAge/BNav_EC2/DepthDuration/v2_depth_duration_MTurk/v2_DepthDuration_HTML.html#299,299,1821,833,1366,768,8-30-2022,11-29-38,108,depth_duration_stimuli/001052_2014-06-08_18-24-54_260595134347_rgbf000130-resize_1/001052_2014-06-08_18-24-54_260595134347_rgbf000130-resize_1-target.png,125,4.1045,2,3818,125,meters,jsons/VE125_randls_17_rotated.json,1029737,1497710,25,Man
108,542475,DepthScenes,duration_manipulation_targetAtFixation,jsons/VE125_randls_17_rotated.json,http://54.235.29.9/FacialAge/BNav_EC2/DepthDuration/v2_depth_duration_MTurk/v2_DepthDuration_HTML.html#299,299,1821,833,1366,768,8-30-2022,11-29-38,109,depth_duration_stimuli/002988_2014-06-15_12-24-20_094959634447_rgbf000150-resize_1/002988_2014-06-15_12-24-20_094959634447_rgbf000150-resize_1-target.png,125,4.7669999999999995,2,3372,125,meters,jsons/VE125_randls_17_rotated.json,1029737,1497710,25,Man
109,542475,DepthScenes,duration_manipulation_targetAtFixation,jsons/VE125_randls_17_rotated.json,http://54.235.29.9/FacialAge/BNav_EC2/DepthDuration/v2_depth_duration_MTurk/v2_DepthDuration_HTML.html#299,299,1821,833,1366,768,8-30-2022,11-29-38,110,depth_duration_stimuli/002637_2014-06-24_14-51-13_094959634447_rgbf000066-resize_4/002637_2014-06-24_14-51-13_094959634447_rgbf000066-resize_4-target.png,125,1.9955,2,5221,125,meters,jsons/VE125_randls_17_rotated.json,1029737,1497710,25,Man
110,542475,DepthScenes,duration_manipulation_targetAtFixation,jsons/VE125_randls_17_rotated.json,http://54.235.29.9/FacialAge/BNav_EC2/DepthDuration/v2_depth_duration_MTurk/v2_DepthDuration_HTML.html#299,299,1821,833,1366,768,8-30-2022,11-29-38,111,depth_duration_stimuli/003534_2014-05-22_15-06-10_094959634447_rgbf000102-resize_4/003534_2014-05-22_15-06-10_094959634447_rgbf000102-resize_4-target.png,125,1.426,1,3555,125,meters,jsons/VE125_randls_17_rotated.json,1029737,1497710,25,Man
111,542475,DepthScenes,duration_manipulation_targetAtFixation,jsons/VE125_randls_17_rotated.json,http://54.235.29.9/FacialAge/BNav_EC2/DepthDuration/v2_depth_duration_MTurk/v2_DepthDuration_HTML.html#299,299,1821,833,1366,768,8-30-2022,11-29-38,112,depth_duration_stimuli/000677_2014-06-08_23-10-32_260595134347_rgbf000158-resize_6/000677_2014-06-08_23-10-32_260595134347_rgbf000158-resize_6-target.png,125,3.556,2,3225,125,meters,jsons/VE125_randls_17_rotated.json,1029737,1497710,25,Man
112,542475,DepthScenes,duration_manipulation_targetAtFixation,jsons/VE125_randls_17_rotated.json,http://54.235.29.9/FacialAge/BNav_EC2/DepthDuration/v2_depth_duration_MTurk/v2_DepthDuration_HTML.html#299,299,1821,833,1366,768,8-30-2022,11-29-38,113,depth_duration_stimuli/001029_2014-06-08_13-17-57_260595134347_rgbf000065-resize_1/001029_2014-06-08_13-17-57_260595134347_rgbf000065-resize_1-target.png,125,3.0835,2,3173,124,meters,jsons/VE125_randls_17_rotated.json,1029737,1497710,25,Man
113,542475,DepthScenes,duration_manipulation_targetAtFixation,jsons/VE125_randls_17_rotated.json,http://54.235.29.9/FacialAge/BNav_EC2/DepthDuration/v2_depth_duration_MTurk/v2_DepthDuration_HTML.html#299,299,1821,833,1366,768,8-30-2022,11-29-38,114,depth_duration_stimuli/000780_2014-06-08_22-28-29_260595134347_rgbf000126-resize_1/000780_2014-06-08_22-28-29_260595134347_rgbf000126-resize_1-target.png,125,3.3825,2,3147,125,meters,jsons/VE125_randls_17_rotated.json,1029737,1497710,25,Man
114,542475,DepthScenes,duration_manipulation_targetAtFixation,jsons/VE125_randls_17_rotated.json,http://54.235.29.9/FacialAge/BNav_EC2/DepthDuration/v2_depth_duration_MTurk/v2_DepthDuration_HTML.html#299,299,1821,833,1366,768,8-30-2022,11-29-38,115,depth_duration_stimuli/002445_2014-06-28_20-32-16_260595134347_rgbf000029-resize_4/002445_2014-06-28_20-32-16_260595134347_rgbf000029-resize_4-target.png,125,2.5315,1,3137,124,meters,jsons/VE125_randls_17_rotated.json,1029737,1497710,25,Man
115,542475,DepthScenes,duration_manipulation_targetAtFixation,jsons/VE125_randls_17_rotated.json,http://54.235.29.9/FacialAge/BNav_EC2/DepthDuration/v2_depth_duration_MTurk/v2_DepthDuration_HTML.html#299,299,1821,833,1366,768,8-30-2022,11-29-38,116,depth_duration_stimuli/003587_2014-05-23_16-48-02_094959634447_rgbf002384-resize_2/003587_2014-05-23_16-48-02_094959634447_rgbf002384-resize_2-target.png,125,1.357,1,3049,124,meters,jsons/VE125_randls_17_rotated.json,1029737,1497710,25,Man
116,542475,DepthScenes,duration_manipulation_targetAtFixation,jsons/VE125_randls_17_rotated.json,http://54.235.29.9/FacialAge/BNav_EC2/DepthDuration/v2_depth_duration_MTurk/v2_DepthDuration_HTML.html#299,299,1821,833,1366,768,8-30-2022,11-29-38,117,depth_duration_stimuli/001167_2014-06-17_15-38-07_260595134347_rgbf000108-resize_0/001167_2014-06-17_15-38-07_260595134347_rgbf000108-resize_0-target.png,125,1.8505,1,3266,125,meters,jsons/VE125_randls_17_rotated.json,1029737,1497710,25,Man
117,542475,DepthScenes,duration_manipulation_targetAtFixation,jsons/VE125_randls_17_rotated.json,http://54.235.29.9/FacialAge/BNav_EC2/DepthDuration/v2_depth_duration_MTurk/v2_DepthDuration_HTML.html#299,299,1821,833,1366,768,8-30-2022,11-29-38,118,depth_duration_stimuli/001132_2014-06-17_14-48-54_260595134347_rgbf000100-resize_2/001132_2014-06-17_14-48-54_260595134347_rgbf000100-resize_2-target.png,125,3.753,2,3308,124,meters,jsons/VE125_randls_17_rotated.json,1029737,1497710,25,Man
118,542475,DepthScenes,duration_manipulation_targetAtFixation,jsons/VE125_randls_17_rotated.json,http://54.235.29.9/FacialAge/BNav_EC2/DepthDuration/v2_depth_duration_MTurk/v2_DepthDuration_HTML.html#299,299,1821,833,1366,768,8-30-2022,11-29-38,119,depth_duration_stimuli/001133_2014-06-17_14-49-16_260595134347_rgbf000100-resize_0/001133_2014-06-17_14-49-16_260595134347_rgbf000100-resize_0-target.png,125,4.2115,2,3542,124,meters,jsons/VE125_randls_17_rotated.json,1029737,1497710,25,Man
119,542475,DepthScenes,duration_manipulation_targetAtFixation,jsons/VE125_randls_17_rotated.json,http://54.235.29.9/FacialAge/BNav_EC2/DepthDuration/v2_depth_duration_MTurk/v2_DepthDuration_HTML.html#299,299,1821,833,1366,768,8-30-2022,11-29-38,120,depth_duration_stimuli/000787_2014-06-08_22-33-53_260595134347_rgbf000175-resize_1/000787_2014-06-08_22-33-53_260595134347_rgbf000175-resize-original.jpg,125,4.784,2,3254,126,meters,jsons/VE125_randls_17_rotated.json,1029737,1497710,25,Man
120,542475,DepthScenes,duration_manipulation_targetAtFixation,jsons/VE125_randls_17_rotated.json,http://54.235.29.9/FacialAge/BNav_EC2/DepthDuration/v2_depth_duration_MTurk/v2_DepthDuration_HTML.html#299,299,1821,833,1366,768,8-30-2022,11-29-38,121,depth_duration_stimuli/000109_2014-05-14_23-41-52_260595134347_rgbf000035-resize_9/000109_2014-05-14_23-41-52_260595134347_rgbf000035-resize_9-target.png,125,1.3545,1,3410,125,meters,jsons/VE125_randls_17_rotated.json,1029737,1497710,25,Man
121,542475,DepthScenes,duration_manipulation_targetAtFixation,jsons/VE125_randls_17_rotated.json,http://54.235.29.9/FacialAge/BNav_EC2/DepthDuration/v2_depth_duration_MTurk/v2_DepthDuration_HTML.html#299,299,1821,833,1366,768,8-30-2022,11-29-38,122,depth_duration_stimuli/000470_2014-06-09_19-42-40_260595134347_rgbf000094-resize_1/000470_2014-06-09_19-42-40_260595134347_rgbf000094-resize_1-target.png,125,1.831,1,3634,125,meters,jsons/VE125_randls_17_rotated.json,1029737,1497710,25,Man
122,542475,DepthScenes,duration_manipulation_targetAtFixation,jsons/VE125_randls_17_rotated.json,http://54.235.29.9/FacialAge/BNav_EC2/DepthDuration/v2_depth_duration_MTurk/v2_DepthDuration_HTML.html#299,299,1821,833,1366,768,8-30-2022,11-29-38,123,depth_duration_stimuli/000665_2014-06-09_20-42-35_260595134347_rgbf000110-resize_1/000665_2014-06-09_20-42-35_260595134347_rgbf000110-resize_1-target.png,125,3.057,1,3418,125,meters,jsons/VE125_randls_17_rotated.json,1029737,1497710,25,Man
123,542475,DepthScenes,duration_manipulation_targetAtFixation,jsons/VE125_randls_17_rotated.json,http://54.235.29.9/FacialAge/BNav_EC2/DepthDuration/v2_depth_duration_MTurk/v2_DepthDuration_HTML.html#299,299,1821,833,1366,768,8-30-2022,11-29-38,124,depth_duration_stimuli/001150_2014-06-17_15-27-34_260595134347_rgbf000108-resize_2/001150_2014-06-17_15-27-34_260595134347_rgbf000108-resize_2-target.png,125,4.0325,2,3043,126,meters,jsons/VE125_randls_17_rotated.json,1029737,1497710,25,Man
124,542475,DepthScenes,duration_manipulation_targetAtFixation,jsons/VE125_randls_17_rotated.json,http://54.235.29.9/FacialAge/BNav_EC2/DepthDuration/v2_depth_duration_MTurk/v2_DepthDuration_HTML.html#299,299,1821,833,1366,768,8-30-2022,11-29-38,125,depth_duration_stimuli/000409_2014-06-04_19-23-33_260595134347_rgbf000067-resize_0/000409_2014-06-04_19-23-33_260595134347_rgbf000067-resize_0-target.png,125,3.7335,2,36856,126,meters,jsons/VE125_randls_17_rotated.json,1029737,1497710,25,Man
125,542475,DepthScenes,duration_manipulation_targetAtFixation,jsons/VE125_randls_17_rotated.json,http://54.235.29.9/FacialAge/BNav_EC2/DepthDuration/v2_depth_duration_MTurk/v2_DepthDuration_HTML.html#299,299,1821,833,1366,768,8-30-2022,11-29-38,126,depth_duration_stimuli/002663_2014-06-13_15-50-26_094959634447_rgbf000075-resize_1/002663_2014-06-13_15-50-26_094959634447_rgbf000075-resize_1-target.png,125,4.7495,2,4215,125,meters,jsons/VE125_randls_17_rotated.json,1029737,1497710,25,Man
126,542475,DepthScenes,duration_manipulation_targetAtFixation,jsons/VE125_randls_17_rotated.json,http://54.235.29.9/FacialAge/BNav_EC2/DepthDuration/v2_depth_duration_MTurk/v2_DepthDuration_HTML.html#299,299,1821,833,1366,768,8-30-2022,11-29-38,127,depth_duration_stimuli/002199_2014-06-28_18-33-56_260595134347_rgbf000074-resize_0/002199_2014-06-28_18-33-56_260595134347_rgbf000074-resize_0-target.png,125,1.996,1,7915,126,meters,jsons/VE125_randls_17_rotated.json,1029737,1497710,25,Man
127,542475,DepthScenes,duration_manipulation_targetAtFixation,jsons/VE125_randls_17_rotated.json,http://54.235.29.9/FacialAge/BNav_EC2/DepthDuration/v2_depth_duration_MTurk/v2_DepthDuration_HTML.html#299,299,1821,833,1366,768,8-30-2022,11-29-38,128,depth_duration_stimuli/001056_2014-06-08_18-46-44_260595134347_rgbf000068-resize_0/001056_2014-06-08_18-46-44_260595134347_rgbf000068-resize_0-target.png,125,2.6625,2,3761,125,meters,jsons/VE125_randls_17_rotated.json,1029737,1497710,25,Man
128,542475,DepthScenes,duration_manipulation_targetAtFixation,jsons/VE125_randls_17_rotated.json,http://54.235.29.9/FacialAge/BNav_EC2/DepthDuration/v2_depth_duration_MTurk/v2_DepthDuration_HTML.html#299,299,1821,833,1366,768,8-30-2022,11-29-38,129,depth_duration_stimuli/003079_2014-06-15_15-18-20_094959634447_rgbf000152-resize_8/003079_2014-06-15_15-18-20_094959634447_rgbf000152-resize_8-target.png,125,2.8775,2,3185,125,meters,jsons/VE125_randls_17_rotated.json,1029737,1497710,25,Man
129,542475,DepthScenes,duration_manipulation_targetAtFixation,jsons/VE125_randls_17_rotated.json,http://54.235.29.9/FacialAge/BNav_EC2/DepthDuration/v2_depth_duration_MTurk/v2_DepthDuration_HTML.html#299,299,1821,833,1366,768,8-30-2022,11-29-38,130,depth_duration_stimuli/000506_2014-06-08_23-21-00_260595134347_rgbf000070-resize_7/000506_2014-06-08_23-21-00_260595134347_rgbf000070-resize_7-target.png,125,4.0585,2,3219,126,meters,jsons/VE125_randls_17_rotated.json,1029737,1497710,25,Man
130,542475,DepthScenes,duration_manipulation_targetAtFixation,jsons/VE125_randls_17_rotated.json,http://54.235.29.9/FacialAge/BNav_EC2/DepthDuration/v2_depth_duration_MTurk/v2_DepthDuration_HTML.html#299,299,1821,833,1366,768,8-30-2022,11-29-38,131,depth_duration_stimuli/003048_2014-06-15_13-49-43_094959634447_rgbf000150-resize_1/003048_2014-06-15_13-49-43_094959634447_rgbf000150-resize_1-target.png,125,4.0035,2,3011,126,meters,jsons/VE125_randls_17_rotated.json,1029737,1497710,25,Man
131,542475,DepthScenes,duration_manipulation_targetAtFixation,jsons/VE125_randls_17_rotated.json,http://54.235.29.9/FacialAge/BNav_EC2/DepthDuration/v2_depth_duration_MTurk/v2_DepthDuration_HTML.html#299,299,1821,833,1366,768,8-30-2022,11-29-38,132,depth_duration_stimuli/002043_2014-06-24_20-29-38_260595134347_rgbf000039-resize_4/002043_2014-06-24_20-29-38_260595134347_rgbf000039-resize_4-target.png,125,2.8435,2,3611,126,meters,jsons/VE125_randls_17_rotated.json,1029737,1497710,25,Man
132,542475,DepthScenes,duration_manipulation_targetAtFixation,jsons/VE125_randls_17_rotated.json,http://54.235.29.9/FacialAge/BNav_EC2/DepthDuration/v2_depth_duration_MTurk/v2_DepthDuration_HTML.html#299,299,1821,833,1366,768,8-30-2022,11-29-38,133,depth_duration_stimuli/001516_2014-06-20_16-25-09_260595134347_rgbf000076-resize_2/001516_2014-06-20_16-25-09_260595134347_rgbf000076-resize_2-target.png,125,1.7445,2,3629,124,meters,jsons/VE125_randls_17_rotated.json,1029737,1497710,25,Man
133,542475,DepthScenes,duration_manipulation_targetAtFixation,jsons/VE125_randls_17_rotated.json,http://54.235.29.9/FacialAge/BNav_EC2/DepthDuration/v2_depth_duration_MTurk/v2_DepthDuration_HTML.html#299,299,1821,833,1366,768,8-30-2022,11-29-38,134,depth_duration_stimuli/002118_2014-06-25_20-32-08_260595134347_rgbf000078-resize_1/002118_2014-06-25_20-32-08_260595134347_rgbf000078-resize_1-target.png,125,2.6460000000000004,2,3551,124,meters,jsons/VE125_randls_17_rotated.json,1029737,1497710,25,Man
134,542475,DepthScenes,duration_manipulation_targetAtFixation,jsons/VE125_randls_17_rotated.json,http://54.235.29.9/FacialAge/BNav_EC2/DepthDuration/v2_depth_duration_MTurk/v2_DepthDuration_HTML.html#299,299,1821,833,1366,768,8-30-2022,11-29-38,135,depth_duration_stimuli/000375_2014-06-08_11-17-29_260595134347_rgbf000133-resize_2/000375_2014-06-08_11-17-29_260595134347_rgbf000133-resize-original.jpg,125,4.718,0,3083,124,meters,jsons/VE125_randls_17_rotated.json,1029737,1497710,25,Man
135,542475,DepthScenes,duration_manipulation_targetAtFixation,jsons/VE125_randls_17_rotated.json,http://54.235.29.9/FacialAge/BNav_EC2/DepthDuration/v2_depth_duration_MTurk/v2_DepthDuration_HTML.html#299,299,1821,833,1366,768,8-30-2022,11-29-38,136,depth_duration_stimuli/002750_2014-06-22_19-08-03_094959634447_rgbf000094-resize_4/002750_2014-06-22_19-08-03_094959634447_rgbf000094-resize_4-target.png,125,2.354,2,3211,125,meters,jsons/VE125_randls_17_rotated.json,1029737,1497710,25,Man
136,542475,DepthScenes,duration_manipulation_targetAtFixation,jsons/VE125_randls_17_rotated.json,http://54.235.29.9/FacialAge/BNav_EC2/DepthDuration/v2_depth_duration_MTurk/v2_DepthDuration_HTML.html#299,299,1821,833,1366,768,8-30-2022,11-29-38,137,depth_duration_stimuli/002549_2014-06-24_13-41-39_094959634447_rgbf000022-resize_3/002549_2014-06-24_13-41-39_094959634447_rgbf000022-resize_3-target.png,125,1.476,1,3483,126,meters,jsons/VE125_randls_17_rotated.json,1029737,1497710,25,Man
137,542475,DepthScenes,duration_manipulation_targetAtFixation,jsons/VE125_randls_17_rotated.json,http://54.235.29.9/FacialAge/BNav_EC2/DepthDuration/v2_depth_duration_MTurk/v2_DepthDuration_HTML.html#299,299,1821,833,1366,768,8-30-2022,11-29-38,138,depth_duration_stimuli/000556_2014-06-09_22-42-56_260595134347_rgbf000214-resize_1/000556_2014-06-09_22-42-56_260595134347_rgbf000214-resize_1-target.png,125,4.8415,1,4301,125,meters,jsons/VE125_randls_17_rotated.json,1029737,1497710,25,Man
138,542475,DepthScenes,duration_manipulation_targetAtFixation,jsons/VE125_randls_17_rotated.json,http://54.235.29.9/FacialAge/BNav_EC2/DepthDuration/v2_depth_duration_MTurk/v2_DepthDuration_HTML.html#299,299,1821,833,1366,768,8-30-2022,11-29-38,139,depth_duration_stimuli/001158_2014-06-17_15-32-16_260595134347_rgbf000138-resize_2/001158_2014-06-17_15-32-16_260595134347_rgbf000138-resize_2-target.png,125,4.5315,2,3216,125,meters,jsons/VE125_randls_17_rotated.json,1029737,1497710,25,Man
139,542475,DepthScenes,duration_manipulation_targetAtFixation,jsons/VE125_randls_17_rotated.json,http://54.235.29.9/FacialAge/BNav_EC2/DepthDuration/v2_depth_duration_MTurk/v2_DepthDuration_HTML.html#299,299,1821,833,1366,768,8-30-2022,11-29-38,140,depth_duration_stimuli/001617_2014-06-20_11-35-32_260595134347_rgbf000066-resize_1/001617_2014-06-20_11-35-32_260595134347_rgbf000066-resize_1-target.png,125,3.7910000000000004,2,3003,125,meters,jsons/VE125_randls_17_rotated.json,1029737,1497710,25,Man
140,542475,DepthScenes,duration_manipulation_targetAtFixation,jsons/VE125_randls_17_rotated.json,http://54.235.29.9/FacialAge/BNav_EC2/DepthDuration/v2_depth_duration_MTurk/v2_DepthDuration_HTML.html#299,299,1821,833,1366,768,8-30-2022,11-29-38,141,depth_duration_stimuli/001806_2014-06-26_20-50-20_260595134347_rgbf000091-resize_1/001806_2014-06-26_20-50-20_260595134347_rgbf000091-resize_1-target.png,125,2.7305,1,3212,125,meters,jsons/VE125_randls_17_rotated.json,1029737,1497710,25,Man
141,542475,DepthScenes,duration_manipulation_targetAtFixation,jsons/VE125_randls_17_rotated.json,http://54.235.29.9/FacialAge/BNav_EC2/DepthDuration/v2_depth_duration_MTurk/v2_DepthDuration_HTML.html#299,299,1821,833,1366,768,8-30-2022,11-29-38,142,depth_duration_stimuli/003423_2014-05-21_10-23-26_094959634447_rgbf002665-resize_2/003423_2014-05-21_10-23-26_094959634447_rgbf002665-resize_2-target.png,125,3.2575,2,3121,125,meters,jsons/VE125_randls_17_rotated.json,1029737,1497710,25,Man
142,542475,DepthScenes,duration_manipulation_targetAtFixation,jsons/VE125_randls_17_rotated.json,http://54.235.29.9/FacialAge/BNav_EC2/DepthDuration/v2_depth_duration_MTurk/v2_DepthDuration_HTML.html#299,299,1821,833,1366,768,8-30-2022,11-29-38,143,depth_duration_stimuli/002905_2014-06-03_18-04-43_094959634447_rgbf000151-resize_2/002905_2014-06-03_18-04-43_094959634447_rgbf000151-resize_2-target.png,125,2.0295,2,3442,125,meters,jsons/VE125_randls_17_rotated.json,1029737,1497710,25,Man
143,542475,DepthScenes,duration_manipulation_targetAtFixation,jsons/VE125_randls_17_rotated.json,http://54.235.29.9/FacialAge/BNav_EC2/DepthDuration/v2_depth_duration_MTurk/v2_DepthDuration_HTML.html#299,299,1821,833,1366,768,8-30-2022,11-29-38,144,depth_duration_stimuli/000709_2014-06-08_13-51-55_260595134347_rgbf000068-resize_3/000709_2014-06-08_13-51-55_260595134347_rgbf000068-resize_3-target.png,125,1.8030000000000002,2,3274,125,meters,jsons/VE125_randls_17_rotated.json,1029737,1497710,25,Man
144,542475,DepthScenes,duration_manipulation_targetAtFixation,jsons/VE125_randls_17_rotated.json,http://54.235.29.9/FacialAge/BNav_EC2/DepthDuration/v2_depth_duration_MTurk/v2_DepthDuration_HTML.html#299,299,1821,833,1366,768,8-30-2022,11-29-38,145,depth_duration_stimuli/002057_2014-06-24_21-00-13_260595134347_rgbf000120-resize_1/002057_2014-06-24_21-00-13_260595134347_rgbf000120-resize_1-target.png,125,2.967,2,3047,124,meters,jsons/VE125_randls_17_rotated.json,1029737,1497710,25,Man
145,542475,DepthScenes,duration_manipulation_targetAtFixation,jsons/VE125_randls_17_rotated.json,http://54.235.29.9/FacialAge/BNav_EC2/DepthDuration/v2_depth_duration_MTurk/v2_DepthDuration_HTML.html#299,299,1821,833,1366,768,8-30-2022,11-29-38,146,depth_duration_stimuli/002805_2014-06-22_19-54-03_094959634447_rgbf000079-resize_1/002805_2014-06-22_19-54-03_094959634447_rgbf000079-resize_1-target.png,125,3.1439999999999997,2,3209,125,meters,jsons/VE125_randls_17_rotated.json,1029737,1497710,25,Man
146,542475,DepthScenes,duration_manipulation_targetAtFixation,jsons/VE125_randls_17_rotated.json,http://54.235.29.9/FacialAge/BNav_EC2/DepthDuration/v2_depth_duration_MTurk/v2_DepthDuration_HTML.html#299,299,1821,833,1366,768,8-30-2022,11-29-38,147,depth_duration_stimuli/000906_2014-06-08_13-35-43_260595134347_rgbf000155-resize_1/000906_2014-06-08_13-35-43_260595134347_rgbf000155-resize_1-target.png,125,2.8489999999999998,2,3296,126,meters,jsons/VE125_randls_17_rotated.json,1029737,1497710,25,Man
147,542475,DepthScenes,duration_manipulation_targetAtFixation,jsons/VE125_randls_17_rotated.json,http://54.235.29.9/FacialAge/BNav_EC2/DepthDuration/v2_depth_duration_MTurk/v2_DepthDuration_HTML.html#299,299,1821,833,1366,768,8-30-2022,11-29-38,148,depth_duration_stimuli/001136_2014-06-17_15-19-41_260595134347_rgbf000076-resize_3/001136_2014-06-17_15-19-41_260595134347_rgbf000076-resize_3-target.png,125,1.8655,2,3252,125,meters,jsons/VE125_randls_17_rotated.json,1029737,1497710,25,Man
148,542475,DepthScenes,duration_manipulation_targetAtFixation,jsons/VE125_randls_17_rotated.json,http://54.235.29.9/FacialAge/BNav_EC2/DepthDuration/v2_depth_duration_MTurk/v2_DepthDuration_HTML.html#299,299,1821,833,1366,768,8-30-2022,11-29-38,149,depth_duration_stimuli/001164_2014-06-17_15-35-46_260595134347_rgbf000085-resize_3/001164_2014-06-17_15-35-46_260595134347_rgbf000085-resize_3-target.png,125,2.354,2,3136,125,meters,jsons/VE125_randls_17_rotated.json,1029737,1497710,25,Man
149,542475,DepthScenes,duration_manipulation_targetAtFixation,jsons/VE125_randls_17_rotated.json,http://54.235.29.9/FacialAge/BNav_EC2/DepthDuration/v2_depth_duration_MTurk/v2_DepthDuration_HTML.html#299,299,1821,833,1366,768,8-30-2022,11-29-38,150,depth_duration_stimuli/003083_2014-06-15_15-21-03_094959634447_rgbf000063-resize_1/003083_2014-06-15_15-21-03_094959634447_rgbf000063-resize_1-target.png,125,4.1405,2,2996,125,meters,jsons/VE125_randls_17_rotated.json,1029737,1497710,25,Man
150,542475,DepthScenes,duration_manipulation_targetAtFixation,jsons/VE125_randls_17_rotated.json,http://54.235.29.9/FacialAge/BNav_EC2/DepthDuration/v2_depth_duration_MTurk/v2_DepthDuration_HTML.html#299,299,1821,833,1366,768,8-30-2022,11-29-38,151,depth_duration_stimuli/000486_2014-06-09_20-47-20_260595134347_rgbf000143-resize_2/000486_2014-06-09_20-47-20_260595134347_rgbf000143-resize_2-target.png,125,4.8325,2,2898,125,meters,jsons/VE125_randls_17_rotated.json,1029737,1497710,25,Man
151,542475,DepthScenes,duration_manipulation_targetAtFixation,jsons/VE125_randls_17_rotated.json,http://54.235.29.9/FacialAge/BNav_EC2/DepthDuration/v2_depth_duration_MTurk/v2_DepthDuration_HTML.html#299,299,1821,833,1366,768,8-30-2022,11-29-38,152,depth_duration_stimuli/000569_2014-06-09_22-51-47_260595134347_rgbf000141-resize_3/000569_2014-06-09_22-51-47_260595134347_rgbf000141-resize-original.jpg,125,4.512,0,3091,125,meters,jsons/VE125_randls_17_rotated.json,1029737,1497710,25,Man
152,542475,DepthScenes,duration_manipulation_targetAtFixation,jsons/VE125_randls_17_rotated.json,http://54.235.29.9/FacialAge/BNav_EC2/DepthDuration/v2_depth_duration_MTurk/v2_DepthDuration_HTML.html#299,299,1821,833,1366,768,8-30-2022,11-29-38,153,depth_duration_stimuli/001235_2014-06-17_16-37-36_260595134347_rgbf000084-resize_4/001235_2014-06-17_16-37-36_260595134347_rgbf000084-resize_4-target.png,125,3.6605,2,3313,125,meters,jsons/VE125_randls_17_rotated.json,1029737,1497710,25,Man
153,542475,DepthScenes,duration_manipulation_targetAtFixation,jsons/VE125_randls_17_rotated.json,http://54.235.29.9/FacialAge/BNav_EC2/DepthDuration/v2_depth_duration_MTurk/v2_DepthDuration_HTML.html#299,299,1821,833,1366,768,8-30-2022,11-29-38,154,depth_duration_stimuli/000788_2014-06-08_22-34-36_260595134347_rgbf000131-resize_1/000788_2014-06-08_22-34-36_260595134347_rgbf000131-resize_1-target.png,125,3.359,2,3164,125,meters,jsons/VE125_randls_17_rotated.json,1029737,1497710,25,Man
154,542475,DepthScenes,duration_manipulation_targetAtFixation,jsons/VE125_randls_17_rotated.json,http://54.235.29.9/FacialAge/BNav_EC2/DepthDuration/v2_depth_duration_MTurk/v2_DepthDuration_HTML.html#299,299,1821,833,1366,768,8-30-2022,11-29-38,155,depth_duration_stimuli/000502_2014-06-08_23-02-32_260595134347_rgbf000063-resize_4/000502_2014-06-08_23-02-32_260595134347_rgbf000063-resize_4-target.png,125,2.431,1,3211,125,meters,jsons/VE125_randls_17_rotated.json,1029737,1497710,25,Man
155,542475,DepthScenes,duration_manipulation_targetAtFixation,jsons/VE125_randls_17_rotated.json,http://54.235.29.9/FacialAge/BNav_EC2/DepthDuration/v2_depth_duration_MTurk/v2_DepthDuration_HTML.html#299,299,1821,833,1366,768,8-30-2022,11-29-38,156,depth_duration_stimuli/001199_2014-06-17_16-03-48_260595134347_rgbf000077-resize_0/001199_2014-06-17_16-03-48_260595134347_rgbf000077-resize_0-target.png,125,3.4375,2,3091,126,meters,jsons/VE125_randls_17_rotated.json,1029737,1497710,25,Man
156,542475,DepthScenes,duration_manipulation_targetAtFixation,jsons/VE125_randls_17_rotated.json,http://54.235.29.9/FacialAge/BNav_EC2/DepthDuration/v2_depth_duration_MTurk/v2_DepthDuration_HTML.html#299,299,1821,833,1366,768,8-30-2022,11-29-38,157,depth_duration_stimuli/002657_2014-06-13_15-29-54_094959634447_rgbf000150-resize_1/002657_2014-06-13_15-29-54_094959634447_rgbf000150-resize_1-target.png,125,4.919,2,3083,126,meters,jsons/VE125_randls_17_rotated.json,1029737,1497710,25,Man
157,542475,DepthScenes,duration_manipulation_targetAtFixation,jsons/VE125_randls_17_rotated.json,http://54.235.29.9/FacialAge/BNav_EC2/DepthDuration/v2_depth_duration_MTurk/v2_DepthDuration_HTML.html#299,299,1821,833,1366,768,8-30-2022,11-29-38,158,depth_duration_stimuli/002375_2014-06-28_20-13-44_260595134347_rgbf000032-resize_1/002375_2014-06-28_20-13-44_260595134347_rgbf000032-resize_1-target.png,125,4.0175,2,3060,125,meters,jsons/VE125_randls_17_rotated.json,1029737,1497710,25,Man
158,542475,DepthScenes,duration_manipulation_targetAtFixation,jsons/VE125_randls_17_rotated.json,http://54.235.29.9/FacialAge/BNav_EC2/DepthDuration/v2_depth_duration_MTurk/v2_DepthDuration_HTML.html#299,299,1821,833,1366,768,8-30-2022,11-29-38,159,depth_duration_stimuli/001584_2014-06-20_11-07-43_260595134347_rgbf000002-resize_1/001584_2014-06-20_11-07-43_260595134347_rgbf000002-resize_1-target.png,125,3.53,2,6593,126,meters,jsons/VE125_randls_17_rotated.json,1029737,1497710,25,Man
159,542475,DepthScenes,duration_manipulation_targetAtFixation,jsons/VE125_randls_17_rotated.json,http://54.235.29.9/FacialAge/BNav_EC2/DepthDuration/v2_depth_duration_MTurk/v2_DepthDuration_HTML.html#299,299,1821,833,1366,768,8-30-2022,11-29-38,160,depth_duration_stimuli/003621_2014-05-23_18-06-08_094959634447_rgbf000101-resize_1/003621_2014-05-23_18-06-08_094959634447_rgbf000101-resize_1-target.png,125,3.9835,2,3322,125,meters,jsons/VE125_randls_17_rotated.json,1029737,1497710,25,Man
160,542475,DepthScenes,duration_manipulation_targetAtFixation,jsons/VE125_randls_17_rotated.json,http://54.235.29.9/FacialAge/BNav_EC2/DepthDuration/v2_depth_duration_MTurk/v2_DepthDuration_HTML.html#299,299,1821,833,1366,768,8-30-2022,11-29-38,161,depth_duration_stimuli/002103_2014-06-25_20-00-40_260595134347_rgbf000049-resize_0/002103_2014-06-25_20-00-40_260595134347_rgbf000049-resize_0-target.png,125,4.105,2,3244,125,meters,jsons/VE125_randls_17_rotated.json,1029737,1497710,25,Man
161,542475,DepthScenes,duration_manipulation_targetAtFixation,jsons/VE125_randls_17_rotated.json,http://54.235.29.9/FacialAge/BNav_EC2/DepthDuration/v2_depth_duration_MTurk/v2_DepthDuration_HTML.html#299,299,1821,833,1366,768,8-30-2022,11-29-38,162,depth_duration_stimuli/002039_2014-06-24_20-22-38_260595134347_rgbf000084-resize_1/002039_2014-06-24_20-22-38_260595134347_rgbf000084-resize_1-target.png,125,4.408,2,3020,126,meters,jsons/VE125_randls_17_rotated.json,1029737,1497710,25,Man
162,542475,DepthScenes,duration_manipulation_targetAtFixation,jsons/VE125_randls_17_rotated.json,http://54.235.29.9/FacialAge/BNav_EC2/DepthDuration/v2_depth_duration_MTurk/v2_DepthDuration_HTML.html#299,299,1821,833,1366,768,8-30-2022,11-29-38,163,depth_duration_stimuli/003228_2014-05-14_13-42-35_094959634447_rgbf000101-resize_1/003228_2014-05-14_13-42-35_094959634447_rgbf000101-resize_1-target.png,125,1.9680000000000002,1,2977,124,meters,jsons/VE125_randls_17_rotated.json,1029737,1497710,25,Man
163,542475,DepthScenes,duration_manipulation_targetAtFixation,jsons/VE125_randls_17_rotated.json,http://54.235.29.9/FacialAge/BNav_EC2/DepthDuration/v2_depth_duration_MTurk/v2_DepthDuration_HTML.html#299,299,1821,833,1366,768,8-30-2022,11-29-38,164,depth_duration_stimuli/002600_2014-06-24_14-27-04_094959634447_rgbf000074-resize_2/002600_2014-06-24_14-27-04_094959634447_rgbf000074-resize_2-target.png,125,2.7575,1,3067,126,meters,jsons/VE125_randls_17_rotated.json,1029737,1497710,25,Man
