,subjID,experimentName,versionName,sequenceName,url,selected_row,windowWidth,windowHeight,screenWidth,screenHeight,startDate,startTime,trial,stimulus,duration,actual_depth,depth_estimate,trial_RT,log_sceneDuration,unitSelection,seq_filepath,experimentTime,totalTime,age,gender
0,542545,DepthScenes,duration_manipulation_targetAtFixation,jsons/v1_VE250_randls_29.json,http://54.235.29.9/FacialAge/BNav_EC2/DepthDuration/v2_depth_duration_MTurk/v2_DepthDuration_HTML.html#82,82,1293,645,1616,909,8-20-2022,11-53-32,1,depth_duration_stimuli/000486_2014-06-09_20-47-20_260595134347_rgbf000143-resize_2/000486_2014-06-09_20-47-20_260595134347_rgbf000143-resize_2-target.png,250,4.8325,6,2886,250,feet,jsons/v1_VE250_randls_29.json,702302,978293,30,Man
1,542545,DepthScenes,duration_manipulation_targetAtFixation,jsons/v1_VE250_randls_29.json,http://54.235.29.9/FacialAge/BNav_EC2/DepthDuration/v2_depth_duration_MTurk/v2_DepthDuration_HTML.html#82,82,1293,645,1616,909,8-20-2022,11-53-32,2,depth_duration_stimuli/003083_2014-06-15_15-21-03_094959634447_rgbf000063-resize_1/003083_2014-06-15_15-21-03_094959634447_rgbf000063-resize_1-target.png,250,4.1405,7,4287,249,feet,jsons/v1_VE250_randls_29.json,702302,978293,30,Man
2,542545,DepthScenes,duration_manipulation_targetAtFixation,jsons/v1_VE250_randls_29.json,http://54.235.29.9/FacialAge/BNav_EC2/DepthDuration/v2_depth_duration_MTurk/v2_DepthDuration_HTML.html#82,82,1293,645,1616,909,8-20-2022,11-53-32,3,depth_duration_stimuli/001158_2014-06-17_15-32-16_260595134347_rgbf000138-resize_2/001158_2014-06-17_15-32-16_260595134347_rgbf000138-resize_2-target.png,250,4.5315,5,3108,249,feet,jsons/v1_VE250_randls_29.json,702302,978293,30,Man
3,542545,DepthScenes,duration_manipulation_targetAtFixation,jsons/v1_VE250_randls_29.json,http://54.235.29.9/FacialAge/BNav_EC2/DepthDuration/v2_depth_duration_MTurk/v2_DepthDuration_HTML.html#82,82,1293,645,1616,909,8-20-2022,11-53-32,4,depth_duration_stimuli/000556_2014-06-09_22-42-56_260595134347_rgbf000214-resize_1/000556_2014-06-09_22-42-56_260595134347_rgbf000214-resize_1-target.png,250,4.8415,7,2832,249,feet,jsons/v1_VE250_randls_29.json,702302,978293,30,Man
4,542545,DepthScenes,duration_manipulation_targetAtFixation,jsons/v1_VE250_randls_29.json,http://54.235.29.9/FacialAge/BNav_EC2/DepthDuration/v2_depth_duration_MTurk/v2_DepthDuration_HTML.html#82,82,1293,645,1616,909,8-20-2022,11-53-32,5,depth_duration_stimuli/003492_2014-05-21_15-50-55_094959634447_rgbf000828-resize_1/003492_2014-05-21_15-50-55_094959634447_rgbf000828-resize_1-target.png,250,4.06875,8,3985,249,feet,jsons/v1_VE250_randls_29.json,702302,978293,30,Man
5,542545,DepthScenes,duration_manipulation_targetAtFixation,jsons/v1_VE250_randls_29.json,http://54.235.29.9/FacialAge/BNav_EC2/DepthDuration/v2_depth_duration_MTurk/v2_DepthDuration_HTML.html#82,82,1293,645,1616,909,8-20-2022,11-53-32,6,depth_duration_stimuli/002568_2014-06-24_13-59-21_094959634447_rgbf000062-resize_4/002568_2014-06-24_13-59-21_094959634447_rgbf000062-resize_4-target.png,250,3.015,4,2911,248,feet,jsons/v1_VE250_randls_29.json,702302,978293,30,Man
6,542545,DepthScenes,duration_manipulation_targetAtFixation,jsons/v1_VE250_randls_29.json,http://54.235.29.9/FacialAge/BNav_EC2/DepthDuration/v2_depth_duration_MTurk/v2_DepthDuration_HTML.html#82,82,1293,645,1616,909,8-20-2022,11-53-32,7,depth_duration_stimuli/001029_2014-06-08_13-17-57_260595134347_rgbf000065-resize_1/001029_2014-06-08_13-17-57_260595134347_rgbf000065-resize_1-target.png,250,3.0835,4,3636,249,feet,jsons/v1_VE250_randls_29.json,702302,978293,30,Man
7,542545,DepthScenes,duration_manipulation_targetAtFixation,jsons/v1_VE250_randls_29.json,http://54.235.29.9/FacialAge/BNav_EC2/DepthDuration/v2_depth_duration_MTurk/v2_DepthDuration_HTML.html#82,82,1293,645,1616,909,8-20-2022,11-53-32,8,depth_duration_stimuli/000677_2014-06-08_23-10-32_260595134347_rgbf000158-resize_6/000677_2014-06-08_23-10-32_260595134347_rgbf000158-resize_6-target.png,250,3.556,5,2997,248,feet,jsons/v1_VE250_randls_29.json,702302,978293,30,Man
8,542545,DepthScenes,duration_manipulation_targetAtFixation,jsons/v1_VE250_randls_29.json,http://54.235.29.9/FacialAge/BNav_EC2/DepthDuration/v2_depth_duration_MTurk/v2_DepthDuration_HTML.html#82,82,1293,645,1616,909,8-20-2022,11-53-32,9,depth_duration_stimuli/000493_2014-06-09_21-01-18_260595134347_rgbf000196-resize_3/000493_2014-06-09_21-01-18_260595134347_rgbf000196-resize_3-target.png,250,3.44,6,2738,249,feet,jsons/v1_VE250_randls_29.json,702302,978293,30,Man
9,542545,DepthScenes,duration_manipulation_targetAtFixation,jsons/v1_VE250_randls_29.json,http://54.235.29.9/FacialAge/BNav_EC2/DepthDuration/v2_depth_duration_MTurk/v2_DepthDuration_HTML.html#82,82,1293,645,1616,909,8-20-2022,11-53-32,10,depth_duration_stimuli/000191_2014-05-12_17-07-38_260595134347_rgbf000199-resize_0/000191_2014-05-12_17-07-38_260595134347_rgbf000199-resize_0-target.png,250,3.7995,7,3762,249,feet,jsons/v1_VE250_randls_29.json,702302,978293,30,Man
10,542545,DepthScenes,duration_manipulation_targetAtFixation,jsons/v1_VE250_randls_29.json,http://54.235.29.9/FacialAge/BNav_EC2/DepthDuration/v2_depth_duration_MTurk/v2_DepthDuration_HTML.html#82,82,1293,645,1616,909,8-20-2022,11-53-32,11,depth_duration_stimuli/000368_2014-06-09_15-53-01_260595134347_rgbf000155-resize_2/000368_2014-06-09_15-53-01_260595134347_rgbf000155-resize_2-target.png,250,2.4859999999999998,3,3307,248,feet,jsons/v1_VE250_randls_29.json,702302,978293,30,Man
11,542545,DepthScenes,duration_manipulation_targetAtFixation,jsons/v1_VE250_randls_29.json,http://54.235.29.9/FacialAge/BNav_EC2/DepthDuration/v2_depth_duration_MTurk/v2_DepthDuration_HTML.html#82,82,1293,645,1616,909,8-20-2022,11-53-32,12,depth_duration_stimuli/002678_2014-06-13_16-15-32_094959634447_rgbf000151-resize_6/002678_2014-06-13_16-15-32_094959634447_rgbf000151-resize_6-target.png,250,2.1830000000000003,8,4502,249,feet,jsons/v1_VE250_randls_29.json,702302,978293,30,Man
12,542545,DepthScenes,duration_manipulation_targetAtFixation,jsons/v1_VE250_randls_29.json,http://54.235.29.9/FacialAge/BNav_EC2/DepthDuration/v2_depth_duration_MTurk/v2_DepthDuration_HTML.html#82,82,1293,645,1616,909,8-20-2022,11-53-32,13,depth_duration_stimuli/000569_2014-06-09_22-51-47_260595134347_rgbf000141-resize_3/000569_2014-06-09_22-51-47_260595134347_rgbf000141-resize-original.jpg,250,4.512,0,3083,248,feet,jsons/v1_VE250_randls_29.json,702302,978293,30,Man
13,542545,DepthScenes,duration_manipulation_targetAtFixation,jsons/v1_VE250_randls_29.json,http://54.235.29.9/FacialAge/BNav_EC2/DepthDuration/v2_depth_duration_MTurk/v2_DepthDuration_HTML.html#82,82,1293,645,1616,909,8-20-2022,11-53-32,14,depth_duration_stimuli/002445_2014-06-28_20-32-16_260595134347_rgbf000029-resize_4/002445_2014-06-28_20-32-16_260595134347_rgbf000029-resize_4-target.png,250,2.5315,3,2899,249,feet,jsons/v1_VE250_randls_29.json,702302,978293,30,Man
14,542545,DepthScenes,duration_manipulation_targetAtFixation,jsons/v1_VE250_randls_29.json,http://54.235.29.9/FacialAge/BNav_EC2/DepthDuration/v2_depth_duration_MTurk/v2_DepthDuration_HTML.html#82,82,1293,645,1616,909,8-20-2022,11-53-32,15,depth_duration_stimuli/000780_2014-06-08_22-28-29_260595134347_rgbf000126-resize_1/000780_2014-06-08_22-28-29_260595134347_rgbf000126-resize_1-target.png,250,3.3825,5,3092,249,feet,jsons/v1_VE250_randls_29.json,702302,978293,30,Man
15,542545,DepthScenes,duration_manipulation_targetAtFixation,jsons/v1_VE250_randls_29.json,http://54.235.29.9/FacialAge/BNav_EC2/DepthDuration/v2_depth_duration_MTurk/v2_DepthDuration_HTML.html#82,82,1293,645,1616,909,8-20-2022,11-53-32,16,depth_duration_stimuli/003621_2014-05-23_18-06-08_094959634447_rgbf000101-resize_1/003621_2014-05-23_18-06-08_094959634447_rgbf000101-resize_1-target.png,250,3.9835,6,3985,249,feet,jsons/v1_VE250_randls_29.json,702302,978293,30,Man
16,542545,DepthScenes,duration_manipulation_targetAtFixation,jsons/v1_VE250_randls_29.json,http://54.235.29.9/FacialAge/BNav_EC2/DepthDuration/v2_depth_duration_MTurk/v2_DepthDuration_HTML.html#82,82,1293,645,1616,909,8-20-2022,11-53-32,17,depth_duration_stimuli/001584_2014-06-20_11-07-43_260595134347_rgbf000002-resize_1/001584_2014-06-20_11-07-43_260595134347_rgbf000002-resize_1-target.png,250,3.53,4,3007,249,feet,jsons/v1_VE250_randls_29.json,702302,978293,30,Man
17,542545,DepthScenes,duration_manipulation_targetAtFixation,jsons/v1_VE250_randls_29.json,http://54.235.29.9/FacialAge/BNav_EC2/DepthDuration/v2_depth_duration_MTurk/v2_DepthDuration_HTML.html#82,82,1293,645,1616,909,8-20-2022,11-53-32,18,depth_duration_stimuli/003534_2014-05-22_15-06-10_094959634447_rgbf000102-resize_4/003534_2014-05-22_15-06-10_094959634447_rgbf000102-resize_4-target.png,250,1.426,2,3214,249,feet,jsons/v1_VE250_randls_29.json,702302,978293,30,Man
18,542545,DepthScenes,duration_manipulation_targetAtFixation,jsons/v1_VE250_randls_29.json,http://54.235.29.9/FacialAge/BNav_EC2/DepthDuration/v2_depth_duration_MTurk/v2_DepthDuration_HTML.html#82,82,1293,645,1616,909,8-20-2022,11-53-32,19,depth_duration_stimuli/002637_2014-06-24_14-51-13_094959634447_rgbf000066-resize_4/002637_2014-06-24_14-51-13_094959634447_rgbf000066-resize_4-target.png,250,1.9955,3,3310,249,feet,jsons/v1_VE250_randls_29.json,702302,978293,30,Man
19,542545,DepthScenes,duration_manipulation_targetAtFixation,jsons/v1_VE250_randls_29.json,http://54.235.29.9/FacialAge/BNav_EC2/DepthDuration/v2_depth_duration_MTurk/v2_DepthDuration_HTML.html#82,82,1293,645,1616,909,8-20-2022,11-53-32,20,depth_duration_stimuli/002549_2014-06-24_13-41-39_094959634447_rgbf000022-resize_3/002549_2014-06-24_13-41-39_094959634447_rgbf000022-resize_3-target.png,250,1.476,2,2921,248,feet,jsons/v1_VE250_randls_29.json,702302,978293,30,Man
20,542545,DepthScenes,duration_manipulation_targetAtFixation,jsons/v1_VE250_randls_29.json,http://54.235.29.9/FacialAge/BNav_EC2/DepthDuration/v2_depth_duration_MTurk/v2_DepthDuration_HTML.html#82,82,1293,645,1616,909,8-20-2022,11-53-32,21,depth_duration_stimuli/002750_2014-06-22_19-08-03_094959634447_rgbf000094-resize_4/002750_2014-06-22_19-08-03_094959634447_rgbf000094-resize_4-target.png,250,2.354,4,2949,249,feet,jsons/v1_VE250_randls_29.json,702302,978293,30,Man
21,542545,DepthScenes,duration_manipulation_targetAtFixation,jsons/v1_VE250_randls_29.json,http://54.235.29.9/FacialAge/BNav_EC2/DepthDuration/v2_depth_duration_MTurk/v2_DepthDuration_HTML.html#82,82,1293,645,1616,909,8-20-2022,11-53-32,22,depth_duration_stimuli/001175_2014-06-17_15-45-55_260595134347_rgbf000129-resize_4/001175_2014-06-17_15-45-55_260595134347_rgbf000129-resize_4-target.png,250,4.255,6,2906,249,feet,jsons/v1_VE250_randls_29.json,702302,978293,30,Man
22,542545,DepthScenes,duration_manipulation_targetAtFixation,jsons/v1_VE250_randls_29.json,http://54.235.29.9/FacialAge/BNav_EC2/DepthDuration/v2_depth_duration_MTurk/v2_DepthDuration_HTML.html#82,82,1293,645,1616,909,8-20-2022,11-53-32,23,depth_duration_stimuli/003490_2014-05-21_15-50-11_094959634447_rgbf000101-resize_3/003490_2014-05-21_15-50-11_094959634447_rgbf000101-resize_3-target.png,250,3.6445,5,2852,249,feet,jsons/v1_VE250_randls_29.json,702302,978293,30,Man
23,542545,DepthScenes,duration_manipulation_targetAtFixation,jsons/v1_VE250_randls_29.json,http://54.235.29.9/FacialAge/BNav_EC2/DepthDuration/v2_depth_duration_MTurk/v2_DepthDuration_HTML.html#82,82,1293,645,1616,909,8-20-2022,11-53-32,24,depth_duration_stimuli/001164_2014-06-17_15-35-46_260595134347_rgbf000085-resize_3/001164_2014-06-17_15-35-46_260595134347_rgbf000085-resize_3-target.png,250,2.354,4,2635,250,feet,jsons/v1_VE250_randls_29.json,702302,978293,30,Man
24,542545,DepthScenes,duration_manipulation_targetAtFixation,jsons/v1_VE250_randls_29.json,http://54.235.29.9/FacialAge/BNav_EC2/DepthDuration/v2_depth_duration_MTurk/v2_DepthDuration_HTML.html#82,82,1293,645,1616,909,8-20-2022,11-53-32,25,depth_duration_stimuli/001136_2014-06-17_15-19-41_260595134347_rgbf000076-resize_3/001136_2014-06-17_15-19-41_260595134347_rgbf000076-resize_3-target.png,250,1.8655,3,2763,249,feet,jsons/v1_VE250_randls_29.json,702302,978293,30,Man
25,542545,DepthScenes,duration_manipulation_targetAtFixation,jsons/v1_VE250_randls_29.json,http://54.235.29.9/FacialAge/BNav_EC2/DepthDuration/v2_depth_duration_MTurk/v2_DepthDuration_HTML.html#82,82,1293,645,1616,909,8-20-2022,11-53-32,26,depth_duration_stimuli/002213_2014-06-28_18-37-58_260595134347_rgbf000055-resize_1/002213_2014-06-28_18-37-58_260595134347_rgbf000055-resize_1-target.png,250,3.62,6,3215,248,feet,jsons/v1_VE250_randls_29.json,702302,978293,30,Man
26,542545,DepthScenes,duration_manipulation_targetAtFixation,jsons/v1_VE250_randls_29.json,http://54.235.29.9/FacialAge/BNav_EC2/DepthDuration/v2_depth_duration_MTurk/v2_DepthDuration_HTML.html#82,82,1293,645,1616,909,8-20-2022,11-53-32,27,depth_duration_stimuli/000691_2014-06-08_13-08-50_260595134347_rgbf000132-resize_3/000691_2014-06-08_13-08-50_260595134347_rgbf000132-resize_3-target.png,250,4.1530000000000005,4,2641,248,feet,jsons/v1_VE250_randls_29.json,702302,978293,30,Man
27,542545,DepthScenes,duration_manipulation_targetAtFixation,jsons/v1_VE250_randls_29.json,http://54.235.29.9/FacialAge/BNav_EC2/DepthDuration/v2_depth_duration_MTurk/v2_DepthDuration_HTML.html#82,82,1293,645,1616,909,8-20-2022,11-53-32,28,depth_duration_stimuli/000692_2014-06-08_13-09-42_260595134347_rgbf000199-resize_2/000692_2014-06-08_13-09-42_260595134347_rgbf000199-resize_2-target.png,250,3.661,5,3130,249,feet,jsons/v1_VE250_randls_29.json,702302,978293,30,Man
28,542545,DepthScenes,duration_manipulation_targetAtFixation,jsons/v1_VE250_randls_29.json,http://54.235.29.9/FacialAge/BNav_EC2/DepthDuration/v2_depth_duration_MTurk/v2_DepthDuration_HTML.html#82,82,1293,645,1616,909,8-20-2022,11-53-32,29,depth_duration_stimuli/001094_2014-06-15_17-36-00_260595134347_rgbf000205-resize_0/001094_2014-06-15_17-36-00_260595134347_rgbf000205-resize_0-target.png,250,4.2175,6,3042,250,feet,jsons/v1_VE250_randls_29.json,702302,978293,30,Man
29,542545,DepthScenes,duration_manipulation_targetAtFixation,jsons/v1_VE250_randls_29.json,http://54.235.29.9/FacialAge/BNav_EC2/DepthDuration/v2_depth_duration_MTurk/v2_DepthDuration_HTML.html#82,82,1293,645,1616,909,8-20-2022,11-53-32,30,depth_duration_stimuli/000375_2014-06-08_11-17-29_260595134347_rgbf000133-resize_2/000375_2014-06-08_11-17-29_260595134347_rgbf000133-resize-original.jpg,250,4.718,0,3539,249,feet,jsons/v1_VE250_randls_29.json,702302,978293,30,Man
30,542545,DepthScenes,duration_manipulation_targetAtFixation,jsons/v1_VE250_randls_29.json,http://54.235.29.9/FacialAge/BNav_EC2/DepthDuration/v2_depth_duration_MTurk/v2_DepthDuration_HTML.html#82,82,1293,645,1616,909,8-20-2022,11-53-32,31,depth_duration_stimuli/002988_2014-06-15_12-24-20_094959634447_rgbf000150-resize_1/002988_2014-06-15_12-24-20_094959634447_rgbf000150-resize_1-target.png,250,4.7669999999999995,6,4401,249,feet,jsons/v1_VE250_randls_29.json,702302,978293,30,Man
31,542545,DepthScenes,duration_manipulation_targetAtFixation,jsons/v1_VE250_randls_29.json,http://54.235.29.9/FacialAge/BNav_EC2/DepthDuration/v2_depth_duration_MTurk/v2_DepthDuration_HTML.html#82,82,1293,645,1616,909,8-20-2022,11-53-32,32,depth_duration_stimuli/001052_2014-06-08_18-24-54_260595134347_rgbf000130-resize_1/001052_2014-06-08_18-24-54_260595134347_rgbf000130-resize_1-target.png,250,4.1045,5,3233,248,feet,jsons/v1_VE250_randls_29.json,702302,978293,30,Man
32,542545,DepthScenes,duration_manipulation_targetAtFixation,jsons/v1_VE250_randls_29.json,http://54.235.29.9/FacialAge/BNav_EC2/DepthDuration/v2_depth_duration_MTurk/v2_DepthDuration_HTML.html#82,82,1293,645,1616,909,8-20-2022,11-53-32,33,depth_duration_stimuli/002057_2014-06-24_21-00-13_260595134347_rgbf000120-resize_1/002057_2014-06-24_21-00-13_260595134347_rgbf000120-resize_1-target.png,250,2.967,5,3296,249,feet,jsons/v1_VE250_randls_29.json,702302,978293,30,Man
33,542545,DepthScenes,duration_manipulation_targetAtFixation,jsons/v1_VE250_randls_29.json,http://54.235.29.9/FacialAge/BNav_EC2/DepthDuration/v2_depth_duration_MTurk/v2_DepthDuration_HTML.html#82,82,1293,645,1616,909,8-20-2022,11-53-32,34,depth_duration_stimuli/000709_2014-06-08_13-51-55_260595134347_rgbf000068-resize_3/000709_2014-06-08_13-51-55_260595134347_rgbf000068-resize_3-target.png,250,1.8030000000000002,3,3357,249,feet,jsons/v1_VE250_randls_29.json,702302,978293,30,Man
34,542545,DepthScenes,duration_manipulation_targetAtFixation,jsons/v1_VE250_randls_29.json,http://54.235.29.9/FacialAge/BNav_EC2/DepthDuration/v2_depth_duration_MTurk/v2_DepthDuration_HTML.html#82,82,1293,645,1616,909,8-20-2022,11-53-32,35,depth_duration_stimuli/001092_2014-06-15_17-34-58_260595134347_rgbf000171-resize_3/001092_2014-06-15_17-34-58_260595134347_rgbf000171-resize_3-target.png,250,2.6935,2,2624,248,feet,jsons/v1_VE250_randls_29.json,702302,978293,30,Man
35,542545,DepthScenes,duration_manipulation_targetAtFixation,jsons/v1_VE250_randls_29.json,http://54.235.29.9/FacialAge/BNav_EC2/DepthDuration/v2_depth_duration_MTurk/v2_DepthDuration_HTML.html#82,82,1293,645,1616,909,8-20-2022,11-53-32,36,depth_duration_stimuli/002545_2014-06-24_13-38-53_094959634447_rgbf000080-resize_4/002545_2014-06-24_13-38-53_094959634447_rgbf000080-resize_4-target.png,250,1.9205,3,3071,249,feet,jsons/v1_VE250_randls_29.json,702302,978293,30,Man
36,542545,DepthScenes,duration_manipulation_targetAtFixation,jsons/v1_VE250_randls_29.json,http://54.235.29.9/FacialAge/BNav_EC2/DepthDuration/v2_depth_duration_MTurk/v2_DepthDuration_HTML.html#82,82,1293,645,1616,909,8-20-2022,11-53-32,37,depth_duration_stimuli/001055_2014-06-08_18-45-35_260595134347_rgbf000111-resize_4/001055_2014-06-08_18-45-35_260595134347_rgbf000111-resize_4-target.png,250,2.4290000000000003,0,3576,248,feet,jsons/v1_VE250_randls_29.json,702302,978293,30,Man
37,542545,DepthScenes,duration_manipulation_targetAtFixation,jsons/v1_VE250_randls_29.json,http://54.235.29.9/FacialAge/BNav_EC2/DepthDuration/v2_depth_duration_MTurk/v2_DepthDuration_HTML.html#82,82,1293,645,1616,909,8-20-2022,11-53-32,38,depth_duration_stimuli/000549_2014-06-08_22-10-24_260595134347_rgbf000247-resize_3/000549_2014-06-08_22-10-24_260595134347_rgbf000247-resize_3-target.png,250,1.841,2,3371,248,feet,jsons/v1_VE250_randls_29.json,702302,978293,30,Man
38,542545,DepthScenes,duration_manipulation_targetAtFixation,jsons/v1_VE250_randls_29.json,http://54.235.29.9/FacialAge/BNav_EC2/DepthDuration/v2_depth_duration_MTurk/v2_DepthDuration_HTML.html#82,82,1293,645,1616,909,8-20-2022,11-53-32,39,depth_duration_stimuli/002570_2014-06-24_13-59-54_094959634447_rgbf000059-resize_0/002570_2014-06-24_13-59-54_094959634447_rgbf000059-resize_0-target.png,250,4.037,4,3718,246,feet,jsons/v1_VE250_randls_29.json,702302,978293,30,Man
39,542545,DepthScenes,duration_manipulation_targetAtFixation,jsons/v1_VE250_randls_29.json,http://54.235.29.9/FacialAge/BNav_EC2/DepthDuration/v2_depth_duration_MTurk/v2_DepthDuration_HTML.html#82,82,1293,645,1616,909,8-20-2022,11-53-32,40,depth_duration_stimuli/002467_2014-06-28_20-38-07_260595134347_rgbf000026-resize_2/002467_2014-06-28_20-38-07_260595134347_rgbf000026-resize_2-target.png,250,4.742,5,3382,249,feet,jsons/v1_VE250_randls_29.json,702302,978293,30,Man
40,542545,DepthScenes,duration_manipulation_targetAtFixation,jsons/v1_VE250_randls_29.json,http://54.235.29.9/FacialAge/BNav_EC2/DepthDuration/v2_depth_duration_MTurk/v2_DepthDuration_HTML.html#82,82,1293,645,1616,909,8-20-2022,11-53-32,41,depth_duration_stimuli/000917_2014-06-09_22-45-29_260595134347_rgbf000149-resize_3/000917_2014-06-09_22-45-29_260595134347_rgbf000149-resize_3-target.png,250,4.1865,4,2629,248,feet,jsons/v1_VE250_randls_29.json,702302,978293,30,Man
41,542545,DepthScenes,duration_manipulation_targetAtFixation,jsons/v1_VE250_randls_29.json,http://54.235.29.9/FacialAge/BNav_EC2/DepthDuration/v2_depth_duration_MTurk/v2_DepthDuration_HTML.html#82,82,1293,645,1616,909,8-20-2022,11-53-32,42,depth_duration_stimuli/002323_2014-06-28_20-01-54_260595134347_rgbf000051-resize_4/002323_2014-06-28_20-01-54_260595134347_rgbf000051-resize_4-target.png,250,3.7310000000000003,4,3469,248,feet,jsons/v1_VE250_randls_29.json,702302,978293,30,Man
42,542545,DepthScenes,duration_manipulation_targetAtFixation,jsons/v1_VE250_randls_29.json,http://54.235.29.9/FacialAge/BNav_EC2/DepthDuration/v2_depth_duration_MTurk/v2_DepthDuration_HTML.html#82,82,1293,645,1616,909,8-20-2022,11-53-32,43,depth_duration_stimuli/001066_2014-06-08_22-03-20_260595134347_rgbf000066-resize_4/001066_2014-06-08_22-03-20_260595134347_rgbf000066-resize_4-target.png,250,4.2330000000000005,6,3518,249,feet,jsons/v1_VE250_randls_29.json,702302,978293,30,Man
43,542545,DepthScenes,duration_manipulation_targetAtFixation,jsons/v1_VE250_randls_29.json,http://54.235.29.9/FacialAge/BNav_EC2/DepthDuration/v2_depth_duration_MTurk/v2_DepthDuration_HTML.html#82,82,1293,645,1616,909,8-20-2022,11-53-32,44,depth_duration_stimuli/000742_2014-06-08_18-48-09_260595134347_rgbf000164-resize_4/000742_2014-06-08_18-48-09_260595134347_rgbf000164-resize_4-target.png,250,4.632,5,3252,249,feet,jsons/v1_VE250_randls_29.json,702302,978293,30,Man
44,542545,DepthScenes,duration_manipulation_targetAtFixation,jsons/v1_VE250_randls_29.json,http://54.235.29.9/FacialAge/BNav_EC2/DepthDuration/v2_depth_duration_MTurk/v2_DepthDuration_HTML.html#82,82,1293,645,1616,909,8-20-2022,11-53-32,45,depth_duration_stimuli/000787_2014-06-08_22-33-53_260595134347_rgbf000175-resize_1/000787_2014-06-08_22-33-53_260595134347_rgbf000175-resize-original.jpg,250,4.784,0,36806,248,feet,jsons/v1_VE250_randls_29.json,702302,978293,30,Man
45,542545,DepthScenes,duration_manipulation_targetAtFixation,jsons/v1_VE250_randls_29.json,http://54.235.29.9/FacialAge/BNav_EC2/DepthDuration/v2_depth_duration_MTurk/v2_DepthDuration_HTML.html#82,82,1293,645,1616,909,8-20-2022,11-53-32,46,depth_duration_stimuli/000414_2014-06-04_19-49-13_260595134347_rgbf000044-resize_0/000414_2014-06-04_19-49-13_260595134347_rgbf000044-resize_0-target.png,250,4.329,5,3278,248,feet,jsons/v1_VE250_randls_29.json,702302,978293,30,Man
46,542545,DepthScenes,duration_manipulation_targetAtFixation,jsons/v1_VE250_randls_29.json,http://54.235.29.9/FacialAge/BNav_EC2/DepthDuration/v2_depth_duration_MTurk/v2_DepthDuration_HTML.html#82,82,1293,645,1616,909,8-20-2022,11-53-32,47,depth_duration_stimuli/003129_2014-05-12_10-48-10_094959634447_rgbf000100-resize_0/003129_2014-05-12_10-48-10_094959634447_rgbf000100-resize_0-target.png,250,4.9305,0,3215,249,feet,jsons/v1_VE250_randls_29.json,702302,978293,30,Man
47,542545,DepthScenes,duration_manipulation_targetAtFixation,jsons/v1_VE250_randls_29.json,http://54.235.29.9/FacialAge/BNav_EC2/DepthDuration/v2_depth_duration_MTurk/v2_DepthDuration_HTML.html#82,82,1293,645,1616,909,8-20-2022,11-53-32,48,depth_duration_stimuli/002039_2014-06-24_20-22-38_260595134347_rgbf000084-resize_1/002039_2014-06-24_20-22-38_260595134347_rgbf000084-resize_1-target.png,250,4.408,6,3302,248,feet,jsons/v1_VE250_randls_29.json,702302,978293,30,Man
48,542545,DepthScenes,duration_manipulation_targetAtFixation,jsons/v1_VE250_randls_29.json,http://54.235.29.9/FacialAge/BNav_EC2/DepthDuration/v2_depth_duration_MTurk/v2_DepthDuration_HTML.html#82,82,1293,645,1616,909,8-20-2022,11-53-32,49,depth_duration_stimuli/002103_2014-06-25_20-00-40_260595134347_rgbf000049-resize_0/002103_2014-06-25_20-00-40_260595134347_rgbf000049-resize_0-target.png,250,4.105,0,4442,249,feet,jsons/v1_VE250_randls_29.json,702302,978293,30,Man
49,542545,DepthScenes,duration_manipulation_targetAtFixation,jsons/v1_VE250_randls_29.json,http://54.235.29.9/FacialAge/BNav_EC2/DepthDuration/v2_depth_duration_MTurk/v2_DepthDuration_HTML.html#82,82,1293,645,1616,909,8-20-2022,11-53-32,50,depth_duration_stimuli/001555_2014-06-20_17-12-10_260595134347_rgbf000065-resize_4/001555_2014-06-20_17-12-10_260595134347_rgbf000065-resize_4-target.png,250,1.633,2,2960,251,feet,jsons/v1_VE250_randls_29.json,702302,978293,30,Man
50,542545,DepthScenes,duration_manipulation_targetAtFixation,jsons/v1_VE250_randls_29.json,http://54.235.29.9/FacialAge/BNav_EC2/DepthDuration/v2_depth_duration_MTurk/v2_DepthDuration_HTML.html#82,82,1293,645,1616,909,8-20-2022,11-53-32,51,depth_duration_stimuli/000103_2014-05-14_22-01-17_260595134347_rgbf000152-resize_5/000103_2014-05-14_22-01-17_260595134347_rgbf000152-resize_5-target.png,250,1.993,3,3287,250,feet,jsons/v1_VE250_randls_29.json,702302,978293,30,Man
51,542545,DepthScenes,duration_manipulation_targetAtFixation,jsons/v1_VE250_randls_29.json,http://54.235.29.9/FacialAge/BNav_EC2/DepthDuration/v2_depth_duration_MTurk/v2_DepthDuration_HTML.html#82,82,1293,645,1616,909,8-20-2022,11-53-32,52,depth_duration_stimuli/000906_2014-06-08_13-35-43_260595134347_rgbf000155-resize_1/000906_2014-06-08_13-35-43_260595134347_rgbf000155-resize_1-target.png,250,2.8489999999999998,4,2811,249,feet,jsons/v1_VE250_randls_29.json,702302,978293,30,Man
52,542545,DepthScenes,duration_manipulation_targetAtFixation,jsons/v1_VE250_randls_29.json,http://54.235.29.9/FacialAge/BNav_EC2/DepthDuration/v2_depth_duration_MTurk/v2_DepthDuration_HTML.html#82,82,1293,645,1616,909,8-20-2022,11-53-32,53,depth_duration_stimuli/002805_2014-06-22_19-54-03_094959634447_rgbf000079-resize_1/002805_2014-06-22_19-54-03_094959634447_rgbf000079-resize_1-target.png,250,3.1439999999999997,6,4597,249,feet,jsons/v1_VE250_randls_29.json,702302,978293,30,Man
53,542545,DepthScenes,duration_manipulation_targetAtFixation,jsons/v1_VE250_randls_29.json,http://54.235.29.9/FacialAge/BNav_EC2/DepthDuration/v2_depth_duration_MTurk/v2_DepthDuration_HTML.html#82,82,1293,645,1616,909,8-20-2022,11-53-32,54,depth_duration_stimuli/002788_2014-06-22_19-36-03_094959634447_rgbf000088-resize_2/002788_2014-06-22_19-36-03_094959634447_rgbf000088-resize_2-target.png,250,1.6465,4,3148,248,feet,jsons/v1_VE250_randls_29.json,702302,978293,30,Man
54,542545,DepthScenes,duration_manipulation_targetAtFixation,jsons/v1_VE250_randls_29.json,http://54.235.29.9/FacialAge/BNav_EC2/DepthDuration/v2_depth_duration_MTurk/v2_DepthDuration_HTML.html#82,82,1293,645,1616,909,8-20-2022,11-53-32,55,depth_duration_stimuli/000749_2014-06-08_21-55-06_260595134347_rgbf000070-resize_2/000749_2014-06-08_21-55-06_260595134347_rgbf000070-resize_2-target.png,250,2.331,3,3031,248,feet,jsons/v1_VE250_randls_29.json,702302,978293,30,Man
55,542545,DepthScenes,duration_manipulation_targetAtFixation,jsons/v1_VE250_randls_29.json,http://54.235.29.9/FacialAge/BNav_EC2/DepthDuration/v2_depth_duration_MTurk/v2_DepthDuration_HTML.html#82,82,1293,645,1616,909,8-20-2022,11-53-32,56,depth_duration_stimuli/000447_2014-06-08_16-15-46_260595134347_rgbf000130-resize_1/000447_2014-06-08_16-15-46_260595134347_rgbf000130-resize_1-target.png,250,4.479,5,3353,248,feet,jsons/v1_VE250_randls_29.json,702302,978293,30,Man
56,542545,DepthScenes,duration_manipulation_targetAtFixation,jsons/v1_VE250_randls_29.json,http://54.235.29.9/FacialAge/BNav_EC2/DepthDuration/v2_depth_duration_MTurk/v2_DepthDuration_HTML.html#82,82,1293,645,1616,909,8-20-2022,11-53-32,57,depth_duration_stimuli/001447_2014-06-19_17-00-32_260595134347_rgbf000082-resize_5/001447_2014-06-19_17-00-32_260595134347_rgbf000082-resize_5-target.png,250,4.13775,4,2625,248,feet,jsons/v1_VE250_randls_29.json,702302,978293,30,Man
57,542545,DepthScenes,duration_manipulation_targetAtFixation,jsons/v1_VE250_randls_29.json,http://54.235.29.9/FacialAge/BNav_EC2/DepthDuration/v2_depth_duration_MTurk/v2_DepthDuration_HTML.html#82,82,1293,645,1616,909,8-20-2022,11-53-32,58,depth_duration_stimuli/000739_2014-06-08_18-45-58_260595134347_rgbf000068-resize_1/000739_2014-06-08_18-45-58_260595134347_rgbf000068-resize_1-target.png,250,3.534,5,4045,248,feet,jsons/v1_VE250_randls_29.json,702302,978293,30,Man
58,542545,DepthScenes,duration_manipulation_targetAtFixation,jsons/v1_VE250_randls_29.json,http://54.235.29.9/FacialAge/BNav_EC2/DepthDuration/v2_depth_duration_MTurk/v2_DepthDuration_HTML.html#82,82,1293,645,1616,909,8-20-2022,11-53-32,59,depth_duration_stimuli/000734_2014-06-08_17-39-11_260595134347_rgbf000128-resize_2/000734_2014-06-08_17-39-11_260595134347_rgbf000128-resize_2-target.png,250,4.098,4,55783,249,feet,jsons/v1_VE250_randls_29.json,702302,978293,30,Man
59,542545,DepthScenes,duration_manipulation_targetAtFixation,jsons/v1_VE250_randls_29.json,http://54.235.29.9/FacialAge/BNav_EC2/DepthDuration/v2_depth_duration_MTurk/v2_DepthDuration_HTML.html#82,82,1293,645,1616,909,8-20-2022,11-53-32,60,depth_duration_stimuli/002663_2014-06-13_15-50-26_094959634447_rgbf000075-resize_1/002663_2014-06-13_15-50-26_094959634447_rgbf000075-resize_1-target.png,250,4.7495,5,2935,249,feet,jsons/v1_VE250_randls_29.json,702302,978293,30,Man
60,542545,DepthScenes,duration_manipulation_targetAtFixation,jsons/v1_VE250_randls_29.json,http://54.235.29.9/FacialAge/BNav_EC2/DepthDuration/v2_depth_duration_MTurk/v2_DepthDuration_HTML.html#82,82,1293,645,1616,909,8-20-2022,11-53-32,61,depth_duration_stimuli/000409_2014-06-04_19-23-33_260595134347_rgbf000067-resize_0/000409_2014-06-04_19-23-33_260595134347_rgbf000067-resize_0-target.png,250,3.7335,5,3038,248,feet,jsons/v1_VE250_randls_29.json,702302,978293,30,Man
61,542545,DepthScenes,duration_manipulation_targetAtFixation,jsons/v1_VE250_randls_29.json,http://54.235.29.9/FacialAge/BNav_EC2/DepthDuration/v2_depth_duration_MTurk/v2_DepthDuration_HTML.html#82,82,1293,645,1616,909,8-20-2022,11-53-32,62,depth_duration_stimuli/001810_2014-06-26_20-51-35_260595134347_rgbf000040-resize_3/001810_2014-06-26_20-51-35_260595134347_rgbf000040-resize_3-target.png,250,2.2525,2,3821,249,feet,jsons/v1_VE250_randls_29.json,702302,978293,30,Man
62,542545,DepthScenes,duration_manipulation_targetAtFixation,jsons/v1_VE250_randls_29.json,http://54.235.29.9/FacialAge/BNav_EC2/DepthDuration/v2_depth_duration_MTurk/v2_DepthDuration_HTML.html#82,82,1293,645,1616,909,8-20-2022,11-53-32,63,depth_duration_stimuli/003010_2014-06-15_12-54-35_094959634447_rgbf000112-resize_0/003010_2014-06-15_12-54-35_094959634447_rgbf000112-resize_0-target.png,250,3.1185,7,3390,248,feet,jsons/v1_VE250_randls_29.json,702302,978293,30,Man
63,542545,DepthScenes,duration_manipulation_targetAtFixation,jsons/v1_VE250_randls_29.json,http://54.235.29.9/FacialAge/BNav_EC2/DepthDuration/v2_depth_duration_MTurk/v2_DepthDuration_HTML.html#82,82,1293,645,1616,909,8-20-2022,11-53-32,64,depth_duration_stimuli/001133_2014-06-17_14-49-16_260595134347_rgbf000100-resize_0/001133_2014-06-17_14-49-16_260595134347_rgbf000100-resize_0-target.png,250,4.2115,5,2962,249,feet,jsons/v1_VE250_randls_29.json,702302,978293,30,Man
64,542545,DepthScenes,duration_manipulation_targetAtFixation,jsons/v1_VE250_randls_29.json,http://54.235.29.9/FacialAge/BNav_EC2/DepthDuration/v2_depth_duration_MTurk/v2_DepthDuration_HTML.html#82,82,1293,645,1616,909,8-20-2022,11-53-32,65,depth_duration_stimuli/001132_2014-06-17_14-48-54_260595134347_rgbf000100-resize_2/001132_2014-06-17_14-48-54_260595134347_rgbf000100-resize_2-target.png,250,3.753,4,2890,249,feet,jsons/v1_VE250_randls_29.json,702302,978293,30,Man
65,542545,DepthScenes,duration_manipulation_targetAtFixation,jsons/v1_VE250_randls_29.json,http://54.235.29.9/FacialAge/BNav_EC2/DepthDuration/v2_depth_duration_MTurk/v2_DepthDuration_HTML.html#82,82,1293,645,1616,909,8-20-2022,11-53-32,66,depth_duration_stimuli/001222_2014-06-17_16-24-06_260595134347_rgbf000073-resize_0/001222_2014-06-17_16-24-06_260595134347_rgbf000073-resize-original.jpg,250,1.4385,3,4290,250,feet,jsons/v1_VE250_randls_29.json,702302,978293,30,Man
66,542545,DepthScenes,duration_manipulation_targetAtFixation,jsons/v1_VE250_randls_29.json,http://54.235.29.9/FacialAge/BNav_EC2/DepthDuration/v2_depth_duration_MTurk/v2_DepthDuration_HTML.html#82,82,1293,645,1616,909,8-20-2022,11-53-32,67,depth_duration_stimuli/002600_2014-06-24_14-27-04_094959634447_rgbf000074-resize_2/002600_2014-06-24_14-27-04_094959634447_rgbf000074-resize_2-target.png,250,2.7575,4,2930,248,feet,jsons/v1_VE250_randls_29.json,702302,978293,30,Man
67,542545,DepthScenes,duration_manipulation_targetAtFixation,jsons/v1_VE250_randls_29.json,http://54.235.29.9/FacialAge/BNav_EC2/DepthDuration/v2_depth_duration_MTurk/v2_DepthDuration_HTML.html#82,82,1293,645,1616,909,8-20-2022,11-53-32,68,depth_duration_stimuli/003228_2014-05-14_13-42-35_094959634447_rgbf000101-resize_1/003228_2014-05-14_13-42-35_094959634447_rgbf000101-resize_1-target.png,250,1.9680000000000002,2,3415,247,feet,jsons/v1_VE250_randls_29.json,702302,978293,30,Man
68,542545,DepthScenes,duration_manipulation_targetAtFixation,jsons/v1_VE250_randls_29.json,http://54.235.29.9/FacialAge/BNav_EC2/DepthDuration/v2_depth_duration_MTurk/v2_DepthDuration_HTML.html#82,82,1293,645,1616,909,8-20-2022,11-53-32,69,depth_duration_stimuli/001417_2014-06-19_16-25-36_260595134347_rgbf000115-resize_5/001417_2014-06-19_16-25-36_260595134347_rgbf000115-resize_5-target.png,250,4.6255,6,4309,249,feet,jsons/v1_VE250_randls_29.json,702302,978293,30,Man
69,542545,DepthScenes,duration_manipulation_targetAtFixation,jsons/v1_VE250_randls_29.json,http://54.235.29.9/FacialAge/BNav_EC2/DepthDuration/v2_depth_duration_MTurk/v2_DepthDuration_HTML.html#82,82,1293,645,1616,909,8-20-2022,11-53-32,70,depth_duration_stimuli/003081_2014-06-15_15-19-16_094959634447_rgbf000150-resize_1/003081_2014-06-15_15-19-16_094959634447_rgbf000150-resize_1-target.png,250,3.9125,6,3075,248,feet,jsons/v1_VE250_randls_29.json,702302,978293,30,Man
70,542545,DepthScenes,duration_manipulation_targetAtFixation,jsons/v1_VE250_randls_29.json,http://54.235.29.9/FacialAge/BNav_EC2/DepthDuration/v2_depth_duration_MTurk/v2_DepthDuration_HTML.html#82,82,1293,645,1616,909,8-20-2022,11-53-32,71,depth_duration_stimuli/002905_2014-06-03_18-04-43_094959634447_rgbf000151-resize_2/002905_2014-06-03_18-04-43_094959634447_rgbf000151-resize_2-target.png,250,2.0295,3,2834,249,feet,jsons/v1_VE250_randls_29.json,702302,978293,30,Man
71,542545,DepthScenes,duration_manipulation_targetAtFixation,jsons/v1_VE250_randls_29.json,http://54.235.29.9/FacialAge/BNav_EC2/DepthDuration/v2_depth_duration_MTurk/v2_DepthDuration_HTML.html#82,82,1293,645,1616,909,8-20-2022,11-53-32,72,depth_duration_stimuli/003423_2014-05-21_10-23-26_094959634447_rgbf002665-resize_2/003423_2014-05-21_10-23-26_094959634447_rgbf002665-resize_2-target.png,250,3.2575,8,3425,250,feet,jsons/v1_VE250_randls_29.json,702302,978293,30,Man
72,542545,DepthScenes,duration_manipulation_targetAtFixation,jsons/v1_VE250_randls_29.json,http://54.235.29.9/FacialAge/BNav_EC2/DepthDuration/v2_depth_duration_MTurk/v2_DepthDuration_HTML.html#82,82,1293,645,1616,909,8-20-2022,11-53-32,73,depth_duration_stimuli/000436_2014-06-09_22-25-11_260595134347_rgbf000137-resize_1/000436_2014-06-09_22-25-11_260595134347_rgbf000137-resize_1-target.png,250,4.0705,7,2599,249,feet,jsons/v1_VE250_randls_29.json,702302,978293,30,Man
73,542545,DepthScenes,duration_manipulation_targetAtFixation,jsons/v1_VE250_randls_29.json,http://54.235.29.9/FacialAge/BNav_EC2/DepthDuration/v2_depth_duration_MTurk/v2_DepthDuration_HTML.html#82,82,1293,645,1616,909,8-20-2022,11-53-32,74,depth_duration_stimuli/002444_2014-06-28_20-32-08_260595134347_rgbf000027-resize_0/002444_2014-06-28_20-32-08_260595134347_rgbf000027-resize_0-target.png,250,4.388999999999999,7,2980,248,feet,jsons/v1_VE250_randls_29.json,702302,978293,30,Man
74,542545,DepthScenes,duration_manipulation_targetAtFixation,jsons/v1_VE250_randls_29.json,http://54.235.29.9/FacialAge/BNav_EC2/DepthDuration/v2_depth_duration_MTurk/v2_DepthDuration_HTML.html#82,82,1293,645,1616,909,8-20-2022,11-53-32,75,depth_duration_stimuli/002989_2014-06-15_12-25-03_094959634447_rgbf000150-resize_3/002989_2014-06-15_12-25-03_094959634447_rgbf000150-resize_3-target.png,250,4.1975,6,3956,250,feet,jsons/v1_VE250_randls_29.json,702302,978293,30,Man
75,542545,DepthScenes,duration_manipulation_targetAtFixation,jsons/v1_VE250_randls_29.json,http://54.235.29.9/FacialAge/BNav_EC2/DepthDuration/v2_depth_duration_MTurk/v2_DepthDuration_HTML.html#82,82,1293,645,1616,909,8-20-2022,11-53-32,76,depth_duration_stimuli/000866_2014-06-09_20-45-42_260595134347_rgbf000139-resize_1/000866_2014-06-09_20-45-42_260595134347_rgbf000139-resize_1-target.png,250,3.2155,3,3050,249,feet,jsons/v1_VE250_randls_29.json,702302,978293,30,Man
76,542545,DepthScenes,duration_manipulation_targetAtFixation,jsons/v1_VE250_randls_29.json,http://54.235.29.9/FacialAge/BNav_EC2/DepthDuration/v2_depth_duration_MTurk/v2_DepthDuration_HTML.html#82,82,1293,645,1616,909,8-20-2022,11-53-32,77,depth_duration_stimuli/003292_2014-05-14_21-53-49_094959634447_rgbf000100-resize_2/003292_2014-05-14_21-53-49_094959634447_rgbf000100-resize_2-target.png,250,3.4815,5,2832,250,feet,jsons/v1_VE250_randls_29.json,702302,978293,30,Man
77,542545,DepthScenes,duration_manipulation_targetAtFixation,jsons/v1_VE250_randls_29.json,http://54.235.29.9/FacialAge/BNav_EC2/DepthDuration/v2_depth_duration_MTurk/v2_DepthDuration_HTML.html#82,82,1293,645,1616,909,8-20-2022,11-53-32,78,depth_duration_stimuli/002639_2014-06-24_14-51-37_094959634447_rgbf000074-resize_4/002639_2014-06-24_14-51-37_094959634447_rgbf000074-resize_4-target.png,250,4.0375,6,2895,248,feet,jsons/v1_VE250_randls_29.json,702302,978293,30,Man
78,542545,DepthScenes,duration_manipulation_targetAtFixation,jsons/v1_VE250_randls_29.json,http://54.235.29.9/FacialAge/BNav_EC2/DepthDuration/v2_depth_duration_MTurk/v2_DepthDuration_HTML.html#82,82,1293,645,1616,909,8-20-2022,11-53-32,79,depth_duration_stimuli/002725_2014-06-22_11-47-51_094959634447_rgbf000070-resize_1/002725_2014-06-22_11-47-51_094959634447_rgbf000070-resize_1-target.png,250,2.195,3,2723,249,feet,jsons/v1_VE250_randls_29.json,702302,978293,30,Man
79,542545,DepthScenes,duration_manipulation_targetAtFixation,jsons/v1_VE250_randls_29.json,http://54.235.29.9/FacialAge/BNav_EC2/DepthDuration/v2_depth_duration_MTurk/v2_DepthDuration_HTML.html#82,82,1293,645,1616,909,8-20-2022,11-53-32,80,depth_duration_stimuli/002344_2014-06-28_20-06-29_260595134347_rgbf000030-resize_1/002344_2014-06-28_20-06-29_260595134347_rgbf000030-resize_1-target.png,250,1.5795,1,3856,249,feet,jsons/v1_VE250_randls_29.json,702302,978293,30,Man
80,542545,DepthScenes,duration_manipulation_targetAtFixation,jsons/v1_VE250_randls_29.json,http://54.235.29.9/FacialAge/BNav_EC2/DepthDuration/v2_depth_duration_MTurk/v2_DepthDuration_HTML.html#82,82,1293,645,1616,909,8-20-2022,11-53-32,81,depth_duration_stimuli/000736_2014-06-08_18-24-15_260595134347_rgbf000206-resize_3/000736_2014-06-08_18-24-15_260595134347_rgbf000206-resize_3-target.png,250,3.515,3,2722,248,feet,jsons/v1_VE250_randls_29.json,702302,978293,30,Man
81,542545,DepthScenes,duration_manipulation_targetAtFixation,jsons/v1_VE250_randls_29.json,http://54.235.29.9/FacialAge/BNav_EC2/DepthDuration/v2_depth_duration_MTurk/v2_DepthDuration_HTML.html#82,82,1293,645,1616,909,8-20-2022,11-53-32,82,depth_duration_stimuli/000137_2014-05-20_17-04-49_260595134347_rgbf000120-resize_1/000137_2014-05-20_17-04-49_260595134347_rgbf000120-resize_1-target.png,250,3.786,5,3627,248,feet,jsons/v1_VE250_randls_29.json,702302,978293,30,Man
82,542545,DepthScenes,duration_manipulation_targetAtFixation,jsons/v1_VE250_randls_29.json,http://54.235.29.9/FacialAge/BNav_EC2/DepthDuration/v2_depth_duration_MTurk/v2_DepthDuration_HTML.html#82,82,1293,645,1616,909,8-20-2022,11-53-32,83,depth_duration_stimuli/002748_2014-06-22_19-07-22_094959634447_rgbf000078-resize_1/002748_2014-06-22_19-07-22_094959634447_rgbf000078-resize_1-target.png,250,4.6705,7,3113,248,feet,jsons/v1_VE250_randls_29.json,702302,978293,30,Man
83,542545,DepthScenes,duration_manipulation_targetAtFixation,jsons/v1_VE250_randls_29.json,http://54.235.29.9/FacialAge/BNav_EC2/DepthDuration/v2_depth_duration_MTurk/v2_DepthDuration_HTML.html#82,82,1293,645,1616,909,8-20-2022,11-53-32,84,depth_duration_stimuli/002995_2014-06-15_12-31-26_094959634447_rgbf000150-resize_1/002995_2014-06-15_12-31-26_094959634447_rgbf000150-resize_1-target.png,250,3.8360000000000003,6,2896,249,feet,jsons/v1_VE250_randls_29.json,702302,978293,30,Man
84,542545,DepthScenes,duration_manipulation_targetAtFixation,jsons/v1_VE250_randls_29.json,http://54.235.29.9/FacialAge/BNav_EC2/DepthDuration/v2_depth_duration_MTurk/v2_DepthDuration_HTML.html#82,82,1293,645,1616,909,8-20-2022,11-53-32,85,depth_duration_stimuli/000773_2014-06-08_22-24-54_260595134347_rgbf000093-resize_1/000773_2014-06-08_22-24-54_260595134347_rgbf000093-resize_1-target.png,250,4.973,6,2412,248,feet,jsons/v1_VE250_randls_29.json,702302,978293,30,Man
85,542545,DepthScenes,duration_manipulation_targetAtFixation,jsons/v1_VE250_randls_29.json,http://54.235.29.9/FacialAge/BNav_EC2/DepthDuration/v2_depth_duration_MTurk/v2_DepthDuration_HTML.html#82,82,1293,645,1616,909,8-20-2022,11-53-32,86,depth_duration_stimuli/002414_2014-06-28_20-24-58_260595134347_rgbf000067-resize_4/002414_2014-06-28_20-24-58_260595134347_rgbf000067-resize_4-target.png,250,4.363,6,2652,248,feet,jsons/v1_VE250_randls_29.json,702302,978293,30,Man
86,542545,DepthScenes,duration_manipulation_targetAtFixation,jsons/v1_VE250_randls_29.json,http://54.235.29.9/FacialAge/BNav_EC2/DepthDuration/v2_depth_duration_MTurk/v2_DepthDuration_HTML.html#82,82,1293,645,1616,909,8-20-2022,11-53-32,87,depth_duration_stimuli/000469_2014-06-09_19-42-10_260595134347_rgbf000081-resize_1/000469_2014-06-09_19-42-10_260595134347_rgbf000081-resize_1-target.png,250,1.652,2,3601,248,feet,jsons/v1_VE250_randls_29.json,702302,978293,30,Man
87,542545,DepthScenes,duration_manipulation_targetAtFixation,jsons/v1_VE250_randls_29.json,http://54.235.29.9/FacialAge/BNav_EC2/DepthDuration/v2_depth_duration_MTurk/v2_DepthDuration_HTML.html#82,82,1293,645,1616,909,8-20-2022,11-53-32,88,depth_duration_stimuli/000483_2014-06-09_20-41-45_260595134347_rgbf000116-resize_4/000483_2014-06-09_20-41-45_260595134347_rgbf000116-resize_4-target.png,250,1.337,5,4177,248,feet,jsons/v1_VE250_randls_29.json,702302,978293,30,Man
88,542545,DepthScenes,duration_manipulation_targetAtFixation,jsons/v1_VE250_randls_29.json,http://54.235.29.9/FacialAge/BNav_EC2/DepthDuration/v2_depth_duration_MTurk/v2_DepthDuration_HTML.html#82,82,1293,645,1616,909,8-20-2022,11-53-32,89,depth_duration_stimuli/000506_2014-06-08_23-21-00_260595134347_rgbf000070-resize_7/000506_2014-06-08_23-21-00_260595134347_rgbf000070-resize_7-target.png,250,4.0585,4,2741,248,feet,jsons/v1_VE250_randls_29.json,702302,978293,30,Man
89,542545,DepthScenes,duration_manipulation_targetAtFixation,jsons/v1_VE250_randls_29.json,http://54.235.29.9/FacialAge/BNav_EC2/DepthDuration/v2_depth_duration_MTurk/v2_DepthDuration_HTML.html#82,82,1293,645,1616,909,8-20-2022,11-53-32,90,depth_duration_stimuli/003079_2014-06-15_15-18-20_094959634447_rgbf000152-resize_8/003079_2014-06-15_15-18-20_094959634447_rgbf000152-resize_8-target.png,250,2.8775,6,3838,251,feet,jsons/v1_VE250_randls_29.json,702302,978293,30,Man
90,542545,DepthScenes,duration_manipulation_targetAtFixation,jsons/v1_VE250_randls_29.json,http://54.235.29.9/FacialAge/BNav_EC2/DepthDuration/v2_depth_duration_MTurk/v2_DepthDuration_HTML.html#82,82,1293,645,1616,909,8-20-2022,11-53-32,91,depth_duration_stimuli/002043_2014-06-24_20-29-38_260595134347_rgbf000039-resize_4/002043_2014-06-24_20-29-38_260595134347_rgbf000039-resize_4-target.png,250,2.8435,4,3163,249,feet,jsons/v1_VE250_randls_29.json,702302,978293,30,Man
91,542545,DepthScenes,duration_manipulation_targetAtFixation,jsons/v1_VE250_randls_29.json,http://54.235.29.9/FacialAge/BNav_EC2/DepthDuration/v2_depth_duration_MTurk/v2_DepthDuration_HTML.html#82,82,1293,645,1616,909,8-20-2022,11-53-32,92,depth_duration_stimuli/003048_2014-06-15_13-49-43_094959634447_rgbf000150-resize_1/003048_2014-06-15_13-49-43_094959634447_rgbf000150-resize_1-target.png,250,4.0035,5,3596,249,feet,jsons/v1_VE250_randls_29.json,702302,978293,30,Man
92,542545,DepthScenes,duration_manipulation_targetAtFixation,jsons/v1_VE250_randls_29.json,http://54.235.29.9/FacialAge/BNav_EC2/DepthDuration/v2_depth_duration_MTurk/v2_DepthDuration_HTML.html#82,82,1293,645,1616,909,8-20-2022,11-53-32,93,depth_duration_stimuli/002784_2014-06-22_19-26-30_094959634447_rgbf000083-resize_3/002784_2014-06-22_19-26-30_094959634447_rgbf000083-resize_3-target.png,250,1.8046666666667,2,3334,249,feet,jsons/v1_VE250_randls_29.json,702302,978293,30,Man
93,542545,DepthScenes,duration_manipulation_targetAtFixation,jsons/v1_VE250_randls_29.json,http://54.235.29.9/FacialAge/BNav_EC2/DepthDuration/v2_depth_duration_MTurk/v2_DepthDuration_HTML.html#82,82,1293,645,1616,909,8-20-2022,11-53-32,94,depth_duration_stimuli/001100_2014-06-15_17-46-26_260595134347_rgbf000225-resize_2/001100_2014-06-15_17-46-26_260595134347_rgbf000225-resize_2-target.png,250,2.24,2,2586,248,feet,jsons/v1_VE250_randls_29.json,702302,978293,30,Man
94,542545,DepthScenes,duration_manipulation_targetAtFixation,jsons/v1_VE250_randls_29.json,http://54.235.29.9/FacialAge/BNav_EC2/DepthDuration/v2_depth_duration_MTurk/v2_DepthDuration_HTML.html#82,82,1293,645,1616,909,8-20-2022,11-53-32,95,depth_duration_stimuli/001244_2014-06-17_16-47-45_260595134347_rgbf000030-resize_4/001244_2014-06-17_16-47-45_260595134347_rgbf000030-resize_4-target.png,250,2.0425,3,3338,248,feet,jsons/v1_VE250_randls_29.json,702302,978293,30,Man
95,542545,DepthScenes,duration_manipulation_targetAtFixation,jsons/v1_VE250_randls_29.json,http://54.235.29.9/FacialAge/BNav_EC2/DepthDuration/v2_depth_duration_MTurk/v2_DepthDuration_HTML.html#82,82,1293,645,1616,909,8-20-2022,11-53-32,96,depth_duration_stimuli/003495_2014-05-21_16-01-51_094959634447_rgbf000100-resize_3/003495_2014-05-21_16-01-51_094959634447_rgbf000100-resize_3-target.png,250,1.6255,1,2718,248,feet,jsons/v1_VE250_randls_29.json,702302,978293,30,Man
96,542545,DepthScenes,duration_manipulation_targetAtFixation,jsons/v1_VE250_randls_29.json,http://54.235.29.9/FacialAge/BNav_EC2/DepthDuration/v2_depth_duration_MTurk/v2_DepthDuration_HTML.html#82,82,1293,645,1616,909,8-20-2022,11-53-32,97,depth_duration_stimuli/001056_2014-06-08_18-46-44_260595134347_rgbf000068-resize_0/001056_2014-06-08_18-46-44_260595134347_rgbf000068-resize_0-target.png,250,2.6625,3,3425,248,feet,jsons/v1_VE250_randls_29.json,702302,978293,30,Man
97,542545,DepthScenes,duration_manipulation_targetAtFixation,jsons/v1_VE250_randls_29.json,http://54.235.29.9/FacialAge/BNav_EC2/DepthDuration/v2_depth_duration_MTurk/v2_DepthDuration_HTML.html#82,82,1293,645,1616,909,8-20-2022,11-53-32,98,depth_duration_stimuli/002199_2014-06-28_18-33-56_260595134347_rgbf000074-resize_0/002199_2014-06-28_18-33-56_260595134347_rgbf000074-resize_0-target.png,250,1.996,2,2643,250,feet,jsons/v1_VE250_randls_29.json,702302,978293,30,Man
98,542545,DepthScenes,duration_manipulation_targetAtFixation,jsons/v1_VE250_randls_29.json,http://54.235.29.9/FacialAge/BNav_EC2/DepthDuration/v2_depth_duration_MTurk/v2_DepthDuration_HTML.html#82,82,1293,645,1616,909,8-20-2022,11-53-32,99,depth_duration_stimuli/001540_2014-06-20_17-01-05_260595134347_rgbf000086-resize_2/001540_2014-06-20_17-01-05_260595134347_rgbf000086-resize-original.jpg,250,1.459,0,4706,249,feet,jsons/v1_VE250_randls_29.json,702302,978293,30,Man
99,542545,DepthScenes,duration_manipulation_targetAtFixation,jsons/v1_VE250_randls_29.json,http://54.235.29.9/FacialAge/BNav_EC2/DepthDuration/v2_depth_duration_MTurk/v2_DepthDuration_HTML.html#82,82,1293,645,1616,909,8-20-2022,11-53-32,100,depth_duration_stimuli/001570_2014-06-20_17-21-09_260595134347_rgbf000135-resize_4/001570_2014-06-20_17-21-09_260595134347_rgbf000135-resize_4-target.png,250,4.467,5,3912,248,feet,jsons/v1_VE250_randls_29.json,702302,978293,30,Man
100,542545,DepthScenes,duration_manipulation_targetAtFixation,jsons/v1_VE250_randls_29.json,http://54.235.29.9/FacialAge/BNav_EC2/DepthDuration/v2_depth_duration_MTurk/v2_DepthDuration_HTML.html#82,82,1293,645,1616,909,8-20-2022,11-53-32,101,depth_duration_stimuli/001392_2014-06-19_16-07-59_260595134347_rgbf000046-resize_1/001392_2014-06-19_16-07-59_260595134347_rgbf000046-resize_1-target.png,250,4.135,6,3058,249,feet,jsons/v1_VE250_randls_29.json,702302,978293,30,Man
101,542545,DepthScenes,duration_manipulation_targetAtFixation,jsons/v1_VE250_randls_29.json,http://54.235.29.9/FacialAge/BNav_EC2/DepthDuration/v2_depth_duration_MTurk/v2_DepthDuration_HTML.html#82,82,1293,645,1616,909,8-20-2022,11-53-32,102,depth_duration_stimuli/000929_2014-06-09_16-33-19_260595134347_rgbf000139-resize_0/000929_2014-06-09_16-33-19_260595134347_rgbf000139-resize_0-target.png,250,2.8680000000000003,3,2905,248,feet,jsons/v1_VE250_randls_29.json,702302,978293,30,Man
102,542545,DepthScenes,duration_manipulation_targetAtFixation,jsons/v1_VE250_randls_29.json,http://54.235.29.9/FacialAge/BNav_EC2/DepthDuration/v2_depth_duration_MTurk/v2_DepthDuration_HTML.html#82,82,1293,645,1616,909,8-20-2022,11-53-32,103,depth_duration_stimuli/000457_2014-06-08_16-52-43_260595134347_rgbf000199-resize_1/000457_2014-06-08_16-52-43_260595134347_rgbf000199-resize_1-target.png,250,3.6489999999999996,4,2867,248,feet,jsons/v1_VE250_randls_29.json,702302,978293,30,Man
103,542545,DepthScenes,duration_manipulation_targetAtFixation,jsons/v1_VE250_randls_29.json,http://54.235.29.9/FacialAge/BNav_EC2/DepthDuration/v2_depth_duration_MTurk/v2_DepthDuration_HTML.html#82,82,1293,645,1616,909,8-20-2022,11-53-32,104,depth_duration_stimuli/000522_2014-06-08_13-35-06_260595134347_rgbf000244-resize_1/000522_2014-06-08_13-35-06_260595134347_rgbf000244-resize_1-target.png,250,2.3715,2,2882,248,feet,jsons/v1_VE250_randls_29.json,702302,978293,30,Man
104,542545,DepthScenes,duration_manipulation_targetAtFixation,jsons/v1_VE250_randls_29.json,http://54.235.29.9/FacialAge/BNav_EC2/DepthDuration/v2_depth_duration_MTurk/v2_DepthDuration_HTML.html#82,82,1293,645,1616,909,8-20-2022,11-53-32,105,depth_duration_stimuli/002949_2014-06-26_15-57-42_094959634447_rgbf000079-resize_1/002949_2014-06-26_15-57-42_094959634447_rgbf000079-resize_1-target.png,250,1.8915,3,3238,248,feet,jsons/v1_VE250_randls_29.json,702302,978293,30,Man
105,542545,DepthScenes,duration_manipulation_targetAtFixation,jsons/v1_VE250_randls_29.json,http://54.235.29.9/FacialAge/BNav_EC2/DepthDuration/v2_depth_duration_MTurk/v2_DepthDuration_HTML.html#82,82,1293,645,1616,909,8-20-2022,11-53-32,106,depth_duration_stimuli/003070_2014-06-15_14-58-27_094959634447_rgbf000150-resize_3/003070_2014-06-15_14-58-27_094959634447_rgbf000150-resize_3-target.png,250,2.9415,4,2752,248,feet,jsons/v1_VE250_randls_29.json,702302,978293,30,Man
106,542545,DepthScenes,duration_manipulation_targetAtFixation,jsons/v1_VE250_randls_29.json,http://54.235.29.9/FacialAge/BNav_EC2/DepthDuration/v2_depth_duration_MTurk/v2_DepthDuration_HTML.html#82,82,1293,645,1616,909,8-20-2022,11-53-32,107,depth_duration_stimuli/000943_2014-06-09_19-31-07_260595134347_rgbf000128-resize_1/000943_2014-06-09_19-31-07_260595134347_rgbf000128-resize_1-target.png,250,1.9765,3,3004,249,feet,jsons/v1_VE250_randls_29.json,702302,978293,30,Man
107,542545,DepthScenes,duration_manipulation_targetAtFixation,jsons/v1_VE250_randls_29.json,http://54.235.29.9/FacialAge/BNav_EC2/DepthDuration/v2_depth_duration_MTurk/v2_DepthDuration_HTML.html#82,82,1293,645,1616,909,8-20-2022,11-53-32,108,depth_duration_stimuli/001199_2014-06-17_16-03-48_260595134347_rgbf000077-resize_0/001199_2014-06-17_16-03-48_260595134347_rgbf000077-resize_0-target.png,250,3.4375,4,4744,249,feet,jsons/v1_VE250_randls_29.json,702302,978293,30,Man
108,542545,DepthScenes,duration_manipulation_targetAtFixation,jsons/v1_VE250_randls_29.json,http://54.235.29.9/FacialAge/BNav_EC2/DepthDuration/v2_depth_duration_MTurk/v2_DepthDuration_HTML.html#82,82,1293,645,1616,909,8-20-2022,11-53-32,109,depth_duration_stimuli/000502_2014-06-08_23-02-32_260595134347_rgbf000063-resize_4/000502_2014-06-08_23-02-32_260595134347_rgbf000063-resize_4-target.png,250,2.431,3,2863,249,feet,jsons/v1_VE250_randls_29.json,702302,978293,30,Man
109,542545,DepthScenes,duration_manipulation_targetAtFixation,jsons/v1_VE250_randls_29.json,http://54.235.29.9/FacialAge/BNav_EC2/DepthDuration/v2_depth_duration_MTurk/v2_DepthDuration_HTML.html#82,82,1293,645,1616,909,8-20-2022,11-53-32,110,depth_duration_stimuli/001167_2014-06-17_15-38-07_260595134347_rgbf000108-resize_0/001167_2014-06-17_15-38-07_260595134347_rgbf000108-resize_0-target.png,250,1.8505,2,3347,249,feet,jsons/v1_VE250_randls_29.json,702302,978293,30,Man
110,542545,DepthScenes,duration_manipulation_targetAtFixation,jsons/v1_VE250_randls_29.json,http://54.235.29.9/FacialAge/BNav_EC2/DepthDuration/v2_depth_duration_MTurk/v2_DepthDuration_HTML.html#82,82,1293,645,1616,909,8-20-2022,11-53-32,111,depth_duration_stimuli/003587_2014-05-23_16-48-02_094959634447_rgbf002384-resize_2/003587_2014-05-23_16-48-02_094959634447_rgbf002384-resize_2-target.png,250,1.357,1,2898,249,feet,jsons/v1_VE250_randls_29.json,702302,978293,30,Man
111,542545,DepthScenes,duration_manipulation_targetAtFixation,jsons/v1_VE250_randls_29.json,http://54.235.29.9/FacialAge/BNav_EC2/DepthDuration/v2_depth_duration_MTurk/v2_DepthDuration_HTML.html#82,82,1293,645,1616,909,8-20-2022,11-53-32,112,depth_duration_stimuli/000758_2014-06-08_22-05-08_260595134347_rgbf000085-resize_0/000758_2014-06-08_22-05-08_260595134347_rgbf000085-resize_0-target.png,250,3.3810000000000002,4,3104,249,feet,jsons/v1_VE250_randls_29.json,702302,978293,30,Man
112,542545,DepthScenes,duration_manipulation_targetAtFixation,jsons/v1_VE250_randls_29.json,http://54.235.29.9/FacialAge/BNav_EC2/DepthDuration/v2_depth_duration_MTurk/v2_DepthDuration_HTML.html#82,82,1293,645,1616,909,8-20-2022,11-53-32,113,depth_duration_stimuli/000854_2014-06-09_19-43-13_260595134347_rgbf000066-resize_0/000854_2014-06-09_19-43-13_260595134347_rgbf000066-resize_0-target.png,250,3.068,3,2898,248,feet,jsons/v1_VE250_randls_29.json,702302,978293,30,Man
113,542545,DepthScenes,duration_manipulation_targetAtFixation,jsons/v1_VE250_randls_29.json,http://54.235.29.9/FacialAge/BNav_EC2/DepthDuration/v2_depth_duration_MTurk/v2_DepthDuration_HTML.html#82,82,1293,645,1616,909,8-20-2022,11-53-32,114,depth_duration_stimuli/001806_2014-06-26_20-50-20_260595134347_rgbf000091-resize_1/001806_2014-06-26_20-50-20_260595134347_rgbf000091-resize_1-target.png,250,2.7305,2,3041,248,feet,jsons/v1_VE250_randls_29.json,702302,978293,30,Man
114,542545,DepthScenes,duration_manipulation_targetAtFixation,jsons/v1_VE250_randls_29.json,http://54.235.29.9/FacialAge/BNav_EC2/DepthDuration/v2_depth_duration_MTurk/v2_DepthDuration_HTML.html#82,82,1293,645,1616,909,8-20-2022,11-53-32,115,depth_duration_stimuli/001617_2014-06-20_11-35-32_260595134347_rgbf000066-resize_1/001617_2014-06-20_11-35-32_260595134347_rgbf000066-resize_1-target.png,250,3.7910000000000004,4,2785,249,feet,jsons/v1_VE250_randls_29.json,702302,978293,30,Man
115,542545,DepthScenes,duration_manipulation_targetAtFixation,jsons/v1_VE250_randls_29.json,http://54.235.29.9/FacialAge/BNav_EC2/DepthDuration/v2_depth_duration_MTurk/v2_DepthDuration_HTML.html#82,82,1293,645,1616,909,8-20-2022,11-53-32,116,depth_duration_stimuli/001170_2014-06-17_15-43-44_260595134347_rgbf000096-resize_6/001170_2014-06-17_15-43-44_260595134347_rgbf000096-resize-original.jpg,250,1.1909999999999998,0,9907,249,feet,jsons/v1_VE250_randls_29.json,702302,978293,30,Man
116,542545,DepthScenes,duration_manipulation_targetAtFixation,jsons/v1_VE250_randls_29.json,http://54.235.29.9/FacialAge/BNav_EC2/DepthDuration/v2_depth_duration_MTurk/v2_DepthDuration_HTML.html#82,82,1293,645,1616,909,8-20-2022,11-53-32,117,depth_duration_stimuli/002375_2014-06-28_20-13-44_260595134347_rgbf000032-resize_1/002375_2014-06-28_20-13-44_260595134347_rgbf000032-resize_1-target.png,250,4.0175,4,3505,249,feet,jsons/v1_VE250_randls_29.json,702302,978293,30,Man
117,542545,DepthScenes,duration_manipulation_targetAtFixation,jsons/v1_VE250_randls_29.json,http://54.235.29.9/FacialAge/BNav_EC2/DepthDuration/v2_depth_duration_MTurk/v2_DepthDuration_HTML.html#82,82,1293,645,1616,909,8-20-2022,11-53-32,118,depth_duration_stimuli/002657_2014-06-13_15-29-54_094959634447_rgbf000150-resize_1/002657_2014-06-13_15-29-54_094959634447_rgbf000150-resize_1-target.png,250,4.919,6,2835,249,feet,jsons/v1_VE250_randls_29.json,702302,978293,30,Man
118,542545,DepthScenes,duration_manipulation_targetAtFixation,jsons/v1_VE250_randls_29.json,http://54.235.29.9/FacialAge/BNav_EC2/DepthDuration/v2_depth_duration_MTurk/v2_DepthDuration_HTML.html#82,82,1293,645,1616,909,8-20-2022,11-53-32,119,depth_duration_stimuli/002964_2014-06-08_17-46-11_094959634447_rgbf000091-resize_4/002964_2014-06-08_17-46-11_094959634447_rgbf000091-resize_4-target.png,250,1.6909999999999998,3,2544,248,feet,jsons/v1_VE250_randls_29.json,702302,978293,30,Man
119,542545,DepthScenes,duration_manipulation_targetAtFixation,jsons/v1_VE250_randls_29.json,http://54.235.29.9/FacialAge/BNav_EC2/DepthDuration/v2_depth_duration_MTurk/v2_DepthDuration_HTML.html#82,82,1293,645,1616,909,8-20-2022,11-53-32,120,depth_duration_stimuli/002136_2014-06-25_21-18-03_260595134347_rgbf000109-resize_3/002136_2014-06-25_21-18-03_260595134347_rgbf000109-resize_3-target.png,250,1.9569999999999999,3,2896,250,feet,jsons/v1_VE250_randls_29.json,702302,978293,30,Man
120,542545,DepthScenes,duration_manipulation_targetAtFixation,jsons/v1_VE250_randls_29.json,http://54.235.29.9/FacialAge/BNav_EC2/DepthDuration/v2_depth_duration_MTurk/v2_DepthDuration_HTML.html#82,82,1293,645,1616,909,8-20-2022,11-53-32,121,depth_duration_stimuli/002509_2014-06-24_13-19-22_094959634447_rgbf000077-resize_0/002509_2014-06-24_13-19-22_094959634447_rgbf000077-resize_0-target.png,250,1.3065,2,2935,250,feet,jsons/v1_VE250_randls_29.json,702302,978293,30,Man
121,542545,DepthScenes,duration_manipulation_targetAtFixation,jsons/v1_VE250_randls_29.json,http://54.235.29.9/FacialAge/BNav_EC2/DepthDuration/v2_depth_duration_MTurk/v2_DepthDuration_HTML.html#82,82,1293,645,1616,909,8-20-2022,11-53-32,122,depth_duration_stimuli/003338_2014-05-20_11-01-23_094959634447_rgbf000051-resize_6/003338_2014-05-20_11-01-23_094959634447_rgbf000051-resize_6-target.png,250,1.693,1,2585,248,feet,jsons/v1_VE250_randls_29.json,702302,978293,30,Man
122,542545,DepthScenes,duration_manipulation_targetAtFixation,jsons/v1_VE250_randls_29.json,http://54.235.29.9/FacialAge/BNav_EC2/DepthDuration/v2_depth_duration_MTurk/v2_DepthDuration_HTML.html#82,82,1293,645,1616,909,8-20-2022,11-53-32,123,depth_duration_stimuli/001449_2014-06-19_17-01-27_260595134347_rgbf000116-resize_2/001449_2014-06-19_17-01-27_260595134347_rgbf000116-resize_2-target.png,250,3.452,4,2877,249,feet,jsons/v1_VE250_randls_29.json,702302,978293,30,Man
123,542545,DepthScenes,duration_manipulation_targetAtFixation,jsons/v1_VE250_randls_29.json,http://54.235.29.9/FacialAge/BNav_EC2/DepthDuration/v2_depth_duration_MTurk/v2_DepthDuration_HTML.html#82,82,1293,645,1616,909,8-20-2022,11-53-32,124,depth_duration_stimuli/001450_2014-06-19_17-02-03_260595134347_rgbf000203-resize_4/001450_2014-06-19_17-02-03_260595134347_rgbf000203-resize_4-target.png,250,4.0106666666667,5,2730,249,feet,jsons/v1_VE250_randls_29.json,702302,978293,30,Man
124,542545,DepthScenes,duration_manipulation_targetAtFixation,jsons/v1_VE250_randls_29.json,http://54.235.29.9/FacialAge/BNav_EC2/DepthDuration/v2_depth_duration_MTurk/v2_DepthDuration_HTML.html#82,82,1293,645,1616,909,8-20-2022,11-53-32,125,depth_duration_stimuli/002630_2014-06-24_14-47-50_094959634447_rgbf000055-resize_1/002630_2014-06-24_14-47-50_094959634447_rgbf000055-resize_1-target.png,250,3.0095,6,3073,249,feet,jsons/v1_VE250_randls_29.json,702302,978293,30,Man
125,542545,DepthScenes,duration_manipulation_targetAtFixation,jsons/v1_VE250_randls_29.json,http://54.235.29.9/FacialAge/BNav_EC2/DepthDuration/v2_depth_duration_MTurk/v2_DepthDuration_HTML.html#82,82,1293,645,1616,909,8-20-2022,11-53-32,126,depth_duration_stimuli/002758_2014-06-22_19-11-20_094959634447_rgbf000128-resize_1/002758_2014-06-22_19-11-20_094959634447_rgbf000128-resize_1-target.png,250,2.555,4,2909,249,feet,jsons/v1_VE250_randls_29.json,702302,978293,30,Man
126,542545,DepthScenes,duration_manipulation_targetAtFixation,jsons/v1_VE250_randls_29.json,http://54.235.29.9/FacialAge/BNav_EC2/DepthDuration/v2_depth_duration_MTurk/v2_DepthDuration_HTML.html#82,82,1293,645,1616,909,8-20-2022,11-53-32,127,depth_duration_stimuli/000682_2014-06-08_23-14-58_260595134347_rgbf000041-resize_5/000682_2014-06-08_23-14-58_260595134347_rgbf000041-resize_5-target.png,250,2.7239999999999998,5,2811,248,feet,jsons/v1_VE250_randls_29.json,702302,978293,30,Man
127,542545,DepthScenes,duration_manipulation_targetAtFixation,jsons/v1_VE250_randls_29.json,http://54.235.29.9/FacialAge/BNav_EC2/DepthDuration/v2_depth_duration_MTurk/v2_DepthDuration_HTML.html#82,82,1293,645,1616,909,8-20-2022,11-53-32,128,depth_duration_stimuli/001650_2014-06-20_12-09-00_260595134347_rgbf000087-resize_3/001650_2014-06-20_12-09-00_260595134347_rgbf000087-resize_3-target.png,250,1.9505,2,3300,248,feet,jsons/v1_VE250_randls_29.json,702302,978293,30,Man
128,542545,DepthScenes,duration_manipulation_targetAtFixation,jsons/v1_VE250_randls_29.json,http://54.235.29.9/FacialAge/BNav_EC2/DepthDuration/v2_depth_duration_MTurk/v2_DepthDuration_HTML.html#82,82,1293,645,1616,909,8-20-2022,11-53-32,129,depth_duration_stimuli/001059_2014-06-08_21-53-27_260595134347_rgbf000061-resize_4/001059_2014-06-08_21-53-27_260595134347_rgbf000061-resize_4-target.png,250,2.4185,4,3484,248,feet,jsons/v1_VE250_randls_29.json,702302,978293,30,Man
129,542545,DepthScenes,duration_manipulation_targetAtFixation,jsons/v1_VE250_randls_29.json,http://54.235.29.9/FacialAge/BNav_EC2/DepthDuration/v2_depth_duration_MTurk/v2_DepthDuration_HTML.html#82,82,1293,645,1616,909,8-20-2022,11-53-32,130,depth_duration_stimuli/001032_2014-06-08_13-23-17_260595134347_rgbf000021-resize_3/001032_2014-06-08_13-23-17_260595134347_rgbf000021-resize_3-target.png,250,3.2725,3,3467,249,feet,jsons/v1_VE250_randls_29.json,702302,978293,30,Man
130,542545,DepthScenes,duration_manipulation_targetAtFixation,jsons/v1_VE250_randls_29.json,http://54.235.29.9/FacialAge/BNav_EC2/DepthDuration/v2_depth_duration_MTurk/v2_DepthDuration_HTML.html#82,82,1293,645,1616,909,8-20-2022,11-53-32,131,depth_duration_stimuli/002118_2014-06-25_20-32-08_260595134347_rgbf000078-resize_1/002118_2014-06-25_20-32-08_260595134347_rgbf000078-resize_1-target.png,250,2.6460000000000004,5,3155,247,feet,jsons/v1_VE250_randls_29.json,702302,978293,30,Man
131,542545,DepthScenes,duration_manipulation_targetAtFixation,jsons/v1_VE250_randls_29.json,http://54.235.29.9/FacialAge/BNav_EC2/DepthDuration/v2_depth_duration_MTurk/v2_DepthDuration_HTML.html#82,82,1293,645,1616,909,8-20-2022,11-53-32,132,depth_duration_stimuli/001516_2014-06-20_16-25-09_260595134347_rgbf000076-resize_2/001516_2014-06-20_16-25-09_260595134347_rgbf000076-resize_2-target.png,250,1.7445,3,3847,249,feet,jsons/v1_VE250_randls_29.json,702302,978293,30,Man
132,542545,DepthScenes,duration_manipulation_targetAtFixation,jsons/v1_VE250_randls_29.json,http://54.235.29.9/FacialAge/BNav_EC2/DepthDuration/v2_depth_duration_MTurk/v2_DepthDuration_HTML.html#82,82,1293,645,1616,909,8-20-2022,11-53-32,133,depth_duration_stimuli/002279_2014-06-28_18-55-32_260595134347_rgbf000040-resize_5/002279_2014-06-28_18-55-32_260595134347_rgbf000040-resize_5-target.png,250,1.5043333333333,2,2976,248,feet,jsons/v1_VE250_randls_29.json,702302,978293,30,Man
133,542545,DepthScenes,duration_manipulation_targetAtFixation,jsons/v1_VE250_randls_29.json,http://54.235.29.9/FacialAge/BNav_EC2/DepthDuration/v2_depth_duration_MTurk/v2_DepthDuration_HTML.html#82,82,1293,645,1616,909,8-20-2022,11-53-32,134,depth_duration_stimuli/000635_2014-06-08_16-38-42_260595134347_rgbf000106-resize_1/000635_2014-06-08_16-38-42_260595134347_rgbf000106-resize_1-target.png,250,2.074,4,4056,249,feet,jsons/v1_VE250_randls_29.json,702302,978293,30,Man
134,542545,DepthScenes,duration_manipulation_targetAtFixation,jsons/v1_VE250_randls_29.json,http://54.235.29.9/FacialAge/BNav_EC2/DepthDuration/v2_depth_duration_MTurk/v2_DepthDuration_HTML.html#82,82,1293,645,1616,909,8-20-2022,11-53-32,135,depth_duration_stimuli/002072_2014-06-24_21-48-06_260595134347_rgbf000115-resize_0/002072_2014-06-24_21-48-06_260595134347_rgbf000115-resize-original.jpg,250,4.702,0,3463,249,feet,jsons/v1_VE250_randls_29.json,702302,978293,30,Man
135,542545,DepthScenes,duration_manipulation_targetAtFixation,jsons/v1_VE250_randls_29.json,http://54.235.29.9/FacialAge/BNav_EC2/DepthDuration/v2_depth_duration_MTurk/v2_DepthDuration_HTML.html#82,82,1293,645,1616,909,8-20-2022,11-53-32,136,depth_duration_stimuli/000878_2014-06-08_22-52-45_260595134347_rgbf000045-resize_2/000878_2014-06-08_22-52-45_260595134347_rgbf000045-resize_2-target.png,250,2.092,4,4145,249,feet,jsons/v1_VE250_randls_29.json,702302,978293,30,Man
136,542545,DepthScenes,duration_manipulation_targetAtFixation,jsons/v1_VE250_randls_29.json,http://54.235.29.9/FacialAge/BNav_EC2/DepthDuration/v2_depth_duration_MTurk/v2_DepthDuration_HTML.html#82,82,1293,645,1616,909,8-20-2022,11-53-32,137,depth_duration_stimuli/002953_2014-06-08_17-32-18_094959634447_rgbf000059-resize_5/002953_2014-06-08_17-32-18_094959634447_rgbf000059-resize_5-target.png,250,1.551,3,2987,249,feet,jsons/v1_VE250_randls_29.json,702302,978293,30,Man
137,542545,DepthScenes,duration_manipulation_targetAtFixation,jsons/v1_VE250_randls_29.json,http://54.235.29.9/FacialAge/BNav_EC2/DepthDuration/v2_depth_duration_MTurk/v2_DepthDuration_HTML.html#82,82,1293,645,1616,909,8-20-2022,11-53-32,138,depth_duration_stimuli/001110_2014-06-15_17-25-28_260595134347_rgbf000150-resize_1/001110_2014-06-15_17-25-28_260595134347_rgbf000150-resize_1-target.png,250,1.7115,3,3619,249,feet,jsons/v1_VE250_randls_29.json,702302,978293,30,Man
138,542545,DepthScenes,duration_manipulation_targetAtFixation,jsons/v1_VE250_randls_29.json,http://54.235.29.9/FacialAge/BNav_EC2/DepthDuration/v2_depth_duration_MTurk/v2_DepthDuration_HTML.html#82,82,1293,645,1616,909,8-20-2022,11-53-32,139,depth_duration_stimuli/000927_2014-06-09_16-32-30_260595134347_rgbf000123-resize_3/000927_2014-06-09_16-32-30_260595134347_rgbf000123-resize_3-target.png,250,2.6785,4,2716,248,feet,jsons/v1_VE250_randls_29.json,702302,978293,30,Man
139,542545,DepthScenes,duration_manipulation_targetAtFixation,jsons/v1_VE250_randls_29.json,http://54.235.29.9/FacialAge/BNav_EC2/DepthDuration/v2_depth_duration_MTurk/v2_DepthDuration_HTML.html#82,82,1293,645,1616,909,8-20-2022,11-53-32,140,depth_duration_stimuli/000642_2014-06-08_16-59-25_260595134347_rgbf000098-resize_2/000642_2014-06-08_16-59-25_260595134347_rgbf000098-resize_2-target.png,250,2.8815,5,3510,249,feet,jsons/v1_VE250_randls_29.json,702302,978293,30,Man
140,542545,DepthScenes,duration_manipulation_targetAtFixation,jsons/v1_VE250_randls_29.json,http://54.235.29.9/FacialAge/BNav_EC2/DepthDuration/v2_depth_duration_MTurk/v2_DepthDuration_HTML.html#82,82,1293,645,1616,909,8-20-2022,11-53-32,141,depth_duration_stimuli/002425_2014-06-28_20-27-29_260595134347_rgbf000031-resize_8/002425_2014-06-28_20-27-29_260595134347_rgbf000031-resize_8-target.png,250,3.8960000000000004,5,2998,249,feet,jsons/v1_VE250_randls_29.json,702302,978293,30,Man
141,542545,DepthScenes,duration_manipulation_targetAtFixation,jsons/v1_VE250_randls_29.json,http://54.235.29.9/FacialAge/BNav_EC2/DepthDuration/v2_depth_duration_MTurk/v2_DepthDuration_HTML.html#82,82,1293,645,1616,909,8-20-2022,11-53-32,142,depth_duration_stimuli/000009_2014-05-26_14-32-05_260595134347_rgbf000034-resize_3/000009_2014-05-26_14-32-05_260595134347_rgbf000034-resize_3-target.png,250,3.8715,7,3388,243,feet,jsons/v1_VE250_randls_29.json,702302,978293,30,Man
142,542545,DepthScenes,duration_manipulation_targetAtFixation,jsons/v1_VE250_randls_29.json,http://54.235.29.9/FacialAge/BNav_EC2/DepthDuration/v2_depth_duration_MTurk/v2_DepthDuration_HTML.html#82,82,1293,645,1616,909,8-20-2022,11-53-32,143,depth_duration_stimuli/001828_2014-06-26_21-40-03_260595134347_rgbf000024-resize_0/001828_2014-06-26_21-40-03_260595134347_rgbf000024-resize_0-target.png,250,4.8260000000000005,6,2987,249,feet,jsons/v1_VE250_randls_29.json,702302,978293,30,Man
143,542545,DepthScenes,duration_manipulation_targetAtFixation,jsons/v1_VE250_randls_29.json,http://54.235.29.9/FacialAge/BNav_EC2/DepthDuration/v2_depth_duration_MTurk/v2_DepthDuration_HTML.html#82,82,1293,645,1616,909,8-20-2022,11-53-32,144,depth_duration_stimuli/002272_2014-06-28_18-53-56_260595134347_rgbf000067-resize_2/002272_2014-06-28_18-53-56_260595134347_rgbf000067-resize_2-target.png,250,1.138,4,3178,248,feet,jsons/v1_VE250_randls_29.json,702302,978293,30,Man
144,542545,DepthScenes,duration_manipulation_targetAtFixation,jsons/v1_VE250_randls_29.json,http://54.235.29.9/FacialAge/BNav_EC2/DepthDuration/v2_depth_duration_MTurk/v2_DepthDuration_HTML.html#82,82,1293,645,1616,909,8-20-2022,11-53-32,145,depth_duration_stimuli/001571_2014-06-20_17-21-32_260595134347_rgbf000089-resize_1/001571_2014-06-20_17-21-32_260595134347_rgbf000089-resize_1-target.png,250,1.86,3,2636,248,feet,jsons/v1_VE250_randls_29.json,702302,978293,30,Man
145,542545,DepthScenes,duration_manipulation_targetAtFixation,jsons/v1_VE250_randls_29.json,http://54.235.29.9/FacialAge/BNav_EC2/DepthDuration/v2_depth_duration_MTurk/v2_DepthDuration_HTML.html#82,82,1293,645,1616,909,8-20-2022,11-53-32,146,depth_duration_stimuli/001498_2014-06-19_17-45-14_260595134347_rgbf000129-resize_4/001498_2014-06-19_17-45-14_260595134347_rgbf000129-resize-original.jpg,250,1.4075,0,4403,249,feet,jsons/v1_VE250_randls_29.json,702302,978293,30,Man
146,542545,DepthScenes,duration_manipulation_targetAtFixation,jsons/v1_VE250_randls_29.json,http://54.235.29.9/FacialAge/BNav_EC2/DepthDuration/v2_depth_duration_MTurk/v2_DepthDuration_HTML.html#82,82,1293,645,1616,909,8-20-2022,11-53-32,147,depth_duration_stimuli/002153_2014-06-25_21-27-18_260595134347_rgbf000038-resize_5/002153_2014-06-25_21-27-18_260595134347_rgbf000038-resize_5-target.png,250,2.505,3,2920,248,feet,jsons/v1_VE250_randls_29.json,702302,978293,30,Man
147,542545,DepthScenes,duration_manipulation_targetAtFixation,jsons/v1_VE250_randls_29.json,http://54.235.29.9/FacialAge/BNav_EC2/DepthDuration/v2_depth_duration_MTurk/v2_DepthDuration_HTML.html#82,82,1293,645,1616,909,8-20-2022,11-53-32,148,depth_duration_stimuli/002660_2014-06-13_15-44-18_094959634447_rgbf001878-resize_2/002660_2014-06-13_15-44-18_094959634447_rgbf001878-resize_2-target.png,250,3.576,4,3576,250,feet,jsons/v1_VE250_randls_29.json,702302,978293,30,Man
148,542545,DepthScenes,duration_manipulation_targetAtFixation,jsons/v1_VE250_randls_29.json,http://54.235.29.9/FacialAge/BNav_EC2/DepthDuration/v2_depth_duration_MTurk/v2_DepthDuration_HTML.html#82,82,1293,645,1616,909,8-20-2022,11-53-32,149,depth_duration_stimuli/002763_2014-06-22_19-13-10_094959634447_rgbf000075-resize_4/002763_2014-06-22_19-13-10_094959634447_rgbf000075-resize_4-target.png,250,1.68375,4,3199,249,feet,jsons/v1_VE250_randls_29.json,702302,978293,30,Man
149,542545,DepthScenes,duration_manipulation_targetAtFixation,jsons/v1_VE250_randls_29.json,http://54.235.29.9/FacialAge/BNav_EC2/DepthDuration/v2_depth_duration_MTurk/v2_DepthDuration_HTML.html#82,82,1293,645,1616,909,8-20-2022,11-53-32,150,depth_duration_stimuli/002209_2014-06-28_18-36-10_260595134347_rgbf000051-resize_1/002209_2014-06-28_18-36-10_260595134347_rgbf000051-resize_1-target.png,250,2.057,3,2746,249,feet,jsons/v1_VE250_randls_29.json,702302,978293,30,Man
150,542545,DepthScenes,duration_manipulation_targetAtFixation,jsons/v1_VE250_randls_29.json,http://54.235.29.9/FacialAge/BNav_EC2/DepthDuration/v2_depth_duration_MTurk/v2_DepthDuration_HTML.html#82,82,1293,645,1616,909,8-20-2022,11-53-32,151,depth_duration_stimuli/000810_2014-06-08_17-20-01_260595134347_rgbf000105-resize_0/000810_2014-06-08_17-20-01_260595134347_rgbf000105-resize_0-target.png,250,1.4865,3,2972,249,feet,jsons/v1_VE250_randls_29.json,702302,978293,30,Man
151,542545,DepthScenes,duration_manipulation_targetAtFixation,jsons/v1_VE250_randls_29.json,http://54.235.29.9/FacialAge/BNav_EC2/DepthDuration/v2_depth_duration_MTurk/v2_DepthDuration_HTML.html#82,82,1293,645,1616,909,8-20-2022,11-53-32,152,depth_duration_stimuli/001214_2014-06-17_16-13-55_260595134347_rgbf000111-resize_0/001214_2014-06-17_16-13-55_260595134347_rgbf000111-resize_0-target.png,250,2.6505,3,3300,249,feet,jsons/v1_VE250_randls_29.json,702302,978293,30,Man
152,542545,DepthScenes,duration_manipulation_targetAtFixation,jsons/v1_VE250_randls_29.json,http://54.235.29.9/FacialAge/BNav_EC2/DepthDuration/v2_depth_duration_MTurk/v2_DepthDuration_HTML.html#82,82,1293,645,1616,909,8-20-2022,11-53-32,153,depth_duration_stimuli/000470_2014-06-09_19-42-40_260595134347_rgbf000094-resize_1/000470_2014-06-09_19-42-40_260595134347_rgbf000094-resize_1-target.png,250,1.831,2,2471,248,feet,jsons/v1_VE250_randls_29.json,702302,978293,30,Man
153,542545,DepthScenes,duration_manipulation_targetAtFixation,jsons/v1_VE250_randls_29.json,http://54.235.29.9/FacialAge/BNav_EC2/DepthDuration/v2_depth_duration_MTurk/v2_DepthDuration_HTML.html#82,82,1293,645,1616,909,8-20-2022,11-53-32,154,depth_duration_stimuli/000109_2014-05-14_23-41-52_260595134347_rgbf000035-resize_9/000109_2014-05-14_23-41-52_260595134347_rgbf000035-resize_9-target.png,250,1.3545,2,2663,248,feet,jsons/v1_VE250_randls_29.json,702302,978293,30,Man
154,542545,DepthScenes,duration_manipulation_targetAtFixation,jsons/v1_VE250_randls_29.json,http://54.235.29.9/FacialAge/BNav_EC2/DepthDuration/v2_depth_duration_MTurk/v2_DepthDuration_HTML.html#82,82,1293,645,1616,909,8-20-2022,11-53-32,155,depth_duration_stimuli/001016_2014-06-09_16-16-10_260595134347_rgbf000112-resize_5/001016_2014-06-09_16-16-10_260595134347_rgbf000112-resize_5-target.png,250,1.6565,0,3326,249,feet,jsons/v1_VE250_randls_29.json,702302,978293,30,Man
155,542545,DepthScenes,duration_manipulation_targetAtFixation,jsons/v1_VE250_randls_29.json,http://54.235.29.9/FacialAge/BNav_EC2/DepthDuration/v2_depth_duration_MTurk/v2_DepthDuration_HTML.html#82,82,1293,645,1616,909,8-20-2022,11-53-32,156,depth_duration_stimuli/002340_2014-06-28_20-05-46_260595134347_rgbf000113-resize_0/002340_2014-06-28_20-05-46_260595134347_rgbf000113-resize_0-target.png,250,2.4735,4,3397,248,feet,jsons/v1_VE250_randls_29.json,702302,978293,30,Man
156,542545,DepthScenes,duration_manipulation_targetAtFixation,jsons/v1_VE250_randls_29.json,http://54.235.29.9/FacialAge/BNav_EC2/DepthDuration/v2_depth_duration_MTurk/v2_DepthDuration_HTML.html#82,82,1293,645,1616,909,8-20-2022,11-53-32,157,depth_duration_stimuli/001011_2014-06-08_23-18-54_260595134347_rgbf000044-resize_4/001011_2014-06-08_23-18-54_260595134347_rgbf000044-resize_4-target.png,250,2.4730000000000003,6,3830,248,feet,jsons/v1_VE250_randls_29.json,702302,978293,30,Man
157,542545,DepthScenes,duration_manipulation_targetAtFixation,jsons/v1_VE250_randls_29.json,http://54.235.29.9/FacialAge/BNav_EC2/DepthDuration/v2_depth_duration_MTurk/v2_DepthDuration_HTML.html#82,82,1293,645,1616,909,8-20-2022,11-53-32,158,depth_duration_stimuli/002875_2014-06-01_15-19-00_094959634447_rgbf000151-resize_1/002875_2014-06-01_15-19-00_094959634447_rgbf000151-resize_1-target.png,250,1.9675,4,2865,248,feet,jsons/v1_VE250_randls_29.json,702302,978293,30,Man
158,542545,DepthScenes,duration_manipulation_targetAtFixation,jsons/v1_VE250_randls_29.json,http://54.235.29.9/FacialAge/BNav_EC2/DepthDuration/v2_depth_duration_MTurk/v2_DepthDuration_HTML.html#82,82,1293,645,1616,909,8-20-2022,11-53-32,159,depth_duration_stimuli/001150_2014-06-17_15-27-34_260595134347_rgbf000108-resize_2/001150_2014-06-17_15-27-34_260595134347_rgbf000108-resize_2-target.png,250,4.0325,5,2891,248,feet,jsons/v1_VE250_randls_29.json,702302,978293,30,Man
159,542545,DepthScenes,duration_manipulation_targetAtFixation,jsons/v1_VE250_randls_29.json,http://54.235.29.9/FacialAge/BNav_EC2/DepthDuration/v2_depth_duration_MTurk/v2_DepthDuration_HTML.html#82,82,1293,645,1616,909,8-20-2022,11-53-32,160,depth_duration_stimuli/000665_2014-06-09_20-42-35_260595134347_rgbf000110-resize_1/000665_2014-06-09_20-42-35_260595134347_rgbf000110-resize_1-target.png,250,3.057,5,2995,248,feet,jsons/v1_VE250_randls_29.json,702302,978293,30,Man
160,542545,DepthScenes,duration_manipulation_targetAtFixation,jsons/v1_VE250_randls_29.json,http://54.235.29.9/FacialAge/BNav_EC2/DepthDuration/v2_depth_duration_MTurk/v2_DepthDuration_HTML.html#82,82,1293,645,1616,909,8-20-2022,11-53-32,161,depth_duration_stimuli/000788_2014-06-08_22-34-36_260595134347_rgbf000131-resize_1/000788_2014-06-08_22-34-36_260595134347_rgbf000131-resize_1-target.png,250,3.359,6,2649,248,feet,jsons/v1_VE250_randls_29.json,702302,978293,30,Man
161,542545,DepthScenes,duration_manipulation_targetAtFixation,jsons/v1_VE250_randls_29.json,http://54.235.29.9/FacialAge/BNav_EC2/DepthDuration/v2_depth_duration_MTurk/v2_DepthDuration_HTML.html#82,82,1293,645,1616,909,8-20-2022,11-53-32,162,depth_duration_stimuli/001235_2014-06-17_16-37-36_260595134347_rgbf000084-resize_4/001235_2014-06-17_16-37-36_260595134347_rgbf000084-resize_4-target.png,250,3.6605,6,2919,248,feet,jsons/v1_VE250_randls_29.json,702302,978293,30,Man
162,542545,DepthScenes,duration_manipulation_targetAtFixation,jsons/v1_VE250_randls_29.json,http://54.235.29.9/FacialAge/BNav_EC2/DepthDuration/v2_depth_duration_MTurk/v2_DepthDuration_HTML.html#82,82,1293,645,1616,909,8-20-2022,11-53-32,163,depth_duration_stimuli/001808_2014-06-26_20-50-58_260595134347_rgbf000029-resize_1/001808_2014-06-26_20-50-58_260595134347_rgbf000029-resize_1-target.png,250,4.249,7,2996,249,feet,jsons/v1_VE250_randls_29.json,702302,978293,30,Man
163,542545,DepthScenes,duration_manipulation_targetAtFixation,jsons/v1_VE250_randls_29.json,http://54.235.29.9/FacialAge/BNav_EC2/DepthDuration/v2_depth_duration_MTurk/v2_DepthDuration_HTML.html#82,82,1293,645,1616,909,8-20-2022,11-53-32,164,depth_duration_stimuli/001815_2014-06-26_20-52-55_260595134347_rgbf000020-resize_0/001815_2014-06-26_20-52-55_260595134347_rgbf000020-resize_0-target.png,250,3.3865,7,2804,249,feet,jsons/v1_VE250_randls_29.json,702302,978293,30,Man
