,subjID,experimentName,versionName,sequenceName,url,selected_row,windowWidth,windowHeight,screenWidth,screenHeight,startDate,startTime,trial,stimulus,duration,actual_depth,depth_estimate,trial_RT,log_sceneDuration,unitSelection,seq_filepath,experimentTime,totalTime,age,gender
0,543290,DepthScenes,duration_manipulation_targetAtFixation,jsons/VE125_randls_8.json,http://54.235.29.9/FacialAge/BNav_EC2/DepthDuration/v2_depth_duration_MTurk/v2_DepthDuration_HTML.html#442,442,1707,960,1366,768,8-30-2022,10-25-4,1,depth_duration_stimuli/000788_2014-06-08_22-34-36_260595134347_rgbf000131-resize_1/000788_2014-06-08_22-34-36_260595134347_rgbf000131-resize_1-target.png,125,3.359,0,6508,143,meters,jsons/VE125_randls_8.json,1471943,1693350,25,Man
1,543290,DepthScenes,duration_manipulation_targetAtFixation,jsons/VE125_randls_8.json,http://54.235.29.9/FacialAge/BNav_EC2/DepthDuration/v2_depth_duration_MTurk/v2_DepthDuration_HTML.html#442,442,1707,960,1366,768,8-30-2022,10-25-4,2,depth_duration_stimuli/001235_2014-06-17_16-37-36_260595134347_rgbf000084-resize_4/001235_2014-06-17_16-37-36_260595134347_rgbf000084-resize_4-target.png,125,3.6605,1,4869,125,meters,jsons/VE125_randls_8.json,1471943,1693350,25,Man
2,543290,DepthScenes,duration_manipulation_targetAtFixation,jsons/VE125_randls_8.json,http://54.235.29.9/FacialAge/BNav_EC2/DepthDuration/v2_depth_duration_MTurk/v2_DepthDuration_HTML.html#442,442,1707,960,1366,768,8-30-2022,10-25-4,3,depth_duration_stimuli/001175_2014-06-17_15-45-55_260595134347_rgbf000129-resize_4/001175_2014-06-17_15-45-55_260595134347_rgbf000129-resize_4-target.png,125,4.255,0,8427,118,meters,jsons/VE125_randls_8.json,1471943,1693350,25,Man
3,543290,DepthScenes,duration_manipulation_targetAtFixation,jsons/VE125_randls_8.json,http://54.235.29.9/FacialAge/BNav_EC2/DepthDuration/v2_depth_duration_MTurk/v2_DepthDuration_HTML.html#442,442,1707,960,1366,768,8-30-2022,10-25-4,4,depth_duration_stimuli/003490_2014-05-21_15-50-11_094959634447_rgbf000101-resize_3/003490_2014-05-21_15-50-11_094959634447_rgbf000101-resize_3-target.png,125,3.6445,1,4100,118,meters,jsons/VE125_randls_8.json,1471943,1693350,25,Man
4,543290,DepthScenes,duration_manipulation_targetAtFixation,jsons/VE125_randls_8.json,http://54.235.29.9/FacialAge/BNav_EC2/DepthDuration/v2_depth_duration_MTurk/v2_DepthDuration_HTML.html#442,442,1707,960,1366,768,8-30-2022,10-25-4,5,depth_duration_stimuli/000810_2014-06-08_17-20-01_260595134347_rgbf000105-resize_0/000810_2014-06-08_17-20-01_260595134347_rgbf000105-resize_0-target.png,125,1.4865,0,4603,124,meters,jsons/VE125_randls_8.json,1471943,1693350,25,Man
5,543290,DepthScenes,duration_manipulation_targetAtFixation,jsons/VE125_randls_8.json,http://54.235.29.9/FacialAge/BNav_EC2/DepthDuration/v2_depth_duration_MTurk/v2_DepthDuration_HTML.html#442,442,1707,960,1366,768,8-30-2022,10-25-4,6,depth_duration_stimuli/001214_2014-06-17_16-13-55_260595134347_rgbf000111-resize_0/001214_2014-06-17_16-13-55_260595134347_rgbf000111-resize_0-target.png,125,2.6505,0,4274,128,meters,jsons/VE125_randls_8.json,1471943,1693350,25,Man
6,543290,DepthScenes,duration_manipulation_targetAtFixation,jsons/VE125_randls_8.json,http://54.235.29.9/FacialAge/BNav_EC2/DepthDuration/v2_depth_duration_MTurk/v2_DepthDuration_HTML.html#442,442,1707,960,1366,768,8-30-2022,10-25-4,7,depth_duration_stimuli/003070_2014-06-15_14-58-27_094959634447_rgbf000150-resize_3/003070_2014-06-15_14-58-27_094959634447_rgbf000150-resize_3-target.png,125,2.9415,0,6304,126,meters,jsons/VE125_randls_8.json,1471943,1693350,25,Man
7,543290,DepthScenes,duration_manipulation_targetAtFixation,jsons/VE125_randls_8.json,http://54.235.29.9/FacialAge/BNav_EC2/DepthDuration/v2_depth_duration_MTurk/v2_DepthDuration_HTML.html#442,442,1707,960,1366,768,8-30-2022,10-25-4,8,depth_duration_stimuli/000943_2014-06-09_19-31-07_260595134347_rgbf000128-resize_1/000943_2014-06-09_19-31-07_260595134347_rgbf000128-resize_1-target.png,125,1.9765,1,3724,113,meters,jsons/VE125_randls_8.json,1471943,1693350,25,Man
8,543290,DepthScenes,duration_manipulation_targetAtFixation,jsons/VE125_randls_8.json,http://54.235.29.9/FacialAge/BNav_EC2/DepthDuration/v2_depth_duration_MTurk/v2_DepthDuration_HTML.html#442,442,1707,960,1366,768,8-30-2022,10-25-4,9,depth_duration_stimuli/000469_2014-06-09_19-42-10_260595134347_rgbf000081-resize_1/000469_2014-06-09_19-42-10_260595134347_rgbf000081-resize_1-target.png,125,1.652,1,4890,133,meters,jsons/VE125_randls_8.json,1471943,1693350,25,Man
9,543290,DepthScenes,duration_manipulation_targetAtFixation,jsons/VE125_randls_8.json,http://54.235.29.9/FacialAge/BNav_EC2/DepthDuration/v2_depth_duration_MTurk/v2_DepthDuration_HTML.html#442,442,1707,960,1366,768,8-30-2022,10-25-4,10,depth_duration_stimuli/000483_2014-06-09_20-41-45_260595134347_rgbf000116-resize_4/000483_2014-06-09_20-41-45_260595134347_rgbf000116-resize_4-target.png,125,1.337,1,3979,138,meters,jsons/VE125_randls_8.json,1471943,1693350,25,Man
10,543290,DepthScenes,duration_manipulation_targetAtFixation,jsons/VE125_randls_8.json,http://54.235.29.9/FacialAge/BNav_EC2/DepthDuration/v2_depth_duration_MTurk/v2_DepthDuration_HTML.html#442,442,1707,960,1366,768,8-30-2022,10-25-4,11,depth_duration_stimuli/001810_2014-06-26_20-51-35_260595134347_rgbf000040-resize_3/001810_2014-06-26_20-51-35_260595134347_rgbf000040-resize_3-target.png,125,2.2525,1,4882,109,meters,jsons/VE125_randls_8.json,1471943,1693350,25,Man
11,543290,DepthScenes,duration_manipulation_targetAtFixation,jsons/VE125_randls_8.json,http://54.235.29.9/FacialAge/BNav_EC2/DepthDuration/v2_depth_duration_MTurk/v2_DepthDuration_HTML.html#442,442,1707,960,1366,768,8-30-2022,10-25-4,12,depth_duration_stimuli/003010_2014-06-15_12-54-35_094959634447_rgbf000112-resize_0/003010_2014-06-15_12-54-35_094959634447_rgbf000112-resize_0-target.png,125,3.1185,0,3629,124,meters,jsons/VE125_randls_8.json,1471943,1693350,25,Man
12,543290,DepthScenes,duration_manipulation_targetAtFixation,jsons/VE125_randls_8.json,http://54.235.29.9/FacialAge/BNav_EC2/DepthDuration/v2_depth_duration_MTurk/v2_DepthDuration_HTML.html#442,442,1707,960,1366,768,8-30-2022,10-25-4,13,depth_duration_stimuli/000569_2014-06-09_22-51-47_260595134347_rgbf000141-resize_3/000569_2014-06-09_22-51-47_260595134347_rgbf000141-resize-original.jpg,125,4.512,0,8623,138,meters,jsons/VE125_randls_8.json,1471943,1693350,25,Man
13,543290,DepthScenes,duration_manipulation_targetAtFixation,jsons/VE125_randls_8.json,http://54.235.29.9/FacialAge/BNav_EC2/DepthDuration/v2_depth_duration_MTurk/v2_DepthDuration_HTML.html#442,442,1707,960,1366,768,8-30-2022,10-25-4,14,depth_duration_stimuli/000682_2014-06-08_23-14-58_260595134347_rgbf000041-resize_5/000682_2014-06-08_23-14-58_260595134347_rgbf000041-resize_5-target.png,125,2.7239999999999998,1,5447,112,meters,jsons/VE125_randls_8.json,1471943,1693350,25,Man
14,543290,DepthScenes,duration_manipulation_targetAtFixation,jsons/VE125_randls_8.json,http://54.235.29.9/FacialAge/BNav_EC2/DepthDuration/v2_depth_duration_MTurk/v2_DepthDuration_HTML.html#442,442,1707,960,1366,768,8-30-2022,10-25-4,15,depth_duration_stimuli/001650_2014-06-20_12-09-00_260595134347_rgbf000087-resize_3/001650_2014-06-20_12-09-00_260595134347_rgbf000087-resize_3-target.png,125,1.9505,0,3602,112,meters,jsons/VE125_randls_8.json,1471943,1693350,25,Man
15,543290,DepthScenes,duration_manipulation_targetAtFixation,jsons/VE125_randls_8.json,http://54.235.29.9/FacialAge/BNav_EC2/DepthDuration/v2_depth_duration_MTurk/v2_DepthDuration_HTML.html#442,442,1707,960,1366,768,8-30-2022,10-25-4,16,depth_duration_stimuli/002630_2014-06-24_14-47-50_094959634447_rgbf000055-resize_1/002630_2014-06-24_14-47-50_094959634447_rgbf000055-resize_1-target.png,125,3.0095,0,5456,135,meters,jsons/VE125_randls_8.json,1471943,1693350,25,Man
16,543290,DepthScenes,duration_manipulation_targetAtFixation,jsons/VE125_randls_8.json,http://54.235.29.9/FacialAge/BNav_EC2/DepthDuration/v2_depth_duration_MTurk/v2_DepthDuration_HTML.html#442,442,1707,960,1366,768,8-30-2022,10-25-4,17,depth_duration_stimuli/002758_2014-06-22_19-11-20_094959634447_rgbf000128-resize_1/002758_2014-06-22_19-11-20_094959634447_rgbf000128-resize_1-target.png,125,2.555,1,3774,125,meters,jsons/VE125_randls_8.json,1471943,1693350,25,Man
17,543290,DepthScenes,duration_manipulation_targetAtFixation,jsons/VE125_randls_8.json,http://54.235.29.9/FacialAge/BNav_EC2/DepthDuration/v2_depth_duration_MTurk/v2_DepthDuration_HTML.html#442,442,1707,960,1366,768,8-30-2022,10-25-4,18,depth_duration_stimuli/001133_2014-06-17_14-49-16_260595134347_rgbf000100-resize_0/001133_2014-06-17_14-49-16_260595134347_rgbf000100-resize_0-target.png,125,4.2115,1,5026,119,meters,jsons/VE125_randls_8.json,1471943,1693350,25,Man
18,543290,DepthScenes,duration_manipulation_targetAtFixation,jsons/VE125_randls_8.json,http://54.235.29.9/FacialAge/BNav_EC2/DepthDuration/v2_depth_duration_MTurk/v2_DepthDuration_HTML.html#442,442,1707,960,1366,768,8-30-2022,10-25-4,19,depth_duration_stimuli/001132_2014-06-17_14-48-54_260595134347_rgbf000100-resize_2/001132_2014-06-17_14-48-54_260595134347_rgbf000100-resize_2-target.png,125,3.753,1,4240,119,meters,jsons/VE125_randls_8.json,1471943,1693350,25,Man
19,543290,DepthScenes,duration_manipulation_targetAtFixation,jsons/VE125_randls_8.json,http://54.235.29.9/FacialAge/BNav_EC2/DepthDuration/v2_depth_duration_MTurk/v2_DepthDuration_HTML.html#442,442,1707,960,1366,768,8-30-2022,10-25-4,20,depth_duration_stimuli/001059_2014-06-08_21-53-27_260595134347_rgbf000061-resize_4/001059_2014-06-08_21-53-27_260595134347_rgbf000061-resize_4-target.png,125,2.4185,1,5220,139,meters,jsons/VE125_randls_8.json,1471943,1693350,25,Man
20,543290,DepthScenes,duration_manipulation_targetAtFixation,jsons/VE125_randls_8.json,http://54.235.29.9/FacialAge/BNav_EC2/DepthDuration/v2_depth_duration_MTurk/v2_DepthDuration_HTML.html#442,442,1707,960,1366,768,8-30-2022,10-25-4,21,depth_duration_stimuli/001032_2014-06-08_13-23-17_260595134347_rgbf000021-resize_3/001032_2014-06-08_13-23-17_260595134347_rgbf000021-resize_3-target.png,125,3.2725,0,3445,125,meters,jsons/VE125_randls_8.json,1471943,1693350,25,Man
21,543290,DepthScenes,duration_manipulation_targetAtFixation,jsons/VE125_randls_8.json,http://54.235.29.9/FacialAge/BNav_EC2/DepthDuration/v2_depth_duration_MTurk/v2_DepthDuration_HTML.html#442,442,1707,960,1366,768,8-30-2022,10-25-4,22,depth_duration_stimuli/000736_2014-06-08_18-24-15_260595134347_rgbf000206-resize_3/000736_2014-06-08_18-24-15_260595134347_rgbf000206-resize_3-target.png,125,3.515,1,6473,105,meters,jsons/VE125_randls_8.json,1471943,1693350,25,Man
22,543290,DepthScenes,duration_manipulation_targetAtFixation,jsons/VE125_randls_8.json,http://54.235.29.9/FacialAge/BNav_EC2/DepthDuration/v2_depth_duration_MTurk/v2_DepthDuration_HTML.html#442,442,1707,960,1366,768,8-30-2022,10-25-4,23,depth_duration_stimuli/000137_2014-05-20_17-04-49_260595134347_rgbf000120-resize_1/000137_2014-05-20_17-04-49_260595134347_rgbf000120-resize_1-target.png,125,3.786,0,4575,125,meters,jsons/VE125_randls_8.json,1471943,1693350,25,Man
23,543290,DepthScenes,duration_manipulation_targetAtFixation,jsons/VE125_randls_8.json,http://54.235.29.9/FacialAge/BNav_EC2/DepthDuration/v2_depth_duration_MTurk/v2_DepthDuration_HTML.html#442,442,1707,960,1366,768,8-30-2022,10-25-4,24,depth_duration_stimuli/000493_2014-06-09_21-01-18_260595134347_rgbf000196-resize_3/000493_2014-06-09_21-01-18_260595134347_rgbf000196-resize_3-target.png,125,3.44,1,6414,126,meters,jsons/VE125_randls_8.json,1471943,1693350,25,Man
24,543290,DepthScenes,duration_manipulation_targetAtFixation,jsons/VE125_randls_8.json,http://54.235.29.9/FacialAge/BNav_EC2/DepthDuration/v2_depth_duration_MTurk/v2_DepthDuration_HTML.html#442,442,1707,960,1366,768,8-30-2022,10-25-4,25,depth_duration_stimuli/000191_2014-05-12_17-07-38_260595134347_rgbf000199-resize_0/000191_2014-05-12_17-07-38_260595134347_rgbf000199-resize_0-target.png,125,3.7995,0,5687,125,meters,jsons/VE125_randls_8.json,1471943,1693350,25,Man
25,543290,DepthScenes,duration_manipulation_targetAtFixation,jsons/VE125_randls_8.json,http://54.235.29.9/FacialAge/BNav_EC2/DepthDuration/v2_depth_duration_MTurk/v2_DepthDuration_HTML.html#442,442,1707,960,1366,768,8-30-2022,10-25-4,26,depth_duration_stimuli/001244_2014-06-17_16-47-45_260595134347_rgbf000030-resize_4/001244_2014-06-17_16-47-45_260595134347_rgbf000030-resize_4-target.png,125,2.0425,1,6212,124,meters,jsons/VE125_randls_8.json,1471943,1693350,25,Man
26,543290,DepthScenes,duration_manipulation_targetAtFixation,jsons/VE125_randls_8.json,http://54.235.29.9/FacialAge/BNav_EC2/DepthDuration/v2_depth_duration_MTurk/v2_DepthDuration_HTML.html#442,442,1707,960,1366,768,8-30-2022,10-25-4,27,depth_duration_stimuli/003495_2014-05-21_16-01-51_094959634447_rgbf000100-resize_3/003495_2014-05-21_16-01-51_094959634447_rgbf000100-resize_3-target.png,125,1.6255,1,7403,125,meters,jsons/VE125_randls_8.json,1471943,1693350,25,Man
27,543290,DepthScenes,duration_manipulation_targetAtFixation,jsons/VE125_randls_8.json,http://54.235.29.9/FacialAge/BNav_EC2/DepthDuration/v2_depth_duration_MTurk/v2_DepthDuration_HTML.html#442,442,1707,960,1366,768,8-30-2022,10-25-4,28,depth_duration_stimuli/002763_2014-06-22_19-13-10_094959634447_rgbf000075-resize_4/002763_2014-06-22_19-13-10_094959634447_rgbf000075-resize_4-target.png,125,1.68375,1,16920,132,meters,jsons/VE125_randls_8.json,1471943,1693350,25,Man
28,543290,DepthScenes,duration_manipulation_targetAtFixation,jsons/VE125_randls_8.json,http://54.235.29.9/FacialAge/BNav_EC2/DepthDuration/v2_depth_duration_MTurk/v2_DepthDuration_HTML.html#442,442,1707,960,1366,768,8-30-2022,10-25-4,29,depth_duration_stimuli/002209_2014-06-28_18-36-10_260595134347_rgbf000051-resize_1/002209_2014-06-28_18-36-10_260595134347_rgbf000051-resize_1-target.png,125,2.057,1,5638,116,meters,jsons/VE125_randls_8.json,1471943,1693350,25,Man
29,543290,DepthScenes,duration_manipulation_targetAtFixation,jsons/VE125_randls_8.json,http://54.235.29.9/FacialAge/BNav_EC2/DepthDuration/v2_depth_duration_MTurk/v2_DepthDuration_HTML.html#442,442,1707,960,1366,768,8-30-2022,10-25-4,30,depth_duration_stimuli/000375_2014-06-08_11-17-29_260595134347_rgbf000133-resize_2/000375_2014-06-08_11-17-29_260595134347_rgbf000133-resize-original.jpg,125,4.718,0,4112,119,meters,jsons/VE125_randls_8.json,1471943,1693350,25,Man
30,543290,DepthScenes,duration_manipulation_targetAtFixation,jsons/VE125_randls_8.json,http://54.235.29.9/FacialAge/BNav_EC2/DepthDuration/v2_depth_duration_MTurk/v2_DepthDuration_HTML.html#442,442,1707,960,1366,768,8-30-2022,10-25-4,31,depth_duration_stimuli/001570_2014-06-20_17-21-09_260595134347_rgbf000135-resize_4/001570_2014-06-20_17-21-09_260595134347_rgbf000135-resize_4-target.png,125,4.467,1,13619,125,meters,jsons/VE125_randls_8.json,1471943,1693350,25,Man
31,543290,DepthScenes,duration_manipulation_targetAtFixation,jsons/VE125_randls_8.json,http://54.235.29.9/FacialAge/BNav_EC2/DepthDuration/v2_depth_duration_MTurk/v2_DepthDuration_HTML.html#442,442,1707,960,1366,768,8-30-2022,10-25-4,32,depth_duration_stimuli/001392_2014-06-19_16-07-59_260595134347_rgbf000046-resize_1/001392_2014-06-19_16-07-59_260595134347_rgbf000046-resize_1-target.png,125,4.135,1,10707,123,meters,jsons/VE125_randls_8.json,1471943,1693350,25,Man
32,543290,DepthScenes,duration_manipulation_targetAtFixation,jsons/VE125_randls_8.json,http://54.235.29.9/FacialAge/BNav_EC2/DepthDuration/v2_depth_duration_MTurk/v2_DepthDuration_HTML.html#442,442,1707,960,1366,768,8-30-2022,10-25-4,33,depth_duration_stimuli/000414_2014-06-04_19-49-13_260595134347_rgbf000044-resize_0/000414_2014-06-04_19-49-13_260595134347_rgbf000044-resize_0-target.png,125,4.329,1,8362,123,meters,jsons/VE125_randls_8.json,1471943,1693350,25,Man
33,543290,DepthScenes,duration_manipulation_targetAtFixation,jsons/VE125_randls_8.json,http://54.235.29.9/FacialAge/BNav_EC2/DepthDuration/v2_depth_duration_MTurk/v2_DepthDuration_HTML.html#442,442,1707,960,1366,768,8-30-2022,10-25-4,34,depth_duration_stimuli/003129_2014-05-12_10-48-10_094959634447_rgbf000100-resize_0/003129_2014-05-12_10-48-10_094959634447_rgbf000100-resize_0-target.png,125,4.9305,0,4020,125,meters,jsons/VE125_randls_8.json,1471943,1693350,25,Man
34,543290,DepthScenes,duration_manipulation_targetAtFixation,jsons/VE125_randls_8.json,http://54.235.29.9/FacialAge/BNav_EC2/DepthDuration/v2_depth_duration_MTurk/v2_DepthDuration_HTML.html#442,442,1707,960,1366,768,8-30-2022,10-25-4,35,depth_duration_stimuli/001417_2014-06-19_16-25-36_260595134347_rgbf000115-resize_5/001417_2014-06-19_16-25-36_260595134347_rgbf000115-resize_5-target.png,125,4.6255,1,11612,113,meters,jsons/VE125_randls_8.json,1471943,1693350,25,Man
35,543290,DepthScenes,duration_manipulation_targetAtFixation,jsons/VE125_randls_8.json,http://54.235.29.9/FacialAge/BNav_EC2/DepthDuration/v2_depth_duration_MTurk/v2_DepthDuration_HTML.html#442,442,1707,960,1366,768,8-30-2022,10-25-4,36,depth_duration_stimuli/003081_2014-06-15_15-19-16_094959634447_rgbf000150-resize_1/003081_2014-06-15_15-19-16_094959634447_rgbf000150-resize_1-target.png,125,3.9125,1,21761,117,meters,jsons/VE125_randls_8.json,1471943,1693350,25,Man
36,543290,DepthScenes,duration_manipulation_targetAtFixation,jsons/VE125_randls_8.json,http://54.235.29.9/FacialAge/BNav_EC2/DepthDuration/v2_depth_duration_MTurk/v2_DepthDuration_HTML.html#442,442,1707,960,1366,768,8-30-2022,10-25-4,37,depth_duration_stimuli/000929_2014-06-09_16-33-19_260595134347_rgbf000139-resize_0/000929_2014-06-09_16-33-19_260595134347_rgbf000139-resize_0-target.png,125,2.8680000000000003,1,7297,126,meters,jsons/VE125_randls_8.json,1471943,1693350,25,Man
37,543290,DepthScenes,duration_manipulation_targetAtFixation,jsons/VE125_randls_8.json,http://54.235.29.9/FacialAge/BNav_EC2/DepthDuration/v2_depth_duration_MTurk/v2_DepthDuration_HTML.html#442,442,1707,960,1366,768,8-30-2022,10-25-4,38,depth_duration_stimuli/000457_2014-06-08_16-52-43_260595134347_rgbf000199-resize_1/000457_2014-06-08_16-52-43_260595134347_rgbf000199-resize_1-target.png,125,3.6489999999999996,1,6144,126,meters,jsons/VE125_randls_8.json,1471943,1693350,25,Man
38,543290,DepthScenes,duration_manipulation_targetAtFixation,jsons/VE125_randls_8.json,http://54.235.29.9/FacialAge/BNav_EC2/DepthDuration/v2_depth_duration_MTurk/v2_DepthDuration_HTML.html#442,442,1707,960,1366,768,8-30-2022,10-25-4,39,depth_duration_stimuli/001066_2014-06-08_22-03-20_260595134347_rgbf000066-resize_4/001066_2014-06-08_22-03-20_260595134347_rgbf000066-resize_4-target.png,125,4.2330000000000005,1,10500,137,meters,jsons/VE125_randls_8.json,1471943,1693350,25,Man
39,543290,DepthScenes,duration_manipulation_targetAtFixation,jsons/VE125_randls_8.json,http://54.235.29.9/FacialAge/BNav_EC2/DepthDuration/v2_depth_duration_MTurk/v2_DepthDuration_HTML.html#442,442,1707,960,1366,768,8-30-2022,10-25-4,40,depth_duration_stimuli/000742_2014-06-08_18-48-09_260595134347_rgbf000164-resize_4/000742_2014-06-08_18-48-09_260595134347_rgbf000164-resize_4-target.png,125,4.632,0,42927,123,meters,jsons/VE125_randls_8.json,1471943,1693350,25,Man
40,543290,DepthScenes,duration_manipulation_targetAtFixation,jsons/VE125_randls_8.json,http://54.235.29.9/FacialAge/BNav_EC2/DepthDuration/v2_depth_duration_MTurk/v2_DepthDuration_HTML.html#442,442,1707,960,1366,768,8-30-2022,10-25-4,41,depth_duration_stimuli/000773_2014-06-08_22-24-54_260595134347_rgbf000093-resize_1/000773_2014-06-08_22-24-54_260595134347_rgbf000093-resize_1-target.png,125,4.973,1,4566,114,meters,jsons/VE125_randls_8.json,1471943,1693350,25,Man
41,543290,DepthScenes,duration_manipulation_targetAtFixation,jsons/VE125_randls_8.json,http://54.235.29.9/FacialAge/BNav_EC2/DepthDuration/v2_depth_duration_MTurk/v2_DepthDuration_HTML.html#442,442,1707,960,1366,768,8-30-2022,10-25-4,42,depth_duration_stimuli/002414_2014-06-28_20-24-58_260595134347_rgbf000067-resize_4/002414_2014-06-28_20-24-58_260595134347_rgbf000067-resize_4-target.png,125,4.363,1,4087,124,meters,jsons/VE125_randls_8.json,1471943,1693350,25,Man
42,543290,DepthScenes,duration_manipulation_targetAtFixation,jsons/VE125_randls_8.json,http://54.235.29.9/FacialAge/BNav_EC2/DepthDuration/v2_depth_duration_MTurk/v2_DepthDuration_HTML.html#442,442,1707,960,1366,768,8-30-2022,10-25-4,43,depth_duration_stimuli/002663_2014-06-13_15-50-26_094959634447_rgbf000075-resize_1/002663_2014-06-13_15-50-26_094959634447_rgbf000075-resize_1-target.png,125,4.7495,1,4977,120,meters,jsons/VE125_randls_8.json,1471943,1693350,25,Man
43,543290,DepthScenes,duration_manipulation_targetAtFixation,jsons/VE125_randls_8.json,http://54.235.29.9/FacialAge/BNav_EC2/DepthDuration/v2_depth_duration_MTurk/v2_DepthDuration_HTML.html#442,442,1707,960,1366,768,8-30-2022,10-25-4,44,depth_duration_stimuli/000409_2014-06-04_19-23-33_260595134347_rgbf000067-resize_0/000409_2014-06-04_19-23-33_260595134347_rgbf000067-resize_0-target.png,125,3.7335,1,3900,120,meters,jsons/VE125_randls_8.json,1471943,1693350,25,Man
44,543290,DepthScenes,duration_manipulation_targetAtFixation,jsons/VE125_randls_8.json,http://54.235.29.9/FacialAge/BNav_EC2/DepthDuration/v2_depth_duration_MTurk/v2_DepthDuration_HTML.html#442,442,1707,960,1366,768,8-30-2022,10-25-4,45,depth_duration_stimuli/000787_2014-06-08_22-33-53_260595134347_rgbf000175-resize_1/000787_2014-06-08_22-33-53_260595134347_rgbf000175-resize-original.jpg,125,4.784,0,4117,107,meters,jsons/VE125_randls_8.json,1471943,1693350,25,Man
45,543290,DepthScenes,duration_manipulation_targetAtFixation,jsons/VE125_randls_8.json,http://54.235.29.9/FacialAge/BNav_EC2/DepthDuration/v2_depth_duration_MTurk/v2_DepthDuration_HTML.html#442,442,1707,960,1366,768,8-30-2022,10-25-4,46,depth_duration_stimuli/002788_2014-06-22_19-36-03_094959634447_rgbf000088-resize_2/002788_2014-06-22_19-36-03_094959634447_rgbf000088-resize_2-target.png,125,1.6465,1,4576,124,meters,jsons/VE125_randls_8.json,1471943,1693350,25,Man
46,543290,DepthScenes,duration_manipulation_targetAtFixation,jsons/VE125_randls_8.json,http://54.235.29.9/FacialAge/BNav_EC2/DepthDuration/v2_depth_duration_MTurk/v2_DepthDuration_HTML.html#442,442,1707,960,1366,768,8-30-2022,10-25-4,47,depth_duration_stimuli/000749_2014-06-08_21-55-06_260595134347_rgbf000070-resize_2/000749_2014-06-08_21-55-06_260595134347_rgbf000070-resize_2-target.png,125,2.331,1,9391,114,meters,jsons/VE125_randls_8.json,1471943,1693350,25,Man
47,543290,DepthScenes,duration_manipulation_targetAtFixation,jsons/VE125_randls_8.json,http://54.235.29.9/FacialAge/BNav_EC2/DepthDuration/v2_depth_duration_MTurk/v2_DepthDuration_HTML.html#442,442,1707,960,1366,768,8-30-2022,10-25-4,48,depth_duration_stimuli/002509_2014-06-24_13-19-22_094959634447_rgbf000077-resize_0/002509_2014-06-24_13-19-22_094959634447_rgbf000077-resize_0-target.png,125,1.3065,1,9880,127,meters,jsons/VE125_randls_8.json,1471943,1693350,25,Man
48,543290,DepthScenes,duration_manipulation_targetAtFixation,jsons/VE125_randls_8.json,http://54.235.29.9/FacialAge/BNav_EC2/DepthDuration/v2_depth_duration_MTurk/v2_DepthDuration_HTML.html#442,442,1707,960,1366,768,8-30-2022,10-25-4,49,depth_duration_stimuli/003338_2014-05-20_11-01-23_094959634447_rgbf000051-resize_6/003338_2014-05-20_11-01-23_094959634447_rgbf000051-resize_6-target.png,125,1.693,1,9938,117,meters,jsons/VE125_randls_8.json,1471943,1693350,25,Man
49,543290,DepthScenes,duration_manipulation_targetAtFixation,jsons/VE125_randls_8.json,http://54.235.29.9/FacialAge/BNav_EC2/DepthDuration/v2_depth_duration_MTurk/v2_DepthDuration_HTML.html#442,442,1707,960,1366,768,8-30-2022,10-25-4,50,depth_duration_stimuli/003492_2014-05-21_15-50-55_094959634447_rgbf000828-resize_1/003492_2014-05-21_15-50-55_094959634447_rgbf000828-resize_1-target.png,125,4.06875,0,4602,119,meters,jsons/VE125_randls_8.json,1471943,1693350,25,Man
50,543290,DepthScenes,duration_manipulation_targetAtFixation,jsons/VE125_randls_8.json,http://54.235.29.9/FacialAge/BNav_EC2/DepthDuration/v2_depth_duration_MTurk/v2_DepthDuration_HTML.html#442,442,1707,960,1366,768,8-30-2022,10-25-4,51,depth_duration_stimuli/002568_2014-06-24_13-59-21_094959634447_rgbf000062-resize_4/002568_2014-06-24_13-59-21_094959634447_rgbf000062-resize_4-target.png,125,3.015,1,9850,130,meters,jsons/VE125_randls_8.json,1471943,1693350,25,Man
51,543290,DepthScenes,duration_manipulation_targetAtFixation,jsons/VE125_randls_8.json,http://54.235.29.9/FacialAge/BNav_EC2/DepthDuration/v2_depth_duration_MTurk/v2_DepthDuration_HTML.html#442,442,1707,960,1366,768,8-30-2022,10-25-4,52,depth_duration_stimuli/000368_2014-06-09_15-53-01_260595134347_rgbf000155-resize_2/000368_2014-06-09_15-53-01_260595134347_rgbf000155-resize_2-target.png,125,2.4859999999999998,1,13511,129,meters,jsons/VE125_randls_8.json,1471943,1693350,25,Man
52,543290,DepthScenes,duration_manipulation_targetAtFixation,jsons/VE125_randls_8.json,http://54.235.29.9/FacialAge/BNav_EC2/DepthDuration/v2_depth_duration_MTurk/v2_DepthDuration_HTML.html#442,442,1707,960,1366,768,8-30-2022,10-25-4,53,depth_duration_stimuli/002678_2014-06-13_16-15-32_094959634447_rgbf000151-resize_6/002678_2014-06-13_16-15-32_094959634447_rgbf000151-resize_6-target.png,125,2.1830000000000003,1,6841,133,meters,jsons/VE125_randls_8.json,1471943,1693350,25,Man
53,543290,DepthScenes,duration_manipulation_targetAtFixation,jsons/VE125_randls_8.json,http://54.235.29.9/FacialAge/BNav_EC2/DepthDuration/v2_depth_duration_MTurk/v2_DepthDuration_HTML.html#442,442,1707,960,1366,768,8-30-2022,10-25-4,54,depth_duration_stimuli/003621_2014-05-23_18-06-08_094959634447_rgbf000101-resize_1/003621_2014-05-23_18-06-08_094959634447_rgbf000101-resize_1-target.png,125,3.9835,0,4817,129,meters,jsons/VE125_randls_8.json,1471943,1693350,25,Man
54,543290,DepthScenes,duration_manipulation_targetAtFixation,jsons/VE125_randls_8.json,http://54.235.29.9/FacialAge/BNav_EC2/DepthDuration/v2_depth_duration_MTurk/v2_DepthDuration_HTML.html#442,442,1707,960,1366,768,8-30-2022,10-25-4,55,depth_duration_stimuli/001584_2014-06-20_11-07-43_260595134347_rgbf000002-resize_1/001584_2014-06-20_11-07-43_260595134347_rgbf000002-resize_1-target.png,125,3.53,0,21590,125,meters,jsons/VE125_randls_8.json,1471943,1693350,25,Man
55,543290,DepthScenes,duration_manipulation_targetAtFixation,jsons/VE125_randls_8.json,http://54.235.29.9/FacialAge/BNav_EC2/DepthDuration/v2_depth_duration_MTurk/v2_DepthDuration_HTML.html#442,442,1707,960,1366,768,8-30-2022,10-25-4,56,depth_duration_stimuli/002989_2014-06-15_12-25-03_094959634447_rgbf000150-resize_3/002989_2014-06-15_12-25-03_094959634447_rgbf000150-resize_3-target.png,125,4.1975,1,12273,133,meters,jsons/VE125_randls_8.json,1471943,1693350,25,Man
56,543290,DepthScenes,duration_manipulation_targetAtFixation,jsons/VE125_randls_8.json,http://54.235.29.9/FacialAge/BNav_EC2/DepthDuration/v2_depth_duration_MTurk/v2_DepthDuration_HTML.html#442,442,1707,960,1366,768,8-30-2022,10-25-4,57,depth_duration_stimuli/000866_2014-06-09_20-45-42_260595134347_rgbf000139-resize_1/000866_2014-06-09_20-45-42_260595134347_rgbf000139-resize_1-target.png,125,3.2155,0,3587,124,meters,jsons/VE125_randls_8.json,1471943,1693350,25,Man
57,543290,DepthScenes,duration_manipulation_targetAtFixation,jsons/VE125_randls_8.json,http://54.235.29.9/FacialAge/BNav_EC2/DepthDuration/v2_depth_duration_MTurk/v2_DepthDuration_HTML.html#442,442,1707,960,1366,768,8-30-2022,10-25-4,58,depth_duration_stimuli/003292_2014-05-14_21-53-49_094959634447_rgbf000100-resize_2/003292_2014-05-14_21-53-49_094959634447_rgbf000100-resize_2-target.png,125,3.4815,1,12232,112,meters,jsons/VE125_randls_8.json,1471943,1693350,25,Man
58,543290,DepthScenes,duration_manipulation_targetAtFixation,jsons/VE125_randls_8.json,http://54.235.29.9/FacialAge/BNav_EC2/DepthDuration/v2_depth_duration_MTurk/v2_DepthDuration_HTML.html#442,442,1707,960,1366,768,8-30-2022,10-25-4,59,depth_duration_stimuli/002639_2014-06-24_14-51-37_094959634447_rgbf000074-resize_4/002639_2014-06-24_14-51-37_094959634447_rgbf000074-resize_4-target.png,125,4.0375,0,3978,123,meters,jsons/VE125_randls_8.json,1471943,1693350,25,Man
59,543290,DepthScenes,duration_manipulation_targetAtFixation,jsons/VE125_randls_8.json,http://54.235.29.9/FacialAge/BNav_EC2/DepthDuration/v2_depth_duration_MTurk/v2_DepthDuration_HTML.html#442,442,1707,960,1366,768,8-30-2022,10-25-4,60,depth_duration_stimuli/001449_2014-06-19_17-01-27_260595134347_rgbf000116-resize_2/001449_2014-06-19_17-01-27_260595134347_rgbf000116-resize_2-target.png,125,3.452,1,5425,126,meters,jsons/VE125_randls_8.json,1471943,1693350,25,Man
60,543290,DepthScenes,duration_manipulation_targetAtFixation,jsons/VE125_randls_8.json,http://54.235.29.9/FacialAge/BNav_EC2/DepthDuration/v2_depth_duration_MTurk/v2_DepthDuration_HTML.html#442,442,1707,960,1366,768,8-30-2022,10-25-4,61,depth_duration_stimuli/001450_2014-06-19_17-02-03_260595134347_rgbf000203-resize_4/001450_2014-06-19_17-02-03_260595134347_rgbf000203-resize_4-target.png,125,4.0106666666667,1,3824,130,meters,jsons/VE125_randls_8.json,1471943,1693350,25,Man
61,543290,DepthScenes,duration_manipulation_targetAtFixation,jsons/VE125_randls_8.json,http://54.235.29.9/FacialAge/BNav_EC2/DepthDuration/v2_depth_duration_MTurk/v2_DepthDuration_HTML.html#442,442,1707,960,1366,768,8-30-2022,10-25-4,62,depth_duration_stimuli/000506_2014-06-08_23-21-00_260595134347_rgbf000070-resize_7/000506_2014-06-08_23-21-00_260595134347_rgbf000070-resize_7-target.png,125,4.0585,1,19648,123,meters,jsons/VE125_randls_8.json,1471943,1693350,25,Man
62,543290,DepthScenes,duration_manipulation_targetAtFixation,jsons/VE125_randls_8.json,http://54.235.29.9/FacialAge/BNav_EC2/DepthDuration/v2_depth_duration_MTurk/v2_DepthDuration_HTML.html#442,442,1707,960,1366,768,8-30-2022,10-25-4,63,depth_duration_stimuli/003079_2014-06-15_15-18-20_094959634447_rgbf000152-resize_8/003079_2014-06-15_15-18-20_094959634447_rgbf000152-resize_8-target.png,125,2.8775,0,7107,123,meters,jsons/VE125_randls_8.json,1471943,1693350,25,Man
63,543290,DepthScenes,duration_manipulation_targetAtFixation,jsons/VE125_randls_8.json,http://54.235.29.9/FacialAge/BNav_EC2/DepthDuration/v2_depth_duration_MTurk/v2_DepthDuration_HTML.html#442,442,1707,960,1366,768,8-30-2022,10-25-4,64,depth_duration_stimuli/001110_2014-06-15_17-25-28_260595134347_rgbf000150-resize_1/001110_2014-06-15_17-25-28_260595134347_rgbf000150-resize_1-target.png,125,1.7115,1,22091,127,meters,jsons/VE125_randls_8.json,1471943,1693350,25,Man
64,543290,DepthScenes,duration_manipulation_targetAtFixation,jsons/VE125_randls_8.json,http://54.235.29.9/FacialAge/BNav_EC2/DepthDuration/v2_depth_duration_MTurk/v2_DepthDuration_HTML.html#442,442,1707,960,1366,768,8-30-2022,10-25-4,65,depth_duration_stimuli/000927_2014-06-09_16-32-30_260595134347_rgbf000123-resize_3/000927_2014-06-09_16-32-30_260595134347_rgbf000123-resize_3-target.png,125,2.6785,1,17151,125,meters,jsons/VE125_randls_8.json,1471943,1693350,25,Man
65,543290,DepthScenes,duration_manipulation_targetAtFixation,jsons/VE125_randls_8.json,http://54.235.29.9/FacialAge/BNav_EC2/DepthDuration/v2_depth_duration_MTurk/v2_DepthDuration_HTML.html#442,442,1707,960,1366,768,8-30-2022,10-25-4,66,depth_duration_stimuli/001222_2014-06-17_16-24-06_260595134347_rgbf000073-resize_0/001222_2014-06-17_16-24-06_260595134347_rgbf000073-resize-original.jpg,125,1.4385,0,4285,133,meters,jsons/VE125_randls_8.json,1471943,1693350,25,Man
66,543290,DepthScenes,duration_manipulation_targetAtFixation,jsons/VE125_randls_8.json,http://54.235.29.9/FacialAge/BNav_EC2/DepthDuration/v2_depth_duration_MTurk/v2_DepthDuration_HTML.html#442,442,1707,960,1366,768,8-30-2022,10-25-4,67,depth_duration_stimuli/002784_2014-06-22_19-26-30_094959634447_rgbf000083-resize_3/002784_2014-06-22_19-26-30_094959634447_rgbf000083-resize_3-target.png,125,1.8046666666667,0,11930,125,meters,jsons/VE125_randls_8.json,1471943,1693350,25,Man
67,543290,DepthScenes,duration_manipulation_targetAtFixation,jsons/VE125_randls_8.json,http://54.235.29.9/FacialAge/BNav_EC2/DepthDuration/v2_depth_duration_MTurk/v2_DepthDuration_HTML.html#442,442,1707,960,1366,768,8-30-2022,10-25-4,68,depth_duration_stimuli/001100_2014-06-15_17-46-26_260595134347_rgbf000225-resize_2/001100_2014-06-15_17-46-26_260595134347_rgbf000225-resize_2-target.png,125,2.24,1,30735,131,meters,jsons/VE125_randls_8.json,1471943,1693350,25,Man
68,543290,DepthScenes,duration_manipulation_targetAtFixation,jsons/VE125_randls_8.json,http://54.235.29.9/FacialAge/BNav_EC2/DepthDuration/v2_depth_duration_MTurk/v2_DepthDuration_HTML.html#442,442,1707,960,1366,768,8-30-2022,10-25-4,69,depth_duration_stimuli/001167_2014-06-17_15-38-07_260595134347_rgbf000108-resize_0/001167_2014-06-17_15-38-07_260595134347_rgbf000108-resize_0-target.png,125,1.8505,1,57652,134,meters,jsons/VE125_randls_8.json,1471943,1693350,25,Man
69,543290,DepthScenes,duration_manipulation_targetAtFixation,jsons/VE125_randls_8.json,http://54.235.29.9/FacialAge/BNav_EC2/DepthDuration/v2_depth_duration_MTurk/v2_DepthDuration_HTML.html#442,442,1707,960,1366,768,8-30-2022,10-25-4,70,depth_duration_stimuli/003587_2014-05-23_16-48-02_094959634447_rgbf002384-resize_2/003587_2014-05-23_16-48-02_094959634447_rgbf002384-resize_2-target.png,125,1.357,1,19823,124,meters,jsons/VE125_randls_8.json,1471943,1693350,25,Man
70,543290,DepthScenes,duration_manipulation_targetAtFixation,jsons/VE125_randls_8.json,http://54.235.29.9/FacialAge/BNav_EC2/DepthDuration/v2_depth_duration_MTurk/v2_DepthDuration_HTML.html#442,442,1707,960,1366,768,8-30-2022,10-25-4,71,depth_duration_stimuli/000906_2014-06-08_13-35-43_260595134347_rgbf000155-resize_1/000906_2014-06-08_13-35-43_260595134347_rgbf000155-resize_1-target.png,125,2.8489999999999998,1,6843,115,meters,jsons/VE125_randls_8.json,1471943,1693350,25,Man
71,543290,DepthScenes,duration_manipulation_targetAtFixation,jsons/VE125_randls_8.json,http://54.235.29.9/FacialAge/BNav_EC2/DepthDuration/v2_depth_duration_MTurk/v2_DepthDuration_HTML.html#442,442,1707,960,1366,768,8-30-2022,10-25-4,72,depth_duration_stimuli/002805_2014-06-22_19-54-03_094959634447_rgbf000079-resize_1/002805_2014-06-22_19-54-03_094959634447_rgbf000079-resize_1-target.png,125,3.1439999999999997,0,9821,110,meters,jsons/VE125_randls_8.json,1471943,1693350,25,Man
72,543290,DepthScenes,duration_manipulation_targetAtFixation,jsons/VE125_randls_8.json,http://54.235.29.9/FacialAge/BNav_EC2/DepthDuration/v2_depth_duration_MTurk/v2_DepthDuration_HTML.html#442,442,1707,960,1366,768,8-30-2022,10-25-4,73,depth_duration_stimuli/001199_2014-06-17_16-03-48_260595134347_rgbf000077-resize_0/001199_2014-06-17_16-03-48_260595134347_rgbf000077-resize_0-target.png,125,3.4375,1,7615,117,meters,jsons/VE125_randls_8.json,1471943,1693350,25,Man
73,543290,DepthScenes,duration_manipulation_targetAtFixation,jsons/VE125_randls_8.json,http://54.235.29.9/FacialAge/BNav_EC2/DepthDuration/v2_depth_duration_MTurk/v2_DepthDuration_HTML.html#442,442,1707,960,1366,768,8-30-2022,10-25-4,74,depth_duration_stimuli/000502_2014-06-08_23-02-32_260595134347_rgbf000063-resize_4/000502_2014-06-08_23-02-32_260595134347_rgbf000063-resize_4-target.png,125,2.431,1,18500,114,meters,jsons/VE125_randls_8.json,1471943,1693350,25,Man
74,543290,DepthScenes,duration_manipulation_targetAtFixation,jsons/VE125_randls_8.json,http://54.235.29.9/FacialAge/BNav_EC2/DepthDuration/v2_depth_duration_MTurk/v2_DepthDuration_HTML.html#442,442,1707,960,1366,768,8-30-2022,10-25-4,75,depth_duration_stimuli/001056_2014-06-08_18-46-44_260595134347_rgbf000068-resize_0/001056_2014-06-08_18-46-44_260595134347_rgbf000068-resize_0-target.png,125,2.6625,0,9791,122,meters,jsons/VE125_randls_8.json,1471943,1693350,25,Man
75,543290,DepthScenes,duration_manipulation_targetAtFixation,jsons/VE125_randls_8.json,http://54.235.29.9/FacialAge/BNav_EC2/DepthDuration/v2_depth_duration_MTurk/v2_DepthDuration_HTML.html#442,442,1707,960,1366,768,8-30-2022,10-25-4,76,depth_duration_stimuli/002199_2014-06-28_18-33-56_260595134347_rgbf000074-resize_0/002199_2014-06-28_18-33-56_260595134347_rgbf000074-resize_0-target.png,125,1.996,1,12007,126,meters,jsons/VE125_randls_8.json,1471943,1693350,25,Man
76,543290,DepthScenes,duration_manipulation_targetAtFixation,jsons/VE125_randls_8.json,http://54.235.29.9/FacialAge/BNav_EC2/DepthDuration/v2_depth_duration_MTurk/v2_DepthDuration_HTML.html#442,442,1707,960,1366,768,8-30-2022,10-25-4,77,depth_duration_stimuli/001158_2014-06-17_15-32-16_260595134347_rgbf000138-resize_2/001158_2014-06-17_15-32-16_260595134347_rgbf000138-resize_2-target.png,125,4.5315,1,9140,126,meters,jsons/VE125_randls_8.json,1471943,1693350,25,Man
77,543290,DepthScenes,duration_manipulation_targetAtFixation,jsons/VE125_randls_8.json,http://54.235.29.9/FacialAge/BNav_EC2/DepthDuration/v2_depth_duration_MTurk/v2_DepthDuration_HTML.html#442,442,1707,960,1366,768,8-30-2022,10-25-4,78,depth_duration_stimuli/000556_2014-06-09_22-42-56_260595134347_rgbf000214-resize_1/000556_2014-06-09_22-42-56_260595134347_rgbf000214-resize_1-target.png,125,4.8415,1,8119,120,meters,jsons/VE125_randls_8.json,1471943,1693350,25,Man
78,543290,DepthScenes,duration_manipulation_targetAtFixation,jsons/VE125_randls_8.json,http://54.235.29.9/FacialAge/BNav_EC2/DepthDuration/v2_depth_duration_MTurk/v2_DepthDuration_HTML.html#442,442,1707,960,1366,768,8-30-2022,10-25-4,79,depth_duration_stimuli/002748_2014-06-22_19-07-22_094959634447_rgbf000078-resize_1/002748_2014-06-22_19-07-22_094959634447_rgbf000078-resize_1-target.png,125,4.6705,0,12936,119,meters,jsons/VE125_randls_8.json,1471943,1693350,25,Man
79,543290,DepthScenes,duration_manipulation_targetAtFixation,jsons/VE125_randls_8.json,http://54.235.29.9/FacialAge/BNav_EC2/DepthDuration/v2_depth_duration_MTurk/v2_DepthDuration_HTML.html#442,442,1707,960,1366,768,8-30-2022,10-25-4,80,depth_duration_stimuli/002995_2014-06-15_12-31-26_094959634447_rgbf000150-resize_1/002995_2014-06-15_12-31-26_094959634447_rgbf000150-resize_1-target.png,125,3.8360000000000003,0,11354,122,meters,jsons/VE125_randls_8.json,1471943,1693350,25,Man
80,543290,DepthScenes,duration_manipulation_targetAtFixation,jsons/VE125_randls_8.json,http://54.235.29.9/FacialAge/BNav_EC2/DepthDuration/v2_depth_duration_MTurk/v2_DepthDuration_HTML.html#442,442,1707,960,1366,768,8-30-2022,10-25-4,81,depth_duration_stimuli/000436_2014-06-09_22-25-11_260595134347_rgbf000137-resize_1/000436_2014-06-09_22-25-11_260595134347_rgbf000137-resize_1-target.png,125,4.0705,0,11100,117,meters,jsons/VE125_randls_8.json,1471943,1693350,25,Man
81,543290,DepthScenes,duration_manipulation_targetAtFixation,jsons/VE125_randls_8.json,http://54.235.29.9/FacialAge/BNav_EC2/DepthDuration/v2_depth_duration_MTurk/v2_DepthDuration_HTML.html#442,442,1707,960,1366,768,8-30-2022,10-25-4,82,depth_duration_stimuli/002444_2014-06-28_20-32-08_260595134347_rgbf000027-resize_0/002444_2014-06-28_20-32-08_260595134347_rgbf000027-resize_0-target.png,125,4.388999999999999,1,10343,125,meters,jsons/VE125_randls_8.json,1471943,1693350,25,Man
82,543290,DepthScenes,duration_manipulation_targetAtFixation,jsons/VE125_randls_8.json,http://54.235.29.9/FacialAge/BNav_EC2/DepthDuration/v2_depth_duration_MTurk/v2_DepthDuration_HTML.html#442,442,1707,960,1366,768,8-30-2022,10-25-4,83,depth_duration_stimuli/000758_2014-06-08_22-05-08_260595134347_rgbf000085-resize_0/000758_2014-06-08_22-05-08_260595134347_rgbf000085-resize_0-target.png,125,3.3810000000000002,1,4781,131,meters,jsons/VE125_randls_8.json,1471943,1693350,25,Man
83,543290,DepthScenes,duration_manipulation_targetAtFixation,jsons/VE125_randls_8.json,http://54.235.29.9/FacialAge/BNav_EC2/DepthDuration/v2_depth_duration_MTurk/v2_DepthDuration_HTML.html#442,442,1707,960,1366,768,8-30-2022,10-25-4,84,depth_duration_stimuli/000854_2014-06-09_19-43-13_260595134347_rgbf000066-resize_0/000854_2014-06-09_19-43-13_260595134347_rgbf000066-resize_0-target.png,125,3.068,1,24306,121,meters,jsons/VE125_randls_8.json,1471943,1693350,25,Man
84,543290,DepthScenes,duration_manipulation_targetAtFixation,jsons/VE125_randls_8.json,http://54.235.29.9/FacialAge/BNav_EC2/DepthDuration/v2_depth_duration_MTurk/v2_DepthDuration_HTML.html#442,442,1707,960,1366,768,8-30-2022,10-25-4,85,depth_duration_stimuli/000009_2014-05-26_14-32-05_260595134347_rgbf000034-resize_3/000009_2014-05-26_14-32-05_260595134347_rgbf000034-resize_3-target.png,125,3.8715,0,4771,124,meters,jsons/VE125_randls_8.json,1471943,1693350,25,Man
85,543290,DepthScenes,duration_manipulation_targetAtFixation,jsons/VE125_randls_8.json,http://54.235.29.9/FacialAge/BNav_EC2/DepthDuration/v2_depth_duration_MTurk/v2_DepthDuration_HTML.html#442,442,1707,960,1366,768,8-30-2022,10-25-4,86,depth_duration_stimuli/001828_2014-06-26_21-40-03_260595134347_rgbf000024-resize_0/001828_2014-06-26_21-40-03_260595134347_rgbf000024-resize_0-target.png,125,4.8260000000000005,1,3848,126,meters,jsons/VE125_randls_8.json,1471943,1693350,25,Man
86,543290,DepthScenes,duration_manipulation_targetAtFixation,jsons/VE125_randls_8.json,http://54.235.29.9/FacialAge/BNav_EC2/DepthDuration/v2_depth_duration_MTurk/v2_DepthDuration_HTML.html#442,442,1707,960,1366,768,8-30-2022,10-25-4,87,depth_duration_stimuli/001029_2014-06-08_13-17-57_260595134347_rgbf000065-resize_1/001029_2014-06-08_13-17-57_260595134347_rgbf000065-resize_1-target.png,125,3.0835,0,4484,125,meters,jsons/VE125_randls_8.json,1471943,1693350,25,Man
87,543290,DepthScenes,duration_manipulation_targetAtFixation,jsons/VE125_randls_8.json,http://54.235.29.9/FacialAge/BNav_EC2/DepthDuration/v2_depth_duration_MTurk/v2_DepthDuration_HTML.html#442,442,1707,960,1366,768,8-30-2022,10-25-4,88,depth_duration_stimuli/000677_2014-06-08_23-10-32_260595134347_rgbf000158-resize_6/000677_2014-06-08_23-10-32_260595134347_rgbf000158-resize_6-target.png,125,3.556,0,3923,113,meters,jsons/VE125_randls_8.json,1471943,1693350,25,Man
88,543290,DepthScenes,duration_manipulation_targetAtFixation,jsons/VE125_randls_8.json,http://54.235.29.9/FacialAge/BNav_EC2/DepthDuration/v2_depth_duration_MTurk/v2_DepthDuration_HTML.html#442,442,1707,960,1366,768,8-30-2022,10-25-4,89,depth_duration_stimuli/003534_2014-05-22_15-06-10_094959634447_rgbf000102-resize_4/003534_2014-05-22_15-06-10_094959634447_rgbf000102-resize_4-target.png,125,1.426,0,5713,116,meters,jsons/VE125_randls_8.json,1471943,1693350,25,Man
89,543290,DepthScenes,duration_manipulation_targetAtFixation,jsons/VE125_randls_8.json,http://54.235.29.9/FacialAge/BNav_EC2/DepthDuration/v2_depth_duration_MTurk/v2_DepthDuration_HTML.html#442,442,1707,960,1366,768,8-30-2022,10-25-4,90,depth_duration_stimuli/002637_2014-06-24_14-51-13_094959634447_rgbf000066-resize_4/002637_2014-06-24_14-51-13_094959634447_rgbf000066-resize_4-target.png,125,1.9955,0,4073,121,meters,jsons/VE125_randls_8.json,1471943,1693350,25,Man
90,543290,DepthScenes,duration_manipulation_targetAtFixation,jsons/VE125_randls_8.json,http://54.235.29.9/FacialAge/BNav_EC2/DepthDuration/v2_depth_duration_MTurk/v2_DepthDuration_HTML.html#442,442,1707,960,1366,768,8-30-2022,10-25-4,91,depth_duration_stimuli/002118_2014-06-25_20-32-08_260595134347_rgbf000078-resize_1/002118_2014-06-25_20-32-08_260595134347_rgbf000078-resize_1-target.png,125,2.6460000000000004,1,8145,110,meters,jsons/VE125_randls_8.json,1471943,1693350,25,Man
91,543290,DepthScenes,duration_manipulation_targetAtFixation,jsons/VE125_randls_8.json,http://54.235.29.9/FacialAge/BNav_EC2/DepthDuration/v2_depth_duration_MTurk/v2_DepthDuration_HTML.html#442,442,1707,960,1366,768,8-30-2022,10-25-4,92,depth_duration_stimuli/001516_2014-06-20_16-25-09_260595134347_rgbf000076-resize_2/001516_2014-06-20_16-25-09_260595134347_rgbf000076-resize_2-target.png,125,1.7445,0,9016,125,meters,jsons/VE125_randls_8.json,1471943,1693350,25,Man
92,543290,DepthScenes,duration_manipulation_targetAtFixation,jsons/VE125_randls_8.json,http://54.235.29.9/FacialAge/BNav_EC2/DepthDuration/v2_depth_duration_MTurk/v2_DepthDuration_HTML.html#442,442,1707,960,1366,768,8-30-2022,10-25-4,93,depth_duration_stimuli/000917_2014-06-09_22-45-29_260595134347_rgbf000149-resize_3/000917_2014-06-09_22-45-29_260595134347_rgbf000149-resize_3-target.png,125,4.1865,0,6450,116,meters,jsons/VE125_randls_8.json,1471943,1693350,25,Man
93,543290,DepthScenes,duration_manipulation_targetAtFixation,jsons/VE125_randls_8.json,http://54.235.29.9/FacialAge/BNav_EC2/DepthDuration/v2_depth_duration_MTurk/v2_DepthDuration_HTML.html#442,442,1707,960,1366,768,8-30-2022,10-25-4,94,depth_duration_stimuli/002323_2014-06-28_20-01-54_260595134347_rgbf000051-resize_4/002323_2014-06-28_20-01-54_260595134347_rgbf000051-resize_4-target.png,125,3.7310000000000003,1,4150,128,meters,jsons/VE125_randls_8.json,1471943,1693350,25,Man
94,543290,DepthScenes,duration_manipulation_targetAtFixation,jsons/VE125_randls_8.json,http://54.235.29.9/FacialAge/BNav_EC2/DepthDuration/v2_depth_duration_MTurk/v2_DepthDuration_HTML.html#442,442,1707,960,1366,768,8-30-2022,10-25-4,95,depth_duration_stimuli/000642_2014-06-08_16-59-25_260595134347_rgbf000098-resize_2/000642_2014-06-08_16-59-25_260595134347_rgbf000098-resize_2-target.png,125,2.8815,1,5420,123,meters,jsons/VE125_randls_8.json,1471943,1693350,25,Man
95,543290,DepthScenes,duration_manipulation_targetAtFixation,jsons/VE125_randls_8.json,http://54.235.29.9/FacialAge/BNav_EC2/DepthDuration/v2_depth_duration_MTurk/v2_DepthDuration_HTML.html#442,442,1707,960,1366,768,8-30-2022,10-25-4,96,depth_duration_stimuli/002425_2014-06-28_20-27-29_260595134347_rgbf000031-resize_8/002425_2014-06-28_20-27-29_260595134347_rgbf000031-resize_8-target.png,125,3.8960000000000004,0,3829,110,meters,jsons/VE125_randls_8.json,1471943,1693350,25,Man
96,543290,DepthScenes,duration_manipulation_targetAtFixation,jsons/VE125_randls_8.json,http://54.235.29.9/FacialAge/BNav_EC2/DepthDuration/v2_depth_duration_MTurk/v2_DepthDuration_HTML.html#442,442,1707,960,1366,768,8-30-2022,10-25-4,97,depth_duration_stimuli/001150_2014-06-17_15-27-34_260595134347_rgbf000108-resize_2/001150_2014-06-17_15-27-34_260595134347_rgbf000108-resize_2-target.png,125,4.0325,0,6797,123,meters,jsons/VE125_randls_8.json,1471943,1693350,25,Man
97,543290,DepthScenes,duration_manipulation_targetAtFixation,jsons/VE125_randls_8.json,http://54.235.29.9/FacialAge/BNav_EC2/DepthDuration/v2_depth_duration_MTurk/v2_DepthDuration_HTML.html#442,442,1707,960,1366,768,8-30-2022,10-25-4,98,depth_duration_stimuli/000665_2014-06-09_20-42-35_260595134347_rgbf000110-resize_1/000665_2014-06-09_20-42-35_260595134347_rgbf000110-resize_1-target.png,125,3.057,1,56454,127,meters,jsons/VE125_randls_8.json,1471943,1693350,25,Man
98,543290,DepthScenes,duration_manipulation_targetAtFixation,jsons/VE125_randls_8.json,http://54.235.29.9/FacialAge/BNav_EC2/DepthDuration/v2_depth_duration_MTurk/v2_DepthDuration_HTML.html#442,442,1707,960,1366,768,8-30-2022,10-25-4,99,depth_duration_stimuli/001540_2014-06-20_17-01-05_260595134347_rgbf000086-resize_2/001540_2014-06-20_17-01-05_260595134347_rgbf000086-resize-original.jpg,125,1.459,0,5466,125,meters,jsons/VE125_randls_8.json,1471943,1693350,25,Man
99,543290,DepthScenes,duration_manipulation_targetAtFixation,jsons/VE125_randls_8.json,http://54.235.29.9/FacialAge/BNav_EC2/DepthDuration/v2_depth_duration_MTurk/v2_DepthDuration_HTML.html#442,442,1707,960,1366,768,8-30-2022,10-25-4,100,depth_duration_stimuli/001164_2014-06-17_15-35-46_260595134347_rgbf000085-resize_3/001164_2014-06-17_15-35-46_260595134347_rgbf000085-resize_3-target.png,125,2.354,0,4713,124,meters,jsons/VE125_randls_8.json,1471943,1693350,25,Man
100,543290,DepthScenes,duration_manipulation_targetAtFixation,jsons/VE125_randls_8.json,http://54.235.29.9/FacialAge/BNav_EC2/DepthDuration/v2_depth_duration_MTurk/v2_DepthDuration_HTML.html#442,442,1707,960,1366,768,8-30-2022,10-25-4,101,depth_duration_stimuli/001136_2014-06-17_15-19-41_260595134347_rgbf000076-resize_3/001136_2014-06-17_15-19-41_260595134347_rgbf000076-resize_3-target.png,125,1.8655,1,6760,112,meters,jsons/VE125_randls_8.json,1471943,1693350,25,Man
101,543290,DepthScenes,duration_manipulation_targetAtFixation,jsons/VE125_randls_8.json,http://54.235.29.9/FacialAge/BNav_EC2/DepthDuration/v2_depth_duration_MTurk/v2_DepthDuration_HTML.html#442,442,1707,960,1366,768,8-30-2022,10-25-4,102,depth_duration_stimuli/002039_2014-06-24_20-22-38_260595134347_rgbf000084-resize_1/002039_2014-06-24_20-22-38_260595134347_rgbf000084-resize_1-target.png,125,4.408,0,4881,113,meters,jsons/VE125_randls_8.json,1471943,1693350,25,Man
102,543290,DepthScenes,duration_manipulation_targetAtFixation,jsons/VE125_randls_8.json,http://54.235.29.9/FacialAge/BNav_EC2/DepthDuration/v2_depth_duration_MTurk/v2_DepthDuration_HTML.html#442,442,1707,960,1366,768,8-30-2022,10-25-4,103,depth_duration_stimuli/002103_2014-06-25_20-00-40_260595134347_rgbf000049-resize_0/002103_2014-06-25_20-00-40_260595134347_rgbf000049-resize_0-target.png,125,4.105,0,3831,130,meters,jsons/VE125_randls_8.json,1471943,1693350,25,Man
103,543290,DepthScenes,duration_manipulation_targetAtFixation,jsons/VE125_randls_8.json,http://54.235.29.9/FacialAge/BNav_EC2/DepthDuration/v2_depth_duration_MTurk/v2_DepthDuration_HTML.html#442,442,1707,960,1366,768,8-30-2022,10-25-4,104,depth_duration_stimuli/001092_2014-06-15_17-34-58_260595134347_rgbf000171-resize_3/001092_2014-06-15_17-34-58_260595134347_rgbf000171-resize_3-target.png,125,2.6935,1,5115,127,meters,jsons/VE125_randls_8.json,1471943,1693350,25,Man
104,543290,DepthScenes,duration_manipulation_targetAtFixation,jsons/VE125_randls_8.json,http://54.235.29.9/FacialAge/BNav_EC2/DepthDuration/v2_depth_duration_MTurk/v2_DepthDuration_HTML.html#442,442,1707,960,1366,768,8-30-2022,10-25-4,105,depth_duration_stimuli/002545_2014-06-24_13-38-53_094959634447_rgbf000080-resize_4/002545_2014-06-24_13-38-53_094959634447_rgbf000080-resize_4-target.png,125,1.9205,1,4087,114,meters,jsons/VE125_randls_8.json,1471943,1693350,25,Man
105,543290,DepthScenes,duration_manipulation_targetAtFixation,jsons/VE125_randls_8.json,http://54.235.29.9/FacialAge/BNav_EC2/DepthDuration/v2_depth_duration_MTurk/v2_DepthDuration_HTML.html#442,442,1707,960,1366,768,8-30-2022,10-25-4,106,depth_duration_stimuli/000486_2014-06-09_20-47-20_260595134347_rgbf000143-resize_2/000486_2014-06-09_20-47-20_260595134347_rgbf000143-resize_2-target.png,125,4.8325,0,6875,124,meters,jsons/VE125_randls_8.json,1471943,1693350,25,Man
106,543290,DepthScenes,duration_manipulation_targetAtFixation,jsons/VE125_randls_8.json,http://54.235.29.9/FacialAge/BNav_EC2/DepthDuration/v2_depth_duration_MTurk/v2_DepthDuration_HTML.html#442,442,1707,960,1366,768,8-30-2022,10-25-4,107,depth_duration_stimuli/003083_2014-06-15_15-21-03_094959634447_rgbf000063-resize_1/003083_2014-06-15_15-21-03_094959634447_rgbf000063-resize_1-target.png,125,4.1405,0,3567,128,meters,jsons/VE125_randls_8.json,1471943,1693350,25,Man
107,543290,DepthScenes,duration_manipulation_targetAtFixation,jsons/VE125_randls_8.json,http://54.235.29.9/FacialAge/BNav_EC2/DepthDuration/v2_depth_duration_MTurk/v2_DepthDuration_HTML.html#442,442,1707,960,1366,768,8-30-2022,10-25-4,108,depth_duration_stimuli/000739_2014-06-08_18-45-58_260595134347_rgbf000068-resize_1/000739_2014-06-08_18-45-58_260595134347_rgbf000068-resize_1-target.png,125,3.534,0,8818,125,meters,jsons/VE125_randls_8.json,1471943,1693350,25,Man
108,543290,DepthScenes,duration_manipulation_targetAtFixation,jsons/VE125_randls_8.json,http://54.235.29.9/FacialAge/BNav_EC2/DepthDuration/v2_depth_duration_MTurk/v2_DepthDuration_HTML.html#442,442,1707,960,1366,768,8-30-2022,10-25-4,109,depth_duration_stimuli/000734_2014-06-08_17-39-11_260595134347_rgbf000128-resize_2/000734_2014-06-08_17-39-11_260595134347_rgbf000128-resize_2-target.png,125,4.098,1,4279,125,meters,jsons/VE125_randls_8.json,1471943,1693350,25,Man
109,543290,DepthScenes,duration_manipulation_targetAtFixation,jsons/VE125_randls_8.json,http://54.235.29.9/FacialAge/BNav_EC2/DepthDuration/v2_depth_duration_MTurk/v2_DepthDuration_HTML.html#442,442,1707,960,1366,768,8-30-2022,10-25-4,110,depth_duration_stimuli/002905_2014-06-03_18-04-43_094959634447_rgbf000151-resize_2/002905_2014-06-03_18-04-43_094959634447_rgbf000151-resize_2-target.png,125,2.0295,1,7032,123,meters,jsons/VE125_randls_8.json,1471943,1693350,25,Man
110,543290,DepthScenes,duration_manipulation_targetAtFixation,jsons/VE125_randls_8.json,http://54.235.29.9/FacialAge/BNav_EC2/DepthDuration/v2_depth_duration_MTurk/v2_DepthDuration_HTML.html#442,442,1707,960,1366,768,8-30-2022,10-25-4,111,depth_duration_stimuli/003423_2014-05-21_10-23-26_094959634447_rgbf002665-resize_2/003423_2014-05-21_10-23-26_094959634447_rgbf002665-resize_2-target.png,125,3.2575,0,3402,125,meters,jsons/VE125_randls_8.json,1471943,1693350,25,Man
111,543290,DepthScenes,duration_manipulation_targetAtFixation,jsons/VE125_randls_8.json,http://54.235.29.9/FacialAge/BNav_EC2/DepthDuration/v2_depth_duration_MTurk/v2_DepthDuration_HTML.html#442,442,1707,960,1366,768,8-30-2022,10-25-4,112,depth_duration_stimuli/002279_2014-06-28_18-55-32_260595134347_rgbf000040-resize_5/002279_2014-06-28_18-55-32_260595134347_rgbf000040-resize_5-target.png,125,1.5043333333333,1,5032,134,meters,jsons/VE125_randls_8.json,1471943,1693350,25,Man
112,543290,DepthScenes,duration_manipulation_targetAtFixation,jsons/VE125_randls_8.json,http://54.235.29.9/FacialAge/BNav_EC2/DepthDuration/v2_depth_duration_MTurk/v2_DepthDuration_HTML.html#442,442,1707,960,1366,768,8-30-2022,10-25-4,113,depth_duration_stimuli/000635_2014-06-08_16-38-42_260595134347_rgbf000106-resize_1/000635_2014-06-08_16-38-42_260595134347_rgbf000106-resize_1-target.png,125,2.074,1,4162,117,meters,jsons/VE125_randls_8.json,1471943,1693350,25,Man
113,543290,DepthScenes,duration_manipulation_targetAtFixation,jsons/VE125_randls_8.json,http://54.235.29.9/FacialAge/BNav_EC2/DepthDuration/v2_depth_duration_MTurk/v2_DepthDuration_HTML.html#442,442,1707,960,1366,768,8-30-2022,10-25-4,114,depth_duration_stimuli/002153_2014-06-25_21-27-18_260595134347_rgbf000038-resize_5/002153_2014-06-25_21-27-18_260595134347_rgbf000038-resize_5-target.png,125,2.505,1,4843,125,meters,jsons/VE125_randls_8.json,1471943,1693350,25,Man
114,543290,DepthScenes,duration_manipulation_targetAtFixation,jsons/VE125_randls_8.json,http://54.235.29.9/FacialAge/BNav_EC2/DepthDuration/v2_depth_duration_MTurk/v2_DepthDuration_HTML.html#442,442,1707,960,1366,768,8-30-2022,10-25-4,115,depth_duration_stimuli/002660_2014-06-13_15-44-18_094959634447_rgbf001878-resize_2/002660_2014-06-13_15-44-18_094959634447_rgbf001878-resize_2-target.png,125,3.576,1,3674,104,meters,jsons/VE125_randls_8.json,1471943,1693350,25,Man
115,543290,DepthScenes,duration_manipulation_targetAtFixation,jsons/VE125_randls_8.json,http://54.235.29.9/FacialAge/BNav_EC2/DepthDuration/v2_depth_duration_MTurk/v2_DepthDuration_HTML.html#442,442,1707,960,1366,768,8-30-2022,10-25-4,116,depth_duration_stimuli/001170_2014-06-17_15-43-44_260595134347_rgbf000096-resize_6/001170_2014-06-17_15-43-44_260595134347_rgbf000096-resize-original.jpg,125,1.1909999999999998,0,5120,122,meters,jsons/VE125_randls_8.json,1471943,1693350,25,Man
116,543290,DepthScenes,duration_manipulation_targetAtFixation,jsons/VE125_randls_8.json,http://54.235.29.9/FacialAge/BNav_EC2/DepthDuration/v2_depth_duration_MTurk/v2_DepthDuration_HTML.html#442,442,1707,960,1366,768,8-30-2022,10-25-4,117,depth_duration_stimuli/000522_2014-06-08_13-35-06_260595134347_rgbf000244-resize_1/000522_2014-06-08_13-35-06_260595134347_rgbf000244-resize_1-target.png,125,2.3715,1,7209,117,meters,jsons/VE125_randls_8.json,1471943,1693350,25,Man
117,543290,DepthScenes,duration_manipulation_targetAtFixation,jsons/VE125_randls_8.json,http://54.235.29.9/FacialAge/BNav_EC2/DepthDuration/v2_depth_duration_MTurk/v2_DepthDuration_HTML.html#442,442,1707,960,1366,768,8-30-2022,10-25-4,118,depth_duration_stimuli/002949_2014-06-26_15-57-42_094959634447_rgbf000079-resize_1/002949_2014-06-26_15-57-42_094959634447_rgbf000079-resize_1-target.png,125,1.8915,1,4232,130,meters,jsons/VE125_randls_8.json,1471943,1693350,25,Man
118,543290,DepthScenes,duration_manipulation_targetAtFixation,jsons/VE125_randls_8.json,http://54.235.29.9/FacialAge/BNav_EC2/DepthDuration/v2_depth_duration_MTurk/v2_DepthDuration_HTML.html#442,442,1707,960,1366,768,8-30-2022,10-25-4,119,depth_duration_stimuli/002272_2014-06-28_18-53-56_260595134347_rgbf000067-resize_2/002272_2014-06-28_18-53-56_260595134347_rgbf000067-resize_2-target.png,125,1.138,1,5333,124,meters,jsons/VE125_randls_8.json,1471943,1693350,25,Man
119,543290,DepthScenes,duration_manipulation_targetAtFixation,jsons/VE125_randls_8.json,http://54.235.29.9/FacialAge/BNav_EC2/DepthDuration/v2_depth_duration_MTurk/v2_DepthDuration_HTML.html#442,442,1707,960,1366,768,8-30-2022,10-25-4,120,depth_duration_stimuli/001571_2014-06-20_17-21-32_260595134347_rgbf000089-resize_1/001571_2014-06-20_17-21-32_260595134347_rgbf000089-resize_1-target.png,125,1.86,1,3829,124,meters,jsons/VE125_randls_8.json,1471943,1693350,25,Man
120,543290,DepthScenes,duration_manipulation_targetAtFixation,jsons/VE125_randls_8.json,http://54.235.29.9/FacialAge/BNav_EC2/DepthDuration/v2_depth_duration_MTurk/v2_DepthDuration_HTML.html#442,442,1707,960,1366,768,8-30-2022,10-25-4,121,depth_duration_stimuli/002213_2014-06-28_18-37-58_260595134347_rgbf000055-resize_1/002213_2014-06-28_18-37-58_260595134347_rgbf000055-resize_1-target.png,125,3.62,0,5943,119,meters,jsons/VE125_randls_8.json,1471943,1693350,25,Man
121,543290,DepthScenes,duration_manipulation_targetAtFixation,jsons/VE125_randls_8.json,http://54.235.29.9/FacialAge/BNav_EC2/DepthDuration/v2_depth_duration_MTurk/v2_DepthDuration_HTML.html#442,442,1707,960,1366,768,8-30-2022,10-25-4,122,depth_duration_stimuli/000691_2014-06-08_13-08-50_260595134347_rgbf000132-resize_3/000691_2014-06-08_13-08-50_260595134347_rgbf000132-resize_3-target.png,125,4.1530000000000005,0,3672,124,meters,jsons/VE125_randls_8.json,1471943,1693350,25,Man
122,543290,DepthScenes,duration_manipulation_targetAtFixation,jsons/VE125_randls_8.json,http://54.235.29.9/FacialAge/BNav_EC2/DepthDuration/v2_depth_duration_MTurk/v2_DepthDuration_HTML.html#442,442,1707,960,1366,768,8-30-2022,10-25-4,123,depth_duration_stimuli/002570_2014-06-24_13-59-54_094959634447_rgbf000059-resize_0/002570_2014-06-24_13-59-54_094959634447_rgbf000059-resize_0-target.png,125,4.037,0,4336,127,meters,jsons/VE125_randls_8.json,1471943,1693350,25,Man
123,543290,DepthScenes,duration_manipulation_targetAtFixation,jsons/VE125_randls_8.json,http://54.235.29.9/FacialAge/BNav_EC2/DepthDuration/v2_depth_duration_MTurk/v2_DepthDuration_HTML.html#442,442,1707,960,1366,768,8-30-2022,10-25-4,124,depth_duration_stimuli/002467_2014-06-28_20-38-07_260595134347_rgbf000026-resize_2/002467_2014-06-28_20-38-07_260595134347_rgbf000026-resize_2-target.png,125,4.742,0,3718,134,meters,jsons/VE125_randls_8.json,1471943,1693350,25,Man
124,543290,DepthScenes,duration_manipulation_targetAtFixation,jsons/VE125_randls_8.json,http://54.235.29.9/FacialAge/BNav_EC2/DepthDuration/v2_depth_duration_MTurk/v2_DepthDuration_HTML.html#442,442,1707,960,1366,768,8-30-2022,10-25-4,125,depth_duration_stimuli/002043_2014-06-24_20-29-38_260595134347_rgbf000039-resize_4/002043_2014-06-24_20-29-38_260595134347_rgbf000039-resize_4-target.png,125,2.8435,1,4598,126,meters,jsons/VE125_randls_8.json,1471943,1693350,25,Man
125,543290,DepthScenes,duration_manipulation_targetAtFixation,jsons/VE125_randls_8.json,http://54.235.29.9/FacialAge/BNav_EC2/DepthDuration/v2_depth_duration_MTurk/v2_DepthDuration_HTML.html#442,442,1707,960,1366,768,8-30-2022,10-25-4,126,depth_duration_stimuli/003048_2014-06-15_13-49-43_094959634447_rgbf000150-resize_1/003048_2014-06-15_13-49-43_094959634447_rgbf000150-resize_1-target.png,125,4.0035,0,4023,123,meters,jsons/VE125_randls_8.json,1471943,1693350,25,Man
126,543290,DepthScenes,duration_manipulation_targetAtFixation,jsons/VE125_randls_8.json,http://54.235.29.9/FacialAge/BNav_EC2/DepthDuration/v2_depth_duration_MTurk/v2_DepthDuration_HTML.html#442,442,1707,960,1366,768,8-30-2022,10-25-4,127,depth_duration_stimuli/002988_2014-06-15_12-24-20_094959634447_rgbf000150-resize_1/002988_2014-06-15_12-24-20_094959634447_rgbf000150-resize_1-target.png,125,4.7669999999999995,0,73306,141,meters,jsons/VE125_randls_8.json,1471943,1693350,25,Man
127,543290,DepthScenes,duration_manipulation_targetAtFixation,jsons/VE125_randls_8.json,http://54.235.29.9/FacialAge/BNav_EC2/DepthDuration/v2_depth_duration_MTurk/v2_DepthDuration_HTML.html#442,442,1707,960,1366,768,8-30-2022,10-25-4,128,depth_duration_stimuli/001052_2014-06-08_18-24-54_260595134347_rgbf000130-resize_1/001052_2014-06-08_18-24-54_260595134347_rgbf000130-resize_1-target.png,125,4.1045,0,4922,127,meters,jsons/VE125_randls_8.json,1471943,1693350,25,Man
128,543290,DepthScenes,duration_manipulation_targetAtFixation,jsons/VE125_randls_8.json,http://54.235.29.9/FacialAge/BNav_EC2/DepthDuration/v2_depth_duration_MTurk/v2_DepthDuration_HTML.html#442,442,1707,960,1366,768,8-30-2022,10-25-4,129,depth_duration_stimuli/000692_2014-06-08_13-09-42_260595134347_rgbf000199-resize_2/000692_2014-06-08_13-09-42_260595134347_rgbf000199-resize_2-target.png,125,3.661,1,3992,133,meters,jsons/VE125_randls_8.json,1471943,1693350,25,Man
129,543290,DepthScenes,duration_manipulation_targetAtFixation,jsons/VE125_randls_8.json,http://54.235.29.9/FacialAge/BNav_EC2/DepthDuration/v2_depth_duration_MTurk/v2_DepthDuration_HTML.html#442,442,1707,960,1366,768,8-30-2022,10-25-4,130,depth_duration_stimuli/001094_2014-06-15_17-36-00_260595134347_rgbf000205-resize_0/001094_2014-06-15_17-36-00_260595134347_rgbf000205-resize_0-target.png,125,4.2175,0,3698,122,meters,jsons/VE125_randls_8.json,1471943,1693350,25,Man
130,543290,DepthScenes,duration_manipulation_targetAtFixation,jsons/VE125_randls_8.json,http://54.235.29.9/FacialAge/BNav_EC2/DepthDuration/v2_depth_duration_MTurk/v2_DepthDuration_HTML.html#442,442,1707,960,1366,768,8-30-2022,10-25-4,131,depth_duration_stimuli/001555_2014-06-20_17-12-10_260595134347_rgbf000065-resize_4/001555_2014-06-20_17-12-10_260595134347_rgbf000065-resize_4-target.png,125,1.633,1,7201,121,meters,jsons/VE125_randls_8.json,1471943,1693350,25,Man
131,543290,DepthScenes,duration_manipulation_targetAtFixation,jsons/VE125_randls_8.json,http://54.235.29.9/FacialAge/BNav_EC2/DepthDuration/v2_depth_duration_MTurk/v2_DepthDuration_HTML.html#442,442,1707,960,1366,768,8-30-2022,10-25-4,132,depth_duration_stimuli/000103_2014-05-14_22-01-17_260595134347_rgbf000152-resize_5/000103_2014-05-14_22-01-17_260595134347_rgbf000152-resize_5-target.png,125,1.993,1,3663,125,meters,jsons/VE125_randls_8.json,1471943,1693350,25,Man
132,543290,DepthScenes,duration_manipulation_targetAtFixation,jsons/VE125_randls_8.json,http://54.235.29.9/FacialAge/BNav_EC2/DepthDuration/v2_depth_duration_MTurk/v2_DepthDuration_HTML.html#442,442,1707,960,1366,768,8-30-2022,10-25-4,133,depth_duration_stimuli/002057_2014-06-24_21-00-13_260595134347_rgbf000120-resize_1/002057_2014-06-24_21-00-13_260595134347_rgbf000120-resize_1-target.png,125,2.967,1,5553,118,meters,jsons/VE125_randls_8.json,1471943,1693350,25,Man
133,543290,DepthScenes,duration_manipulation_targetAtFixation,jsons/VE125_randls_8.json,http://54.235.29.9/FacialAge/BNav_EC2/DepthDuration/v2_depth_duration_MTurk/v2_DepthDuration_HTML.html#442,442,1707,960,1366,768,8-30-2022,10-25-4,134,depth_duration_stimuli/000709_2014-06-08_13-51-55_260595134347_rgbf000068-resize_3/000709_2014-06-08_13-51-55_260595134347_rgbf000068-resize_3-target.png,125,1.8030000000000002,1,3382,115,meters,jsons/VE125_randls_8.json,1471943,1693350,25,Man
134,543290,DepthScenes,duration_manipulation_targetAtFixation,jsons/VE125_randls_8.json,http://54.235.29.9/FacialAge/BNav_EC2/DepthDuration/v2_depth_duration_MTurk/v2_DepthDuration_HTML.html#442,442,1707,960,1366,768,8-30-2022,10-25-4,135,depth_duration_stimuli/002072_2014-06-24_21-48-06_260595134347_rgbf000115-resize_0/002072_2014-06-24_21-48-06_260595134347_rgbf000115-resize-original.jpg,125,4.702,0,3820,126,meters,jsons/VE125_randls_8.json,1471943,1693350,25,Man
135,543290,DepthScenes,duration_manipulation_targetAtFixation,jsons/VE125_randls_8.json,http://54.235.29.9/FacialAge/BNav_EC2/DepthDuration/v2_depth_duration_MTurk/v2_DepthDuration_HTML.html#442,442,1707,960,1366,768,8-30-2022,10-25-4,136,depth_duration_stimuli/002600_2014-06-24_14-27-04_094959634447_rgbf000074-resize_2/002600_2014-06-24_14-27-04_094959634447_rgbf000074-resize_2-target.png,125,2.7575,0,5687,124,meters,jsons/VE125_randls_8.json,1471943,1693350,25,Man
136,543290,DepthScenes,duration_manipulation_targetAtFixation,jsons/VE125_randls_8.json,http://54.235.29.9/FacialAge/BNav_EC2/DepthDuration/v2_depth_duration_MTurk/v2_DepthDuration_HTML.html#442,442,1707,960,1366,768,8-30-2022,10-25-4,137,depth_duration_stimuli/003228_2014-05-14_13-42-35_094959634447_rgbf000101-resize_1/003228_2014-05-14_13-42-35_094959634447_rgbf000101-resize_1-target.png,125,1.9680000000000002,0,3436,125,meters,jsons/VE125_randls_8.json,1471943,1693350,25,Man
137,543290,DepthScenes,duration_manipulation_targetAtFixation,jsons/VE125_randls_8.json,http://54.235.29.9/FacialAge/BNav_EC2/DepthDuration/v2_depth_duration_MTurk/v2_DepthDuration_HTML.html#442,442,1707,960,1366,768,8-30-2022,10-25-4,138,depth_duration_stimuli/002445_2014-06-28_20-32-16_260595134347_rgbf000029-resize_4/002445_2014-06-28_20-32-16_260595134347_rgbf000029-resize_4-target.png,125,2.5315,1,4880,123,meters,jsons/VE125_randls_8.json,1471943,1693350,25,Man
138,543290,DepthScenes,duration_manipulation_targetAtFixation,jsons/VE125_randls_8.json,http://54.235.29.9/FacialAge/BNav_EC2/DepthDuration/v2_depth_duration_MTurk/v2_DepthDuration_HTML.html#442,442,1707,960,1366,768,8-30-2022,10-25-4,139,depth_duration_stimuli/000780_2014-06-08_22-28-29_260595134347_rgbf000126-resize_1/000780_2014-06-08_22-28-29_260595134347_rgbf000126-resize_1-target.png,125,3.3825,0,3849,123,meters,jsons/VE125_randls_8.json,1471943,1693350,25,Man
139,543290,DepthScenes,duration_manipulation_targetAtFixation,jsons/VE125_randls_8.json,http://54.235.29.9/FacialAge/BNav_EC2/DepthDuration/v2_depth_duration_MTurk/v2_DepthDuration_HTML.html#442,442,1707,960,1366,768,8-30-2022,10-25-4,140,depth_duration_stimuli/002549_2014-06-24_13-41-39_094959634447_rgbf000022-resize_3/002549_2014-06-24_13-41-39_094959634447_rgbf000022-resize_3-target.png,125,1.476,1,4756,123,meters,jsons/VE125_randls_8.json,1471943,1693350,25,Man
140,543290,DepthScenes,duration_manipulation_targetAtFixation,jsons/VE125_randls_8.json,http://54.235.29.9/FacialAge/BNav_EC2/DepthDuration/v2_depth_duration_MTurk/v2_DepthDuration_HTML.html#442,442,1707,960,1366,768,8-30-2022,10-25-4,141,depth_duration_stimuli/002750_2014-06-22_19-08-03_094959634447_rgbf000094-resize_4/002750_2014-06-22_19-08-03_094959634447_rgbf000094-resize_4-target.png,125,2.354,1,3808,122,meters,jsons/VE125_randls_8.json,1471943,1693350,25,Man
141,543290,DepthScenes,duration_manipulation_targetAtFixation,jsons/VE125_randls_8.json,http://54.235.29.9/FacialAge/BNav_EC2/DepthDuration/v2_depth_duration_MTurk/v2_DepthDuration_HTML.html#442,442,1707,960,1366,768,8-30-2022,10-25-4,142,depth_duration_stimuli/000878_2014-06-08_22-52-45_260595134347_rgbf000045-resize_2/000878_2014-06-08_22-52-45_260595134347_rgbf000045-resize_2-target.png,125,2.092,0,4561,121,meters,jsons/VE125_randls_8.json,1471943,1693350,25,Man
142,543290,DepthScenes,duration_manipulation_targetAtFixation,jsons/VE125_randls_8.json,http://54.235.29.9/FacialAge/BNav_EC2/DepthDuration/v2_depth_duration_MTurk/v2_DepthDuration_HTML.html#442,442,1707,960,1366,768,8-30-2022,10-25-4,143,depth_duration_stimuli/002953_2014-06-08_17-32-18_094959634447_rgbf000059-resize_5/002953_2014-06-08_17-32-18_094959634447_rgbf000059-resize_5-target.png,125,1.551,1,3674,111,meters,jsons/VE125_randls_8.json,1471943,1693350,25,Man
143,543290,DepthScenes,duration_manipulation_targetAtFixation,jsons/VE125_randls_8.json,http://54.235.29.9/FacialAge/BNav_EC2/DepthDuration/v2_depth_duration_MTurk/v2_DepthDuration_HTML.html#442,442,1707,960,1366,768,8-30-2022,10-25-4,144,depth_duration_stimuli/001016_2014-06-09_16-16-10_260595134347_rgbf000112-resize_5/001016_2014-06-09_16-16-10_260595134347_rgbf000112-resize_5-target.png,125,1.6565,1,4076,141,meters,jsons/VE125_randls_8.json,1471943,1693350,25,Man
144,543290,DepthScenes,duration_manipulation_targetAtFixation,jsons/VE125_randls_8.json,http://54.235.29.9/FacialAge/BNav_EC2/DepthDuration/v2_depth_duration_MTurk/v2_DepthDuration_HTML.html#442,442,1707,960,1366,768,8-30-2022,10-25-4,145,depth_duration_stimuli/002340_2014-06-28_20-05-46_260595134347_rgbf000113-resize_0/002340_2014-06-28_20-05-46_260595134347_rgbf000113-resize_0-target.png,125,2.4735,0,3349,118,meters,jsons/VE125_randls_8.json,1471943,1693350,25,Man
145,543290,DepthScenes,duration_manipulation_targetAtFixation,jsons/VE125_randls_8.json,http://54.235.29.9/FacialAge/BNav_EC2/DepthDuration/v2_depth_duration_MTurk/v2_DepthDuration_HTML.html#442,442,1707,960,1366,768,8-30-2022,10-25-4,146,depth_duration_stimuli/001498_2014-06-19_17-45-14_260595134347_rgbf000129-resize_4/001498_2014-06-19_17-45-14_260595134347_rgbf000129-resize-original.jpg,125,1.4075,0,4033,131,meters,jsons/VE125_randls_8.json,1471943,1693350,25,Man
146,543290,DepthScenes,duration_manipulation_targetAtFixation,jsons/VE125_randls_8.json,http://54.235.29.9/FacialAge/BNav_EC2/DepthDuration/v2_depth_duration_MTurk/v2_DepthDuration_HTML.html#442,442,1707,960,1366,768,8-30-2022,10-25-4,147,depth_duration_stimuli/001055_2014-06-08_18-45-35_260595134347_rgbf000111-resize_4/001055_2014-06-08_18-45-35_260595134347_rgbf000111-resize_4-target.png,125,2.4290000000000003,0,4067,132,meters,jsons/VE125_randls_8.json,1471943,1693350,25,Man
147,543290,DepthScenes,duration_manipulation_targetAtFixation,jsons/VE125_randls_8.json,http://54.235.29.9/FacialAge/BNav_EC2/DepthDuration/v2_depth_duration_MTurk/v2_DepthDuration_HTML.html#442,442,1707,960,1366,768,8-30-2022,10-25-4,148,depth_duration_stimuli/000549_2014-06-08_22-10-24_260595134347_rgbf000247-resize_3/000549_2014-06-08_22-10-24_260595134347_rgbf000247-resize_3-target.png,125,1.841,1,3565,123,meters,jsons/VE125_randls_8.json,1471943,1693350,25,Man
148,543290,DepthScenes,duration_manipulation_targetAtFixation,jsons/VE125_randls_8.json,http://54.235.29.9/FacialAge/BNav_EC2/DepthDuration/v2_depth_duration_MTurk/v2_DepthDuration_HTML.html#442,442,1707,960,1366,768,8-30-2022,10-25-4,149,depth_duration_stimuli/001808_2014-06-26_20-50-58_260595134347_rgbf000029-resize_1/001808_2014-06-26_20-50-58_260595134347_rgbf000029-resize_1-target.png,125,4.249,1,4113,117,meters,jsons/VE125_randls_8.json,1471943,1693350,25,Man
149,543290,DepthScenes,duration_manipulation_targetAtFixation,jsons/VE125_randls_8.json,http://54.235.29.9/FacialAge/BNav_EC2/DepthDuration/v2_depth_duration_MTurk/v2_DepthDuration_HTML.html#442,442,1707,960,1366,768,8-30-2022,10-25-4,150,depth_duration_stimuli/001815_2014-06-26_20-52-55_260595134347_rgbf000020-resize_0/001815_2014-06-26_20-52-55_260595134347_rgbf000020-resize_0-target.png,125,3.3865,1,26124,125,meters,jsons/VE125_randls_8.json,1471943,1693350,25,Man
150,543290,DepthScenes,duration_manipulation_targetAtFixation,jsons/VE125_randls_8.json,http://54.235.29.9/FacialAge/BNav_EC2/DepthDuration/v2_depth_duration_MTurk/v2_DepthDuration_HTML.html#442,442,1707,960,1366,768,8-30-2022,10-25-4,151,depth_duration_stimuli/001011_2014-06-08_23-18-54_260595134347_rgbf000044-resize_4/001011_2014-06-08_23-18-54_260595134347_rgbf000044-resize_4-target.png,125,2.4730000000000003,1,5209,126,meters,jsons/VE125_randls_8.json,1471943,1693350,25,Man
151,543290,DepthScenes,duration_manipulation_targetAtFixation,jsons/VE125_randls_8.json,http://54.235.29.9/FacialAge/BNav_EC2/DepthDuration/v2_depth_duration_MTurk/v2_DepthDuration_HTML.html#442,442,1707,960,1366,768,8-30-2022,10-25-4,152,depth_duration_stimuli/002875_2014-06-01_15-19-00_094959634447_rgbf000151-resize_1/002875_2014-06-01_15-19-00_094959634447_rgbf000151-resize_1-target.png,125,1.9675,1,5719,125,meters,jsons/VE125_randls_8.json,1471943,1693350,25,Man
152,543290,DepthScenes,duration_manipulation_targetAtFixation,jsons/VE125_randls_8.json,http://54.235.29.9/FacialAge/BNav_EC2/DepthDuration/v2_depth_duration_MTurk/v2_DepthDuration_HTML.html#442,442,1707,960,1366,768,8-30-2022,10-25-4,153,depth_duration_stimuli/002725_2014-06-22_11-47-51_094959634447_rgbf000070-resize_1/002725_2014-06-22_11-47-51_094959634447_rgbf000070-resize_1-target.png,125,2.195,0,4126,114,meters,jsons/VE125_randls_8.json,1471943,1693350,25,Man
153,543290,DepthScenes,duration_manipulation_targetAtFixation,jsons/VE125_randls_8.json,http://54.235.29.9/FacialAge/BNav_EC2/DepthDuration/v2_depth_duration_MTurk/v2_DepthDuration_HTML.html#442,442,1707,960,1366,768,8-30-2022,10-25-4,154,depth_duration_stimuli/002344_2014-06-28_20-06-29_260595134347_rgbf000030-resize_1/002344_2014-06-28_20-06-29_260595134347_rgbf000030-resize_1-target.png,125,1.5795,0,31085,126,meters,jsons/VE125_randls_8.json,1471943,1693350,25,Man
154,543290,DepthScenes,duration_manipulation_targetAtFixation,jsons/VE125_randls_8.json,http://54.235.29.9/FacialAge/BNav_EC2/DepthDuration/v2_depth_duration_MTurk/v2_DepthDuration_HTML.html#442,442,1707,960,1366,768,8-30-2022,10-25-4,155,depth_duration_stimuli/001806_2014-06-26_20-50-20_260595134347_rgbf000091-resize_1/001806_2014-06-26_20-50-20_260595134347_rgbf000091-resize_1-target.png,125,2.7305,0,5500,123,meters,jsons/VE125_randls_8.json,1471943,1693350,25,Man
155,543290,DepthScenes,duration_manipulation_targetAtFixation,jsons/VE125_randls_8.json,http://54.235.29.9/FacialAge/BNav_EC2/DepthDuration/v2_depth_duration_MTurk/v2_DepthDuration_HTML.html#442,442,1707,960,1366,768,8-30-2022,10-25-4,156,depth_duration_stimuli/001617_2014-06-20_11-35-32_260595134347_rgbf000066-resize_1/001617_2014-06-20_11-35-32_260595134347_rgbf000066-resize_1-target.png,125,3.7910000000000004,1,16701,111,meters,jsons/VE125_randls_8.json,1471943,1693350,25,Man
156,543290,DepthScenes,duration_manipulation_targetAtFixation,jsons/VE125_randls_8.json,http://54.235.29.9/FacialAge/BNav_EC2/DepthDuration/v2_depth_duration_MTurk/v2_DepthDuration_HTML.html#442,442,1707,960,1366,768,8-30-2022,10-25-4,157,depth_duration_stimuli/002375_2014-06-28_20-13-44_260595134347_rgbf000032-resize_1/002375_2014-06-28_20-13-44_260595134347_rgbf000032-resize_1-target.png,125,4.0175,1,5261,115,meters,jsons/VE125_randls_8.json,1471943,1693350,25,Man
157,543290,DepthScenes,duration_manipulation_targetAtFixation,jsons/VE125_randls_8.json,http://54.235.29.9/FacialAge/BNav_EC2/DepthDuration/v2_depth_duration_MTurk/v2_DepthDuration_HTML.html#442,442,1707,960,1366,768,8-30-2022,10-25-4,158,depth_duration_stimuli/002657_2014-06-13_15-29-54_094959634447_rgbf000150-resize_1/002657_2014-06-13_15-29-54_094959634447_rgbf000150-resize_1-target.png,125,4.919,1,3887,124,meters,jsons/VE125_randls_8.json,1471943,1693350,25,Man
158,543290,DepthScenes,duration_manipulation_targetAtFixation,jsons/VE125_randls_8.json,http://54.235.29.9/FacialAge/BNav_EC2/DepthDuration/v2_depth_duration_MTurk/v2_DepthDuration_HTML.html#442,442,1707,960,1366,768,8-30-2022,10-25-4,159,depth_duration_stimuli/000470_2014-06-09_19-42-40_260595134347_rgbf000094-resize_1/000470_2014-06-09_19-42-40_260595134347_rgbf000094-resize_1-target.png,125,1.831,1,15283,126,meters,jsons/VE125_randls_8.json,1471943,1693350,25,Man
159,543290,DepthScenes,duration_manipulation_targetAtFixation,jsons/VE125_randls_8.json,http://54.235.29.9/FacialAge/BNav_EC2/DepthDuration/v2_depth_duration_MTurk/v2_DepthDuration_HTML.html#442,442,1707,960,1366,768,8-30-2022,10-25-4,160,depth_duration_stimuli/000109_2014-05-14_23-41-52_260595134347_rgbf000035-resize_9/000109_2014-05-14_23-41-52_260595134347_rgbf000035-resize_9-target.png,125,1.3545,0,3376,125,meters,jsons/VE125_randls_8.json,1471943,1693350,25,Man
160,543290,DepthScenes,duration_manipulation_targetAtFixation,jsons/VE125_randls_8.json,http://54.235.29.9/FacialAge/BNav_EC2/DepthDuration/v2_depth_duration_MTurk/v2_DepthDuration_HTML.html#442,442,1707,960,1366,768,8-30-2022,10-25-4,161,depth_duration_stimuli/002964_2014-06-08_17-46-11_094959634447_rgbf000091-resize_4/002964_2014-06-08_17-46-11_094959634447_rgbf000091-resize_4-target.png,125,1.6909999999999998,1,6029,117,meters,jsons/VE125_randls_8.json,1471943,1693350,25,Man
161,543290,DepthScenes,duration_manipulation_targetAtFixation,jsons/VE125_randls_8.json,http://54.235.29.9/FacialAge/BNav_EC2/DepthDuration/v2_depth_duration_MTurk/v2_DepthDuration_HTML.html#442,442,1707,960,1366,768,8-30-2022,10-25-4,162,depth_duration_stimuli/002136_2014-06-25_21-18-03_260595134347_rgbf000109-resize_3/002136_2014-06-25_21-18-03_260595134347_rgbf000109-resize_3-target.png,125,1.9569999999999999,1,3650,117,meters,jsons/VE125_randls_8.json,1471943,1693350,25,Man
162,543290,DepthScenes,duration_manipulation_targetAtFixation,jsons/VE125_randls_8.json,http://54.235.29.9/FacialAge/BNav_EC2/DepthDuration/v2_depth_duration_MTurk/v2_DepthDuration_HTML.html#442,442,1707,960,1366,768,8-30-2022,10-25-4,163,depth_duration_stimuli/000447_2014-06-08_16-15-46_260595134347_rgbf000130-resize_1/000447_2014-06-08_16-15-46_260595134347_rgbf000130-resize_1-target.png,125,4.479,1,4532,140,meters,jsons/VE125_randls_8.json,1471943,1693350,25,Man
163,543290,DepthScenes,duration_manipulation_targetAtFixation,jsons/VE125_randls_8.json,http://54.235.29.9/FacialAge/BNav_EC2/DepthDuration/v2_depth_duration_MTurk/v2_DepthDuration_HTML.html#442,442,1707,960,1366,768,8-30-2022,10-25-4,164,depth_duration_stimuli/001447_2014-06-19_17-00-32_260595134347_rgbf000082-resize_5/001447_2014-06-19_17-00-32_260595134347_rgbf000082-resize_5-target.png,125,4.13775,1,8577,125,meters,jsons/VE125_randls_8.json,1471943,1693350,25,Man
