,subjID,experimentName,versionName,sequenceName,url,selected_row,windowWidth,windowHeight,screenWidth,screenHeight,startDate,startTime,trial,stimulus,duration,actual_depth,depth_estimate,trial_RT,log_sceneDuration,unitSelection,seq_filepath,experimentTime,totalTime,age,gender
0,545096,DepthScenes,duration_manipulation_targetAtFixation,jsons/v1_VE250_randls_43.json,http://54.235.29.9/FacialAge/BNav_EC2/DepthDuration/v2_depth_duration_MTurk/v2_DepthDuration_HTML.html#47,47,1366,625,1366,768,9-19-2022,17-9-53,1,depth_duration_stimuli/001092_2014-06-15_17-34-58_260595134347_rgbf000171-resize_3/001092_2014-06-15_17-34-58_260595134347_rgbf000171-resize_3-target.png,250,2.6935,25,5271,245,meters,jsons/v1_VE250_randls_43.json,947165,1174466,30,Man
1,545096,DepthScenes,duration_manipulation_targetAtFixation,jsons/v1_VE250_randls_43.json,http://54.235.29.9/FacialAge/BNav_EC2/DepthDuration/v2_depth_duration_MTurk/v2_DepthDuration_HTML.html#47,47,1366,625,1366,768,9-19-2022,17-9-53,2,depth_duration_stimuli/002545_2014-06-24_13-38-53_094959634447_rgbf000080-resize_4/002545_2014-06-24_13-38-53_094959634447_rgbf000080-resize_4-target.png,250,1.9205,23,4400,250,meters,jsons/v1_VE250_randls_43.json,947165,1174466,30,Man
2,545096,DepthScenes,duration_manipulation_targetAtFixation,jsons/v1_VE250_randls_43.json,http://54.235.29.9/FacialAge/BNav_EC2/DepthDuration/v2_depth_duration_MTurk/v2_DepthDuration_HTML.html#47,47,1366,625,1366,768,9-19-2022,17-9-53,3,depth_duration_stimuli/000368_2014-06-09_15-53-01_260595134347_rgbf000155-resize_2/000368_2014-06-09_15-53-01_260595134347_rgbf000155-resize_2-target.png,250,2.4859999999999998,25,5005,242,meters,jsons/v1_VE250_randls_43.json,947165,1174466,30,Man
3,545096,DepthScenes,duration_manipulation_targetAtFixation,jsons/v1_VE250_randls_43.json,http://54.235.29.9/FacialAge/BNav_EC2/DepthDuration/v2_depth_duration_MTurk/v2_DepthDuration_HTML.html#47,47,1366,625,1366,768,9-19-2022,17-9-53,4,depth_duration_stimuli/002678_2014-06-13_16-15-32_094959634447_rgbf000151-resize_6/002678_2014-06-13_16-15-32_094959634447_rgbf000151-resize_6-target.png,250,2.1830000000000003,24,4890,251,meters,jsons/v1_VE250_randls_43.json,947165,1174466,30,Man
4,545096,DepthScenes,duration_manipulation_targetAtFixation,jsons/v1_VE250_randls_43.json,http://54.235.29.9/FacialAge/BNav_EC2/DepthDuration/v2_depth_duration_MTurk/v2_DepthDuration_HTML.html#47,47,1366,625,1366,768,9-19-2022,17-9-53,5,depth_duration_stimuli/001055_2014-06-08_18-45-35_260595134347_rgbf000111-resize_4/001055_2014-06-08_18-45-35_260595134347_rgbf000111-resize_4-target.png,250,2.4290000000000003,26,4656,254,meters,jsons/v1_VE250_randls_43.json,947165,1174466,30,Man
5,545096,DepthScenes,duration_manipulation_targetAtFixation,jsons/v1_VE250_randls_43.json,http://54.235.29.9/FacialAge/BNav_EC2/DepthDuration/v2_depth_duration_MTurk/v2_DepthDuration_HTML.html#47,47,1366,625,1366,768,9-19-2022,17-9-53,6,depth_duration_stimuli/000549_2014-06-08_22-10-24_260595134347_rgbf000247-resize_3/000549_2014-06-08_22-10-24_260595134347_rgbf000247-resize_3-target.png,250,1.841,24,4108,249,meters,jsons/v1_VE250_randls_43.json,947165,1174466,30,Man
6,545096,DepthScenes,duration_manipulation_targetAtFixation,jsons/v1_VE250_randls_43.json,http://54.235.29.9/FacialAge/BNav_EC2/DepthDuration/v2_depth_duration_MTurk/v2_DepthDuration_HTML.html#47,47,1366,625,1366,768,9-19-2022,17-9-53,7,depth_duration_stimuli/000773_2014-06-08_22-24-54_260595134347_rgbf000093-resize_1/000773_2014-06-08_22-24-54_260595134347_rgbf000093-resize_1-target.png,250,4.973,29,4272,254,meters,jsons/v1_VE250_randls_43.json,947165,1174466,30,Man
7,545096,DepthScenes,duration_manipulation_targetAtFixation,jsons/v1_VE250_randls_43.json,http://54.235.29.9/FacialAge/BNav_EC2/DepthDuration/v2_depth_duration_MTurk/v2_DepthDuration_HTML.html#47,47,1366,625,1366,768,9-19-2022,17-9-53,8,depth_duration_stimuli/002414_2014-06-28_20-24-58_260595134347_rgbf000067-resize_4/002414_2014-06-28_20-24-58_260595134347_rgbf000067-resize_4-target.png,250,4.363,25,11157,710,meters,jsons/v1_VE250_randls_43.json,947165,1174466,30,Man
8,545096,DepthScenes,duration_manipulation_targetAtFixation,jsons/v1_VE250_randls_43.json,http://54.235.29.9/FacialAge/BNav_EC2/DepthDuration/v2_depth_duration_MTurk/v2_DepthDuration_HTML.html#47,47,1366,625,1366,768,9-19-2022,17-9-53,9,depth_duration_stimuli/003292_2014-05-14_21-53-49_094959634447_rgbf000100-resize_2/003292_2014-05-14_21-53-49_094959634447_rgbf000100-resize_2-target.png,250,3.4815,26,4636,248,meters,jsons/v1_VE250_randls_43.json,947165,1174466,30,Man
9,545096,DepthScenes,duration_manipulation_targetAtFixation,jsons/v1_VE250_randls_43.json,http://54.235.29.9/FacialAge/BNav_EC2/DepthDuration/v2_depth_duration_MTurk/v2_DepthDuration_HTML.html#47,47,1366,625,1366,768,9-19-2022,17-9-53,10,depth_duration_stimuli/002639_2014-06-24_14-51-37_094959634447_rgbf000074-resize_4/002639_2014-06-24_14-51-37_094959634447_rgbf000074-resize_4-target.png,250,4.0375,24,4794,242,meters,jsons/v1_VE250_randls_43.json,947165,1174466,30,Man
10,545096,DepthScenes,duration_manipulation_targetAtFixation,jsons/v1_VE250_randls_43.json,http://54.235.29.9/FacialAge/BNav_EC2/DepthDuration/v2_depth_duration_MTurk/v2_DepthDuration_HTML.html#47,47,1366,625,1366,768,9-19-2022,17-9-53,11,depth_duration_stimuli/001167_2014-06-17_15-38-07_260595134347_rgbf000108-resize_0/001167_2014-06-17_15-38-07_260595134347_rgbf000108-resize_0-target.png,250,1.8505,29,4495,249,meters,jsons/v1_VE250_randls_43.json,947165,1174466,30,Man
11,545096,DepthScenes,duration_manipulation_targetAtFixation,jsons/v1_VE250_randls_43.json,http://54.235.29.9/FacialAge/BNav_EC2/DepthDuration/v2_depth_duration_MTurk/v2_DepthDuration_HTML.html#47,47,1366,625,1366,768,9-19-2022,17-9-53,12,depth_duration_stimuli/003587_2014-05-23_16-48-02_094959634447_rgbf002384-resize_2/003587_2014-05-23_16-48-02_094959634447_rgbf002384-resize_2-target.png,250,1.357,23,3938,250,meters,jsons/v1_VE250_randls_43.json,947165,1174466,30,Man
12,545096,DepthScenes,duration_manipulation_targetAtFixation,jsons/v1_VE250_randls_43.json,http://54.235.29.9/FacialAge/BNav_EC2/DepthDuration/v2_depth_duration_MTurk/v2_DepthDuration_HTML.html#47,47,1366,625,1366,768,9-19-2022,17-9-53,13,depth_duration_stimuli/000569_2014-06-09_22-51-47_260595134347_rgbf000141-resize_3/000569_2014-06-09_22-51-47_260595134347_rgbf000141-resize-original.jpg,250,4.512,24,4085,246,meters,jsons/v1_VE250_randls_43.json,947165,1174466,30,Man
13,545096,DepthScenes,duration_manipulation_targetAtFixation,jsons/v1_VE250_randls_43.json,http://54.235.29.9/FacialAge/BNav_EC2/DepthDuration/v2_depth_duration_MTurk/v2_DepthDuration_HTML.html#47,47,1366,625,1366,768,9-19-2022,17-9-53,14,depth_duration_stimuli/002748_2014-06-22_19-07-22_094959634447_rgbf000078-resize_1/002748_2014-06-22_19-07-22_094959634447_rgbf000078-resize_1-target.png,250,4.6705,24,3699,257,meters,jsons/v1_VE250_randls_43.json,947165,1174466,30,Man
14,545096,DepthScenes,duration_manipulation_targetAtFixation,jsons/v1_VE250_randls_43.json,http://54.235.29.9/FacialAge/BNav_EC2/DepthDuration/v2_depth_duration_MTurk/v2_DepthDuration_HTML.html#47,47,1366,625,1366,768,9-19-2022,17-9-53,15,depth_duration_stimuli/002995_2014-06-15_12-31-26_094959634447_rgbf000150-resize_1/002995_2014-06-15_12-31-26_094959634447_rgbf000150-resize_1-target.png,250,3.8360000000000003,26,4953,255,meters,jsons/v1_VE250_randls_43.json,947165,1174466,30,Man
15,545096,DepthScenes,duration_manipulation_targetAtFixation,jsons/v1_VE250_randls_43.json,http://54.235.29.9/FacialAge/BNav_EC2/DepthDuration/v2_depth_duration_MTurk/v2_DepthDuration_HTML.html#47,47,1366,625,1366,768,9-19-2022,17-9-53,16,depth_duration_stimuli/000470_2014-06-09_19-42-40_260595134347_rgbf000094-resize_1/000470_2014-06-09_19-42-40_260595134347_rgbf000094-resize_1-target.png,250,1.831,24,4964,246,meters,jsons/v1_VE250_randls_43.json,947165,1174466,30,Man
16,545096,DepthScenes,duration_manipulation_targetAtFixation,jsons/v1_VE250_randls_43.json,http://54.235.29.9/FacialAge/BNav_EC2/DepthDuration/v2_depth_duration_MTurk/v2_DepthDuration_HTML.html#47,47,1366,625,1366,768,9-19-2022,17-9-53,17,depth_duration_stimuli/000109_2014-05-14_23-41-52_260595134347_rgbf000035-resize_9/000109_2014-05-14_23-41-52_260595134347_rgbf000035-resize_9-target.png,250,1.3545,26,3392,250,meters,jsons/v1_VE250_randls_43.json,947165,1174466,30,Man
17,545096,DepthScenes,duration_manipulation_targetAtFixation,jsons/v1_VE250_randls_43.json,http://54.235.29.9/FacialAge/BNav_EC2/DepthDuration/v2_depth_duration_MTurk/v2_DepthDuration_HTML.html#47,47,1366,625,1366,768,9-19-2022,17-9-53,18,depth_duration_stimuli/001810_2014-06-26_20-51-35_260595134347_rgbf000040-resize_3/001810_2014-06-26_20-51-35_260595134347_rgbf000040-resize_3-target.png,250,2.2525,26,14215,249,meters,jsons/v1_VE250_randls_43.json,947165,1174466,30,Man
18,545096,DepthScenes,duration_manipulation_targetAtFixation,jsons/v1_VE250_randls_43.json,http://54.235.29.9/FacialAge/BNav_EC2/DepthDuration/v2_depth_duration_MTurk/v2_DepthDuration_HTML.html#47,47,1366,625,1366,768,9-19-2022,17-9-53,19,depth_duration_stimuli/003010_2014-06-15_12-54-35_094959634447_rgbf000112-resize_0/003010_2014-06-15_12-54-35_094959634447_rgbf000112-resize_0-target.png,250,3.1185,26,4769,247,meters,jsons/v1_VE250_randls_43.json,947165,1174466,30,Man
19,545096,DepthScenes,duration_manipulation_targetAtFixation,jsons/v1_VE250_randls_43.json,http://54.235.29.9/FacialAge/BNav_EC2/DepthDuration/v2_depth_duration_MTurk/v2_DepthDuration_HTML.html#47,47,1366,625,1366,768,9-19-2022,17-9-53,20,depth_duration_stimuli/001808_2014-06-26_20-50-58_260595134347_rgbf000029-resize_1/001808_2014-06-26_20-50-58_260595134347_rgbf000029-resize_1-target.png,250,4.249,27,11090,249,meters,jsons/v1_VE250_randls_43.json,947165,1174466,30,Man
20,545096,DepthScenes,duration_manipulation_targetAtFixation,jsons/v1_VE250_randls_43.json,http://54.235.29.9/FacialAge/BNav_EC2/DepthDuration/v2_depth_duration_MTurk/v2_DepthDuration_HTML.html#47,47,1366,625,1366,768,9-19-2022,17-9-53,21,depth_duration_stimuli/001815_2014-06-26_20-52-55_260595134347_rgbf000020-resize_0/001815_2014-06-26_20-52-55_260595134347_rgbf000020-resize_0-target.png,250,3.3865,26,4021,250,meters,jsons/v1_VE250_randls_43.json,947165,1174466,30,Man
21,545096,DepthScenes,duration_manipulation_targetAtFixation,jsons/v1_VE250_randls_43.json,http://54.235.29.9/FacialAge/BNav_EC2/DepthDuration/v2_depth_duration_MTurk/v2_DepthDuration_HTML.html#47,47,1366,625,1366,768,9-19-2022,17-9-53,22,depth_duration_stimuli/000739_2014-06-08_18-45-58_260595134347_rgbf000068-resize_1/000739_2014-06-08_18-45-58_260595134347_rgbf000068-resize_1-target.png,250,3.534,26,3677,248,meters,jsons/v1_VE250_randls_43.json,947165,1174466,30,Man
22,545096,DepthScenes,duration_manipulation_targetAtFixation,jsons/v1_VE250_randls_43.json,http://54.235.29.9/FacialAge/BNav_EC2/DepthDuration/v2_depth_duration_MTurk/v2_DepthDuration_HTML.html#47,47,1366,625,1366,768,9-19-2022,17-9-53,23,depth_duration_stimuli/000734_2014-06-08_17-39-11_260595134347_rgbf000128-resize_2/000734_2014-06-08_17-39-11_260595134347_rgbf000128-resize_2-target.png,250,4.098,26,3772,252,meters,jsons/v1_VE250_randls_43.json,947165,1174466,30,Man
23,545096,DepthScenes,duration_manipulation_targetAtFixation,jsons/v1_VE250_randls_43.json,http://54.235.29.9/FacialAge/BNav_EC2/DepthDuration/v2_depth_duration_MTurk/v2_DepthDuration_HTML.html#47,47,1366,625,1366,768,9-19-2022,17-9-53,24,depth_duration_stimuli/003621_2014-05-23_18-06-08_094959634447_rgbf000101-resize_1/003621_2014-05-23_18-06-08_094959634447_rgbf000101-resize_1-target.png,250,3.9835,26,3639,254,meters,jsons/v1_VE250_randls_43.json,947165,1174466,30,Man
24,545096,DepthScenes,duration_manipulation_targetAtFixation,jsons/v1_VE250_randls_43.json,http://54.235.29.9/FacialAge/BNav_EC2/DepthDuration/v2_depth_duration_MTurk/v2_DepthDuration_HTML.html#47,47,1366,625,1366,768,9-19-2022,17-9-53,25,depth_duration_stimuli/001584_2014-06-20_11-07-43_260595134347_rgbf000002-resize_1/001584_2014-06-20_11-07-43_260595134347_rgbf000002-resize_1-target.png,250,3.53,26,4121,241,meters,jsons/v1_VE250_randls_43.json,947165,1174466,30,Man
25,545096,DepthScenes,duration_manipulation_targetAtFixation,jsons/v1_VE250_randls_43.json,http://54.235.29.9/FacialAge/BNav_EC2/DepthDuration/v2_depth_duration_MTurk/v2_DepthDuration_HTML.html#47,47,1366,625,1366,768,9-19-2022,17-9-53,26,depth_duration_stimuli/003070_2014-06-15_14-58-27_094959634447_rgbf000150-resize_3/003070_2014-06-15_14-58-27_094959634447_rgbf000150-resize_3-target.png,250,2.9415,25,4202,249,meters,jsons/v1_VE250_randls_43.json,947165,1174466,30,Man
26,545096,DepthScenes,duration_manipulation_targetAtFixation,jsons/v1_VE250_randls_43.json,http://54.235.29.9/FacialAge/BNav_EC2/DepthDuration/v2_depth_duration_MTurk/v2_DepthDuration_HTML.html#47,47,1366,625,1366,768,9-19-2022,17-9-53,27,depth_duration_stimuli/000943_2014-06-09_19-31-07_260595134347_rgbf000128-resize_1/000943_2014-06-09_19-31-07_260595134347_rgbf000128-resize_1-target.png,250,1.9765,26,3870,247,meters,jsons/v1_VE250_randls_43.json,947165,1174466,30,Man
27,545096,DepthScenes,duration_manipulation_targetAtFixation,jsons/v1_VE250_randls_43.json,http://54.235.29.9/FacialAge/BNav_EC2/DepthDuration/v2_depth_duration_MTurk/v2_DepthDuration_HTML.html#47,47,1366,625,1366,768,9-19-2022,17-9-53,28,depth_duration_stimuli/001029_2014-06-08_13-17-57_260595134347_rgbf000065-resize_1/001029_2014-06-08_13-17-57_260595134347_rgbf000065-resize_1-target.png,250,3.0835,26,3976,250,meters,jsons/v1_VE250_randls_43.json,947165,1174466,30,Man
28,545096,DepthScenes,duration_manipulation_targetAtFixation,jsons/v1_VE250_randls_43.json,http://54.235.29.9/FacialAge/BNav_EC2/DepthDuration/v2_depth_duration_MTurk/v2_DepthDuration_HTML.html#47,47,1366,625,1366,768,9-19-2022,17-9-53,29,depth_duration_stimuli/000677_2014-06-08_23-10-32_260595134347_rgbf000158-resize_6/000677_2014-06-08_23-10-32_260595134347_rgbf000158-resize_6-target.png,250,3.556,24,4158,240,meters,jsons/v1_VE250_randls_43.json,947165,1174466,30,Man
29,545096,DepthScenes,duration_manipulation_targetAtFixation,jsons/v1_VE250_randls_43.json,http://54.235.29.9/FacialAge/BNav_EC2/DepthDuration/v2_depth_duration_MTurk/v2_DepthDuration_HTML.html#47,47,1366,625,1366,768,9-19-2022,17-9-53,30,depth_duration_stimuli/000375_2014-06-08_11-17-29_260595134347_rgbf000133-resize_2/000375_2014-06-08_11-17-29_260595134347_rgbf000133-resize-original.jpg,250,4.718,26,5354,246,meters,jsons/v1_VE250_randls_43.json,947165,1174466,30,Man
30,545096,DepthScenes,duration_manipulation_targetAtFixation,jsons/v1_VE250_randls_43.json,http://54.235.29.9/FacialAge/BNav_EC2/DepthDuration/v2_depth_duration_MTurk/v2_DepthDuration_HTML.html#47,47,1366,625,1366,768,9-19-2022,17-9-53,31,depth_duration_stimuli/000878_2014-06-08_22-52-45_260595134347_rgbf000045-resize_2/000878_2014-06-08_22-52-45_260595134347_rgbf000045-resize_2-target.png,250,2.092,26,4107,250,meters,jsons/v1_VE250_randls_43.json,947165,1174466,30,Man
31,545096,DepthScenes,duration_manipulation_targetAtFixation,jsons/v1_VE250_randls_43.json,http://54.235.29.9/FacialAge/BNav_EC2/DepthDuration/v2_depth_duration_MTurk/v2_DepthDuration_HTML.html#47,47,1366,625,1366,768,9-19-2022,17-9-53,32,depth_duration_stimuli/002953_2014-06-08_17-32-18_094959634447_rgbf000059-resize_5/002953_2014-06-08_17-32-18_094959634447_rgbf000059-resize_5-target.png,250,1.551,29,3679,242,meters,jsons/v1_VE250_randls_43.json,947165,1174466,30,Man
32,545096,DepthScenes,duration_manipulation_targetAtFixation,jsons/v1_VE250_randls_43.json,http://54.235.29.9/FacialAge/BNav_EC2/DepthDuration/v2_depth_duration_MTurk/v2_DepthDuration_HTML.html#47,47,1366,625,1366,768,9-19-2022,17-9-53,33,depth_duration_stimuli/002663_2014-06-13_15-50-26_094959634447_rgbf000075-resize_1/002663_2014-06-13_15-50-26_094959634447_rgbf000075-resize_1-target.png,250,4.7495,26,4015,252,meters,jsons/v1_VE250_randls_43.json,947165,1174466,30,Man
33,545096,DepthScenes,duration_manipulation_targetAtFixation,jsons/v1_VE250_randls_43.json,http://54.235.29.9/FacialAge/BNav_EC2/DepthDuration/v2_depth_duration_MTurk/v2_DepthDuration_HTML.html#47,47,1366,625,1366,768,9-19-2022,17-9-53,34,depth_duration_stimuli/000409_2014-06-04_19-23-33_260595134347_rgbf000067-resize_0/000409_2014-06-04_19-23-33_260595134347_rgbf000067-resize_0-target.png,250,3.7335,25,4577,250,meters,jsons/v1_VE250_randls_43.json,947165,1174466,30,Man
34,545096,DepthScenes,duration_manipulation_targetAtFixation,jsons/v1_VE250_randls_43.json,http://54.235.29.9/FacialAge/BNav_EC2/DepthDuration/v2_depth_duration_MTurk/v2_DepthDuration_HTML.html#47,47,1366,625,1366,768,9-19-2022,17-9-53,35,depth_duration_stimuli/000929_2014-06-09_16-33-19_260595134347_rgbf000139-resize_0/000929_2014-06-09_16-33-19_260595134347_rgbf000139-resize_0-target.png,250,2.8680000000000003,26,31980,252,meters,jsons/v1_VE250_randls_43.json,947165,1174466,30,Man
35,545096,DepthScenes,duration_manipulation_targetAtFixation,jsons/v1_VE250_randls_43.json,http://54.235.29.9/FacialAge/BNav_EC2/DepthDuration/v2_depth_duration_MTurk/v2_DepthDuration_HTML.html#47,47,1366,625,1366,768,9-19-2022,17-9-53,36,depth_duration_stimuli/000457_2014-06-08_16-52-43_260595134347_rgbf000199-resize_1/000457_2014-06-08_16-52-43_260595134347_rgbf000199-resize_1-target.png,250,3.6489999999999996,25,3783,250,meters,jsons/v1_VE250_randls_43.json,947165,1174466,30,Man
36,545096,DepthScenes,duration_manipulation_targetAtFixation,jsons/v1_VE250_randls_43.json,http://54.235.29.9/FacialAge/BNav_EC2/DepthDuration/v2_depth_duration_MTurk/v2_DepthDuration_HTML.html#47,47,1366,625,1366,768,9-19-2022,17-9-53,37,depth_duration_stimuli/002549_2014-06-24_13-41-39_094959634447_rgbf000022-resize_3/002549_2014-06-24_13-41-39_094959634447_rgbf000022-resize_3-target.png,250,1.476,29,3818,249,meters,jsons/v1_VE250_randls_43.json,947165,1174466,30,Man
37,545096,DepthScenes,duration_manipulation_targetAtFixation,jsons/v1_VE250_randls_43.json,http://54.235.29.9/FacialAge/BNav_EC2/DepthDuration/v2_depth_duration_MTurk/v2_DepthDuration_HTML.html#47,47,1366,625,1366,768,9-19-2022,17-9-53,38,depth_duration_stimuli/002750_2014-06-22_19-08-03_094959634447_rgbf000094-resize_4/002750_2014-06-22_19-08-03_094959634447_rgbf000094-resize_4-target.png,250,2.354,25,3777,250,meters,jsons/v1_VE250_randls_43.json,947165,1174466,30,Man
38,545096,DepthScenes,duration_manipulation_targetAtFixation,jsons/v1_VE250_randls_43.json,http://54.235.29.9/FacialAge/BNav_EC2/DepthDuration/v2_depth_duration_MTurk/v2_DepthDuration_HTML.html#47,47,1366,625,1366,768,9-19-2022,17-9-53,39,depth_duration_stimuli/000906_2014-06-08_13-35-43_260595134347_rgbf000155-resize_1/000906_2014-06-08_13-35-43_260595134347_rgbf000155-resize_1-target.png,250,2.8489999999999998,29,4157,251,meters,jsons/v1_VE250_randls_43.json,947165,1174466,30,Man
39,545096,DepthScenes,duration_manipulation_targetAtFixation,jsons/v1_VE250_randls_43.json,http://54.235.29.9/FacialAge/BNav_EC2/DepthDuration/v2_depth_duration_MTurk/v2_DepthDuration_HTML.html#47,47,1366,625,1366,768,9-19-2022,17-9-53,40,depth_duration_stimuli/002805_2014-06-22_19-54-03_094959634447_rgbf000079-resize_1/002805_2014-06-22_19-54-03_094959634447_rgbf000079-resize_1-target.png,250,3.1439999999999997,26,3839,241,meters,jsons/v1_VE250_randls_43.json,947165,1174466,30,Man
40,545096,DepthScenes,duration_manipulation_targetAtFixation,jsons/v1_VE250_randls_43.json,http://54.235.29.9/FacialAge/BNav_EC2/DepthDuration/v2_depth_duration_MTurk/v2_DepthDuration_HTML.html#47,47,1366,625,1366,768,9-19-2022,17-9-53,41,depth_duration_stimuli/000642_2014-06-08_16-59-25_260595134347_rgbf000098-resize_2/000642_2014-06-08_16-59-25_260595134347_rgbf000098-resize_2-target.png,250,2.8815,25,3742,233,meters,jsons/v1_VE250_randls_43.json,947165,1174466,30,Man
41,545096,DepthScenes,duration_manipulation_targetAtFixation,jsons/v1_VE250_randls_43.json,http://54.235.29.9/FacialAge/BNav_EC2/DepthDuration/v2_depth_duration_MTurk/v2_DepthDuration_HTML.html#47,47,1366,625,1366,768,9-19-2022,17-9-53,42,depth_duration_stimuli/002425_2014-06-28_20-27-29_260595134347_rgbf000031-resize_8/002425_2014-06-28_20-27-29_260595134347_rgbf000031-resize_8-target.png,250,3.8960000000000004,26,3988,249,meters,jsons/v1_VE250_randls_43.json,947165,1174466,30,Man
42,545096,DepthScenes,duration_manipulation_targetAtFixation,jsons/v1_VE250_randls_43.json,http://54.235.29.9/FacialAge/BNav_EC2/DepthDuration/v2_depth_duration_MTurk/v2_DepthDuration_HTML.html#47,47,1366,625,1366,768,9-19-2022,17-9-53,43,depth_duration_stimuli/002445_2014-06-28_20-32-16_260595134347_rgbf000029-resize_4/002445_2014-06-28_20-32-16_260595134347_rgbf000029-resize_4-target.png,250,2.5315,26,5491,251,meters,jsons/v1_VE250_randls_43.json,947165,1174466,30,Man
43,545096,DepthScenes,duration_manipulation_targetAtFixation,jsons/v1_VE250_randls_43.json,http://54.235.29.9/FacialAge/BNav_EC2/DepthDuration/v2_depth_duration_MTurk/v2_DepthDuration_HTML.html#47,47,1366,625,1366,768,9-19-2022,17-9-53,44,depth_duration_stimuli/000780_2014-06-08_22-28-29_260595134347_rgbf000126-resize_1/000780_2014-06-08_22-28-29_260595134347_rgbf000126-resize_1-target.png,250,3.3825,25,3817,247,meters,jsons/v1_VE250_randls_43.json,947165,1174466,30,Man
44,545096,DepthScenes,duration_manipulation_targetAtFixation,jsons/v1_VE250_randls_43.json,http://54.235.29.9/FacialAge/BNav_EC2/DepthDuration/v2_depth_duration_MTurk/v2_DepthDuration_HTML.html#47,47,1366,625,1366,768,9-19-2022,17-9-53,45,depth_duration_stimuli/000787_2014-06-08_22-33-53_260595134347_rgbf000175-resize_1/000787_2014-06-08_22-33-53_260595134347_rgbf000175-resize-original.jpg,250,4.784,26,3805,245,meters,jsons/v1_VE250_randls_43.json,947165,1174466,30,Man
45,545096,DepthScenes,duration_manipulation_targetAtFixation,jsons/v1_VE250_randls_43.json,http://54.235.29.9/FacialAge/BNav_EC2/DepthDuration/v2_depth_duration_MTurk/v2_DepthDuration_HTML.html#47,47,1366,625,1366,768,9-19-2022,17-9-53,46,depth_duration_stimuli/002057_2014-06-24_21-00-13_260595134347_rgbf000120-resize_1/002057_2014-06-24_21-00-13_260595134347_rgbf000120-resize_1-target.png,250,2.967,26,4035,249,meters,jsons/v1_VE250_randls_43.json,947165,1174466,30,Man
46,545096,DepthScenes,duration_manipulation_targetAtFixation,jsons/v1_VE250_randls_43.json,http://54.235.29.9/FacialAge/BNav_EC2/DepthDuration/v2_depth_duration_MTurk/v2_DepthDuration_HTML.html#47,47,1366,625,1366,768,9-19-2022,17-9-53,47,depth_duration_stimuli/000709_2014-06-08_13-51-55_260595134347_rgbf000068-resize_3/000709_2014-06-08_13-51-55_260595134347_rgbf000068-resize_3-target.png,250,1.8030000000000002,24,3928,235,meters,jsons/v1_VE250_randls_43.json,947165,1174466,30,Man
47,545096,DepthScenes,duration_manipulation_targetAtFixation,jsons/v1_VE250_randls_43.json,http://54.235.29.9/FacialAge/BNav_EC2/DepthDuration/v2_depth_duration_MTurk/v2_DepthDuration_HTML.html#47,47,1366,625,1366,768,9-19-2022,17-9-53,48,depth_duration_stimuli/000447_2014-06-08_16-15-46_260595134347_rgbf000130-resize_1/000447_2014-06-08_16-15-46_260595134347_rgbf000130-resize_1-target.png,250,4.479,25,3802,252,meters,jsons/v1_VE250_randls_43.json,947165,1174466,30,Man
48,545096,DepthScenes,duration_manipulation_targetAtFixation,jsons/v1_VE250_randls_43.json,http://54.235.29.9/FacialAge/BNav_EC2/DepthDuration/v2_depth_duration_MTurk/v2_DepthDuration_HTML.html#47,47,1366,625,1366,768,9-19-2022,17-9-53,49,depth_duration_stimuli/001447_2014-06-19_17-00-32_260595134347_rgbf000082-resize_5/001447_2014-06-19_17-00-32_260595134347_rgbf000082-resize_5-target.png,250,4.13775,26,4116,258,meters,jsons/v1_VE250_randls_43.json,947165,1174466,30,Man
49,545096,DepthScenes,duration_manipulation_targetAtFixation,jsons/v1_VE250_randls_43.json,http://54.235.29.9/FacialAge/BNav_EC2/DepthDuration/v2_depth_duration_MTurk/v2_DepthDuration_HTML.html#47,47,1366,625,1366,768,9-19-2022,17-9-53,50,depth_duration_stimuli/002988_2014-06-15_12-24-20_094959634447_rgbf000150-resize_1/002988_2014-06-15_12-24-20_094959634447_rgbf000150-resize_1-target.png,250,4.7669999999999995,28,3927,252,meters,jsons/v1_VE250_randls_43.json,947165,1174466,30,Man
50,545096,DepthScenes,duration_manipulation_targetAtFixation,jsons/v1_VE250_randls_43.json,http://54.235.29.9/FacialAge/BNav_EC2/DepthDuration/v2_depth_duration_MTurk/v2_DepthDuration_HTML.html#47,47,1366,625,1366,768,9-19-2022,17-9-53,51,depth_duration_stimuli/001052_2014-06-08_18-24-54_260595134347_rgbf000130-resize_1/001052_2014-06-08_18-24-54_260595134347_rgbf000130-resize_1-target.png,250,4.1045,26,3508,247,meters,jsons/v1_VE250_randls_43.json,947165,1174466,30,Man
51,545096,DepthScenes,duration_manipulation_targetAtFixation,jsons/v1_VE250_randls_43.json,http://54.235.29.9/FacialAge/BNav_EC2/DepthDuration/v2_depth_duration_MTurk/v2_DepthDuration_HTML.html#47,47,1366,625,1366,768,9-19-2022,17-9-53,52,depth_duration_stimuli/002153_2014-06-25_21-27-18_260595134347_rgbf000038-resize_5/002153_2014-06-25_21-27-18_260595134347_rgbf000038-resize_5-target.png,250,2.505,28,3882,249,meters,jsons/v1_VE250_randls_43.json,947165,1174466,30,Man
52,545096,DepthScenes,duration_manipulation_targetAtFixation,jsons/v1_VE250_randls_43.json,http://54.235.29.9/FacialAge/BNav_EC2/DepthDuration/v2_depth_duration_MTurk/v2_DepthDuration_HTML.html#47,47,1366,625,1366,768,9-19-2022,17-9-53,53,depth_duration_stimuli/002660_2014-06-13_15-44-18_094959634447_rgbf001878-resize_2/002660_2014-06-13_15-44-18_094959634447_rgbf001878-resize_2-target.png,250,3.576,26,3754,250,meters,jsons/v1_VE250_randls_43.json,947165,1174466,30,Man
53,545096,DepthScenes,duration_manipulation_targetAtFixation,jsons/v1_VE250_randls_43.json,http://54.235.29.9/FacialAge/BNav_EC2/DepthDuration/v2_depth_duration_MTurk/v2_DepthDuration_HTML.html#47,47,1366,625,1366,768,9-19-2022,17-9-53,54,depth_duration_stimuli/001150_2014-06-17_15-27-34_260595134347_rgbf000108-resize_2/001150_2014-06-17_15-27-34_260595134347_rgbf000108-resize_2-target.png,250,4.0325,28,3828,250,meters,jsons/v1_VE250_randls_43.json,947165,1174466,30,Man
54,545096,DepthScenes,duration_manipulation_targetAtFixation,jsons/v1_VE250_randls_43.json,http://54.235.29.9/FacialAge/BNav_EC2/DepthDuration/v2_depth_duration_MTurk/v2_DepthDuration_HTML.html#47,47,1366,625,1366,768,9-19-2022,17-9-53,55,depth_duration_stimuli/000665_2014-06-09_20-42-35_260595134347_rgbf000110-resize_1/000665_2014-06-09_20-42-35_260595134347_rgbf000110-resize_1-target.png,250,3.057,29,3375,260,meters,jsons/v1_VE250_randls_43.json,947165,1174466,30,Man
55,545096,DepthScenes,duration_manipulation_targetAtFixation,jsons/v1_VE250_randls_43.json,http://54.235.29.9/FacialAge/BNav_EC2/DepthDuration/v2_depth_duration_MTurk/v2_DepthDuration_HTML.html#47,47,1366,625,1366,768,9-19-2022,17-9-53,56,depth_duration_stimuli/001056_2014-06-08_18-46-44_260595134347_rgbf000068-resize_0/001056_2014-06-08_18-46-44_260595134347_rgbf000068-resize_0-target.png,250,2.6625,26,6040,244,meters,jsons/v1_VE250_randls_43.json,947165,1174466,30,Man
56,545096,DepthScenes,duration_manipulation_targetAtFixation,jsons/v1_VE250_randls_43.json,http://54.235.29.9/FacialAge/BNav_EC2/DepthDuration/v2_depth_duration_MTurk/v2_DepthDuration_HTML.html#47,47,1366,625,1366,768,9-19-2022,17-9-53,57,depth_duration_stimuli/002199_2014-06-28_18-33-56_260595134347_rgbf000074-resize_0/002199_2014-06-28_18-33-56_260595134347_rgbf000074-resize_0-target.png,250,1.996,26,3606,239,meters,jsons/v1_VE250_randls_43.json,947165,1174466,30,Man
57,545096,DepthScenes,duration_manipulation_targetAtFixation,jsons/v1_VE250_randls_43.json,http://54.235.29.9/FacialAge/BNav_EC2/DepthDuration/v2_depth_duration_MTurk/v2_DepthDuration_HTML.html#47,47,1366,625,1366,768,9-19-2022,17-9-53,58,depth_duration_stimuli/002784_2014-06-22_19-26-30_094959634447_rgbf000083-resize_3/002784_2014-06-22_19-26-30_094959634447_rgbf000083-resize_3-target.png,250,1.8046666666667,26,4016,249,meters,jsons/v1_VE250_randls_43.json,947165,1174466,30,Man
58,545096,DepthScenes,duration_manipulation_targetAtFixation,jsons/v1_VE250_randls_43.json,http://54.235.29.9/FacialAge/BNav_EC2/DepthDuration/v2_depth_duration_MTurk/v2_DepthDuration_HTML.html#47,47,1366,625,1366,768,9-19-2022,17-9-53,59,depth_duration_stimuli/001100_2014-06-15_17-46-26_260595134347_rgbf000225-resize_2/001100_2014-06-15_17-46-26_260595134347_rgbf000225-resize_2-target.png,250,2.24,28,3861,252,meters,jsons/v1_VE250_randls_43.json,947165,1174466,30,Man
59,545096,DepthScenes,duration_manipulation_targetAtFixation,jsons/v1_VE250_randls_43.json,http://54.235.29.9/FacialAge/BNav_EC2/DepthDuration/v2_depth_duration_MTurk/v2_DepthDuration_HTML.html#47,47,1366,625,1366,768,9-19-2022,17-9-53,60,depth_duration_stimuli/002213_2014-06-28_18-37-58_260595134347_rgbf000055-resize_1/002213_2014-06-28_18-37-58_260595134347_rgbf000055-resize_1-target.png,250,3.62,29,3442,254,meters,jsons/v1_VE250_randls_43.json,947165,1174466,30,Man
60,545096,DepthScenes,duration_manipulation_targetAtFixation,jsons/v1_VE250_randls_43.json,http://54.235.29.9/FacialAge/BNav_EC2/DepthDuration/v2_depth_duration_MTurk/v2_DepthDuration_HTML.html#47,47,1366,625,1366,768,9-19-2022,17-9-53,61,depth_duration_stimuli/000691_2014-06-08_13-08-50_260595134347_rgbf000132-resize_3/000691_2014-06-08_13-08-50_260595134347_rgbf000132-resize_3-target.png,250,4.1530000000000005,28,3464,249,meters,jsons/v1_VE250_randls_43.json,947165,1174466,30,Man
61,545096,DepthScenes,duration_manipulation_targetAtFixation,jsons/v1_VE250_randls_43.json,http://54.235.29.9/FacialAge/BNav_EC2/DepthDuration/v2_depth_duration_MTurk/v2_DepthDuration_HTML.html#47,47,1366,625,1366,768,9-19-2022,17-9-53,62,depth_duration_stimuli/000414_2014-06-04_19-49-13_260595134347_rgbf000044-resize_0/000414_2014-06-04_19-49-13_260595134347_rgbf000044-resize_0-target.png,250,4.329,24,3725,248,meters,jsons/v1_VE250_randls_43.json,947165,1174466,30,Man
62,545096,DepthScenes,duration_manipulation_targetAtFixation,jsons/v1_VE250_randls_43.json,http://54.235.29.9/FacialAge/BNav_EC2/DepthDuration/v2_depth_duration_MTurk/v2_DepthDuration_HTML.html#47,47,1366,625,1366,768,9-19-2022,17-9-53,63,depth_duration_stimuli/003129_2014-05-12_10-48-10_094959634447_rgbf000100-resize_0/003129_2014-05-12_10-48-10_094959634447_rgbf000100-resize_0-target.png,250,4.9305,25,4225,247,meters,jsons/v1_VE250_randls_43.json,947165,1174466,30,Man
63,545096,DepthScenes,duration_manipulation_targetAtFixation,jsons/v1_VE250_randls_43.json,http://54.235.29.9/FacialAge/BNav_EC2/DepthDuration/v2_depth_duration_MTurk/v2_DepthDuration_HTML.html#47,47,1366,625,1366,768,9-19-2022,17-9-53,64,depth_duration_stimuli/002905_2014-06-03_18-04-43_094959634447_rgbf000151-resize_2/002905_2014-06-03_18-04-43_094959634447_rgbf000151-resize_2-target.png,250,2.0295,26,5569,249,meters,jsons/v1_VE250_randls_43.json,947165,1174466,30,Man
64,545096,DepthScenes,duration_manipulation_targetAtFixation,jsons/v1_VE250_randls_43.json,http://54.235.29.9/FacialAge/BNav_EC2/DepthDuration/v2_depth_duration_MTurk/v2_DepthDuration_HTML.html#47,47,1366,625,1366,768,9-19-2022,17-9-53,65,depth_duration_stimuli/003423_2014-05-21_10-23-26_094959634447_rgbf002665-resize_2/003423_2014-05-21_10-23-26_094959634447_rgbf002665-resize_2-target.png,250,3.2575,27,3725,249,meters,jsons/v1_VE250_randls_43.json,947165,1174466,30,Man
65,545096,DepthScenes,duration_manipulation_targetAtFixation,jsons/v1_VE250_randls_43.json,http://54.235.29.9/FacialAge/BNav_EC2/DepthDuration/v2_depth_duration_MTurk/v2_DepthDuration_HTML.html#47,47,1366,625,1366,768,9-19-2022,17-9-53,66,depth_duration_stimuli/001222_2014-06-17_16-24-06_260595134347_rgbf000073-resize_0/001222_2014-06-17_16-24-06_260595134347_rgbf000073-resize-original.jpg,250,1.4385,26,3877,240,meters,jsons/v1_VE250_randls_43.json,947165,1174466,30,Man
66,545096,DepthScenes,duration_manipulation_targetAtFixation,jsons/v1_VE250_randls_43.json,http://54.235.29.9/FacialAge/BNav_EC2/DepthDuration/v2_depth_duration_MTurk/v2_DepthDuration_HTML.html#47,47,1366,625,1366,768,9-19-2022,17-9-53,67,depth_duration_stimuli/002272_2014-06-28_18-53-56_260595134347_rgbf000067-resize_2/002272_2014-06-28_18-53-56_260595134347_rgbf000067-resize_2-target.png,250,1.138,24,3768,250,meters,jsons/v1_VE250_randls_43.json,947165,1174466,30,Man
67,545096,DepthScenes,duration_manipulation_targetAtFixation,jsons/v1_VE250_randls_43.json,http://54.235.29.9/FacialAge/BNav_EC2/DepthDuration/v2_depth_duration_MTurk/v2_DepthDuration_HTML.html#47,47,1366,625,1366,768,9-19-2022,17-9-53,68,depth_duration_stimuli/001571_2014-06-20_17-21-32_260595134347_rgbf000089-resize_1/001571_2014-06-20_17-21-32_260595134347_rgbf000089-resize_1-target.png,250,1.86,28,3765,249,meters,jsons/v1_VE250_randls_43.json,947165,1174466,30,Man
68,545096,DepthScenes,duration_manipulation_targetAtFixation,jsons/v1_VE250_randls_43.json,http://54.235.29.9/FacialAge/BNav_EC2/DepthDuration/v2_depth_duration_MTurk/v2_DepthDuration_HTML.html#47,47,1366,625,1366,768,9-19-2022,17-9-53,69,depth_duration_stimuli/002118_2014-06-25_20-32-08_260595134347_rgbf000078-resize_1/002118_2014-06-25_20-32-08_260595134347_rgbf000078-resize_1-target.png,250,2.6460000000000004,29,3782,249,meters,jsons/v1_VE250_randls_43.json,947165,1174466,30,Man
69,545096,DepthScenes,duration_manipulation_targetAtFixation,jsons/v1_VE250_randls_43.json,http://54.235.29.9/FacialAge/BNav_EC2/DepthDuration/v2_depth_duration_MTurk/v2_DepthDuration_HTML.html#47,47,1366,625,1366,768,9-19-2022,17-9-53,70,depth_duration_stimuli/001516_2014-06-20_16-25-09_260595134347_rgbf000076-resize_2/001516_2014-06-20_16-25-09_260595134347_rgbf000076-resize_2-target.png,250,1.7445,28,3589,249,meters,jsons/v1_VE250_randls_43.json,947165,1174466,30,Man
70,545096,DepthScenes,duration_manipulation_targetAtFixation,jsons/v1_VE250_randls_43.json,http://54.235.29.9/FacialAge/BNav_EC2/DepthDuration/v2_depth_duration_MTurk/v2_DepthDuration_HTML.html#47,47,1366,625,1366,768,9-19-2022,17-9-53,71,depth_duration_stimuli/002763_2014-06-22_19-13-10_094959634447_rgbf000075-resize_4/002763_2014-06-22_19-13-10_094959634447_rgbf000075-resize_4-target.png,250,1.68375,29,5272,243,meters,jsons/v1_VE250_randls_43.json,947165,1174466,30,Man
71,545096,DepthScenes,duration_manipulation_targetAtFixation,jsons/v1_VE250_randls_43.json,http://54.235.29.9/FacialAge/BNav_EC2/DepthDuration/v2_depth_duration_MTurk/v2_DepthDuration_HTML.html#47,47,1366,625,1366,768,9-19-2022,17-9-53,72,depth_duration_stimuli/002209_2014-06-28_18-36-10_260595134347_rgbf000051-resize_1/002209_2014-06-28_18-36-10_260595134347_rgbf000051-resize_1-target.png,250,2.057,26,4163,248,meters,jsons/v1_VE250_randls_43.json,947165,1174466,30,Man
72,545096,DepthScenes,duration_manipulation_targetAtFixation,jsons/v1_VE250_randls_43.json,http://54.235.29.9/FacialAge/BNav_EC2/DepthDuration/v2_depth_duration_MTurk/v2_DepthDuration_HTML.html#47,47,1366,625,1366,768,9-19-2022,17-9-53,73,depth_duration_stimuli/001570_2014-06-20_17-21-09_260595134347_rgbf000135-resize_4/001570_2014-06-20_17-21-09_260595134347_rgbf000135-resize_4-target.png,250,4.467,28,4430,249,meters,jsons/v1_VE250_randls_43.json,947165,1174466,30,Man
73,545096,DepthScenes,duration_manipulation_targetAtFixation,jsons/v1_VE250_randls_43.json,http://54.235.29.9/FacialAge/BNav_EC2/DepthDuration/v2_depth_duration_MTurk/v2_DepthDuration_HTML.html#47,47,1366,625,1366,768,9-19-2022,17-9-53,74,depth_duration_stimuli/001392_2014-06-19_16-07-59_260595134347_rgbf000046-resize_1/001392_2014-06-19_16-07-59_260595134347_rgbf000046-resize_1-target.png,250,4.135,26,3502,251,meters,jsons/v1_VE250_randls_43.json,947165,1174466,30,Man
74,545096,DepthScenes,duration_manipulation_targetAtFixation,jsons/v1_VE250_randls_43.json,http://54.235.29.9/FacialAge/BNav_EC2/DepthDuration/v2_depth_duration_MTurk/v2_DepthDuration_HTML.html#47,47,1366,625,1366,768,9-19-2022,17-9-53,75,depth_duration_stimuli/002509_2014-06-24_13-19-22_094959634447_rgbf000077-resize_0/002509_2014-06-24_13-19-22_094959634447_rgbf000077-resize_0-target.png,250,1.3065,26,3599,249,meters,jsons/v1_VE250_randls_43.json,947165,1174466,30,Man
75,545096,DepthScenes,duration_manipulation_targetAtFixation,jsons/v1_VE250_randls_43.json,http://54.235.29.9/FacialAge/BNav_EC2/DepthDuration/v2_depth_duration_MTurk/v2_DepthDuration_HTML.html#47,47,1366,625,1366,768,9-19-2022,17-9-53,76,depth_duration_stimuli/003338_2014-05-20_11-01-23_094959634447_rgbf000051-resize_6/003338_2014-05-20_11-01-23_094959634447_rgbf000051-resize_6-target.png,250,1.693,26,3915,253,meters,jsons/v1_VE250_randls_43.json,947165,1174466,30,Man
76,545096,DepthScenes,duration_manipulation_targetAtFixation,jsons/v1_VE250_randls_43.json,http://54.235.29.9/FacialAge/BNav_EC2/DepthDuration/v2_depth_duration_MTurk/v2_DepthDuration_HTML.html#47,47,1366,625,1366,768,9-19-2022,17-9-53,77,depth_duration_stimuli/000682_2014-06-08_23-14-58_260595134347_rgbf000041-resize_5/000682_2014-06-08_23-14-58_260595134347_rgbf000041-resize_5-target.png,250,2.7239999999999998,25,4140,253,meters,jsons/v1_VE250_randls_43.json,947165,1174466,30,Man
77,545096,DepthScenes,duration_manipulation_targetAtFixation,jsons/v1_VE250_randls_43.json,http://54.235.29.9/FacialAge/BNav_EC2/DepthDuration/v2_depth_duration_MTurk/v2_DepthDuration_HTML.html#47,47,1366,625,1366,768,9-19-2022,17-9-53,78,depth_duration_stimuli/001650_2014-06-20_12-09-00_260595134347_rgbf000087-resize_3/001650_2014-06-20_12-09-00_260595134347_rgbf000087-resize_3-target.png,250,1.9505,26,5781,249,meters,jsons/v1_VE250_randls_43.json,947165,1174466,30,Man
78,545096,DepthScenes,duration_manipulation_targetAtFixation,jsons/v1_VE250_randls_43.json,http://54.235.29.9/FacialAge/BNav_EC2/DepthDuration/v2_depth_duration_MTurk/v2_DepthDuration_HTML.html#47,47,1366,625,1366,768,9-19-2022,17-9-53,79,depth_duration_stimuli/001066_2014-06-08_22-03-20_260595134347_rgbf000066-resize_4/001066_2014-06-08_22-03-20_260595134347_rgbf000066-resize_4-target.png,250,4.2330000000000005,26,6419,252,meters,jsons/v1_VE250_randls_43.json,947165,1174466,30,Man
79,545096,DepthScenes,duration_manipulation_targetAtFixation,jsons/v1_VE250_randls_43.json,http://54.235.29.9/FacialAge/BNav_EC2/DepthDuration/v2_depth_duration_MTurk/v2_DepthDuration_HTML.html#47,47,1366,625,1366,768,9-19-2022,17-9-53,80,depth_duration_stimuli/000742_2014-06-08_18-48-09_260595134347_rgbf000164-resize_4/000742_2014-06-08_18-48-09_260595134347_rgbf000164-resize_4-target.png,250,4.632,28,3566,240,meters,jsons/v1_VE250_randls_43.json,947165,1174466,30,Man
80,545096,DepthScenes,duration_manipulation_targetAtFixation,jsons/v1_VE250_randls_43.json,http://54.235.29.9/FacialAge/BNav_EC2/DepthDuration/v2_depth_duration_MTurk/v2_DepthDuration_HTML.html#47,47,1366,625,1366,768,9-19-2022,17-9-53,81,depth_duration_stimuli/002989_2014-06-15_12-25-03_094959634447_rgbf000150-resize_3/002989_2014-06-15_12-25-03_094959634447_rgbf000150-resize_3-target.png,250,4.1975,26,5014,239,meters,jsons/v1_VE250_randls_43.json,947165,1174466,30,Man
81,545096,DepthScenes,duration_manipulation_targetAtFixation,jsons/v1_VE250_randls_43.json,http://54.235.29.9/FacialAge/BNav_EC2/DepthDuration/v2_depth_duration_MTurk/v2_DepthDuration_HTML.html#47,47,1366,625,1366,768,9-19-2022,17-9-53,82,depth_duration_stimuli/000866_2014-06-09_20-45-42_260595134347_rgbf000139-resize_1/000866_2014-06-09_20-45-42_260595134347_rgbf000139-resize_1-target.png,250,3.2155,26,3761,245,meters,jsons/v1_VE250_randls_43.json,947165,1174466,30,Man
82,545096,DepthScenes,duration_manipulation_targetAtFixation,jsons/v1_VE250_randls_43.json,http://54.235.29.9/FacialAge/BNav_EC2/DepthDuration/v2_depth_duration_MTurk/v2_DepthDuration_HTML.html#47,47,1366,625,1366,768,9-19-2022,17-9-53,83,depth_duration_stimuli/001417_2014-06-19_16-25-36_260595134347_rgbf000115-resize_5/001417_2014-06-19_16-25-36_260595134347_rgbf000115-resize_5-target.png,250,4.6255,25,3781,261,meters,jsons/v1_VE250_randls_43.json,947165,1174466,30,Man
83,545096,DepthScenes,duration_manipulation_targetAtFixation,jsons/v1_VE250_randls_43.json,http://54.235.29.9/FacialAge/BNav_EC2/DepthDuration/v2_depth_duration_MTurk/v2_DepthDuration_HTML.html#47,47,1366,625,1366,768,9-19-2022,17-9-53,84,depth_duration_stimuli/003081_2014-06-15_15-19-16_094959634447_rgbf000150-resize_1/003081_2014-06-15_15-19-16_094959634447_rgbf000150-resize_1-target.png,250,3.9125,26,3573,244,meters,jsons/v1_VE250_randls_43.json,947165,1174466,30,Man
84,545096,DepthScenes,duration_manipulation_targetAtFixation,jsons/v1_VE250_randls_43.json,http://54.235.29.9/FacialAge/BNav_EC2/DepthDuration/v2_depth_duration_MTurk/v2_DepthDuration_HTML.html#47,47,1366,625,1366,768,9-19-2022,17-9-53,85,depth_duration_stimuli/001175_2014-06-17_15-45-55_260595134347_rgbf000129-resize_4/001175_2014-06-17_15-45-55_260595134347_rgbf000129-resize_4-target.png,250,4.255,28,3765,252,meters,jsons/v1_VE250_randls_43.json,947165,1174466,30,Man
85,545096,DepthScenes,duration_manipulation_targetAtFixation,jsons/v1_VE250_randls_43.json,http://54.235.29.9/FacialAge/BNav_EC2/DepthDuration/v2_depth_duration_MTurk/v2_DepthDuration_HTML.html#47,47,1366,625,1366,768,9-19-2022,17-9-53,86,depth_duration_stimuli/003490_2014-05-21_15-50-11_094959634447_rgbf000101-resize_3/003490_2014-05-21_15-50-11_094959634447_rgbf000101-resize_3-target.png,250,3.6445,26,3938,252,meters,jsons/v1_VE250_randls_43.json,947165,1174466,30,Man
86,545096,DepthScenes,duration_manipulation_targetAtFixation,jsons/v1_VE250_randls_43.json,http://54.235.29.9/FacialAge/BNav_EC2/DepthDuration/v2_depth_duration_MTurk/v2_DepthDuration_HTML.html#47,47,1366,625,1366,768,9-19-2022,17-9-53,87,depth_duration_stimuli/000788_2014-06-08_22-34-36_260595134347_rgbf000131-resize_1/000788_2014-06-08_22-34-36_260595134347_rgbf000131-resize_1-target.png,250,3.359,28,4956,251,meters,jsons/v1_VE250_randls_43.json,947165,1174466,30,Man
87,545096,DepthScenes,duration_manipulation_targetAtFixation,jsons/v1_VE250_randls_43.json,http://54.235.29.9/FacialAge/BNav_EC2/DepthDuration/v2_depth_duration_MTurk/v2_DepthDuration_HTML.html#47,47,1366,625,1366,768,9-19-2022,17-9-53,88,depth_duration_stimuli/001235_2014-06-17_16-37-36_260595134347_rgbf000084-resize_4/001235_2014-06-17_16-37-36_260595134347_rgbf000084-resize_4-target.png,250,3.6605,20,150281,249,meters,jsons/v1_VE250_randls_43.json,947165,1174466,30,Man
88,545096,DepthScenes,duration_manipulation_targetAtFixation,jsons/v1_VE250_randls_43.json,http://54.235.29.9/FacialAge/BNav_EC2/DepthDuration/v2_depth_duration_MTurk/v2_DepthDuration_HTML.html#47,47,1366,625,1366,768,9-19-2022,17-9-53,89,depth_duration_stimuli/000810_2014-06-08_17-20-01_260595134347_rgbf000105-resize_0/000810_2014-06-08_17-20-01_260595134347_rgbf000105-resize_0-target.png,250,1.4865,28,4715,246,meters,jsons/v1_VE250_randls_43.json,947165,1174466,30,Man
89,545096,DepthScenes,duration_manipulation_targetAtFixation,jsons/v1_VE250_randls_43.json,http://54.235.29.9/FacialAge/BNav_EC2/DepthDuration/v2_depth_duration_MTurk/v2_DepthDuration_HTML.html#47,47,1366,625,1366,768,9-19-2022,17-9-53,90,depth_duration_stimuli/001214_2014-06-17_16-13-55_260595134347_rgbf000111-resize_0/001214_2014-06-17_16-13-55_260595134347_rgbf000111-resize_0-target.png,250,2.6505,29,3689,262,meters,jsons/v1_VE250_randls_43.json,947165,1174466,30,Man
90,545096,DepthScenes,duration_manipulation_targetAtFixation,jsons/v1_VE250_randls_43.json,http://54.235.29.9/FacialAge/BNav_EC2/DepthDuration/v2_depth_duration_MTurk/v2_DepthDuration_HTML.html#47,47,1366,625,1366,768,9-19-2022,17-9-53,91,depth_duration_stimuli/002279_2014-06-28_18-55-32_260595134347_rgbf000040-resize_5/002279_2014-06-28_18-55-32_260595134347_rgbf000040-resize_5-target.png,250,1.5043333333333,25,4176,252,meters,jsons/v1_VE250_randls_43.json,947165,1174466,30,Man
91,545096,DepthScenes,duration_manipulation_targetAtFixation,jsons/v1_VE250_randls_43.json,http://54.235.29.9/FacialAge/BNav_EC2/DepthDuration/v2_depth_duration_MTurk/v2_DepthDuration_HTML.html#47,47,1366,625,1366,768,9-19-2022,17-9-53,92,depth_duration_stimuli/000635_2014-06-08_16-38-42_260595134347_rgbf000106-resize_1/000635_2014-06-08_16-38-42_260595134347_rgbf000106-resize_1-target.png,250,2.074,24,4302,244,meters,jsons/v1_VE250_randls_43.json,947165,1174466,30,Man
92,545096,DepthScenes,duration_manipulation_targetAtFixation,jsons/v1_VE250_randls_43.json,http://54.235.29.9/FacialAge/BNav_EC2/DepthDuration/v2_depth_duration_MTurk/v2_DepthDuration_HTML.html#47,47,1366,625,1366,768,9-19-2022,17-9-53,93,depth_duration_stimuli/001110_2014-06-15_17-25-28_260595134347_rgbf000150-resize_1/001110_2014-06-15_17-25-28_260595134347_rgbf000150-resize_1-target.png,250,1.7115,25,4749,246,meters,jsons/v1_VE250_randls_43.json,947165,1174466,30,Man
93,545096,DepthScenes,duration_manipulation_targetAtFixation,jsons/v1_VE250_randls_43.json,http://54.235.29.9/FacialAge/BNav_EC2/DepthDuration/v2_depth_duration_MTurk/v2_DepthDuration_HTML.html#47,47,1366,625,1366,768,9-19-2022,17-9-53,94,depth_duration_stimuli/000927_2014-06-09_16-32-30_260595134347_rgbf000123-resize_3/000927_2014-06-09_16-32-30_260595134347_rgbf000123-resize_3-target.png,250,2.6785,24,4092,249,meters,jsons/v1_VE250_randls_43.json,947165,1174466,30,Man
94,545096,DepthScenes,duration_manipulation_targetAtFixation,jsons/v1_VE250_randls_43.json,http://54.235.29.9/FacialAge/BNav_EC2/DepthDuration/v2_depth_duration_MTurk/v2_DepthDuration_HTML.html#47,47,1366,625,1366,768,9-19-2022,17-9-53,95,depth_duration_stimuli/002600_2014-06-24_14-27-04_094959634447_rgbf000074-resize_2/002600_2014-06-24_14-27-04_094959634447_rgbf000074-resize_2-target.png,250,2.7575,26,3503,240,meters,jsons/v1_VE250_randls_43.json,947165,1174466,30,Man
95,545096,DepthScenes,duration_manipulation_targetAtFixation,jsons/v1_VE250_randls_43.json,http://54.235.29.9/FacialAge/BNav_EC2/DepthDuration/v2_depth_duration_MTurk/v2_DepthDuration_HTML.html#47,47,1366,625,1366,768,9-19-2022,17-9-53,96,depth_duration_stimuli/003228_2014-05-14_13-42-35_094959634447_rgbf000101-resize_1/003228_2014-05-14_13-42-35_094959634447_rgbf000101-resize_1-target.png,250,1.9680000000000002,24,4847,253,meters,jsons/v1_VE250_randls_43.json,947165,1174466,30,Man
96,545096,DepthScenes,duration_manipulation_targetAtFixation,jsons/v1_VE250_randls_43.json,http://54.235.29.9/FacialAge/BNav_EC2/DepthDuration/v2_depth_duration_MTurk/v2_DepthDuration_HTML.html#47,47,1366,625,1366,768,9-19-2022,17-9-53,97,depth_duration_stimuli/000917_2014-06-09_22-45-29_260595134347_rgbf000149-resize_3/000917_2014-06-09_22-45-29_260595134347_rgbf000149-resize_3-target.png,250,4.1865,24,4084,250,meters,jsons/v1_VE250_randls_43.json,947165,1174466,30,Man
97,545096,DepthScenes,duration_manipulation_targetAtFixation,jsons/v1_VE250_randls_43.json,http://54.235.29.9/FacialAge/BNav_EC2/DepthDuration/v2_depth_duration_MTurk/v2_DepthDuration_HTML.html#47,47,1366,625,1366,768,9-19-2022,17-9-53,98,depth_duration_stimuli/002323_2014-06-28_20-01-54_260595134347_rgbf000051-resize_4/002323_2014-06-28_20-01-54_260595134347_rgbf000051-resize_4-target.png,250,3.7310000000000003,26,4048,249,meters,jsons/v1_VE250_randls_43.json,947165,1174466,30,Man
98,545096,DepthScenes,duration_manipulation_targetAtFixation,jsons/v1_VE250_randls_43.json,http://54.235.29.9/FacialAge/BNav_EC2/DepthDuration/v2_depth_duration_MTurk/v2_DepthDuration_HTML.html#47,47,1366,625,1366,768,9-19-2022,17-9-53,99,depth_duration_stimuli/001540_2014-06-20_17-01-05_260595134347_rgbf000086-resize_2/001540_2014-06-20_17-01-05_260595134347_rgbf000086-resize-original.jpg,250,1.459,24,3823,251,meters,jsons/v1_VE250_randls_43.json,947165,1174466,30,Man
99,545096,DepthScenes,duration_manipulation_targetAtFixation,jsons/v1_VE250_randls_43.json,http://54.235.29.9/FacialAge/BNav_EC2/DepthDuration/v2_depth_duration_MTurk/v2_DepthDuration_HTML.html#47,47,1366,625,1366,768,9-19-2022,17-9-53,100,depth_duration_stimuli/001158_2014-06-17_15-32-16_260595134347_rgbf000138-resize_2/001158_2014-06-17_15-32-16_260595134347_rgbf000138-resize_2-target.png,250,4.5315,25,3425,250,meters,jsons/v1_VE250_randls_43.json,947165,1174466,30,Man
100,545096,DepthScenes,duration_manipulation_targetAtFixation,jsons/v1_VE250_randls_43.json,http://54.235.29.9/FacialAge/BNav_EC2/DepthDuration/v2_depth_duration_MTurk/v2_DepthDuration_HTML.html#47,47,1366,625,1366,768,9-19-2022,17-9-53,101,depth_duration_stimuli/000556_2014-06-09_22-42-56_260595134347_rgbf000214-resize_1/000556_2014-06-09_22-42-56_260595134347_rgbf000214-resize_1-target.png,250,4.8415,26,3983,246,meters,jsons/v1_VE250_randls_43.json,947165,1174466,30,Man
101,545096,DepthScenes,duration_manipulation_targetAtFixation,jsons/v1_VE250_randls_43.json,http://54.235.29.9/FacialAge/BNav_EC2/DepthDuration/v2_depth_duration_MTurk/v2_DepthDuration_HTML.html#47,47,1366,625,1366,768,9-19-2022,17-9-53,102,depth_duration_stimuli/000436_2014-06-09_22-25-11_260595134347_rgbf000137-resize_1/000436_2014-06-09_22-25-11_260595134347_rgbf000137-resize_1-target.png,250,4.0705,25,3913,251,meters,jsons/v1_VE250_randls_43.json,947165,1174466,30,Man
102,545096,DepthScenes,duration_manipulation_targetAtFixation,jsons/v1_VE250_randls_43.json,http://54.235.29.9/FacialAge/BNav_EC2/DepthDuration/v2_depth_duration_MTurk/v2_DepthDuration_HTML.html#47,47,1366,625,1366,768,9-19-2022,17-9-53,103,depth_duration_stimuli/002444_2014-06-28_20-32-08_260595134347_rgbf000027-resize_0/002444_2014-06-28_20-32-08_260595134347_rgbf000027-resize_0-target.png,250,4.388999999999999,25,3652,246,meters,jsons/v1_VE250_randls_43.json,947165,1174466,30,Man
103,545096,DepthScenes,duration_manipulation_targetAtFixation,jsons/v1_VE250_randls_43.json,http://54.235.29.9/FacialAge/BNav_EC2/DepthDuration/v2_depth_duration_MTurk/v2_DepthDuration_HTML.html#47,47,1366,625,1366,768,9-19-2022,17-9-53,104,depth_duration_stimuli/001011_2014-06-08_23-18-54_260595134347_rgbf000044-resize_4/001011_2014-06-08_23-18-54_260595134347_rgbf000044-resize_4-target.png,250,2.4730000000000003,29,4084,251,meters,jsons/v1_VE250_randls_43.json,947165,1174466,30,Man
104,545096,DepthScenes,duration_manipulation_targetAtFixation,jsons/v1_VE250_randls_43.json,http://54.235.29.9/FacialAge/BNav_EC2/DepthDuration/v2_depth_duration_MTurk/v2_DepthDuration_HTML.html#47,47,1366,625,1366,768,9-19-2022,17-9-53,105,depth_duration_stimuli/002875_2014-06-01_15-19-00_094959634447_rgbf000151-resize_1/002875_2014-06-01_15-19-00_094959634447_rgbf000151-resize_1-target.png,250,1.9675,25,3630,247,meters,jsons/v1_VE250_randls_43.json,947165,1174466,30,Man
105,545096,DepthScenes,duration_manipulation_targetAtFixation,jsons/v1_VE250_randls_43.json,http://54.235.29.9/FacialAge/BNav_EC2/DepthDuration/v2_depth_duration_MTurk/v2_DepthDuration_HTML.html#47,47,1366,625,1366,768,9-19-2022,17-9-53,106,depth_duration_stimuli/003492_2014-05-21_15-50-55_094959634447_rgbf000828-resize_1/003492_2014-05-21_15-50-55_094959634447_rgbf000828-resize_1-target.png,250,4.06875,26,4763,250,meters,jsons/v1_VE250_randls_43.json,947165,1174466,30,Man
106,545096,DepthScenes,duration_manipulation_targetAtFixation,jsons/v1_VE250_randls_43.json,http://54.235.29.9/FacialAge/BNav_EC2/DepthDuration/v2_depth_duration_MTurk/v2_DepthDuration_HTML.html#47,47,1366,625,1366,768,9-19-2022,17-9-53,107,depth_duration_stimuli/002568_2014-06-24_13-59-21_094959634447_rgbf000062-resize_4/002568_2014-06-24_13-59-21_094959634447_rgbf000062-resize_4-target.png,250,3.015,29,3979,244,meters,jsons/v1_VE250_randls_43.json,947165,1174466,30,Man
107,545096,DepthScenes,duration_manipulation_targetAtFixation,jsons/v1_VE250_randls_43.json,http://54.235.29.9/FacialAge/BNav_EC2/DepthDuration/v2_depth_duration_MTurk/v2_DepthDuration_HTML.html#47,47,1366,625,1366,768,9-19-2022,17-9-53,108,depth_duration_stimuli/001164_2014-06-17_15-35-46_260595134347_rgbf000085-resize_3/001164_2014-06-17_15-35-46_260595134347_rgbf000085-resize_3-target.png,250,2.354,29,3727,254,meters,jsons/v1_VE250_randls_43.json,947165,1174466,30,Man
108,545096,DepthScenes,duration_manipulation_targetAtFixation,jsons/v1_VE250_randls_43.json,http://54.235.29.9/FacialAge/BNav_EC2/DepthDuration/v2_depth_duration_MTurk/v2_DepthDuration_HTML.html#47,47,1366,625,1366,768,9-19-2022,17-9-53,109,depth_duration_stimuli/001136_2014-06-17_15-19-41_260595134347_rgbf000076-resize_3/001136_2014-06-17_15-19-41_260595134347_rgbf000076-resize_3-target.png,250,1.8655,24,3420,241,meters,jsons/v1_VE250_randls_43.json,947165,1174466,30,Man
109,545096,DepthScenes,duration_manipulation_targetAtFixation,jsons/v1_VE250_randls_43.json,http://54.235.29.9/FacialAge/BNav_EC2/DepthDuration/v2_depth_duration_MTurk/v2_DepthDuration_HTML.html#47,47,1366,625,1366,768,9-19-2022,17-9-53,110,depth_duration_stimuli/000506_2014-06-08_23-21-00_260595134347_rgbf000070-resize_7/000506_2014-06-08_23-21-00_260595134347_rgbf000070-resize_7-target.png,250,4.0585,26,3612,237,meters,jsons/v1_VE250_randls_43.json,947165,1174466,30,Man
110,545096,DepthScenes,duration_manipulation_targetAtFixation,jsons/v1_VE250_randls_43.json,http://54.235.29.9/FacialAge/BNav_EC2/DepthDuration/v2_depth_duration_MTurk/v2_DepthDuration_HTML.html#47,47,1366,625,1366,768,9-19-2022,17-9-53,111,depth_duration_stimuli/003079_2014-06-15_15-18-20_094959634447_rgbf000152-resize_8/003079_2014-06-15_15-18-20_094959634447_rgbf000152-resize_8-target.png,250,2.8775,25,5111,249,meters,jsons/v1_VE250_randls_43.json,947165,1174466,30,Man
111,545096,DepthScenes,duration_manipulation_targetAtFixation,jsons/v1_VE250_randls_43.json,http://54.235.29.9/FacialAge/BNav_EC2/DepthDuration/v2_depth_duration_MTurk/v2_DepthDuration_HTML.html#47,47,1366,625,1366,768,9-19-2022,17-9-53,112,depth_duration_stimuli/000493_2014-06-09_21-01-18_260595134347_rgbf000196-resize_3/000493_2014-06-09_21-01-18_260595134347_rgbf000196-resize_3-target.png,250,3.44,29,3503,254,meters,jsons/v1_VE250_randls_43.json,947165,1174466,30,Man
112,545096,DepthScenes,duration_manipulation_targetAtFixation,jsons/v1_VE250_randls_43.json,http://54.235.29.9/FacialAge/BNav_EC2/DepthDuration/v2_depth_duration_MTurk/v2_DepthDuration_HTML.html#47,47,1366,625,1366,768,9-19-2022,17-9-53,113,depth_duration_stimuli/000191_2014-05-12_17-07-38_260595134347_rgbf000199-resize_0/000191_2014-05-12_17-07-38_260595134347_rgbf000199-resize_0-target.png,250,3.7995,26,3838,253,meters,jsons/v1_VE250_randls_43.json,947165,1174466,30,Man
113,545096,DepthScenes,duration_manipulation_targetAtFixation,jsons/v1_VE250_randls_43.json,http://54.235.29.9/FacialAge/BNav_EC2/DepthDuration/v2_depth_duration_MTurk/v2_DepthDuration_HTML.html#47,47,1366,625,1366,768,9-19-2022,17-9-53,114,depth_duration_stimuli/000486_2014-06-09_20-47-20_260595134347_rgbf000143-resize_2/000486_2014-06-09_20-47-20_260595134347_rgbf000143-resize_2-target.png,250,4.8325,24,4063,244,meters,jsons/v1_VE250_randls_43.json,947165,1174466,30,Man
114,545096,DepthScenes,duration_manipulation_targetAtFixation,jsons/v1_VE250_randls_43.json,http://54.235.29.9/FacialAge/BNav_EC2/DepthDuration/v2_depth_duration_MTurk/v2_DepthDuration_HTML.html#47,47,1366,625,1366,768,9-19-2022,17-9-53,115,depth_duration_stimuli/003083_2014-06-15_15-21-03_094959634447_rgbf000063-resize_1/003083_2014-06-15_15-21-03_094959634447_rgbf000063-resize_1-target.png,250,4.1405,26,4054,247,meters,jsons/v1_VE250_randls_43.json,947165,1174466,30,Man
115,545096,DepthScenes,duration_manipulation_targetAtFixation,jsons/v1_VE250_randls_43.json,http://54.235.29.9/FacialAge/BNav_EC2/DepthDuration/v2_depth_duration_MTurk/v2_DepthDuration_HTML.html#47,47,1366,625,1366,768,9-19-2022,17-9-53,116,depth_duration_stimuli/001170_2014-06-17_15-43-44_260595134347_rgbf000096-resize_6/001170_2014-06-17_15-43-44_260595134347_rgbf000096-resize-original.jpg,250,1.1909999999999998,25,3495,255,meters,jsons/v1_VE250_randls_43.json,947165,1174466,30,Man
116,545096,DepthScenes,duration_manipulation_targetAtFixation,jsons/v1_VE250_randls_43.json,http://54.235.29.9/FacialAge/BNav_EC2/DepthDuration/v2_depth_duration_MTurk/v2_DepthDuration_HTML.html#47,47,1366,625,1366,768,9-19-2022,17-9-53,117,depth_duration_stimuli/000469_2014-06-09_19-42-10_260595134347_rgbf000081-resize_1/000469_2014-06-09_19-42-10_260595134347_rgbf000081-resize_1-target.png,250,1.652,26,4688,251,meters,jsons/v1_VE250_randls_43.json,947165,1174466,30,Man
117,545096,DepthScenes,duration_manipulation_targetAtFixation,jsons/v1_VE250_randls_43.json,http://54.235.29.9/FacialAge/BNav_EC2/DepthDuration/v2_depth_duration_MTurk/v2_DepthDuration_HTML.html#47,47,1366,625,1366,768,9-19-2022,17-9-53,118,depth_duration_stimuli/000483_2014-06-09_20-41-45_260595134347_rgbf000116-resize_4/000483_2014-06-09_20-41-45_260595134347_rgbf000116-resize_4-target.png,250,1.337,26,4190,249,meters,jsons/v1_VE250_randls_43.json,947165,1174466,30,Man
118,545096,DepthScenes,duration_manipulation_targetAtFixation,jsons/v1_VE250_randls_43.json,http://54.235.29.9/FacialAge/BNav_EC2/DepthDuration/v2_depth_duration_MTurk/v2_DepthDuration_HTML.html#47,47,1366,625,1366,768,9-19-2022,17-9-53,119,depth_duration_stimuli/001449_2014-06-19_17-01-27_260595134347_rgbf000116-resize_2/001449_2014-06-19_17-01-27_260595134347_rgbf000116-resize_2-target.png,250,3.452,26,3616,251,meters,jsons/v1_VE250_randls_43.json,947165,1174466,30,Man
119,545096,DepthScenes,duration_manipulation_targetAtFixation,jsons/v1_VE250_randls_43.json,http://54.235.29.9/FacialAge/BNav_EC2/DepthDuration/v2_depth_duration_MTurk/v2_DepthDuration_HTML.html#47,47,1366,625,1366,768,9-19-2022,17-9-53,120,depth_duration_stimuli/001450_2014-06-19_17-02-03_260595134347_rgbf000203-resize_4/001450_2014-06-19_17-02-03_260595134347_rgbf000203-resize_4-target.png,250,4.0106666666667,25,3829,236,meters,jsons/v1_VE250_randls_43.json,947165,1174466,30,Man
120,545096,DepthScenes,duration_manipulation_targetAtFixation,jsons/v1_VE250_randls_43.json,http://54.235.29.9/FacialAge/BNav_EC2/DepthDuration/v2_depth_duration_MTurk/v2_DepthDuration_HTML.html#47,47,1366,625,1366,768,9-19-2022,17-9-53,121,depth_duration_stimuli/001244_2014-06-17_16-47-45_260595134347_rgbf000030-resize_4/001244_2014-06-17_16-47-45_260595134347_rgbf000030-resize_4-target.png,250,2.0425,26,3494,251,meters,jsons/v1_VE250_randls_43.json,947165,1174466,30,Man
121,545096,DepthScenes,duration_manipulation_targetAtFixation,jsons/v1_VE250_randls_43.json,http://54.235.29.9/FacialAge/BNav_EC2/DepthDuration/v2_depth_duration_MTurk/v2_DepthDuration_HTML.html#47,47,1366,625,1366,768,9-19-2022,17-9-53,122,depth_duration_stimuli/003495_2014-05-21_16-01-51_094959634447_rgbf000100-resize_3/003495_2014-05-21_16-01-51_094959634447_rgbf000100-resize_3-target.png,250,1.6255,25,3249,256,meters,jsons/v1_VE250_randls_43.json,947165,1174466,30,Man
122,545096,DepthScenes,duration_manipulation_targetAtFixation,jsons/v1_VE250_randls_43.json,http://54.235.29.9/FacialAge/BNav_EC2/DepthDuration/v2_depth_duration_MTurk/v2_DepthDuration_HTML.html#47,47,1366,625,1366,768,9-19-2022,17-9-53,123,depth_duration_stimuli/000009_2014-05-26_14-32-05_260595134347_rgbf000034-resize_3/000009_2014-05-26_14-32-05_260595134347_rgbf000034-resize_3-target.png,250,3.8715,25,4553,250,meters,jsons/v1_VE250_randls_43.json,947165,1174466,30,Man
123,545096,DepthScenes,duration_manipulation_targetAtFixation,jsons/v1_VE250_randls_43.json,http://54.235.29.9/FacialAge/BNav_EC2/DepthDuration/v2_depth_duration_MTurk/v2_DepthDuration_HTML.html#47,47,1366,625,1366,768,9-19-2022,17-9-53,124,depth_duration_stimuli/001828_2014-06-26_21-40-03_260595134347_rgbf000024-resize_0/001828_2014-06-26_21-40-03_260595134347_rgbf000024-resize_0-target.png,250,4.8260000000000005,26,3426,249,meters,jsons/v1_VE250_randls_43.json,947165,1174466,30,Man
124,545096,DepthScenes,duration_manipulation_targetAtFixation,jsons/v1_VE250_randls_43.json,http://54.235.29.9/FacialAge/BNav_EC2/DepthDuration/v2_depth_duration_MTurk/v2_DepthDuration_HTML.html#47,47,1366,625,1366,768,9-19-2022,17-9-53,125,depth_duration_stimuli/000522_2014-06-08_13-35-06_260595134347_rgbf000244-resize_1/000522_2014-06-08_13-35-06_260595134347_rgbf000244-resize_1-target.png,250,2.3715,25,3322,248,meters,jsons/v1_VE250_randls_43.json,947165,1174466,30,Man
125,545096,DepthScenes,duration_manipulation_targetAtFixation,jsons/v1_VE250_randls_43.json,http://54.235.29.9/FacialAge/BNav_EC2/DepthDuration/v2_depth_duration_MTurk/v2_DepthDuration_HTML.html#47,47,1366,625,1366,768,9-19-2022,17-9-53,126,depth_duration_stimuli/002949_2014-06-26_15-57-42_094959634447_rgbf000079-resize_1/002949_2014-06-26_15-57-42_094959634447_rgbf000079-resize_1-target.png,250,1.8915,24,3912,243,meters,jsons/v1_VE250_randls_43.json,947165,1174466,30,Man
126,545096,DepthScenes,duration_manipulation_targetAtFixation,jsons/v1_VE250_randls_43.json,http://54.235.29.9/FacialAge/BNav_EC2/DepthDuration/v2_depth_duration_MTurk/v2_DepthDuration_HTML.html#47,47,1366,625,1366,768,9-19-2022,17-9-53,127,depth_duration_stimuli/002043_2014-06-24_20-29-38_260595134347_rgbf000039-resize_4/002043_2014-06-24_20-29-38_260595134347_rgbf000039-resize_4-target.png,250,2.8435,25,3528,250,meters,jsons/v1_VE250_randls_43.json,947165,1174466,30,Man
127,545096,DepthScenes,duration_manipulation_targetAtFixation,jsons/v1_VE250_randls_43.json,http://54.235.29.9/FacialAge/BNav_EC2/DepthDuration/v2_depth_duration_MTurk/v2_DepthDuration_HTML.html#47,47,1366,625,1366,768,9-19-2022,17-9-53,128,depth_duration_stimuli/003048_2014-06-15_13-49-43_094959634447_rgbf000150-resize_1/003048_2014-06-15_13-49-43_094959634447_rgbf000150-resize_1-target.png,250,4.0035,29,3634,248,meters,jsons/v1_VE250_randls_43.json,947165,1174466,30,Man
128,545096,DepthScenes,duration_manipulation_targetAtFixation,jsons/v1_VE250_randls_43.json,http://54.235.29.9/FacialAge/BNav_EC2/DepthDuration/v2_depth_duration_MTurk/v2_DepthDuration_HTML.html#47,47,1366,625,1366,768,9-19-2022,17-9-53,129,depth_duration_stimuli/001133_2014-06-17_14-49-16_260595134347_rgbf000100-resize_0/001133_2014-06-17_14-49-16_260595134347_rgbf000100-resize_0-target.png,250,4.2115,29,3629,251,meters,jsons/v1_VE250_randls_43.json,947165,1174466,30,Man
129,545096,DepthScenes,duration_manipulation_targetAtFixation,jsons/v1_VE250_randls_43.json,http://54.235.29.9/FacialAge/BNav_EC2/DepthDuration/v2_depth_duration_MTurk/v2_DepthDuration_HTML.html#47,47,1366,625,1366,768,9-19-2022,17-9-53,130,depth_duration_stimuli/001132_2014-06-17_14-48-54_260595134347_rgbf000100-resize_2/001132_2014-06-17_14-48-54_260595134347_rgbf000100-resize_2-target.png,250,3.753,24,3505,247,meters,jsons/v1_VE250_randls_43.json,947165,1174466,30,Man
130,545096,DepthScenes,duration_manipulation_targetAtFixation,jsons/v1_VE250_randls_43.json,http://54.235.29.9/FacialAge/BNav_EC2/DepthDuration/v2_depth_duration_MTurk/v2_DepthDuration_HTML.html#47,47,1366,625,1366,768,9-19-2022,17-9-53,131,depth_duration_stimuli/002788_2014-06-22_19-36-03_094959634447_rgbf000088-resize_2/002788_2014-06-22_19-36-03_094959634447_rgbf000088-resize_2-target.png,250,1.6465,25,3659,249,meters,jsons/v1_VE250_randls_43.json,947165,1174466,30,Man
131,545096,DepthScenes,duration_manipulation_targetAtFixation,jsons/v1_VE250_randls_43.json,http://54.235.29.9/FacialAge/BNav_EC2/DepthDuration/v2_depth_duration_MTurk/v2_DepthDuration_HTML.html#47,47,1366,625,1366,768,9-19-2022,17-9-53,132,depth_duration_stimuli/000749_2014-06-08_21-55-06_260595134347_rgbf000070-resize_2/000749_2014-06-08_21-55-06_260595134347_rgbf000070-resize_2-target.png,250,2.331,26,3510,248,meters,jsons/v1_VE250_randls_43.json,947165,1174466,30,Man
132,545096,DepthScenes,duration_manipulation_targetAtFixation,jsons/v1_VE250_randls_43.json,http://54.235.29.9/FacialAge/BNav_EC2/DepthDuration/v2_depth_duration_MTurk/v2_DepthDuration_HTML.html#47,47,1366,625,1366,768,9-19-2022,17-9-53,133,depth_duration_stimuli/000758_2014-06-08_22-05-08_260595134347_rgbf000085-resize_0/000758_2014-06-08_22-05-08_260595134347_rgbf000085-resize_0-target.png,250,3.3810000000000002,25,3805,250,meters,jsons/v1_VE250_randls_43.json,947165,1174466,30,Man
133,545096,DepthScenes,duration_manipulation_targetAtFixation,jsons/v1_VE250_randls_43.json,http://54.235.29.9/FacialAge/BNav_EC2/DepthDuration/v2_depth_duration_MTurk/v2_DepthDuration_HTML.html#47,47,1366,625,1366,768,9-19-2022,17-9-53,134,depth_duration_stimuli/000854_2014-06-09_19-43-13_260595134347_rgbf000066-resize_0/000854_2014-06-09_19-43-13_260595134347_rgbf000066-resize_0-target.png,250,3.068,25,4452,252,meters,jsons/v1_VE250_randls_43.json,947165,1174466,30,Man
134,545096,DepthScenes,duration_manipulation_targetAtFixation,jsons/v1_VE250_randls_43.json,http://54.235.29.9/FacialAge/BNav_EC2/DepthDuration/v2_depth_duration_MTurk/v2_DepthDuration_HTML.html#47,47,1366,625,1366,768,9-19-2022,17-9-53,135,depth_duration_stimuli/002072_2014-06-24_21-48-06_260595134347_rgbf000115-resize_0/002072_2014-06-24_21-48-06_260595134347_rgbf000115-resize-original.jpg,250,4.702,25,3531,249,meters,jsons/v1_VE250_randls_43.json,947165,1174466,30,Man
135,545096,DepthScenes,duration_manipulation_targetAtFixation,jsons/v1_VE250_randls_43.json,http://54.235.29.9/FacialAge/BNav_EC2/DepthDuration/v2_depth_duration_MTurk/v2_DepthDuration_HTML.html#47,47,1366,625,1366,768,9-19-2022,17-9-53,136,depth_duration_stimuli/002725_2014-06-22_11-47-51_094959634447_rgbf000070-resize_1/002725_2014-06-22_11-47-51_094959634447_rgbf000070-resize_1-target.png,250,2.195,29,3711,255,meters,jsons/v1_VE250_randls_43.json,947165,1174466,30,Man
136,545096,DepthScenes,duration_manipulation_targetAtFixation,jsons/v1_VE250_randls_43.json,http://54.235.29.9/FacialAge/BNav_EC2/DepthDuration/v2_depth_duration_MTurk/v2_DepthDuration_HTML.html#47,47,1366,625,1366,768,9-19-2022,17-9-53,137,depth_duration_stimuli/002344_2014-06-28_20-06-29_260595134347_rgbf000030-resize_1/002344_2014-06-28_20-06-29_260595134347_rgbf000030-resize_1-target.png,250,1.5795,25,3467,251,meters,jsons/v1_VE250_randls_43.json,947165,1174466,30,Man
137,545096,DepthScenes,duration_manipulation_targetAtFixation,jsons/v1_VE250_randls_43.json,http://54.235.29.9/FacialAge/BNav_EC2/DepthDuration/v2_depth_duration_MTurk/v2_DepthDuration_HTML.html#47,47,1366,625,1366,768,9-19-2022,17-9-53,138,depth_duration_stimuli/001016_2014-06-09_16-16-10_260595134347_rgbf000112-resize_5/001016_2014-06-09_16-16-10_260595134347_rgbf000112-resize_5-target.png,250,1.6565,29,3872,250,meters,jsons/v1_VE250_randls_43.json,947165,1174466,30,Man
138,545096,DepthScenes,duration_manipulation_targetAtFixation,jsons/v1_VE250_randls_43.json,http://54.235.29.9/FacialAge/BNav_EC2/DepthDuration/v2_depth_duration_MTurk/v2_DepthDuration_HTML.html#47,47,1366,625,1366,768,9-19-2022,17-9-53,139,depth_duration_stimuli/002340_2014-06-28_20-05-46_260595134347_rgbf000113-resize_0/002340_2014-06-28_20-05-46_260595134347_rgbf000113-resize_0-target.png,250,2.4735,25,3345,253,meters,jsons/v1_VE250_randls_43.json,947165,1174466,30,Man
139,545096,DepthScenes,duration_manipulation_targetAtFixation,jsons/v1_VE250_randls_43.json,http://54.235.29.9/FacialAge/BNav_EC2/DepthDuration/v2_depth_duration_MTurk/v2_DepthDuration_HTML.html#47,47,1366,625,1366,768,9-19-2022,17-9-53,140,depth_duration_stimuli/002375_2014-06-28_20-13-44_260595134347_rgbf000032-resize_1/002375_2014-06-28_20-13-44_260595134347_rgbf000032-resize_1-target.png,250,4.0175,25,3471,248,meters,jsons/v1_VE250_randls_43.json,947165,1174466,30,Man
140,545096,DepthScenes,duration_manipulation_targetAtFixation,jsons/v1_VE250_randls_43.json,http://54.235.29.9/FacialAge/BNav_EC2/DepthDuration/v2_depth_duration_MTurk/v2_DepthDuration_HTML.html#47,47,1366,625,1366,768,9-19-2022,17-9-53,141,depth_duration_stimuli/002657_2014-06-13_15-29-54_094959634447_rgbf000150-resize_1/002657_2014-06-13_15-29-54_094959634447_rgbf000150-resize_1-target.png,250,4.919,25,10178,249,meters,jsons/v1_VE250_randls_43.json,947165,1174466,30,Man
141,545096,DepthScenes,duration_manipulation_targetAtFixation,jsons/v1_VE250_randls_43.json,http://54.235.29.9/FacialAge/BNav_EC2/DepthDuration/v2_depth_duration_MTurk/v2_DepthDuration_HTML.html#47,47,1366,625,1366,768,9-19-2022,17-9-53,142,depth_duration_stimuli/001199_2014-06-17_16-03-48_260595134347_rgbf000077-resize_0/001199_2014-06-17_16-03-48_260595134347_rgbf000077-resize_0-target.png,250,3.4375,25,4744,231,meters,jsons/v1_VE250_randls_43.json,947165,1174466,30,Man
142,545096,DepthScenes,duration_manipulation_targetAtFixation,jsons/v1_VE250_randls_43.json,http://54.235.29.9/FacialAge/BNav_EC2/DepthDuration/v2_depth_duration_MTurk/v2_DepthDuration_HTML.html#47,47,1366,625,1366,768,9-19-2022,17-9-53,143,depth_duration_stimuli/000502_2014-06-08_23-02-32_260595134347_rgbf000063-resize_4/000502_2014-06-08_23-02-32_260595134347_rgbf000063-resize_4-target.png,250,2.431,29,4747,241,meters,jsons/v1_VE250_randls_43.json,947165,1174466,30,Man
143,545096,DepthScenes,duration_manipulation_targetAtFixation,jsons/v1_VE250_randls_43.json,http://54.235.29.9/FacialAge/BNav_EC2/DepthDuration/v2_depth_duration_MTurk/v2_DepthDuration_HTML.html#47,47,1366,625,1366,768,9-19-2022,17-9-53,144,depth_duration_stimuli/000692_2014-06-08_13-09-42_260595134347_rgbf000199-resize_2/000692_2014-06-08_13-09-42_260595134347_rgbf000199-resize_2-target.png,250,3.661,25,3518,252,meters,jsons/v1_VE250_randls_43.json,947165,1174466,30,Man
144,545096,DepthScenes,duration_manipulation_targetAtFixation,jsons/v1_VE250_randls_43.json,http://54.235.29.9/FacialAge/BNav_EC2/DepthDuration/v2_depth_duration_MTurk/v2_DepthDuration_HTML.html#47,47,1366,625,1366,768,9-19-2022,17-9-53,145,depth_duration_stimuli/001094_2014-06-15_17-36-00_260595134347_rgbf000205-resize_0/001094_2014-06-15_17-36-00_260595134347_rgbf000205-resize_0-target.png,250,4.2175,25,3542,251,meters,jsons/v1_VE250_randls_43.json,947165,1174466,30,Man
145,545096,DepthScenes,duration_manipulation_targetAtFixation,jsons/v1_VE250_randls_43.json,http://54.235.29.9/FacialAge/BNav_EC2/DepthDuration/v2_depth_duration_MTurk/v2_DepthDuration_HTML.html#47,47,1366,625,1366,768,9-19-2022,17-9-53,146,depth_duration_stimuli/001498_2014-06-19_17-45-14_260595134347_rgbf000129-resize_4/001498_2014-06-19_17-45-14_260595134347_rgbf000129-resize-original.jpg,250,1.4075,26,3747,247,meters,jsons/v1_VE250_randls_43.json,947165,1174466,30,Man
146,545096,DepthScenes,duration_manipulation_targetAtFixation,jsons/v1_VE250_randls_43.json,http://54.235.29.9/FacialAge/BNav_EC2/DepthDuration/v2_depth_duration_MTurk/v2_DepthDuration_HTML.html#47,47,1366,625,1366,768,9-19-2022,17-9-53,147,depth_duration_stimuli/003534_2014-05-22_15-06-10_094959634447_rgbf000102-resize_4/003534_2014-05-22_15-06-10_094959634447_rgbf000102-resize_4-target.png,250,1.426,25,3640,250,meters,jsons/v1_VE250_randls_43.json,947165,1174466,30,Man
147,545096,DepthScenes,duration_manipulation_targetAtFixation,jsons/v1_VE250_randls_43.json,http://54.235.29.9/FacialAge/BNav_EC2/DepthDuration/v2_depth_duration_MTurk/v2_DepthDuration_HTML.html#47,47,1366,625,1366,768,9-19-2022,17-9-53,148,depth_duration_stimuli/002637_2014-06-24_14-51-13_094959634447_rgbf000066-resize_4/002637_2014-06-24_14-51-13_094959634447_rgbf000066-resize_4-target.png,250,1.9955,25,3594,247,meters,jsons/v1_VE250_randls_43.json,947165,1174466,30,Man
148,545096,DepthScenes,duration_manipulation_targetAtFixation,jsons/v1_VE250_randls_43.json,http://54.235.29.9/FacialAge/BNav_EC2/DepthDuration/v2_depth_duration_MTurk/v2_DepthDuration_HTML.html#47,47,1366,625,1366,768,9-19-2022,17-9-53,149,depth_duration_stimuli/001806_2014-06-26_20-50-20_260595134347_rgbf000091-resize_1/001806_2014-06-26_20-50-20_260595134347_rgbf000091-resize_1-target.png,250,2.7305,25,7227,263,meters,jsons/v1_VE250_randls_43.json,947165,1174466,30,Man
149,545096,DepthScenes,duration_manipulation_targetAtFixation,jsons/v1_VE250_randls_43.json,http://54.235.29.9/FacialAge/BNav_EC2/DepthDuration/v2_depth_duration_MTurk/v2_DepthDuration_HTML.html#47,47,1366,625,1366,768,9-19-2022,17-9-53,150,depth_duration_stimuli/001617_2014-06-20_11-35-32_260595134347_rgbf000066-resize_1/001617_2014-06-20_11-35-32_260595134347_rgbf000066-resize_1-target.png,250,3.7910000000000004,26,3609,259,meters,jsons/v1_VE250_randls_43.json,947165,1174466,30,Man
150,545096,DepthScenes,duration_manipulation_targetAtFixation,jsons/v1_VE250_randls_43.json,http://54.235.29.9/FacialAge/BNav_EC2/DepthDuration/v2_depth_duration_MTurk/v2_DepthDuration_HTML.html#47,47,1366,625,1366,768,9-19-2022,17-9-53,151,depth_duration_stimuli/001059_2014-06-08_21-53-27_260595134347_rgbf000061-resize_4/001059_2014-06-08_21-53-27_260595134347_rgbf000061-resize_4-target.png,250,2.4185,26,3375,252,meters,jsons/v1_VE250_randls_43.json,947165,1174466,30,Man
151,545096,DepthScenes,duration_manipulation_targetAtFixation,jsons/v1_VE250_randls_43.json,http://54.235.29.9/FacialAge/BNav_EC2/DepthDuration/v2_depth_duration_MTurk/v2_DepthDuration_HTML.html#47,47,1366,625,1366,768,9-19-2022,17-9-53,152,depth_duration_stimuli/001032_2014-06-08_13-23-17_260595134347_rgbf000021-resize_3/001032_2014-06-08_13-23-17_260595134347_rgbf000021-resize_3-target.png,250,3.2725,25,3510,249,meters,jsons/v1_VE250_randls_43.json,947165,1174466,30,Man
152,545096,DepthScenes,duration_manipulation_targetAtFixation,jsons/v1_VE250_randls_43.json,http://54.235.29.9/FacialAge/BNav_EC2/DepthDuration/v2_depth_duration_MTurk/v2_DepthDuration_HTML.html#47,47,1366,625,1366,768,9-19-2022,17-9-53,153,depth_duration_stimuli/001555_2014-06-20_17-12-10_260595134347_rgbf000065-resize_4/001555_2014-06-20_17-12-10_260595134347_rgbf000065-resize_4-target.png,250,1.633,25,3715,250,meters,jsons/v1_VE250_randls_43.json,947165,1174466,30,Man
153,545096,DepthScenes,duration_manipulation_targetAtFixation,jsons/v1_VE250_randls_43.json,http://54.235.29.9/FacialAge/BNav_EC2/DepthDuration/v2_depth_duration_MTurk/v2_DepthDuration_HTML.html#47,47,1366,625,1366,768,9-19-2022,17-9-53,154,depth_duration_stimuli/000103_2014-05-14_22-01-17_260595134347_rgbf000152-resize_5/000103_2014-05-14_22-01-17_260595134347_rgbf000152-resize_5-target.png,250,1.993,25,3316,250,meters,jsons/v1_VE250_randls_43.json,947165,1174466,30,Man
154,545096,DepthScenes,duration_manipulation_targetAtFixation,jsons/v1_VE250_randls_43.json,http://54.235.29.9/FacialAge/BNav_EC2/DepthDuration/v2_depth_duration_MTurk/v2_DepthDuration_HTML.html#47,47,1366,625,1366,768,9-19-2022,17-9-53,155,depth_duration_stimuli/002964_2014-06-08_17-46-11_094959634447_rgbf000091-resize_4/002964_2014-06-08_17-46-11_094959634447_rgbf000091-resize_4-target.png,250,1.6909999999999998,25,3247,247,meters,jsons/v1_VE250_randls_43.json,947165,1174466,30,Man
155,545096,DepthScenes,duration_manipulation_targetAtFixation,jsons/v1_VE250_randls_43.json,http://54.235.29.9/FacialAge/BNav_EC2/DepthDuration/v2_depth_duration_MTurk/v2_DepthDuration_HTML.html#47,47,1366,625,1366,768,9-19-2022,17-9-53,156,depth_duration_stimuli/002136_2014-06-25_21-18-03_260595134347_rgbf000109-resize_3/002136_2014-06-25_21-18-03_260595134347_rgbf000109-resize_3-target.png,250,1.9569999999999999,26,3450,247,meters,jsons/v1_VE250_randls_43.json,947165,1174466,30,Man
156,545096,DepthScenes,duration_manipulation_targetAtFixation,jsons/v1_VE250_randls_43.json,http://54.235.29.9/FacialAge/BNav_EC2/DepthDuration/v2_depth_duration_MTurk/v2_DepthDuration_HTML.html#47,47,1366,625,1366,768,9-19-2022,17-9-53,157,depth_duration_stimuli/002630_2014-06-24_14-47-50_094959634447_rgbf000055-resize_1/002630_2014-06-24_14-47-50_094959634447_rgbf000055-resize_1-target.png,250,3.0095,26,3266,250,meters,jsons/v1_VE250_randls_43.json,947165,1174466,30,Man
157,545096,DepthScenes,duration_manipulation_targetAtFixation,jsons/v1_VE250_randls_43.json,http://54.235.29.9/FacialAge/BNav_EC2/DepthDuration/v2_depth_duration_MTurk/v2_DepthDuration_HTML.html#47,47,1366,625,1366,768,9-19-2022,17-9-53,158,depth_duration_stimuli/002758_2014-06-22_19-11-20_094959634447_rgbf000128-resize_1/002758_2014-06-22_19-11-20_094959634447_rgbf000128-resize_1-target.png,250,2.555,26,3668,246,meters,jsons/v1_VE250_randls_43.json,947165,1174466,30,Man
158,545096,DepthScenes,duration_manipulation_targetAtFixation,jsons/v1_VE250_randls_43.json,http://54.235.29.9/FacialAge/BNav_EC2/DepthDuration/v2_depth_duration_MTurk/v2_DepthDuration_HTML.html#47,47,1366,625,1366,768,9-19-2022,17-9-53,159,depth_duration_stimuli/002039_2014-06-24_20-22-38_260595134347_rgbf000084-resize_1/002039_2014-06-24_20-22-38_260595134347_rgbf000084-resize_1-target.png,250,4.408,28,3859,237,meters,jsons/v1_VE250_randls_43.json,947165,1174466,30,Man
159,545096,DepthScenes,duration_manipulation_targetAtFixation,jsons/v1_VE250_randls_43.json,http://54.235.29.9/FacialAge/BNav_EC2/DepthDuration/v2_depth_duration_MTurk/v2_DepthDuration_HTML.html#47,47,1366,625,1366,768,9-19-2022,17-9-53,160,depth_duration_stimuli/002103_2014-06-25_20-00-40_260595134347_rgbf000049-resize_0/002103_2014-06-25_20-00-40_260595134347_rgbf000049-resize_0-target.png,250,4.105,29,3110,257,meters,jsons/v1_VE250_randls_43.json,947165,1174466,30,Man
160,545096,DepthScenes,duration_manipulation_targetAtFixation,jsons/v1_VE250_randls_43.json,http://54.235.29.9/FacialAge/BNav_EC2/DepthDuration/v2_depth_duration_MTurk/v2_DepthDuration_HTML.html#47,47,1366,625,1366,768,9-19-2022,17-9-53,161,depth_duration_stimuli/000736_2014-06-08_18-24-15_260595134347_rgbf000206-resize_3/000736_2014-06-08_18-24-15_260595134347_rgbf000206-resize_3-target.png,250,3.515,29,3655,249,meters,jsons/v1_VE250_randls_43.json,947165,1174466,30,Man
161,545096,DepthScenes,duration_manipulation_targetAtFixation,jsons/v1_VE250_randls_43.json,http://54.235.29.9/FacialAge/BNav_EC2/DepthDuration/v2_depth_duration_MTurk/v2_DepthDuration_HTML.html#47,47,1366,625,1366,768,9-19-2022,17-9-53,162,depth_duration_stimuli/000137_2014-05-20_17-04-49_260595134347_rgbf000120-resize_1/000137_2014-05-20_17-04-49_260595134347_rgbf000120-resize_1-target.png,250,3.786,28,3235,251,meters,jsons/v1_VE250_randls_43.json,947165,1174466,30,Man
162,545096,DepthScenes,duration_manipulation_targetAtFixation,jsons/v1_VE250_randls_43.json,http://54.235.29.9/FacialAge/BNav_EC2/DepthDuration/v2_depth_duration_MTurk/v2_DepthDuration_HTML.html#47,47,1366,625,1366,768,9-19-2022,17-9-53,163,depth_duration_stimuli/002570_2014-06-24_13-59-54_094959634447_rgbf000059-resize_0/002570_2014-06-24_13-59-54_094959634447_rgbf000059-resize_0-target.png,250,4.037,28,3282,249,meters,jsons/v1_VE250_randls_43.json,947165,1174466,30,Man
163,545096,DepthScenes,duration_manipulation_targetAtFixation,jsons/v1_VE250_randls_43.json,http://54.235.29.9/FacialAge/BNav_EC2/DepthDuration/v2_depth_duration_MTurk/v2_DepthDuration_HTML.html#47,47,1366,625,1366,768,9-19-2022,17-9-53,164,depth_duration_stimuli/002467_2014-06-28_20-38-07_260595134347_rgbf000026-resize_2/002467_2014-06-28_20-38-07_260595134347_rgbf000026-resize_2-target.png,250,4.742,29,5083,250,meters,jsons/v1_VE250_randls_43.json,947165,1174466,30,Man
