,subjID,experimentName,versionName,sequenceName,url,selected_row,windowWidth,windowHeight,screenWidth,screenHeight,startDate,startTime,trial,stimulus,duration,actual_depth,depth_estimate,trial_RT,log_sceneDuration,unitSelection,seq_filepath,experimentTime,totalTime,age,gender
0,547268,DepthScenes,duration_manipulation_targetAtFixation,jsons/v1_VE1000_randls_26_rotated.json,http://54.235.29.9/FacialAge/BNav_EC2/DepthDuration/v2_depth_duration_MTurk/v2_DepthDuration_HTML.html#263,263,1366,625,1366,768,8-29-2022,9-52-19,1,depth_duration_stimuli/002323_2014-06-28_20-01-54_260595134347_rgbf000051-resize_4/002323_2014-06-28_20-01-54_260595134347_rgbf000051-resize_4-target.png,1000,3.7310000000000003,2,6645,1012,feet,jsons/v1_VE1000_randls_26_rotated.json,975754,2080307,55,Woman
1,547268,DepthScenes,duration_manipulation_targetAtFixation,jsons/v1_VE1000_randls_26_rotated.json,http://54.235.29.9/FacialAge/BNav_EC2/DepthDuration/v2_depth_duration_MTurk/v2_DepthDuration_HTML.html#263,263,1366,625,1366,768,8-29-2022,9-52-19,2,depth_duration_stimuli/000917_2014-06-09_22-45-29_260595134347_rgbf000149-resize_3/000917_2014-06-09_22-45-29_260595134347_rgbf000149-resize_3-target.png,1000,4.1865,1,6083,1007,feet,jsons/v1_VE1000_randls_26_rotated.json,975754,2080307,55,Woman
2,547268,DepthScenes,duration_manipulation_targetAtFixation,jsons/v1_VE1000_randls_26_rotated.json,http://54.235.29.9/FacialAge/BNav_EC2/DepthDuration/v2_depth_duration_MTurk/v2_DepthDuration_HTML.html#263,263,1366,625,1366,768,8-29-2022,9-52-19,3,depth_duration_stimuli/002340_2014-06-28_20-05-46_260595134347_rgbf000113-resize_0/002340_2014-06-28_20-05-46_260595134347_rgbf000113-resize_0-target.png,1000,2.4735,4,6556,1006,feet,jsons/v1_VE1000_randls_26_rotated.json,975754,2080307,55,Woman
3,547268,DepthScenes,duration_manipulation_targetAtFixation,jsons/v1_VE1000_randls_26_rotated.json,http://54.235.29.9/FacialAge/BNav_EC2/DepthDuration/v2_depth_duration_MTurk/v2_DepthDuration_HTML.html#263,263,1366,625,1366,768,8-29-2022,9-52-19,4,depth_duration_stimuli/001016_2014-06-09_16-16-10_260595134347_rgbf000112-resize_5/001016_2014-06-09_16-16-10_260595134347_rgbf000112-resize_5-target.png,1000,1.6565,2,5653,990,feet,jsons/v1_VE1000_randls_26_rotated.json,975754,2080307,55,Woman
4,547268,DepthScenes,duration_manipulation_targetAtFixation,jsons/v1_VE1000_randls_26_rotated.json,http://54.235.29.9/FacialAge/BNav_EC2/DepthDuration/v2_depth_duration_MTurk/v2_DepthDuration_HTML.html#263,263,1366,625,1366,768,8-29-2022,9-52-19,5,depth_duration_stimuli/001828_2014-06-26_21-40-03_260595134347_rgbf000024-resize_0/001828_2014-06-26_21-40-03_260595134347_rgbf000024-resize_0-target.png,1000,4.8260000000000005,1,4719,1001,feet,jsons/v1_VE1000_randls_26_rotated.json,975754,2080307,55,Woman
5,547268,DepthScenes,duration_manipulation_targetAtFixation,jsons/v1_VE1000_randls_26_rotated.json,http://54.235.29.9/FacialAge/BNav_EC2/DepthDuration/v2_depth_duration_MTurk/v2_DepthDuration_HTML.html#263,263,1366,625,1366,768,8-29-2022,9-52-19,6,depth_duration_stimuli/000009_2014-05-26_14-32-05_260595134347_rgbf000034-resize_3/000009_2014-05-26_14-32-05_260595134347_rgbf000034-resize_3-target.png,1000,3.8715,4,10347,1006,feet,jsons/v1_VE1000_randls_26_rotated.json,975754,2080307,55,Woman
6,547268,DepthScenes,duration_manipulation_targetAtFixation,jsons/v1_VE1000_randls_26_rotated.json,http://54.235.29.9/FacialAge/BNav_EC2/DepthDuration/v2_depth_duration_MTurk/v2_DepthDuration_HTML.html#263,263,1366,625,1366,768,8-29-2022,9-52-19,7,depth_duration_stimuli/002103_2014-06-25_20-00-40_260595134347_rgbf000049-resize_0/002103_2014-06-25_20-00-40_260595134347_rgbf000049-resize_0-target.png,1000,4.105,1,4981,1010,feet,jsons/v1_VE1000_randls_26_rotated.json,975754,2080307,55,Woman
7,547268,DepthScenes,duration_manipulation_targetAtFixation,jsons/v1_VE1000_randls_26_rotated.json,http://54.235.29.9/FacialAge/BNav_EC2/DepthDuration/v2_depth_duration_MTurk/v2_DepthDuration_HTML.html#263,263,1366,625,1366,768,8-29-2022,9-52-19,8,depth_duration_stimuli/002039_2014-06-24_20-22-38_260595134347_rgbf000084-resize_1/002039_2014-06-24_20-22-38_260595134347_rgbf000084-resize_1-target.png,1000,4.408,1,4721,995,feet,jsons/v1_VE1000_randls_26_rotated.json,975754,2080307,55,Woman
8,547268,DepthScenes,duration_manipulation_targetAtFixation,jsons/v1_VE1000_randls_26_rotated.json,http://54.235.29.9/FacialAge/BNav_EC2/DepthDuration/v2_depth_duration_MTurk/v2_DepthDuration_HTML.html#263,263,1366,625,1366,768,8-29-2022,9-52-19,9,depth_duration_stimuli/000635_2014-06-08_16-38-42_260595134347_rgbf000106-resize_1/000635_2014-06-08_16-38-42_260595134347_rgbf000106-resize_1-target.png,1000,2.074,2,8252,1000,feet,jsons/v1_VE1000_randls_26_rotated.json,975754,2080307,55,Woman
9,547268,DepthScenes,duration_manipulation_targetAtFixation,jsons/v1_VE1000_randls_26_rotated.json,http://54.235.29.9/FacialAge/BNav_EC2/DepthDuration/v2_depth_duration_MTurk/v2_DepthDuration_HTML.html#263,263,1366,625,1366,768,8-29-2022,9-52-19,10,depth_duration_stimuli/002279_2014-06-28_18-55-32_260595134347_rgbf000040-resize_5/002279_2014-06-28_18-55-32_260595134347_rgbf000040-resize_5-target.png,1000,1.5043333333333,1,4296,1005,feet,jsons/v1_VE1000_randls_26_rotated.json,975754,2080307,55,Woman
10,547268,DepthScenes,duration_manipulation_targetAtFixation,jsons/v1_VE1000_randls_26_rotated.json,http://54.235.29.9/FacialAge/BNav_EC2/DepthDuration/v2_depth_duration_MTurk/v2_DepthDuration_HTML.html#263,263,1366,625,1366,768,8-29-2022,9-52-19,11,depth_duration_stimuli/003338_2014-05-20_11-01-23_094959634447_rgbf000051-resize_6/003338_2014-05-20_11-01-23_094959634447_rgbf000051-resize_6-target.png,1000,1.693,1,4120,1003,feet,jsons/v1_VE1000_randls_26_rotated.json,975754,2080307,55,Woman
11,547268,DepthScenes,duration_manipulation_targetAtFixation,jsons/v1_VE1000_randls_26_rotated.json,http://54.235.29.9/FacialAge/BNav_EC2/DepthDuration/v2_depth_duration_MTurk/v2_DepthDuration_HTML.html#263,263,1366,625,1366,768,8-29-2022,9-52-19,12,depth_duration_stimuli/002509_2014-06-24_13-19-22_094959634447_rgbf000077-resize_0/002509_2014-06-24_13-19-22_094959634447_rgbf000077-resize_0-target.png,1000,1.3065,2,5252,995,feet,jsons/v1_VE1000_randls_26_rotated.json,975754,2080307,55,Woman
12,547268,DepthScenes,duration_manipulation_targetAtFixation,jsons/v1_VE1000_randls_26_rotated.json,http://54.235.29.9/FacialAge/BNav_EC2/DepthDuration/v2_depth_duration_MTurk/v2_DepthDuration_HTML.html#263,263,1366,625,1366,768,8-29-2022,9-52-19,13,depth_duration_stimuli/000854_2014-06-09_19-43-13_260595134347_rgbf000066-resize_0/000854_2014-06-09_19-43-13_260595134347_rgbf000066-resize_0-target.png,1000,3.068,1,4042,1010,feet,jsons/v1_VE1000_randls_26_rotated.json,975754,2080307,55,Woman
13,547268,DepthScenes,duration_manipulation_targetAtFixation,jsons/v1_VE1000_randls_26_rotated.json,http://54.235.29.9/FacialAge/BNav_EC2/DepthDuration/v2_depth_duration_MTurk/v2_DepthDuration_HTML.html#263,263,1366,625,1366,768,8-29-2022,9-52-19,14,depth_duration_stimuli/000758_2014-06-08_22-05-08_260595134347_rgbf000085-resize_0/000758_2014-06-08_22-05-08_260595134347_rgbf000085-resize_0-target.png,1000,3.3810000000000002,1,3981,1006,feet,jsons/v1_VE1000_randls_26_rotated.json,975754,2080307,55,Woman
14,547268,DepthScenes,duration_manipulation_targetAtFixation,jsons/v1_VE1000_randls_26_rotated.json,http://54.235.29.9/FacialAge/BNav_EC2/DepthDuration/v2_depth_duration_MTurk/v2_DepthDuration_HTML.html#263,263,1366,625,1366,768,8-29-2022,9-52-19,15,depth_duration_stimuli/001447_2014-06-19_17-00-32_260595134347_rgbf000082-resize_5/001447_2014-06-19_17-00-32_260595134347_rgbf000082-resize_5-target.png,1000,4.13775,3,5027,1008,feet,jsons/v1_VE1000_randls_26_rotated.json,975754,2080307,55,Woman
15,547268,DepthScenes,duration_manipulation_targetAtFixation,jsons/v1_VE1000_randls_26_rotated.json,http://54.235.29.9/FacialAge/BNav_EC2/DepthDuration/v2_depth_duration_MTurk/v2_DepthDuration_HTML.html#263,263,1366,625,1366,768,8-29-2022,9-52-19,16,depth_duration_stimuli/000447_2014-06-08_16-15-46_260595134347_rgbf000130-resize_1/000447_2014-06-08_16-15-46_260595134347_rgbf000130-resize_1-target.png,1000,4.479,3,7009,1007,feet,jsons/v1_VE1000_randls_26_rotated.json,975754,2080307,55,Woman
16,547268,DepthScenes,duration_manipulation_targetAtFixation,jsons/v1_VE1000_randls_26_rotated.json,http://54.235.29.9/FacialAge/BNav_EC2/DepthDuration/v2_depth_duration_MTurk/v2_DepthDuration_HTML.html#263,263,1366,625,1366,768,8-29-2022,9-52-19,17,depth_duration_stimuli/001571_2014-06-20_17-21-32_260595134347_rgbf000089-resize_1/001571_2014-06-20_17-21-32_260595134347_rgbf000089-resize_1-target.png,1000,1.86,2,8279,1009,feet,jsons/v1_VE1000_randls_26_rotated.json,975754,2080307,55,Woman
17,547268,DepthScenes,duration_manipulation_targetAtFixation,jsons/v1_VE1000_randls_26_rotated.json,http://54.235.29.9/FacialAge/BNav_EC2/DepthDuration/v2_depth_duration_MTurk/v2_DepthDuration_HTML.html#263,263,1366,625,1366,768,8-29-2022,9-52-19,18,depth_duration_stimuli/002272_2014-06-28_18-53-56_260595134347_rgbf000067-resize_2/002272_2014-06-28_18-53-56_260595134347_rgbf000067-resize_2-target.png,1000,1.138,2,5671,992,feet,jsons/v1_VE1000_randls_26_rotated.json,975754,2080307,55,Woman
18,547268,DepthScenes,duration_manipulation_targetAtFixation,jsons/v1_VE1000_randls_26_rotated.json,http://54.235.29.9/FacialAge/BNav_EC2/DepthDuration/v2_depth_duration_MTurk/v2_DepthDuration_HTML.html#263,263,1366,625,1366,768,8-29-2022,9-52-19,19,depth_duration_stimuli/001498_2014-06-19_17-45-14_260595134347_rgbf000129-resize_4/001498_2014-06-19_17-45-14_260595134347_rgbf000129-resize-original.jpg,1000,1.4075,0,4405,1006,feet,jsons/v1_VE1000_randls_26_rotated.json,975754,2080307,55,Woman
19,547268,DepthScenes,duration_manipulation_targetAtFixation,jsons/v1_VE1000_randls_26_rotated.json,http://54.235.29.9/FacialAge/BNav_EC2/DepthDuration/v2_depth_duration_MTurk/v2_DepthDuration_HTML.html#263,263,1366,625,1366,768,8-29-2022,9-52-19,20,depth_duration_stimuli/001136_2014-06-17_15-19-41_260595134347_rgbf000076-resize_3/001136_2014-06-17_15-19-41_260595134347_rgbf000076-resize_3-target.png,1000,1.8655,2,6199,1005,feet,jsons/v1_VE1000_randls_26_rotated.json,975754,2080307,55,Woman
20,547268,DepthScenes,duration_manipulation_targetAtFixation,jsons/v1_VE1000_randls_26_rotated.json,http://54.235.29.9/FacialAge/BNav_EC2/DepthDuration/v2_depth_duration_MTurk/v2_DepthDuration_HTML.html#263,263,1366,625,1366,768,8-29-2022,9-52-19,21,depth_duration_stimuli/001164_2014-06-17_15-35-46_260595134347_rgbf000085-resize_3/001164_2014-06-17_15-35-46_260595134347_rgbf000085-resize_3-target.png,1000,2.354,2,6137,992,feet,jsons/v1_VE1000_randls_26_rotated.json,975754,2080307,55,Woman
21,547268,DepthScenes,duration_manipulation_targetAtFixation,jsons/v1_VE1000_randls_26_rotated.json,http://54.235.29.9/FacialAge/BNav_EC2/DepthDuration/v2_depth_duration_MTurk/v2_DepthDuration_HTML.html#263,263,1366,625,1366,768,8-29-2022,9-52-19,22,depth_duration_stimuli/001052_2014-06-08_18-24-54_260595134347_rgbf000130-resize_1/001052_2014-06-08_18-24-54_260595134347_rgbf000130-resize_1-target.png,1000,4.1045,4,8648,1008,feet,jsons/v1_VE1000_randls_26_rotated.json,975754,2080307,55,Woman
22,547268,DepthScenes,duration_manipulation_targetAtFixation,jsons/v1_VE1000_randls_26_rotated.json,http://54.235.29.9/FacialAge/BNav_EC2/DepthDuration/v2_depth_duration_MTurk/v2_DepthDuration_HTML.html#263,263,1366,625,1366,768,8-29-2022,9-52-19,23,depth_duration_stimuli/002988_2014-06-15_12-24-20_094959634447_rgbf000150-resize_1/002988_2014-06-15_12-24-20_094959634447_rgbf000150-resize_1-target.png,1000,4.7669999999999995,4,4519,1010,feet,jsons/v1_VE1000_randls_26_rotated.json,975754,2080307,55,Woman
23,547268,DepthScenes,duration_manipulation_targetAtFixation,jsons/v1_VE1000_randls_26_rotated.json,http://54.235.29.9/FacialAge/BNav_EC2/DepthDuration/v2_depth_duration_MTurk/v2_DepthDuration_HTML.html#263,263,1366,625,1366,768,8-29-2022,9-52-19,24,depth_duration_stimuli/003423_2014-05-21_10-23-26_094959634447_rgbf002665-resize_2/003423_2014-05-21_10-23-26_094959634447_rgbf002665-resize_2-target.png,1000,3.2575,1,6874,1004,feet,jsons/v1_VE1000_randls_26_rotated.json,975754,2080307,55,Woman
24,547268,DepthScenes,duration_manipulation_targetAtFixation,jsons/v1_VE1000_randls_26_rotated.json,http://54.235.29.9/FacialAge/BNav_EC2/DepthDuration/v2_depth_duration_MTurk/v2_DepthDuration_HTML.html#263,263,1366,625,1366,768,8-29-2022,9-52-19,25,depth_duration_stimuli/002905_2014-06-03_18-04-43_094959634447_rgbf000151-resize_2/002905_2014-06-03_18-04-43_094959634447_rgbf000151-resize_2-target.png,1000,2.0295,2,5593,1002,feet,jsons/v1_VE1000_randls_26_rotated.json,975754,2080307,55,Woman
25,547268,DepthScenes,duration_manipulation_targetAtFixation,jsons/v1_VE1000_randls_26_rotated.json,http://54.235.29.9/FacialAge/BNav_EC2/DepthDuration/v2_depth_duration_MTurk/v2_DepthDuration_HTML.html#263,263,1366,625,1366,768,8-29-2022,9-52-19,26,depth_duration_stimuli/001094_2014-06-15_17-36-00_260595134347_rgbf000205-resize_0/001094_2014-06-15_17-36-00_260595134347_rgbf000205-resize_0-target.png,1000,4.2175,2,5777,1009,feet,jsons/v1_VE1000_randls_26_rotated.json,975754,2080307,55,Woman
26,547268,DepthScenes,duration_manipulation_targetAtFixation,jsons/v1_VE1000_randls_26_rotated.json,http://54.235.29.9/FacialAge/BNav_EC2/DepthDuration/v2_depth_duration_MTurk/v2_DepthDuration_HTML.html#263,263,1366,625,1366,768,8-29-2022,9-52-19,27,depth_duration_stimuli/000692_2014-06-08_13-09-42_260595134347_rgbf000199-resize_2/000692_2014-06-08_13-09-42_260595134347_rgbf000199-resize_2-target.png,1000,3.661,4,4907,996,feet,jsons/v1_VE1000_randls_26_rotated.json,975754,2080307,55,Woman
27,547268,DepthScenes,duration_manipulation_targetAtFixation,jsons/v1_VE1000_randls_26_rotated.json,http://54.235.29.9/FacialAge/BNav_EC2/DepthDuration/v2_depth_duration_MTurk/v2_DepthDuration_HTML.html#263,263,1366,625,1366,768,8-29-2022,9-52-19,28,depth_duration_stimuli/000109_2014-05-14_23-41-52_260595134347_rgbf000035-resize_9/000109_2014-05-14_23-41-52_260595134347_rgbf000035-resize_9-target.png,1000,1.3545,1,4648,989,feet,jsons/v1_VE1000_randls_26_rotated.json,975754,2080307,55,Woman
28,547268,DepthScenes,duration_manipulation_targetAtFixation,jsons/v1_VE1000_randls_26_rotated.json,http://54.235.29.9/FacialAge/BNav_EC2/DepthDuration/v2_depth_duration_MTurk/v2_DepthDuration_HTML.html#263,263,1366,625,1366,768,8-29-2022,9-52-19,29,depth_duration_stimuli/000470_2014-06-09_19-42-40_260595134347_rgbf000094-resize_1/000470_2014-06-09_19-42-40_260595134347_rgbf000094-resize_1-target.png,1000,1.831,2,3957,985,feet,jsons/v1_VE1000_randls_26_rotated.json,975754,2080307,55,Woman
29,547268,DepthScenes,duration_manipulation_targetAtFixation,jsons/v1_VE1000_randls_26_rotated.json,http://54.235.29.9/FacialAge/BNav_EC2/DepthDuration/v2_depth_duration_MTurk/v2_DepthDuration_HTML.html#263,263,1366,625,1366,768,8-29-2022,9-52-19,30,depth_duration_stimuli/002072_2014-06-24_21-48-06_260595134347_rgbf000115-resize_0/002072_2014-06-24_21-48-06_260595134347_rgbf000115-resize-original.jpg,1000,4.702,0,6012,996,feet,jsons/v1_VE1000_randls_26_rotated.json,975754,2080307,55,Woman
30,547268,DepthScenes,duration_manipulation_targetAtFixation,jsons/v1_VE1000_randls_26_rotated.json,http://54.235.29.9/FacialAge/BNav_EC2/DepthDuration/v2_depth_duration_MTurk/v2_DepthDuration_HTML.html#263,263,1366,625,1366,768,8-29-2022,9-52-19,31,depth_duration_stimuli/002660_2014-06-13_15-44-18_094959634447_rgbf001878-resize_2/002660_2014-06-13_15-44-18_094959634447_rgbf001878-resize_2-target.png,1000,3.576,2,7219,1006,feet,jsons/v1_VE1000_randls_26_rotated.json,975754,2080307,55,Woman
31,547268,DepthScenes,duration_manipulation_targetAtFixation,jsons/v1_VE1000_randls_26_rotated.json,http://54.235.29.9/FacialAge/BNav_EC2/DepthDuration/v2_depth_duration_MTurk/v2_DepthDuration_HTML.html#263,263,1366,625,1366,768,8-29-2022,9-52-19,32,depth_duration_stimuli/002153_2014-06-25_21-27-18_260595134347_rgbf000038-resize_5/002153_2014-06-25_21-27-18_260595134347_rgbf000038-resize_5-target.png,1000,2.505,1,4025,991,feet,jsons/v1_VE1000_randls_26_rotated.json,975754,2080307,55,Woman
32,547268,DepthScenes,duration_manipulation_targetAtFixation,jsons/v1_VE1000_randls_26_rotated.json,http://54.235.29.9/FacialAge/BNav_EC2/DepthDuration/v2_depth_duration_MTurk/v2_DepthDuration_HTML.html#263,263,1366,625,1366,768,8-29-2022,9-52-19,33,depth_duration_stimuli/000677_2014-06-08_23-10-32_260595134347_rgbf000158-resize_6/000677_2014-06-08_23-10-32_260595134347_rgbf000158-resize_6-target.png,1000,3.556,2,5197,1006,feet,jsons/v1_VE1000_randls_26_rotated.json,975754,2080307,55,Woman
33,547268,DepthScenes,duration_manipulation_targetAtFixation,jsons/v1_VE1000_randls_26_rotated.json,http://54.235.29.9/FacialAge/BNav_EC2/DepthDuration/v2_depth_duration_MTurk/v2_DepthDuration_HTML.html#263,263,1366,625,1366,768,8-29-2022,9-52-19,34,depth_duration_stimuli/001029_2014-06-08_13-17-57_260595134347_rgbf000065-resize_1/001029_2014-06-08_13-17-57_260595134347_rgbf000065-resize_1-target.png,1000,3.0835,2,6632,997,feet,jsons/v1_VE1000_randls_26_rotated.json,975754,2080307,55,Woman
34,547268,DepthScenes,duration_manipulation_targetAtFixation,jsons/v1_VE1000_randls_26_rotated.json,http://54.235.29.9/FacialAge/BNav_EC2/DepthDuration/v2_depth_duration_MTurk/v2_DepthDuration_HTML.html#263,263,1366,625,1366,768,8-29-2022,9-52-19,35,depth_duration_stimuli/000549_2014-06-08_22-10-24_260595134347_rgbf000247-resize_3/000549_2014-06-08_22-10-24_260595134347_rgbf000247-resize_3-target.png,1000,1.841,1,4056,996,feet,jsons/v1_VE1000_randls_26_rotated.json,975754,2080307,55,Woman
35,547268,DepthScenes,duration_manipulation_targetAtFixation,jsons/v1_VE1000_randls_26_rotated.json,http://54.235.29.9/FacialAge/BNav_EC2/DepthDuration/v2_depth_duration_MTurk/v2_DepthDuration_HTML.html#263,263,1366,625,1366,768,8-29-2022,9-52-19,36,depth_duration_stimuli/001055_2014-06-08_18-45-35_260595134347_rgbf000111-resize_4/001055_2014-06-08_18-45-35_260595134347_rgbf000111-resize_4-target.png,1000,2.4290000000000003,3,4854,1007,feet,jsons/v1_VE1000_randls_26_rotated.json,975754,2080307,55,Woman
36,547268,DepthScenes,duration_manipulation_targetAtFixation,jsons/v1_VE1000_randls_26_rotated.json,http://54.235.29.9/FacialAge/BNav_EC2/DepthDuration/v2_depth_duration_MTurk/v2_DepthDuration_HTML.html#263,263,1366,625,1366,768,8-29-2022,9-52-19,37,depth_duration_stimuli/001450_2014-06-19_17-02-03_260595134347_rgbf000203-resize_4/001450_2014-06-19_17-02-03_260595134347_rgbf000203-resize_4-target.png,1000,4.0106666666667,3,5827,991,feet,jsons/v1_VE1000_randls_26_rotated.json,975754,2080307,55,Woman
37,547268,DepthScenes,duration_manipulation_targetAtFixation,jsons/v1_VE1000_randls_26_rotated.json,http://54.235.29.9/FacialAge/BNav_EC2/DepthDuration/v2_depth_duration_MTurk/v2_DepthDuration_HTML.html#263,263,1366,625,1366,768,8-29-2022,9-52-19,38,depth_duration_stimuli/001449_2014-06-19_17-01-27_260595134347_rgbf000116-resize_2/001449_2014-06-19_17-01-27_260595134347_rgbf000116-resize_2-target.png,1000,3.452,2,4487,997,feet,jsons/v1_VE1000_randls_26_rotated.json,975754,2080307,55,Woman
38,547268,DepthScenes,duration_manipulation_targetAtFixation,jsons/v1_VE1000_randls_26_rotated.json,http://54.235.29.9/FacialAge/BNav_EC2/DepthDuration/v2_depth_duration_MTurk/v2_DepthDuration_HTML.html#263,263,1366,625,1366,768,8-29-2022,9-52-19,39,depth_duration_stimuli/002467_2014-06-28_20-38-07_260595134347_rgbf000026-resize_2/002467_2014-06-28_20-38-07_260595134347_rgbf000026-resize_2-target.png,1000,4.742,3,5685,1009,feet,jsons/v1_VE1000_randls_26_rotated.json,975754,2080307,55,Woman
39,547268,DepthScenes,duration_manipulation_targetAtFixation,jsons/v1_VE1000_randls_26_rotated.json,http://54.235.29.9/FacialAge/BNav_EC2/DepthDuration/v2_depth_duration_MTurk/v2_DepthDuration_HTML.html#263,263,1366,625,1366,768,8-29-2022,9-52-19,40,depth_duration_stimuli/002570_2014-06-24_13-59-54_094959634447_rgbf000059-resize_0/002570_2014-06-24_13-59-54_094959634447_rgbf000059-resize_0-target.png,1000,4.037,1,4572,993,feet,jsons/v1_VE1000_randls_26_rotated.json,975754,2080307,55,Woman
40,547268,DepthScenes,duration_manipulation_targetAtFixation,jsons/v1_VE1000_randls_26_rotated.json,http://54.235.29.9/FacialAge/BNav_EC2/DepthDuration/v2_depth_duration_MTurk/v2_DepthDuration_HTML.html#263,263,1366,625,1366,768,8-29-2022,9-52-19,41,depth_duration_stimuli/000137_2014-05-20_17-04-49_260595134347_rgbf000120-resize_1/000137_2014-05-20_17-04-49_260595134347_rgbf000120-resize_1-target.png,1000,3.786,2,6373,994,feet,jsons/v1_VE1000_randls_26_rotated.json,975754,2080307,55,Woman
41,547268,DepthScenes,duration_manipulation_targetAtFixation,jsons/v1_VE1000_randls_26_rotated.json,http://54.235.29.9/FacialAge/BNav_EC2/DepthDuration/v2_depth_duration_MTurk/v2_DepthDuration_HTML.html#263,263,1366,625,1366,768,8-29-2022,9-52-19,42,depth_duration_stimuli/000736_2014-06-08_18-24-15_260595134347_rgbf000206-resize_3/000736_2014-06-08_18-24-15_260595134347_rgbf000206-resize_3-target.png,1000,3.515,1,4362,991,feet,jsons/v1_VE1000_randls_26_rotated.json,975754,2080307,55,Woman
42,547268,DepthScenes,duration_manipulation_targetAtFixation,jsons/v1_VE1000_randls_26_rotated.json,http://54.235.29.9/FacialAge/BNav_EC2/DepthDuration/v2_depth_duration_MTurk/v2_DepthDuration_HTML.html#263,263,1366,625,1366,768,8-29-2022,9-52-19,43,depth_duration_stimuli/002136_2014-06-25_21-18-03_260595134347_rgbf000109-resize_3/002136_2014-06-25_21-18-03_260595134347_rgbf000109-resize_3-target.png,1000,1.9569999999999999,3,7894,1010,feet,jsons/v1_VE1000_randls_26_rotated.json,975754,2080307,55,Woman
43,547268,DepthScenes,duration_manipulation_targetAtFixation,jsons/v1_VE1000_randls_26_rotated.json,http://54.235.29.9/FacialAge/BNav_EC2/DepthDuration/v2_depth_duration_MTurk/v2_DepthDuration_HTML.html#263,263,1366,625,1366,768,8-29-2022,9-52-19,44,depth_duration_stimuli/002964_2014-06-08_17-46-11_094959634447_rgbf000091-resize_4/002964_2014-06-08_17-46-11_094959634447_rgbf000091-resize_4-target.png,1000,1.6909999999999998,2,6387,998,feet,jsons/v1_VE1000_randls_26_rotated.json,975754,2080307,55,Woman
44,547268,DepthScenes,duration_manipulation_targetAtFixation,jsons/v1_VE1000_randls_26_rotated.json,http://54.235.29.9/FacialAge/BNav_EC2/DepthDuration/v2_depth_duration_MTurk/v2_DepthDuration_HTML.html#263,263,1366,625,1366,768,8-29-2022,9-52-19,45,depth_duration_stimuli/003079_2014-06-15_15-18-20_094959634447_rgbf000152-resize_8/003079_2014-06-15_15-18-20_094959634447_rgbf000152-resize_8-target.png,1000,2.8775,4,5285,1006,feet,jsons/v1_VE1000_randls_26_rotated.json,975754,2080307,55,Woman
45,547268,DepthScenes,duration_manipulation_targetAtFixation,jsons/v1_VE1000_randls_26_rotated.json,http://54.235.29.9/FacialAge/BNav_EC2/DepthDuration/v2_depth_duration_MTurk/v2_DepthDuration_HTML.html#263,263,1366,625,1366,768,8-29-2022,9-52-19,46,depth_duration_stimuli/000506_2014-06-08_23-21-00_260595134347_rgbf000070-resize_7/000506_2014-06-08_23-21-00_260595134347_rgbf000070-resize_7-target.png,1000,4.0585,3,4900,1004,feet,jsons/v1_VE1000_randls_26_rotated.json,975754,2080307,55,Woman
46,547268,DepthScenes,duration_manipulation_targetAtFixation,jsons/v1_VE1000_randls_26_rotated.json,http://54.235.29.9/FacialAge/BNav_EC2/DepthDuration/v2_depth_duration_MTurk/v2_DepthDuration_HTML.html#263,263,1366,625,1366,768,8-29-2022,9-52-19,47,depth_duration_stimuli/000502_2014-06-08_23-02-32_260595134347_rgbf000063-resize_4/000502_2014-06-08_23-02-32_260595134347_rgbf000063-resize_4-target.png,1000,2.431,2,5195,1011,feet,jsons/v1_VE1000_randls_26_rotated.json,975754,2080307,55,Woman
47,547268,DepthScenes,duration_manipulation_targetAtFixation,jsons/v1_VE1000_randls_26_rotated.json,http://54.235.29.9/FacialAge/BNav_EC2/DepthDuration/v2_depth_duration_MTurk/v2_DepthDuration_HTML.html#263,263,1366,625,1366,768,8-29-2022,9-52-19,48,depth_duration_stimuli/001199_2014-06-17_16-03-48_260595134347_rgbf000077-resize_0/001199_2014-06-17_16-03-48_260595134347_rgbf000077-resize_0-target.png,1000,3.4375,3,4813,1008,feet,jsons/v1_VE1000_randls_26_rotated.json,975754,2080307,55,Woman
48,547268,DepthScenes,duration_manipulation_targetAtFixation,jsons/v1_VE1000_randls_26_rotated.json,http://54.235.29.9/FacialAge/BNav_EC2/DepthDuration/v2_depth_duration_MTurk/v2_DepthDuration_HTML.html#263,263,1366,625,1366,768,8-29-2022,9-52-19,49,depth_duration_stimuli/001170_2014-06-17_15-43-44_260595134347_rgbf000096-resize_6/001170_2014-06-17_15-43-44_260595134347_rgbf000096-resize-original.jpg,1000,1.1909999999999998,0,4533,1005,feet,jsons/v1_VE1000_randls_26_rotated.json,975754,2080307,55,Woman
49,547268,DepthScenes,duration_manipulation_targetAtFixation,jsons/v1_VE1000_randls_26_rotated.json,http://54.235.29.9/FacialAge/BNav_EC2/DepthDuration/v2_depth_duration_MTurk/v2_DepthDuration_HTML.html#263,263,1366,625,1366,768,8-29-2022,9-52-19,50,depth_duration_stimuli/002199_2014-06-28_18-33-56_260595134347_rgbf000074-resize_0/002199_2014-06-28_18-33-56_260595134347_rgbf000074-resize_0-target.png,1000,1.996,3,5052,1007,feet,jsons/v1_VE1000_randls_26_rotated.json,975754,2080307,55,Woman
50,547268,DepthScenes,duration_manipulation_targetAtFixation,jsons/v1_VE1000_randls_26_rotated.json,http://54.235.29.9/FacialAge/BNav_EC2/DepthDuration/v2_depth_duration_MTurk/v2_DepthDuration_HTML.html#263,263,1366,625,1366,768,8-29-2022,9-52-19,51,depth_duration_stimuli/001056_2014-06-08_18-46-44_260595134347_rgbf000068-resize_0/001056_2014-06-08_18-46-44_260595134347_rgbf000068-resize_0-target.png,1000,2.6625,3,3758,1004,feet,jsons/v1_VE1000_randls_26_rotated.json,975754,2080307,55,Woman
51,547268,DepthScenes,duration_manipulation_targetAtFixation,jsons/v1_VE1000_randls_26_rotated.json,http://54.235.29.9/FacialAge/BNav_EC2/DepthDuration/v2_depth_duration_MTurk/v2_DepthDuration_HTML.html#263,263,1366,625,1366,768,8-29-2022,9-52-19,52,depth_duration_stimuli/003081_2014-06-15_15-19-16_094959634447_rgbf000150-resize_1/003081_2014-06-15_15-19-16_094959634447_rgbf000150-resize_1-target.png,1000,3.9125,4,4635,1007,feet,jsons/v1_VE1000_randls_26_rotated.json,975754,2080307,55,Woman
52,547268,DepthScenes,duration_manipulation_targetAtFixation,jsons/v1_VE1000_randls_26_rotated.json,http://54.235.29.9/FacialAge/BNav_EC2/DepthDuration/v2_depth_duration_MTurk/v2_DepthDuration_HTML.html#263,263,1366,625,1366,768,8-29-2022,9-52-19,53,depth_duration_stimuli/001417_2014-06-19_16-25-36_260595134347_rgbf000115-resize_5/001417_2014-06-19_16-25-36_260595134347_rgbf000115-resize_5-target.png,1000,4.6255,3,4695,987,feet,jsons/v1_VE1000_randls_26_rotated.json,975754,2080307,55,Woman
53,547268,DepthScenes,duration_manipulation_targetAtFixation,jsons/v1_VE1000_randls_26_rotated.json,http://54.235.29.9/FacialAge/BNav_EC2/DepthDuration/v2_depth_duration_MTurk/v2_DepthDuration_HTML.html#263,263,1366,625,1366,768,8-29-2022,9-52-19,54,depth_duration_stimuli/002209_2014-06-28_18-36-10_260595134347_rgbf000051-resize_1/002209_2014-06-28_18-36-10_260595134347_rgbf000051-resize_1-target.png,1000,2.057,4,5379,1008,feet,jsons/v1_VE1000_randls_26_rotated.json,975754,2080307,55,Woman
54,547268,DepthScenes,duration_manipulation_targetAtFixation,jsons/v1_VE1000_randls_26_rotated.json,http://54.235.29.9/FacialAge/BNav_EC2/DepthDuration/v2_depth_duration_MTurk/v2_DepthDuration_HTML.html#263,263,1366,625,1366,768,8-29-2022,9-52-19,55,depth_duration_stimuli/002763_2014-06-22_19-13-10_094959634447_rgbf000075-resize_4/002763_2014-06-22_19-13-10_094959634447_rgbf000075-resize_4-target.png,1000,1.68375,3,6933,1004,feet,jsons/v1_VE1000_randls_26_rotated.json,975754,2080307,55,Woman
55,547268,DepthScenes,duration_manipulation_targetAtFixation,jsons/v1_VE1000_randls_26_rotated.json,http://54.235.29.9/FacialAge/BNav_EC2/DepthDuration/v2_depth_duration_MTurk/v2_DepthDuration_HTML.html#263,263,1366,625,1366,768,8-29-2022,9-52-19,56,depth_duration_stimuli/002995_2014-06-15_12-31-26_094959634447_rgbf000150-resize_1/002995_2014-06-15_12-31-26_094959634447_rgbf000150-resize_1-target.png,1000,3.8360000000000003,3,5186,1008,feet,jsons/v1_VE1000_randls_26_rotated.json,975754,2080307,55,Woman
56,547268,DepthScenes,duration_manipulation_targetAtFixation,jsons/v1_VE1000_randls_26_rotated.json,http://54.235.29.9/FacialAge/BNav_EC2/DepthDuration/v2_depth_duration_MTurk/v2_DepthDuration_HTML.html#263,263,1366,625,1366,768,8-29-2022,9-52-19,57,depth_duration_stimuli/002748_2014-06-22_19-07-22_094959634447_rgbf000078-resize_1/002748_2014-06-22_19-07-22_094959634447_rgbf000078-resize_1-target.png,1000,4.6705,5,5980,1006,feet,jsons/v1_VE1000_randls_26_rotated.json,975754,2080307,55,Woman
57,547268,DepthScenes,duration_manipulation_targetAtFixation,jsons/v1_VE1000_randls_26_rotated.json,http://54.235.29.9/FacialAge/BNav_EC2/DepthDuration/v2_depth_duration_MTurk/v2_DepthDuration_HTML.html#263,263,1366,625,1366,768,8-29-2022,9-52-19,58,depth_duration_stimuli/001032_2014-06-08_13-23-17_260595134347_rgbf000021-resize_3/001032_2014-06-08_13-23-17_260595134347_rgbf000021-resize_3-target.png,1000,3.2725,1,5354,999,feet,jsons/v1_VE1000_randls_26_rotated.json,975754,2080307,55,Woman
58,547268,DepthScenes,duration_manipulation_targetAtFixation,jsons/v1_VE1000_randls_26_rotated.json,http://54.235.29.9/FacialAge/BNav_EC2/DepthDuration/v2_depth_duration_MTurk/v2_DepthDuration_HTML.html#263,263,1366,625,1366,768,8-29-2022,9-52-19,59,depth_duration_stimuli/001059_2014-06-08_21-53-27_260595134347_rgbf000061-resize_4/001059_2014-06-08_21-53-27_260595134347_rgbf000061-resize_4-target.png,1000,2.4185,4,6877,996,feet,jsons/v1_VE1000_randls_26_rotated.json,975754,2080307,55,Woman
59,547268,DepthScenes,duration_manipulation_targetAtFixation,jsons/v1_VE1000_randls_26_rotated.json,http://54.235.29.9/FacialAge/BNav_EC2/DepthDuration/v2_depth_duration_MTurk/v2_DepthDuration_HTML.html#263,263,1366,625,1366,768,8-29-2022,9-52-19,60,depth_duration_stimuli/001584_2014-06-20_11-07-43_260595134347_rgbf000002-resize_1/001584_2014-06-20_11-07-43_260595134347_rgbf000002-resize_1-target.png,1000,3.53,4,3854,1008,feet,jsons/v1_VE1000_randls_26_rotated.json,975754,2080307,55,Woman
60,547268,DepthScenes,duration_manipulation_targetAtFixation,jsons/v1_VE1000_randls_26_rotated.json,http://54.235.29.9/FacialAge/BNav_EC2/DepthDuration/v2_depth_duration_MTurk/v2_DepthDuration_HTML.html#263,263,1366,625,1366,768,8-29-2022,9-52-19,61,depth_duration_stimuli/003621_2014-05-23_18-06-08_094959634447_rgbf000101-resize_1/003621_2014-05-23_18-06-08_094959634447_rgbf000101-resize_1-target.png,1000,3.9835,4,3701,1006,feet,jsons/v1_VE1000_randls_26_rotated.json,975754,2080307,55,Woman
61,547268,DepthScenes,duration_manipulation_targetAtFixation,jsons/v1_VE1000_randls_26_rotated.json,http://54.235.29.9/FacialAge/BNav_EC2/DepthDuration/v2_depth_duration_MTurk/v2_DepthDuration_HTML.html#263,263,1366,625,1366,768,8-29-2022,9-52-19,62,depth_duration_stimuli/002568_2014-06-24_13-59-21_094959634447_rgbf000062-resize_4/002568_2014-06-24_13-59-21_094959634447_rgbf000062-resize_4-target.png,1000,3.015,4,5929,987,feet,jsons/v1_VE1000_randls_26_rotated.json,975754,2080307,55,Woman
62,547268,DepthScenes,duration_manipulation_targetAtFixation,jsons/v1_VE1000_randls_26_rotated.json,http://54.235.29.9/FacialAge/BNav_EC2/DepthDuration/v2_depth_duration_MTurk/v2_DepthDuration_HTML.html#263,263,1366,625,1366,768,8-29-2022,9-52-19,63,depth_duration_stimuli/003492_2014-05-21_15-50-55_094959634447_rgbf000828-resize_1/003492_2014-05-21_15-50-55_094959634447_rgbf000828-resize_1-target.png,1000,4.06875,4,5933,1000,feet,jsons/v1_VE1000_randls_26_rotated.json,975754,2080307,55,Woman
63,547268,DepthScenes,duration_manipulation_targetAtFixation,jsons/v1_VE1000_randls_26_rotated.json,http://54.235.29.9/FacialAge/BNav_EC2/DepthDuration/v2_depth_duration_MTurk/v2_DepthDuration_HTML.html#263,263,1366,625,1366,768,8-29-2022,9-52-19,64,depth_duration_stimuli/001815_2014-06-26_20-52-55_260595134347_rgbf000020-resize_0/001815_2014-06-26_20-52-55_260595134347_rgbf000020-resize_0-target.png,1000,3.3865,5,4952,1006,feet,jsons/v1_VE1000_randls_26_rotated.json,975754,2080307,55,Woman
64,547268,DepthScenes,duration_manipulation_targetAtFixation,jsons/v1_VE1000_randls_26_rotated.json,http://54.235.29.9/FacialAge/BNav_EC2/DepthDuration/v2_depth_duration_MTurk/v2_DepthDuration_HTML.html#263,263,1366,625,1366,768,8-29-2022,9-52-19,65,depth_duration_stimuli/001808_2014-06-26_20-50-58_260595134347_rgbf000029-resize_1/001808_2014-06-26_20-50-58_260595134347_rgbf000029-resize_1-target.png,1000,4.249,5,3781,995,feet,jsons/v1_VE1000_randls_26_rotated.json,975754,2080307,55,Woman
65,547268,DepthScenes,duration_manipulation_targetAtFixation,jsons/v1_VE1000_randls_26_rotated.json,http://54.235.29.9/FacialAge/BNav_EC2/DepthDuration/v2_depth_duration_MTurk/v2_DepthDuration_HTML.html#263,263,1366,625,1366,768,8-29-2022,9-52-19,66,depth_duration_stimuli/001540_2014-06-20_17-01-05_260595134347_rgbf000086-resize_2/001540_2014-06-20_17-01-05_260595134347_rgbf000086-resize-original.jpg,1000,1.459,0,4536,1007,feet,jsons/v1_VE1000_randls_26_rotated.json,975754,2080307,55,Woman
66,547268,DepthScenes,duration_manipulation_targetAtFixation,jsons/v1_VE1000_randls_26_rotated.json,http://54.235.29.9/FacialAge/BNav_EC2/DepthDuration/v2_depth_duration_MTurk/v2_DepthDuration_HTML.html#263,263,1366,625,1366,768,8-29-2022,9-52-19,67,depth_duration_stimuli/003490_2014-05-21_15-50-11_094959634447_rgbf000101-resize_3/003490_2014-05-21_15-50-11_094959634447_rgbf000101-resize_3-target.png,1000,3.6445,4,5272,998,feet,jsons/v1_VE1000_randls_26_rotated.json,975754,2080307,55,Woman
67,547268,DepthScenes,duration_manipulation_targetAtFixation,jsons/v1_VE1000_randls_26_rotated.json,http://54.235.29.9/FacialAge/BNav_EC2/DepthDuration/v2_depth_duration_MTurk/v2_DepthDuration_HTML.html#263,263,1366,625,1366,768,8-29-2022,9-52-19,68,depth_duration_stimuli/001175_2014-06-17_15-45-55_260595134347_rgbf000129-resize_4/001175_2014-06-17_15-45-55_260595134347_rgbf000129-resize_4-target.png,1000,4.255,4,6020,999,feet,jsons/v1_VE1000_randls_26_rotated.json,975754,2080307,55,Woman
68,547268,DepthScenes,duration_manipulation_targetAtFixation,jsons/v1_VE1000_randls_26_rotated.json,http://54.235.29.9/FacialAge/BNav_EC2/DepthDuration/v2_depth_duration_MTurk/v2_DepthDuration_HTML.html#263,263,1366,625,1366,768,8-29-2022,9-52-19,69,depth_duration_stimuli/003083_2014-06-15_15-21-03_094959634447_rgbf000063-resize_1/003083_2014-06-15_15-21-03_094959634447_rgbf000063-resize_1-target.png,1000,4.1405,5,7439,1005,feet,jsons/v1_VE1000_randls_26_rotated.json,975754,2080307,55,Woman
69,547268,DepthScenes,duration_manipulation_targetAtFixation,jsons/v1_VE1000_randls_26_rotated.json,http://54.235.29.9/FacialAge/BNav_EC2/DepthDuration/v2_depth_duration_MTurk/v2_DepthDuration_HTML.html#263,263,1366,625,1366,768,8-29-2022,9-52-19,70,depth_duration_stimuli/000486_2014-06-09_20-47-20_260595134347_rgbf000143-resize_2/000486_2014-06-09_20-47-20_260595134347_rgbf000143-resize_2-target.png,1000,4.8325,4,6510,1007,feet,jsons/v1_VE1000_randls_26_rotated.json,975754,2080307,55,Woman
70,547268,DepthScenes,duration_manipulation_targetAtFixation,jsons/v1_VE1000_randls_26_rotated.json,http://54.235.29.9/FacialAge/BNav_EC2/DepthDuration/v2_depth_duration_MTurk/v2_DepthDuration_HTML.html#263,263,1366,625,1366,768,8-29-2022,9-52-19,71,depth_duration_stimuli/002639_2014-06-24_14-51-37_094959634447_rgbf000074-resize_4/002639_2014-06-24_14-51-37_094959634447_rgbf000074-resize_4-target.png,1000,4.0375,4,4538,986,feet,jsons/v1_VE1000_randls_26_rotated.json,975754,2080307,55,Woman
71,547268,DepthScenes,duration_manipulation_targetAtFixation,jsons/v1_VE1000_randls_26_rotated.json,http://54.235.29.9/FacialAge/BNav_EC2/DepthDuration/v2_depth_duration_MTurk/v2_DepthDuration_HTML.html#263,263,1366,625,1366,768,8-29-2022,9-52-19,72,depth_duration_stimuli/003292_2014-05-14_21-53-49_094959634447_rgbf000100-resize_2/003292_2014-05-14_21-53-49_094959634447_rgbf000100-resize_2-target.png,1000,3.4815,3,5933,989,feet,jsons/v1_VE1000_randls_26_rotated.json,975754,2080307,55,Woman
72,547268,DepthScenes,duration_manipulation_targetAtFixation,jsons/v1_VE1000_randls_26_rotated.json,http://54.235.29.9/FacialAge/BNav_EC2/DepthDuration/v2_depth_duration_MTurk/v2_DepthDuration_HTML.html#263,263,1366,625,1366,768,8-29-2022,9-52-19,73,depth_duration_stimuli/001650_2014-06-20_12-09-00_260595134347_rgbf000087-resize_3/001650_2014-06-20_12-09-00_260595134347_rgbf000087-resize_3-target.png,1000,1.9505,2,6576,1006,feet,jsons/v1_VE1000_randls_26_rotated.json,975754,2080307,55,Woman
73,547268,DepthScenes,duration_manipulation_targetAtFixation,jsons/v1_VE1000_randls_26_rotated.json,http://54.235.29.9/FacialAge/BNav_EC2/DepthDuration/v2_depth_duration_MTurk/v2_DepthDuration_HTML.html#263,263,1366,625,1366,768,8-29-2022,9-52-19,74,depth_duration_stimuli/000682_2014-06-08_23-14-58_260595134347_rgbf000041-resize_5/000682_2014-06-08_23-14-58_260595134347_rgbf000041-resize_5-target.png,1000,2.7239999999999998,2,4529,1006,feet,jsons/v1_VE1000_randls_26_rotated.json,975754,2080307,55,Woman
74,547268,DepthScenes,duration_manipulation_targetAtFixation,jsons/v1_VE1000_randls_26_rotated.json,http://54.235.29.9/FacialAge/BNav_EC2/DepthDuration/v2_depth_duration_MTurk/v2_DepthDuration_HTML.html#263,263,1366,625,1366,768,8-29-2022,9-52-19,75,depth_duration_stimuli/002657_2014-06-13_15-29-54_094959634447_rgbf000150-resize_1/002657_2014-06-13_15-29-54_094959634447_rgbf000150-resize_1-target.png,1000,4.919,3,6814,988,feet,jsons/v1_VE1000_randls_26_rotated.json,975754,2080307,55,Woman
75,547268,DepthScenes,duration_manipulation_targetAtFixation,jsons/v1_VE1000_randls_26_rotated.json,http://54.235.29.9/FacialAge/BNav_EC2/DepthDuration/v2_depth_duration_MTurk/v2_DepthDuration_HTML.html#263,263,1366,625,1366,768,8-29-2022,9-52-19,76,depth_duration_stimuli/002375_2014-06-28_20-13-44_260595134347_rgbf000032-resize_1/002375_2014-06-28_20-13-44_260595134347_rgbf000032-resize_1-target.png,1000,4.0175,3,5856,1007,feet,jsons/v1_VE1000_randls_26_rotated.json,975754,2080307,55,Woman
76,547268,DepthScenes,duration_manipulation_targetAtFixation,jsons/v1_VE1000_randls_26_rotated.json,http://54.235.29.9/FacialAge/BNav_EC2/DepthDuration/v2_depth_duration_MTurk/v2_DepthDuration_HTML.html#263,263,1366,625,1366,768,8-29-2022,9-52-19,77,depth_duration_stimuli/002545_2014-06-24_13-38-53_094959634447_rgbf000080-resize_4/002545_2014-06-24_13-38-53_094959634447_rgbf000080-resize_4-target.png,1000,1.9205,4,5051,1009,feet,jsons/v1_VE1000_randls_26_rotated.json,975754,2080307,55,Woman
77,547268,DepthScenes,duration_manipulation_targetAtFixation,jsons/v1_VE1000_randls_26_rotated.json,http://54.235.29.9/FacialAge/BNav_EC2/DepthDuration/v2_depth_duration_MTurk/v2_DepthDuration_HTML.html#263,263,1366,625,1366,768,8-29-2022,9-52-19,78,depth_duration_stimuli/001092_2014-06-15_17-34-58_260595134347_rgbf000171-resize_3/001092_2014-06-15_17-34-58_260595134347_rgbf000171-resize_3-target.png,1000,2.6935,3,6360,987,feet,jsons/v1_VE1000_randls_26_rotated.json,975754,2080307,55,Woman
78,547268,DepthScenes,duration_manipulation_targetAtFixation,jsons/v1_VE1000_randls_26_rotated.json,http://54.235.29.9/FacialAge/BNav_EC2/DepthDuration/v2_depth_duration_MTurk/v2_DepthDuration_HTML.html#263,263,1366,625,1366,768,8-29-2022,9-52-19,79,depth_duration_stimuli/002875_2014-06-01_15-19-00_094959634447_rgbf000151-resize_1/002875_2014-06-01_15-19-00_094959634447_rgbf000151-resize_1-target.png,1000,1.9675,4,5035,989,feet,jsons/v1_VE1000_randls_26_rotated.json,975754,2080307,55,Woman
79,547268,DepthScenes,duration_manipulation_targetAtFixation,jsons/v1_VE1000_randls_26_rotated.json,http://54.235.29.9/FacialAge/BNav_EC2/DepthDuration/v2_depth_duration_MTurk/v2_DepthDuration_HTML.html#263,263,1366,625,1366,768,8-29-2022,9-52-19,80,depth_duration_stimuli/001011_2014-06-08_23-18-54_260595134347_rgbf000044-resize_4/001011_2014-06-08_23-18-54_260595134347_rgbf000044-resize_4-target.png,1000,2.4730000000000003,4,3888,991,feet,jsons/v1_VE1000_randls_26_rotated.json,975754,2080307,55,Woman
80,547268,DepthScenes,duration_manipulation_targetAtFixation,jsons/v1_VE1000_randls_26_rotated.json,http://54.235.29.9/FacialAge/BNav_EC2/DepthDuration/v2_depth_duration_MTurk/v2_DepthDuration_HTML.html#263,263,1366,625,1366,768,8-29-2022,9-52-19,81,depth_duration_stimuli/002425_2014-06-28_20-27-29_260595134347_rgbf000031-resize_8/002425_2014-06-28_20-27-29_260595134347_rgbf000031-resize_8-target.png,1000,3.8960000000000004,4,4944,1004,feet,jsons/v1_VE1000_randls_26_rotated.json,975754,2080307,55,Woman
81,547268,DepthScenes,duration_manipulation_targetAtFixation,jsons/v1_VE1000_randls_26_rotated.json,http://54.235.29.9/FacialAge/BNav_EC2/DepthDuration/v2_depth_duration_MTurk/v2_DepthDuration_HTML.html#263,263,1366,625,1366,768,8-29-2022,9-52-19,82,depth_duration_stimuli/000642_2014-06-08_16-59-25_260595134347_rgbf000098-resize_2/000642_2014-06-08_16-59-25_260595134347_rgbf000098-resize_2-target.png,1000,2.8815,3,8762,1005,feet,jsons/v1_VE1000_randls_26_rotated.json,975754,2080307,55,Woman
82,547268,DepthScenes,duration_manipulation_targetAtFixation,jsons/v1_VE1000_randls_26_rotated.json,http://54.235.29.9/FacialAge/BNav_EC2/DepthDuration/v2_depth_duration_MTurk/v2_DepthDuration_HTML.html#263,263,1366,625,1366,768,8-29-2022,9-52-19,83,depth_duration_stimuli/002637_2014-06-24_14-51-13_094959634447_rgbf000066-resize_4/002637_2014-06-24_14-51-13_094959634447_rgbf000066-resize_4-target.png,1000,1.9955,4,5115,1005,feet,jsons/v1_VE1000_randls_26_rotated.json,975754,2080307,55,Woman
83,547268,DepthScenes,duration_manipulation_targetAtFixation,jsons/v1_VE1000_randls_26_rotated.json,http://54.235.29.9/FacialAge/BNav_EC2/DepthDuration/v2_depth_duration_MTurk/v2_DepthDuration_HTML.html#263,263,1366,625,1366,768,8-29-2022,9-52-19,84,depth_duration_stimuli/003534_2014-05-22_15-06-10_094959634447_rgbf000102-resize_4/003534_2014-05-22_15-06-10_094959634447_rgbf000102-resize_4-target.png,1000,1.426,1,4970,1010,feet,jsons/v1_VE1000_randls_26_rotated.json,975754,2080307,55,Woman
84,547268,DepthScenes,duration_manipulation_targetAtFixation,jsons/v1_VE1000_randls_26_rotated.json,http://54.235.29.9/FacialAge/BNav_EC2/DepthDuration/v2_depth_duration_MTurk/v2_DepthDuration_HTML.html#263,263,1366,625,1366,768,8-29-2022,9-52-19,85,depth_duration_stimuli/000483_2014-06-09_20-41-45_260595134347_rgbf000116-resize_4/000483_2014-06-09_20-41-45_260595134347_rgbf000116-resize_4-target.png,1000,1.337,2,4560,1004,feet,jsons/v1_VE1000_randls_26_rotated.json,975754,2080307,55,Woman
85,547268,DepthScenes,duration_manipulation_targetAtFixation,jsons/v1_VE1000_randls_26_rotated.json,http://54.235.29.9/FacialAge/BNav_EC2/DepthDuration/v2_depth_duration_MTurk/v2_DepthDuration_HTML.html#263,263,1366,625,1366,768,8-29-2022,9-52-19,86,depth_duration_stimuli/000469_2014-06-09_19-42-10_260595134347_rgbf000081-resize_1/000469_2014-06-09_19-42-10_260595134347_rgbf000081-resize_1-target.png,1000,1.652,2,3631,1006,feet,jsons/v1_VE1000_randls_26_rotated.json,975754,2080307,55,Woman
86,547268,DepthScenes,duration_manipulation_targetAtFixation,jsons/v1_VE1000_randls_26_rotated.json,http://54.235.29.9/FacialAge/BNav_EC2/DepthDuration/v2_depth_duration_MTurk/v2_DepthDuration_HTML.html#263,263,1366,625,1366,768,8-29-2022,9-52-19,87,depth_duration_stimuli/000734_2014-06-08_17-39-11_260595134347_rgbf000128-resize_2/000734_2014-06-08_17-39-11_260595134347_rgbf000128-resize_2-target.png,1000,4.098,4,5297,1006,feet,jsons/v1_VE1000_randls_26_rotated.json,975754,2080307,55,Woman
87,547268,DepthScenes,duration_manipulation_targetAtFixation,jsons/v1_VE1000_randls_26_rotated.json,http://54.235.29.9/FacialAge/BNav_EC2/DepthDuration/v2_depth_duration_MTurk/v2_DepthDuration_HTML.html#263,263,1366,625,1366,768,8-29-2022,9-52-19,88,depth_duration_stimuli/000739_2014-06-08_18-45-58_260595134347_rgbf000068-resize_1/000739_2014-06-08_18-45-58_260595134347_rgbf000068-resize_1-target.png,1000,3.534,4,3591,1006,feet,jsons/v1_VE1000_randls_26_rotated.json,975754,2080307,55,Woman
88,547268,DepthScenes,duration_manipulation_targetAtFixation,jsons/v1_VE1000_randls_26_rotated.json,http://54.235.29.9/FacialAge/BNav_EC2/DepthDuration/v2_depth_duration_MTurk/v2_DepthDuration_HTML.html#263,263,1366,625,1366,768,8-29-2022,9-52-19,89,depth_duration_stimuli/003129_2014-05-12_10-48-10_094959634447_rgbf000100-resize_0/003129_2014-05-12_10-48-10_094959634447_rgbf000100-resize_0-target.png,1000,4.9305,3,10012,996,feet,jsons/v1_VE1000_randls_26_rotated.json,975754,2080307,55,Woman
89,547268,DepthScenes,duration_manipulation_targetAtFixation,jsons/v1_VE1000_randls_26_rotated.json,http://54.235.29.9/FacialAge/BNav_EC2/DepthDuration/v2_depth_duration_MTurk/v2_DepthDuration_HTML.html#263,263,1366,625,1366,768,8-29-2022,9-52-19,90,depth_duration_stimuli/000414_2014-06-04_19-49-13_260595134347_rgbf000044-resize_0/000414_2014-06-04_19-49-13_260595134347_rgbf000044-resize_0-target.png,1000,4.329,5,6179,999,feet,jsons/v1_VE1000_randls_26_rotated.json,975754,2080307,55,Woman
90,547268,DepthScenes,duration_manipulation_targetAtFixation,jsons/v1_VE1000_randls_26_rotated.json,http://54.235.29.9/FacialAge/BNav_EC2/DepthDuration/v2_depth_duration_MTurk/v2_DepthDuration_HTML.html#263,263,1366,625,1366,768,8-29-2022,9-52-19,91,depth_duration_stimuli/002414_2014-06-28_20-24-58_260595134347_rgbf000067-resize_4/002414_2014-06-28_20-24-58_260595134347_rgbf000067-resize_4-target.png,1000,4.363,4,5249,1010,feet,jsons/v1_VE1000_randls_26_rotated.json,975754,2080307,55,Woman
91,547268,DepthScenes,duration_manipulation_targetAtFixation,jsons/v1_VE1000_randls_26_rotated.json,http://54.235.29.9/FacialAge/BNav_EC2/DepthDuration/v2_depth_duration_MTurk/v2_DepthDuration_HTML.html#263,263,1366,625,1366,768,8-29-2022,9-52-19,92,depth_duration_stimuli/000773_2014-06-08_22-24-54_260595134347_rgbf000093-resize_1/000773_2014-06-08_22-24-54_260595134347_rgbf000093-resize_1-target.png,1000,4.973,3,7492,1007,feet,jsons/v1_VE1000_randls_26_rotated.json,975754,2080307,55,Woman
92,547268,DepthScenes,duration_manipulation_targetAtFixation,jsons/v1_VE1000_randls_26_rotated.json,http://54.235.29.9/FacialAge/BNav_EC2/DepthDuration/v2_depth_duration_MTurk/v2_DepthDuration_HTML.html#263,263,1366,625,1366,768,8-29-2022,9-52-19,93,depth_duration_stimuli/003587_2014-05-23_16-48-02_094959634447_rgbf002384-resize_2/003587_2014-05-23_16-48-02_094959634447_rgbf002384-resize_2-target.png,1000,1.357,3,8947,1007,feet,jsons/v1_VE1000_randls_26_rotated.json,975754,2080307,55,Woman
93,547268,DepthScenes,duration_manipulation_targetAtFixation,jsons/v1_VE1000_randls_26_rotated.json,http://54.235.29.9/FacialAge/BNav_EC2/DepthDuration/v2_depth_duration_MTurk/v2_DepthDuration_HTML.html#263,263,1366,625,1366,768,8-29-2022,9-52-19,94,depth_duration_stimuli/001167_2014-06-17_15-38-07_260595134347_rgbf000108-resize_0/001167_2014-06-17_15-38-07_260595134347_rgbf000108-resize_0-target.png,1000,1.8505,2,4980,1010,feet,jsons/v1_VE1000_randls_26_rotated.json,975754,2080307,55,Woman
94,547268,DepthScenes,duration_manipulation_targetAtFixation,jsons/v1_VE1000_randls_26_rotated.json,http://54.235.29.9/FacialAge/BNav_EC2/DepthDuration/v2_depth_duration_MTurk/v2_DepthDuration_HTML.html#263,263,1366,625,1366,768,8-29-2022,9-52-19,95,depth_duration_stimuli/002949_2014-06-26_15-57-42_094959634447_rgbf000079-resize_1/002949_2014-06-26_15-57-42_094959634447_rgbf000079-resize_1-target.png,1000,1.8915,2,4946,1007,feet,jsons/v1_VE1000_randls_26_rotated.json,975754,2080307,55,Woman
95,547268,DepthScenes,duration_manipulation_targetAtFixation,jsons/v1_VE1000_randls_26_rotated.json,http://54.235.29.9/FacialAge/BNav_EC2/DepthDuration/v2_depth_duration_MTurk/v2_DepthDuration_HTML.html#263,263,1366,625,1366,768,8-29-2022,9-52-19,96,depth_duration_stimuli/000522_2014-06-08_13-35-06_260595134347_rgbf000244-resize_1/000522_2014-06-08_13-35-06_260595134347_rgbf000244-resize_1-target.png,1000,2.3715,3,5342,999,feet,jsons/v1_VE1000_randls_26_rotated.json,975754,2080307,55,Woman
96,547268,DepthScenes,duration_manipulation_targetAtFixation,jsons/v1_VE1000_randls_26_rotated.json,http://54.235.29.9/FacialAge/BNav_EC2/DepthDuration/v2_depth_duration_MTurk/v2_DepthDuration_HTML.html#263,263,1366,625,1366,768,8-29-2022,9-52-19,97,depth_duration_stimuli/003495_2014-05-21_16-01-51_094959634447_rgbf000100-resize_3/003495_2014-05-21_16-01-51_094959634447_rgbf000100-resize_3-target.png,1000,1.6255,1,7486,1014,feet,jsons/v1_VE1000_randls_26_rotated.json,975754,2080307,55,Woman
97,547268,DepthScenes,duration_manipulation_targetAtFixation,jsons/v1_VE1000_randls_26_rotated.json,http://54.235.29.9/FacialAge/BNav_EC2/DepthDuration/v2_depth_duration_MTurk/v2_DepthDuration_HTML.html#263,263,1366,625,1366,768,8-29-2022,9-52-19,98,depth_duration_stimuli/001244_2014-06-17_16-47-45_260595134347_rgbf000030-resize_4/001244_2014-06-17_16-47-45_260595134347_rgbf000030-resize_4-target.png,1000,2.0425,3,4747,1007,feet,jsons/v1_VE1000_randls_26_rotated.json,975754,2080307,55,Woman
98,547268,DepthScenes,duration_manipulation_targetAtFixation,jsons/v1_VE1000_randls_26_rotated.json,http://54.235.29.9/FacialAge/BNav_EC2/DepthDuration/v2_depth_duration_MTurk/v2_DepthDuration_HTML.html#263,263,1366,625,1366,768,8-29-2022,9-52-19,99,depth_duration_stimuli/001222_2014-06-17_16-24-06_260595134347_rgbf000073-resize_0/001222_2014-06-17_16-24-06_260595134347_rgbf000073-resize-original.jpg,1000,1.4385,0,4452,1003,feet,jsons/v1_VE1000_randls_26_rotated.json,975754,2080307,55,Woman
99,547268,DepthScenes,duration_manipulation_targetAtFixation,jsons/v1_VE1000_randls_26_rotated.json,http://54.235.29.9/FacialAge/BNav_EC2/DepthDuration/v2_depth_duration_MTurk/v2_DepthDuration_HTML.html#263,263,1366,625,1366,768,8-29-2022,9-52-19,100,depth_duration_stimuli/000742_2014-06-08_18-48-09_260595134347_rgbf000164-resize_4/000742_2014-06-08_18-48-09_260595134347_rgbf000164-resize_4-target.png,1000,4.632,4,5203,1008,feet,jsons/v1_VE1000_randls_26_rotated.json,975754,2080307,55,Woman
100,547268,DepthScenes,duration_manipulation_targetAtFixation,jsons/v1_VE1000_randls_26_rotated.json,http://54.235.29.9/FacialAge/BNav_EC2/DepthDuration/v2_depth_duration_MTurk/v2_DepthDuration_HTML.html#263,263,1366,625,1366,768,8-29-2022,9-52-19,101,depth_duration_stimuli/001066_2014-06-08_22-03-20_260595134347_rgbf000066-resize_4/001066_2014-06-08_22-03-20_260595134347_rgbf000066-resize_4-target.png,1000,4.2330000000000005,4,4850,1004,feet,jsons/v1_VE1000_randls_26_rotated.json,975754,2080307,55,Woman
101,547268,DepthScenes,duration_manipulation_targetAtFixation,jsons/v1_VE1000_randls_26_rotated.json,http://54.235.29.9/FacialAge/BNav_EC2/DepthDuration/v2_depth_duration_MTurk/v2_DepthDuration_HTML.html#263,263,1366,625,1366,768,8-29-2022,9-52-19,102,depth_duration_stimuli/001617_2014-06-20_11-35-32_260595134347_rgbf000066-resize_1/001617_2014-06-20_11-35-32_260595134347_rgbf000066-resize_1-target.png,1000,3.7910000000000004,3,4330,1000,feet,jsons/v1_VE1000_randls_26_rotated.json,975754,2080307,55,Woman
102,547268,DepthScenes,duration_manipulation_targetAtFixation,jsons/v1_VE1000_randls_26_rotated.json,http://54.235.29.9/FacialAge/BNav_EC2/DepthDuration/v2_depth_duration_MTurk/v2_DepthDuration_HTML.html#263,263,1366,625,1366,768,8-29-2022,9-52-19,103,depth_duration_stimuli/001806_2014-06-26_20-50-20_260595134347_rgbf000091-resize_1/001806_2014-06-26_20-50-20_260595134347_rgbf000091-resize_1-target.png,1000,2.7305,3,3707,1009,feet,jsons/v1_VE1000_randls_26_rotated.json,975754,2080307,55,Woman
103,547268,DepthScenes,duration_manipulation_targetAtFixation,jsons/v1_VE1000_randls_26_rotated.json,http://54.235.29.9/FacialAge/BNav_EC2/DepthDuration/v2_depth_duration_MTurk/v2_DepthDuration_HTML.html#263,263,1366,625,1366,768,8-29-2022,9-52-19,104,depth_duration_stimuli/001516_2014-06-20_16-25-09_260595134347_rgbf000076-resize_2/001516_2014-06-20_16-25-09_260595134347_rgbf000076-resize_2-target.png,1000,1.7445,3,5406,1009,feet,jsons/v1_VE1000_randls_26_rotated.json,975754,2080307,55,Woman
104,547268,DepthScenes,duration_manipulation_targetAtFixation,jsons/v1_VE1000_randls_26_rotated.json,http://54.235.29.9/FacialAge/BNav_EC2/DepthDuration/v2_depth_duration_MTurk/v2_DepthDuration_HTML.html#263,263,1366,625,1366,768,8-29-2022,9-52-19,105,depth_duration_stimuli/002118_2014-06-25_20-32-08_260595134347_rgbf000078-resize_1/002118_2014-06-25_20-32-08_260595134347_rgbf000078-resize_1-target.png,1000,2.6460000000000004,2,6677,1011,feet,jsons/v1_VE1000_randls_26_rotated.json,975754,2080307,55,Woman
105,547268,DepthScenes,duration_manipulation_targetAtFixation,jsons/v1_VE1000_randls_26_rotated.json,http://54.235.29.9/FacialAge/BNav_EC2/DepthDuration/v2_depth_duration_MTurk/v2_DepthDuration_HTML.html#263,263,1366,625,1366,768,8-29-2022,9-52-19,106,depth_duration_stimuli/001132_2014-06-17_14-48-54_260595134347_rgbf000100-resize_2/001132_2014-06-17_14-48-54_260595134347_rgbf000100-resize_2-target.png,1000,3.753,3,5698,988,feet,jsons/v1_VE1000_randls_26_rotated.json,975754,2080307,55,Woman
106,547268,DepthScenes,duration_manipulation_targetAtFixation,jsons/v1_VE1000_randls_26_rotated.json,http://54.235.29.9/FacialAge/BNav_EC2/DepthDuration/v2_depth_duration_MTurk/v2_DepthDuration_HTML.html#263,263,1366,625,1366,768,8-29-2022,9-52-19,107,depth_duration_stimuli/001133_2014-06-17_14-49-16_260595134347_rgbf000100-resize_0/001133_2014-06-17_14-49-16_260595134347_rgbf000100-resize_0-target.png,1000,4.2115,3,3539,1004,feet,jsons/v1_VE1000_randls_26_rotated.json,975754,2080307,55,Woman
107,547268,DepthScenes,duration_manipulation_targetAtFixation,jsons/v1_VE1000_randls_26_rotated.json,http://54.235.29.9/FacialAge/BNav_EC2/DepthDuration/v2_depth_duration_MTurk/v2_DepthDuration_HTML.html#263,263,1366,625,1366,768,8-29-2022,9-52-19,108,depth_duration_stimuli/001392_2014-06-19_16-07-59_260595134347_rgbf000046-resize_1/001392_2014-06-19_16-07-59_260595134347_rgbf000046-resize_1-target.png,1000,4.135,4,7003,1005,feet,jsons/v1_VE1000_randls_26_rotated.json,975754,2080307,55,Woman
108,547268,DepthScenes,duration_manipulation_targetAtFixation,jsons/v1_VE1000_randls_26_rotated.json,http://54.235.29.9/FacialAge/BNav_EC2/DepthDuration/v2_depth_duration_MTurk/v2_DepthDuration_HTML.html#263,263,1366,625,1366,768,8-29-2022,9-52-19,109,depth_duration_stimuli/001570_2014-06-20_17-21-09_260595134347_rgbf000135-resize_4/001570_2014-06-20_17-21-09_260595134347_rgbf000135-resize_4-target.png,1000,4.467,4,3601,1010,feet,jsons/v1_VE1000_randls_26_rotated.json,975754,2080307,55,Woman
109,547268,DepthScenes,duration_manipulation_targetAtFixation,jsons/v1_VE1000_randls_26_rotated.json,http://54.235.29.9/FacialAge/BNav_EC2/DepthDuration/v2_depth_duration_MTurk/v2_DepthDuration_HTML.html#263,263,1366,625,1366,768,8-29-2022,9-52-19,110,depth_duration_stimuli/003010_2014-06-15_12-54-35_094959634447_rgbf000112-resize_0/003010_2014-06-15_12-54-35_094959634447_rgbf000112-resize_0-target.png,1000,3.1185,5,6132,1010,feet,jsons/v1_VE1000_randls_26_rotated.json,975754,2080307,55,Woman
110,547268,DepthScenes,duration_manipulation_targetAtFixation,jsons/v1_VE1000_randls_26_rotated.json,http://54.235.29.9/FacialAge/BNav_EC2/DepthDuration/v2_depth_duration_MTurk/v2_DepthDuration_HTML.html#263,263,1366,625,1366,768,8-29-2022,9-52-19,111,depth_duration_stimuli/001810_2014-06-26_20-51-35_260595134347_rgbf000040-resize_3/001810_2014-06-26_20-51-35_260595134347_rgbf000040-resize_3-target.png,1000,2.2525,4,8293,1007,feet,jsons/v1_VE1000_randls_26_rotated.json,975754,2080307,55,Woman
111,547268,DepthScenes,duration_manipulation_targetAtFixation,jsons/v1_VE1000_randls_26_rotated.json,http://54.235.29.9/FacialAge/BNav_EC2/DepthDuration/v2_depth_duration_MTurk/v2_DepthDuration_HTML.html#263,263,1366,625,1366,768,8-29-2022,9-52-19,112,depth_duration_stimuli/001235_2014-06-17_16-37-36_260595134347_rgbf000084-resize_4/001235_2014-06-17_16-37-36_260595134347_rgbf000084-resize_4-target.png,1000,3.6605,3,4459,1004,feet,jsons/v1_VE1000_randls_26_rotated.json,975754,2080307,55,Woman
112,547268,DepthScenes,duration_manipulation_targetAtFixation,jsons/v1_VE1000_randls_26_rotated.json,http://54.235.29.9/FacialAge/BNav_EC2/DepthDuration/v2_depth_duration_MTurk/v2_DepthDuration_HTML.html#263,263,1366,625,1366,768,8-29-2022,9-52-19,113,depth_duration_stimuli/000788_2014-06-08_22-34-36_260595134347_rgbf000131-resize_1/000788_2014-06-08_22-34-36_260595134347_rgbf000131-resize_1-target.png,1000,3.359,2,5231,1004,feet,jsons/v1_VE1000_randls_26_rotated.json,975754,2080307,55,Woman
113,547268,DepthScenes,duration_manipulation_targetAtFixation,jsons/v1_VE1000_randls_26_rotated.json,http://54.235.29.9/FacialAge/BNav_EC2/DepthDuration/v2_depth_duration_MTurk/v2_DepthDuration_HTML.html#263,263,1366,625,1366,768,8-29-2022,9-52-19,114,depth_duration_stimuli/000409_2014-06-04_19-23-33_260595134347_rgbf000067-resize_0/000409_2014-06-04_19-23-33_260595134347_rgbf000067-resize_0-target.png,1000,3.7335,3,5940,1006,feet,jsons/v1_VE1000_randls_26_rotated.json,975754,2080307,55,Woman
114,547268,DepthScenes,duration_manipulation_targetAtFixation,jsons/v1_VE1000_randls_26_rotated.json,http://54.235.29.9/FacialAge/BNav_EC2/DepthDuration/v2_depth_duration_MTurk/v2_DepthDuration_HTML.html#263,263,1366,625,1366,768,8-29-2022,9-52-19,115,depth_duration_stimuli/002663_2014-06-13_15-50-26_094959634447_rgbf000075-resize_1/002663_2014-06-13_15-50-26_094959634447_rgbf000075-resize_1-target.png,1000,4.7495,4,5519,1005,feet,jsons/v1_VE1000_randls_26_rotated.json,975754,2080307,55,Woman
115,547268,DepthScenes,duration_manipulation_targetAtFixation,jsons/v1_VE1000_randls_26_rotated.json,http://54.235.29.9/FacialAge/BNav_EC2/DepthDuration/v2_depth_duration_MTurk/v2_DepthDuration_HTML.html#263,263,1366,625,1366,768,8-29-2022,9-52-19,116,depth_duration_stimuli/003228_2014-05-14_13-42-35_094959634447_rgbf000101-resize_1/003228_2014-05-14_13-42-35_094959634447_rgbf000101-resize_1-target.png,1000,1.9680000000000002,3,5204,992,feet,jsons/v1_VE1000_randls_26_rotated.json,975754,2080307,55,Woman
116,547268,DepthScenes,duration_manipulation_targetAtFixation,jsons/v1_VE1000_randls_26_rotated.json,http://54.235.29.9/FacialAge/BNav_EC2/DepthDuration/v2_depth_duration_MTurk/v2_DepthDuration_HTML.html#263,263,1366,625,1366,768,8-29-2022,9-52-19,117,depth_duration_stimuli/002600_2014-06-24_14-27-04_094959634447_rgbf000074-resize_2/002600_2014-06-24_14-27-04_094959634447_rgbf000074-resize_2-target.png,1000,2.7575,2,5251,988,feet,jsons/v1_VE1000_randls_26_rotated.json,975754,2080307,55,Woman
117,547268,DepthScenes,duration_manipulation_targetAtFixation,jsons/v1_VE1000_randls_26_rotated.json,http://54.235.29.9/FacialAge/BNav_EC2/DepthDuration/v2_depth_duration_MTurk/v2_DepthDuration_HTML.html#263,263,1366,625,1366,768,8-29-2022,9-52-19,118,depth_duration_stimuli/000103_2014-05-14_22-01-17_260595134347_rgbf000152-resize_5/000103_2014-05-14_22-01-17_260595134347_rgbf000152-resize_5-target.png,1000,1.993,4,9790,993,feet,jsons/v1_VE1000_randls_26_rotated.json,975754,2080307,55,Woman
118,547268,DepthScenes,duration_manipulation_targetAtFixation,jsons/v1_VE1000_randls_26_rotated.json,http://54.235.29.9/FacialAge/BNav_EC2/DepthDuration/v2_depth_duration_MTurk/v2_DepthDuration_HTML.html#263,263,1366,625,1366,768,8-29-2022,9-52-19,119,depth_duration_stimuli/001555_2014-06-20_17-12-10_260595134347_rgbf000065-resize_4/001555_2014-06-20_17-12-10_260595134347_rgbf000065-resize_4-target.png,1000,1.633,2,5259,1006,feet,jsons/v1_VE1000_randls_26_rotated.json,975754,2080307,55,Woman
119,547268,DepthScenes,duration_manipulation_targetAtFixation,jsons/v1_VE1000_randls_26_rotated.json,http://54.235.29.9/FacialAge/BNav_EC2/DepthDuration/v2_depth_duration_MTurk/v2_DepthDuration_HTML.html#263,263,1366,625,1366,768,8-29-2022,9-52-19,120,depth_duration_stimuli/000787_2014-06-08_22-33-53_260595134347_rgbf000175-resize_1/000787_2014-06-08_22-33-53_260595134347_rgbf000175-resize-original.jpg,1000,4.784,0,4385,1003,feet,jsons/v1_VE1000_randls_26_rotated.json,975754,2080307,55,Woman
120,547268,DepthScenes,duration_manipulation_targetAtFixation,jsons/v1_VE1000_randls_26_rotated.json,http://54.235.29.9/FacialAge/BNav_EC2/DepthDuration/v2_depth_duration_MTurk/v2_DepthDuration_HTML.html#263,263,1366,625,1366,768,8-29-2022,9-52-19,121,depth_duration_stimuli/000943_2014-06-09_19-31-07_260595134347_rgbf000128-resize_1/000943_2014-06-09_19-31-07_260595134347_rgbf000128-resize_1-target.png,1000,1.9765,4,6877,993,feet,jsons/v1_VE1000_randls_26_rotated.json,975754,2080307,55,Woman
121,547268,DepthScenes,duration_manipulation_targetAtFixation,jsons/v1_VE1000_randls_26_rotated.json,http://54.235.29.9/FacialAge/BNav_EC2/DepthDuration/v2_depth_duration_MTurk/v2_DepthDuration_HTML.html#263,263,1366,625,1366,768,8-29-2022,9-52-19,122,depth_duration_stimuli/003070_2014-06-15_14-58-27_094959634447_rgbf000150-resize_3/003070_2014-06-15_14-58-27_094959634447_rgbf000150-resize_3-target.png,1000,2.9415,3,4929,1007,feet,jsons/v1_VE1000_randls_26_rotated.json,975754,2080307,55,Woman
122,547268,DepthScenes,duration_manipulation_targetAtFixation,jsons/v1_VE1000_randls_26_rotated.json,http://54.235.29.9/FacialAge/BNav_EC2/DepthDuration/v2_depth_duration_MTurk/v2_DepthDuration_HTML.html#263,263,1366,625,1366,768,8-29-2022,9-52-19,123,depth_duration_stimuli/002750_2014-06-22_19-08-03_094959634447_rgbf000094-resize_4/002750_2014-06-22_19-08-03_094959634447_rgbf000094-resize_4-target.png,1000,2.354,4,3764,1007,feet,jsons/v1_VE1000_randls_26_rotated.json,975754,2080307,55,Woman
123,547268,DepthScenes,duration_manipulation_targetAtFixation,jsons/v1_VE1000_randls_26_rotated.json,http://54.235.29.9/FacialAge/BNav_EC2/DepthDuration/v2_depth_duration_MTurk/v2_DepthDuration_HTML.html#263,263,1366,625,1366,768,8-29-2022,9-52-19,124,depth_duration_stimuli/002549_2014-06-24_13-41-39_094959634447_rgbf000022-resize_3/002549_2014-06-24_13-41-39_094959634447_rgbf000022-resize_3-target.png,1000,1.476,3,4319,1005,feet,jsons/v1_VE1000_randls_26_rotated.json,975754,2080307,55,Woman
124,547268,DepthScenes,duration_manipulation_targetAtFixation,jsons/v1_VE1000_randls_26_rotated.json,http://54.235.29.9/FacialAge/BNav_EC2/DepthDuration/v2_depth_duration_MTurk/v2_DepthDuration_HTML.html#263,263,1366,625,1366,768,8-29-2022,9-52-19,125,depth_duration_stimuli/002344_2014-06-28_20-06-29_260595134347_rgbf000030-resize_1/002344_2014-06-28_20-06-29_260595134347_rgbf000030-resize_1-target.png,1000,1.5795,2,4651,996,feet,jsons/v1_VE1000_randls_26_rotated.json,975754,2080307,55,Woman
125,547268,DepthScenes,duration_manipulation_targetAtFixation,jsons/v1_VE1000_randls_26_rotated.json,http://54.235.29.9/FacialAge/BNav_EC2/DepthDuration/v2_depth_duration_MTurk/v2_DepthDuration_HTML.html#263,263,1366,625,1366,768,8-29-2022,9-52-19,126,depth_duration_stimuli/002725_2014-06-22_11-47-51_094959634447_rgbf000070-resize_1/002725_2014-06-22_11-47-51_094959634447_rgbf000070-resize_1-target.png,1000,2.195,3,5445,1005,feet,jsons/v1_VE1000_randls_26_rotated.json,975754,2080307,55,Woman
126,547268,DepthScenes,duration_manipulation_targetAtFixation,jsons/v1_VE1000_randls_26_rotated.json,http://54.235.29.9/FacialAge/BNav_EC2/DepthDuration/v2_depth_duration_MTurk/v2_DepthDuration_HTML.html#263,263,1366,625,1366,768,8-29-2022,9-52-19,127,depth_duration_stimuli/002805_2014-06-22_19-54-03_094959634447_rgbf000079-resize_1/002805_2014-06-22_19-54-03_094959634447_rgbf000079-resize_1-target.png,1000,3.1439999999999997,4,8660,1005,feet,jsons/v1_VE1000_randls_26_rotated.json,975754,2080307,55,Woman
127,547268,DepthScenes,duration_manipulation_targetAtFixation,jsons/v1_VE1000_randls_26_rotated.json,http://54.235.29.9/FacialAge/BNav_EC2/DepthDuration/v2_depth_duration_MTurk/v2_DepthDuration_HTML.html#263,263,1366,625,1366,768,8-29-2022,9-52-19,128,depth_duration_stimuli/000906_2014-06-08_13-35-43_260595134347_rgbf000155-resize_1/000906_2014-06-08_13-35-43_260595134347_rgbf000155-resize_1-target.png,1000,2.8489999999999998,4,3553,996,feet,jsons/v1_VE1000_randls_26_rotated.json,975754,2080307,55,Woman
128,547268,DepthScenes,duration_manipulation_targetAtFixation,jsons/v1_VE1000_randls_26_rotated.json,http://54.235.29.9/FacialAge/BNav_EC2/DepthDuration/v2_depth_duration_MTurk/v2_DepthDuration_HTML.html#263,263,1366,625,1366,768,8-29-2022,9-52-19,129,depth_duration_stimuli/000709_2014-06-08_13-51-55_260595134347_rgbf000068-resize_3/000709_2014-06-08_13-51-55_260595134347_rgbf000068-resize_3-target.png,1000,1.8030000000000002,4,4100,996,feet,jsons/v1_VE1000_randls_26_rotated.json,975754,2080307,55,Woman
129,547268,DepthScenes,duration_manipulation_targetAtFixation,jsons/v1_VE1000_randls_26_rotated.json,http://54.235.29.9/FacialAge/BNav_EC2/DepthDuration/v2_depth_duration_MTurk/v2_DepthDuration_HTML.html#263,263,1366,625,1366,768,8-29-2022,9-52-19,130,depth_duration_stimuli/002057_2014-06-24_21-00-13_260595134347_rgbf000120-resize_1/002057_2014-06-24_21-00-13_260595134347_rgbf000120-resize_1-target.png,1000,2.967,5,6455,1009,feet,jsons/v1_VE1000_randls_26_rotated.json,975754,2080307,55,Woman
130,547268,DepthScenes,duration_manipulation_targetAtFixation,jsons/v1_VE1000_randls_26_rotated.json,http://54.235.29.9/FacialAge/BNav_EC2/DepthDuration/v2_depth_duration_MTurk/v2_DepthDuration_HTML.html#263,263,1366,625,1366,768,8-29-2022,9-52-19,131,depth_duration_stimuli/000749_2014-06-08_21-55-06_260595134347_rgbf000070-resize_2/000749_2014-06-08_21-55-06_260595134347_rgbf000070-resize_2-target.png,1000,2.331,3,5301,1000,feet,jsons/v1_VE1000_randls_26_rotated.json,975754,2080307,55,Woman
131,547268,DepthScenes,duration_manipulation_targetAtFixation,jsons/v1_VE1000_randls_26_rotated.json,http://54.235.29.9/FacialAge/BNav_EC2/DepthDuration/v2_depth_duration_MTurk/v2_DepthDuration_HTML.html#263,263,1366,625,1366,768,8-29-2022,9-52-19,132,depth_duration_stimuli/002788_2014-06-22_19-36-03_094959634447_rgbf000088-resize_2/002788_2014-06-22_19-36-03_094959634447_rgbf000088-resize_2-target.png,1000,1.6465,4,3754,991,feet,jsons/v1_VE1000_randls_26_rotated.json,975754,2080307,55,Woman
132,547268,DepthScenes,duration_manipulation_targetAtFixation,jsons/v1_VE1000_randls_26_rotated.json,http://54.235.29.9/FacialAge/BNav_EC2/DepthDuration/v2_depth_duration_MTurk/v2_DepthDuration_HTML.html#263,263,1366,625,1366,768,8-29-2022,9-52-19,133,depth_duration_stimuli/000780_2014-06-08_22-28-29_260595134347_rgbf000126-resize_1/000780_2014-06-08_22-28-29_260595134347_rgbf000126-resize_1-target.png,1000,3.3825,4,4153,1007,feet,jsons/v1_VE1000_randls_26_rotated.json,975754,2080307,55,Woman
133,547268,DepthScenes,duration_manipulation_targetAtFixation,jsons/v1_VE1000_randls_26_rotated.json,http://54.235.29.9/FacialAge/BNav_EC2/DepthDuration/v2_depth_duration_MTurk/v2_DepthDuration_HTML.html#263,263,1366,625,1366,768,8-29-2022,9-52-19,134,depth_duration_stimuli/002445_2014-06-28_20-32-16_260595134347_rgbf000029-resize_4/002445_2014-06-28_20-32-16_260595134347_rgbf000029-resize_4-target.png,1000,2.5315,2,4635,989,feet,jsons/v1_VE1000_randls_26_rotated.json,975754,2080307,55,Woman
134,547268,DepthScenes,duration_manipulation_targetAtFixation,jsons/v1_VE1000_randls_26_rotated.json,http://54.235.29.9/FacialAge/BNav_EC2/DepthDuration/v2_depth_duration_MTurk/v2_DepthDuration_HTML.html#263,263,1366,625,1366,768,8-29-2022,9-52-19,135,depth_duration_stimuli/000375_2014-06-08_11-17-29_260595134347_rgbf000133-resize_2/000375_2014-06-08_11-17-29_260595134347_rgbf000133-resize-original.jpg,1000,4.718,0,4712,995,feet,jsons/v1_VE1000_randls_26_rotated.json,975754,2080307,55,Woman
135,547268,DepthScenes,duration_manipulation_targetAtFixation,jsons/v1_VE1000_randls_26_rotated.json,http://54.235.29.9/FacialAge/BNav_EC2/DepthDuration/v2_depth_duration_MTurk/v2_DepthDuration_HTML.html#263,263,1366,625,1366,768,8-29-2022,9-52-19,136,depth_duration_stimuli/000556_2014-06-09_22-42-56_260595134347_rgbf000214-resize_1/000556_2014-06-09_22-42-56_260595134347_rgbf000214-resize_1-target.png,1000,4.8415,2,9883,1012,feet,jsons/v1_VE1000_randls_26_rotated.json,975754,2080307,55,Woman
136,547268,DepthScenes,duration_manipulation_targetAtFixation,jsons/v1_VE1000_randls_26_rotated.json,http://54.235.29.9/FacialAge/BNav_EC2/DepthDuration/v2_depth_duration_MTurk/v2_DepthDuration_HTML.html#263,263,1366,625,1366,768,8-29-2022,9-52-19,137,depth_duration_stimuli/001158_2014-06-17_15-32-16_260595134347_rgbf000138-resize_2/001158_2014-06-17_15-32-16_260595134347_rgbf000138-resize_2-target.png,1000,4.5315,3,5756,1005,feet,jsons/v1_VE1000_randls_26_rotated.json,975754,2080307,55,Woman
137,547268,DepthScenes,duration_manipulation_targetAtFixation,jsons/v1_VE1000_randls_26_rotated.json,http://54.235.29.9/FacialAge/BNav_EC2/DepthDuration/v2_depth_duration_MTurk/v2_DepthDuration_HTML.html#263,263,1366,625,1366,768,8-29-2022,9-52-19,138,depth_duration_stimuli/000665_2014-06-09_20-42-35_260595134347_rgbf000110-resize_1/000665_2014-06-09_20-42-35_260595134347_rgbf000110-resize_1-target.png,1000,3.057,2,4854,1011,feet,jsons/v1_VE1000_randls_26_rotated.json,975754,2080307,55,Woman
138,547268,DepthScenes,duration_manipulation_targetAtFixation,jsons/v1_VE1000_randls_26_rotated.json,http://54.235.29.9/FacialAge/BNav_EC2/DepthDuration/v2_depth_duration_MTurk/v2_DepthDuration_HTML.html#263,263,1366,625,1366,768,8-29-2022,9-52-19,139,depth_duration_stimuli/001150_2014-06-17_15-27-34_260595134347_rgbf000108-resize_2/001150_2014-06-17_15-27-34_260595134347_rgbf000108-resize_2-target.png,1000,4.0325,3,3647,1005,feet,jsons/v1_VE1000_randls_26_rotated.json,975754,2080307,55,Woman
139,547268,DepthScenes,duration_manipulation_targetAtFixation,jsons/v1_VE1000_randls_26_rotated.json,http://54.235.29.9/FacialAge/BNav_EC2/DepthDuration/v2_depth_duration_MTurk/v2_DepthDuration_HTML.html#263,263,1366,625,1366,768,8-29-2022,9-52-19,140,depth_duration_stimuli/001100_2014-06-15_17-46-26_260595134347_rgbf000225-resize_2/001100_2014-06-15_17-46-26_260595134347_rgbf000225-resize_2-target.png,1000,2.24,3,4916,999,feet,jsons/v1_VE1000_randls_26_rotated.json,975754,2080307,55,Woman
140,547268,DepthScenes,duration_manipulation_targetAtFixation,jsons/v1_VE1000_randls_26_rotated.json,http://54.235.29.9/FacialAge/BNav_EC2/DepthDuration/v2_depth_duration_MTurk/v2_DepthDuration_HTML.html#263,263,1366,625,1366,768,8-29-2022,9-52-19,141,depth_duration_stimuli/002784_2014-06-22_19-26-30_094959634447_rgbf000083-resize_3/002784_2014-06-22_19-26-30_094959634447_rgbf000083-resize_3-target.png,1000,1.8046666666667,1,3780,998,feet,jsons/v1_VE1000_randls_26_rotated.json,975754,2080307,55,Woman
141,547268,DepthScenes,duration_manipulation_targetAtFixation,jsons/v1_VE1000_randls_26_rotated.json,http://54.235.29.9/FacialAge/BNav_EC2/DepthDuration/v2_depth_duration_MTurk/v2_DepthDuration_HTML.html#263,263,1366,625,1366,768,8-29-2022,9-52-19,142,depth_duration_stimuli/002678_2014-06-13_16-15-32_094959634447_rgbf000151-resize_6/002678_2014-06-13_16-15-32_094959634447_rgbf000151-resize_6-target.png,1000,2.1830000000000003,4,5801,1003,feet,jsons/v1_VE1000_randls_26_rotated.json,975754,2080307,55,Woman
142,547268,DepthScenes,duration_manipulation_targetAtFixation,jsons/v1_VE1000_randls_26_rotated.json,http://54.235.29.9/FacialAge/BNav_EC2/DepthDuration/v2_depth_duration_MTurk/v2_DepthDuration_HTML.html#263,263,1366,625,1366,768,8-29-2022,9-52-19,143,depth_duration_stimuli/000368_2014-06-09_15-53-01_260595134347_rgbf000155-resize_2/000368_2014-06-09_15-53-01_260595134347_rgbf000155-resize_2-target.png,1000,2.4859999999999998,2,4218,1000,feet,jsons/v1_VE1000_randls_26_rotated.json,975754,2080307,55,Woman
143,547268,DepthScenes,duration_manipulation_targetAtFixation,jsons/v1_VE1000_randls_26_rotated.json,http://54.235.29.9/FacialAge/BNav_EC2/DepthDuration/v2_depth_duration_MTurk/v2_DepthDuration_HTML.html#263,263,1366,625,1366,768,8-29-2022,9-52-19,144,depth_duration_stimuli/002758_2014-06-22_19-11-20_094959634447_rgbf000128-resize_1/002758_2014-06-22_19-11-20_094959634447_rgbf000128-resize_1-target.png,1000,2.555,3,4342,1012,feet,jsons/v1_VE1000_randls_26_rotated.json,975754,2080307,55,Woman
144,547268,DepthScenes,duration_manipulation_targetAtFixation,jsons/v1_VE1000_randls_26_rotated.json,http://54.235.29.9/FacialAge/BNav_EC2/DepthDuration/v2_depth_duration_MTurk/v2_DepthDuration_HTML.html#263,263,1366,625,1366,768,8-29-2022,9-52-19,145,depth_duration_stimuli/002630_2014-06-24_14-47-50_094959634447_rgbf000055-resize_1/002630_2014-06-24_14-47-50_094959634447_rgbf000055-resize_1-target.png,1000,3.0095,4,5877,1006,feet,jsons/v1_VE1000_randls_26_rotated.json,975754,2080307,55,Woman
145,547268,DepthScenes,duration_manipulation_targetAtFixation,jsons/v1_VE1000_randls_26_rotated.json,http://54.235.29.9/FacialAge/BNav_EC2/DepthDuration/v2_depth_duration_MTurk/v2_DepthDuration_HTML.html#263,263,1366,625,1366,768,8-29-2022,9-52-19,146,depth_duration_stimuli/000457_2014-06-08_16-52-43_260595134347_rgbf000199-resize_1/000457_2014-06-08_16-52-43_260595134347_rgbf000199-resize_1-target.png,1000,3.6489999999999996,4,4050,1005,feet,jsons/v1_VE1000_randls_26_rotated.json,975754,2080307,55,Woman
146,547268,DepthScenes,duration_manipulation_targetAtFixation,jsons/v1_VE1000_randls_26_rotated.json,http://54.235.29.9/FacialAge/BNav_EC2/DepthDuration/v2_depth_duration_MTurk/v2_DepthDuration_HTML.html#263,263,1366,625,1366,768,8-29-2022,9-52-19,147,depth_duration_stimuli/000929_2014-06-09_16-33-19_260595134347_rgbf000139-resize_0/000929_2014-06-09_16-33-19_260595134347_rgbf000139-resize_0-target.png,1000,2.8680000000000003,3,5658,1003,feet,jsons/v1_VE1000_randls_26_rotated.json,975754,2080307,55,Woman
147,547268,DepthScenes,duration_manipulation_targetAtFixation,jsons/v1_VE1000_randls_26_rotated.json,http://54.235.29.9/FacialAge/BNav_EC2/DepthDuration/v2_depth_duration_MTurk/v2_DepthDuration_HTML.html#263,263,1366,625,1366,768,8-29-2022,9-52-19,148,depth_duration_stimuli/002953_2014-06-08_17-32-18_094959634447_rgbf000059-resize_5/002953_2014-06-08_17-32-18_094959634447_rgbf000059-resize_5-target.png,1000,1.551,4,6429,1008,feet,jsons/v1_VE1000_randls_26_rotated.json,975754,2080307,55,Woman
148,547268,DepthScenes,duration_manipulation_targetAtFixation,jsons/v1_VE1000_randls_26_rotated.json,http://54.235.29.9/FacialAge/BNav_EC2/DepthDuration/v2_depth_duration_MTurk/v2_DepthDuration_HTML.html#263,263,1366,625,1366,768,8-29-2022,9-52-19,149,depth_duration_stimuli/000878_2014-06-08_22-52-45_260595134347_rgbf000045-resize_2/000878_2014-06-08_22-52-45_260595134347_rgbf000045-resize_2-target.png,1000,2.092,4,4876,992,feet,jsons/v1_VE1000_randls_26_rotated.json,975754,2080307,55,Woman
149,547268,DepthScenes,duration_manipulation_targetAtFixation,jsons/v1_VE1000_randls_26_rotated.json,http://54.235.29.9/FacialAge/BNav_EC2/DepthDuration/v2_depth_duration_MTurk/v2_DepthDuration_HTML.html#263,263,1366,625,1366,768,8-29-2022,9-52-19,150,depth_duration_stimuli/000191_2014-05-12_17-07-38_260595134347_rgbf000199-resize_0/000191_2014-05-12_17-07-38_260595134347_rgbf000199-resize_0-target.png,1000,3.7995,5,4640,989,feet,jsons/v1_VE1000_randls_26_rotated.json,975754,2080307,55,Woman
150,547268,DepthScenes,duration_manipulation_targetAtFixation,jsons/v1_VE1000_randls_26_rotated.json,http://54.235.29.9/FacialAge/BNav_EC2/DepthDuration/v2_depth_duration_MTurk/v2_DepthDuration_HTML.html#263,263,1366,625,1366,768,8-29-2022,9-52-19,151,depth_duration_stimuli/000493_2014-06-09_21-01-18_260595134347_rgbf000196-resize_3/000493_2014-06-09_21-01-18_260595134347_rgbf000196-resize_3-target.png,1000,3.44,4,6189,992,feet,jsons/v1_VE1000_randls_26_rotated.json,975754,2080307,55,Woman
151,547268,DepthScenes,duration_manipulation_targetAtFixation,jsons/v1_VE1000_randls_26_rotated.json,http://54.235.29.9/FacialAge/BNav_EC2/DepthDuration/v2_depth_duration_MTurk/v2_DepthDuration_HTML.html#263,263,1366,625,1366,768,8-29-2022,9-52-19,152,depth_duration_stimuli/000569_2014-06-09_22-51-47_260595134347_rgbf000141-resize_3/000569_2014-06-09_22-51-47_260595134347_rgbf000141-resize-original.jpg,1000,4.512,0,4719,996,feet,jsons/v1_VE1000_randls_26_rotated.json,975754,2080307,55,Woman
152,547268,DepthScenes,duration_manipulation_targetAtFixation,jsons/v1_VE1000_randls_26_rotated.json,http://54.235.29.9/FacialAge/BNav_EC2/DepthDuration/v2_depth_duration_MTurk/v2_DepthDuration_HTML.html#263,263,1366,625,1366,768,8-29-2022,9-52-19,153,depth_duration_stimuli/002444_2014-06-28_20-32-08_260595134347_rgbf000027-resize_0/002444_2014-06-28_20-32-08_260595134347_rgbf000027-resize_0-target.png,1000,4.388999999999999,4,4939,1006,feet,jsons/v1_VE1000_randls_26_rotated.json,975754,2080307,55,Woman
153,547268,DepthScenes,duration_manipulation_targetAtFixation,jsons/v1_VE1000_randls_26_rotated.json,http://54.235.29.9/FacialAge/BNav_EC2/DepthDuration/v2_depth_duration_MTurk/v2_DepthDuration_HTML.html#263,263,1366,625,1366,768,8-29-2022,9-52-19,154,depth_duration_stimuli/000436_2014-06-09_22-25-11_260595134347_rgbf000137-resize_1/000436_2014-06-09_22-25-11_260595134347_rgbf000137-resize_1-target.png,1000,4.0705,4,4068,993,feet,jsons/v1_VE1000_randls_26_rotated.json,975754,2080307,55,Woman
154,547268,DepthScenes,duration_manipulation_targetAtFixation,jsons/v1_VE1000_randls_26_rotated.json,http://54.235.29.9/FacialAge/BNav_EC2/DepthDuration/v2_depth_duration_MTurk/v2_DepthDuration_HTML.html#263,263,1366,625,1366,768,8-29-2022,9-52-19,155,depth_duration_stimuli/000927_2014-06-09_16-32-30_260595134347_rgbf000123-resize_3/000927_2014-06-09_16-32-30_260595134347_rgbf000123-resize_3-target.png,1000,2.6785,4,3933,994,feet,jsons/v1_VE1000_randls_26_rotated.json,975754,2080307,55,Woman
155,547268,DepthScenes,duration_manipulation_targetAtFixation,jsons/v1_VE1000_randls_26_rotated.json,http://54.235.29.9/FacialAge/BNav_EC2/DepthDuration/v2_depth_duration_MTurk/v2_DepthDuration_HTML.html#263,263,1366,625,1366,768,8-29-2022,9-52-19,156,depth_duration_stimuli/001110_2014-06-15_17-25-28_260595134347_rgbf000150-resize_1/001110_2014-06-15_17-25-28_260595134347_rgbf000150-resize_1-target.png,1000,1.7115,3,8317,1006,feet,jsons/v1_VE1000_randls_26_rotated.json,975754,2080307,55,Woman
156,547268,DepthScenes,duration_manipulation_targetAtFixation,jsons/v1_VE1000_randls_26_rotated.json,http://54.235.29.9/FacialAge/BNav_EC2/DepthDuration/v2_depth_duration_MTurk/v2_DepthDuration_HTML.html#263,263,1366,625,1366,768,8-29-2022,9-52-19,157,depth_duration_stimuli/003048_2014-06-15_13-49-43_094959634447_rgbf000150-resize_1/003048_2014-06-15_13-49-43_094959634447_rgbf000150-resize_1-target.png,1000,4.0035,4,4208,1005,feet,jsons/v1_VE1000_randls_26_rotated.json,975754,2080307,55,Woman
157,547268,DepthScenes,duration_manipulation_targetAtFixation,jsons/v1_VE1000_randls_26_rotated.json,http://54.235.29.9/FacialAge/BNav_EC2/DepthDuration/v2_depth_duration_MTurk/v2_DepthDuration_HTML.html#263,263,1366,625,1366,768,8-29-2022,9-52-19,158,depth_duration_stimuli/002043_2014-06-24_20-29-38_260595134347_rgbf000039-resize_4/002043_2014-06-24_20-29-38_260595134347_rgbf000039-resize_4-target.png,1000,2.8435,4,6762,1003,feet,jsons/v1_VE1000_randls_26_rotated.json,975754,2080307,55,Woman
158,547268,DepthScenes,duration_manipulation_targetAtFixation,jsons/v1_VE1000_randls_26_rotated.json,http://54.235.29.9/FacialAge/BNav_EC2/DepthDuration/v2_depth_duration_MTurk/v2_DepthDuration_HTML.html#263,263,1366,625,1366,768,8-29-2022,9-52-19,159,depth_duration_stimuli/000866_2014-06-09_20-45-42_260595134347_rgbf000139-resize_1/000866_2014-06-09_20-45-42_260595134347_rgbf000139-resize_1-target.png,1000,3.2155,4,3809,1002,feet,jsons/v1_VE1000_randls_26_rotated.json,975754,2080307,55,Woman
159,547268,DepthScenes,duration_manipulation_targetAtFixation,jsons/v1_VE1000_randls_26_rotated.json,http://54.235.29.9/FacialAge/BNav_EC2/DepthDuration/v2_depth_duration_MTurk/v2_DepthDuration_HTML.html#263,263,1366,625,1366,768,8-29-2022,9-52-19,160,depth_duration_stimuli/002989_2014-06-15_12-25-03_094959634447_rgbf000150-resize_3/002989_2014-06-15_12-25-03_094959634447_rgbf000150-resize_3-target.png,1000,4.1975,5,5619,999,feet,jsons/v1_VE1000_randls_26_rotated.json,975754,2080307,55,Woman
160,547268,DepthScenes,duration_manipulation_targetAtFixation,jsons/v1_VE1000_randls_26_rotated.json,http://54.235.29.9/FacialAge/BNav_EC2/DepthDuration/v2_depth_duration_MTurk/v2_DepthDuration_HTML.html#263,263,1366,625,1366,768,8-29-2022,9-52-19,161,depth_duration_stimuli/000691_2014-06-08_13-08-50_260595134347_rgbf000132-resize_3/000691_2014-06-08_13-08-50_260595134347_rgbf000132-resize_3-target.png,1000,4.1530000000000005,2,5030,1009,feet,jsons/v1_VE1000_randls_26_rotated.json,975754,2080307,55,Woman
161,547268,DepthScenes,duration_manipulation_targetAtFixation,jsons/v1_VE1000_randls_26_rotated.json,http://54.235.29.9/FacialAge/BNav_EC2/DepthDuration/v2_depth_duration_MTurk/v2_DepthDuration_HTML.html#263,263,1366,625,1366,768,8-29-2022,9-52-19,162,depth_duration_stimuli/002213_2014-06-28_18-37-58_260595134347_rgbf000055-resize_1/002213_2014-06-28_18-37-58_260595134347_rgbf000055-resize_1-target.png,1000,3.62,5,4317,1005,feet,jsons/v1_VE1000_randls_26_rotated.json,975754,2080307,55,Woman
162,547268,DepthScenes,duration_manipulation_targetAtFixation,jsons/v1_VE1000_randls_26_rotated.json,http://54.235.29.9/FacialAge/BNav_EC2/DepthDuration/v2_depth_duration_MTurk/v2_DepthDuration_HTML.html#263,263,1366,625,1366,768,8-29-2022,9-52-19,163,depth_duration_stimuli/001214_2014-06-17_16-13-55_260595134347_rgbf000111-resize_0/001214_2014-06-17_16-13-55_260595134347_rgbf000111-resize_0-target.png,1000,2.6505,2,4786,1009,feet,jsons/v1_VE1000_randls_26_rotated.json,975754,2080307,55,Woman
163,547268,DepthScenes,duration_manipulation_targetAtFixation,jsons/v1_VE1000_randls_26_rotated.json,http://54.235.29.9/FacialAge/BNav_EC2/DepthDuration/v2_depth_duration_MTurk/v2_DepthDuration_HTML.html#263,263,1366,625,1366,768,8-29-2022,9-52-19,164,depth_duration_stimuli/000810_2014-06-08_17-20-01_260595134347_rgbf000105-resize_0/000810_2014-06-08_17-20-01_260595134347_rgbf000105-resize_0-target.png,1000,1.4865,2,3827,999,feet,jsons/v1_VE1000_randls_26_rotated.json,975754,2080307,55,Woman
