,subjID,experimentName,versionName,sequenceName,url,selected_row,windowWidth,windowHeight,screenWidth,screenHeight,startDate,startTime,trial,stimulus,duration,actual_depth,depth_estimate,trial_RT,log_sceneDuration,unitSelection,seq_filepath,experimentTime,totalTime,age,gender
0,549075,DepthScenes,duration_manipulation_targetAtFixation,jsons/v1_VE250_randls_18.json,http://54.235.29.9/FacialAge/BNav_EC2/DepthDuration/v2_depth_duration_MTurk/v2_DepthDuration_HTML.html#4,4,1366,625,1366,768,8-30-2022,9-53-45,1,depth_duration_stimuli/002509_2014-06-24_13-19-22_094959634447_rgbf000077-resize_0/002509_2014-06-24_13-19-22_094959634447_rgbf000077-resize_0-target.png,250,1.3065,45,155066,251,meters,jsons/v1_VE250_randls_18.json,2473838,2882625,55,Man
1,549075,DepthScenes,duration_manipulation_targetAtFixation,jsons/v1_VE250_randls_18.json,http://54.235.29.9/FacialAge/BNav_EC2/DepthDuration/v2_depth_duration_MTurk/v2_DepthDuration_HTML.html#4,4,1366,625,1366,768,8-30-2022,9-53-45,2,depth_duration_stimuli/003338_2014-05-20_11-01-23_094959634447_rgbf000051-resize_6/003338_2014-05-20_11-01-23_094959634447_rgbf000051-resize_6-target.png,250,1.693,48,30492,250,meters,jsons/v1_VE250_randls_18.json,2473838,2882625,55,Man
2,549075,DepthScenes,duration_manipulation_targetAtFixation,jsons/v1_VE250_randls_18.json,http://54.235.29.9/FacialAge/BNav_EC2/DepthDuration/v2_depth_duration_MTurk/v2_DepthDuration_HTML.html#4,4,1366,625,1366,768,8-30-2022,9-53-45,3,depth_duration_stimuli/002375_2014-06-28_20-13-44_260595134347_rgbf000032-resize_1/002375_2014-06-28_20-13-44_260595134347_rgbf000032-resize_1-target.png,250,4.0175,50,7372,247,meters,jsons/v1_VE250_randls_18.json,2473838,2882625,55,Man
3,549075,DepthScenes,duration_manipulation_targetAtFixation,jsons/v1_VE250_randls_18.json,http://54.235.29.9/FacialAge/BNav_EC2/DepthDuration/v2_depth_duration_MTurk/v2_DepthDuration_HTML.html#4,4,1366,625,1366,768,8-30-2022,9-53-45,4,depth_duration_stimuli/002657_2014-06-13_15-29-54_094959634447_rgbf000150-resize_1/002657_2014-06-13_15-29-54_094959634447_rgbf000150-resize_1-target.png,250,4.919,60,51560,250,meters,jsons/v1_VE250_randls_18.json,2473838,2882625,55,Man
4,549075,DepthScenes,duration_manipulation_targetAtFixation,jsons/v1_VE250_randls_18.json,http://54.235.29.9/FacialAge/BNav_EC2/DepthDuration/v2_depth_duration_MTurk/v2_DepthDuration_HTML.html#4,4,1366,625,1366,768,8-30-2022,9-53-45,5,depth_duration_stimuli/001110_2014-06-15_17-25-28_260595134347_rgbf000150-resize_1/001110_2014-06-15_17-25-28_260595134347_rgbf000150-resize_1-target.png,250,1.7115,57,6007,249,meters,jsons/v1_VE250_randls_18.json,2473838,2882625,55,Man
5,549075,DepthScenes,duration_manipulation_targetAtFixation,jsons/v1_VE250_randls_18.json,http://54.235.29.9/FacialAge/BNav_EC2/DepthDuration/v2_depth_duration_MTurk/v2_DepthDuration_HTML.html#4,4,1366,625,1366,768,8-30-2022,9-53-45,6,depth_duration_stimuli/000927_2014-06-09_16-32-30_260595134347_rgbf000123-resize_3/000927_2014-06-09_16-32-30_260595134347_rgbf000123-resize_3-target.png,250,2.6785,78,5353,250,meters,jsons/v1_VE250_randls_18.json,2473838,2882625,55,Man
6,549075,DepthScenes,duration_manipulation_targetAtFixation,jsons/v1_VE250_randls_18.json,http://54.235.29.9/FacialAge/BNav_EC2/DepthDuration/v2_depth_duration_MTurk/v2_DepthDuration_HTML.html#4,4,1366,625,1366,768,8-30-2022,9-53-45,7,depth_duration_stimuli/000692_2014-06-08_13-09-42_260595134347_rgbf000199-resize_2/000692_2014-06-08_13-09-42_260595134347_rgbf000199-resize_2-target.png,250,3.661,85,4783,250,meters,jsons/v1_VE250_randls_18.json,2473838,2882625,55,Man
7,549075,DepthScenes,duration_manipulation_targetAtFixation,jsons/v1_VE250_randls_18.json,http://54.235.29.9/FacialAge/BNav_EC2/DepthDuration/v2_depth_duration_MTurk/v2_DepthDuration_HTML.html#4,4,1366,625,1366,768,8-30-2022,9-53-45,8,depth_duration_stimuli/001094_2014-06-15_17-36-00_260595134347_rgbf000205-resize_0/001094_2014-06-15_17-36-00_260595134347_rgbf000205-resize_0-target.png,250,4.2175,92,19998,250,meters,jsons/v1_VE250_randls_18.json,2473838,2882625,55,Man
8,549075,DepthScenes,duration_manipulation_targetAtFixation,jsons/v1_VE250_randls_18.json,http://54.235.29.9/FacialAge/BNav_EC2/DepthDuration/v2_depth_duration_MTurk/v2_DepthDuration_HTML.html#4,4,1366,625,1366,768,8-30-2022,9-53-45,9,depth_duration_stimuli/001417_2014-06-19_16-25-36_260595134347_rgbf000115-resize_5/001417_2014-06-19_16-25-36_260595134347_rgbf000115-resize_5-target.png,250,4.6255,96,21430,251,meters,jsons/v1_VE250_randls_18.json,2473838,2882625,55,Man
9,549075,DepthScenes,duration_manipulation_targetAtFixation,jsons/v1_VE250_randls_18.json,http://54.235.29.9/FacialAge/BNav_EC2/DepthDuration/v2_depth_duration_MTurk/v2_DepthDuration_HTML.html#4,4,1366,625,1366,768,8-30-2022,9-53-45,10,depth_duration_stimuli/003081_2014-06-15_15-19-16_094959634447_rgbf000150-resize_1/003081_2014-06-15_15-19-16_094959634447_rgbf000150-resize_1-target.png,250,3.9125,60,8262,249,meters,jsons/v1_VE250_randls_18.json,2473838,2882625,55,Man
10,549075,DepthScenes,duration_manipulation_targetAtFixation,jsons/v1_VE250_randls_18.json,http://54.235.29.9/FacialAge/BNav_EC2/DepthDuration/v2_depth_duration_MTurk/v2_DepthDuration_HTML.html#4,4,1366,625,1366,768,8-30-2022,9-53-45,11,depth_duration_stimuli/001055_2014-06-08_18-45-35_260595134347_rgbf000111-resize_4/001055_2014-06-08_18-45-35_260595134347_rgbf000111-resize_4-target.png,250,2.4290000000000003,75,5467,250,meters,jsons/v1_VE250_randls_18.json,2473838,2882625,55,Man
11,549075,DepthScenes,duration_manipulation_targetAtFixation,jsons/v1_VE250_randls_18.json,http://54.235.29.9/FacialAge/BNav_EC2/DepthDuration/v2_depth_duration_MTurk/v2_DepthDuration_HTML.html#4,4,1366,625,1366,768,8-30-2022,9-53-45,12,depth_duration_stimuli/000549_2014-06-08_22-10-24_260595134347_rgbf000247-resize_3/000549_2014-06-08_22-10-24_260595134347_rgbf000247-resize_3-target.png,250,1.841,30,25117,250,meters,jsons/v1_VE250_randls_18.json,2473838,2882625,55,Man
12,549075,DepthScenes,duration_manipulation_targetAtFixation,jsons/v1_VE250_randls_18.json,http://54.235.29.9/FacialAge/BNav_EC2/DepthDuration/v2_depth_duration_MTurk/v2_DepthDuration_HTML.html#4,4,1366,625,1366,768,8-30-2022,9-53-45,13,depth_duration_stimuli/000569_2014-06-09_22-51-47_260595134347_rgbf000141-resize_3/000569_2014-06-09_22-51-47_260595134347_rgbf000141-resize-original.jpg,250,4.512,40,10005,251,meters,jsons/v1_VE250_randls_18.json,2473838,2882625,55,Man
13,549075,DepthScenes,duration_manipulation_targetAtFixation,jsons/v1_VE250_randls_18.json,http://54.235.29.9/FacialAge/BNav_EC2/DepthDuration/v2_depth_duration_MTurk/v2_DepthDuration_HTML.html#4,4,1366,625,1366,768,8-30-2022,9-53-45,14,depth_duration_stimuli/001175_2014-06-17_15-45-55_260595134347_rgbf000129-resize_4/001175_2014-06-17_15-45-55_260595134347_rgbf000129-resize_4-target.png,250,4.255,97,25338,250,meters,jsons/v1_VE250_randls_18.json,2473838,2882625,55,Man
14,549075,DepthScenes,duration_manipulation_targetAtFixation,jsons/v1_VE250_randls_18.json,http://54.235.29.9/FacialAge/BNav_EC2/DepthDuration/v2_depth_duration_MTurk/v2_DepthDuration_HTML.html#4,4,1366,625,1366,768,8-30-2022,9-53-45,15,depth_duration_stimuli/003490_2014-05-21_15-50-11_094959634447_rgbf000101-resize_3/003490_2014-05-21_15-50-11_094959634447_rgbf000101-resize_3-target.png,250,3.6445,55,12354,251,meters,jsons/v1_VE250_randls_18.json,2473838,2882625,55,Man
15,549075,DepthScenes,duration_manipulation_targetAtFixation,jsons/v1_VE250_randls_18.json,http://54.235.29.9/FacialAge/BNav_EC2/DepthDuration/v2_depth_duration_MTurk/v2_DepthDuration_HTML.html#4,4,1366,625,1366,768,8-30-2022,9-53-45,16,depth_duration_stimuli/000788_2014-06-08_22-34-36_260595134347_rgbf000131-resize_1/000788_2014-06-08_22-34-36_260595134347_rgbf000131-resize_1-target.png,250,3.359,40,26139,250,meters,jsons/v1_VE250_randls_18.json,2473838,2882625,55,Man
16,549075,DepthScenes,duration_manipulation_targetAtFixation,jsons/v1_VE250_randls_18.json,http://54.235.29.9/FacialAge/BNav_EC2/DepthDuration/v2_depth_duration_MTurk/v2_DepthDuration_HTML.html#4,4,1366,625,1366,768,8-30-2022,9-53-45,17,depth_duration_stimuli/001235_2014-06-17_16-37-36_260595134347_rgbf000084-resize_4/001235_2014-06-17_16-37-36_260595134347_rgbf000084-resize_4-target.png,250,3.6605,45,6279,250,meters,jsons/v1_VE250_randls_18.json,2473838,2882625,55,Man
17,549075,DepthScenes,duration_manipulation_targetAtFixation,jsons/v1_VE250_randls_18.json,http://54.235.29.9/FacialAge/BNav_EC2/DepthDuration/v2_depth_duration_MTurk/v2_DepthDuration_HTML.html#4,4,1366,625,1366,768,8-30-2022,9-53-45,18,depth_duration_stimuli/000436_2014-06-09_22-25-11_260595134347_rgbf000137-resize_1/000436_2014-06-09_22-25-11_260595134347_rgbf000137-resize_1-target.png,250,4.0705,65,25778,250,meters,jsons/v1_VE250_randls_18.json,2473838,2882625,55,Man
18,549075,DepthScenes,duration_manipulation_targetAtFixation,jsons/v1_VE250_randls_18.json,http://54.235.29.9/FacialAge/BNav_EC2/DepthDuration/v2_depth_duration_MTurk/v2_DepthDuration_HTML.html#4,4,1366,625,1366,768,8-30-2022,9-53-45,19,depth_duration_stimuli/002444_2014-06-28_20-32-08_260595134347_rgbf000027-resize_0/002444_2014-06-28_20-32-08_260595134347_rgbf000027-resize_0-target.png,250,4.388999999999999,58,5236,249,meters,jsons/v1_VE250_randls_18.json,2473838,2882625,55,Man
19,549075,DepthScenes,duration_manipulation_targetAtFixation,jsons/v1_VE250_randls_18.json,http://54.235.29.9/FacialAge/BNav_EC2/DepthDuration/v2_depth_duration_MTurk/v2_DepthDuration_HTML.html#4,4,1366,625,1366,768,8-30-2022,9-53-45,20,depth_duration_stimuli/002570_2014-06-24_13-59-54_094959634447_rgbf000059-resize_0/002570_2014-06-24_13-59-54_094959634447_rgbf000059-resize_0-target.png,250,4.037,60,4311,250,meters,jsons/v1_VE250_randls_18.json,2473838,2882625,55,Man
20,549075,DepthScenes,duration_manipulation_targetAtFixation,jsons/v1_VE250_randls_18.json,http://54.235.29.9/FacialAge/BNav_EC2/DepthDuration/v2_depth_duration_MTurk/v2_DepthDuration_HTML.html#4,4,1366,625,1366,768,8-30-2022,9-53-45,21,depth_duration_stimuli/002467_2014-06-28_20-38-07_260595134347_rgbf000026-resize_2/002467_2014-06-28_20-38-07_260595134347_rgbf000026-resize_2-target.png,250,4.742,65,3340,250,meters,jsons/v1_VE250_randls_18.json,2473838,2882625,55,Man
21,549075,DepthScenes,duration_manipulation_targetAtFixation,jsons/v1_VE250_randls_18.json,http://54.235.29.9/FacialAge/BNav_EC2/DepthDuration/v2_depth_duration_MTurk/v2_DepthDuration_HTML.html#4,4,1366,625,1366,768,8-30-2022,9-53-45,22,depth_duration_stimuli/002988_2014-06-15_12-24-20_094959634447_rgbf000150-resize_1/002988_2014-06-15_12-24-20_094959634447_rgbf000150-resize_1-target.png,250,4.7669999999999995,45,5598,250,meters,jsons/v1_VE250_randls_18.json,2473838,2882625,55,Man
22,549075,DepthScenes,duration_manipulation_targetAtFixation,jsons/v1_VE250_randls_18.json,http://54.235.29.9/FacialAge/BNav_EC2/DepthDuration/v2_depth_duration_MTurk/v2_DepthDuration_HTML.html#4,4,1366,625,1366,768,8-30-2022,9-53-45,23,depth_duration_stimuli/001052_2014-06-08_18-24-54_260595134347_rgbf000130-resize_1/001052_2014-06-08_18-24-54_260595134347_rgbf000130-resize_1-target.png,250,4.1045,63,22910,249,meters,jsons/v1_VE250_randls_18.json,2473838,2882625,55,Man
23,549075,DepthScenes,duration_manipulation_targetAtFixation,jsons/v1_VE250_randls_18.json,http://54.235.29.9/FacialAge/BNav_EC2/DepthDuration/v2_depth_duration_MTurk/v2_DepthDuration_HTML.html#4,4,1366,625,1366,768,8-30-2022,9-53-45,24,depth_duration_stimuli/000739_2014-06-08_18-45-58_260595134347_rgbf000068-resize_1/000739_2014-06-08_18-45-58_260595134347_rgbf000068-resize_1-target.png,250,3.534,55,16078,250,meters,jsons/v1_VE250_randls_18.json,2473838,2882625,55,Man
24,549075,DepthScenes,duration_manipulation_targetAtFixation,jsons/v1_VE250_randls_18.json,http://54.235.29.9/FacialAge/BNav_EC2/DepthDuration/v2_depth_duration_MTurk/v2_DepthDuration_HTML.html#4,4,1366,625,1366,768,8-30-2022,9-53-45,25,depth_duration_stimuli/000734_2014-06-08_17-39-11_260595134347_rgbf000128-resize_2/000734_2014-06-08_17-39-11_260595134347_rgbf000128-resize_2-target.png,250,4.098,47,7397,250,meters,jsons/v1_VE250_randls_18.json,2473838,2882625,55,Man
25,549075,DepthScenes,duration_manipulation_targetAtFixation,jsons/v1_VE250_randls_18.json,http://54.235.29.9/FacialAge/BNav_EC2/DepthDuration/v2_depth_duration_MTurk/v2_DepthDuration_HTML.html#4,4,1366,625,1366,768,8-30-2022,9-53-45,26,depth_duration_stimuli/002279_2014-06-28_18-55-32_260595134347_rgbf000040-resize_5/002279_2014-06-28_18-55-32_260595134347_rgbf000040-resize_5-target.png,250,1.5043333333333,34,19564,250,meters,jsons/v1_VE250_randls_18.json,2473838,2882625,55,Man
26,549075,DepthScenes,duration_manipulation_targetAtFixation,jsons/v1_VE250_randls_18.json,http://54.235.29.9/FacialAge/BNav_EC2/DepthDuration/v2_depth_duration_MTurk/v2_DepthDuration_HTML.html#4,4,1366,625,1366,768,8-30-2022,9-53-45,27,depth_duration_stimuli/000635_2014-06-08_16-38-42_260595134347_rgbf000106-resize_1/000635_2014-06-08_16-38-42_260595134347_rgbf000106-resize_1-target.png,250,2.074,46,8774,250,meters,jsons/v1_VE250_randls_18.json,2473838,2882625,55,Man
27,549075,DepthScenes,duration_manipulation_targetAtFixation,jsons/v1_VE250_randls_18.json,http://54.235.29.9/FacialAge/BNav_EC2/DepthDuration/v2_depth_duration_MTurk/v2_DepthDuration_HTML.html#4,4,1366,625,1366,768,8-30-2022,9-53-45,28,depth_duration_stimuli/001133_2014-06-17_14-49-16_260595134347_rgbf000100-resize_0/001133_2014-06-17_14-49-16_260595134347_rgbf000100-resize_0-target.png,250,4.2115,49,24169,245,meters,jsons/v1_VE250_randls_18.json,2473838,2882625,55,Man
28,549075,DepthScenes,duration_manipulation_targetAtFixation,jsons/v1_VE250_randls_18.json,http://54.235.29.9/FacialAge/BNav_EC2/DepthDuration/v2_depth_duration_MTurk/v2_DepthDuration_HTML.html#4,4,1366,625,1366,768,8-30-2022,9-53-45,29,depth_duration_stimuli/001132_2014-06-17_14-48-54_260595134347_rgbf000100-resize_2/001132_2014-06-17_14-48-54_260595134347_rgbf000100-resize_2-target.png,250,3.753,68,5284,253,meters,jsons/v1_VE250_randls_18.json,2473838,2882625,55,Man
29,549075,DepthScenes,duration_manipulation_targetAtFixation,jsons/v1_VE250_randls_18.json,http://54.235.29.9/FacialAge/BNav_EC2/DepthDuration/v2_depth_duration_MTurk/v2_DepthDuration_HTML.html#4,4,1366,768,1366,768,8-30-2022,9-53-45,30,depth_duration_stimuli/000375_2014-06-08_11-17-29_260595134347_rgbf000133-resize_2/000375_2014-06-08_11-17-29_260595134347_rgbf000133-resize-original.jpg,250,4.718,31,23710,250,meters,jsons/v1_VE250_randls_18.json,2473838,2882625,55,Man
30,549075,DepthScenes,duration_manipulation_targetAtFixation,jsons/v1_VE250_randls_18.json,http://54.235.29.9/FacialAge/BNav_EC2/DepthDuration/v2_depth_duration_MTurk/v2_DepthDuration_HTML.html#4,4,1366,768,1366,768,8-30-2022,9-53-45,31,depth_duration_stimuli/001029_2014-06-08_13-17-57_260595134347_rgbf000065-resize_1/001029_2014-06-08_13-17-57_260595134347_rgbf000065-resize_1-target.png,250,3.0835,48,4445,250,meters,jsons/v1_VE250_randls_18.json,2473838,2882625,55,Man
31,549075,DepthScenes,duration_manipulation_targetAtFixation,jsons/v1_VE250_randls_18.json,http://54.235.29.9/FacialAge/BNav_EC2/DepthDuration/v2_depth_duration_MTurk/v2_DepthDuration_HTML.html#4,4,1366,768,1366,768,8-30-2022,9-53-45,32,depth_duration_stimuli/000677_2014-06-08_23-10-32_260595134347_rgbf000158-resize_6/000677_2014-06-08_23-10-32_260595134347_rgbf000158-resize_6-target.png,250,3.556,50,25803,250,meters,jsons/v1_VE250_randls_18.json,2473838,2882625,55,Man
32,549075,DepthScenes,duration_manipulation_targetAtFixation,jsons/v1_VE250_randls_18.json,http://54.235.29.9/FacialAge/BNav_EC2/DepthDuration/v2_depth_duration_MTurk/v2_DepthDuration_HTML.html#4,4,1366,768,1366,768,8-30-2022,9-53-45,33,depth_duration_stimuli/001066_2014-06-08_22-03-20_260595134347_rgbf000066-resize_4/001066_2014-06-08_22-03-20_260595134347_rgbf000066-resize_4-target.png,250,4.2330000000000005,67,25703,250,meters,jsons/v1_VE250_randls_18.json,2473838,2882625,55,Man
33,549075,DepthScenes,duration_manipulation_targetAtFixation,jsons/v1_VE250_randls_18.json,http://54.235.29.9/FacialAge/BNav_EC2/DepthDuration/v2_depth_duration_MTurk/v2_DepthDuration_HTML.html#4,4,1366,768,1366,768,8-30-2022,9-53-45,34,depth_duration_stimuli/000742_2014-06-08_18-48-09_260595134347_rgbf000164-resize_4/000742_2014-06-08_18-48-09_260595134347_rgbf000164-resize_4-target.png,250,4.632,55,4839,235,meters,jsons/v1_VE250_randls_18.json,2473838,2882625,55,Man
34,549075,DepthScenes,duration_manipulation_targetAtFixation,jsons/v1_VE250_randls_18.json,http://54.235.29.9/FacialAge/BNav_EC2/DepthDuration/v2_depth_duration_MTurk/v2_DepthDuration_HTML.html#4,4,1366,768,1366,768,8-30-2022,9-53-45,35,depth_duration_stimuli/001059_2014-06-08_21-53-27_260595134347_rgbf000061-resize_4/001059_2014-06-08_21-53-27_260595134347_rgbf000061-resize_4-target.png,250,2.4185,50,4616,248,meters,jsons/v1_VE250_randls_18.json,2473838,2882625,55,Man
35,549075,DepthScenes,duration_manipulation_targetAtFixation,jsons/v1_VE250_randls_18.json,http://54.235.29.9/FacialAge/BNav_EC2/DepthDuration/v2_depth_duration_MTurk/v2_DepthDuration_HTML.html#4,4,1366,768,1366,768,8-30-2022,9-53-45,36,depth_duration_stimuli/001032_2014-06-08_13-23-17_260595134347_rgbf000021-resize_3/001032_2014-06-08_13-23-17_260595134347_rgbf000021-resize_3-target.png,250,3.2725,47,5698,250,meters,jsons/v1_VE250_randls_18.json,2473838,2882625,55,Man
36,549075,DepthScenes,duration_manipulation_targetAtFixation,jsons/v1_VE250_randls_18.json,http://54.235.29.9/FacialAge/BNav_EC2/DepthDuration/v2_depth_duration_MTurk/v2_DepthDuration_HTML.html#4,4,1366,768,1366,768,8-30-2022,9-53-45,37,depth_duration_stimuli/000506_2014-06-08_23-21-00_260595134347_rgbf000070-resize_7/000506_2014-06-08_23-21-00_260595134347_rgbf000070-resize_7-target.png,250,4.0585,50,27016,250,meters,jsons/v1_VE250_randls_18.json,2473838,2882625,55,Man
37,549075,DepthScenes,duration_manipulation_targetAtFixation,jsons/v1_VE250_randls_18.json,http://54.235.29.9/FacialAge/BNav_EC2/DepthDuration/v2_depth_duration_MTurk/v2_DepthDuration_HTML.html#4,4,1366,768,1366,768,8-30-2022,9-53-45,38,depth_duration_stimuli/003079_2014-06-15_15-18-20_094959634447_rgbf000152-resize_8/003079_2014-06-15_15-18-20_094959634447_rgbf000152-resize_8-target.png,250,2.8775,60,5825,265,meters,jsons/v1_VE250_randls_18.json,2473838,2882625,55,Man
38,549075,DepthScenes,duration_manipulation_targetAtFixation,jsons/v1_VE250_randls_18.json,http://54.235.29.9/FacialAge/BNav_EC2/DepthDuration/v2_depth_duration_MTurk/v2_DepthDuration_HTML.html#4,4,1366,768,1366,768,8-30-2022,9-53-45,39,depth_duration_stimuli/001056_2014-06-08_18-46-44_260595134347_rgbf000068-resize_0/001056_2014-06-08_18-46-44_260595134347_rgbf000068-resize_0-target.png,250,2.6625,35,23561,250,meters,jsons/v1_VE250_randls_18.json,2473838,2882625,55,Man
39,549075,DepthScenes,duration_manipulation_targetAtFixation,jsons/v1_VE250_randls_18.json,http://54.235.29.9/FacialAge/BNav_EC2/DepthDuration/v2_depth_duration_MTurk/v2_DepthDuration_HTML.html#4,4,1366,768,1366,768,8-30-2022,9-53-45,40,depth_duration_stimuli/002199_2014-06-28_18-33-56_260595134347_rgbf000074-resize_0/002199_2014-06-28_18-33-56_260595134347_rgbf000074-resize_0-target.png,250,1.996,37,5659,250,meters,jsons/v1_VE250_randls_18.json,2473838,2882625,55,Man
40,549075,DepthScenes,duration_manipulation_targetAtFixation,jsons/v1_VE250_randls_18.json,http://54.235.29.9/FacialAge/BNav_EC2/DepthDuration/v2_depth_duration_MTurk/v2_DepthDuration_HTML.html#4,4,1366,768,1366,768,8-30-2022,9-53-45,41,depth_duration_stimuli/000368_2014-06-09_15-53-01_260595134347_rgbf000155-resize_2/000368_2014-06-09_15-53-01_260595134347_rgbf000155-resize_2-target.png,250,2.4859999999999998,34,25637,251,meters,jsons/v1_VE250_randls_18.json,2473838,2882625,55,Man
41,549075,DepthScenes,duration_manipulation_targetAtFixation,jsons/v1_VE250_randls_18.json,http://54.235.29.9/FacialAge/BNav_EC2/DepthDuration/v2_depth_duration_MTurk/v2_DepthDuration_HTML.html#4,4,1366,768,1366,768,8-30-2022,9-53-45,42,depth_duration_stimuli/002678_2014-06-13_16-15-32_094959634447_rgbf000151-resize_6/002678_2014-06-13_16-15-32_094959634447_rgbf000151-resize_6-target.png,250,2.1830000000000003,55,5910,252,meters,jsons/v1_VE250_randls_18.json,2473838,2882625,55,Man
42,549075,DepthScenes,duration_manipulation_targetAtFixation,jsons/v1_VE250_randls_18.json,http://54.235.29.9/FacialAge/BNav_EC2/DepthDuration/v2_depth_duration_MTurk/v2_DepthDuration_HTML.html#4,4,1366,768,1366,768,8-30-2022,9-53-45,43,depth_duration_stimuli/001016_2014-06-09_16-16-10_260595134347_rgbf000112-resize_5/001016_2014-06-09_16-16-10_260595134347_rgbf000112-resize_5-target.png,250,1.6565,58,26216,250,meters,jsons/v1_VE250_randls_18.json,2473838,2882625,55,Man
43,549075,DepthScenes,duration_manipulation_targetAtFixation,jsons/v1_VE250_randls_18.json,http://54.235.29.9/FacialAge/BNav_EC2/DepthDuration/v2_depth_duration_MTurk/v2_DepthDuration_HTML.html#4,4,1366,768,1366,768,8-30-2022,9-53-45,44,depth_duration_stimuli/002340_2014-06-28_20-05-46_260595134347_rgbf000113-resize_0/002340_2014-06-28_20-05-46_260595134347_rgbf000113-resize_0-target.png,250,2.4735,60,5365,250,meters,jsons/v1_VE250_randls_18.json,2473838,2882625,55,Man
44,549075,DepthScenes,duration_manipulation_targetAtFixation,jsons/v1_VE250_randls_18.json,http://54.235.29.9/FacialAge/BNav_EC2/DepthDuration/v2_depth_duration_MTurk/v2_DepthDuration_HTML.html#4,4,1366,768,1366,768,8-30-2022,9-53-45,45,depth_duration_stimuli/000787_2014-06-08_22-33-53_260595134347_rgbf000175-resize_1/000787_2014-06-08_22-33-53_260595134347_rgbf000175-resize-original.jpg,250,4.784,32,20850,249,meters,jsons/v1_VE250_randls_18.json,2473838,2882625,55,Man
45,549075,DepthScenes,duration_manipulation_targetAtFixation,jsons/v1_VE250_randls_18.json,http://54.235.29.9/FacialAge/BNav_EC2/DepthDuration/v2_depth_duration_MTurk/v2_DepthDuration_HTML.html#4,4,1366,768,1366,768,8-30-2022,9-53-45,46,depth_duration_stimuli/000929_2014-06-09_16-33-19_260595134347_rgbf000139-resize_0/000929_2014-06-09_16-33-19_260595134347_rgbf000139-resize_0-target.png,250,2.8680000000000003,38,5952,250,meters,jsons/v1_VE250_randls_18.json,2473838,2882625,55,Man
46,549075,DepthScenes,duration_manipulation_targetAtFixation,jsons/v1_VE250_randls_18.json,http://54.235.29.9/FacialAge/BNav_EC2/DepthDuration/v2_depth_duration_MTurk/v2_DepthDuration_HTML.html#4,4,1366,768,1366,768,8-30-2022,9-53-45,47,depth_duration_stimuli/000457_2014-06-08_16-52-43_260595134347_rgbf000199-resize_1/000457_2014-06-08_16-52-43_260595134347_rgbf000199-resize_1-target.png,250,3.6489999999999996,45,3807,250,meters,jsons/v1_VE250_randls_18.json,2473838,2882625,55,Man
47,549075,DepthScenes,duration_manipulation_targetAtFixation,jsons/v1_VE250_randls_18.json,http://54.235.29.9/FacialAge/BNav_EC2/DepthDuration/v2_depth_duration_MTurk/v2_DepthDuration_HTML.html#4,4,1366,768,1366,768,8-30-2022,9-53-45,48,depth_duration_stimuli/000522_2014-06-08_13-35-06_260595134347_rgbf000244-resize_1/000522_2014-06-08_13-35-06_260595134347_rgbf000244-resize_1-target.png,250,2.3715,35,32043,250,meters,jsons/v1_VE250_randls_18.json,2473838,2882625,55,Man
48,549075,DepthScenes,duration_manipulation_targetAtFixation,jsons/v1_VE250_randls_18.json,http://54.235.29.9/FacialAge/BNav_EC2/DepthDuration/v2_depth_duration_MTurk/v2_DepthDuration_HTML.html#4,4,1366,768,1366,768,8-30-2022,9-53-45,49,depth_duration_stimuli/002949_2014-06-26_15-57-42_094959634447_rgbf000079-resize_1/002949_2014-06-26_15-57-42_094959634447_rgbf000079-resize_1-target.png,250,1.8915,40,6018,251,meters,jsons/v1_VE250_randls_18.json,2473838,2882625,55,Man
49,549075,DepthScenes,duration_manipulation_targetAtFixation,jsons/v1_VE250_randls_18.json,http://54.235.29.9/FacialAge/BNav_EC2/DepthDuration/v2_depth_duration_MTurk/v2_DepthDuration_HTML.html#4,4,1366,768,1366,768,8-30-2022,9-53-45,50,depth_duration_stimuli/000414_2014-06-04_19-49-13_260595134347_rgbf000044-resize_0/000414_2014-06-04_19-49-13_260595134347_rgbf000044-resize_0-target.png,250,4.329,58,25967,263,meters,jsons/v1_VE250_randls_18.json,2473838,2882625,55,Man
50,549075,DepthScenes,duration_manipulation_targetAtFixation,jsons/v1_VE250_randls_18.json,http://54.235.29.9/FacialAge/BNav_EC2/DepthDuration/v2_depth_duration_MTurk/v2_DepthDuration_HTML.html#4,4,1366,768,1366,768,8-30-2022,9-53-45,51,depth_duration_stimuli/003129_2014-05-12_10-48-10_094959634447_rgbf000100-resize_0/003129_2014-05-12_10-48-10_094959634447_rgbf000100-resize_0-target.png,250,4.9305,33,7463,250,meters,jsons/v1_VE250_randls_18.json,2473838,2882625,55,Man
51,549075,DepthScenes,duration_manipulation_targetAtFixation,jsons/v1_VE250_randls_18.json,http://54.235.29.9/FacialAge/BNav_EC2/DepthDuration/v2_depth_duration_MTurk/v2_DepthDuration_HTML.html#4,4,1366,768,1366,768,8-30-2022,9-53-45,52,depth_duration_stimuli/000758_2014-06-08_22-05-08_260595134347_rgbf000085-resize_0/000758_2014-06-08_22-05-08_260595134347_rgbf000085-resize_0-target.png,250,3.3810000000000002,58,28685,250,meters,jsons/v1_VE250_randls_18.json,2473838,2882625,55,Man
52,549075,DepthScenes,duration_manipulation_targetAtFixation,jsons/v1_VE250_randls_18.json,http://54.235.29.9/FacialAge/BNav_EC2/DepthDuration/v2_depth_duration_MTurk/v2_DepthDuration_HTML.html#4,4,1366,768,1366,768,8-30-2022,9-53-45,53,depth_duration_stimuli/000854_2014-06-09_19-43-13_260595134347_rgbf000066-resize_0/000854_2014-06-09_19-43-13_260595134347_rgbf000066-resize_0-target.png,250,3.068,38,12507,249,meters,jsons/v1_VE250_randls_18.json,2473838,2882625,55,Man
53,549075,DepthScenes,duration_manipulation_targetAtFixation,jsons/v1_VE250_randls_18.json,http://54.235.29.9/FacialAge/BNav_EC2/DepthDuration/v2_depth_duration_MTurk/v2_DepthDuration_HTML.html#4,4,1366,768,1366,768,8-30-2022,9-53-45,54,depth_duration_stimuli/000486_2014-06-09_20-47-20_260595134347_rgbf000143-resize_2/000486_2014-06-09_20-47-20_260595134347_rgbf000143-resize_2-target.png,250,4.8325,60,22733,250,meters,jsons/v1_VE250_randls_18.json,2473838,2882625,55,Man
54,549075,DepthScenes,duration_manipulation_targetAtFixation,jsons/v1_VE250_randls_18.json,http://54.235.29.9/FacialAge/BNav_EC2/DepthDuration/v2_depth_duration_MTurk/v2_DepthDuration_HTML.html#4,4,1366,768,1366,768,8-30-2022,9-53-45,55,depth_duration_stimuli/003083_2014-06-15_15-21-03_094959634447_rgbf000063-resize_1/003083_2014-06-15_15-21-03_094959634447_rgbf000063-resize_1-target.png,250,4.1405,65,7211,249,meters,jsons/v1_VE250_randls_18.json,2473838,2882625,55,Man
55,549075,DepthScenes,duration_manipulation_targetAtFixation,jsons/v1_VE250_randls_18.json,http://54.235.29.9/FacialAge/BNav_EC2/DepthDuration/v2_depth_duration_MTurk/v2_DepthDuration_HTML.html#4,4,1366,768,1366,768,8-30-2022,9-53-45,56,depth_duration_stimuli/000773_2014-06-08_22-24-54_260595134347_rgbf000093-resize_1/000773_2014-06-08_22-24-54_260595134347_rgbf000093-resize_1-target.png,250,4.973,65,25470,250,meters,jsons/v1_VE250_randls_18.json,2473838,2882625,55,Man
56,549075,DepthScenes,duration_manipulation_targetAtFixation,jsons/v1_VE250_randls_18.json,http://54.235.29.9/FacialAge/BNav_EC2/DepthDuration/v2_depth_duration_MTurk/v2_DepthDuration_HTML.html#4,4,1366,768,1366,768,8-30-2022,9-53-45,57,depth_duration_stimuli/002414_2014-06-28_20-24-58_260595134347_rgbf000067-resize_4/002414_2014-06-28_20-24-58_260595134347_rgbf000067-resize_4-target.png,250,4.363,55,7459,264,meters,jsons/v1_VE250_randls_18.json,2473838,2882625,55,Man
57,549075,DepthScenes,duration_manipulation_targetAtFixation,jsons/v1_VE250_randls_18.json,http://54.235.29.9/FacialAge/BNav_EC2/DepthDuration/v2_depth_duration_MTurk/v2_DepthDuration_HTML.html#4,4,1366,768,1366,768,8-30-2022,9-53-45,58,depth_duration_stimuli/000493_2014-06-09_21-01-18_260595134347_rgbf000196-resize_3/000493_2014-06-09_21-01-18_260595134347_rgbf000196-resize_3-target.png,250,3.44,48,28256,250,meters,jsons/v1_VE250_randls_18.json,2473838,2882625,55,Man
58,549075,DepthScenes,duration_manipulation_targetAtFixation,jsons/v1_VE250_randls_18.json,http://54.235.29.9/FacialAge/BNav_EC2/DepthDuration/v2_depth_duration_MTurk/v2_DepthDuration_HTML.html#4,4,1366,768,1366,768,8-30-2022,9-53-45,59,depth_duration_stimuli/000191_2014-05-12_17-07-38_260595134347_rgbf000199-resize_0/000191_2014-05-12_17-07-38_260595134347_rgbf000199-resize_0-target.png,250,3.7995,50,4645,240,meters,jsons/v1_VE250_randls_18.json,2473838,2882625,55,Man
59,549075,DepthScenes,duration_manipulation_targetAtFixation,jsons/v1_VE250_randls_18.json,http://54.235.29.9/FacialAge/BNav_EC2/DepthDuration/v2_depth_duration_MTurk/v2_DepthDuration_HTML.html#4,4,1366,768,1366,768,8-30-2022,9-53-45,60,depth_duration_stimuli/002153_2014-06-25_21-27-18_260595134347_rgbf000038-resize_5/002153_2014-06-25_21-27-18_260595134347_rgbf000038-resize_5-target.png,250,2.505,40,29062,250,meters,jsons/v1_VE250_randls_18.json,2473838,2882625,55,Man
60,549075,DepthScenes,duration_manipulation_targetAtFixation,jsons/v1_VE250_randls_18.json,http://54.235.29.9/FacialAge/BNav_EC2/DepthDuration/v2_depth_duration_MTurk/v2_DepthDuration_HTML.html#4,4,1366,768,1366,768,8-30-2022,9-53-45,61,depth_duration_stimuli/002660_2014-06-13_15-44-18_094959634447_rgbf001878-resize_2/002660_2014-06-13_15-44-18_094959634447_rgbf001878-resize_2-target.png,250,3.576,45,5033,263,meters,jsons/v1_VE250_randls_18.json,2473838,2882625,55,Man
61,549075,DepthScenes,duration_manipulation_targetAtFixation,jsons/v1_VE250_randls_18.json,http://54.235.29.9/FacialAge/BNav_EC2/DepthDuration/v2_depth_duration_MTurk/v2_DepthDuration_HTML.html#4,4,1366,768,1366,768,8-30-2022,9-53-45,62,depth_duration_stimuli/002748_2014-06-22_19-07-22_094959634447_rgbf000078-resize_1/002748_2014-06-22_19-07-22_094959634447_rgbf000078-resize_1-target.png,250,4.6705,60,21790,250,meters,jsons/v1_VE250_randls_18.json,2473838,2882625,55,Man
62,549075,DepthScenes,duration_manipulation_targetAtFixation,jsons/v1_VE250_randls_18.json,http://54.235.29.9/FacialAge/BNav_EC2/DepthDuration/v2_depth_duration_MTurk/v2_DepthDuration_HTML.html#4,4,1366,768,1366,768,8-30-2022,9-53-45,63,depth_duration_stimuli/002995_2014-06-15_12-31-26_094959634447_rgbf000150-resize_1/002995_2014-06-15_12-31-26_094959634447_rgbf000150-resize_1-target.png,250,3.8360000000000003,40,7541,250,meters,jsons/v1_VE250_randls_18.json,2473838,2882625,55,Man
63,549075,DepthScenes,duration_manipulation_targetAtFixation,jsons/v1_VE250_randls_18.json,http://54.235.29.9/FacialAge/BNav_EC2/DepthDuration/v2_depth_duration_MTurk/v2_DepthDuration_HTML.html#4,4,1366,768,1366,768,8-30-2022,9-53-45,64,depth_duration_stimuli/001092_2014-06-15_17-34-58_260595134347_rgbf000171-resize_3/001092_2014-06-15_17-34-58_260595134347_rgbf000171-resize_3-target.png,250,2.6935,50,29897,250,meters,jsons/v1_VE250_randls_18.json,2473838,2882625,55,Man
64,549075,DepthScenes,duration_manipulation_targetAtFixation,jsons/v1_VE250_randls_18.json,http://54.235.29.9/FacialAge/BNav_EC2/DepthDuration/v2_depth_duration_MTurk/v2_DepthDuration_HTML.html#4,4,1366,768,1366,768,8-30-2022,9-53-45,65,depth_duration_stimuli/002545_2014-06-24_13-38-53_094959634447_rgbf000080-resize_4/002545_2014-06-24_13-38-53_094959634447_rgbf000080-resize_4-target.png,250,1.9205,50,9471,251,meters,jsons/v1_VE250_randls_18.json,2473838,2882625,55,Man
65,549075,DepthScenes,duration_manipulation_targetAtFixation,jsons/v1_VE250_randls_18.json,http://54.235.29.9/FacialAge/BNav_EC2/DepthDuration/v2_depth_duration_MTurk/v2_DepthDuration_HTML.html#4,4,1366,768,1366,768,8-30-2022,9-53-45,66,depth_duration_stimuli/001222_2014-06-17_16-24-06_260595134347_rgbf000073-resize_0/001222_2014-06-17_16-24-06_260595134347_rgbf000073-resize-original.jpg,250,1.4385,33,26690,257,meters,jsons/v1_VE250_randls_18.json,2473838,2882625,55,Man
66,549075,DepthScenes,duration_manipulation_targetAtFixation,jsons/v1_VE250_randls_18.json,http://54.235.29.9/FacialAge/BNav_EC2/DepthDuration/v2_depth_duration_MTurk/v2_DepthDuration_HTML.html#4,4,1366,768,1366,768,8-30-2022,9-53-45,67,depth_duration_stimuli/001555_2014-06-20_17-12-10_260595134347_rgbf000065-resize_4/001555_2014-06-20_17-12-10_260595134347_rgbf000065-resize_4-target.png,250,1.633,36,26991,250,meters,jsons/v1_VE250_randls_18.json,2473838,2882625,55,Man
67,549075,DepthScenes,duration_manipulation_targetAtFixation,jsons/v1_VE250_randls_18.json,http://54.235.29.9/FacialAge/BNav_EC2/DepthDuration/v2_depth_duration_MTurk/v2_DepthDuration_HTML.html#4,4,1366,768,1366,768,8-30-2022,9-53-45,68,depth_duration_stimuli/000103_2014-05-14_22-01-17_260595134347_rgbf000152-resize_5/000103_2014-05-14_22-01-17_260595134347_rgbf000152-resize_5-target.png,250,1.993,45,4335,239,meters,jsons/v1_VE250_randls_18.json,2473838,2882625,55,Man
68,549075,DepthScenes,duration_manipulation_targetAtFixation,jsons/v1_VE250_randls_18.json,http://54.235.29.9/FacialAge/BNav_EC2/DepthDuration/v2_depth_duration_MTurk/v2_DepthDuration_HTML.html#4,4,1366,768,1366,768,8-30-2022,9-53-45,69,depth_duration_stimuli/000447_2014-06-08_16-15-46_260595134347_rgbf000130-resize_1/000447_2014-06-08_16-15-46_260595134347_rgbf000130-resize_1-target.png,250,4.479,60,29685,242,meters,jsons/v1_VE250_randls_18.json,2473838,2882625,55,Man
69,549075,DepthScenes,duration_manipulation_targetAtFixation,jsons/v1_VE250_randls_18.json,http://54.235.29.9/FacialAge/BNav_EC2/DepthDuration/v2_depth_duration_MTurk/v2_DepthDuration_HTML.html#4,4,1366,768,1366,768,8-30-2022,9-53-45,70,depth_duration_stimuli/001447_2014-06-19_17-00-32_260595134347_rgbf000082-resize_5/001447_2014-06-19_17-00-32_260595134347_rgbf000082-resize_5-target.png,250,4.13775,55,5220,253,meters,jsons/v1_VE250_randls_18.json,2473838,2882625,55,Man
70,549075,DepthScenes,duration_manipulation_targetAtFixation,jsons/v1_VE250_randls_18.json,http://54.235.29.9/FacialAge/BNav_EC2/DepthDuration/v2_depth_duration_MTurk/v2_DepthDuration_HTML.html#4,4,1366,768,1366,768,8-30-2022,9-53-45,71,depth_duration_stimuli/001808_2014-06-26_20-50-58_260595134347_rgbf000029-resize_1/001808_2014-06-26_20-50-58_260595134347_rgbf000029-resize_1-target.png,250,4.249,65,26385,250,meters,jsons/v1_VE250_randls_18.json,2473838,2882625,55,Man
71,549075,DepthScenes,duration_manipulation_targetAtFixation,jsons/v1_VE250_randls_18.json,http://54.235.29.9/FacialAge/BNav_EC2/DepthDuration/v2_depth_duration_MTurk/v2_DepthDuration_HTML.html#4,4,1366,768,1366,768,8-30-2022,9-53-45,72,depth_duration_stimuli/001815_2014-06-26_20-52-55_260595134347_rgbf000020-resize_0/001815_2014-06-26_20-52-55_260595134347_rgbf000020-resize_0-target.png,250,3.3865,68,4515,247,meters,jsons/v1_VE250_randls_18.json,2473838,2882625,55,Man
72,549075,DepthScenes,duration_manipulation_targetAtFixation,jsons/v1_VE250_randls_18.json,http://54.235.29.9/FacialAge/BNav_EC2/DepthDuration/v2_depth_duration_MTurk/v2_DepthDuration_HTML.html#4,4,1366,768,1366,768,8-30-2022,9-53-45,73,depth_duration_stimuli/000469_2014-06-09_19-42-10_260595134347_rgbf000081-resize_1/000469_2014-06-09_19-42-10_260595134347_rgbf000081-resize_1-target.png,250,1.652,50,28942,250,meters,jsons/v1_VE250_randls_18.json,2473838,2882625,55,Man
73,549075,DepthScenes,duration_manipulation_targetAtFixation,jsons/v1_VE250_randls_18.json,http://54.235.29.9/FacialAge/BNav_EC2/DepthDuration/v2_depth_duration_MTurk/v2_DepthDuration_HTML.html#4,4,1366,768,1366,768,8-30-2022,9-53-45,74,depth_duration_stimuli/000483_2014-06-09_20-41-45_260595134347_rgbf000116-resize_4/000483_2014-06-09_20-41-45_260595134347_rgbf000116-resize_4-target.png,250,1.337,35,5298,251,meters,jsons/v1_VE250_randls_18.json,2473838,2882625,55,Man
74,549075,DepthScenes,duration_manipulation_targetAtFixation,jsons/v1_VE250_randls_18.json,http://54.235.29.9/FacialAge/BNav_EC2/DepthDuration/v2_depth_duration_MTurk/v2_DepthDuration_HTML.html#4,4,1366,768,1366,768,8-30-2022,9-53-45,75,depth_duration_stimuli/002600_2014-06-24_14-27-04_094959634447_rgbf000074-resize_2/002600_2014-06-24_14-27-04_094959634447_rgbf000074-resize_2-target.png,250,2.7575,55,4258,250,meters,jsons/v1_VE250_randls_18.json,2473838,2882625,55,Man
75,549075,DepthScenes,duration_manipulation_targetAtFixation,jsons/v1_VE250_randls_18.json,http://54.235.29.9/FacialAge/BNav_EC2/DepthDuration/v2_depth_duration_MTurk/v2_DepthDuration_HTML.html#4,4,1366,768,1366,768,8-30-2022,9-53-45,76,depth_duration_stimuli/003228_2014-05-14_13-42-35_094959634447_rgbf000101-resize_1/003228_2014-05-14_13-42-35_094959634447_rgbf000101-resize_1-target.png,250,1.9680000000000002,59,31290,251,meters,jsons/v1_VE250_randls_18.json,2473838,2882625,55,Man
76,549075,DepthScenes,duration_manipulation_targetAtFixation,jsons/v1_VE250_randls_18.json,http://54.235.29.9/FacialAge/BNav_EC2/DepthDuration/v2_depth_duration_MTurk/v2_DepthDuration_HTML.html#4,4,1366,768,1366,768,8-30-2022,9-53-45,77,depth_duration_stimuli/002989_2014-06-15_12-25-03_094959634447_rgbf000150-resize_3/002989_2014-06-15_12-25-03_094959634447_rgbf000150-resize_3-target.png,250,4.1975,45,6690,250,meters,jsons/v1_VE250_randls_18.json,2473838,2882625,55,Man
77,549075,DepthScenes,duration_manipulation_targetAtFixation,jsons/v1_VE250_randls_18.json,http://54.235.29.9/FacialAge/BNav_EC2/DepthDuration/v2_depth_duration_MTurk/v2_DepthDuration_HTML.html#4,4,1366,768,1366,768,8-30-2022,9-53-45,78,depth_duration_stimuli/000866_2014-06-09_20-45-42_260595134347_rgbf000139-resize_1/000866_2014-06-09_20-45-42_260595134347_rgbf000139-resize_1-target.png,250,3.2155,35,5291,250,meters,jsons/v1_VE250_randls_18.json,2473838,2882625,55,Man
78,549075,DepthScenes,duration_manipulation_targetAtFixation,jsons/v1_VE250_randls_18.json,http://54.235.29.9/FacialAge/BNav_EC2/DepthDuration/v2_depth_duration_MTurk/v2_DepthDuration_HTML.html#4,4,1366,768,1366,768,8-30-2022,9-53-45,79,depth_duration_stimuli/001810_2014-06-26_20-51-35_260595134347_rgbf000040-resize_3/001810_2014-06-26_20-51-35_260595134347_rgbf000040-resize_3-target.png,250,2.2525,55,30284,250,meters,jsons/v1_VE250_randls_18.json,2473838,2882625,55,Man
79,549075,DepthScenes,duration_manipulation_targetAtFixation,jsons/v1_VE250_randls_18.json,http://54.235.29.9/FacialAge/BNav_EC2/DepthDuration/v2_depth_duration_MTurk/v2_DepthDuration_HTML.html#4,4,1366,768,1366,768,8-30-2022,9-53-45,80,depth_duration_stimuli/003010_2014-06-15_12-54-35_094959634447_rgbf000112-resize_0/003010_2014-06-15_12-54-35_094959634447_rgbf000112-resize_0-target.png,250,3.1185,69,4805,250,meters,jsons/v1_VE250_randls_18.json,2473838,2882625,55,Man
80,549075,DepthScenes,duration_manipulation_targetAtFixation,jsons/v1_VE250_randls_18.json,http://54.235.29.9/FacialAge/BNav_EC2/DepthDuration/v2_depth_duration_MTurk/v2_DepthDuration_HTML.html#4,4,1366,768,1366,768,8-30-2022,9-53-45,81,depth_duration_stimuli/000642_2014-06-08_16-59-25_260595134347_rgbf000098-resize_2/000642_2014-06-08_16-59-25_260595134347_rgbf000098-resize_2-target.png,250,2.8815,57,7266,250,meters,jsons/v1_VE250_randls_18.json,2473838,2882625,55,Man
81,549075,DepthScenes,duration_manipulation_targetAtFixation,jsons/v1_VE250_randls_18.json,http://54.235.29.9/FacialAge/BNav_EC2/DepthDuration/v2_depth_duration_MTurk/v2_DepthDuration_HTML.html#4,4,1366,768,1366,768,8-30-2022,9-53-45,82,depth_duration_stimuli/002425_2014-06-28_20-27-29_260595134347_rgbf000031-resize_8/002425_2014-06-28_20-27-29_260595134347_rgbf000031-resize_8-target.png,250,3.8960000000000004,55,26625,265,meters,jsons/v1_VE250_randls_18.json,2473838,2882625,55,Man
82,549075,DepthScenes,duration_manipulation_targetAtFixation,jsons/v1_VE250_randls_18.json,http://54.235.29.9/FacialAge/BNav_EC2/DepthDuration/v2_depth_duration_MTurk/v2_DepthDuration_HTML.html#4,4,1366,768,1366,768,8-30-2022,9-53-45,83,depth_duration_stimuli/002057_2014-06-24_21-00-13_260595134347_rgbf000120-resize_1/002057_2014-06-24_21-00-13_260595134347_rgbf000120-resize_1-target.png,250,2.967,58,28976,250,meters,jsons/v1_VE250_randls_18.json,2473838,2882625,55,Man
83,549075,DepthScenes,duration_manipulation_targetAtFixation,jsons/v1_VE250_randls_18.json,http://54.235.29.9/FacialAge/BNav_EC2/DepthDuration/v2_depth_duration_MTurk/v2_DepthDuration_HTML.html#4,4,1366,768,1366,768,8-30-2022,9-53-45,84,depth_duration_stimuli/000709_2014-06-08_13-51-55_260595134347_rgbf000068-resize_3/000709_2014-06-08_13-51-55_260595134347_rgbf000068-resize_3-target.png,250,1.8030000000000002,45,5131,243,meters,jsons/v1_VE250_randls_18.json,2473838,2882625,55,Man
84,549075,DepthScenes,duration_manipulation_targetAtFixation,jsons/v1_VE250_randls_18.json,http://54.235.29.9/FacialAge/BNav_EC2/DepthDuration/v2_depth_duration_MTurk/v2_DepthDuration_HTML.html#4,4,1366,768,1366,768,8-30-2022,9-53-45,85,depth_duration_stimuli/001449_2014-06-19_17-01-27_260595134347_rgbf000116-resize_2/001449_2014-06-19_17-01-27_260595134347_rgbf000116-resize_2-target.png,250,3.452,57,4974,240,meters,jsons/v1_VE250_randls_18.json,2473838,2882625,55,Man
85,549075,DepthScenes,duration_manipulation_targetAtFixation,jsons/v1_VE250_randls_18.json,http://54.235.29.9/FacialAge/BNav_EC2/DepthDuration/v2_depth_duration_MTurk/v2_DepthDuration_HTML.html#4,4,1366,768,1366,768,8-30-2022,9-53-45,86,depth_duration_stimuli/001450_2014-06-19_17-02-03_260595134347_rgbf000203-resize_4/001450_2014-06-19_17-02-03_260595134347_rgbf000203-resize_4-target.png,250,4.0106666666667,47,5194,259,meters,jsons/v1_VE250_randls_18.json,2473838,2882625,55,Man
86,549075,DepthScenes,duration_manipulation_targetAtFixation,jsons/v1_VE250_randls_18.json,http://54.235.29.9/FacialAge/BNav_EC2/DepthDuration/v2_depth_duration_MTurk/v2_DepthDuration_HTML.html#4,4,1366,768,1366,768,8-30-2022,9-53-45,87,depth_duration_stimuli/000878_2014-06-08_22-52-45_260595134347_rgbf000045-resize_2/000878_2014-06-08_22-52-45_260595134347_rgbf000045-resize_2-target.png,250,2.092,60,29214,248,meters,jsons/v1_VE250_randls_18.json,2473838,2882625,55,Man
87,549075,DepthScenes,duration_manipulation_targetAtFixation,jsons/v1_VE250_randls_18.json,http://54.235.29.9/FacialAge/BNav_EC2/DepthDuration/v2_depth_duration_MTurk/v2_DepthDuration_HTML.html#4,4,1366,768,1366,768,8-30-2022,9-53-45,88,depth_duration_stimuli/002953_2014-06-08_17-32-18_094959634447_rgbf000059-resize_5/002953_2014-06-08_17-32-18_094959634447_rgbf000059-resize_5-target.png,250,1.551,30,4822,250,meters,jsons/v1_VE250_randls_18.json,2473838,2882625,55,Man
88,549075,DepthScenes,duration_manipulation_targetAtFixation,jsons/v1_VE250_randls_18.json,http://54.235.29.9/FacialAge/BNav_EC2/DepthDuration/v2_depth_duration_MTurk/v2_DepthDuration_HTML.html#4,4,1366,768,1366,768,8-30-2022,9-53-45,89,depth_duration_stimuli/002118_2014-06-25_20-32-08_260595134347_rgbf000078-resize_1/002118_2014-06-25_20-32-08_260595134347_rgbf000078-resize_1-target.png,250,2.6460000000000004,45,23626,255,meters,jsons/v1_VE250_randls_18.json,2473838,2882625,55,Man
89,549075,DepthScenes,duration_manipulation_targetAtFixation,jsons/v1_VE250_randls_18.json,http://54.235.29.9/FacialAge/BNav_EC2/DepthDuration/v2_depth_duration_MTurk/v2_DepthDuration_HTML.html#4,4,1366,768,1366,768,8-30-2022,9-53-45,90,depth_duration_stimuli/001516_2014-06-20_16-25-09_260595134347_rgbf000076-resize_2/001516_2014-06-20_16-25-09_260595134347_rgbf000076-resize_2-target.png,250,1.7445,40,5612,253,meters,jsons/v1_VE250_randls_18.json,2473838,2882625,55,Man
90,549075,DepthScenes,duration_manipulation_targetAtFixation,jsons/v1_VE250_randls_18.json,http://54.235.29.9/FacialAge/BNav_EC2/DepthDuration/v2_depth_duration_MTurk/v2_DepthDuration_HTML.html#4,4,1366,768,1366,768,8-30-2022,9-53-45,91,depth_duration_stimuli/002549_2014-06-24_13-41-39_094959634447_rgbf000022-resize_3/002549_2014-06-24_13-41-39_094959634447_rgbf000022-resize_3-target.png,250,1.476,41,7766,250,meters,jsons/v1_VE250_randls_18.json,2473838,2882625,55,Man
91,549075,DepthScenes,duration_manipulation_targetAtFixation,jsons/v1_VE250_randls_18.json,http://54.235.29.9/FacialAge/BNav_EC2/DepthDuration/v2_depth_duration_MTurk/v2_DepthDuration_HTML.html#4,4,1366,625,1366,768,8-30-2022,9-53-45,92,depth_duration_stimuli/002750_2014-06-22_19-08-03_094959634447_rgbf000094-resize_4/002750_2014-06-22_19-08-03_094959634447_rgbf000094-resize_4-target.png,250,2.354,40,41875,250,meters,jsons/v1_VE250_randls_18.json,2473838,2882625,55,Man
92,549075,DepthScenes,duration_manipulation_targetAtFixation,jsons/v1_VE250_randls_18.json,http://54.235.29.9/FacialAge/BNav_EC2/DepthDuration/v2_depth_duration_MTurk/v2_DepthDuration_HTML.html#4,4,1366,768,1366,768,8-30-2022,9-53-45,93,depth_duration_stimuli/002663_2014-06-13_15-50-26_094959634447_rgbf000075-resize_1/002663_2014-06-13_15-50-26_094959634447_rgbf000075-resize_1-target.png,250,4.7495,49,30484,264,meters,jsons/v1_VE250_randls_18.json,2473838,2882625,55,Man
93,549075,DepthScenes,duration_manipulation_targetAtFixation,jsons/v1_VE250_randls_18.json,http://54.235.29.9/FacialAge/BNav_EC2/DepthDuration/v2_depth_duration_MTurk/v2_DepthDuration_HTML.html#4,4,1366,768,1366,768,8-30-2022,9-53-45,94,depth_duration_stimuli/000409_2014-06-04_19-23-33_260595134347_rgbf000067-resize_0/000409_2014-06-04_19-23-33_260595134347_rgbf000067-resize_0-target.png,250,3.7335,50,5018,263,meters,jsons/v1_VE250_randls_18.json,2473838,2882625,55,Man
94,549075,DepthScenes,duration_manipulation_targetAtFixation,jsons/v1_VE250_randls_18.json,http://54.235.29.9/FacialAge/BNav_EC2/DepthDuration/v2_depth_duration_MTurk/v2_DepthDuration_HTML.html#4,4,1366,768,1366,768,8-30-2022,9-53-45,95,depth_duration_stimuli/002272_2014-06-28_18-53-56_260595134347_rgbf000067-resize_2/002272_2014-06-28_18-53-56_260595134347_rgbf000067-resize_2-target.png,250,1.138,35,30404,249,meters,jsons/v1_VE250_randls_18.json,2473838,2882625,55,Man
95,549075,DepthScenes,duration_manipulation_targetAtFixation,jsons/v1_VE250_randls_18.json,http://54.235.29.9/FacialAge/BNav_EC2/DepthDuration/v2_depth_duration_MTurk/v2_DepthDuration_HTML.html#4,4,1366,768,1366,768,8-30-2022,9-53-45,96,depth_duration_stimuli/001571_2014-06-20_17-21-32_260595134347_rgbf000089-resize_1/001571_2014-06-20_17-21-32_260595134347_rgbf000089-resize_1-target.png,250,1.86,38,8734,248,meters,jsons/v1_VE250_randls_18.json,2473838,2882625,55,Man
96,549075,DepthScenes,duration_manipulation_targetAtFixation,jsons/v1_VE250_randls_18.json,http://54.235.29.9/FacialAge/BNav_EC2/DepthDuration/v2_depth_duration_MTurk/v2_DepthDuration_HTML.html#4,4,1366,768,1366,768,8-30-2022,9-53-45,97,depth_duration_stimuli/002630_2014-06-24_14-47-50_094959634447_rgbf000055-resize_1/002630_2014-06-24_14-47-50_094959634447_rgbf000055-resize_1-target.png,250,3.0095,39,5213,266,meters,jsons/v1_VE250_randls_18.json,2473838,2882625,55,Man
97,549075,DepthScenes,duration_manipulation_targetAtFixation,jsons/v1_VE250_randls_18.json,http://54.235.29.9/FacialAge/BNav_EC2/DepthDuration/v2_depth_duration_MTurk/v2_DepthDuration_HTML.html#4,4,1366,768,1366,768,8-30-2022,9-53-45,98,depth_duration_stimuli/002758_2014-06-22_19-11-20_094959634447_rgbf000128-resize_1/002758_2014-06-22_19-11-20_094959634447_rgbf000128-resize_1-target.png,250,2.555,35,5775,250,meters,jsons/v1_VE250_randls_18.json,2473838,2882625,55,Man
98,549075,DepthScenes,duration_manipulation_targetAtFixation,jsons/v1_VE250_randls_18.json,http://54.235.29.9/FacialAge/BNav_EC2/DepthDuration/v2_depth_duration_MTurk/v2_DepthDuration_HTML.html#4,4,1366,768,1366,768,8-30-2022,9-53-45,99,depth_duration_stimuli/001540_2014-06-20_17-01-05_260595134347_rgbf000086-resize_2/001540_2014-06-20_17-01-05_260595134347_rgbf000086-resize-original.jpg,250,1.459,39,5793,250,meters,jsons/v1_VE250_randls_18.json,2473838,2882625,55,Man
99,549075,DepthScenes,duration_manipulation_targetAtFixation,jsons/v1_VE250_randls_18.json,http://54.235.29.9/FacialAge/BNav_EC2/DepthDuration/v2_depth_duration_MTurk/v2_DepthDuration_HTML.html#4,4,1366,768,1366,768,8-30-2022,9-53-45,100,depth_duration_stimuli/002788_2014-06-22_19-36-03_094959634447_rgbf000088-resize_2/002788_2014-06-22_19-36-03_094959634447_rgbf000088-resize_2-target.png,250,1.6465,45,4902,250,meters,jsons/v1_VE250_randls_18.json,2473838,2882625,55,Man
100,549075,DepthScenes,duration_manipulation_targetAtFixation,jsons/v1_VE250_randls_18.json,http://54.235.29.9/FacialAge/BNav_EC2/DepthDuration/v2_depth_duration_MTurk/v2_DepthDuration_HTML.html#4,4,1366,768,1366,768,8-30-2022,9-53-45,101,depth_duration_stimuli/000749_2014-06-08_21-55-06_260595134347_rgbf000070-resize_2/000749_2014-06-08_21-55-06_260595134347_rgbf000070-resize_2-target.png,250,2.331,55,4531,250,meters,jsons/v1_VE250_randls_18.json,2473838,2882625,55,Man
101,549075,DepthScenes,duration_manipulation_targetAtFixation,jsons/v1_VE250_randls_18.json,http://54.235.29.9/FacialAge/BNav_EC2/DepthDuration/v2_depth_duration_MTurk/v2_DepthDuration_HTML.html#4,4,1366,768,1366,768,8-30-2022,9-53-45,102,depth_duration_stimuli/000906_2014-06-08_13-35-43_260595134347_rgbf000155-resize_1/000906_2014-06-08_13-35-43_260595134347_rgbf000155-resize_1-target.png,250,2.8489999999999998,60,4388,235,meters,jsons/v1_VE250_randls_18.json,2473838,2882625,55,Man
102,549075,DepthScenes,duration_manipulation_targetAtFixation,jsons/v1_VE250_randls_18.json,http://54.235.29.9/FacialAge/BNav_EC2/DepthDuration/v2_depth_duration_MTurk/v2_DepthDuration_HTML.html#4,4,1366,768,1366,768,8-30-2022,9-53-45,103,depth_duration_stimuli/002805_2014-06-22_19-54-03_094959634447_rgbf000079-resize_1/002805_2014-06-22_19-54-03_094959634447_rgbf000079-resize_1-target.png,250,3.1439999999999997,70,6017,250,meters,jsons/v1_VE250_randls_18.json,2473838,2882625,55,Man
103,549075,DepthScenes,duration_manipulation_targetAtFixation,jsons/v1_VE250_randls_18.json,http://54.235.29.9/FacialAge/BNav_EC2/DepthDuration/v2_depth_duration_MTurk/v2_DepthDuration_HTML.html#4,4,1366,768,1366,768,8-30-2022,9-53-45,104,depth_duration_stimuli/001570_2014-06-20_17-21-09_260595134347_rgbf000135-resize_4/001570_2014-06-20_17-21-09_260595134347_rgbf000135-resize_4-target.png,250,4.467,65,30719,238,meters,jsons/v1_VE250_randls_18.json,2473838,2882625,55,Man
104,549075,DepthScenes,duration_manipulation_targetAtFixation,jsons/v1_VE250_randls_18.json,http://54.235.29.9/FacialAge/BNav_EC2/DepthDuration/v2_depth_duration_MTurk/v2_DepthDuration_HTML.html#4,4,1366,768,1366,768,8-30-2022,9-53-45,105,depth_duration_stimuli/001392_2014-06-19_16-07-59_260595134347_rgbf000046-resize_1/001392_2014-06-19_16-07-59_260595134347_rgbf000046-resize_1-target.png,250,4.135,60,6049,234,meters,jsons/v1_VE250_randls_18.json,2473838,2882625,55,Man
105,549075,DepthScenes,duration_manipulation_targetAtFixation,jsons/v1_VE250_randls_18.json,http://54.235.29.9/FacialAge/BNav_EC2/DepthDuration/v2_depth_duration_MTurk/v2_DepthDuration_HTML.html#4,4,1366,768,1366,768,8-30-2022,9-53-45,106,depth_duration_stimuli/002905_2014-06-03_18-04-43_094959634447_rgbf000151-resize_2/002905_2014-06-03_18-04-43_094959634447_rgbf000151-resize_2-target.png,250,2.0295,55,27328,250,meters,jsons/v1_VE250_randls_18.json,2473838,2882625,55,Man
106,549075,DepthScenes,duration_manipulation_targetAtFixation,jsons/v1_VE250_randls_18.json,http://54.235.29.9/FacialAge/BNav_EC2/DepthDuration/v2_depth_duration_MTurk/v2_DepthDuration_HTML.html#4,4,1366,768,1366,768,8-30-2022,9-53-45,107,depth_duration_stimuli/003423_2014-05-21_10-23-26_094959634447_rgbf002665-resize_2/003423_2014-05-21_10-23-26_094959634447_rgbf002665-resize_2-target.png,250,3.2575,55,6443,236,meters,jsons/v1_VE250_randls_18.json,2473838,2882625,55,Man
107,549075,DepthScenes,duration_manipulation_targetAtFixation,jsons/v1_VE250_randls_18.json,http://54.235.29.9/FacialAge/BNav_EC2/DepthDuration/v2_depth_duration_MTurk/v2_DepthDuration_HTML.html#4,4,1366,768,1366,768,8-30-2022,9-53-45,108,depth_duration_stimuli/002725_2014-06-22_11-47-51_094959634447_rgbf000070-resize_1/002725_2014-06-22_11-47-51_094959634447_rgbf000070-resize_1-target.png,250,2.195,60,35912,251,meters,jsons/v1_VE250_randls_18.json,2473838,2882625,55,Man
108,549075,DepthScenes,duration_manipulation_targetAtFixation,jsons/v1_VE250_randls_18.json,http://54.235.29.9/FacialAge/BNav_EC2/DepthDuration/v2_depth_duration_MTurk/v2_DepthDuration_HTML.html#4,4,1366,768,1366,768,8-30-2022,9-53-45,109,depth_duration_stimuli/002344_2014-06-28_20-06-29_260595134347_rgbf000030-resize_1/002344_2014-06-28_20-06-29_260595134347_rgbf000030-resize_1-target.png,250,1.5795,35,7644,250,meters,jsons/v1_VE250_randls_18.json,2473838,2882625,55,Man
109,549075,DepthScenes,duration_manipulation_targetAtFixation,jsons/v1_VE250_randls_18.json,http://54.235.29.9/FacialAge/BNav_EC2/DepthDuration/v2_depth_duration_MTurk/v2_DepthDuration_HTML.html#4,4,1366,768,1366,768,8-30-2022,9-53-45,110,depth_duration_stimuli/003621_2014-05-23_18-06-08_094959634447_rgbf000101-resize_1/003621_2014-05-23_18-06-08_094959634447_rgbf000101-resize_1-target.png,250,3.9835,58,6659,250,meters,jsons/v1_VE250_randls_18.json,2473838,2882625,55,Man
110,549075,DepthScenes,duration_manipulation_targetAtFixation,jsons/v1_VE250_randls_18.json,http://54.235.29.9/FacialAge/BNav_EC2/DepthDuration/v2_depth_duration_MTurk/v2_DepthDuration_HTML.html#4,4,1366,768,1366,768,8-30-2022,9-53-45,111,depth_duration_stimuli/001584_2014-06-20_11-07-43_260595134347_rgbf000002-resize_1/001584_2014-06-20_11-07-43_260595134347_rgbf000002-resize_1-target.png,250,3.53,65,3976,237,meters,jsons/v1_VE250_randls_18.json,2473838,2882625,55,Man
111,549075,DepthScenes,duration_manipulation_targetAtFixation,jsons/v1_VE250_randls_18.json,http://54.235.29.9/FacialAge/BNav_EC2/DepthDuration/v2_depth_duration_MTurk/v2_DepthDuration_HTML.html#4,4,1366,768,1366,768,8-30-2022,9-53-45,112,depth_duration_stimuli/002213_2014-06-28_18-37-58_260595134347_rgbf000055-resize_1/002213_2014-06-28_18-37-58_260595134347_rgbf000055-resize_1-target.png,250,3.62,68,6354,250,meters,jsons/v1_VE250_randls_18.json,2473838,2882625,55,Man
112,549075,DepthScenes,duration_manipulation_targetAtFixation,jsons/v1_VE250_randls_18.json,http://54.235.29.9/FacialAge/BNav_EC2/DepthDuration/v2_depth_duration_MTurk/v2_DepthDuration_HTML.html#4,4,1366,768,1366,768,8-30-2022,9-53-45,113,depth_duration_stimuli/000691_2014-06-08_13-08-50_260595134347_rgbf000132-resize_3/000691_2014-06-08_13-08-50_260595134347_rgbf000132-resize_3-target.png,250,4.1530000000000005,55,5983,245,meters,jsons/v1_VE250_randls_18.json,2473838,2882625,55,Man
113,549075,DepthScenes,duration_manipulation_targetAtFixation,jsons/v1_VE250_randls_18.json,http://54.235.29.9/FacialAge/BNav_EC2/DepthDuration/v2_depth_duration_MTurk/v2_DepthDuration_HTML.html#4,4,1366,768,1366,768,8-30-2022,9-53-45,114,depth_duration_stimuli/001199_2014-06-17_16-03-48_260595134347_rgbf000077-resize_0/001199_2014-06-17_16-03-48_260595134347_rgbf000077-resize_0-target.png,250,3.4375,55,9186,266,meters,jsons/v1_VE250_randls_18.json,2473838,2882625,55,Man
114,549075,DepthScenes,duration_manipulation_targetAtFixation,jsons/v1_VE250_randls_18.json,http://54.235.29.9/FacialAge/BNav_EC2/DepthDuration/v2_depth_duration_MTurk/v2_DepthDuration_HTML.html#4,4,1366,768,1366,768,8-30-2022,9-53-45,115,depth_duration_stimuli/000502_2014-06-08_23-02-32_260595134347_rgbf000063-resize_4/000502_2014-06-08_23-02-32_260595134347_rgbf000063-resize_4-target.png,250,2.431,45,5794,251,meters,jsons/v1_VE250_randls_18.json,2473838,2882625,55,Man
115,549075,DepthScenes,duration_manipulation_targetAtFixation,jsons/v1_VE250_randls_18.json,http://54.235.29.9/FacialAge/BNav_EC2/DepthDuration/v2_depth_duration_MTurk/v2_DepthDuration_HTML.html#4,4,1366,768,1366,768,8-30-2022,9-53-45,116,depth_duration_stimuli/001170_2014-06-17_15-43-44_260595134347_rgbf000096-resize_6/001170_2014-06-17_15-43-44_260595134347_rgbf000096-resize-original.jpg,250,1.1909999999999998,38,6114,250,meters,jsons/v1_VE250_randls_18.json,2473838,2882625,55,Man
116,549075,DepthScenes,duration_manipulation_targetAtFixation,jsons/v1_VE250_randls_18.json,http://54.235.29.9/FacialAge/BNav_EC2/DepthDuration/v2_depth_duration_MTurk/v2_DepthDuration_HTML.html#4,4,1366,768,1366,768,8-30-2022,9-53-45,117,depth_duration_stimuli/003492_2014-05-21_15-50-55_094959634447_rgbf000828-resize_1/003492_2014-05-21_15-50-55_094959634447_rgbf000828-resize_1-target.png,250,4.06875,55,4164,249,meters,jsons/v1_VE250_randls_18.json,2473838,2882625,55,Man
117,549075,DepthScenes,duration_manipulation_targetAtFixation,jsons/v1_VE250_randls_18.json,http://54.235.29.9/FacialAge/BNav_EC2/DepthDuration/v2_depth_duration_MTurk/v2_DepthDuration_HTML.html#4,4,1366,768,1366,768,8-30-2022,9-53-45,118,depth_duration_stimuli/002568_2014-06-24_13-59-21_094959634447_rgbf000062-resize_4/002568_2014-06-24_13-59-21_094959634447_rgbf000062-resize_4-target.png,250,3.015,65,5024,250,meters,jsons/v1_VE250_randls_18.json,2473838,2882625,55,Man
118,549075,DepthScenes,duration_manipulation_targetAtFixation,jsons/v1_VE250_randls_18.json,http://54.235.29.9/FacialAge/BNav_EC2/DepthDuration/v2_depth_duration_MTurk/v2_DepthDuration_HTML.html#4,4,1366,768,1366,768,8-30-2022,9-53-45,119,depth_duration_stimuli/001158_2014-06-17_15-32-16_260595134347_rgbf000138-resize_2/001158_2014-06-17_15-32-16_260595134347_rgbf000138-resize_2-target.png,250,4.5315,59,7594,251,meters,jsons/v1_VE250_randls_18.json,2473838,2882625,55,Man
119,549075,DepthScenes,duration_manipulation_targetAtFixation,jsons/v1_VE250_randls_18.json,http://54.235.29.9/FacialAge/BNav_EC2/DepthDuration/v2_depth_duration_MTurk/v2_DepthDuration_HTML.html#4,4,1366,768,1366,768,8-30-2022,9-53-45,120,depth_duration_stimuli/000556_2014-06-09_22-42-56_260595134347_rgbf000214-resize_1/000556_2014-06-09_22-42-56_260595134347_rgbf000214-resize_1-target.png,250,4.8415,65,6709,250,meters,jsons/v1_VE250_randls_18.json,2473838,2882625,55,Man
120,549075,DepthScenes,duration_manipulation_targetAtFixation,jsons/v1_VE250_randls_18.json,http://54.235.29.9/FacialAge/BNav_EC2/DepthDuration/v2_depth_duration_MTurk/v2_DepthDuration_HTML.html#4,4,1366,768,1366,768,8-30-2022,9-53-45,121,depth_duration_stimuli/002784_2014-06-22_19-26-30_094959634447_rgbf000083-resize_3/002784_2014-06-22_19-26-30_094959634447_rgbf000083-resize_3-target.png,250,1.8046666666667,40,5075,250,meters,jsons/v1_VE250_randls_18.json,2473838,2882625,55,Man
121,549075,DepthScenes,duration_manipulation_targetAtFixation,jsons/v1_VE250_randls_18.json,http://54.235.29.9/FacialAge/BNav_EC2/DepthDuration/v2_depth_duration_MTurk/v2_DepthDuration_HTML.html#4,4,1366,768,1366,768,8-30-2022,9-53-45,122,depth_duration_stimuli/001100_2014-06-15_17-46-26_260595134347_rgbf000225-resize_2/001100_2014-06-15_17-46-26_260595134347_rgbf000225-resize_2-target.png,250,2.24,39,5468,250,meters,jsons/v1_VE250_randls_18.json,2473838,2882625,55,Man
122,549075,DepthScenes,duration_manipulation_targetAtFixation,jsons/v1_VE250_randls_18.json,http://54.235.29.9/FacialAge/BNav_EC2/DepthDuration/v2_depth_duration_MTurk/v2_DepthDuration_HTML.html#4,4,1366,768,1366,768,8-30-2022,9-53-45,123,depth_duration_stimuli/003070_2014-06-15_14-58-27_094959634447_rgbf000150-resize_3/003070_2014-06-15_14-58-27_094959634447_rgbf000150-resize_3-target.png,250,2.9415,48,6238,250,meters,jsons/v1_VE250_randls_18.json,2473838,2882625,55,Man
123,549075,DepthScenes,duration_manipulation_targetAtFixation,jsons/v1_VE250_randls_18.json,http://54.235.29.9/FacialAge/BNav_EC2/DepthDuration/v2_depth_duration_MTurk/v2_DepthDuration_HTML.html#4,4,1366,768,1366,768,8-30-2022,9-53-45,124,depth_duration_stimuli/000943_2014-06-09_19-31-07_260595134347_rgbf000128-resize_1/000943_2014-06-09_19-31-07_260595134347_rgbf000128-resize_1-target.png,250,1.9765,45,4763,250,meters,jsons/v1_VE250_randls_18.json,2473838,2882625,55,Man
124,549075,DepthScenes,duration_manipulation_targetAtFixation,jsons/v1_VE250_randls_18.json,http://54.235.29.9/FacialAge/BNav_EC2/DepthDuration/v2_depth_duration_MTurk/v2_DepthDuration_HTML.html#4,4,1366,625,1366,768,8-30-2022,9-53-45,125,depth_duration_stimuli/003534_2014-05-22_15-06-10_094959634447_rgbf000102-resize_4/003534_2014-05-22_15-06-10_094959634447_rgbf000102-resize_4-target.png,250,1.426,36,118614,250,meters,jsons/v1_VE250_randls_18.json,2473838,2882625,55,Man
125,549075,DepthScenes,duration_manipulation_targetAtFixation,jsons/v1_VE250_randls_18.json,http://54.235.29.9/FacialAge/BNav_EC2/DepthDuration/v2_depth_duration_MTurk/v2_DepthDuration_HTML.html#4,4,1366,625,1366,768,8-30-2022,9-53-45,126,depth_duration_stimuli/002637_2014-06-24_14-51-13_094959634447_rgbf000066-resize_4/002637_2014-06-24_14-51-13_094959634447_rgbf000066-resize_4-target.png,250,1.9955,35,5770,250,meters,jsons/v1_VE250_randls_18.json,2473838,2882625,55,Man
126,549075,DepthScenes,duration_manipulation_targetAtFixation,jsons/v1_VE250_randls_18.json,http://54.235.29.9/FacialAge/BNav_EC2/DepthDuration/v2_depth_duration_MTurk/v2_DepthDuration_HTML.html#4,4,1366,625,1366,768,8-30-2022,9-53-45,127,depth_duration_stimuli/000009_2014-05-26_14-32-05_260595134347_rgbf000034-resize_3/000009_2014-05-26_14-32-05_260595134347_rgbf000034-resize_3-target.png,250,3.8715,37,5328,249,meters,jsons/v1_VE250_randls_18.json,2473838,2882625,55,Man
127,549075,DepthScenes,duration_manipulation_targetAtFixation,jsons/v1_VE250_randls_18.json,http://54.235.29.9/FacialAge/BNav_EC2/DepthDuration/v2_depth_duration_MTurk/v2_DepthDuration_HTML.html#4,4,1366,625,1366,768,8-30-2022,9-53-45,128,depth_duration_stimuli/001828_2014-06-26_21-40-03_260595134347_rgbf000024-resize_0/001828_2014-06-26_21-40-03_260595134347_rgbf000024-resize_0-target.png,250,4.8260000000000005,40,4866,249,meters,jsons/v1_VE250_randls_18.json,2473838,2882625,55,Man
128,549075,DepthScenes,duration_manipulation_targetAtFixation,jsons/v1_VE250_randls_18.json,http://54.235.29.9/FacialAge/BNav_EC2/DepthDuration/v2_depth_duration_MTurk/v2_DepthDuration_HTML.html#4,4,1366,625,1366,768,8-30-2022,9-53-45,129,depth_duration_stimuli/001806_2014-06-26_20-50-20_260595134347_rgbf000091-resize_1/001806_2014-06-26_20-50-20_260595134347_rgbf000091-resize_1-target.png,250,2.7305,45,5909,249,meters,jsons/v1_VE250_randls_18.json,2473838,2882625,55,Man
129,549075,DepthScenes,duration_manipulation_targetAtFixation,jsons/v1_VE250_randls_18.json,http://54.235.29.9/FacialAge/BNav_EC2/DepthDuration/v2_depth_duration_MTurk/v2_DepthDuration_HTML.html#4,4,1366,625,1366,768,8-30-2022,9-53-45,130,depth_duration_stimuli/001617_2014-06-20_11-35-32_260595134347_rgbf000066-resize_1/001617_2014-06-20_11-35-32_260595134347_rgbf000066-resize_1-target.png,250,3.7910000000000004,55,4208,251,meters,jsons/v1_VE250_randls_18.json,2473838,2882625,55,Man
130,549075,DepthScenes,duration_manipulation_targetAtFixation,jsons/v1_VE250_randls_18.json,http://54.235.29.9/FacialAge/BNav_EC2/DepthDuration/v2_depth_duration_MTurk/v2_DepthDuration_HTML.html#4,4,1366,625,1366,768,8-30-2022,9-53-45,131,depth_duration_stimuli/002445_2014-06-28_20-32-16_260595134347_rgbf000029-resize_4/002445_2014-06-28_20-32-16_260595134347_rgbf000029-resize_4-target.png,250,2.5315,50,6319,250,meters,jsons/v1_VE250_randls_18.json,2473838,2882625,55,Man
131,549075,DepthScenes,duration_manipulation_targetAtFixation,jsons/v1_VE250_randls_18.json,http://54.235.29.9/FacialAge/BNav_EC2/DepthDuration/v2_depth_duration_MTurk/v2_DepthDuration_HTML.html#4,4,1366,625,1366,768,8-30-2022,9-53-45,132,depth_duration_stimuli/000780_2014-06-08_22-28-29_260595134347_rgbf000126-resize_1/000780_2014-06-08_22-28-29_260595134347_rgbf000126-resize_1-target.png,250,3.3825,50,4758,250,meters,jsons/v1_VE250_randls_18.json,2473838,2882625,55,Man
132,549075,DepthScenes,duration_manipulation_targetAtFixation,jsons/v1_VE250_randls_18.json,http://54.235.29.9/FacialAge/BNav_EC2/DepthDuration/v2_depth_duration_MTurk/v2_DepthDuration_HTML.html#4,4,1366,625,1366,768,8-30-2022,9-53-45,133,depth_duration_stimuli/000917_2014-06-09_22-45-29_260595134347_rgbf000149-resize_3/000917_2014-06-09_22-45-29_260595134347_rgbf000149-resize_3-target.png,250,4.1865,55,5720,250,meters,jsons/v1_VE250_randls_18.json,2473838,2882625,55,Man
133,549075,DepthScenes,duration_manipulation_targetAtFixation,jsons/v1_VE250_randls_18.json,http://54.235.29.9/FacialAge/BNav_EC2/DepthDuration/v2_depth_duration_MTurk/v2_DepthDuration_HTML.html#4,4,1366,625,1366,768,8-30-2022,9-53-45,134,depth_duration_stimuli/002323_2014-06-28_20-01-54_260595134347_rgbf000051-resize_4/002323_2014-06-28_20-01-54_260595134347_rgbf000051-resize_4-target.png,250,3.7310000000000003,60,6187,249,meters,jsons/v1_VE250_randls_18.json,2473838,2882625,55,Man
134,549075,DepthScenes,duration_manipulation_targetAtFixation,jsons/v1_VE250_randls_18.json,http://54.235.29.9/FacialAge/BNav_EC2/DepthDuration/v2_depth_duration_MTurk/v2_DepthDuration_HTML.html#4,4,1366,625,1366,768,8-30-2022,9-53-45,135,depth_duration_stimuli/002072_2014-06-24_21-48-06_260595134347_rgbf000115-resize_0/002072_2014-06-24_21-48-06_260595134347_rgbf000115-resize-original.jpg,250,4.702,40,4537,249,meters,jsons/v1_VE250_randls_18.json,2473838,2882625,55,Man
135,549075,DepthScenes,duration_manipulation_targetAtFixation,jsons/v1_VE250_randls_18.json,http://54.235.29.9/FacialAge/BNav_EC2/DepthDuration/v2_depth_duration_MTurk/v2_DepthDuration_HTML.html#4,4,1366,625,1366,768,8-30-2022,9-53-45,136,depth_duration_stimuli/002043_2014-06-24_20-29-38_260595134347_rgbf000039-resize_4/002043_2014-06-24_20-29-38_260595134347_rgbf000039-resize_4-target.png,250,2.8435,37,4939,251,meters,jsons/v1_VE250_randls_18.json,2473838,2882625,55,Man
136,549075,DepthScenes,duration_manipulation_targetAtFixation,jsons/v1_VE250_randls_18.json,http://54.235.29.9/FacialAge/BNav_EC2/DepthDuration/v2_depth_duration_MTurk/v2_DepthDuration_HTML.html#4,4,1366,625,1366,768,8-30-2022,9-53-45,137,depth_duration_stimuli/003048_2014-06-15_13-49-43_094959634447_rgbf000150-resize_1/003048_2014-06-15_13-49-43_094959634447_rgbf000150-resize_1-target.png,250,4.0035,57,27140,250,meters,jsons/v1_VE250_randls_18.json,2473838,2882625,55,Man
137,549075,DepthScenes,duration_manipulation_targetAtFixation,jsons/v1_VE250_randls_18.json,http://54.235.29.9/FacialAge/BNav_EC2/DepthDuration/v2_depth_duration_MTurk/v2_DepthDuration_HTML.html#4,4,1366,625,1366,768,8-30-2022,9-53-45,138,depth_duration_stimuli/000682_2014-06-08_23-14-58_260595134347_rgbf000041-resize_5/000682_2014-06-08_23-14-58_260595134347_rgbf000041-resize_5-target.png,250,2.7239999999999998,45,22820,249,meters,jsons/v1_VE250_randls_18.json,2473838,2882625,55,Man
138,549075,DepthScenes,duration_manipulation_targetAtFixation,jsons/v1_VE250_randls_18.json,http://54.235.29.9/FacialAge/BNav_EC2/DepthDuration/v2_depth_duration_MTurk/v2_DepthDuration_HTML.html#4,4,1366,625,1366,768,8-30-2022,9-53-45,139,depth_duration_stimuli/001650_2014-06-20_12-09-00_260595134347_rgbf000087-resize_3/001650_2014-06-20_12-09-00_260595134347_rgbf000087-resize_3-target.png,250,1.9505,35,6011,249,meters,jsons/v1_VE250_randls_18.json,2473838,2882625,55,Man
139,549075,DepthScenes,duration_manipulation_targetAtFixation,jsons/v1_VE250_randls_18.json,http://54.235.29.9/FacialAge/BNav_EC2/DepthDuration/v2_depth_duration_MTurk/v2_DepthDuration_HTML.html#4,4,1366,625,1366,768,8-30-2022,9-53-45,140,depth_duration_stimuli/000736_2014-06-08_18-24-15_260595134347_rgbf000206-resize_3/000736_2014-06-08_18-24-15_260595134347_rgbf000206-resize_3-target.png,250,3.515,48,6124,250,meters,jsons/v1_VE250_randls_18.json,2473838,2882625,55,Man
140,549075,DepthScenes,duration_manipulation_targetAtFixation,jsons/v1_VE250_randls_18.json,http://54.235.29.9/FacialAge/BNav_EC2/DepthDuration/v2_depth_duration_MTurk/v2_DepthDuration_HTML.html#4,4,1366,625,1366,768,8-30-2022,9-53-45,141,depth_duration_stimuli/000137_2014-05-20_17-04-49_260595134347_rgbf000120-resize_1/000137_2014-05-20_17-04-49_260595134347_rgbf000120-resize_1-target.png,250,3.786,55,4720,250,meters,jsons/v1_VE250_randls_18.json,2473838,2882625,55,Man
141,549075,DepthScenes,duration_manipulation_targetAtFixation,jsons/v1_VE250_randls_18.json,http://54.235.29.9/FacialAge/BNav_EC2/DepthDuration/v2_depth_duration_MTurk/v2_DepthDuration_HTML.html#4,4,1366,625,1366,768,8-30-2022,9-53-45,142,depth_duration_stimuli/000810_2014-06-08_17-20-01_260595134347_rgbf000105-resize_0/000810_2014-06-08_17-20-01_260595134347_rgbf000105-resize_0-target.png,250,1.4865,58,5110,251,meters,jsons/v1_VE250_randls_18.json,2473838,2882625,55,Man
142,549075,DepthScenes,duration_manipulation_targetAtFixation,jsons/v1_VE250_randls_18.json,http://54.235.29.9/FacialAge/BNav_EC2/DepthDuration/v2_depth_duration_MTurk/v2_DepthDuration_HTML.html#4,4,1366,625,1366,768,8-30-2022,9-53-45,143,depth_duration_stimuli/001214_2014-06-17_16-13-55_260595134347_rgbf000111-resize_0/001214_2014-06-17_16-13-55_260595134347_rgbf000111-resize_0-target.png,250,2.6505,45,4748,250,meters,jsons/v1_VE250_randls_18.json,2473838,2882625,55,Man
143,549075,DepthScenes,duration_manipulation_targetAtFixation,jsons/v1_VE250_randls_18.json,http://54.235.29.9/FacialAge/BNav_EC2/DepthDuration/v2_depth_duration_MTurk/v2_DepthDuration_HTML.html#4,4,1366,625,1366,768,8-30-2022,9-53-45,144,depth_duration_stimuli/002964_2014-06-08_17-46-11_094959634447_rgbf000091-resize_4/002964_2014-06-08_17-46-11_094959634447_rgbf000091-resize_4-target.png,250,1.6909999999999998,36,4851,249,meters,jsons/v1_VE250_randls_18.json,2473838,2882625,55,Man
144,549075,DepthScenes,duration_manipulation_targetAtFixation,jsons/v1_VE250_randls_18.json,http://54.235.29.9/FacialAge/BNav_EC2/DepthDuration/v2_depth_duration_MTurk/v2_DepthDuration_HTML.html#4,4,1366,625,1366,768,8-30-2022,9-53-45,145,depth_duration_stimuli/002136_2014-06-25_21-18-03_260595134347_rgbf000109-resize_3/002136_2014-06-25_21-18-03_260595134347_rgbf000109-resize_3-target.png,250,1.9569999999999999,49,5180,248,meters,jsons/v1_VE250_randls_18.json,2473838,2882625,55,Man
145,549075,DepthScenes,duration_manipulation_targetAtFixation,jsons/v1_VE250_randls_18.json,http://54.235.29.9/FacialAge/BNav_EC2/DepthDuration/v2_depth_duration_MTurk/v2_DepthDuration_HTML.html#4,4,1366,625,1366,768,8-30-2022,9-53-45,146,depth_duration_stimuli/001498_2014-06-19_17-45-14_260595134347_rgbf000129-resize_4/001498_2014-06-19_17-45-14_260595134347_rgbf000129-resize-original.jpg,250,1.4075,35,34200,249,meters,jsons/v1_VE250_randls_18.json,2473838,2882625,55,Man
146,549075,DepthScenes,duration_manipulation_targetAtFixation,jsons/v1_VE250_randls_18.json,http://54.235.29.9/FacialAge/BNav_EC2/DepthDuration/v2_depth_duration_MTurk/v2_DepthDuration_HTML.html#4,4,1366,625,1366,768,8-30-2022,9-53-45,147,depth_duration_stimuli/001244_2014-06-17_16-47-45_260595134347_rgbf000030-resize_4/001244_2014-06-17_16-47-45_260595134347_rgbf000030-resize_4-target.png,250,2.0425,45,7658,249,meters,jsons/v1_VE250_randls_18.json,2473838,2882625,55,Man
147,549075,DepthScenes,duration_manipulation_targetAtFixation,jsons/v1_VE250_randls_18.json,http://54.235.29.9/FacialAge/BNav_EC2/DepthDuration/v2_depth_duration_MTurk/v2_DepthDuration_HTML.html#4,4,1366,625,1366,768,8-30-2022,9-53-45,148,depth_duration_stimuli/003495_2014-05-21_16-01-51_094959634447_rgbf000100-resize_3/003495_2014-05-21_16-01-51_094959634447_rgbf000100-resize_3-target.png,250,1.6255,37,25301,249,meters,jsons/v1_VE250_randls_18.json,2473838,2882625,55,Man
148,549075,DepthScenes,duration_manipulation_targetAtFixation,jsons/v1_VE250_randls_18.json,http://54.235.29.9/FacialAge/BNav_EC2/DepthDuration/v2_depth_duration_MTurk/v2_DepthDuration_HTML.html#4,4,1366,625,1366,768,8-30-2022,9-53-45,149,depth_duration_stimuli/001167_2014-06-17_15-38-07_260595134347_rgbf000108-resize_0/001167_2014-06-17_15-38-07_260595134347_rgbf000108-resize_0-target.png,250,1.8505,49,5859,249,meters,jsons/v1_VE250_randls_18.json,2473838,2882625,55,Man
149,549075,DepthScenes,duration_manipulation_targetAtFixation,jsons/v1_VE250_randls_18.json,http://54.235.29.9/FacialAge/BNav_EC2/DepthDuration/v2_depth_duration_MTurk/v2_DepthDuration_HTML.html#4,4,1366,625,1366,768,8-30-2022,9-53-45,150,depth_duration_stimuli/003587_2014-05-23_16-48-02_094959634447_rgbf002384-resize_2/003587_2014-05-23_16-48-02_094959634447_rgbf002384-resize_2-target.png,250,1.357,34,24659,250,meters,jsons/v1_VE250_randls_18.json,2473838,2882625,55,Man
150,549075,DepthScenes,duration_manipulation_targetAtFixation,jsons/v1_VE250_randls_18.json,http://54.235.29.9/FacialAge/BNav_EC2/DepthDuration/v2_depth_duration_MTurk/v2_DepthDuration_HTML.html#4,4,1366,625,1366,768,8-30-2022,9-53-45,151,depth_duration_stimuli/001164_2014-06-17_15-35-46_260595134347_rgbf000085-resize_3/001164_2014-06-17_15-35-46_260595134347_rgbf000085-resize_3-target.png,250,2.354,55,34318,251,meters,jsons/v1_VE250_randls_18.json,2473838,2882625,55,Man
151,549075,DepthScenes,duration_manipulation_targetAtFixation,jsons/v1_VE250_randls_18.json,http://54.235.29.9/FacialAge/BNav_EC2/DepthDuration/v2_depth_duration_MTurk/v2_DepthDuration_HTML.html#4,4,1366,625,1366,768,8-30-2022,9-53-45,152,depth_duration_stimuli/001136_2014-06-17_15-19-41_260595134347_rgbf000076-resize_3/001136_2014-06-17_15-19-41_260595134347_rgbf000076-resize_3-target.png,250,1.8655,65,6088,246,meters,jsons/v1_VE250_randls_18.json,2473838,2882625,55,Man
152,549075,DepthScenes,duration_manipulation_targetAtFixation,jsons/v1_VE250_randls_18.json,http://54.235.29.9/FacialAge/BNav_EC2/DepthDuration/v2_depth_duration_MTurk/v2_DepthDuration_HTML.html#4,4,1366,625,1366,768,8-30-2022,9-53-45,153,depth_duration_stimuli/002039_2014-06-24_20-22-38_260595134347_rgbf000084-resize_1/002039_2014-06-24_20-22-38_260595134347_rgbf000084-resize_1-target.png,250,4.408,75,4890,236,meters,jsons/v1_VE250_randls_18.json,2473838,2882625,55,Man
153,549075,DepthScenes,duration_manipulation_targetAtFixation,jsons/v1_VE250_randls_18.json,http://54.235.29.9/FacialAge/BNav_EC2/DepthDuration/v2_depth_duration_MTurk/v2_DepthDuration_HTML.html#4,4,1366,625,1366,768,8-30-2022,9-53-45,154,depth_duration_stimuli/002103_2014-06-25_20-00-40_260595134347_rgbf000049-resize_0/002103_2014-06-25_20-00-40_260595134347_rgbf000049-resize_0-target.png,250,4.105,67,7358,242,meters,jsons/v1_VE250_randls_18.json,2473838,2882625,55,Man
154,549075,DepthScenes,duration_manipulation_targetAtFixation,jsons/v1_VE250_randls_18.json,http://54.235.29.9/FacialAge/BNav_EC2/DepthDuration/v2_depth_duration_MTurk/v2_DepthDuration_HTML.html#4,4,1366,625,1366,768,8-30-2022,9-53-45,155,depth_duration_stimuli/001011_2014-06-08_23-18-54_260595134347_rgbf000044-resize_4/001011_2014-06-08_23-18-54_260595134347_rgbf000044-resize_4-target.png,250,2.4730000000000003,54,5168,249,meters,jsons/v1_VE250_randls_18.json,2473838,2882625,55,Man
155,549075,DepthScenes,duration_manipulation_targetAtFixation,jsons/v1_VE250_randls_18.json,http://54.235.29.9/FacialAge/BNav_EC2/DepthDuration/v2_depth_duration_MTurk/v2_DepthDuration_HTML.html#4,4,1366,625,1366,768,8-30-2022,9-53-45,156,depth_duration_stimuli/002875_2014-06-01_15-19-00_094959634447_rgbf000151-resize_1/002875_2014-06-01_15-19-00_094959634447_rgbf000151-resize_1-target.png,250,1.9675,58,6998,252,meters,jsons/v1_VE250_randls_18.json,2473838,2882625,55,Man
156,549075,DepthScenes,duration_manipulation_targetAtFixation,jsons/v1_VE250_randls_18.json,http://54.235.29.9/FacialAge/BNav_EC2/DepthDuration/v2_depth_duration_MTurk/v2_DepthDuration_HTML.html#4,4,1366,625,1366,768,8-30-2022,9-53-45,157,depth_duration_stimuli/001150_2014-06-17_15-27-34_260595134347_rgbf000108-resize_2/001150_2014-06-17_15-27-34_260595134347_rgbf000108-resize_2-target.png,250,4.0325,69,4733,249,meters,jsons/v1_VE250_randls_18.json,2473838,2882625,55,Man
157,549075,DepthScenes,duration_manipulation_targetAtFixation,jsons/v1_VE250_randls_18.json,http://54.235.29.9/FacialAge/BNav_EC2/DepthDuration/v2_depth_duration_MTurk/v2_DepthDuration_HTML.html#4,4,1366,625,1366,768,8-30-2022,9-53-45,158,depth_duration_stimuli/000665_2014-06-09_20-42-35_260595134347_rgbf000110-resize_1/000665_2014-06-09_20-42-35_260595134347_rgbf000110-resize_1-target.png,250,3.057,60,5064,250,meters,jsons/v1_VE250_randls_18.json,2473838,2882625,55,Man
158,549075,DepthScenes,duration_manipulation_targetAtFixation,jsons/v1_VE250_randls_18.json,http://54.235.29.9/FacialAge/BNav_EC2/DepthDuration/v2_depth_duration_MTurk/v2_DepthDuration_HTML.html#4,4,1366,625,1366,768,8-30-2022,9-53-45,159,depth_duration_stimuli/002763_2014-06-22_19-13-10_094959634447_rgbf000075-resize_4/002763_2014-06-22_19-13-10_094959634447_rgbf000075-resize_4-target.png,250,1.68375,55,32665,250,meters,jsons/v1_VE250_randls_18.json,2473838,2882625,55,Man
159,549075,DepthScenes,duration_manipulation_targetAtFixation,jsons/v1_VE250_randls_18.json,http://54.235.29.9/FacialAge/BNav_EC2/DepthDuration/v2_depth_duration_MTurk/v2_DepthDuration_HTML.html#4,4,1366,625,1366,768,8-30-2022,9-53-45,160,depth_duration_stimuli/002209_2014-06-28_18-36-10_260595134347_rgbf000051-resize_1/002209_2014-06-28_18-36-10_260595134347_rgbf000051-resize_1-target.png,250,2.057,35,5793,250,meters,jsons/v1_VE250_randls_18.json,2473838,2882625,55,Man
160,549075,DepthScenes,duration_manipulation_targetAtFixation,jsons/v1_VE250_randls_18.json,http://54.235.29.9/FacialAge/BNav_EC2/DepthDuration/v2_depth_duration_MTurk/v2_DepthDuration_HTML.html#4,4,1366,625,1366,768,8-30-2022,9-53-45,161,depth_duration_stimuli/003292_2014-05-14_21-53-49_094959634447_rgbf000100-resize_2/003292_2014-05-14_21-53-49_094959634447_rgbf000100-resize_2-target.png,250,3.4815,45,4791,250,meters,jsons/v1_VE250_randls_18.json,2473838,2882625,55,Man
161,549075,DepthScenes,duration_manipulation_targetAtFixation,jsons/v1_VE250_randls_18.json,http://54.235.29.9/FacialAge/BNav_EC2/DepthDuration/v2_depth_duration_MTurk/v2_DepthDuration_HTML.html#4,4,1366,625,1366,768,8-30-2022,9-53-45,162,depth_duration_stimuli/002639_2014-06-24_14-51-37_094959634447_rgbf000074-resize_4/002639_2014-06-24_14-51-37_094959634447_rgbf000074-resize_4-target.png,250,4.0375,57,5810,256,meters,jsons/v1_VE250_randls_18.json,2473838,2882625,55,Man
162,549075,DepthScenes,duration_manipulation_targetAtFixation,jsons/v1_VE250_randls_18.json,http://54.235.29.9/FacialAge/BNav_EC2/DepthDuration/v2_depth_duration_MTurk/v2_DepthDuration_HTML.html#4,4,1366,625,1366,768,8-30-2022,9-53-45,163,depth_duration_stimuli/000470_2014-06-09_19-42-40_260595134347_rgbf000094-resize_1/000470_2014-06-09_19-42-40_260595134347_rgbf000094-resize_1-target.png,250,1.831,55,23136,250,meters,jsons/v1_VE250_randls_18.json,2473838,2882625,55,Man
163,549075,DepthScenes,duration_manipulation_targetAtFixation,jsons/v1_VE250_randls_18.json,http://54.235.29.9/FacialAge/BNav_EC2/DepthDuration/v2_depth_duration_MTurk/v2_DepthDuration_HTML.html#4,4,1366,625,1366,768,8-30-2022,9-53-45,164,depth_duration_stimuli/000109_2014-05-14_23-41-52_260595134347_rgbf000035-resize_9/000109_2014-05-14_23-41-52_260595134347_rgbf000035-resize_9-target.png,250,1.3545,36,5203,250,meters,jsons/v1_VE250_randls_18.json,2473838,2882625,55,Man
