,subjID,experimentName,versionName,sequenceName,url,selected_row,windowWidth,windowHeight,screenWidth,screenHeight,startDate,startTime,trial,stimulus,duration,actual_depth,depth_estimate,trial_RT,log_sceneDuration,unitSelection,seq_filepath,experimentTime,totalTime,age,gender
0,550431,DepthScenes,duration_manipulation_targetAtFixation,jsons/v1_VE1000_randls_76.json,http://54.235.29.9/FacialAge/BNav_EC2/DepthDuration/v2_depth_duration_MTurk/v2_DepthDuration_HTML.html#8,8,1366,657,1366,768,8-22-2022,8-13-34,1,depth_duration_stimuli/002905_2014-06-03_18-04-43_094959634447_rgbf000151-resize_2/002905_2014-06-03_18-04-43_094959634447_rgbf000151-resize_2-target.png,1000,2.0295,9.0,3858,998,feet,jsons/v1_VE1000_randls_76.json,711375,1157296,42,Woman
1,550431,DepthScenes,duration_manipulation_targetAtFixation,jsons/v1_VE1000_randls_76.json,http://54.235.29.9/FacialAge/BNav_EC2/DepthDuration/v2_depth_duration_MTurk/v2_DepthDuration_HTML.html#8,8,1366,657,1366,768,8-22-2022,8-13-34,2,depth_duration_stimuli/003423_2014-05-21_10-23-26_094959634447_rgbf002665-resize_2/003423_2014-05-21_10-23-26_094959634447_rgbf002665-resize_2-target.png,1000,3.2575,12.0,4493,998,feet,jsons/v1_VE1000_randls_76.json,711375,1157296,42,Woman
2,550431,DepthScenes,duration_manipulation_targetAtFixation,jsons/v1_VE1000_randls_76.json,http://54.235.29.9/FacialAge/BNav_EC2/DepthDuration/v2_depth_duration_MTurk/v2_DepthDuration_HTML.html#8,8,1366,657,1366,768,8-22-2022,8-13-34,3,depth_duration_stimuli/002989_2014-06-15_12-25-03_094959634447_rgbf000150-resize_3/002989_2014-06-15_12-25-03_094959634447_rgbf000150-resize_3-target.png,1000,4.1975,15.0,5138,999,feet,jsons/v1_VE1000_randls_76.json,711375,1157296,42,Woman
3,550431,DepthScenes,duration_manipulation_targetAtFixation,jsons/v1_VE1000_randls_76.json,http://54.235.29.9/FacialAge/BNav_EC2/DepthDuration/v2_depth_duration_MTurk/v2_DepthDuration_HTML.html#8,8,1366,657,1366,768,8-22-2022,8-13-34,4,depth_duration_stimuli/000866_2014-06-09_20-45-42_260595134347_rgbf000139-resize_1/000866_2014-06-09_20-45-42_260595134347_rgbf000139-resize_1-target.png,1000,3.2155,6.0,4098,998,feet,jsons/v1_VE1000_randls_76.json,711375,1157296,42,Woman
4,550431,DepthScenes,duration_manipulation_targetAtFixation,jsons/v1_VE1000_randls_76.json,http://54.235.29.9/FacialAge/BNav_EC2/DepthDuration/v2_depth_duration_MTurk/v2_DepthDuration_HTML.html#8,8,1366,657,1366,768,8-22-2022,8-13-34,5,depth_duration_stimuli/002725_2014-06-22_11-47-51_094959634447_rgbf000070-resize_1/002725_2014-06-22_11-47-51_094959634447_rgbf000070-resize_1-target.png,1000,2.195,6.0,3762,998,feet,jsons/v1_VE1000_randls_76.json,711375,1157296,42,Woman
5,550431,DepthScenes,duration_manipulation_targetAtFixation,jsons/v1_VE1000_randls_76.json,http://54.235.29.9/FacialAge/BNav_EC2/DepthDuration/v2_depth_duration_MTurk/v2_DepthDuration_HTML.html#8,8,1366,657,1366,768,8-22-2022,8-13-34,6,depth_duration_stimuli/002344_2014-06-28_20-06-29_260595134347_rgbf000030-resize_1/002344_2014-06-28_20-06-29_260595134347_rgbf000030-resize_1-target.png,1000,1.5795,3.0,2986,1000,feet,jsons/v1_VE1000_randls_76.json,711375,1157296,42,Woman
6,550431,DepthScenes,duration_manipulation_targetAtFixation,jsons/v1_VE1000_randls_76.json,http://54.235.29.9/FacialAge/BNav_EC2/DepthDuration/v2_depth_duration_MTurk/v2_DepthDuration_HTML.html#8,8,1366,657,1366,768,8-22-2022,8-13-34,7,depth_duration_stimuli/001158_2014-06-17_15-32-16_260595134347_rgbf000138-resize_2/001158_2014-06-17_15-32-16_260595134347_rgbf000138-resize_2-target.png,1000,4.5315,15.0,3156,999,feet,jsons/v1_VE1000_randls_76.json,711375,1157296,42,Woman
7,550431,DepthScenes,duration_manipulation_targetAtFixation,jsons/v1_VE1000_randls_76.json,http://54.235.29.9/FacialAge/BNav_EC2/DepthDuration/v2_depth_duration_MTurk/v2_DepthDuration_HTML.html#8,8,1366,657,1366,768,8-22-2022,8-13-34,8,depth_duration_stimuli/000556_2014-06-09_22-42-56_260595134347_rgbf000214-resize_1/000556_2014-06-09_22-42-56_260595134347_rgbf000214-resize_1-target.png,1000,4.8415,20.0,2922,999,feet,jsons/v1_VE1000_randls_76.json,711375,1157296,42,Woman
8,550431,DepthScenes,duration_manipulation_targetAtFixation,jsons/v1_VE1000_randls_76.json,http://54.235.29.9/FacialAge/BNav_EC2/DepthDuration/v2_depth_duration_MTurk/v2_DepthDuration_HTML.html#8,8,1366,657,1366,768,8-22-2022,8-13-34,9,depth_duration_stimuli/000917_2014-06-09_22-45-29_260595134347_rgbf000149-resize_3/000917_2014-06-09_22-45-29_260595134347_rgbf000149-resize_3-target.png,1000,4.1865,15.0,3839,998,feet,jsons/v1_VE1000_randls_76.json,711375,1157296,42,Woman
9,550431,DepthScenes,duration_manipulation_targetAtFixation,jsons/v1_VE1000_randls_76.json,http://54.235.29.9/FacialAge/BNav_EC2/DepthDuration/v2_depth_duration_MTurk/v2_DepthDuration_HTML.html#8,8,1366,657,1366,768,8-22-2022,8-13-34,10,depth_duration_stimuli/002323_2014-06-28_20-01-54_260595134347_rgbf000051-resize_4/002323_2014-06-28_20-01-54_260595134347_rgbf000051-resize_4-target.png,1000,3.7310000000000003,20.0,3005,999,feet,jsons/v1_VE1000_randls_76.json,711375,1157296,42,Woman
10,550431,DepthScenes,duration_manipulation_targetAtFixation,jsons/v1_VE1000_randls_76.json,http://54.235.29.9/FacialAge/BNav_EC2/DepthDuration/v2_depth_duration_MTurk/v2_DepthDuration_HTML.html#8,8,1366,657,1366,768,8-22-2022,8-13-34,11,depth_duration_stimuli/000878_2014-06-08_22-52-45_260595134347_rgbf000045-resize_2/000878_2014-06-08_22-52-45_260595134347_rgbf000045-resize_2-target.png,1000,2.092,13.0,3962,998,feet,jsons/v1_VE1000_randls_76.json,711375,1157296,42,Woman
11,550431,DepthScenes,duration_manipulation_targetAtFixation,jsons/v1_VE1000_randls_76.json,http://54.235.29.9/FacialAge/BNav_EC2/DepthDuration/v2_depth_duration_MTurk/v2_DepthDuration_HTML.html#8,8,1366,657,1366,768,8-22-2022,8-13-34,12,depth_duration_stimuli/002953_2014-06-08_17-32-18_094959634447_rgbf000059-resize_5/002953_2014-06-08_17-32-18_094959634447_rgbf000059-resize_5-target.png,1000,1.551,6.0,2923,999,feet,jsons/v1_VE1000_randls_76.json,711375,1157296,42,Woman
12,550431,DepthScenes,duration_manipulation_targetAtFixation,jsons/v1_VE1000_randls_76.json,http://54.235.29.9/FacialAge/BNav_EC2/DepthDuration/v2_depth_duration_MTurk/v2_DepthDuration_HTML.html#8,8,1366,657,1366,768,8-22-2022,8-13-34,13,depth_duration_stimuli/000569_2014-06-09_22-51-47_260595134347_rgbf000141-resize_3/000569_2014-06-09_22-51-47_260595134347_rgbf000141-resize-original.jpg,1000,4.512,0.0,4943,999,feet,jsons/v1_VE1000_randls_76.json,711375,1157296,42,Woman
13,550431,DepthScenes,duration_manipulation_targetAtFixation,jsons/v1_VE1000_randls_76.json,http://54.235.29.9/FacialAge/BNav_EC2/DepthDuration/v2_depth_duration_MTurk/v2_DepthDuration_HTML.html#8,8,1366,657,1366,768,8-22-2022,8-13-34,14,depth_duration_stimuli/001029_2014-06-08_13-17-57_260595134347_rgbf000065-resize_1/001029_2014-06-08_13-17-57_260595134347_rgbf000065-resize_1-target.png,1000,3.0835,9.0,4083,999,feet,jsons/v1_VE1000_randls_76.json,711375,1157296,42,Woman
14,550431,DepthScenes,duration_manipulation_targetAtFixation,jsons/v1_VE1000_randls_76.json,http://54.235.29.9/FacialAge/BNav_EC2/DepthDuration/v2_depth_duration_MTurk/v2_DepthDuration_HTML.html#8,8,1366,657,1366,768,8-22-2022,8-13-34,15,depth_duration_stimuli/000677_2014-06-08_23-10-32_260595134347_rgbf000158-resize_6/000677_2014-06-08_23-10-32_260595134347_rgbf000158-resize_6-target.png,1000,3.556,15.0,3755,998,feet,jsons/v1_VE1000_randls_76.json,711375,1157296,42,Woman
15,550431,DepthScenes,duration_manipulation_targetAtFixation,jsons/v1_VE1000_randls_76.json,http://54.235.29.9/FacialAge/BNav_EC2/DepthDuration/v2_depth_duration_MTurk/v2_DepthDuration_HTML.html#8,8,1366,657,1366,768,8-22-2022,8-13-34,16,depth_duration_stimuli/002043_2014-06-24_20-29-38_260595134347_rgbf000039-resize_4/002043_2014-06-24_20-29-38_260595134347_rgbf000039-resize_4-target.png,1000,2.8435,20.0,5418,998,feet,jsons/v1_VE1000_randls_76.json,711375,1157296,42,Woman
16,550431,DepthScenes,duration_manipulation_targetAtFixation,jsons/v1_VE1000_randls_76.json,http://54.235.29.9/FacialAge/BNav_EC2/DepthDuration/v2_depth_duration_MTurk/v2_DepthDuration_HTML.html#8,8,1366,657,1366,768,8-22-2022,8-13-34,17,depth_duration_stimuli/003048_2014-06-15_13-49-43_094959634447_rgbf000150-resize_1/003048_2014-06-15_13-49-43_094959634447_rgbf000150-resize_1-target.png,1000,4.0035,25.0,3923,999,feet,jsons/v1_VE1000_randls_76.json,711375,1157296,42,Woman
17,550431,DepthScenes,duration_manipulation_targetAtFixation,jsons/v1_VE1000_randls_76.json,http://54.235.29.9/FacialAge/BNav_EC2/DepthDuration/v2_depth_duration_MTurk/v2_DepthDuration_HTML.html#8,8,1366,657,1366,768,8-22-2022,8-13-34,18,depth_duration_stimuli/001066_2014-06-08_22-03-20_260595134347_rgbf000066-resize_4/001066_2014-06-08_22-03-20_260595134347_rgbf000066-resize_4-target.png,1000,4.2330000000000005,30.0,3715,998,feet,jsons/v1_VE1000_randls_76.json,711375,1157296,42,Woman
18,550431,DepthScenes,duration_manipulation_targetAtFixation,jsons/v1_VE1000_randls_76.json,http://54.235.29.9/FacialAge/BNav_EC2/DepthDuration/v2_depth_duration_MTurk/v2_DepthDuration_HTML.html#8,8,1366,657,1366,768,8-22-2022,8-13-34,19,depth_duration_stimuli/000742_2014-06-08_18-48-09_260595134347_rgbf000164-resize_4/000742_2014-06-08_18-48-09_260595134347_rgbf000164-resize_4-target.png,1000,4.632,18.0,4170,999,feet,jsons/v1_VE1000_randls_76.json,711375,1157296,42,Woman
19,550431,DepthScenes,duration_manipulation_targetAtFixation,jsons/v1_VE1000_randls_76.json,http://54.235.29.9/FacialAge/BNav_EC2/DepthDuration/v2_depth_duration_MTurk/v2_DepthDuration_HTML.html#8,8,1366,657,1366,768,8-22-2022,8-13-34,20,depth_duration_stimuli/000368_2014-06-09_15-53-01_260595134347_rgbf000155-resize_2/000368_2014-06-09_15-53-01_260595134347_rgbf000155-resize_2-target.png,1000,2.4859999999999998,6.0,4042,998,feet,jsons/v1_VE1000_randls_76.json,711375,1157296,42,Woman
20,550431,DepthScenes,duration_manipulation_targetAtFixation,jsons/v1_VE1000_randls_76.json,http://54.235.29.9/FacialAge/BNav_EC2/DepthDuration/v2_depth_duration_MTurk/v2_DepthDuration_HTML.html#8,8,1366,657,1366,768,8-22-2022,8-13-34,21,depth_duration_stimuli/002678_2014-06-13_16-15-32_094959634447_rgbf000151-resize_6/002678_2014-06-13_16-15-32_094959634447_rgbf000151-resize_6-target.png,1000,2.1830000000000003,25.0,3930,999,feet,jsons/v1_VE1000_randls_76.json,711375,1157296,42,Woman
21,550431,DepthScenes,duration_manipulation_targetAtFixation,jsons/v1_VE1000_randls_76.json,http://54.235.29.9/FacialAge/BNav_EC2/DepthDuration/v2_depth_duration_MTurk/v2_DepthDuration_HTML.html#8,8,1366,657,1366,768,8-22-2022,8-13-34,22,depth_duration_stimuli/002549_2014-06-24_13-41-39_094959634447_rgbf000022-resize_3/002549_2014-06-24_13-41-39_094959634447_rgbf000022-resize_3-target.png,1000,1.476,10.0,3868,999,feet,jsons/v1_VE1000_randls_76.json,711375,1157296,42,Woman
22,550431,DepthScenes,duration_manipulation_targetAtFixation,jsons/v1_VE1000_randls_76.json,http://54.235.29.9/FacialAge/BNav_EC2/DepthDuration/v2_depth_duration_MTurk/v2_DepthDuration_HTML.html#8,8,1366,657,1366,768,8-22-2022,8-13-34,23,depth_duration_stimuli/002750_2014-06-22_19-08-03_094959634447_rgbf000094-resize_4/002750_2014-06-22_19-08-03_094959634447_rgbf000094-resize_4-target.png,1000,2.354,18.0,4401,999,feet,jsons/v1_VE1000_randls_76.json,711375,1157296,42,Woman
23,550431,DepthScenes,duration_manipulation_targetAtFixation,jsons/v1_VE1000_randls_76.json,http://54.235.29.9/FacialAge/BNav_EC2/DepthDuration/v2_depth_duration_MTurk/v2_DepthDuration_HTML.html#8,8,1366,657,1366,768,8-22-2022,8-13-34,24,depth_duration_stimuli/003070_2014-06-15_14-58-27_094959634447_rgbf000150-resize_3/003070_2014-06-15_14-58-27_094959634447_rgbf000150-resize_3-target.png,1000,2.9415,16.0,3675,1000,feet,jsons/v1_VE1000_randls_76.json,711375,1157296,42,Woman
24,550431,DepthScenes,duration_manipulation_targetAtFixation,jsons/v1_VE1000_randls_76.json,http://54.235.29.9/FacialAge/BNav_EC2/DepthDuration/v2_depth_duration_MTurk/v2_DepthDuration_HTML.html#8,8,1366,657,1366,768,8-22-2022,8-13-34,25,depth_duration_stimuli/000943_2014-06-09_19-31-07_260595134347_rgbf000128-resize_1/000943_2014-06-09_19-31-07_260595134347_rgbf000128-resize_1-target.png,1000,1.9765,15.0,5410,998,feet,jsons/v1_VE1000_randls_76.json,711375,1157296,42,Woman
25,550431,DepthScenes,duration_manipulation_targetAtFixation,jsons/v1_VE1000_randls_76.json,http://54.235.29.9/FacialAge/BNav_EC2/DepthDuration/v2_depth_duration_MTurk/v2_DepthDuration_HTML.html#8,8,1366,657,1366,768,8-22-2022,8-13-34,26,depth_duration_stimuli/000929_2014-06-09_16-33-19_260595134347_rgbf000139-resize_0/000929_2014-06-09_16-33-19_260595134347_rgbf000139-resize_0-target.png,1000,2.8680000000000003,13.0,4155,999,feet,jsons/v1_VE1000_randls_76.json,711375,1157296,42,Woman
26,550431,DepthScenes,duration_manipulation_targetAtFixation,jsons/v1_VE1000_randls_76.json,http://54.235.29.9/FacialAge/BNav_EC2/DepthDuration/v2_depth_duration_MTurk/v2_DepthDuration_HTML.html#8,8,1366,657,1366,768,8-22-2022,8-13-34,27,depth_duration_stimuli/000457_2014-06-08_16-52-43_260595134347_rgbf000199-resize_1/000457_2014-06-08_16-52-43_260595134347_rgbf000199-resize_1-target.png,1000,3.6489999999999996,10.0,3971,999,feet,jsons/v1_VE1000_randls_76.json,711375,1157296,42,Woman
27,550431,DepthScenes,duration_manipulation_targetAtFixation,jsons/v1_VE1000_randls_76.json,http://54.235.29.9/FacialAge/BNav_EC2/DepthDuration/v2_depth_duration_MTurk/v2_DepthDuration_HTML.html#8,8,1366,657,1366,768,8-22-2022,8-13-34,28,depth_duration_stimuli/002600_2014-06-24_14-27-04_094959634447_rgbf000074-resize_2/002600_2014-06-24_14-27-04_094959634447_rgbf000074-resize_2-target.png,1000,2.7575,13.0,4074,1000,feet,jsons/v1_VE1000_randls_76.json,711375,1157296,42,Woman
28,550431,DepthScenes,duration_manipulation_targetAtFixation,jsons/v1_VE1000_randls_76.json,http://54.235.29.9/FacialAge/BNav_EC2/DepthDuration/v2_depth_duration_MTurk/v2_DepthDuration_HTML.html#8,8,1366,657,1366,768,8-22-2022,8-13-34,29,depth_duration_stimuli/003228_2014-05-14_13-42-35_094959634447_rgbf000101-resize_1/003228_2014-05-14_13-42-35_094959634447_rgbf000101-resize_1-target.png,1000,1.9680000000000002,6.0,4563,1000,feet,jsons/v1_VE1000_randls_76.json,711375,1157296,42,Woman
29,550431,DepthScenes,duration_manipulation_targetAtFixation,jsons/v1_VE1000_randls_76.json,http://54.235.29.9/FacialAge/BNav_EC2/DepthDuration/v2_depth_duration_MTurk/v2_DepthDuration_HTML.html#8,8,1366,657,1366,768,8-22-2022,8-13-34,30,depth_duration_stimuli/000375_2014-06-08_11-17-29_260595134347_rgbf000133-resize_2/000375_2014-06-08_11-17-29_260595134347_rgbf000133-resize-original.jpg,1000,4.718,0.0,3778,1001,feet,jsons/v1_VE1000_randls_76.json,711375,1157296,42,Woman
30,550431,DepthScenes,duration_manipulation_targetAtFixation,jsons/v1_VE1000_randls_76.json,http://54.235.29.9/FacialAge/BNav_EC2/DepthDuration/v2_depth_duration_MTurk/v2_DepthDuration_HTML.html#8,8,1366,657,1366,768,8-22-2022,8-13-34,31,depth_duration_stimuli/001199_2014-06-17_16-03-48_260595134347_rgbf000077-resize_0/001199_2014-06-17_16-03-48_260595134347_rgbf000077-resize_0-target.png,1000,3.4375,20.0,4259,1000,feet,jsons/v1_VE1000_randls_76.json,711375,1157296,42,Woman
31,550431,DepthScenes,duration_manipulation_targetAtFixation,jsons/v1_VE1000_randls_76.json,http://54.235.29.9/FacialAge/BNav_EC2/DepthDuration/v2_depth_duration_MTurk/v2_DepthDuration_HTML.html#8,8,1366,657,1366,768,8-22-2022,8-13-34,32,depth_duration_stimuli/000502_2014-06-08_23-02-32_260595134347_rgbf000063-resize_4/000502_2014-06-08_23-02-32_260595134347_rgbf000063-resize_4-target.png,1000,2.431,9.0,3755,1001,feet,jsons/v1_VE1000_randls_76.json,711375,1157296,42,Woman
32,550431,DepthScenes,duration_manipulation_targetAtFixation,jsons/v1_VE1000_randls_76.json,http://54.235.29.9/FacialAge/BNav_EC2/DepthDuration/v2_depth_duration_MTurk/v2_DepthDuration_HTML.html#8,8,1366,657,1366,768,8-22-2022,8-13-34,33,depth_duration_stimuli/000486_2014-06-09_20-47-20_260595134347_rgbf000143-resize_2/000486_2014-06-09_20-47-20_260595134347_rgbf000143-resize_2-target.png,1000,4.8325,13.0,3818,999,feet,jsons/v1_VE1000_randls_76.json,711375,1157296,42,Woman
33,550431,DepthScenes,duration_manipulation_targetAtFixation,jsons/v1_VE1000_randls_76.json,http://54.235.29.9/FacialAge/BNav_EC2/DepthDuration/v2_depth_duration_MTurk/v2_DepthDuration_HTML.html#8,8,1366,657,1366,768,8-22-2022,8-13-34,34,depth_duration_stimuli/003083_2014-06-15_15-21-03_094959634447_rgbf000063-resize_1/003083_2014-06-15_15-21-03_094959634447_rgbf000063-resize_1-target.png,1000,4.1405,28.0,4955,999,feet,jsons/v1_VE1000_randls_76.json,711375,1157296,42,Woman
34,550431,DepthScenes,duration_manipulation_targetAtFixation,jsons/v1_VE1000_randls_76.json,http://54.235.29.9/FacialAge/BNav_EC2/DepthDuration/v2_depth_duration_MTurk/v2_DepthDuration_HTML.html#8,8,1366,657,1366,768,8-22-2022,8-13-34,35,depth_duration_stimuli/001167_2014-06-17_15-38-07_260595134347_rgbf000108-resize_0/001167_2014-06-17_15-38-07_260595134347_rgbf000108-resize_0-target.png,1000,1.8505,5.0,3658,1000,feet,jsons/v1_VE1000_randls_76.json,711375,1157296,42,Woman
35,550431,DepthScenes,duration_manipulation_targetAtFixation,jsons/v1_VE1000_randls_76.json,http://54.235.29.9/FacialAge/BNav_EC2/DepthDuration/v2_depth_duration_MTurk/v2_DepthDuration_HTML.html#8,8,1366,657,1366,768,8-22-2022,8-13-34,36,depth_duration_stimuli/003587_2014-05-23_16-48-02_094959634447_rgbf002384-resize_2/003587_2014-05-23_16-48-02_094959634447_rgbf002384-resize_2-target.png,1000,1.357,5.0,5011,999,feet,jsons/v1_VE1000_randls_76.json,711375,1157296,42,Woman
36,550431,DepthScenes,duration_manipulation_targetAtFixation,jsons/v1_VE1000_randls_76.json,http://54.235.29.9/FacialAge/BNav_EC2/DepthDuration/v2_depth_duration_MTurk/v2_DepthDuration_HTML.html#8,8,1366,657,1366,768,8-22-2022,8-13-34,37,depth_duration_stimuli/000773_2014-06-08_22-24-54_260595134347_rgbf000093-resize_1/000773_2014-06-08_22-24-54_260595134347_rgbf000093-resize_1-target.png,1000,4.973,25.0,3874,999,feet,jsons/v1_VE1000_randls_76.json,711375,1157296,42,Woman
37,550431,DepthScenes,duration_manipulation_targetAtFixation,jsons/v1_VE1000_randls_76.json,http://54.235.29.9/FacialAge/BNav_EC2/DepthDuration/v2_depth_duration_MTurk/v2_DepthDuration_HTML.html#8,8,1366,657,1366,768,8-22-2022,8-13-34,38,depth_duration_stimuli/002414_2014-06-28_20-24-58_260595134347_rgbf000067-resize_4/002414_2014-06-28_20-24-58_260595134347_rgbf000067-resize_4-target.png,1000,4.363,25.0,3382,999,feet,jsons/v1_VE1000_randls_76.json,711375,1157296,42,Woman
38,550431,DepthScenes,duration_manipulation_targetAtFixation,jsons/v1_VE1000_randls_76.json,http://54.235.29.9/FacialAge/BNav_EC2/DepthDuration/v2_depth_duration_MTurk/v2_DepthDuration_HTML.html#8,8,1366,657,1366,768,8-22-2022,8-13-34,39,depth_duration_stimuli/000447_2014-06-08_16-15-46_260595134347_rgbf000130-resize_1/000447_2014-06-08_16-15-46_260595134347_rgbf000130-resize_1-target.png,1000,4.479,15.0,7431,998,feet,jsons/v1_VE1000_randls_76.json,711375,1157296,42,Woman
39,550431,DepthScenes,duration_manipulation_targetAtFixation,jsons/v1_VE1000_randls_76.json,http://54.235.29.9/FacialAge/BNav_EC2/DepthDuration/v2_depth_duration_MTurk/v2_DepthDuration_HTML.html#8,8,1366,657,1366,768,8-22-2022,8-13-34,40,depth_duration_stimuli/001447_2014-06-19_17-00-32_260595134347_rgbf000082-resize_5/001447_2014-06-19_17-00-32_260595134347_rgbf000082-resize_5-target.png,1000,4.13775,6.0,5553,999,feet,jsons/v1_VE1000_randls_76.json,711375,1157296,42,Woman
40,550431,DepthScenes,duration_manipulation_targetAtFixation,jsons/v1_VE1000_randls_76.json,http://54.235.29.9/FacialAge/BNav_EC2/DepthDuration/v2_depth_duration_MTurk/v2_DepthDuration_HTML.html#8,8,1366,657,1366,768,8-22-2022,8-13-34,41,depth_duration_stimuli/002272_2014-06-28_18-53-56_260595134347_rgbf000067-resize_2/002272_2014-06-28_18-53-56_260595134347_rgbf000067-resize_2-target.png,1000,1.138,5.0,3745,998,feet,jsons/v1_VE1000_randls_76.json,711375,1157296,42,Woman
41,550431,DepthScenes,duration_manipulation_targetAtFixation,jsons/v1_VE1000_randls_76.json,http://54.235.29.9/FacialAge/BNav_EC2/DepthDuration/v2_depth_duration_MTurk/v2_DepthDuration_HTML.html#8,8,1366,657,1366,768,8-22-2022,8-13-34,42,depth_duration_stimuli/001571_2014-06-20_17-21-32_260595134347_rgbf000089-resize_1/001571_2014-06-20_17-21-32_260595134347_rgbf000089-resize_1-target.png,1000,1.86,6.0,3842,999,feet,jsons/v1_VE1000_randls_76.json,711375,1157296,42,Woman
42,550431,DepthScenes,duration_manipulation_targetAtFixation,jsons/v1_VE1000_randls_76.json,http://54.235.29.9/FacialAge/BNav_EC2/DepthDuration/v2_depth_duration_MTurk/v2_DepthDuration_HTML.html#8,8,1366,657,1366,768,8-22-2022,8-13-34,43,depth_duration_stimuli/001056_2014-06-08_18-46-44_260595134347_rgbf000068-resize_0/001056_2014-06-08_18-46-44_260595134347_rgbf000068-resize_0-target.png,1000,2.6625,6.0,3530,999,feet,jsons/v1_VE1000_randls_76.json,711375,1157296,42,Woman
43,550431,DepthScenes,duration_manipulation_targetAtFixation,jsons/v1_VE1000_randls_76.json,http://54.235.29.9/FacialAge/BNav_EC2/DepthDuration/v2_depth_duration_MTurk/v2_DepthDuration_HTML.html#8,8,1366,657,1366,768,8-22-2022,8-13-34,44,depth_duration_stimuli/002199_2014-06-28_18-33-56_260595134347_rgbf000074-resize_0/002199_2014-06-28_18-33-56_260595134347_rgbf000074-resize_0-target.png,1000,1.996,2.0,3707,1000,feet,jsons/v1_VE1000_randls_76.json,711375,1157296,42,Woman
44,550431,DepthScenes,duration_manipulation_targetAtFixation,jsons/v1_VE1000_randls_76.json,http://54.235.29.9/FacialAge/BNav_EC2/DepthDuration/v2_depth_duration_MTurk/v2_DepthDuration_HTML.html#8,8,1366,657,1366,768,8-22-2022,8-13-34,45,depth_duration_stimuli/000787_2014-06-08_22-33-53_260595134347_rgbf000175-resize_1/000787_2014-06-08_22-33-53_260595134347_rgbf000175-resize-original.jpg,1000,4.784,0.0,3883,999,feet,jsons/v1_VE1000_randls_76.json,711375,1157296,42,Woman
45,550431,DepthScenes,duration_manipulation_targetAtFixation,jsons/v1_VE1000_randls_76.json,http://54.235.29.9/FacialAge/BNav_EC2/DepthDuration/v2_depth_duration_MTurk/v2_DepthDuration_HTML.html#8,8,1366,657,1366,768,8-22-2022,8-13-34,46,depth_duration_stimuli/000642_2014-06-08_16-59-25_260595134347_rgbf000098-resize_2/000642_2014-06-08_16-59-25_260595134347_rgbf000098-resize_2-target.png,1000,2.8815,3.0,3778,999,feet,jsons/v1_VE1000_randls_76.json,711375,1157296,42,Woman
46,550431,DepthScenes,duration_manipulation_targetAtFixation,jsons/v1_VE1000_randls_76.json,http://54.235.29.9/FacialAge/BNav_EC2/DepthDuration/v2_depth_duration_MTurk/v2_DepthDuration_HTML.html#8,8,1366,657,1366,768,8-22-2022,8-13-34,47,depth_duration_stimuli/002425_2014-06-28_20-27-29_260595134347_rgbf000031-resize_8/002425_2014-06-28_20-27-29_260595134347_rgbf000031-resize_8-target.png,1000,3.8960000000000004,9.0,4194,999,feet,jsons/v1_VE1000_randls_76.json,711375,1157296,42,Woman
47,550431,DepthScenes,duration_manipulation_targetAtFixation,jsons/v1_VE1000_randls_76.json,http://54.235.29.9/FacialAge/BNav_EC2/DepthDuration/v2_depth_duration_MTurk/v2_DepthDuration_HTML.html#8,8,1366,657,1366,768,8-22-2022,8-13-34,48,depth_duration_stimuli/000682_2014-06-08_23-14-58_260595134347_rgbf000041-resize_5/000682_2014-06-08_23-14-58_260595134347_rgbf000041-resize_5-target.png,1000,2.7239999999999998,9.0,3843,1000,feet,jsons/v1_VE1000_randls_76.json,711375,1157296,42,Woman
48,550431,DepthScenes,duration_manipulation_targetAtFixation,jsons/v1_VE1000_randls_76.json,http://54.235.29.9/FacialAge/BNav_EC2/DepthDuration/v2_depth_duration_MTurk/v2_DepthDuration_HTML.html#8,8,1366,657,1366,768,8-22-2022,8-13-34,49,depth_duration_stimuli/001650_2014-06-20_12-09-00_260595134347_rgbf000087-resize_3/001650_2014-06-20_12-09-00_260595134347_rgbf000087-resize_3-target.png,1000,1.9505,6.0,3979,999,feet,jsons/v1_VE1000_randls_76.json,711375,1157296,42,Woman
49,550431,DepthScenes,duration_manipulation_targetAtFixation,jsons/v1_VE1000_randls_76.json,http://54.235.29.9/FacialAge/BNav_EC2/DepthDuration/v2_depth_duration_MTurk/v2_DepthDuration_HTML.html#8,8,1366,657,1366,768,8-22-2022,8-13-34,50,depth_duration_stimuli/002763_2014-06-22_19-13-10_094959634447_rgbf000075-resize_4/002763_2014-06-22_19-13-10_094959634447_rgbf000075-resize_4-target.png,1000,1.68375,5.0,4043,999,feet,jsons/v1_VE1000_randls_76.json,711375,1157296,42,Woman
50,550431,DepthScenes,duration_manipulation_targetAtFixation,jsons/v1_VE1000_randls_76.json,http://54.235.29.9/FacialAge/BNav_EC2/DepthDuration/v2_depth_duration_MTurk/v2_DepthDuration_HTML.html#8,8,1366,657,1366,768,8-22-2022,8-13-34,51,depth_duration_stimuli/002209_2014-06-28_18-36-10_260595134347_rgbf000051-resize_1/002209_2014-06-28_18-36-10_260595134347_rgbf000051-resize_1-target.png,1000,2.057,6.0,3803,999,feet,jsons/v1_VE1000_randls_76.json,711375,1157296,42,Woman
51,550431,DepthScenes,duration_manipulation_targetAtFixation,jsons/v1_VE1000_randls_76.json,http://54.235.29.9/FacialAge/BNav_EC2/DepthDuration/v2_depth_duration_MTurk/v2_DepthDuration_HTML.html#8,8,1366,657,1366,768,8-22-2022,8-13-34,52,depth_duration_stimuli/000470_2014-06-09_19-42-40_260595134347_rgbf000094-resize_1/000470_2014-06-09_19-42-40_260595134347_rgbf000094-resize_1-target.png,1000,1.831,4.0,3498,1000,feet,jsons/v1_VE1000_randls_76.json,711375,1157296,42,Woman
52,550431,DepthScenes,duration_manipulation_targetAtFixation,jsons/v1_VE1000_randls_76.json,http://54.235.29.9/FacialAge/BNav_EC2/DepthDuration/v2_depth_duration_MTurk/v2_DepthDuration_HTML.html#8,8,1366,657,1366,768,8-22-2022,8-13-34,53,depth_duration_stimuli/000109_2014-05-14_23-41-52_260595134347_rgbf000035-resize_9/000109_2014-05-14_23-41-52_260595134347_rgbf000035-resize_9-target.png,1000,1.3545,3.0,3637,1001,feet,jsons/v1_VE1000_randls_76.json,711375,1157296,42,Woman
53,550431,DepthScenes,duration_manipulation_targetAtFixation,jsons/v1_VE1000_randls_76.json,http://54.235.29.9/FacialAge/BNav_EC2/DepthDuration/v2_depth_duration_MTurk/v2_DepthDuration_HTML.html#8,8,1366,657,1366,768,8-22-2022,8-13-34,54,depth_duration_stimuli/002988_2014-06-15_12-24-20_094959634447_rgbf000150-resize_1/002988_2014-06-15_12-24-20_094959634447_rgbf000150-resize_1-target.png,1000,4.7669999999999995,25.0,4203,999,feet,jsons/v1_VE1000_randls_76.json,711375,1157296,42,Woman
54,550431,DepthScenes,duration_manipulation_targetAtFixation,jsons/v1_VE1000_randls_76.json,http://54.235.29.9/FacialAge/BNav_EC2/DepthDuration/v2_depth_duration_MTurk/v2_DepthDuration_HTML.html#8,8,1366,657,1366,768,8-22-2022,8-13-34,55,depth_duration_stimuli/001052_2014-06-08_18-24-54_260595134347_rgbf000130-resize_1/001052_2014-06-08_18-24-54_260595134347_rgbf000130-resize_1-target.png,1000,4.1045,25.0,3986,998,feet,jsons/v1_VE1000_randls_76.json,711375,1157296,42,Woman
55,550431,DepthScenes,duration_manipulation_targetAtFixation,jsons/v1_VE1000_randls_76.json,http://54.235.29.9/FacialAge/BNav_EC2/DepthDuration/v2_depth_duration_MTurk/v2_DepthDuration_HTML.html#8,8,1366,657,1366,768,8-22-2022,8-13-34,56,depth_duration_stimuli/000522_2014-06-08_13-35-06_260595134347_rgbf000244-resize_1/000522_2014-06-08_13-35-06_260595134347_rgbf000244-resize_1-target.png,1000,2.3715,4.0,4426,1000,feet,jsons/v1_VE1000_randls_76.json,711375,1157296,42,Woman
56,550431,DepthScenes,duration_manipulation_targetAtFixation,jsons/v1_VE1000_randls_76.json,http://54.235.29.9/FacialAge/BNav_EC2/DepthDuration/v2_depth_duration_MTurk/v2_DepthDuration_HTML.html#8,8,1366,657,1366,768,8-22-2022,8-13-34,57,depth_duration_stimuli/002949_2014-06-26_15-57-42_094959634447_rgbf000079-resize_1/002949_2014-06-26_15-57-42_094959634447_rgbf000079-resize_1-target.png,1000,1.8915,9.0,3746,998,feet,jsons/v1_VE1000_randls_76.json,711375,1157296,42,Woman
57,550431,DepthScenes,duration_manipulation_targetAtFixation,jsons/v1_VE1000_randls_76.json,http://54.235.29.9/FacialAge/BNav_EC2/DepthDuration/v2_depth_duration_MTurk/v2_DepthDuration_HTML.html#8,8,1366,657,1366,768,8-22-2022,8-13-34,58,depth_duration_stimuli/002509_2014-06-24_13-19-22_094959634447_rgbf000077-resize_0/002509_2014-06-24_13-19-22_094959634447_rgbf000077-resize_0-target.png,1000,1.3065,2.0,3804,1000,feet,jsons/v1_VE1000_randls_76.json,711375,1157296,42,Woman
58,550431,DepthScenes,duration_manipulation_targetAtFixation,jsons/v1_VE1000_randls_76.json,http://54.235.29.9/FacialAge/BNav_EC2/DepthDuration/v2_depth_duration_MTurk/v2_DepthDuration_HTML.html#8,8,1366,657,1366,768,8-22-2022,8-13-34,59,depth_duration_stimuli/003338_2014-05-20_11-01-23_094959634447_rgbf000051-resize_6/003338_2014-05-20_11-01-23_094959634447_rgbf000051-resize_6-target.png,1000,1.693,9.0,3594,999,feet,jsons/v1_VE1000_randls_76.json,711375,1157296,42,Woman
59,550431,DepthScenes,duration_manipulation_targetAtFixation,jsons/v1_VE1000_randls_76.json,http://54.235.29.9/FacialAge/BNav_EC2/DepthDuration/v2_depth_duration_MTurk/v2_DepthDuration_HTML.html#8,8,1366,657,1366,768,8-22-2022,8-13-34,60,depth_duration_stimuli/000436_2014-06-09_22-25-11_260595134347_rgbf000137-resize_1/000436_2014-06-09_22-25-11_260595134347_rgbf000137-resize_1-target.png,1000,4.0705,20.0,3482,998,feet,jsons/v1_VE1000_randls_76.json,711375,1157296,42,Woman
60,550431,DepthScenes,duration_manipulation_targetAtFixation,jsons/v1_VE1000_randls_76.json,http://54.235.29.9/FacialAge/BNav_EC2/DepthDuration/v2_depth_duration_MTurk/v2_DepthDuration_HTML.html#8,8,1366,657,1366,768,8-22-2022,8-13-34,61,depth_duration_stimuli/002444_2014-06-28_20-32-08_260595134347_rgbf000027-resize_0/002444_2014-06-28_20-32-08_260595134347_rgbf000027-resize_0-target.png,1000,4.388999999999999,30.0,3722,998,feet,jsons/v1_VE1000_randls_76.json,711375,1157296,42,Woman
61,550431,DepthScenes,duration_manipulation_targetAtFixation,jsons/v1_VE1000_randls_76.json,http://54.235.29.9/FacialAge/BNav_EC2/DepthDuration/v2_depth_duration_MTurk/v2_DepthDuration_HTML.html#8,8,1366,657,1366,768,8-22-2022,8-13-34,62,depth_duration_stimuli/003621_2014-05-23_18-06-08_094959634447_rgbf000101-resize_1/003621_2014-05-23_18-06-08_094959634447_rgbf000101-resize_1-target.png,1000,3.9835,35.0,3850,998,feet,jsons/v1_VE1000_randls_76.json,711375,1157296,42,Woman
62,550431,DepthScenes,duration_manipulation_targetAtFixation,jsons/v1_VE1000_randls_76.json,http://54.235.29.9/FacialAge/BNav_EC2/DepthDuration/v2_depth_duration_MTurk/v2_DepthDuration_HTML.html#8,8,1366,657,1366,768,8-22-2022,8-13-34,63,depth_duration_stimuli/001584_2014-06-20_11-07-43_260595134347_rgbf000002-resize_1/001584_2014-06-20_11-07-43_260595134347_rgbf000002-resize_1-target.png,1000,3.53,20.0,3882,999,feet,jsons/v1_VE1000_randls_76.json,711375,1157296,42,Woman
63,550431,DepthScenes,duration_manipulation_targetAtFixation,jsons/v1_VE1000_randls_76.json,http://54.235.29.9/FacialAge/BNav_EC2/DepthDuration/v2_depth_duration_MTurk/v2_DepthDuration_HTML.html#8,8,1366,657,1366,768,8-22-2022,8-13-34,64,depth_duration_stimuli/001055_2014-06-08_18-45-35_260595134347_rgbf000111-resize_4/001055_2014-06-08_18-45-35_260595134347_rgbf000111-resize_4-target.png,1000,2.4290000000000003,25.0,3795,1001,feet,jsons/v1_VE1000_randls_76.json,711375,1157296,42,Woman
64,550431,DepthScenes,duration_manipulation_targetAtFixation,jsons/v1_VE1000_randls_76.json,http://54.235.29.9/FacialAge/BNav_EC2/DepthDuration/v2_depth_duration_MTurk/v2_DepthDuration_HTML.html#8,8,1366,657,1366,768,8-22-2022,8-13-34,65,depth_duration_stimuli/000549_2014-06-08_22-10-24_260595134347_rgbf000247-resize_3/000549_2014-06-08_22-10-24_260595134347_rgbf000247-resize_3-target.png,1000,1.841,3.0,3971,1000,feet,jsons/v1_VE1000_randls_76.json,711375,1157296,42,Woman
65,550431,DepthScenes,duration_manipulation_targetAtFixation,jsons/v1_VE1000_randls_76.json,http://54.235.29.9/FacialAge/BNav_EC2/DepthDuration/v2_depth_duration_MTurk/v2_DepthDuration_HTML.html#8,8,1366,657,1366,768,8-22-2022,8-13-34,66,depth_duration_stimuli/001222_2014-06-17_16-24-06_260595134347_rgbf000073-resize_0/001222_2014-06-17_16-24-06_260595134347_rgbf000073-resize-original.jpg,1000,1.4385,0.0,4026,1000,feet,jsons/v1_VE1000_randls_76.json,711375,1157296,42,Woman
66,550431,DepthScenes,duration_manipulation_targetAtFixation,jsons/v1_VE1000_randls_76.json,http://54.235.29.9/FacialAge/BNav_EC2/DepthDuration/v2_depth_duration_MTurk/v2_DepthDuration_HTML.html#8,8,1366,657,1366,768,8-22-2022,8-13-34,67,depth_duration_stimuli/000810_2014-06-08_17-20-01_260595134347_rgbf000105-resize_0/000810_2014-06-08_17-20-01_260595134347_rgbf000105-resize_0-target.png,1000,1.4865,5.0,3698,999,feet,jsons/v1_VE1000_randls_76.json,711375,1157296,42,Woman
67,550431,DepthScenes,duration_manipulation_targetAtFixation,jsons/v1_VE1000_randls_76.json,http://54.235.29.9/FacialAge/BNav_EC2/DepthDuration/v2_depth_duration_MTurk/v2_DepthDuration_HTML.html#8,8,1366,657,1366,768,8-22-2022,8-13-34,68,depth_duration_stimuli/001214_2014-06-17_16-13-55_260595134347_rgbf000111-resize_0/001214_2014-06-17_16-13-55_260595134347_rgbf000111-resize_0-target.png,1000,2.6505,3.0,3714,1000,feet,jsons/v1_VE1000_randls_76.json,711375,1157296,42,Woman
68,550431,DepthScenes,duration_manipulation_targetAtFixation,jsons/v1_VE1000_randls_76.json,http://54.235.29.9/FacialAge/BNav_EC2/DepthDuration/v2_depth_duration_MTurk/v2_DepthDuration_HTML.html#8,8,1366,657,1366,768,8-22-2022,8-13-34,69,depth_duration_stimuli/002039_2014-06-24_20-22-38_260595134347_rgbf000084-resize_1/002039_2014-06-24_20-22-38_260595134347_rgbf000084-resize_1-target.png,1000,4.408,20.0,4387,999,feet,jsons/v1_VE1000_randls_76.json,711375,1157296,42,Woman
69,550431,DepthScenes,duration_manipulation_targetAtFixation,jsons/v1_VE1000_randls_76.json,http://54.235.29.9/FacialAge/BNav_EC2/DepthDuration/v2_depth_duration_MTurk/v2_DepthDuration_HTML.html#8,8,1366,657,1366,768,8-22-2022,8-13-34,70,depth_duration_stimuli/002103_2014-06-25_20-00-40_260595134347_rgbf000049-resize_0/002103_2014-06-25_20-00-40_260595134347_rgbf000049-resize_0-target.png,1000,4.105,15.0,4274,1000,feet,jsons/v1_VE1000_randls_76.json,711375,1157296,42,Woman
70,550431,DepthScenes,duration_manipulation_targetAtFixation,jsons/v1_VE1000_randls_76.json,http://54.235.29.9/FacialAge/BNav_EC2/DepthDuration/v2_depth_duration_MTurk/v2_DepthDuration_HTML.html#8,8,1366,657,1366,768,8-22-2022,8-13-34,71,depth_duration_stimuli/002375_2014-06-28_20-13-44_260595134347_rgbf000032-resize_1/002375_2014-06-28_20-13-44_260595134347_rgbf000032-resize_1-target.png,1000,4.0175,15.0,4331,1000,feet,jsons/v1_VE1000_randls_76.json,711375,1157296,42,Woman
71,550431,DepthScenes,duration_manipulation_targetAtFixation,jsons/v1_VE1000_randls_76.json,http://54.235.29.9/FacialAge/BNav_EC2/DepthDuration/v2_depth_duration_MTurk/v2_DepthDuration_HTML.html#8,8,1366,657,1366,768,8-22-2022,8-13-34,72,depth_duration_stimuli/002657_2014-06-13_15-29-54_094959634447_rgbf000150-resize_1/002657_2014-06-13_15-29-54_094959634447_rgbf000150-resize_1-target.png,1000,4.919,20.0,4123,1000,feet,jsons/v1_VE1000_randls_76.json,711375,1157296,42,Woman
72,550431,DepthScenes,duration_manipulation_targetAtFixation,jsons/v1_VE1000_randls_76.json,http://54.235.29.9/FacialAge/BNav_EC2/DepthDuration/v2_depth_duration_MTurk/v2_DepthDuration_HTML.html#8,8,1366,657,1366,768,8-22-2022,8-13-34,73,depth_duration_stimuli/002663_2014-06-13_15-50-26_094959634447_rgbf000075-resize_1/002663_2014-06-13_15-50-26_094959634447_rgbf000075-resize_1-target.png,1000,4.7495,25.0,3977,999,feet,jsons/v1_VE1000_randls_76.json,711375,1157296,42,Woman
73,550431,DepthScenes,duration_manipulation_targetAtFixation,jsons/v1_VE1000_randls_76.json,http://54.235.29.9/FacialAge/BNav_EC2/DepthDuration/v2_depth_duration_MTurk/v2_DepthDuration_HTML.html#8,8,1366,657,1366,768,8-22-2022,8-13-34,74,depth_duration_stimuli/000409_2014-06-04_19-23-33_260595134347_rgbf000067-resize_0/000409_2014-06-04_19-23-33_260595134347_rgbf000067-resize_0-target.png,1000,3.7335,10.0,3971,1000,feet,jsons/v1_VE1000_randls_76.json,711375,1157296,42,Woman
74,550431,DepthScenes,duration_manipulation_targetAtFixation,jsons/v1_VE1000_randls_76.json,http://54.235.29.9/FacialAge/BNav_EC2/DepthDuration/v2_depth_duration_MTurk/v2_DepthDuration_HTML.html#8,8,1366,657,1366,768,8-22-2022,8-13-34,75,depth_duration_stimuli/002153_2014-06-25_21-27-18_260595134347_rgbf000038-resize_5/002153_2014-06-25_21-27-18_260595134347_rgbf000038-resize_5-target.png,1000,2.505,5.0,4138,1000,feet,jsons/v1_VE1000_randls_76.json,711375,1157296,42,Woman
75,550431,DepthScenes,duration_manipulation_targetAtFixation,jsons/v1_VE1000_randls_76.json,http://54.235.29.9/FacialAge/BNav_EC2/DepthDuration/v2_depth_duration_MTurk/v2_DepthDuration_HTML.html#8,8,1366,657,1366,768,8-22-2022,8-13-34,76,depth_duration_stimuli/002660_2014-06-13_15-44-18_094959634447_rgbf001878-resize_2/002660_2014-06-13_15-44-18_094959634447_rgbf001878-resize_2-target.png,1000,3.576,10.0,4089,997,feet,jsons/v1_VE1000_randls_76.json,711375,1157296,42,Woman
76,550431,DepthScenes,duration_manipulation_targetAtFixation,jsons/v1_VE1000_randls_76.json,http://54.235.29.9/FacialAge/BNav_EC2/DepthDuration/v2_depth_duration_MTurk/v2_DepthDuration_HTML.html#8,8,1366,657,1366,768,8-22-2022,8-13-34,77,depth_duration_stimuli/001016_2014-06-09_16-16-10_260595134347_rgbf000112-resize_5/001016_2014-06-09_16-16-10_260595134347_rgbf000112-resize_5-target.png,1000,1.6565,20.0,4267,1000,feet,jsons/v1_VE1000_randls_76.json,711375,1157296,42,Woman
77,550431,DepthScenes,duration_manipulation_targetAtFixation,jsons/v1_VE1000_randls_76.json,http://54.235.29.9/FacialAge/BNav_EC2/DepthDuration/v2_depth_duration_MTurk/v2_DepthDuration_HTML.html#8,8,1366,657,1366,768,8-22-2022,8-13-34,78,depth_duration_stimuli/002340_2014-06-28_20-05-46_260595134347_rgbf000113-resize_0/002340_2014-06-28_20-05-46_260595134347_rgbf000113-resize_0-target.png,1000,2.4735,35.0,4010,999,feet,jsons/v1_VE1000_randls_76.json,711375,1157296,42,Woman
78,550431,DepthScenes,duration_manipulation_targetAtFixation,jsons/v1_VE1000_randls_76.json,http://54.235.29.9/FacialAge/BNav_EC2/DepthDuration/v2_depth_duration_MTurk/v2_DepthDuration_HTML.html#8,8,1366,657,1366,768,8-22-2022,8-13-34,79,depth_duration_stimuli/000009_2014-05-26_14-32-05_260595134347_rgbf000034-resize_3/000009_2014-05-26_14-32-05_260595134347_rgbf000034-resize_3-target.png,1000,3.8715,6.0,4187,1000,feet,jsons/v1_VE1000_randls_76.json,711375,1157296,42,Woman
79,550431,DepthScenes,duration_manipulation_targetAtFixation,jsons/v1_VE1000_randls_76.json,http://54.235.29.9/FacialAge/BNav_EC2/DepthDuration/v2_depth_duration_MTurk/v2_DepthDuration_HTML.html#8,8,1366,657,1366,768,8-22-2022,8-13-34,80,depth_duration_stimuli/001828_2014-06-26_21-40-03_260595134347_rgbf000024-resize_0/001828_2014-06-26_21-40-03_260595134347_rgbf000024-resize_0-target.png,1000,4.8260000000000005,17.0,4172,1002,feet,jsons/v1_VE1000_randls_76.json,711375,1157296,42,Woman
80,550431,DepthScenes,duration_manipulation_targetAtFixation,jsons/v1_VE1000_randls_76.json,http://54.235.29.9/FacialAge/BNav_EC2/DepthDuration/v2_depth_duration_MTurk/v2_DepthDuration_HTML.html#8,8,1366,657,1366,768,8-22-2022,8-13-34,81,depth_duration_stimuli/001570_2014-06-20_17-21-09_260595134347_rgbf000135-resize_4/001570_2014-06-20_17-21-09_260595134347_rgbf000135-resize_4-target.png,1000,4.467,20.0,4514,998,feet,jsons/v1_VE1000_randls_76.json,711375,1157296,42,Woman
81,550431,DepthScenes,duration_manipulation_targetAtFixation,jsons/v1_VE1000_randls_76.json,http://54.235.29.9/FacialAge/BNav_EC2/DepthDuration/v2_depth_duration_MTurk/v2_DepthDuration_HTML.html#8,8,1366,657,1366,768,8-22-2022,8-13-34,82,depth_duration_stimuli/001392_2014-06-19_16-07-59_260595134347_rgbf000046-resize_1/001392_2014-06-19_16-07-59_260595134347_rgbf000046-resize_1-target.png,1000,4.135,30.0,4482,998,feet,jsons/v1_VE1000_randls_76.json,711375,1157296,42,Woman
82,550431,DepthScenes,duration_manipulation_targetAtFixation,jsons/v1_VE1000_randls_76.json,http://54.235.29.9/FacialAge/BNav_EC2/DepthDuration/v2_depth_duration_MTurk/v2_DepthDuration_HTML.html#8,8,1366,657,1366,768,8-22-2022,8-13-34,83,depth_duration_stimuli/002118_2014-06-25_20-32-08_260595134347_rgbf000078-resize_1/002118_2014-06-25_20-32-08_260595134347_rgbf000078-resize_1-target.png,1000,2.6460000000000004,7.0,4169,999,feet,jsons/v1_VE1000_randls_76.json,711375,1157296,42,Woman
83,550431,DepthScenes,duration_manipulation_targetAtFixation,jsons/v1_VE1000_randls_76.json,http://54.235.29.9/FacialAge/BNav_EC2/DepthDuration/v2_depth_duration_MTurk/v2_DepthDuration_HTML.html#8,8,1366,657,1366,768,8-22-2022,8-13-34,84,depth_duration_stimuli/001516_2014-06-20_16-25-09_260595134347_rgbf000076-resize_2/001516_2014-06-20_16-25-09_260595134347_rgbf000076-resize_2-target.png,1000,1.7445,10.0,4275,998,feet,jsons/v1_VE1000_randls_76.json,711375,1157296,42,Woman
84,550431,DepthScenes,duration_manipulation_targetAtFixation,jsons/v1_VE1000_randls_76.json,http://54.235.29.9/FacialAge/BNav_EC2/DepthDuration/v2_depth_duration_MTurk/v2_DepthDuration_HTML.html#8,8,1366,657,1366,768,8-22-2022,8-13-34,85,depth_duration_stimuli/000692_2014-06-08_13-09-42_260595134347_rgbf000199-resize_2/000692_2014-06-08_13-09-42_260595134347_rgbf000199-resize_2-target.png,1000,3.661,15.0,4306,999,feet,jsons/v1_VE1000_randls_76.json,711375,1157296,42,Woman
85,550431,DepthScenes,duration_manipulation_targetAtFixation,jsons/v1_VE1000_randls_76.json,http://54.235.29.9/FacialAge/BNav_EC2/DepthDuration/v2_depth_duration_MTurk/v2_DepthDuration_HTML.html#8,8,1366,657,1366,768,8-22-2022,8-13-34,86,depth_duration_stimuli/001094_2014-06-15_17-36-00_260595134347_rgbf000205-resize_0/001094_2014-06-15_17-36-00_260595134347_rgbf000205-resize_0-target.png,1000,4.2175,20.0,4130,998,feet,jsons/v1_VE1000_randls_76.json,711375,1157296,42,Woman
86,550431,DepthScenes,duration_manipulation_targetAtFixation,jsons/v1_VE1000_randls_76.json,http://54.235.29.9/FacialAge/BNav_EC2/DepthDuration/v2_depth_duration_MTurk/v2_DepthDuration_HTML.html#8,8,1366,657,1366,768,8-22-2022,8-13-34,87,depth_duration_stimuli/001417_2014-06-19_16-25-36_260595134347_rgbf000115-resize_5/001417_2014-06-19_16-25-36_260595134347_rgbf000115-resize_5-target.png,1000,4.6255,30.0,4531,998,feet,jsons/v1_VE1000_randls_76.json,711375,1157296,42,Woman
87,550431,DepthScenes,duration_manipulation_targetAtFixation,jsons/v1_VE1000_randls_76.json,http://54.235.29.9/FacialAge/BNav_EC2/DepthDuration/v2_depth_duration_MTurk/v2_DepthDuration_HTML.html#8,8,1366,657,1366,768,8-22-2022,8-13-34,88,depth_duration_stimuli/003081_2014-06-15_15-19-16_094959634447_rgbf000150-resize_1/003081_2014-06-15_15-19-16_094959634447_rgbf000150-resize_1-target.png,1000,3.9125,30.0,4177,999,feet,jsons/v1_VE1000_randls_76.json,711375,1157296,42,Woman
88,550431,DepthScenes,duration_manipulation_targetAtFixation,jsons/v1_VE1000_randls_76.json,http://54.235.29.9/FacialAge/BNav_EC2/DepthDuration/v2_depth_duration_MTurk/v2_DepthDuration_HTML.html#8,8,1366,657,1366,768,8-22-2022,8-13-34,89,depth_duration_stimuli/000758_2014-06-08_22-05-08_260595134347_rgbf000085-resize_0/000758_2014-06-08_22-05-08_260595134347_rgbf000085-resize_0-target.png,1000,3.3810000000000002,25.0,5250,999,feet,jsons/v1_VE1000_randls_76.json,711375,1157296,42,Woman
89,550431,DepthScenes,duration_manipulation_targetAtFixation,jsons/v1_VE1000_randls_76.json,http://54.235.29.9/FacialAge/BNav_EC2/DepthDuration/v2_depth_duration_MTurk/v2_DepthDuration_HTML.html#8,8,1366,657,1366,768,8-22-2022,8-13-34,90,depth_duration_stimuli/000854_2014-06-09_19-43-13_260595134347_rgbf000066-resize_0/000854_2014-06-09_19-43-13_260595134347_rgbf000066-resize_0-target.png,1000,3.068,15.0,2916,998,feet,jsons/v1_VE1000_randls_76.json,711375,1157296,42,Woman
90,550431,DepthScenes,duration_manipulation_targetAtFixation,jsons/v1_VE1000_randls_76.json,http://54.235.29.9/FacialAge/BNav_EC2/DepthDuration/v2_depth_duration_MTurk/v2_DepthDuration_HTML.html#8,8,1366,657,1366,768,8-22-2022,8-13-34,91,depth_duration_stimuli/002964_2014-06-08_17-46-11_094959634447_rgbf000091-resize_4/002964_2014-06-08_17-46-11_094959634447_rgbf000091-resize_4-target.png,1000,1.6909999999999998,5.0,3530,998,feet,jsons/v1_VE1000_randls_76.json,711375,1157296,42,Woman
91,550431,DepthScenes,duration_manipulation_targetAtFixation,jsons/v1_VE1000_randls_76.json,http://54.235.29.9/FacialAge/BNav_EC2/DepthDuration/v2_depth_duration_MTurk/v2_DepthDuration_HTML.html#8,8,1366,657,1366,768,8-22-2022,8-13-34,92,depth_duration_stimuli/002136_2014-06-25_21-18-03_260595134347_rgbf000109-resize_3/002136_2014-06-25_21-18-03_260595134347_rgbf000109-resize_3-target.png,1000,1.9569999999999999,10.0,4492,999,feet,jsons/v1_VE1000_randls_76.json,711375,1157296,42,Woman
92,550431,DepthScenes,duration_manipulation_targetAtFixation,jsons/v1_VE1000_randls_76.json,http://54.235.29.9/FacialAge/BNav_EC2/DepthDuration/v2_depth_duration_MTurk/v2_DepthDuration_HTML.html#8,8,1366,657,1366,768,8-22-2022,8-13-34,93,depth_duration_stimuli/003534_2014-05-22_15-06-10_094959634447_rgbf000102-resize_4/003534_2014-05-22_15-06-10_094959634447_rgbf000102-resize_4-target.png,1000,1.426,3.0,4843,999,feet,jsons/v1_VE1000_randls_76.json,711375,1157296,42,Woman
93,550431,DepthScenes,duration_manipulation_targetAtFixation,jsons/v1_VE1000_randls_76.json,http://54.235.29.9/FacialAge/BNav_EC2/DepthDuration/v2_depth_duration_MTurk/v2_DepthDuration_HTML.html#8,8,1366,657,1366,768,8-22-2022,8-13-34,94,depth_duration_stimuli/002637_2014-06-24_14-51-13_094959634447_rgbf000066-resize_4/002637_2014-06-24_14-51-13_094959634447_rgbf000066-resize_4-target.png,1000,1.9955,15.0,3290,999,feet,jsons/v1_VE1000_randls_76.json,711375,1157296,42,Woman
94,550431,DepthScenes,duration_manipulation_targetAtFixation,jsons/v1_VE1000_randls_76.json,http://54.235.29.9/FacialAge/BNav_EC2/DepthDuration/v2_depth_duration_MTurk/v2_DepthDuration_HTML.html#8,8,1366,657,1366,768,8-22-2022,8-13-34,95,depth_duration_stimuli/001164_2014-06-17_15-35-46_260595134347_rgbf000085-resize_3/001164_2014-06-17_15-35-46_260595134347_rgbf000085-resize_3-target.png,1000,2.354,15.0,3126,998,feet,jsons/v1_VE1000_randls_76.json,711375,1157296,42,Woman
95,550431,DepthScenes,duration_manipulation_targetAtFixation,jsons/v1_VE1000_randls_76.json,http://54.235.29.9/FacialAge/BNav_EC2/DepthDuration/v2_depth_duration_MTurk/v2_DepthDuration_HTML.html#8,8,1366,657,1366,768,8-22-2022,8-13-34,96,depth_duration_stimuli/001136_2014-06-17_15-19-41_260595134347_rgbf000076-resize_3/001136_2014-06-17_15-19-41_260595134347_rgbf000076-resize_3-target.png,1000,1.8655,16.0,5151,1000,feet,jsons/v1_VE1000_randls_76.json,711375,1157296,42,Woman
96,550431,DepthScenes,duration_manipulation_targetAtFixation,jsons/v1_VE1000_randls_76.json,http://54.235.29.9/FacialAge/BNav_EC2/DepthDuration/v2_depth_duration_MTurk/v2_DepthDuration_HTML.html#8,8,1366,657,1366,768,8-22-2022,8-13-34,97,depth_duration_stimuli/002057_2014-06-24_21-00-13_260595134347_rgbf000120-resize_1/002057_2014-06-24_21-00-13_260595134347_rgbf000120-resize_1-target.png,1000,2.967,30.0,2923,999,feet,jsons/v1_VE1000_randls_76.json,711375,1157296,42,Woman
97,550431,DepthScenes,duration_manipulation_targetAtFixation,jsons/v1_VE1000_randls_76.json,http://54.235.29.9/FacialAge/BNav_EC2/DepthDuration/v2_depth_duration_MTurk/v2_DepthDuration_HTML.html#8,8,1366,657,1366,768,8-22-2022,8-13-34,98,depth_duration_stimuli/000709_2014-06-08_13-51-55_260595134347_rgbf000068-resize_3/000709_2014-06-08_13-51-55_260595134347_rgbf000068-resize_3-target.png,1000,1.8030000000000002,12.0,4570,999,feet,jsons/v1_VE1000_randls_76.json,711375,1157296,42,Woman
98,550431,DepthScenes,duration_manipulation_targetAtFixation,jsons/v1_VE1000_randls_76.json,http://54.235.29.9/FacialAge/BNav_EC2/DepthDuration/v2_depth_duration_MTurk/v2_DepthDuration_HTML.html#8,8,1366,657,1366,768,8-22-2022,8-13-34,99,depth_duration_stimuli/001540_2014-06-20_17-01-05_260595134347_rgbf000086-resize_2/001540_2014-06-20_17-01-05_260595134347_rgbf000086-resize-original.jpg,1000,1.459,0.0,3991,998,feet,jsons/v1_VE1000_randls_76.json,711375,1157296,42,Woman
99,550431,DepthScenes,duration_manipulation_targetAtFixation,jsons/v1_VE1000_randls_76.json,http://54.235.29.9/FacialAge/BNav_EC2/DepthDuration/v2_depth_duration_MTurk/v2_DepthDuration_HTML.html#8,8,1366,657,1366,768,8-22-2022,8-13-34,100,depth_duration_stimuli/001555_2014-06-20_17-12-10_260595134347_rgbf000065-resize_4/001555_2014-06-20_17-12-10_260595134347_rgbf000065-resize_4-target.png,1000,1.633,6.0,4353,999,feet,jsons/v1_VE1000_randls_76.json,711375,1157296,42,Woman
100,550431,DepthScenes,duration_manipulation_targetAtFixation,jsons/v1_VE1000_randls_76.json,http://54.235.29.9/FacialAge/BNav_EC2/DepthDuration/v2_depth_duration_MTurk/v2_DepthDuration_HTML.html#8,8,1366,657,1366,768,8-22-2022,8-13-34,101,depth_duration_stimuli/000103_2014-05-14_22-01-17_260595134347_rgbf000152-resize_5/000103_2014-05-14_22-01-17_260595134347_rgbf000152-resize_5-target.png,1000,1.993,20.0,3907,998,feet,jsons/v1_VE1000_randls_76.json,711375,1157296,42,Woman
101,550431,DepthScenes,duration_manipulation_targetAtFixation,jsons/v1_VE1000_randls_76.json,http://54.235.29.9/FacialAge/BNav_EC2/DepthDuration/v2_depth_duration_MTurk/v2_DepthDuration_HTML.html#8,8,1366,657,1366,768,8-22-2022,8-13-34,102,depth_duration_stimuli/003292_2014-05-14_21-53-49_094959634447_rgbf000100-resize_2/003292_2014-05-14_21-53-49_094959634447_rgbf000100-resize_2-target.png,1000,3.4815,11.0,2917,1000,feet,jsons/v1_VE1000_randls_76.json,711375,1157296,42,Woman
102,550431,DepthScenes,duration_manipulation_targetAtFixation,jsons/v1_VE1000_randls_76.json,http://54.235.29.9/FacialAge/BNav_EC2/DepthDuration/v2_depth_duration_MTurk/v2_DepthDuration_HTML.html#8,8,1366,657,1366,768,8-22-2022,8-13-34,103,depth_duration_stimuli/002639_2014-06-24_14-51-37_094959634447_rgbf000074-resize_4/002639_2014-06-24_14-51-37_094959634447_rgbf000074-resize_4-target.png,1000,4.0375,15.0,3242,998,feet,jsons/v1_VE1000_randls_76.json,711375,1157296,42,Woman
103,550431,DepthScenes,duration_manipulation_targetAtFixation,jsons/v1_VE1000_randls_76.json,http://54.235.29.9/FacialAge/BNav_EC2/DepthDuration/v2_depth_duration_MTurk/v2_DepthDuration_HTML.html#8,8,1366,657,1366,768,8-22-2022,8-13-34,104,depth_duration_stimuli/001059_2014-06-08_21-53-27_260595134347_rgbf000061-resize_4/001059_2014-06-08_21-53-27_260595134347_rgbf000061-resize_4-target.png,1000,2.4185,15.0,3291,999,feet,jsons/v1_VE1000_randls_76.json,711375,1157296,42,Woman
104,550431,DepthScenes,duration_manipulation_targetAtFixation,jsons/v1_VE1000_randls_76.json,http://54.235.29.9/FacialAge/BNav_EC2/DepthDuration/v2_depth_duration_MTurk/v2_DepthDuration_HTML.html#8,8,1366,657,1366,768,8-22-2022,8-13-34,105,depth_duration_stimuli/001032_2014-06-08_13-23-17_260595134347_rgbf000021-resize_3/001032_2014-06-08_13-23-17_260595134347_rgbf000021-resize_3-target.png,1000,3.2725,8.0,4339,1000,feet,jsons/v1_VE1000_randls_76.json,711375,1157296,42,Woman
105,550431,DepthScenes,duration_manipulation_targetAtFixation,jsons/v1_VE1000_randls_76.json,http://54.235.29.9/FacialAge/BNav_EC2/DepthDuration/v2_depth_duration_MTurk/v2_DepthDuration_HTML.html#8,8,1366,657,1366,768,8-22-2022,8-13-34,106,depth_duration_stimuli/000906_2014-06-08_13-35-43_260595134347_rgbf000155-resize_1/000906_2014-06-08_13-35-43_260595134347_rgbf000155-resize_1-target.png,1000,2.8489999999999998,9.0,3443,999,feet,jsons/v1_VE1000_randls_76.json,711375,1157296,42,Woman
106,550431,DepthScenes,duration_manipulation_targetAtFixation,jsons/v1_VE1000_randls_76.json,http://54.235.29.9/FacialAge/BNav_EC2/DepthDuration/v2_depth_duration_MTurk/v2_DepthDuration_HTML.html#8,8,1366,657,1366,768,8-22-2022,8-13-34,107,depth_duration_stimuli/002805_2014-06-22_19-54-03_094959634447_rgbf000079-resize_1/002805_2014-06-22_19-54-03_094959634447_rgbf000079-resize_1-target.png,1000,3.1439999999999997,20.0,3538,1000,feet,jsons/v1_VE1000_randls_76.json,711375,1157296,42,Woman
107,550431,DepthScenes,duration_manipulation_targetAtFixation,jsons/v1_VE1000_randls_76.json,http://54.235.29.9/FacialAge/BNav_EC2/DepthDuration/v2_depth_duration_MTurk/v2_DepthDuration_HTML.html#8,8,1366,657,1366,768,8-22-2022,8-13-34,108,depth_duration_stimuli/002213_2014-06-28_18-37-58_260595134347_rgbf000055-resize_1/002213_2014-06-28_18-37-58_260595134347_rgbf000055-resize_1-target.png,1000,3.62,18.0,4474,1001,feet,jsons/v1_VE1000_randls_76.json,711375,1157296,42,Woman
108,550431,DepthScenes,duration_manipulation_targetAtFixation,jsons/v1_VE1000_randls_76.json,http://54.235.29.9/FacialAge/BNav_EC2/DepthDuration/v2_depth_duration_MTurk/v2_DepthDuration_HTML.html#8,8,1366,657,1366,768,8-22-2022,8-13-34,109,depth_duration_stimuli/000691_2014-06-08_13-08-50_260595134347_rgbf000132-resize_3/000691_2014-06-08_13-08-50_260595134347_rgbf000132-resize_3-target.png,1000,4.1530000000000005,9.0,4394,1000,feet,jsons/v1_VE1000_randls_76.json,711375,1157296,42,Woman
109,550431,DepthScenes,duration_manipulation_targetAtFixation,jsons/v1_VE1000_randls_76.json,http://54.235.29.9/FacialAge/BNav_EC2/DepthDuration/v2_depth_duration_MTurk/v2_DepthDuration_HTML.html#8,8,1366,657,1366,768,8-22-2022,8-13-34,110,depth_duration_stimuli/001011_2014-06-08_23-18-54_260595134347_rgbf000044-resize_4/001011_2014-06-08_23-18-54_260595134347_rgbf000044-resize_4-target.png,1000,2.4730000000000003,15.0,3842,1001,feet,jsons/v1_VE1000_randls_76.json,711375,1157296,42,Woman
110,550431,DepthScenes,duration_manipulation_targetAtFixation,jsons/v1_VE1000_randls_76.json,http://54.235.29.9/FacialAge/BNav_EC2/DepthDuration/v2_depth_duration_MTurk/v2_DepthDuration_HTML.html#8,8,1366,657,1366,768,8-22-2022,8-13-34,111,depth_duration_stimuli/002875_2014-06-01_15-19-00_094959634447_rgbf000151-resize_1/002875_2014-06-01_15-19-00_094959634447_rgbf000151-resize_1-target.png,1000,1.9675,9.0,3065,998,feet,jsons/v1_VE1000_randls_76.json,711375,1157296,42,Woman
111,550431,DepthScenes,duration_manipulation_targetAtFixation,jsons/v1_VE1000_randls_76.json,http://54.235.29.9/FacialAge/BNav_EC2/DepthDuration/v2_depth_duration_MTurk/v2_DepthDuration_HTML.html#8,8,1366,657,1366,768,8-22-2022,8-13-34,112,depth_duration_stimuli/002630_2014-06-24_14-47-50_094959634447_rgbf000055-resize_1/002630_2014-06-24_14-47-50_094959634447_rgbf000055-resize_1-target.png,1000,3.0095,20.0,3337,998,feet,jsons/v1_VE1000_randls_76.json,711375,1157296,42,Woman
112,550431,DepthScenes,duration_manipulation_targetAtFixation,jsons/v1_VE1000_randls_76.json,http://54.235.29.9/FacialAge/BNav_EC2/DepthDuration/v2_depth_duration_MTurk/v2_DepthDuration_HTML.html#8,8,1366,657,1366,768,8-22-2022,8-13-34,113,depth_duration_stimuli/002758_2014-06-22_19-11-20_094959634447_rgbf000128-resize_1/002758_2014-06-22_19-11-20_094959634447_rgbf000128-resize_1-target.png,1000,2.555,7.0,3130,999,feet,jsons/v1_VE1000_randls_76.json,711375,1157296,42,Woman
113,550431,DepthScenes,duration_manipulation_targetAtFixation,jsons/v1_VE1000_randls_76.json,http://54.235.29.9/FacialAge/BNav_EC2/DepthDuration/v2_depth_duration_MTurk/v2_DepthDuration_HTML.html#8,8,1366,657,1366,768,8-22-2022,8-13-34,114,depth_duration_stimuli/001110_2014-06-15_17-25-28_260595134347_rgbf000150-resize_1/001110_2014-06-15_17-25-28_260595134347_rgbf000150-resize_1-target.png,1000,1.7115,9.0,5050,999,feet,jsons/v1_VE1000_randls_76.json,711375,1157296,42,Woman
114,550431,DepthScenes,duration_manipulation_targetAtFixation,jsons/v1_VE1000_randls_76.json,http://54.235.29.9/FacialAge/BNav_EC2/DepthDuration/v2_depth_duration_MTurk/v2_DepthDuration_HTML.html#8,8,1366,657,1366,768,8-22-2022,8-13-34,115,depth_duration_stimuli/000927_2014-06-09_16-32-30_260595134347_rgbf000123-resize_3/000927_2014-06-09_16-32-30_260595134347_rgbf000123-resize_3-target.png,1000,2.6785,25.0,4246,999,feet,jsons/v1_VE1000_randls_76.json,711375,1157296,42,Woman
115,550431,DepthScenes,duration_manipulation_targetAtFixation,jsons/v1_VE1000_randls_76.json,http://54.235.29.9/FacialAge/BNav_EC2/DepthDuration/v2_depth_duration_MTurk/v2_DepthDuration_HTML.html#8,8,1366,657,1366,768,8-22-2022,8-13-34,116,depth_duration_stimuli/001170_2014-06-17_15-43-44_260595134347_rgbf000096-resize_6/001170_2014-06-17_15-43-44_260595134347_rgbf000096-resize-original.jpg,1000,1.1909999999999998,0.0,3881,1000,feet,jsons/v1_VE1000_randls_76.json,711375,1157296,42,Woman
116,550431,DepthScenes,duration_manipulation_targetAtFixation,jsons/v1_VE1000_randls_76.json,http://54.235.29.9/FacialAge/BNav_EC2/DepthDuration/v2_depth_duration_MTurk/v2_DepthDuration_HTML.html#8,8,1366,657,1366,768,8-22-2022,8-13-34,117,depth_duration_stimuli/001806_2014-06-26_20-50-20_260595134347_rgbf000091-resize_1/001806_2014-06-26_20-50-20_260595134347_rgbf000091-resize_1-target.png,1000,2.7305,7.0,4090,999,feet,jsons/v1_VE1000_randls_76.json,711375,1157296,42,Woman
117,550431,DepthScenes,duration_manipulation_targetAtFixation,jsons/v1_VE1000_randls_76.json,http://54.235.29.9/FacialAge/BNav_EC2/DepthDuration/v2_depth_duration_MTurk/v2_DepthDuration_HTML.html#8,8,1366,657,1366,768,8-22-2022,8-13-34,118,depth_duration_stimuli/001617_2014-06-20_11-35-32_260595134347_rgbf000066-resize_1/001617_2014-06-20_11-35-32_260595134347_rgbf000066-resize_1-target.png,1000,3.7910000000000004,9.0,3213,999,feet,jsons/v1_VE1000_randls_76.json,711375,1157296,42,Woman
118,550431,DepthScenes,duration_manipulation_targetAtFixation,jsons/v1_VE1000_randls_76.json,http://54.235.29.9/FacialAge/BNav_EC2/DepthDuration/v2_depth_duration_MTurk/v2_DepthDuration_HTML.html#8,8,1366,657,1366,768,8-22-2022,8-13-34,119,depth_duration_stimuli/002445_2014-06-28_20-32-16_260595134347_rgbf000029-resize_4/002445_2014-06-28_20-32-16_260595134347_rgbf000029-resize_4-target.png,1000,2.5315,6.0,3083,1000,feet,jsons/v1_VE1000_randls_76.json,711375,1157296,42,Woman
119,550431,DepthScenes,duration_manipulation_targetAtFixation,jsons/v1_VE1000_randls_76.json,http://54.235.29.9/FacialAge/BNav_EC2/DepthDuration/v2_depth_duration_MTurk/v2_DepthDuration_HTML.html#8,8,1366,657,1366,768,8-22-2022,8-13-34,120,depth_duration_stimuli/000780_2014-06-08_22-28-29_260595134347_rgbf000126-resize_1/000780_2014-06-08_22-28-29_260595134347_rgbf000126-resize_1-target.png,1000,3.3825,15.0,2931,1001,feet,jsons/v1_VE1000_randls_76.json,711375,1157296,42,Woman
120,550431,DepthScenes,duration_manipulation_targetAtFixation,jsons/v1_VE1000_randls_76.json,http://54.235.29.9/FacialAge/BNav_EC2/DepthDuration/v2_depth_duration_MTurk/v2_DepthDuration_HTML.html#8,8,1366,657,1366,768,8-22-2022,8-13-34,121,depth_duration_stimuli/001808_2014-06-26_20-50-58_260595134347_rgbf000029-resize_1/001808_2014-06-26_20-50-58_260595134347_rgbf000029-resize_1-target.png,1000,4.249,20.0,3179,999,feet,jsons/v1_VE1000_randls_76.json,711375,1157296,42,Woman
121,550431,DepthScenes,duration_manipulation_targetAtFixation,jsons/v1_VE1000_randls_76.json,http://54.235.29.9/FacialAge/BNav_EC2/DepthDuration/v2_depth_duration_MTurk/v2_DepthDuration_HTML.html#8,8,1366,657,1366,768,8-22-2022,8-13-34,122,depth_duration_stimuli/001815_2014-06-26_20-52-55_260595134347_rgbf000020-resize_0/001815_2014-06-26_20-52-55_260595134347_rgbf000020-resize_0-target.png,1000,3.3865,25.0,3267,1000,feet,jsons/v1_VE1000_randls_76.json,711375,1157296,42,Woman
122,550431,DepthScenes,duration_manipulation_targetAtFixation,jsons/v1_VE1000_randls_76.json,http://54.235.29.9/FacialAge/BNav_EC2/DepthDuration/v2_depth_duration_MTurk/v2_DepthDuration_HTML.html#8,8,1366,657,1366,768,8-22-2022,8-13-34,123,depth_duration_stimuli/001810_2014-06-26_20-51-35_260595134347_rgbf000040-resize_3/001810_2014-06-26_20-51-35_260595134347_rgbf000040-resize_3-target.png,1000,2.2525,9.0,3067,1000,feet,jsons/v1_VE1000_randls_76.json,711375,1157296,42,Woman
123,550431,DepthScenes,duration_manipulation_targetAtFixation,jsons/v1_VE1000_randls_76.json,http://54.235.29.9/FacialAge/BNav_EC2/DepthDuration/v2_depth_duration_MTurk/v2_DepthDuration_HTML.html#8,8,1366,657,1366,768,8-22-2022,8-13-34,124,depth_duration_stimuli/003010_2014-06-15_12-54-35_094959634447_rgbf000112-resize_0/003010_2014-06-15_12-54-35_094959634447_rgbf000112-resize_0-target.png,1000,3.1185,30.0,3475,1000,feet,jsons/v1_VE1000_randls_76.json,711375,1157296,42,Woman
124,550431,DepthScenes,duration_manipulation_targetAtFixation,jsons/v1_VE1000_randls_76.json,http://54.235.29.9/FacialAge/BNav_EC2/DepthDuration/v2_depth_duration_MTurk/v2_DepthDuration_HTML.html#8,8,1366,657,1366,768,8-22-2022,8-13-34,125,depth_duration_stimuli/001175_2014-06-17_15-45-55_260595134347_rgbf000129-resize_4/001175_2014-06-17_15-45-55_260595134347_rgbf000129-resize_4-target.png,1000,4.255,20.0,3227,1000,feet,jsons/v1_VE1000_randls_76.json,711375,1157296,42,Woman
125,550431,DepthScenes,duration_manipulation_targetAtFixation,jsons/v1_VE1000_randls_76.json,http://54.235.29.9/FacialAge/BNav_EC2/DepthDuration/v2_depth_duration_MTurk/v2_DepthDuration_HTML.html#8,8,1366,657,1366,768,8-22-2022,8-13-34,126,depth_duration_stimuli/003490_2014-05-21_15-50-11_094959634447_rgbf000101-resize_3/003490_2014-05-21_15-50-11_094959634447_rgbf000101-resize_3-target.png,1000,3.6445,15.0,3547,999,feet,jsons/v1_VE1000_randls_76.json,711375,1157296,42,Woman
126,550431,DepthScenes,duration_manipulation_targetAtFixation,jsons/v1_VE1000_randls_76.json,http://54.235.29.9/FacialAge/BNav_EC2/DepthDuration/v2_depth_duration_MTurk/v2_DepthDuration_HTML.html#8,8,1366,657,1366,768,8-22-2022,8-13-34,127,depth_duration_stimuli/000493_2014-06-09_21-01-18_260595134347_rgbf000196-resize_3/000493_2014-06-09_21-01-18_260595134347_rgbf000196-resize_3-target.png,1000,3.44,16.0,3834,999,feet,jsons/v1_VE1000_randls_76.json,711375,1157296,42,Woman
127,550431,DepthScenes,duration_manipulation_targetAtFixation,jsons/v1_VE1000_randls_76.json,http://54.235.29.9/FacialAge/BNav_EC2/DepthDuration/v2_depth_duration_MTurk/v2_DepthDuration_HTML.html#8,8,1366,657,1366,768,8-22-2022,8-13-34,128,depth_duration_stimuli/000191_2014-05-12_17-07-38_260595134347_rgbf000199-resize_0/000191_2014-05-12_17-07-38_260595134347_rgbf000199-resize_0-target.png,1000,3.7995,25.0,3201,999,feet,jsons/v1_VE1000_randls_76.json,711375,1157296,42,Woman
128,550431,DepthScenes,duration_manipulation_targetAtFixation,jsons/v1_VE1000_randls_76.json,http://54.235.29.9/FacialAge/BNav_EC2/DepthDuration/v2_depth_duration_MTurk/v2_DepthDuration_HTML.html#8,8,1366,657,1366,768,8-22-2022,8-13-34,129,depth_duration_stimuli/002279_2014-06-28_18-55-32_260595134347_rgbf000040-resize_5/002279_2014-06-28_18-55-32_260595134347_rgbf000040-resize_5-target.png,1000,1.5043333333333,6.0,2826,998,feet,jsons/v1_VE1000_randls_76.json,711375,1157296,42,Woman
129,550431,DepthScenes,duration_manipulation_targetAtFixation,jsons/v1_VE1000_randls_76.json,http://54.235.29.9/FacialAge/BNav_EC2/DepthDuration/v2_depth_duration_MTurk/v2_DepthDuration_HTML.html#8,8,1366,657,1366,768,8-22-2022,8-13-34,130,depth_duration_stimuli/000635_2014-06-08_16-38-42_260595134347_rgbf000106-resize_1/000635_2014-06-08_16-38-42_260595134347_rgbf000106-resize_1-target.png,1000,2.074,56.0,2939,1000,feet,jsons/v1_VE1000_randls_76.json,711375,1157296,42,Woman
130,550431,DepthScenes,duration_manipulation_targetAtFixation,jsons/v1_VE1000_randls_76.json,http://54.235.29.9/FacialAge/BNav_EC2/DepthDuration/v2_depth_duration_MTurk/v2_DepthDuration_HTML.html#8,8,1366,657,1366,768,8-22-2022,8-13-34,131,depth_duration_stimuli/001092_2014-06-15_17-34-58_260595134347_rgbf000171-resize_3/001092_2014-06-15_17-34-58_260595134347_rgbf000171-resize_3-target.png,1000,2.6935,5.0,4563,996,feet,jsons/v1_VE1000_randls_76.json,711375,1157296,42,Woman
131,550431,DepthScenes,duration_manipulation_targetAtFixation,jsons/v1_VE1000_randls_76.json,http://54.235.29.9/FacialAge/BNav_EC2/DepthDuration/v2_depth_duration_MTurk/v2_DepthDuration_HTML.html#8,8,1366,657,1366,768,8-22-2022,8-13-34,132,depth_duration_stimuli/002545_2014-06-24_13-38-53_094959634447_rgbf000080-resize_4/002545_2014-06-24_13-38-53_094959634447_rgbf000080-resize_4-target.png,1000,1.9205,8.0,4197,1000,feet,jsons/v1_VE1000_randls_76.json,711375,1157296,42,Woman
132,550431,DepthScenes,duration_manipulation_targetAtFixation,jsons/v1_VE1000_randls_76.json,http://54.235.29.9/FacialAge/BNav_EC2/DepthDuration/v2_depth_duration_MTurk/v2_DepthDuration_HTML.html#8,8,1366,657,1366,768,8-22-2022,8-13-34,133,depth_duration_stimuli/000469_2014-06-09_19-42-10_260595134347_rgbf000081-resize_1/000469_2014-06-09_19-42-10_260595134347_rgbf000081-resize_1-target.png,1000,1.652,5.0,3242,999,feet,jsons/v1_VE1000_randls_76.json,711375,1157296,42,Woman
133,550431,DepthScenes,duration_manipulation_targetAtFixation,jsons/v1_VE1000_randls_76.json,http://54.235.29.9/FacialAge/BNav_EC2/DepthDuration/v2_depth_duration_MTurk/v2_DepthDuration_HTML.html#8,8,1366,657,1366,768,8-22-2022,8-13-34,134,depth_duration_stimuli/000483_2014-06-09_20-41-45_260595134347_rgbf000116-resize_4/000483_2014-06-09_20-41-45_260595134347_rgbf000116-resize_4-target.png,1000,1.337,3.0,3348,999,feet,jsons/v1_VE1000_randls_76.json,711375,1157296,42,Woman
134,550431,DepthScenes,duration_manipulation_targetAtFixation,jsons/v1_VE1000_randls_76.json,http://54.235.29.9/FacialAge/BNav_EC2/DepthDuration/v2_depth_duration_MTurk/v2_DepthDuration_HTML.html#8,8,1366,657,1366,768,8-22-2022,8-13-34,135,depth_duration_stimuli/002072_2014-06-24_21-48-06_260595134347_rgbf000115-resize_0/002072_2014-06-24_21-48-06_260595134347_rgbf000115-resize-original.jpg,1000,4.702,0.0,3298,1000,feet,jsons/v1_VE1000_randls_76.json,711375,1157296,42,Woman
135,550431,DepthScenes,duration_manipulation_targetAtFixation,jsons/v1_VE1000_randls_76.json,http://54.235.29.9/FacialAge/BNav_EC2/DepthDuration/v2_depth_duration_MTurk/v2_DepthDuration_HTML.html#8,8,1366,657,1366,768,8-22-2022,8-13-34,136,depth_duration_stimuli/001449_2014-06-19_17-01-27_260595134347_rgbf000116-resize_2/001449_2014-06-19_17-01-27_260595134347_rgbf000116-resize_2-target.png,1000,3.452,15.0,3421,999,feet,jsons/v1_VE1000_randls_76.json,711375,1157296,42,Woman
136,550431,DepthScenes,duration_manipulation_targetAtFixation,jsons/v1_VE1000_randls_76.json,http://54.235.29.9/FacialAge/BNav_EC2/DepthDuration/v2_depth_duration_MTurk/v2_DepthDuration_HTML.html#8,8,1366,657,1366,768,8-22-2022,8-13-34,137,depth_duration_stimuli/001450_2014-06-19_17-02-03_260595134347_rgbf000203-resize_4/001450_2014-06-19_17-02-03_260595134347_rgbf000203-resize_4-target.png,1000,4.0106666666667,20.0,4003,1001,feet,jsons/v1_VE1000_randls_76.json,711375,1157296,42,Woman
137,550431,DepthScenes,duration_manipulation_targetAtFixation,jsons/v1_VE1000_randls_76.json,http://54.235.29.9/FacialAge/BNav_EC2/DepthDuration/v2_depth_duration_MTurk/v2_DepthDuration_HTML.html#8,8,1366,657,1366,768,8-22-2022,8-13-34,138,depth_duration_stimuli/000736_2014-06-08_18-24-15_260595134347_rgbf000206-resize_3/000736_2014-06-08_18-24-15_260595134347_rgbf000206-resize_3-target.png,1000,3.515,16.0,3234,999,feet,jsons/v1_VE1000_randls_76.json,711375,1157296,42,Woman
138,550431,DepthScenes,duration_manipulation_targetAtFixation,jsons/v1_VE1000_randls_76.json,http://54.235.29.9/FacialAge/BNav_EC2/DepthDuration/v2_depth_duration_MTurk/v2_DepthDuration_HTML.html#8,8,1366,657,1366,768,8-22-2022,8-13-34,139,depth_duration_stimuli/000137_2014-05-20_17-04-49_260595134347_rgbf000120-resize_1/000137_2014-05-20_17-04-49_260595134347_rgbf000120-resize_1-target.png,1000,3.786,20.0,3354,1001,feet,jsons/v1_VE1000_randls_76.json,711375,1157296,42,Woman
139,550431,DepthScenes,duration_manipulation_targetAtFixation,jsons/v1_VE1000_randls_76.json,http://54.235.29.9/FacialAge/BNav_EC2/DepthDuration/v2_depth_duration_MTurk/v2_DepthDuration_HTML.html#8,8,1366,657,1366,768,8-22-2022,8-13-34,140,depth_duration_stimuli/000739_2014-06-08_18-45-58_260595134347_rgbf000068-resize_1/000739_2014-06-08_18-45-58_260595134347_rgbf000068-resize_1-target.png,1000,3.534,15.0,3042,999,feet,jsons/v1_VE1000_randls_76.json,711375,1157296,42,Woman
140,550431,DepthScenes,duration_manipulation_targetAtFixation,jsons/v1_VE1000_randls_76.json,http://54.235.29.9/FacialAge/BNav_EC2/DepthDuration/v2_depth_duration_MTurk/v2_DepthDuration_HTML.html#8,8,1366,657,1366,768,8-22-2022,8-13-34,141,depth_duration_stimuli/000734_2014-06-08_17-39-11_260595134347_rgbf000128-resize_2/000734_2014-06-08_17-39-11_260595134347_rgbf000128-resize_2-target.png,1000,4.098,9.0,3298,1000,feet,jsons/v1_VE1000_randls_76.json,711375,1157296,42,Woman
141,550431,DepthScenes,duration_manipulation_targetAtFixation,jsons/v1_VE1000_randls_76.json,http://54.235.29.9/FacialAge/BNav_EC2/DepthDuration/v2_depth_duration_MTurk/v2_DepthDuration_HTML.html#8,8,1366,657,1366,768,8-22-2022,8-13-34,142,depth_duration_stimuli/001244_2014-06-17_16-47-45_260595134347_rgbf000030-resize_4/001244_2014-06-17_16-47-45_260595134347_rgbf000030-resize_4-target.png,1000,2.0425,7.0,3017,999,feet,jsons/v1_VE1000_randls_76.json,711375,1157296,42,Woman
142,550431,DepthScenes,duration_manipulation_targetAtFixation,jsons/v1_VE1000_randls_76.json,http://54.235.29.9/FacialAge/BNav_EC2/DepthDuration/v2_depth_duration_MTurk/v2_DepthDuration_HTML.html#8,8,1366,657,1366,768,8-22-2022,8-13-34,143,depth_duration_stimuli/003495_2014-05-21_16-01-51_094959634447_rgbf000100-resize_3/003495_2014-05-21_16-01-51_094959634447_rgbf000100-resize_3-target.png,1000,1.6255,54.0,2803,999,feet,jsons/v1_VE1000_randls_76.json,711375,1157296,42,Woman
143,550431,DepthScenes,duration_manipulation_targetAtFixation,jsons/v1_VE1000_randls_76.json,http://54.235.29.9/FacialAge/BNav_EC2/DepthDuration/v2_depth_duration_MTurk/v2_DepthDuration_HTML.html#8,8,1366,657,1366,768,8-22-2022,8-13-34,144,depth_duration_stimuli/001150_2014-06-17_15-27-34_260595134347_rgbf000108-resize_2/001150_2014-06-17_15-27-34_260595134347_rgbf000108-resize_2-target.png,1000,4.0325,9.0,3553,998,feet,jsons/v1_VE1000_randls_76.json,711375,1157296,42,Woman
144,550431,DepthScenes,duration_manipulation_targetAtFixation,jsons/v1_VE1000_randls_76.json,http://54.235.29.9/FacialAge/BNav_EC2/DepthDuration/v2_depth_duration_MTurk/v2_DepthDuration_HTML.html#8,8,1366,657,1366,768,8-22-2022,8-13-34,145,depth_duration_stimuli/000665_2014-06-09_20-42-35_260595134347_rgbf000110-resize_1/000665_2014-06-09_20-42-35_260595134347_rgbf000110-resize_1-target.png,1000,3.057,15.0,3211,1001,feet,jsons/v1_VE1000_randls_76.json,711375,1157296,42,Woman
145,550431,DepthScenes,duration_manipulation_targetAtFixation,jsons/v1_VE1000_randls_76.json,http://54.235.29.9/FacialAge/BNav_EC2/DepthDuration/v2_depth_duration_MTurk/v2_DepthDuration_HTML.html#8,8,1366,657,1366,768,8-22-2022,8-13-34,146,depth_duration_stimuli/001498_2014-06-19_17-45-14_260595134347_rgbf000129-resize_4/001498_2014-06-19_17-45-14_260595134347_rgbf000129-resize-original.jpg,1000,1.4075,0.0,3154,1001,feet,jsons/v1_VE1000_randls_76.json,711375,1157296,42,Woman
146,550431,DepthScenes,duration_manipulation_targetAtFixation,jsons/v1_VE1000_randls_76.json,http://54.235.29.9/FacialAge/BNav_EC2/DepthDuration/v2_depth_duration_MTurk/v2_DepthDuration_HTML.html#8,8,1366,657,1366,768,8-22-2022,8-13-34,147,depth_duration_stimuli/001133_2014-06-17_14-49-16_260595134347_rgbf000100-resize_0/001133_2014-06-17_14-49-16_260595134347_rgbf000100-resize_0-target.png,1000,4.2115,9.0,3778,1000,feet,jsons/v1_VE1000_randls_76.json,711375,1157296,42,Woman
147,550431,DepthScenes,duration_manipulation_targetAtFixation,jsons/v1_VE1000_randls_76.json,http://54.235.29.9/FacialAge/BNav_EC2/DepthDuration/v2_depth_duration_MTurk/v2_DepthDuration_HTML.html#8,8,1366,657,1366,768,8-22-2022,8-13-34,148,depth_duration_stimuli/001132_2014-06-17_14-48-54_260595134347_rgbf000100-resize_2/001132_2014-06-17_14-48-54_260595134347_rgbf000100-resize_2-target.png,1000,3.753,20.0,3002,1001,feet,jsons/v1_VE1000_randls_76.json,711375,1157296,42,Woman
148,550431,DepthScenes,duration_manipulation_targetAtFixation,jsons/v1_VE1000_randls_76.json,http://54.235.29.9/FacialAge/BNav_EC2/DepthDuration/v2_depth_duration_MTurk/v2_DepthDuration_HTML.html#8,8,1366,657,1366,768,8-22-2022,8-13-34,149,depth_duration_stimuli/000414_2014-06-04_19-49-13_260595134347_rgbf000044-resize_0/000414_2014-06-04_19-49-13_260595134347_rgbf000044-resize_0-target.png,1000,4.329,30.0,2932,1000,feet,jsons/v1_VE1000_randls_76.json,711375,1157296,42,Woman
149,550431,DepthScenes,duration_manipulation_targetAtFixation,jsons/v1_VE1000_randls_76.json,http://54.235.29.9/FacialAge/BNav_EC2/DepthDuration/v2_depth_duration_MTurk/v2_DepthDuration_HTML.html#8,8,1366,657,1366,768,8-22-2022,8-13-34,150,depth_duration_stimuli/003129_2014-05-12_10-48-10_094959634447_rgbf000100-resize_0/003129_2014-05-12_10-48-10_094959634447_rgbf000100-resize_0-target.png,1000,4.9305,25.0,3491,1000,feet,jsons/v1_VE1000_randls_76.json,711375,1157296,42,Woman
150,550431,DepthScenes,duration_manipulation_targetAtFixation,jsons/v1_VE1000_randls_76.json,http://54.235.29.9/FacialAge/BNav_EC2/DepthDuration/v2_depth_duration_MTurk/v2_DepthDuration_HTML.html#8,8,1366,657,1366,768,8-22-2022,8-13-34,151,depth_duration_stimuli/000788_2014-06-08_22-34-36_260595134347_rgbf000131-resize_1/000788_2014-06-08_22-34-36_260595134347_rgbf000131-resize_1-target.png,1000,3.359,30.0,3452,1000,feet,jsons/v1_VE1000_randls_76.json,711375,1157296,42,Woman
151,550431,DepthScenes,duration_manipulation_targetAtFixation,jsons/v1_VE1000_randls_76.json,http://54.235.29.9/FacialAge/BNav_EC2/DepthDuration/v2_depth_duration_MTurk/v2_DepthDuration_HTML.html#8,8,1366,657,1366,768,8-22-2022,8-13-34,152,depth_duration_stimuli/001235_2014-06-17_16-37-36_260595134347_rgbf000084-resize_4/001235_2014-06-17_16-37-36_260595134347_rgbf000084-resize_4-target.png,1000,3.6605,10.0,3052,1001,feet,jsons/v1_VE1000_randls_76.json,711375,1157296,42,Woman
152,550431,DepthScenes,duration_manipulation_targetAtFixation,jsons/v1_VE1000_randls_76.json,http://54.235.29.9/FacialAge/BNav_EC2/DepthDuration/v2_depth_duration_MTurk/v2_DepthDuration_HTML.html#8,8,1366,657,1366,768,8-22-2022,8-13-34,153,depth_duration_stimuli/003492_2014-05-21_15-50-55_094959634447_rgbf000828-resize_1/003492_2014-05-21_15-50-55_094959634447_rgbf000828-resize_1-target.png,1000,4.06875,30.0,3354,999,feet,jsons/v1_VE1000_randls_76.json,711375,1157296,42,Woman
153,550431,DepthScenes,duration_manipulation_targetAtFixation,jsons/v1_VE1000_randls_76.json,http://54.235.29.9/FacialAge/BNav_EC2/DepthDuration/v2_depth_duration_MTurk/v2_DepthDuration_HTML.html#8,8,1366,657,1366,768,8-22-2022,8-13-34,154,depth_duration_stimuli/002568_2014-06-24_13-59-21_094959634447_rgbf000062-resize_4/002568_2014-06-24_13-59-21_094959634447_rgbf000062-resize_4-target.png,1000,3.015,15.0,3042,1000,feet,jsons/v1_VE1000_randls_76.json,711375,1157296,42,Woman
154,550431,DepthScenes,duration_manipulation_targetAtFixation,jsons/v1_VE1000_randls_76.json,http://54.235.29.9/FacialAge/BNav_EC2/DepthDuration/v2_depth_duration_MTurk/v2_DepthDuration_HTML.html#8,8,1366,657,1366,768,8-22-2022,8-13-34,155,depth_duration_stimuli/002748_2014-06-22_19-07-22_094959634447_rgbf000078-resize_1/002748_2014-06-22_19-07-22_094959634447_rgbf000078-resize_1-target.png,1000,4.6705,35.0,3162,1000,feet,jsons/v1_VE1000_randls_76.json,711375,1157296,42,Woman
155,550431,DepthScenes,duration_manipulation_targetAtFixation,jsons/v1_VE1000_randls_76.json,http://54.235.29.9/FacialAge/BNav_EC2/DepthDuration/v2_depth_duration_MTurk/v2_DepthDuration_HTML.html#8,8,1366,657,1366,768,8-22-2022,8-13-34,156,depth_duration_stimuli/002995_2014-06-15_12-31-26_094959634447_rgbf000150-resize_1/002995_2014-06-15_12-31-26_094959634447_rgbf000150-resize_1-target.png,1000,3.8360000000000003,15.0,3010,999,feet,jsons/v1_VE1000_randls_76.json,711375,1157296,42,Woman
156,550431,DepthScenes,duration_manipulation_targetAtFixation,jsons/v1_VE1000_randls_76.json,http://54.235.29.9/FacialAge/BNav_EC2/DepthDuration/v2_depth_duration_MTurk/v2_DepthDuration_HTML.html#8,8,1366,657,1366,768,8-22-2022,8-13-34,157,depth_duration_stimuli/002788_2014-06-22_19-36-03_094959634447_rgbf000088-resize_2/002788_2014-06-22_19-36-03_094959634447_rgbf000088-resize_2-target.png,1000,1.6465,20.0,3571,1000,feet,jsons/v1_VE1000_randls_76.json,711375,1157296,42,Woman
157,550431,DepthScenes,duration_manipulation_targetAtFixation,jsons/v1_VE1000_randls_76.json,http://54.235.29.9/FacialAge/BNav_EC2/DepthDuration/v2_depth_duration_MTurk/v2_DepthDuration_HTML.html#8,8,1366,657,1366,768,8-22-2022,8-13-34,158,depth_duration_stimuli/000749_2014-06-08_21-55-06_260595134347_rgbf000070-resize_2/000749_2014-06-08_21-55-06_260595134347_rgbf000070-resize_2-target.png,1000,2.331,15.0,5051,1000,feet,jsons/v1_VE1000_randls_76.json,711375,1157296,42,Woman
158,550431,DepthScenes,duration_manipulation_targetAtFixation,jsons/v1_VE1000_randls_76.json,http://54.235.29.9/FacialAge/BNav_EC2/DepthDuration/v2_depth_duration_MTurk/v2_DepthDuration_HTML.html#8,8,1366,657,1366,768,8-22-2022,8-13-34,159,depth_duration_stimuli/000506_2014-06-08_23-21-00_260595134347_rgbf000070-resize_7/000506_2014-06-08_23-21-00_260595134347_rgbf000070-resize_7-target.png,1000,4.0585,16.0,3610,998,feet,jsons/v1_VE1000_randls_76.json,711375,1157296,42,Woman
159,550431,DepthScenes,duration_manipulation_targetAtFixation,jsons/v1_VE1000_randls_76.json,http://54.235.29.9/FacialAge/BNav_EC2/DepthDuration/v2_depth_duration_MTurk/v2_DepthDuration_HTML.html#8,8,1366,657,1366,768,8-22-2022,8-13-34,160,depth_duration_stimuli/003079_2014-06-15_15-18-20_094959634447_rgbf000152-resize_8/003079_2014-06-15_15-18-20_094959634447_rgbf000152-resize_8-target.png,1000,2.8775,15.0,3946,999,feet,jsons/v1_VE1000_randls_76.json,711375,1157296,42,Woman
160,550431,DepthScenes,duration_manipulation_targetAtFixation,jsons/v1_VE1000_randls_76.json,http://54.235.29.9/FacialAge/BNav_EC2/DepthDuration/v2_depth_duration_MTurk/v2_DepthDuration_HTML.html#8,8,1366,657,1366,768,8-22-2022,8-13-34,161,depth_duration_stimuli/002570_2014-06-24_13-59-54_094959634447_rgbf000059-resize_0/002570_2014-06-24_13-59-54_094959634447_rgbf000059-resize_0-target.png,1000,4.037,15.0,2971,998,feet,jsons/v1_VE1000_randls_76.json,711375,1157296,42,Woman
161,550431,DepthScenes,duration_manipulation_targetAtFixation,jsons/v1_VE1000_randls_76.json,http://54.235.29.9/FacialAge/BNav_EC2/DepthDuration/v2_depth_duration_MTurk/v2_DepthDuration_HTML.html#8,8,1366,657,1366,768,8-22-2022,8-13-34,162,depth_duration_stimuli/002467_2014-06-28_20-38-07_260595134347_rgbf000026-resize_2/002467_2014-06-28_20-38-07_260595134347_rgbf000026-resize_2-target.png,1000,4.742,18.0,2985,999,feet,jsons/v1_VE1000_randls_76.json,711375,1157296,42,Woman
162,550431,DepthScenes,duration_manipulation_targetAtFixation,jsons/v1_VE1000_randls_76.json,http://54.235.29.9/FacialAge/BNav_EC2/DepthDuration/v2_depth_duration_MTurk/v2_DepthDuration_HTML.html#8,8,1366,657,1366,768,8-22-2022,8-13-34,163,depth_duration_stimuli/002784_2014-06-22_19-26-30_094959634447_rgbf000083-resize_3/002784_2014-06-22_19-26-30_094959634447_rgbf000083-resize_3-target.png,1000,1.8046666666667,5.0,2706,999,feet,jsons/v1_VE1000_randls_76.json,711375,1157296,42,Woman
163,550431,DepthScenes,duration_manipulation_targetAtFixation,jsons/v1_VE1000_randls_76.json,http://54.235.29.9/FacialAge/BNav_EC2/DepthDuration/v2_depth_duration_MTurk/v2_DepthDuration_HTML.html#8,8,1366,657,1366,768,8-22-2022,8-13-34,164,depth_duration_stimuli/001100_2014-06-15_17-46-26_260595134347_rgbf000225-resize_2/001100_2014-06-15_17-46-26_260595134347_rgbf000225-resize_2-target.png,1000,2.24,3.0,5233,998,feet,jsons/v1_VE1000_randls_76.json,711375,1157296,42,Woman
