,subjID,experimentName,versionName,sequenceName,url,selected_row,windowWidth,windowHeight,screenWidth,screenHeight,startDate,startTime,trial,stimulus,duration,actual_depth,depth_estimate,trial_RT,log_sceneDuration,unitSelection,seq_filepath,experimentTime,totalTime,age,gender
0,551274,DepthScenes,duration_manipulation_targetAtFixation,jsons/VE125_randls_24_rotated.json,http://54.235.29.9/FacialAge/BNav_EC2/DepthDuration/v2_depth_duration_MTurk/v2_DepthDuration_HTML.html#208,208,1707,841,1707,960,8-29-2022,12-32-22,1,depth_duration_stimuli/000457_2014-06-08_16-52-43_260595134347_rgbf000199-resize_1/000457_2014-06-08_16-52-43_260595134347_rgbf000199-resize_1-target.png,125,3.6489999999999996,7,2202,123,feet,jsons/VE125_randls_24_rotated.json,432380,664920,34,Man
1,551274,DepthScenes,duration_manipulation_targetAtFixation,jsons/VE125_randls_24_rotated.json,http://54.235.29.9/FacialAge/BNav_EC2/DepthDuration/v2_depth_duration_MTurk/v2_DepthDuration_HTML.html#208,208,1707,841,1707,960,8-29-2022,12-32-22,2,depth_duration_stimuli/000929_2014-06-09_16-33-19_260595134347_rgbf000139-resize_0/000929_2014-06-09_16-33-19_260595134347_rgbf000139-resize_0-target.png,125,2.8680000000000003,6,2084,125,feet,jsons/VE125_randls_24_rotated.json,432380,664920,34,Man
2,551274,DepthScenes,duration_manipulation_targetAtFixation,jsons/VE125_randls_24_rotated.json,http://54.235.29.9/FacialAge/BNav_EC2/DepthDuration/v2_depth_duration_MTurk/v2_DepthDuration_HTML.html#208,208,1707,841,1707,960,8-29-2022,12-32-22,3,depth_duration_stimuli/003587_2014-05-23_16-48-02_094959634447_rgbf002384-resize_2/003587_2014-05-23_16-48-02_094959634447_rgbf002384-resize_2-target.png,125,1.357,5,2526,126,feet,jsons/VE125_randls_24_rotated.json,432380,664920,34,Man
3,551274,DepthScenes,duration_manipulation_targetAtFixation,jsons/VE125_randls_24_rotated.json,http://54.235.29.9/FacialAge/BNav_EC2/DepthDuration/v2_depth_duration_MTurk/v2_DepthDuration_HTML.html#208,208,1707,841,1707,960,8-29-2022,12-32-22,4,depth_duration_stimuli/001167_2014-06-17_15-38-07_260595134347_rgbf000108-resize_0/001167_2014-06-17_15-38-07_260595134347_rgbf000108-resize_0-target.png,125,1.8505,4,2131,126,feet,jsons/VE125_randls_24_rotated.json,432380,664920,34,Man
4,551274,DepthScenes,duration_manipulation_targetAtFixation,jsons/VE125_randls_24_rotated.json,http://54.235.29.9/FacialAge/BNav_EC2/DepthDuration/v2_depth_duration_MTurk/v2_DepthDuration_HTML.html#208,208,1707,841,1707,960,8-29-2022,12-32-22,5,depth_duration_stimuli/000137_2014-05-20_17-04-49_260595134347_rgbf000120-resize_1/000137_2014-05-20_17-04-49_260595134347_rgbf000120-resize_1-target.png,125,3.786,8,1829,124,feet,jsons/VE125_randls_24_rotated.json,432380,664920,34,Man
5,551274,DepthScenes,duration_manipulation_targetAtFixation,jsons/VE125_randls_24_rotated.json,http://54.235.29.9/FacialAge/BNav_EC2/DepthDuration/v2_depth_duration_MTurk/v2_DepthDuration_HTML.html#208,208,1707,841,1707,960,8-29-2022,12-32-22,6,depth_duration_stimuli/000736_2014-06-08_18-24-15_260595134347_rgbf000206-resize_3/000736_2014-06-08_18-24-15_260595134347_rgbf000206-resize_3-target.png,125,3.515,7,1948,121,feet,jsons/VE125_randls_24_rotated.json,432380,664920,34,Man
6,551274,DepthScenes,duration_manipulation_targetAtFixation,jsons/VE125_randls_24_rotated.json,http://54.235.29.9/FacialAge/BNav_EC2/DepthDuration/v2_depth_duration_MTurk/v2_DepthDuration_HTML.html#208,208,1707,841,1707,960,8-29-2022,12-32-22,7,depth_duration_stimuli/000927_2014-06-09_16-32-30_260595134347_rgbf000123-resize_3/000927_2014-06-09_16-32-30_260595134347_rgbf000123-resize_3-target.png,125,2.6785,9,2370,134,feet,jsons/VE125_randls_24_rotated.json,432380,664920,34,Man
7,551274,DepthScenes,duration_manipulation_targetAtFixation,jsons/VE125_randls_24_rotated.json,http://54.235.29.9/FacialAge/BNav_EC2/DepthDuration/v2_depth_duration_MTurk/v2_DepthDuration_HTML.html#208,208,1707,841,1707,960,8-29-2022,12-32-22,8,depth_duration_stimuli/001110_2014-06-15_17-25-28_260595134347_rgbf000150-resize_1/001110_2014-06-15_17-25-28_260595134347_rgbf000150-resize_1-target.png,125,1.7115,4,2679,127,feet,jsons/VE125_randls_24_rotated.json,432380,664920,34,Man
8,551274,DepthScenes,duration_manipulation_targetAtFixation,jsons/VE125_randls_24_rotated.json,http://54.235.29.9/FacialAge/BNav_EC2/DepthDuration/v2_depth_duration_MTurk/v2_DepthDuration_HTML.html#208,208,1707,841,1707,960,8-29-2022,12-32-22,9,depth_duration_stimuli/002657_2014-06-13_15-29-54_094959634447_rgbf000150-resize_1/002657_2014-06-13_15-29-54_094959634447_rgbf000150-resize_1-target.png,125,4.919,6,2137,121,feet,jsons/VE125_randls_24_rotated.json,432380,664920,34,Man
9,551274,DepthScenes,duration_manipulation_targetAtFixation,jsons/VE125_randls_24_rotated.json,http://54.235.29.9/FacialAge/BNav_EC2/DepthDuration/v2_depth_duration_MTurk/v2_DepthDuration_HTML.html#208,208,1707,841,1707,960,8-29-2022,12-32-22,10,depth_duration_stimuli/002375_2014-06-28_20-13-44_260595134347_rgbf000032-resize_1/002375_2014-06-28_20-13-44_260595134347_rgbf000032-resize_1-target.png,125,4.0175,6,2193,136,feet,jsons/VE125_randls_24_rotated.json,432380,664920,34,Man
10,551274,DepthScenes,duration_manipulation_targetAtFixation,jsons/VE125_randls_24_rotated.json,http://54.235.29.9/FacialAge/BNav_EC2/DepthDuration/v2_depth_duration_MTurk/v2_DepthDuration_HTML.html#208,208,1707,841,1707,960,8-29-2022,12-32-22,11,depth_duration_stimuli/000409_2014-06-04_19-23-33_260595134347_rgbf000067-resize_0/000409_2014-06-04_19-23-33_260595134347_rgbf000067-resize_0-target.png,125,3.7335,7,2035,126,feet,jsons/VE125_randls_24_rotated.json,432380,664920,34,Man
11,551274,DepthScenes,duration_manipulation_targetAtFixation,jsons/VE125_randls_24_rotated.json,http://54.235.29.9/FacialAge/BNav_EC2/DepthDuration/v2_depth_duration_MTurk/v2_DepthDuration_HTML.html#208,208,1707,841,1707,960,8-29-2022,12-32-22,12,depth_duration_stimuli/002663_2014-06-13_15-50-26_094959634447_rgbf000075-resize_1/002663_2014-06-13_15-50-26_094959634447_rgbf000075-resize_1-target.png,125,4.7495,8,2099,125,feet,jsons/VE125_randls_24_rotated.json,432380,664920,34,Man
12,551274,DepthScenes,duration_manipulation_targetAtFixation,jsons/VE125_randls_24_rotated.json,http://54.235.29.9/FacialAge/BNav_EC2/DepthDuration/v2_depth_duration_MTurk/v2_DepthDuration_HTML.html#208,208,1707,841,1707,960,8-29-2022,12-32-22,13,depth_duration_stimuli/000780_2014-06-08_22-28-29_260595134347_rgbf000126-resize_1/000780_2014-06-08_22-28-29_260595134347_rgbf000126-resize_1-target.png,125,3.3825,9,1888,113,feet,jsons/VE125_randls_24_rotated.json,432380,664920,34,Man
13,551274,DepthScenes,duration_manipulation_targetAtFixation,jsons/VE125_randls_24_rotated.json,http://54.235.29.9/FacialAge/BNav_EC2/DepthDuration/v2_depth_duration_MTurk/v2_DepthDuration_HTML.html#208,208,1707,841,1707,960,8-29-2022,12-32-22,14,depth_duration_stimuli/002445_2014-06-28_20-32-16_260595134347_rgbf000029-resize_4/002445_2014-06-28_20-32-16_260595134347_rgbf000029-resize_4-target.png,125,2.5315,5,2138,135,feet,jsons/VE125_randls_24_rotated.json,432380,664920,34,Man
14,551274,DepthScenes,duration_manipulation_targetAtFixation,jsons/VE125_randls_24_rotated.json,http://54.235.29.9/FacialAge/BNav_EC2/DepthDuration/v2_depth_duration_MTurk/v2_DepthDuration_HTML.html#208,208,1707,841,1707,960,8-29-2022,12-32-22,15,depth_duration_stimuli/001100_2014-06-15_17-46-26_260595134347_rgbf000225-resize_2/001100_2014-06-15_17-46-26_260595134347_rgbf000225-resize_2-target.png,125,2.24,4,2249,121,feet,jsons/VE125_randls_24_rotated.json,432380,664920,34,Man
15,551274,DepthScenes,duration_manipulation_targetAtFixation,jsons/VE125_randls_24_rotated.json,http://54.235.29.9/FacialAge/BNav_EC2/DepthDuration/v2_depth_duration_MTurk/v2_DepthDuration_HTML.html#208,208,1707,841,1707,960,8-29-2022,12-32-22,16,depth_duration_stimuli/002784_2014-06-22_19-26-30_094959634447_rgbf000083-resize_3/002784_2014-06-22_19-26-30_094959634447_rgbf000083-resize_3-target.png,125,1.8046666666667,3,2607,125,feet,jsons/VE125_randls_24_rotated.json,432380,664920,34,Man
16,551274,DepthScenes,duration_manipulation_targetAtFixation,jsons/VE125_randls_24_rotated.json,http://54.235.29.9/FacialAge/BNav_EC2/DepthDuration/v2_depth_duration_MTurk/v2_DepthDuration_HTML.html#208,208,1707,841,1707,960,8-29-2022,12-32-22,17,depth_duration_stimuli/000556_2014-06-09_22-42-56_260595134347_rgbf000214-resize_1/000556_2014-06-09_22-42-56_260595134347_rgbf000214-resize_1-target.png,125,4.8415,7,22218,134,feet,jsons/VE125_randls_24_rotated.json,432380,664920,34,Man
17,551274,DepthScenes,duration_manipulation_targetAtFixation,jsons/VE125_randls_24_rotated.json,http://54.235.29.9/FacialAge/BNav_EC2/DepthDuration/v2_depth_duration_MTurk/v2_DepthDuration_HTML.html#208,208,1707,841,1707,960,8-29-2022,12-32-22,18,depth_duration_stimuli/001158_2014-06-17_15-32-16_260595134347_rgbf000138-resize_2/001158_2014-06-17_15-32-16_260595134347_rgbf000138-resize_2-target.png,125,4.5315,9,4451,125,feet,jsons/VE125_randls_24_rotated.json,432380,664920,34,Man
18,551274,DepthScenes,duration_manipulation_targetAtFixation,jsons/VE125_randls_24_rotated.json,http://54.235.29.9/FacialAge/BNav_EC2/DepthDuration/v2_depth_duration_MTurk/v2_DepthDuration_HTML.html#208,208,1707,841,1707,960,8-29-2022,12-32-22,19,depth_duration_stimuli/001498_2014-06-19_17-45-14_260595134347_rgbf000129-resize_4/001498_2014-06-19_17-45-14_260595134347_rgbf000129-resize-original.jpg,125,1.4075,0,2956,125,feet,jsons/VE125_randls_24_rotated.json,432380,664920,34,Man
19,551274,DepthScenes,duration_manipulation_targetAtFixation,jsons/VE125_randls_24_rotated.json,http://54.235.29.9/FacialAge/BNav_EC2/DepthDuration/v2_depth_duration_MTurk/v2_DepthDuration_HTML.html#208,208,1707,841,1707,960,8-29-2022,12-32-22,20,depth_duration_stimuli/000709_2014-06-08_13-51-55_260595134347_rgbf000068-resize_3/000709_2014-06-08_13-51-55_260595134347_rgbf000068-resize_3-target.png,125,1.8030000000000002,6,3761,129,feet,jsons/VE125_randls_24_rotated.json,432380,664920,34,Man
20,551274,DepthScenes,duration_manipulation_targetAtFixation,jsons/VE125_randls_24_rotated.json,http://54.235.29.9/FacialAge/BNav_EC2/DepthDuration/v2_depth_duration_MTurk/v2_DepthDuration_HTML.html#208,208,1707,841,1707,960,8-29-2022,12-32-22,21,depth_duration_stimuli/002057_2014-06-24_21-00-13_260595134347_rgbf000120-resize_1/002057_2014-06-24_21-00-13_260595134347_rgbf000120-resize_1-target.png,125,2.967,5,2254,127,feet,jsons/VE125_randls_24_rotated.json,432380,664920,34,Man
21,551274,DepthScenes,duration_manipulation_targetAtFixation,jsons/VE125_randls_24_rotated.json,http://54.235.29.9/FacialAge/BNav_EC2/DepthDuration/v2_depth_duration_MTurk/v2_DepthDuration_HTML.html#208,208,1707,841,1707,960,8-29-2022,12-32-22,22,depth_duration_stimuli/002444_2014-06-28_20-32-08_260595134347_rgbf000027-resize_0/002444_2014-06-28_20-32-08_260595134347_rgbf000027-resize_0-target.png,125,4.388999999999999,8,2386,138,feet,jsons/VE125_randls_24_rotated.json,432380,664920,34,Man
22,551274,DepthScenes,duration_manipulation_targetAtFixation,jsons/VE125_randls_24_rotated.json,http://54.235.29.9/FacialAge/BNav_EC2/DepthDuration/v2_depth_duration_MTurk/v2_DepthDuration_HTML.html#208,208,1707,841,1707,960,8-29-2022,12-32-22,23,depth_duration_stimuli/000436_2014-06-09_22-25-11_260595134347_rgbf000137-resize_1/000436_2014-06-09_22-25-11_260595134347_rgbf000137-resize_1-target.png,125,4.0705,7,2041,119,feet,jsons/VE125_randls_24_rotated.json,432380,664920,34,Man
23,551274,DepthScenes,duration_manipulation_targetAtFixation,jsons/VE125_randls_24_rotated.json,http://54.235.29.9/FacialAge/BNav_EC2/DepthDuration/v2_depth_duration_MTurk/v2_DepthDuration_HTML.html#208,208,1707,841,1707,960,8-29-2022,12-32-22,24,depth_duration_stimuli/000854_2014-06-09_19-43-13_260595134347_rgbf000066-resize_0/000854_2014-06-09_19-43-13_260595134347_rgbf000066-resize_0-target.png,125,3.068,6,1868,125,feet,jsons/VE125_randls_24_rotated.json,432380,664920,34,Man
24,551274,DepthScenes,duration_manipulation_targetAtFixation,jsons/VE125_randls_24_rotated.json,http://54.235.29.9/FacialAge/BNav_EC2/DepthDuration/v2_depth_duration_MTurk/v2_DepthDuration_HTML.html#208,208,1707,841,1707,960,8-29-2022,12-32-22,25,depth_duration_stimuli/000758_2014-06-08_22-05-08_260595134347_rgbf000085-resize_0/000758_2014-06-08_22-05-08_260595134347_rgbf000085-resize_0-target.png,125,3.3810000000000002,8,2884,117,feet,jsons/VE125_randls_24_rotated.json,432380,664920,34,Man
25,551274,DepthScenes,duration_manipulation_targetAtFixation,jsons/VE125_randls_24_rotated.json,http://54.235.29.9/FacialAge/BNav_EC2/DepthDuration/v2_depth_duration_MTurk/v2_DepthDuration_HTML.html#208,208,1707,841,1707,960,8-29-2022,12-32-22,26,depth_duration_stimuli/001032_2014-06-08_13-23-17_260595134347_rgbf000021-resize_3/001032_2014-06-08_13-23-17_260595134347_rgbf000021-resize_3-target.png,125,3.2725,7,1717,126,feet,jsons/VE125_randls_24_rotated.json,432380,664920,34,Man
26,551274,DepthScenes,duration_manipulation_targetAtFixation,jsons/VE125_randls_24_rotated.json,http://54.235.29.9/FacialAge/BNav_EC2/DepthDuration/v2_depth_duration_MTurk/v2_DepthDuration_HTML.html#208,208,1707,841,1707,960,8-29-2022,12-32-22,27,depth_duration_stimuli/001059_2014-06-08_21-53-27_260595134347_rgbf000061-resize_4/001059_2014-06-08_21-53-27_260595134347_rgbf000061-resize_4-target.png,125,2.4185,5,1951,136,feet,jsons/VE125_randls_24_rotated.json,432380,664920,34,Man
27,551274,DepthScenes,duration_manipulation_targetAtFixation,jsons/VE125_randls_24_rotated.json,http://54.235.29.9/FacialAge/BNav_EC2/DepthDuration/v2_depth_duration_MTurk/v2_DepthDuration_HTML.html#208,208,1707,841,1707,960,8-29-2022,12-32-22,28,depth_duration_stimuli/003490_2014-05-21_15-50-11_094959634447_rgbf000101-resize_3/003490_2014-05-21_15-50-11_094959634447_rgbf000101-resize_3-target.png,125,3.6445,6,1819,129,feet,jsons/VE125_randls_24_rotated.json,432380,664920,34,Man
28,551274,DepthScenes,duration_manipulation_targetAtFixation,jsons/VE125_randls_24_rotated.json,http://54.235.29.9/FacialAge/BNav_EC2/DepthDuration/v2_depth_duration_MTurk/v2_DepthDuration_HTML.html#208,208,1707,841,1707,960,8-29-2022,12-32-22,29,depth_duration_stimuli/001175_2014-06-17_15-45-55_260595134347_rgbf000129-resize_4/001175_2014-06-17_15-45-55_260595134347_rgbf000129-resize_4-target.png,125,4.255,9,2139,125,feet,jsons/VE125_randls_24_rotated.json,432380,664920,34,Man
29,551274,DepthScenes,duration_manipulation_targetAtFixation,jsons/VE125_randls_24_rotated.json,http://54.235.29.9/FacialAge/BNav_EC2/DepthDuration/v2_depth_duration_MTurk/v2_DepthDuration_HTML.html#208,208,1707,841,1707,960,8-29-2022,12-32-22,30,depth_duration_stimuli/002072_2014-06-24_21-48-06_260595134347_rgbf000115-resize_0/002072_2014-06-24_21-48-06_260595134347_rgbf000115-resize-original.jpg,125,4.702,0,2267,122,feet,jsons/VE125_randls_24_rotated.json,432380,664920,34,Man
30,551274,DepthScenes,duration_manipulation_targetAtFixation,jsons/VE125_randls_24_rotated.json,http://54.235.29.9/FacialAge/BNav_EC2/DepthDuration/v2_depth_duration_MTurk/v2_DepthDuration_HTML.html#208,208,1707,841,1707,960,8-29-2022,12-32-22,31,depth_duration_stimuli/000103_2014-05-14_22-01-17_260595134347_rgbf000152-resize_5/000103_2014-05-14_22-01-17_260595134347_rgbf000152-resize_5-target.png,125,1.993,8,1818,134,feet,jsons/VE125_randls_24_rotated.json,432380,664920,34,Man
31,551274,DepthScenes,duration_manipulation_targetAtFixation,jsons/VE125_randls_24_rotated.json,http://54.235.29.9/FacialAge/BNav_EC2/DepthDuration/v2_depth_duration_MTurk/v2_DepthDuration_HTML.html#208,208,1707,841,1707,960,8-29-2022,12-32-22,32,depth_duration_stimuli/001555_2014-06-20_17-12-10_260595134347_rgbf000065-resize_4/001555_2014-06-20_17-12-10_260595134347_rgbf000065-resize_4-target.png,125,1.633,6,1867,133,feet,jsons/VE125_randls_24_rotated.json,432380,664920,34,Man
32,551274,DepthScenes,duration_manipulation_targetAtFixation,jsons/VE125_randls_24_rotated.json,http://54.235.29.9/FacialAge/BNav_EC2/DepthDuration/v2_depth_duration_MTurk/v2_DepthDuration_HTML.html#208,208,1707,841,1707,960,8-29-2022,12-32-22,33,depth_duration_stimuli/002875_2014-06-01_15-19-00_094959634447_rgbf000151-resize_1/002875_2014-06-01_15-19-00_094959634447_rgbf000151-resize_1-target.png,125,1.9675,7,1973,110,feet,jsons/VE125_randls_24_rotated.json,432380,664920,34,Man
33,551274,DepthScenes,duration_manipulation_targetAtFixation,jsons/VE125_randls_24_rotated.json,http://54.235.29.9/FacialAge/BNav_EC2/DepthDuration/v2_depth_duration_MTurk/v2_DepthDuration_HTML.html#208,208,1707,841,1707,960,8-29-2022,12-32-22,34,depth_duration_stimuli/001011_2014-06-08_23-18-54_260595134347_rgbf000044-resize_4/001011_2014-06-08_23-18-54_260595134347_rgbf000044-resize_4-target.png,125,2.4730000000000003,6,1945,137,feet,jsons/VE125_randls_24_rotated.json,432380,664920,34,Man
34,551274,DepthScenes,duration_manipulation_targetAtFixation,jsons/VE125_randls_24_rotated.json,http://54.235.29.9/FacialAge/BNav_EC2/DepthDuration/v2_depth_duration_MTurk/v2_DepthDuration_HTML.html#208,208,1707,841,1707,960,8-29-2022,12-32-22,35,depth_duration_stimuli/003129_2014-05-12_10-48-10_094959634447_rgbf000100-resize_0/003129_2014-05-12_10-48-10_094959634447_rgbf000100-resize_0-target.png,125,4.9305,8,1825,117,feet,jsons/VE125_randls_24_rotated.json,432380,664920,34,Man
35,551274,DepthScenes,duration_manipulation_targetAtFixation,jsons/VE125_randls_24_rotated.json,http://54.235.29.9/FacialAge/BNav_EC2/DepthDuration/v2_depth_duration_MTurk/v2_DepthDuration_HTML.html#208,208,1707,841,1707,960,8-29-2022,12-32-22,36,depth_duration_stimuli/000414_2014-06-04_19-49-13_260595134347_rgbf000044-resize_0/000414_2014-06-04_19-49-13_260595134347_rgbf000044-resize_0-target.png,125,4.329,9,1747,128,feet,jsons/VE125_randls_24_rotated.json,432380,664920,34,Man
36,551274,DepthScenes,duration_manipulation_targetAtFixation,jsons/VE125_randls_24_rotated.json,http://54.235.29.9/FacialAge/BNav_EC2/DepthDuration/v2_depth_duration_MTurk/v2_DepthDuration_HTML.html#208,208,1707,841,1707,960,8-29-2022,12-32-22,37,depth_duration_stimuli/000665_2014-06-09_20-42-35_260595134347_rgbf000110-resize_1/000665_2014-06-09_20-42-35_260595134347_rgbf000110-resize_1-target.png,125,3.057,6,3415,121,feet,jsons/VE125_randls_24_rotated.json,432380,664920,34,Man
37,551274,DepthScenes,duration_manipulation_targetAtFixation,jsons/VE125_randls_24_rotated.json,http://54.235.29.9/FacialAge/BNav_EC2/DepthDuration/v2_depth_duration_MTurk/v2_DepthDuration_HTML.html#208,208,1707,841,1707,960,8-29-2022,12-32-22,38,depth_duration_stimuli/001150_2014-06-17_15-27-34_260595134347_rgbf000108-resize_2/001150_2014-06-17_15-27-34_260595134347_rgbf000108-resize_2-target.png,125,4.0325,7,2011,125,feet,jsons/VE125_randls_24_rotated.json,432380,664920,34,Man
38,551274,DepthScenes,duration_manipulation_targetAtFixation,jsons/VE125_randls_24_rotated.json,http://54.235.29.9/FacialAge/BNav_EC2/DepthDuration/v2_depth_duration_MTurk/v2_DepthDuration_HTML.html#208,208,1707,841,1707,960,8-29-2022,12-32-22,39,depth_duration_stimuli/002639_2014-06-24_14-51-37_094959634447_rgbf000074-resize_4/002639_2014-06-24_14-51-37_094959634447_rgbf000074-resize_4-target.png,125,4.0375,7,1860,124,feet,jsons/VE125_randls_24_rotated.json,432380,664920,34,Man
39,551274,DepthScenes,duration_manipulation_targetAtFixation,jsons/VE125_randls_24_rotated.json,http://54.235.29.9/FacialAge/BNav_EC2/DepthDuration/v2_depth_duration_MTurk/v2_DepthDuration_HTML.html#208,208,1707,841,1707,960,8-29-2022,12-32-22,40,depth_duration_stimuli/003292_2014-05-14_21-53-49_094959634447_rgbf000100-resize_2/003292_2014-05-14_21-53-49_094959634447_rgbf000100-resize_2-target.png,125,3.4815,6,1785,123,feet,jsons/VE125_randls_24_rotated.json,432380,664920,34,Man
40,551274,DepthScenes,duration_manipulation_targetAtFixation,jsons/VE125_randls_24_rotated.json,http://54.235.29.9/FacialAge/BNav_EC2/DepthDuration/v2_depth_duration_MTurk/v2_DepthDuration_HTML.html#208,208,1707,841,1707,960,8-29-2022,12-32-22,41,depth_duration_stimuli/000749_2014-06-08_21-55-06_260595134347_rgbf000070-resize_2/000749_2014-06-08_21-55-06_260595134347_rgbf000070-resize_2-target.png,125,2.331,5,1773,122,feet,jsons/VE125_randls_24_rotated.json,432380,664920,34,Man
41,551274,DepthScenes,duration_manipulation_targetAtFixation,jsons/VE125_randls_24_rotated.json,http://54.235.29.9/FacialAge/BNav_EC2/DepthDuration/v2_depth_duration_MTurk/v2_DepthDuration_HTML.html#208,208,1707,841,1707,960,8-29-2022,12-32-22,42,depth_duration_stimuli/002788_2014-06-22_19-36-03_094959634447_rgbf000088-resize_2/002788_2014-06-22_19-36-03_094959634447_rgbf000088-resize_2-target.png,125,1.6465,6,2015,132,feet,jsons/VE125_randls_24_rotated.json,432380,664920,34,Man
42,551274,DepthScenes,duration_manipulation_targetAtFixation,jsons/VE125_randls_24_rotated.json,http://54.235.29.9/FacialAge/BNav_EC2/DepthDuration/v2_depth_duration_MTurk/v2_DepthDuration_HTML.html#208,208,1707,841,1707,960,8-29-2022,12-32-22,43,depth_duration_stimuli/000109_2014-05-14_23-41-52_260595134347_rgbf000035-resize_9/000109_2014-05-14_23-41-52_260595134347_rgbf000035-resize_9-target.png,125,1.3545,4,1875,124,feet,jsons/VE125_randls_24_rotated.json,432380,664920,34,Man
43,551274,DepthScenes,duration_manipulation_targetAtFixation,jsons/VE125_randls_24_rotated.json,http://54.235.29.9/FacialAge/BNav_EC2/DepthDuration/v2_depth_duration_MTurk/v2_DepthDuration_HTML.html#208,208,1707,841,1707,960,8-29-2022,12-32-22,44,depth_duration_stimuli/000470_2014-06-09_19-42-40_260595134347_rgbf000094-resize_1/000470_2014-06-09_19-42-40_260595134347_rgbf000094-resize_1-target.png,125,1.831,4,1623,119,feet,jsons/VE125_randls_24_rotated.json,432380,664920,34,Man
44,551274,DepthScenes,duration_manipulation_targetAtFixation,jsons/VE125_randls_24_rotated.json,http://54.235.29.9/FacialAge/BNav_EC2/DepthDuration/v2_depth_duration_MTurk/v2_DepthDuration_HTML.html#208,208,1707,841,1707,960,8-29-2022,12-32-22,45,depth_duration_stimuli/000691_2014-06-08_13-08-50_260595134347_rgbf000132-resize_3/000691_2014-06-08_13-08-50_260595134347_rgbf000132-resize_3-target.png,125,4.1530000000000005,6,1779,125,feet,jsons/VE125_randls_24_rotated.json,432380,664920,34,Man
45,551274,DepthScenes,duration_manipulation_targetAtFixation,jsons/VE125_randls_24_rotated.json,http://54.235.29.9/FacialAge/BNav_EC2/DepthDuration/v2_depth_duration_MTurk/v2_DepthDuration_HTML.html#208,208,1707,841,1707,960,8-29-2022,12-32-22,46,depth_duration_stimuli/002213_2014-06-28_18-37-58_260595134347_rgbf000055-resize_1/002213_2014-06-28_18-37-58_260595134347_rgbf000055-resize_1-target.png,125,3.62,8,1546,122,feet,jsons/VE125_randls_24_rotated.json,432380,664920,34,Man
46,551274,DepthScenes,duration_manipulation_targetAtFixation,jsons/VE125_randls_24_rotated.json,http://54.235.29.9/FacialAge/BNav_EC2/DepthDuration/v2_depth_duration_MTurk/v2_DepthDuration_HTML.html#208,208,1707,841,1707,960,8-29-2022,12-32-22,47,depth_duration_stimuli/002340_2014-06-28_20-05-46_260595134347_rgbf000113-resize_0/002340_2014-06-28_20-05-46_260595134347_rgbf000113-resize_0-target.png,125,2.4735,8,1531,125,feet,jsons/VE125_randls_24_rotated.json,432380,664920,34,Man
47,551274,DepthScenes,duration_manipulation_targetAtFixation,jsons/VE125_randls_24_rotated.json,http://54.235.29.9/FacialAge/BNav_EC2/DepthDuration/v2_depth_duration_MTurk/v2_DepthDuration_HTML.html#208,208,1707,841,1707,960,8-29-2022,12-32-22,48,depth_duration_stimuli/001016_2014-06-09_16-16-10_260595134347_rgbf000112-resize_5/001016_2014-06-09_16-16-10_260595134347_rgbf000112-resize_5-target.png,125,1.6565,6,1731,125,feet,jsons/VE125_randls_24_rotated.json,432380,664920,34,Man
48,551274,DepthScenes,duration_manipulation_targetAtFixation,jsons/VE125_randls_24_rotated.json,http://54.235.29.9/FacialAge/BNav_EC2/DepthDuration/v2_depth_duration_MTurk/v2_DepthDuration_HTML.html#208,208,1707,841,1707,960,8-29-2022,12-32-22,49,depth_duration_stimuli/001170_2014-06-17_15-43-44_260595134347_rgbf000096-resize_6/001170_2014-06-17_15-43-44_260595134347_rgbf000096-resize-original.jpg,125,1.1909999999999998,0,2763,124,feet,jsons/VE125_randls_24_rotated.json,432380,664920,34,Man
49,551274,DepthScenes,duration_manipulation_targetAtFixation,jsons/VE125_randls_24_rotated.json,http://54.235.29.9/FacialAge/BNav_EC2/DepthDuration/v2_depth_duration_MTurk/v2_DepthDuration_HTML.html#208,208,1707,841,1707,960,8-29-2022,12-32-22,50,depth_duration_stimuli/001815_2014-06-26_20-52-55_260595134347_rgbf000020-resize_0/001815_2014-06-26_20-52-55_260595134347_rgbf000020-resize_0-target.png,125,3.3865,8,1635,116,feet,jsons/VE125_randls_24_rotated.json,432380,664920,34,Man
50,551274,DepthScenes,duration_manipulation_targetAtFixation,jsons/VE125_randls_24_rotated.json,http://54.235.29.9/FacialAge/BNav_EC2/DepthDuration/v2_depth_duration_MTurk/v2_DepthDuration_HTML.html#208,208,1707,841,1707,960,8-29-2022,12-32-22,51,depth_duration_stimuli/001808_2014-06-26_20-50-58_260595134347_rgbf000029-resize_1/001808_2014-06-26_20-50-58_260595134347_rgbf000029-resize_1-target.png,125,4.249,7,1549,110,feet,jsons/VE125_randls_24_rotated.json,432380,664920,34,Man
51,551274,DepthScenes,duration_manipulation_targetAtFixation,jsons/VE125_randls_24_rotated.json,http://54.235.29.9/FacialAge/BNav_EC2/DepthDuration/v2_depth_duration_MTurk/v2_DepthDuration_HTML.html#208,208,1707,841,1707,960,8-29-2022,12-32-22,52,depth_duration_stimuli/003338_2014-05-20_11-01-23_094959634447_rgbf000051-resize_6/003338_2014-05-20_11-01-23_094959634447_rgbf000051-resize_6-target.png,125,1.693,6,1699,125,feet,jsons/VE125_randls_24_rotated.json,432380,664920,34,Man
52,551274,DepthScenes,duration_manipulation_targetAtFixation,jsons/VE125_randls_24_rotated.json,http://54.235.29.9/FacialAge/BNav_EC2/DepthDuration/v2_depth_duration_MTurk/v2_DepthDuration_HTML.html#208,208,1707,841,1707,960,8-29-2022,12-32-22,53,depth_duration_stimuli/002509_2014-06-24_13-19-22_094959634447_rgbf000077-resize_0/002509_2014-06-24_13-19-22_094959634447_rgbf000077-resize_0-target.png,125,1.3065,6,1657,120,feet,jsons/VE125_randls_24_rotated.json,432380,664920,34,Man
53,551274,DepthScenes,duration_manipulation_targetAtFixation,jsons/VE125_randls_24_rotated.json,http://54.235.29.9/FacialAge/BNav_EC2/DepthDuration/v2_depth_duration_MTurk/v2_DepthDuration_HTML.html#208,208,1707,841,1707,960,8-29-2022,12-32-22,54,depth_duration_stimuli/001828_2014-06-26_21-40-03_260595134347_rgbf000024-resize_0/001828_2014-06-26_21-40-03_260595134347_rgbf000024-resize_0-target.png,125,4.8260000000000005,7,1867,117,feet,jsons/VE125_randls_24_rotated.json,432380,664920,34,Man
54,551274,DepthScenes,duration_manipulation_targetAtFixation,jsons/VE125_randls_24_rotated.json,http://54.235.29.9/FacialAge/BNav_EC2/DepthDuration/v2_depth_duration_MTurk/v2_DepthDuration_HTML.html#208,208,1707,841,1707,960,8-29-2022,12-32-22,55,depth_duration_stimuli/000009_2014-05-26_14-32-05_260595134347_rgbf000034-resize_3/000009_2014-05-26_14-32-05_260595134347_rgbf000034-resize_3-target.png,125,3.8715,9,1854,119,feet,jsons/VE125_randls_24_rotated.json,432380,664920,34,Man
55,551274,DepthScenes,duration_manipulation_targetAtFixation,jsons/VE125_randls_24_rotated.json,http://54.235.29.9/FacialAge/BNav_EC2/DepthDuration/v2_depth_duration_MTurk/v2_DepthDuration_HTML.html#208,208,1707,841,1707,960,8-29-2022,12-32-22,56,depth_duration_stimuli/002545_2014-06-24_13-38-53_094959634447_rgbf000080-resize_4/002545_2014-06-24_13-38-53_094959634447_rgbf000080-resize_4-target.png,125,1.9205,7,1603,124,feet,jsons/VE125_randls_24_rotated.json,432380,664920,34,Man
56,551274,DepthScenes,duration_manipulation_targetAtFixation,jsons/VE125_randls_24_rotated.json,http://54.235.29.9/FacialAge/BNav_EC2/DepthDuration/v2_depth_duration_MTurk/v2_DepthDuration_HTML.html#208,208,1707,841,1707,960,8-29-2022,12-32-22,57,depth_duration_stimuli/001092_2014-06-15_17-34-58_260595134347_rgbf000171-resize_3/001092_2014-06-15_17-34-58_260595134347_rgbf000171-resize_3-target.png,125,2.6935,6,1675,125,feet,jsons/VE125_randls_24_rotated.json,432380,664920,34,Man
57,551274,DepthScenes,duration_manipulation_targetAtFixation,jsons/VE125_randls_24_rotated.json,http://54.235.29.9/FacialAge/BNav_EC2/DepthDuration/v2_depth_duration_MTurk/v2_DepthDuration_HTML.html#208,208,1707,841,1707,960,8-29-2022,12-32-22,58,depth_duration_stimuli/000191_2014-05-12_17-07-38_260595134347_rgbf000199-resize_0/000191_2014-05-12_17-07-38_260595134347_rgbf000199-resize_0-target.png,125,3.7995,7,1573,122,feet,jsons/VE125_randls_24_rotated.json,432380,664920,34,Man
58,551274,DepthScenes,duration_manipulation_targetAtFixation,jsons/VE125_randls_24_rotated.json,http://54.235.29.9/FacialAge/BNav_EC2/DepthDuration/v2_depth_duration_MTurk/v2_DepthDuration_HTML.html#208,208,1707,841,1707,960,8-29-2022,12-32-22,59,depth_duration_stimuli/000493_2014-06-09_21-01-18_260595134347_rgbf000196-resize_3/000493_2014-06-09_21-01-18_260595134347_rgbf000196-resize_3-target.png,125,3.44,6,1627,124,feet,jsons/VE125_randls_24_rotated.json,432380,664920,34,Man
59,551274,DepthScenes,duration_manipulation_targetAtFixation,jsons/VE125_randls_24_rotated.json,http://54.235.29.9/FacialAge/BNav_EC2/DepthDuration/v2_depth_duration_MTurk/v2_DepthDuration_HTML.html#208,208,1707,841,1707,960,8-29-2022,12-32-22,60,depth_duration_stimuli/002637_2014-06-24_14-51-13_094959634447_rgbf000066-resize_4/002637_2014-06-24_14-51-13_094959634447_rgbf000066-resize_4-target.png,125,1.9955,7,1531,124,feet,jsons/VE125_randls_24_rotated.json,432380,664920,34,Man
60,551274,DepthScenes,duration_manipulation_targetAtFixation,jsons/VE125_randls_24_rotated.json,http://54.235.29.9/FacialAge/BNav_EC2/DepthDuration/v2_depth_duration_MTurk/v2_DepthDuration_HTML.html#208,208,1707,841,1707,960,8-29-2022,12-32-22,61,depth_duration_stimuli/003534_2014-05-22_15-06-10_094959634447_rgbf000102-resize_4/003534_2014-05-22_15-06-10_094959634447_rgbf000102-resize_4-target.png,125,1.426,5,1616,121,feet,jsons/VE125_randls_24_rotated.json,432380,664920,34,Man
61,551274,DepthScenes,duration_manipulation_targetAtFixation,jsons/VE125_randls_24_rotated.json,http://54.235.29.9/FacialAge/BNav_EC2/DepthDuration/v2_depth_duration_MTurk/v2_DepthDuration_HTML.html#208,208,1707,841,1707,960,8-29-2022,12-32-22,62,depth_duration_stimuli/000742_2014-06-08_18-48-09_260595134347_rgbf000164-resize_4/000742_2014-06-08_18-48-09_260595134347_rgbf000164-resize_4-target.png,125,4.632,6,5372,118,feet,jsons/VE125_randls_24_rotated.json,432380,664920,34,Man
62,551274,DepthScenes,duration_manipulation_targetAtFixation,jsons/VE125_randls_24_rotated.json,http://54.235.29.9/FacialAge/BNav_EC2/DepthDuration/v2_depth_duration_MTurk/v2_DepthDuration_HTML.html#208,208,1707,841,1707,960,8-29-2022,12-32-22,63,depth_duration_stimuli/001066_2014-06-08_22-03-20_260595134347_rgbf000066-resize_4/001066_2014-06-08_22-03-20_260595134347_rgbf000066-resize_4-target.png,125,4.2330000000000005,8,2016,136,feet,jsons/VE125_randls_24_rotated.json,432380,664920,34,Man
63,551274,DepthScenes,duration_manipulation_targetAtFixation,jsons/VE125_randls_24_rotated.json,http://54.235.29.9/FacialAge/BNav_EC2/DepthDuration/v2_depth_duration_MTurk/v2_DepthDuration_HTML.html#208,208,1707,841,1707,960,8-29-2022,12-32-22,64,depth_duration_stimuli/003083_2014-06-15_15-21-03_094959634447_rgbf000063-resize_1/003083_2014-06-15_15-21-03_094959634447_rgbf000063-resize_1-target.png,125,4.1405,8,2260,125,feet,jsons/VE125_randls_24_rotated.json,432380,664920,34,Man
64,551274,DepthScenes,duration_manipulation_targetAtFixation,jsons/VE125_randls_24_rotated.json,http://54.235.29.9/FacialAge/BNav_EC2/DepthDuration/v2_depth_duration_MTurk/v2_DepthDuration_HTML.html#208,208,1707,841,1707,960,8-29-2022,12-32-22,65,depth_duration_stimuli/000486_2014-06-09_20-47-20_260595134347_rgbf000143-resize_2/000486_2014-06-09_20-47-20_260595134347_rgbf000143-resize_2-target.png,125,4.8325,7,1603,126,feet,jsons/VE125_randls_24_rotated.json,432380,664920,34,Man
65,551274,DepthScenes,duration_manipulation_targetAtFixation,jsons/VE125_randls_24_rotated.json,http://54.235.29.9/FacialAge/BNav_EC2/DepthDuration/v2_depth_duration_MTurk/v2_DepthDuration_HTML.html#208,208,1707,841,1707,960,8-29-2022,12-32-22,66,depth_duration_stimuli/001540_2014-06-20_17-01-05_260595134347_rgbf000086-resize_2/001540_2014-06-20_17-01-05_260595134347_rgbf000086-resize-original.jpg,125,1.459,0,2132,126,feet,jsons/VE125_randls_24_rotated.json,432380,664920,34,Man
66,551274,DepthScenes,duration_manipulation_targetAtFixation,jsons/VE125_randls_24_rotated.json,http://54.235.29.9/FacialAge/BNav_EC2/DepthDuration/v2_depth_duration_MTurk/v2_DepthDuration_HTML.html#208,208,1707,841,1707,960,8-29-2022,12-32-22,67,depth_duration_stimuli/002425_2014-06-28_20-27-29_260595134347_rgbf000031-resize_8/002425_2014-06-28_20-27-29_260595134347_rgbf000031-resize_8-target.png,125,3.8960000000000004,6,1843,124,feet,jsons/VE125_randls_24_rotated.json,432380,664920,34,Man
67,551274,DepthScenes,duration_manipulation_targetAtFixation,jsons/VE125_randls_24_rotated.json,http://54.235.29.9/FacialAge/BNav_EC2/DepthDuration/v2_depth_duration_MTurk/v2_DepthDuration_HTML.html#208,208,1707,841,1707,960,8-29-2022,12-32-22,68,depth_duration_stimuli/000642_2014-06-08_16-59-25_260595134347_rgbf000098-resize_2/000642_2014-06-08_16-59-25_260595134347_rgbf000098-resize_2-target.png,125,2.8815,6,2090,125,feet,jsons/VE125_randls_24_rotated.json,432380,664920,34,Man
68,551274,DepthScenes,duration_manipulation_targetAtFixation,jsons/VE125_randls_24_rotated.json,http://54.235.29.9/FacialAge/BNav_EC2/DepthDuration/v2_depth_duration_MTurk/v2_DepthDuration_HTML.html#208,208,1707,841,1707,960,8-29-2022,12-32-22,69,depth_duration_stimuli/001447_2014-06-19_17-00-32_260595134347_rgbf000082-resize_5/001447_2014-06-19_17-00-32_260595134347_rgbf000082-resize_5-target.png,125,4.13775,7,1747,117,feet,jsons/VE125_randls_24_rotated.json,432380,664920,34,Man
69,551274,DepthScenes,duration_manipulation_targetAtFixation,jsons/VE125_randls_24_rotated.json,http://54.235.29.9/FacialAge/BNav_EC2/DepthDuration/v2_depth_duration_MTurk/v2_DepthDuration_HTML.html#208,208,1707,841,1707,960,8-29-2022,12-32-22,70,depth_duration_stimuli/000447_2014-06-08_16-15-46_260595134347_rgbf000130-resize_1/000447_2014-06-08_16-15-46_260595134347_rgbf000130-resize_1-target.png,125,4.479,7,1848,113,feet,jsons/VE125_randls_24_rotated.json,432380,664920,34,Man
70,551274,DepthScenes,duration_manipulation_targetAtFixation,jsons/VE125_randls_24_rotated.json,http://54.235.29.9/FacialAge/BNav_EC2/DepthDuration/v2_depth_duration_MTurk/v2_DepthDuration_HTML.html#208,208,1707,841,1707,960,8-29-2022,12-32-22,71,depth_duration_stimuli/003010_2014-06-15_12-54-35_094959634447_rgbf000112-resize_0/003010_2014-06-15_12-54-35_094959634447_rgbf000112-resize_0-target.png,125,3.1185,8,1726,121,feet,jsons/VE125_randls_24_rotated.json,432380,664920,34,Man
71,551274,DepthScenes,duration_manipulation_targetAtFixation,jsons/VE125_randls_24_rotated.json,http://54.235.29.9/FacialAge/BNav_EC2/DepthDuration/v2_depth_duration_MTurk/v2_DepthDuration_HTML.html#208,208,1707,841,1707,960,8-29-2022,12-32-22,72,depth_duration_stimuli/001810_2014-06-26_20-51-35_260595134347_rgbf000040-resize_3/001810_2014-06-26_20-51-35_260595134347_rgbf000040-resize_3-target.png,125,2.2525,6,1787,125,feet,jsons/VE125_randls_24_rotated.json,432380,664920,34,Man
72,551274,DepthScenes,duration_manipulation_targetAtFixation,jsons/VE125_randls_24_rotated.json,http://54.235.29.9/FacialAge/BNav_EC2/DepthDuration/v2_depth_duration_MTurk/v2_DepthDuration_HTML.html#208,208,1707,841,1707,960,8-29-2022,12-32-22,73,depth_duration_stimuli/000734_2014-06-08_17-39-11_260595134347_rgbf000128-resize_2/000734_2014-06-08_17-39-11_260595134347_rgbf000128-resize_2-target.png,125,4.098,7,2028,129,feet,jsons/VE125_randls_24_rotated.json,432380,664920,34,Man
73,551274,DepthScenes,duration_manipulation_targetAtFixation,jsons/VE125_randls_24_rotated.json,http://54.235.29.9/FacialAge/BNav_EC2/DepthDuration/v2_depth_duration_MTurk/v2_DepthDuration_HTML.html#208,208,1707,841,1707,960,8-29-2022,12-32-22,74,depth_duration_stimuli/000739_2014-06-08_18-45-58_260595134347_rgbf000068-resize_1/000739_2014-06-08_18-45-58_260595134347_rgbf000068-resize_1-target.png,125,3.534,8,1867,124,feet,jsons/VE125_randls_24_rotated.json,432380,664920,34,Man
74,551274,DepthScenes,duration_manipulation_targetAtFixation,jsons/VE125_randls_24_rotated.json,http://54.235.29.9/FacialAge/BNav_EC2/DepthDuration/v2_depth_duration_MTurk/v2_DepthDuration_HTML.html#208,208,1707,841,1707,960,8-29-2022,12-32-22,75,depth_duration_stimuli/002949_2014-06-26_15-57-42_094959634447_rgbf000079-resize_1/002949_2014-06-26_15-57-42_094959634447_rgbf000079-resize_1-target.png,125,1.8915,8,1987,125,feet,jsons/VE125_randls_24_rotated.json,432380,664920,34,Man
75,551274,DepthScenes,duration_manipulation_targetAtFixation,jsons/VE125_randls_24_rotated.json,http://54.235.29.9/FacialAge/BNav_EC2/DepthDuration/v2_depth_duration_MTurk/v2_DepthDuration_HTML.html#208,208,1707,841,1707,960,8-29-2022,12-32-22,76,depth_duration_stimuli/000522_2014-06-08_13-35-06_260595134347_rgbf000244-resize_1/000522_2014-06-08_13-35-06_260595134347_rgbf000244-resize_1-target.png,125,2.3715,3,3523,125,feet,jsons/VE125_randls_24_rotated.json,432380,664920,34,Man
76,551274,DepthScenes,duration_manipulation_targetAtFixation,jsons/VE125_randls_24_rotated.json,http://54.235.29.9/FacialAge/BNav_EC2/DepthDuration/v2_depth_duration_MTurk/v2_DepthDuration_HTML.html#208,208,1707,841,1707,960,8-29-2022,12-32-22,77,depth_duration_stimuli/001392_2014-06-19_16-07-59_260595134347_rgbf000046-resize_1/001392_2014-06-19_16-07-59_260595134347_rgbf000046-resize_1-target.png,125,4.135,6,1853,119,feet,jsons/VE125_randls_24_rotated.json,432380,664920,34,Man
77,551274,DepthScenes,duration_manipulation_targetAtFixation,jsons/VE125_randls_24_rotated.json,http://54.235.29.9/FacialAge/BNav_EC2/DepthDuration/v2_depth_duration_MTurk/v2_DepthDuration_HTML.html#208,208,1707,841,1707,960,8-29-2022,12-32-22,78,depth_duration_stimuli/001570_2014-06-20_17-21-09_260595134347_rgbf000135-resize_4/001570_2014-06-20_17-21-09_260595134347_rgbf000135-resize_4-target.png,125,4.467,8,2003,125,feet,jsons/VE125_randls_24_rotated.json,432380,664920,34,Man
78,551274,DepthScenes,duration_manipulation_targetAtFixation,jsons/VE125_randls_24_rotated.json,http://54.235.29.9/FacialAge/BNav_EC2/DepthDuration/v2_depth_duration_MTurk/v2_DepthDuration_HTML.html#208,208,1707,841,1707,960,8-29-2022,12-32-22,79,depth_duration_stimuli/001516_2014-06-20_16-25-09_260595134347_rgbf000076-resize_2/001516_2014-06-20_16-25-09_260595134347_rgbf000076-resize_2-target.png,125,1.7445,4,2531,125,feet,jsons/VE125_randls_24_rotated.json,432380,664920,34,Man
79,551274,DepthScenes,duration_manipulation_targetAtFixation,jsons/VE125_randls_24_rotated.json,http://54.235.29.9/FacialAge/BNav_EC2/DepthDuration/v2_depth_duration_MTurk/v2_DepthDuration_HTML.html#208,208,1707,841,1707,960,8-29-2022,12-32-22,80,depth_duration_stimuli/002118_2014-06-25_20-32-08_260595134347_rgbf000078-resize_1/002118_2014-06-25_20-32-08_260595134347_rgbf000078-resize_1-target.png,125,2.6460000000000004,6,1837,132,feet,jsons/VE125_randls_24_rotated.json,432380,664920,34,Man
80,551274,DepthScenes,duration_manipulation_targetAtFixation,jsons/VE125_randls_24_rotated.json,http://54.235.29.9/FacialAge/BNav_EC2/DepthDuration/v2_depth_duration_MTurk/v2_DepthDuration_HTML.html#208,208,1707,841,1707,960,8-29-2022,12-32-22,81,depth_duration_stimuli/003423_2014-05-21_10-23-26_094959634447_rgbf002665-resize_2/003423_2014-05-21_10-23-26_094959634447_rgbf002665-resize_2-target.png,125,3.2575,8,3051,130,feet,jsons/VE125_randls_24_rotated.json,432380,664920,34,Man
81,551274,DepthScenes,duration_manipulation_targetAtFixation,jsons/VE125_randls_24_rotated.json,http://54.235.29.9/FacialAge/BNav_EC2/DepthDuration/v2_depth_duration_MTurk/v2_DepthDuration_HTML.html#208,208,1707,841,1707,960,8-29-2022,12-32-22,82,depth_duration_stimuli/002905_2014-06-03_18-04-43_094959634447_rgbf000151-resize_2/002905_2014-06-03_18-04-43_094959634447_rgbf000151-resize_2-target.png,125,2.0295,6,1747,130,feet,jsons/VE125_randls_24_rotated.json,432380,664920,34,Man
82,551274,DepthScenes,duration_manipulation_targetAtFixation,jsons/VE125_randls_24_rotated.json,http://54.235.29.9/FacialAge/BNav_EC2/DepthDuration/v2_depth_duration_MTurk/v2_DepthDuration_HTML.html#208,208,1707,841,1707,960,8-29-2022,12-32-22,83,depth_duration_stimuli/002678_2014-06-13_16-15-32_094959634447_rgbf000151-resize_6/002678_2014-06-13_16-15-32_094959634447_rgbf000151-resize_6-target.png,125,2.1830000000000003,7,1894,119,feet,jsons/VE125_randls_24_rotated.json,432380,664920,34,Man
83,551274,DepthScenes,duration_manipulation_targetAtFixation,jsons/VE125_randls_24_rotated.json,http://54.235.29.9/FacialAge/BNav_EC2/DepthDuration/v2_depth_duration_MTurk/v2_DepthDuration_HTML.html#208,208,1707,841,1707,960,8-29-2022,12-32-22,84,depth_duration_stimuli/000368_2014-06-09_15-53-01_260595134347_rgbf000155-resize_2/000368_2014-06-09_15-53-01_260595134347_rgbf000155-resize_2-target.png,125,2.4859999999999998,4,1850,133,feet,jsons/VE125_randls_24_rotated.json,432380,664920,34,Man
84,551274,DepthScenes,duration_manipulation_targetAtFixation,jsons/VE125_randls_24_rotated.json,http://54.235.29.9/FacialAge/BNav_EC2/DepthDuration/v2_depth_duration_MTurk/v2_DepthDuration_HTML.html#208,208,1707,841,1707,960,8-29-2022,12-32-22,85,depth_duration_stimuli/003048_2014-06-15_13-49-43_094959634447_rgbf000150-resize_1/003048_2014-06-15_13-49-43_094959634447_rgbf000150-resize_1-target.png,125,4.0035,7,1988,125,feet,jsons/VE125_randls_24_rotated.json,432380,664920,34,Man
85,551274,DepthScenes,duration_manipulation_targetAtFixation,jsons/VE125_randls_24_rotated.json,http://54.235.29.9/FacialAge/BNav_EC2/DepthDuration/v2_depth_duration_MTurk/v2_DepthDuration_HTML.html#208,208,1707,841,1707,960,8-29-2022,12-32-22,86,depth_duration_stimuli/002043_2014-06-24_20-29-38_260595134347_rgbf000039-resize_4/002043_2014-06-24_20-29-38_260595134347_rgbf000039-resize_4-target.png,125,2.8435,6,1683,127,feet,jsons/VE125_randls_24_rotated.json,432380,664920,34,Man
86,551274,DepthScenes,duration_manipulation_targetAtFixation,jsons/VE125_randls_24_rotated.json,http://54.235.29.9/FacialAge/BNav_EC2/DepthDuration/v2_depth_duration_MTurk/v2_DepthDuration_HTML.html#208,208,1707,841,1707,960,8-29-2022,12-32-22,87,depth_duration_stimuli/002568_2014-06-24_13-59-21_094959634447_rgbf000062-resize_4/002568_2014-06-24_13-59-21_094959634447_rgbf000062-resize_4-target.png,125,3.015,7,1785,130,feet,jsons/VE125_randls_24_rotated.json,432380,664920,34,Man
87,551274,DepthScenes,duration_manipulation_targetAtFixation,jsons/VE125_randls_24_rotated.json,http://54.235.29.9/FacialAge/BNav_EC2/DepthDuration/v2_depth_duration_MTurk/v2_DepthDuration_HTML.html#208,208,1707,841,1707,960,8-29-2022,12-32-22,88,depth_duration_stimuli/003492_2014-05-21_15-50-55_094959634447_rgbf000828-resize_1/003492_2014-05-21_15-50-55_094959634447_rgbf000828-resize_1-target.png,125,4.06875,8,1638,114,feet,jsons/VE125_randls_24_rotated.json,432380,664920,34,Man
88,551274,DepthScenes,duration_manipulation_targetAtFixation,jsons/VE125_randls_24_rotated.json,http://54.235.29.9/FacialAge/BNav_EC2/DepthDuration/v2_depth_duration_MTurk/v2_DepthDuration_HTML.html#208,208,1707,841,1707,960,8-29-2022,12-32-22,89,depth_duration_stimuli/001584_2014-06-20_11-07-43_260595134347_rgbf000002-resize_1/001584_2014-06-20_11-07-43_260595134347_rgbf000002-resize_1-target.png,125,3.53,9,1831,135,feet,jsons/VE125_randls_24_rotated.json,432380,664920,34,Man
89,551274,DepthScenes,duration_manipulation_targetAtFixation,jsons/VE125_randls_24_rotated.json,http://54.235.29.9/FacialAge/BNav_EC2/DepthDuration/v2_depth_duration_MTurk/v2_DepthDuration_HTML.html#208,208,1707,841,1707,960,8-29-2022,12-32-22,90,depth_duration_stimuli/003621_2014-05-23_18-06-08_094959634447_rgbf000101-resize_1/003621_2014-05-23_18-06-08_094959634447_rgbf000101-resize_1-target.png,125,3.9835,9,1546,130,feet,jsons/VE125_randls_24_rotated.json,432380,664920,34,Man
90,551274,DepthScenes,duration_manipulation_targetAtFixation,jsons/VE125_randls_24_rotated.json,http://54.235.29.9/FacialAge/BNav_EC2/DepthDuration/v2_depth_duration_MTurk/v2_DepthDuration_HTML.html#208,208,1707,841,1707,960,8-29-2022,12-32-22,91,depth_duration_stimuli/003081_2014-06-15_15-19-16_094959634447_rgbf000150-resize_1/003081_2014-06-15_15-19-16_094959634447_rgbf000150-resize_1-target.png,125,3.9125,7,1602,125,feet,jsons/VE125_randls_24_rotated.json,432380,664920,34,Man
91,551274,DepthScenes,duration_manipulation_targetAtFixation,jsons/VE125_randls_24_rotated.json,http://54.235.29.9/FacialAge/BNav_EC2/DepthDuration/v2_depth_duration_MTurk/v2_DepthDuration_HTML.html#208,208,1707,841,1707,960,8-29-2022,12-32-22,92,depth_duration_stimuli/001417_2014-06-19_16-25-36_260595134347_rgbf000115-resize_5/001417_2014-06-19_16-25-36_260595134347_rgbf000115-resize_5-target.png,125,4.6255,8,1837,110,feet,jsons/VE125_randls_24_rotated.json,432380,664920,34,Man
92,551274,DepthScenes,duration_manipulation_targetAtFixation,jsons/VE125_randls_24_rotated.json,http://54.235.29.9/FacialAge/BNav_EC2/DepthDuration/v2_depth_duration_MTurk/v2_DepthDuration_HTML.html#208,208,1707,841,1707,960,8-29-2022,12-32-22,93,depth_duration_stimuli/003228_2014-05-14_13-42-35_094959634447_rgbf000101-resize_1/003228_2014-05-14_13-42-35_094959634447_rgbf000101-resize_1-target.png,125,1.9680000000000002,7,1705,126,feet,jsons/VE125_randls_24_rotated.json,432380,664920,34,Man
93,551274,DepthScenes,duration_manipulation_targetAtFixation,jsons/VE125_randls_24_rotated.json,http://54.235.29.9/FacialAge/BNav_EC2/DepthDuration/v2_depth_duration_MTurk/v2_DepthDuration_HTML.html#208,208,1707,841,1707,960,8-29-2022,12-32-22,94,depth_duration_stimuli/002600_2014-06-24_14-27-04_094959634447_rgbf000074-resize_2/002600_2014-06-24_14-27-04_094959634447_rgbf000074-resize_2-target.png,125,2.7575,6,1636,123,feet,jsons/VE125_randls_24_rotated.json,432380,664920,34,Man
94,551274,DepthScenes,duration_manipulation_targetAtFixation,jsons/VE125_randls_24_rotated.json,http://54.235.29.9/FacialAge/BNav_EC2/DepthDuration/v2_depth_duration_MTurk/v2_DepthDuration_HTML.html#208,208,1707,841,1707,960,8-29-2022,12-32-22,95,depth_duration_stimuli/003079_2014-06-15_15-18-20_094959634447_rgbf000152-resize_8/003079_2014-06-15_15-18-20_094959634447_rgbf000152-resize_8-target.png,125,2.8775,8,1644,135,feet,jsons/VE125_randls_24_rotated.json,432380,664920,34,Man
95,551274,DepthScenes,duration_manipulation_targetAtFixation,jsons/VE125_randls_24_rotated.json,http://54.235.29.9/FacialAge/BNav_EC2/DepthDuration/v2_depth_duration_MTurk/v2_DepthDuration_HTML.html#208,208,1707,841,1707,960,8-29-2022,12-32-22,96,depth_duration_stimuli/000506_2014-06-08_23-21-00_260595134347_rgbf000070-resize_7/000506_2014-06-08_23-21-00_260595134347_rgbf000070-resize_7-target.png,125,4.0585,9,1649,138,feet,jsons/VE125_randls_24_rotated.json,432380,664920,34,Man
96,551274,DepthScenes,duration_manipulation_targetAtFixation,jsons/VE125_randls_24_rotated.json,http://54.235.29.9/FacialAge/BNav_EC2/DepthDuration/v2_depth_duration_MTurk/v2_DepthDuration_HTML.html#208,208,1707,841,1707,960,8-29-2022,12-32-22,97,depth_duration_stimuli/000677_2014-06-08_23-10-32_260595134347_rgbf000158-resize_6/000677_2014-06-08_23-10-32_260595134347_rgbf000158-resize_6-target.png,125,3.556,9,1580,125,feet,jsons/VE125_randls_24_rotated.json,432380,664920,34,Man
97,551274,DepthScenes,duration_manipulation_targetAtFixation,jsons/VE125_randls_24_rotated.json,http://54.235.29.9/FacialAge/BNav_EC2/DepthDuration/v2_depth_duration_MTurk/v2_DepthDuration_HTML.html#208,208,1707,841,1707,960,8-29-2022,12-32-22,98,depth_duration_stimuli/001029_2014-06-08_13-17-57_260595134347_rgbf000065-resize_1/001029_2014-06-08_13-17-57_260595134347_rgbf000065-resize_1-target.png,125,3.0835,7,1546,124,feet,jsons/VE125_randls_24_rotated.json,432380,664920,34,Man
98,551274,DepthScenes,duration_manipulation_targetAtFixation,jsons/VE125_randls_24_rotated.json,http://54.235.29.9/FacialAge/BNav_EC2/DepthDuration/v2_depth_duration_MTurk/v2_DepthDuration_HTML.html#208,208,1707,841,1707,960,8-29-2022,12-32-22,99,depth_duration_stimuli/001222_2014-06-17_16-24-06_260595134347_rgbf000073-resize_0/001222_2014-06-17_16-24-06_260595134347_rgbf000073-resize-original.jpg,125,1.4385,0,2205,122,feet,jsons/VE125_randls_24_rotated.json,432380,664920,34,Man
99,551274,DepthScenes,duration_manipulation_targetAtFixation,jsons/VE125_randls_24_rotated.json,http://54.235.29.9/FacialAge/BNav_EC2/DepthDuration/v2_depth_duration_MTurk/v2_DepthDuration_HTML.html#208,208,1707,841,1707,960,8-29-2022,12-32-22,100,depth_duration_stimuli/002199_2014-06-28_18-33-56_260595134347_rgbf000074-resize_0/002199_2014-06-28_18-33-56_260595134347_rgbf000074-resize_0-target.png,125,1.996,3,2641,134,feet,jsons/VE125_randls_24_rotated.json,432380,664920,34,Man
100,551274,DepthScenes,duration_manipulation_targetAtFixation,jsons/VE125_randls_24_rotated.json,http://54.235.29.9/FacialAge/BNav_EC2/DepthDuration/v2_depth_duration_MTurk/v2_DepthDuration_HTML.html#208,208,1707,841,1707,960,8-29-2022,12-32-22,101,depth_duration_stimuli/001056_2014-06-08_18-46-44_260595134347_rgbf000068-resize_0/001056_2014-06-08_18-46-44_260595134347_rgbf000068-resize_0-target.png,125,2.6625,6,1725,125,feet,jsons/VE125_randls_24_rotated.json,432380,664920,34,Man
101,551274,DepthScenes,duration_manipulation_targetAtFixation,jsons/VE125_randls_24_rotated.json,http://54.235.29.9/FacialAge/BNav_EC2/DepthDuration/v2_depth_duration_MTurk/v2_DepthDuration_HTML.html#208,208,1707,841,1707,960,8-29-2022,12-32-22,102,depth_duration_stimuli/002414_2014-06-28_20-24-58_260595134347_rgbf000067-resize_4/002414_2014-06-28_20-24-58_260595134347_rgbf000067-resize_4-target.png,125,4.363,7,1794,134,feet,jsons/VE125_randls_24_rotated.json,432380,664920,34,Man
102,551274,DepthScenes,duration_manipulation_targetAtFixation,jsons/VE125_randls_24_rotated.json,http://54.235.29.9/FacialAge/BNav_EC2/DepthDuration/v2_depth_duration_MTurk/v2_DepthDuration_HTML.html#208,208,1707,841,1707,960,8-29-2022,12-32-22,103,depth_duration_stimuli/000773_2014-06-08_22-24-54_260595134347_rgbf000093-resize_1/000773_2014-06-08_22-24-54_260595134347_rgbf000093-resize_1-target.png,125,4.973,8,3115,136,feet,jsons/VE125_randls_24_rotated.json,432380,664920,34,Man
103,551274,DepthScenes,duration_manipulation_targetAtFixation,jsons/VE125_randls_24_rotated.json,http://54.235.29.9/FacialAge/BNav_EC2/DepthDuration/v2_depth_duration_MTurk/v2_DepthDuration_HTML.html#208,208,1707,841,1707,960,8-29-2022,12-32-22,104,depth_duration_stimuli/001571_2014-06-20_17-21-32_260595134347_rgbf000089-resize_1/001571_2014-06-20_17-21-32_260595134347_rgbf000089-resize_1-target.png,125,1.86,4,1959,132,feet,jsons/VE125_randls_24_rotated.json,432380,664920,34,Man
104,551274,DepthScenes,duration_manipulation_targetAtFixation,jsons/VE125_randls_24_rotated.json,http://54.235.29.9/FacialAge/BNav_EC2/DepthDuration/v2_depth_duration_MTurk/v2_DepthDuration_HTML.html#208,208,1707,841,1707,960,8-29-2022,12-32-22,105,depth_duration_stimuli/002272_2014-06-28_18-53-56_260595134347_rgbf000067-resize_2/002272_2014-06-28_18-53-56_260595134347_rgbf000067-resize_2-target.png,125,1.138,0,2946,139,feet,jsons/VE125_randls_24_rotated.json,432380,664920,34,Man
105,551274,DepthScenes,duration_manipulation_targetAtFixation,jsons/VE125_randls_24_rotated.json,http://54.235.29.9/FacialAge/BNav_EC2/DepthDuration/v2_depth_duration_MTurk/v2_DepthDuration_HTML.html#208,208,1707,841,1707,960,8-29-2022,12-32-22,106,depth_duration_stimuli/001450_2014-06-19_17-02-03_260595134347_rgbf000203-resize_4/001450_2014-06-19_17-02-03_260595134347_rgbf000203-resize_4-target.png,125,4.0106666666667,8,3696,137,feet,jsons/VE125_randls_24_rotated.json,432380,664920,34,Man
106,551274,DepthScenes,duration_manipulation_targetAtFixation,jsons/VE125_randls_24_rotated.json,http://54.235.29.9/FacialAge/BNav_EC2/DepthDuration/v2_depth_duration_MTurk/v2_DepthDuration_HTML.html#208,208,1707,841,1707,960,8-29-2022,12-32-22,107,depth_duration_stimuli/001449_2014-06-19_17-01-27_260595134347_rgbf000116-resize_2/001449_2014-06-19_17-01-27_260595134347_rgbf000116-resize_2-target.png,125,3.452,7,2098,117,feet,jsons/VE125_randls_24_rotated.json,432380,664920,34,Man
107,551274,DepthScenes,duration_manipulation_targetAtFixation,jsons/VE125_randls_24_rotated.json,http://54.235.29.9/FacialAge/BNav_EC2/DepthDuration/v2_depth_duration_MTurk/v2_DepthDuration_HTML.html#208,208,1707,841,1707,960,8-29-2022,12-32-22,108,depth_duration_stimuli/001136_2014-06-17_15-19-41_260595134347_rgbf000076-resize_3/001136_2014-06-17_15-19-41_260595134347_rgbf000076-resize_3-target.png,125,1.8655,7,3147,124,feet,jsons/VE125_randls_24_rotated.json,432380,664920,34,Man
108,551274,DepthScenes,duration_manipulation_targetAtFixation,jsons/VE125_randls_24_rotated.json,http://54.235.29.9/FacialAge/BNav_EC2/DepthDuration/v2_depth_duration_MTurk/v2_DepthDuration_HTML.html#208,208,1707,841,1707,960,8-29-2022,12-32-22,109,depth_duration_stimuli/001164_2014-06-17_15-35-46_260595134347_rgbf000085-resize_3/001164_2014-06-17_15-35-46_260595134347_rgbf000085-resize_3-target.png,125,2.354,6,2190,123,feet,jsons/VE125_randls_24_rotated.json,432380,664920,34,Man
109,551274,DepthScenes,duration_manipulation_targetAtFixation,jsons/VE125_randls_24_rotated.json,http://54.235.29.9/FacialAge/BNav_EC2/DepthDuration/v2_depth_duration_MTurk/v2_DepthDuration_HTML.html#208,208,1707,841,1707,960,8-29-2022,12-32-22,110,depth_duration_stimuli/002103_2014-06-25_20-00-40_260595134347_rgbf000049-resize_0/002103_2014-06-25_20-00-40_260595134347_rgbf000049-resize_0-target.png,125,4.105,7,1774,120,feet,jsons/VE125_randls_24_rotated.json,432380,664920,34,Man
110,551274,DepthScenes,duration_manipulation_targetAtFixation,jsons/VE125_randls_24_rotated.json,http://54.235.29.9/FacialAge/BNav_EC2/DepthDuration/v2_depth_duration_MTurk/v2_DepthDuration_HTML.html#208,208,1707,841,1707,960,8-29-2022,12-32-22,111,depth_duration_stimuli/002039_2014-06-24_20-22-38_260595134347_rgbf000084-resize_1/002039_2014-06-24_20-22-38_260595134347_rgbf000084-resize_1-target.png,125,4.408,8,1702,111,feet,jsons/VE125_randls_24_rotated.json,432380,664920,34,Man
111,551274,DepthScenes,duration_manipulation_targetAtFixation,jsons/VE125_randls_24_rotated.json,http://54.235.29.9/FacialAge/BNav_EC2/DepthDuration/v2_depth_duration_MTurk/v2_DepthDuration_HTML.html#208,208,1707,841,1707,960,8-29-2022,12-32-22,112,depth_duration_stimuli/001052_2014-06-08_18-24-54_260595134347_rgbf000130-resize_1/001052_2014-06-08_18-24-54_260595134347_rgbf000130-resize_1-target.png,125,4.1045,8,1541,111,feet,jsons/VE125_randls_24_rotated.json,432380,664920,34,Man
112,551274,DepthScenes,duration_manipulation_targetAtFixation,jsons/VE125_randls_24_rotated.json,http://54.235.29.9/FacialAge/BNav_EC2/DepthDuration/v2_depth_duration_MTurk/v2_DepthDuration_HTML.html#208,208,1707,841,1707,960,8-29-2022,12-32-22,113,depth_duration_stimuli/002988_2014-06-15_12-24-20_094959634447_rgbf000150-resize_1/002988_2014-06-15_12-24-20_094959634447_rgbf000150-resize_1-target.png,125,4.7669999999999995,8,1619,126,feet,jsons/VE125_randls_24_rotated.json,432380,664920,34,Man
113,551274,DepthScenes,duration_manipulation_targetAtFixation,jsons/VE125_randls_24_rotated.json,http://54.235.29.9/FacialAge/BNav_EC2/DepthDuration/v2_depth_duration_MTurk/v2_DepthDuration_HTML.html#208,208,1707,841,1707,960,8-29-2022,12-32-22,114,depth_duration_stimuli/001650_2014-06-20_12-09-00_260595134347_rgbf000087-resize_3/001650_2014-06-20_12-09-00_260595134347_rgbf000087-resize_3-target.png,125,1.9505,3,1920,123,feet,jsons/VE125_randls_24_rotated.json,432380,664920,34,Man
114,551274,DepthScenes,duration_manipulation_targetAtFixation,jsons/VE125_randls_24_rotated.json,http://54.235.29.9/FacialAge/BNav_EC2/DepthDuration/v2_depth_duration_MTurk/v2_DepthDuration_HTML.html#208,208,1707,841,1707,960,8-29-2022,12-32-22,115,depth_duration_stimuli/000682_2014-06-08_23-14-58_260595134347_rgbf000041-resize_5/000682_2014-06-08_23-14-58_260595134347_rgbf000041-resize_5-target.png,125,2.7239999999999998,5,2536,128,feet,jsons/VE125_randls_24_rotated.json,432380,664920,34,Man
115,551274,DepthScenes,duration_manipulation_targetAtFixation,jsons/VE125_randls_24_rotated.json,http://54.235.29.9/FacialAge/BNav_EC2/DepthDuration/v2_depth_duration_MTurk/v2_DepthDuration_HTML.html#208,208,1707,841,1707,960,8-29-2022,12-32-22,116,depth_duration_stimuli/000549_2014-06-08_22-10-24_260595134347_rgbf000247-resize_3/000549_2014-06-08_22-10-24_260595134347_rgbf000247-resize_3-target.png,125,1.841,3,1971,117,feet,jsons/VE125_randls_24_rotated.json,432380,664920,34,Man
116,551274,DepthScenes,duration_manipulation_targetAtFixation,jsons/VE125_randls_24_rotated.json,http://54.235.29.9/FacialAge/BNav_EC2/DepthDuration/v2_depth_duration_MTurk/v2_DepthDuration_HTML.html#208,208,1707,841,1707,960,8-29-2022,12-32-22,117,depth_duration_stimuli/001055_2014-06-08_18-45-35_260595134347_rgbf000111-resize_4/001055_2014-06-08_18-45-35_260595134347_rgbf000111-resize_4-target.png,125,2.4290000000000003,8,1611,125,feet,jsons/VE125_randls_24_rotated.json,432380,664920,34,Man
117,551274,DepthScenes,duration_manipulation_targetAtFixation,jsons/VE125_randls_24_rotated.json,http://54.235.29.9/FacialAge/BNav_EC2/DepthDuration/v2_depth_duration_MTurk/v2_DepthDuration_HTML.html#208,208,1707,841,1707,960,8-29-2022,12-32-22,118,depth_duration_stimuli/002805_2014-06-22_19-54-03_094959634447_rgbf000079-resize_1/002805_2014-06-22_19-54-03_094959634447_rgbf000079-resize_1-target.png,125,3.1439999999999997,7,1747,126,feet,jsons/VE125_randls_24_rotated.json,432380,664920,34,Man
118,551274,DepthScenes,duration_manipulation_targetAtFixation,jsons/VE125_randls_24_rotated.json,http://54.235.29.9/FacialAge/BNav_EC2/DepthDuration/v2_depth_duration_MTurk/v2_DepthDuration_HTML.html#208,208,1707,841,1707,960,8-29-2022,12-32-22,119,depth_duration_stimuli/000906_2014-06-08_13-35-43_260595134347_rgbf000155-resize_1/000906_2014-06-08_13-35-43_260595134347_rgbf000155-resize_1-target.png,125,2.8489999999999998,7,1531,125,feet,jsons/VE125_randls_24_rotated.json,432380,664920,34,Man
119,551274,DepthScenes,duration_manipulation_targetAtFixation,jsons/VE125_randls_24_rotated.json,http://54.235.29.9/FacialAge/BNav_EC2/DepthDuration/v2_depth_duration_MTurk/v2_DepthDuration_HTML.html#208,208,1707,841,1707,960,8-29-2022,12-32-22,120,depth_duration_stimuli/000787_2014-06-08_22-33-53_260595134347_rgbf000175-resize_1/000787_2014-06-08_22-33-53_260595134347_rgbf000175-resize-original.jpg,125,4.784,0,2763,125,feet,jsons/VE125_randls_24_rotated.json,432380,664920,34,Man
120,551274,DepthScenes,duration_manipulation_targetAtFixation,jsons/VE125_randls_24_rotated.json,http://54.235.29.9/FacialAge/BNav_EC2/DepthDuration/v2_depth_duration_MTurk/v2_DepthDuration_HTML.html#208,208,1707,841,1707,960,8-29-2022,12-32-22,121,depth_duration_stimuli/001132_2014-06-17_14-48-54_260595134347_rgbf000100-resize_2/001132_2014-06-17_14-48-54_260595134347_rgbf000100-resize_2-target.png,125,3.753,8,1735,122,feet,jsons/VE125_randls_24_rotated.json,432380,664920,34,Man
121,551274,DepthScenes,duration_manipulation_targetAtFixation,jsons/VE125_randls_24_rotated.json,http://54.235.29.9/FacialAge/BNav_EC2/DepthDuration/v2_depth_duration_MTurk/v2_DepthDuration_HTML.html#208,208,1707,841,1707,960,8-29-2022,12-32-22,122,depth_duration_stimuli/001133_2014-06-17_14-49-16_260595134347_rgbf000100-resize_0/001133_2014-06-17_14-49-16_260595134347_rgbf000100-resize_0-target.png,125,4.2115,7,1628,117,feet,jsons/VE125_randls_24_rotated.json,432380,664920,34,Man
122,551274,DepthScenes,duration_manipulation_targetAtFixation,jsons/VE125_randls_24_rotated.json,http://54.235.29.9/FacialAge/BNav_EC2/DepthDuration/v2_depth_duration_MTurk/v2_DepthDuration_HTML.html#208,208,1707,841,1707,960,8-29-2022,12-32-22,123,depth_duration_stimuli/000502_2014-06-08_23-02-32_260595134347_rgbf000063-resize_4/000502_2014-06-08_23-02-32_260595134347_rgbf000063-resize_4-target.png,125,2.431,6,1587,125,feet,jsons/VE125_randls_24_rotated.json,432380,664920,34,Man
123,551274,DepthScenes,duration_manipulation_targetAtFixation,jsons/VE125_randls_24_rotated.json,http://54.235.29.9/FacialAge/BNav_EC2/DepthDuration/v2_depth_duration_MTurk/v2_DepthDuration_HTML.html#208,208,1707,841,1707,960,8-29-2022,12-32-22,124,depth_duration_stimuli/001199_2014-06-17_16-03-48_260595134347_rgbf000077-resize_0/001199_2014-06-17_16-03-48_260595134347_rgbf000077-resize_0-target.png,125,3.4375,6,1668,124,feet,jsons/VE125_randls_24_rotated.json,432380,664920,34,Man
124,551274,DepthScenes,duration_manipulation_targetAtFixation,jsons/VE125_randls_24_rotated.json,http://54.235.29.9/FacialAge/BNav_EC2/DepthDuration/v2_depth_duration_MTurk/v2_DepthDuration_HTML.html#208,208,1707,841,1707,960,8-29-2022,12-32-22,125,depth_duration_stimuli/003495_2014-05-21_16-01-51_094959634447_rgbf000100-resize_3/003495_2014-05-21_16-01-51_094959634447_rgbf000100-resize_3-target.png,125,1.6255,4,1579,125,feet,jsons/VE125_randls_24_rotated.json,432380,664920,34,Man
125,551274,DepthScenes,duration_manipulation_targetAtFixation,jsons/VE125_randls_24_rotated.json,http://54.235.29.9/FacialAge/BNav_EC2/DepthDuration/v2_depth_duration_MTurk/v2_DepthDuration_HTML.html#208,208,1707,841,1707,960,8-29-2022,12-32-22,126,depth_duration_stimuli/001244_2014-06-17_16-47-45_260595134347_rgbf000030-resize_4/001244_2014-06-17_16-47-45_260595134347_rgbf000030-resize_4-target.png,125,2.0425,5,1827,125,feet,jsons/VE125_randls_24_rotated.json,432380,664920,34,Man
126,551274,DepthScenes,duration_manipulation_targetAtFixation,jsons/VE125_randls_24_rotated.json,http://54.235.29.9/FacialAge/BNav_EC2/DepthDuration/v2_depth_duration_MTurk/v2_DepthDuration_HTML.html#208,208,1707,841,1707,960,8-29-2022,12-32-22,127,depth_duration_stimuli/000635_2014-06-08_16-38-42_260595134347_rgbf000106-resize_1/000635_2014-06-08_16-38-42_260595134347_rgbf000106-resize_1-target.png,125,2.074,7,2821,124,feet,jsons/VE125_randls_24_rotated.json,432380,664920,34,Man
127,551274,DepthScenes,duration_manipulation_targetAtFixation,jsons/VE125_randls_24_rotated.json,http://54.235.29.9/FacialAge/BNav_EC2/DepthDuration/v2_depth_duration_MTurk/v2_DepthDuration_HTML.html#208,208,1707,841,1707,960,8-29-2022,12-32-22,128,depth_duration_stimuli/002279_2014-06-28_18-55-32_260595134347_rgbf000040-resize_5/002279_2014-06-28_18-55-32_260595134347_rgbf000040-resize_5-target.png,125,1.5043333333333,6,1826,125,feet,jsons/VE125_randls_24_rotated.json,432380,664920,34,Man
128,551274,DepthScenes,duration_manipulation_targetAtFixation,jsons/VE125_randls_24_rotated.json,http://54.235.29.9/FacialAge/BNav_EC2/DepthDuration/v2_depth_duration_MTurk/v2_DepthDuration_HTML.html#208,208,1707,841,1707,960,8-29-2022,12-32-22,129,depth_duration_stimuli/001094_2014-06-15_17-36-00_260595134347_rgbf000205-resize_0/001094_2014-06-15_17-36-00_260595134347_rgbf000205-resize_0-target.png,125,4.2175,7,2096,112,feet,jsons/VE125_randls_24_rotated.json,432380,664920,34,Man
129,551274,DepthScenes,duration_manipulation_targetAtFixation,jsons/VE125_randls_24_rotated.json,http://54.235.29.9/FacialAge/BNav_EC2/DepthDuration/v2_depth_duration_MTurk/v2_DepthDuration_HTML.html#208,208,1707,841,1707,960,8-29-2022,12-32-22,130,depth_duration_stimuli/000692_2014-06-08_13-09-42_260595134347_rgbf000199-resize_2/000692_2014-06-08_13-09-42_260595134347_rgbf000199-resize_2-target.png,125,3.661,8,1618,125,feet,jsons/VE125_randls_24_rotated.json,432380,664920,34,Man
130,551274,DepthScenes,duration_manipulation_targetAtFixation,jsons/VE125_randls_24_rotated.json,http://54.235.29.9/FacialAge/BNav_EC2/DepthDuration/v2_depth_duration_MTurk/v2_DepthDuration_HTML.html#208,208,1707,841,1707,960,8-29-2022,12-32-22,131,depth_duration_stimuli/002758_2014-06-22_19-11-20_094959634447_rgbf000128-resize_1/002758_2014-06-22_19-11-20_094959634447_rgbf000128-resize_1-target.png,125,2.555,7,1755,124,feet,jsons/VE125_randls_24_rotated.json,432380,664920,34,Man
131,551274,DepthScenes,duration_manipulation_targetAtFixation,jsons/VE125_randls_24_rotated.json,http://54.235.29.9/FacialAge/BNav_EC2/DepthDuration/v2_depth_duration_MTurk/v2_DepthDuration_HTML.html#208,208,1707,841,1707,960,8-29-2022,12-32-22,132,depth_duration_stimuli/002630_2014-06-24_14-47-50_094959634447_rgbf000055-resize_1/002630_2014-06-24_14-47-50_094959634447_rgbf000055-resize_1-target.png,125,3.0095,8,1540,128,feet,jsons/VE125_randls_24_rotated.json,432380,664920,34,Man
132,551274,DepthScenes,duration_manipulation_targetAtFixation,jsons/VE125_randls_24_rotated.json,http://54.235.29.9/FacialAge/BNav_EC2/DepthDuration/v2_depth_duration_MTurk/v2_DepthDuration_HTML.html#208,208,1707,841,1707,960,8-29-2022,12-32-22,133,depth_duration_stimuli/002750_2014-06-22_19-08-03_094959634447_rgbf000094-resize_4/002750_2014-06-22_19-08-03_094959634447_rgbf000094-resize_4-target.png,125,2.354,7,1822,120,feet,jsons/VE125_randls_24_rotated.json,432380,664920,34,Man
133,551274,DepthScenes,duration_manipulation_targetAtFixation,jsons/VE125_randls_24_rotated.json,http://54.235.29.9/FacialAge/BNav_EC2/DepthDuration/v2_depth_duration_MTurk/v2_DepthDuration_HTML.html#208,208,1707,841,1707,960,8-29-2022,12-32-22,134,depth_duration_stimuli/002549_2014-06-24_13-41-39_094959634447_rgbf000022-resize_3/002549_2014-06-24_13-41-39_094959634447_rgbf000022-resize_3-target.png,125,1.476,6,1705,124,feet,jsons/VE125_randls_24_rotated.json,432380,664920,34,Man
134,551274,DepthScenes,duration_manipulation_targetAtFixation,jsons/VE125_randls_24_rotated.json,http://54.235.29.9/FacialAge/BNav_EC2/DepthDuration/v2_depth_duration_MTurk/v2_DepthDuration_HTML.html#208,208,1707,841,1707,960,8-29-2022,12-32-22,135,depth_duration_stimuli/000375_2014-06-08_11-17-29_260595134347_rgbf000133-resize_2/000375_2014-06-08_11-17-29_260595134347_rgbf000133-resize-original.jpg,125,4.718,0,3123,125,feet,jsons/VE125_randls_24_rotated.json,432380,664920,34,Man
135,551274,DepthScenes,duration_manipulation_targetAtFixation,jsons/VE125_randls_24_rotated.json,http://54.235.29.9/FacialAge/BNav_EC2/DepthDuration/v2_depth_duration_MTurk/v2_DepthDuration_HTML.html#208,208,1707,841,1707,960,8-29-2022,12-32-22,136,depth_duration_stimuli/002136_2014-06-25_21-18-03_260595134347_rgbf000109-resize_3/002136_2014-06-25_21-18-03_260595134347_rgbf000109-resize_3-target.png,125,1.9569999999999999,6,1899,126,feet,jsons/VE125_randls_24_rotated.json,432380,664920,34,Man
136,551274,DepthScenes,duration_manipulation_targetAtFixation,jsons/VE125_randls_24_rotated.json,http://54.235.29.9/FacialAge/BNav_EC2/DepthDuration/v2_depth_duration_MTurk/v2_DepthDuration_HTML.html#208,208,1707,841,1707,960,8-29-2022,12-32-22,137,depth_duration_stimuli/002964_2014-06-08_17-46-11_094959634447_rgbf000091-resize_4/002964_2014-06-08_17-46-11_094959634447_rgbf000091-resize_4-target.png,125,1.6909999999999998,5,1587,125,feet,jsons/VE125_randls_24_rotated.json,432380,664920,34,Man
137,551274,DepthScenes,duration_manipulation_targetAtFixation,jsons/VE125_randls_24_rotated.json,http://54.235.29.9/FacialAge/BNav_EC2/DepthDuration/v2_depth_duration_MTurk/v2_DepthDuration_HTML.html#208,208,1707,841,1707,960,8-29-2022,12-32-22,138,depth_duration_stimuli/002953_2014-06-08_17-32-18_094959634447_rgbf000059-resize_5/002953_2014-06-08_17-32-18_094959634447_rgbf000059-resize_5-target.png,125,1.551,5,1653,122,feet,jsons/VE125_randls_24_rotated.json,432380,664920,34,Man
138,551274,DepthScenes,duration_manipulation_targetAtFixation,jsons/VE125_randls_24_rotated.json,http://54.235.29.9/FacialAge/BNav_EC2/DepthDuration/v2_depth_duration_MTurk/v2_DepthDuration_HTML.html#208,208,1707,841,1707,960,8-29-2022,12-32-22,139,depth_duration_stimuli/000878_2014-06-08_22-52-45_260595134347_rgbf000045-resize_2/000878_2014-06-08_22-52-45_260595134347_rgbf000045-resize_2-target.png,125,2.092,7,1850,116,feet,jsons/VE125_randls_24_rotated.json,432380,664920,34,Man
139,551274,DepthScenes,duration_manipulation_targetAtFixation,jsons/VE125_randls_24_rotated.json,http://54.235.29.9/FacialAge/BNav_EC2/DepthDuration/v2_depth_duration_MTurk/v2_DepthDuration_HTML.html#208,208,1707,841,1707,960,8-29-2022,12-32-22,140,depth_duration_stimuli/002467_2014-06-28_20-38-07_260595134347_rgbf000026-resize_2/002467_2014-06-28_20-38-07_260595134347_rgbf000026-resize_2-target.png,125,4.742,8,1587,125,feet,jsons/VE125_randls_24_rotated.json,432380,664920,34,Man
140,551274,DepthScenes,duration_manipulation_targetAtFixation,jsons/VE125_randls_24_rotated.json,http://54.235.29.9/FacialAge/BNav_EC2/DepthDuration/v2_depth_duration_MTurk/v2_DepthDuration_HTML.html#208,208,1707,841,1707,960,8-29-2022,12-32-22,141,depth_duration_stimuli/002570_2014-06-24_13-59-54_094959634447_rgbf000059-resize_0/002570_2014-06-24_13-59-54_094959634447_rgbf000059-resize_0-target.png,125,4.037,7,2011,125,feet,jsons/VE125_randls_24_rotated.json,432380,664920,34,Man
141,551274,DepthScenes,duration_manipulation_targetAtFixation,jsons/VE125_randls_24_rotated.json,http://54.235.29.9/FacialAge/BNav_EC2/DepthDuration/v2_depth_duration_MTurk/v2_DepthDuration_HTML.html#208,208,1707,841,1707,960,8-29-2022,12-32-22,142,depth_duration_stimuli/002344_2014-06-28_20-06-29_260595134347_rgbf000030-resize_1/002344_2014-06-28_20-06-29_260595134347_rgbf000030-resize_1-target.png,125,1.5795,4,1731,117,feet,jsons/VE125_randls_24_rotated.json,432380,664920,34,Man
142,551274,DepthScenes,duration_manipulation_targetAtFixation,jsons/VE125_randls_24_rotated.json,http://54.235.29.9/FacialAge/BNav_EC2/DepthDuration/v2_depth_duration_MTurk/v2_DepthDuration_HTML.html#208,208,1707,841,1707,960,8-29-2022,12-32-22,143,depth_duration_stimuli/002725_2014-06-22_11-47-51_094959634447_rgbf000070-resize_1/002725_2014-06-22_11-47-51_094959634447_rgbf000070-resize_1-target.png,125,2.195,6,1612,126,feet,jsons/VE125_randls_24_rotated.json,432380,664920,34,Man
143,551274,DepthScenes,duration_manipulation_targetAtFixation,jsons/VE125_randls_24_rotated.json,http://54.235.29.9/FacialAge/BNav_EC2/DepthDuration/v2_depth_duration_MTurk/v2_DepthDuration_HTML.html#208,208,1707,841,1707,960,8-29-2022,12-32-22,144,depth_duration_stimuli/001617_2014-06-20_11-35-32_260595134347_rgbf000066-resize_1/001617_2014-06-20_11-35-32_260595134347_rgbf000066-resize_1-target.png,125,3.7910000000000004,9,1891,126,feet,jsons/VE125_randls_24_rotated.json,432380,664920,34,Man
144,551274,DepthScenes,duration_manipulation_targetAtFixation,jsons/VE125_randls_24_rotated.json,http://54.235.29.9/FacialAge/BNav_EC2/DepthDuration/v2_depth_duration_MTurk/v2_DepthDuration_HTML.html#208,208,1707,841,1707,960,8-29-2022,12-32-22,145,depth_duration_stimuli/001806_2014-06-26_20-50-20_260595134347_rgbf000091-resize_1/001806_2014-06-26_20-50-20_260595134347_rgbf000091-resize_1-target.png,125,2.7305,4,1955,125,feet,jsons/VE125_randls_24_rotated.json,432380,664920,34,Man
145,551274,DepthScenes,duration_manipulation_targetAtFixation,jsons/VE125_randls_24_rotated.json,http://54.235.29.9/FacialAge/BNav_EC2/DepthDuration/v2_depth_duration_MTurk/v2_DepthDuration_HTML.html#208,208,1707,841,1707,960,8-29-2022,12-32-22,146,depth_duration_stimuli/002323_2014-06-28_20-01-54_260595134347_rgbf000051-resize_4/002323_2014-06-28_20-01-54_260595134347_rgbf000051-resize_4-target.png,125,3.7310000000000003,7,1599,112,feet,jsons/VE125_randls_24_rotated.json,432380,664920,34,Man
146,551274,DepthScenes,duration_manipulation_targetAtFixation,jsons/VE125_randls_24_rotated.json,http://54.235.29.9/FacialAge/BNav_EC2/DepthDuration/v2_depth_duration_MTurk/v2_DepthDuration_HTML.html#208,208,1707,841,1707,960,8-29-2022,12-32-22,147,depth_duration_stimuli/000917_2014-06-09_22-45-29_260595134347_rgbf000149-resize_3/000917_2014-06-09_22-45-29_260595134347_rgbf000149-resize_3-target.png,125,4.1865,7,1627,125,feet,jsons/VE125_randls_24_rotated.json,432380,664920,34,Man
147,551274,DepthScenes,duration_manipulation_targetAtFixation,jsons/VE125_randls_24_rotated.json,http://54.235.29.9/FacialAge/BNav_EC2/DepthDuration/v2_depth_duration_MTurk/v2_DepthDuration_HTML.html#208,208,1707,841,1707,960,8-29-2022,12-32-22,148,depth_duration_stimuli/001214_2014-06-17_16-13-55_260595134347_rgbf000111-resize_0/001214_2014-06-17_16-13-55_260595134347_rgbf000111-resize_0-target.png,125,2.6505,5,1626,125,feet,jsons/VE125_randls_24_rotated.json,432380,664920,34,Man
148,551274,DepthScenes,duration_manipulation_targetAtFixation,jsons/VE125_randls_24_rotated.json,http://54.235.29.9/FacialAge/BNav_EC2/DepthDuration/v2_depth_duration_MTurk/v2_DepthDuration_HTML.html#208,208,1707,841,1707,960,8-29-2022,12-32-22,149,depth_duration_stimuli/000810_2014-06-08_17-20-01_260595134347_rgbf000105-resize_0/000810_2014-06-08_17-20-01_260595134347_rgbf000105-resize_0-target.png,125,1.4865,7,2066,124,feet,jsons/VE125_randls_24_rotated.json,432380,664920,34,Man
149,551274,DepthScenes,duration_manipulation_targetAtFixation,jsons/VE125_randls_24_rotated.json,http://54.235.29.9/FacialAge/BNav_EC2/DepthDuration/v2_depth_duration_MTurk/v2_DepthDuration_HTML.html#208,208,1707,841,1707,960,8-29-2022,12-32-22,150,depth_duration_stimuli/000483_2014-06-09_20-41-45_260595134347_rgbf000116-resize_4/000483_2014-06-09_20-41-45_260595134347_rgbf000116-resize_4-target.png,125,1.337,4,1707,126,feet,jsons/VE125_randls_24_rotated.json,432380,664920,34,Man
150,551274,DepthScenes,duration_manipulation_targetAtFixation,jsons/VE125_randls_24_rotated.json,http://54.235.29.9/FacialAge/BNav_EC2/DepthDuration/v2_depth_duration_MTurk/v2_DepthDuration_HTML.html#208,208,1707,841,1707,960,8-29-2022,12-32-22,151,depth_duration_stimuli/000469_2014-06-09_19-42-10_260595134347_rgbf000081-resize_1/000469_2014-06-09_19-42-10_260595134347_rgbf000081-resize_1-target.png,125,1.652,4,1643,124,feet,jsons/VE125_randls_24_rotated.json,432380,664920,34,Man
151,551274,DepthScenes,duration_manipulation_targetAtFixation,jsons/VE125_randls_24_rotated.json,http://54.235.29.9/FacialAge/BNav_EC2/DepthDuration/v2_depth_duration_MTurk/v2_DepthDuration_HTML.html#208,208,1707,841,1707,960,8-29-2022,12-32-22,152,depth_duration_stimuli/000569_2014-06-09_22-51-47_260595134347_rgbf000141-resize_3/000569_2014-06-09_22-51-47_260595134347_rgbf000141-resize-original.jpg,125,4.512,0,2281,123,feet,jsons/VE125_randls_24_rotated.json,432380,664920,34,Man
152,551274,DepthScenes,duration_manipulation_targetAtFixation,jsons/VE125_randls_24_rotated.json,http://54.235.29.9/FacialAge/BNav_EC2/DepthDuration/v2_depth_duration_MTurk/v2_DepthDuration_HTML.html#208,208,1707,841,1707,960,8-29-2022,12-32-22,153,depth_duration_stimuli/000943_2014-06-09_19-31-07_260595134347_rgbf000128-resize_1/000943_2014-06-09_19-31-07_260595134347_rgbf000128-resize_1-target.png,125,1.9765,6,1802,125,feet,jsons/VE125_randls_24_rotated.json,432380,664920,34,Man
153,551274,DepthScenes,duration_manipulation_targetAtFixation,jsons/VE125_randls_24_rotated.json,http://54.235.29.9/FacialAge/BNav_EC2/DepthDuration/v2_depth_duration_MTurk/v2_DepthDuration_HTML.html#208,208,1707,841,1707,960,8-29-2022,12-32-22,154,depth_duration_stimuli/003070_2014-06-15_14-58-27_094959634447_rgbf000150-resize_3/003070_2014-06-15_14-58-27_094959634447_rgbf000150-resize_3-target.png,125,2.9415,8,1617,124,feet,jsons/VE125_randls_24_rotated.json,432380,664920,34,Man
154,551274,DepthScenes,duration_manipulation_targetAtFixation,jsons/VE125_randls_24_rotated.json,http://54.235.29.9/FacialAge/BNav_EC2/DepthDuration/v2_depth_duration_MTurk/v2_DepthDuration_HTML.html#208,208,1707,841,1707,960,8-29-2022,12-32-22,155,depth_duration_stimuli/001235_2014-06-17_16-37-36_260595134347_rgbf000084-resize_4/001235_2014-06-17_16-37-36_260595134347_rgbf000084-resize_4-target.png,125,3.6605,8,1595,139,feet,jsons/VE125_randls_24_rotated.json,432380,664920,34,Man
155,551274,DepthScenes,duration_manipulation_targetAtFixation,jsons/VE125_randls_24_rotated.json,http://54.235.29.9/FacialAge/BNav_EC2/DepthDuration/v2_depth_duration_MTurk/v2_DepthDuration_HTML.html#208,208,1707,841,1707,960,8-29-2022,12-32-22,156,depth_duration_stimuli/000788_2014-06-08_22-34-36_260595134347_rgbf000131-resize_1/000788_2014-06-08_22-34-36_260595134347_rgbf000131-resize_1-target.png,125,3.359,7,1599,122,feet,jsons/VE125_randls_24_rotated.json,432380,664920,34,Man
156,551274,DepthScenes,duration_manipulation_targetAtFixation,jsons/VE125_randls_24_rotated.json,http://54.235.29.9/FacialAge/BNav_EC2/DepthDuration/v2_depth_duration_MTurk/v2_DepthDuration_HTML.html#208,208,1707,841,1707,960,8-29-2022,12-32-22,157,depth_duration_stimuli/000866_2014-06-09_20-45-42_260595134347_rgbf000139-resize_1/000866_2014-06-09_20-45-42_260595134347_rgbf000139-resize_1-target.png,125,3.2155,6,1537,136,feet,jsons/VE125_randls_24_rotated.json,432380,664920,34,Man
157,551274,DepthScenes,duration_manipulation_targetAtFixation,jsons/VE125_randls_24_rotated.json,http://54.235.29.9/FacialAge/BNav_EC2/DepthDuration/v2_depth_duration_MTurk/v2_DepthDuration_HTML.html#208,208,1707,841,1707,960,8-29-2022,12-32-22,158,depth_duration_stimuli/002989_2014-06-15_12-25-03_094959634447_rgbf000150-resize_3/002989_2014-06-15_12-25-03_094959634447_rgbf000150-resize_3-target.png,125,4.1975,6,2026,122,feet,jsons/VE125_randls_24_rotated.json,432380,664920,34,Man
158,551274,DepthScenes,duration_manipulation_targetAtFixation,jsons/VE125_randls_24_rotated.json,http://54.235.29.9/FacialAge/BNav_EC2/DepthDuration/v2_depth_duration_MTurk/v2_DepthDuration_HTML.html#208,208,1707,841,1707,960,8-29-2022,12-32-22,159,depth_duration_stimuli/002995_2014-06-15_12-31-26_094959634447_rgbf000150-resize_1/002995_2014-06-15_12-31-26_094959634447_rgbf000150-resize_1-target.png,125,3.8360000000000003,7,1972,111,feet,jsons/VE125_randls_24_rotated.json,432380,664920,34,Man
159,551274,DepthScenes,duration_manipulation_targetAtFixation,jsons/VE125_randls_24_rotated.json,http://54.235.29.9/FacialAge/BNav_EC2/DepthDuration/v2_depth_duration_MTurk/v2_DepthDuration_HTML.html#208,208,1707,841,1707,960,8-29-2022,12-32-22,160,depth_duration_stimuli/002748_2014-06-22_19-07-22_094959634447_rgbf000078-resize_1/002748_2014-06-22_19-07-22_094959634447_rgbf000078-resize_1-target.png,125,4.6705,9,1953,127,feet,jsons/VE125_randls_24_rotated.json,432380,664920,34,Man
160,551274,DepthScenes,duration_manipulation_targetAtFixation,jsons/VE125_randls_24_rotated.json,http://54.235.29.9/FacialAge/BNav_EC2/DepthDuration/v2_depth_duration_MTurk/v2_DepthDuration_HTML.html#208,208,1707,841,1707,960,8-29-2022,12-32-22,161,depth_duration_stimuli/002209_2014-06-28_18-36-10_260595134347_rgbf000051-resize_1/002209_2014-06-28_18-36-10_260595134347_rgbf000051-resize_1-target.png,125,2.057,6,2873,121,feet,jsons/VE125_randls_24_rotated.json,432380,664920,34,Man
161,551274,DepthScenes,duration_manipulation_targetAtFixation,jsons/VE125_randls_24_rotated.json,http://54.235.29.9/FacialAge/BNav_EC2/DepthDuration/v2_depth_duration_MTurk/v2_DepthDuration_HTML.html#208,208,1707,841,1707,960,8-29-2022,12-32-22,162,depth_duration_stimuli/002763_2014-06-22_19-13-10_094959634447_rgbf000075-resize_4/002763_2014-06-22_19-13-10_094959634447_rgbf000075-resize_4-target.png,125,1.68375,5,1586,125,feet,jsons/VE125_randls_24_rotated.json,432380,664920,34,Man
162,551274,DepthScenes,duration_manipulation_targetAtFixation,jsons/VE125_randls_24_rotated.json,http://54.235.29.9/FacialAge/BNav_EC2/DepthDuration/v2_depth_duration_MTurk/v2_DepthDuration_HTML.html#208,208,1707,841,1707,960,8-29-2022,12-32-22,163,depth_duration_stimuli/002660_2014-06-13_15-44-18_094959634447_rgbf001878-resize_2/002660_2014-06-13_15-44-18_094959634447_rgbf001878-resize_2-target.png,125,3.576,6,1599,126,feet,jsons/VE125_randls_24_rotated.json,432380,664920,34,Man
163,551274,DepthScenes,duration_manipulation_targetAtFixation,jsons/VE125_randls_24_rotated.json,http://54.235.29.9/FacialAge/BNav_EC2/DepthDuration/v2_depth_duration_MTurk/v2_DepthDuration_HTML.html#208,208,1707,841,1707,960,8-29-2022,12-32-22,164,depth_duration_stimuli/002153_2014-06-25_21-27-18_260595134347_rgbf000038-resize_5/002153_2014-06-25_21-27-18_260595134347_rgbf000038-resize_5-target.png,125,2.505,5,1599,122,feet,jsons/VE125_randls_24_rotated.json,432380,664920,34,Man
