,subjID,experimentName,versionName,sequenceName,url,selected_row,windowWidth,windowHeight,screenWidth,screenHeight,startDate,startTime,trial,stimulus,duration,actual_depth,depth_estimate,trial_RT,log_sceneDuration,unitSelection,seq_filepath,experimentTime,totalTime,age,gender
0,552014,DepthScenes,duration_manipulation_targetAtFixation,jsons/VE83_randls_23_rotated.json,http://54.235.29.9/FacialAge/BNav_EC2/DepthDuration/v2_depth_duration_MTurk/v2_DepthDuration_HTML.html#12,12,1366,651,1366,768,8-29-2023,9-43-9,1,depth_duration_stimuli/002637_2014-06-24_14-51-13_094959634447_rgbf000066-resize_4/002637_2014-06-24_14-51-13_094959634447_rgbf000066-resize_4-target.png,83,1.9955,5,9621,81,feet,jsons/VE83_randls_23_rotated.json,1361818,1714259,35,Man
1,552014,DepthScenes,duration_manipulation_targetAtFixation,jsons/VE83_randls_23_rotated.json,http://54.235.29.9/FacialAge/BNav_EC2/DepthDuration/v2_depth_duration_MTurk/v2_DepthDuration_HTML.html#12,12,1366,651,1366,768,8-29-2023,9-43-9,2,depth_duration_stimuli/003534_2014-05-22_15-06-10_094959634447_rgbf000102-resize_4/003534_2014-05-22_15-06-10_094959634447_rgbf000102-resize_4-target.png,83,1.426,6,10895,82,feet,jsons/VE83_randls_23_rotated.json,1361818,1714259,35,Man
2,552014,DepthScenes,duration_manipulation_targetAtFixation,jsons/VE83_randls_23_rotated.json,http://54.235.29.9/FacialAge/BNav_EC2/DepthDuration/v2_depth_duration_MTurk/v2_DepthDuration_HTML.html#12,12,1366,651,1366,768,8-29-2023,9-43-9,3,depth_duration_stimuli/000502_2014-06-08_23-02-32_260595134347_rgbf000063-resize_4/000502_2014-06-08_23-02-32_260595134347_rgbf000063-resize_4-target.png,83,2.431,5,17119,84,feet,jsons/VE83_randls_23_rotated.json,1361818,1714259,35,Man
3,552014,DepthScenes,duration_manipulation_targetAtFixation,jsons/VE83_randls_23_rotated.json,http://54.235.29.9/FacialAge/BNav_EC2/DepthDuration/v2_depth_duration_MTurk/v2_DepthDuration_HTML.html#12,12,1366,651,1366,768,8-29-2023,9-43-9,4,depth_duration_stimuli/001199_2014-06-17_16-03-48_260595134347_rgbf000077-resize_0/001199_2014-06-17_16-03-48_260595134347_rgbf000077-resize_0-target.png,83,3.4375,6,6678,83,feet,jsons/VE83_randls_23_rotated.json,1361818,1714259,35,Man
4,552014,DepthScenes,duration_manipulation_targetAtFixation,jsons/VE83_randls_23_rotated.json,http://54.235.29.9/FacialAge/BNav_EC2/DepthDuration/v2_depth_duration_MTurk/v2_DepthDuration_HTML.html#12,12,1366,651,1366,768,8-29-2023,9-43-9,5,depth_duration_stimuli/001584_2014-06-20_11-07-43_260595134347_rgbf000002-resize_1/001584_2014-06-20_11-07-43_260595134347_rgbf000002-resize_1-target.png,83,3.53,6,21771,84,feet,jsons/VE83_randls_23_rotated.json,1361818,1714259,35,Man
5,552014,DepthScenes,duration_manipulation_targetAtFixation,jsons/VE83_randls_23_rotated.json,http://54.235.29.9/FacialAge/BNav_EC2/DepthDuration/v2_depth_duration_MTurk/v2_DepthDuration_HTML.html#12,12,1366,651,1366,768,8-29-2023,9-43-9,6,depth_duration_stimuli/003621_2014-05-23_18-06-08_094959634447_rgbf000101-resize_1/003621_2014-05-23_18-06-08_094959634447_rgbf000101-resize_1-target.png,83,3.9835,7,17340,84,feet,jsons/VE83_randls_23_rotated.json,1361818,1714259,35,Man
6,552014,DepthScenes,duration_manipulation_targetAtFixation,jsons/VE83_randls_23_rotated.json,http://54.235.29.9/FacialAge/BNav_EC2/DepthDuration/v2_depth_duration_MTurk/v2_DepthDuration_HTML.html#12,12,1366,651,1366,768,8-29-2023,9-43-9,7,depth_duration_stimuli/001392_2014-06-19_16-07-59_260595134347_rgbf000046-resize_1/001392_2014-06-19_16-07-59_260595134347_rgbf000046-resize_1-target.png,83,4.135,7,9897,83,feet,jsons/VE83_randls_23_rotated.json,1361818,1714259,35,Man
7,552014,DepthScenes,duration_manipulation_targetAtFixation,jsons/VE83_randls_23_rotated.json,http://54.235.29.9/FacialAge/BNav_EC2/DepthDuration/v2_depth_duration_MTurk/v2_DepthDuration_HTML.html#12,12,1366,651,1366,768,8-29-2023,9-43-9,8,depth_duration_stimuli/001570_2014-06-20_17-21-09_260595134347_rgbf000135-resize_4/001570_2014-06-20_17-21-09_260595134347_rgbf000135-resize_4-target.png,83,4.467,6,9692,84,feet,jsons/VE83_randls_23_rotated.json,1361818,1714259,35,Man
8,552014,DepthScenes,duration_manipulation_targetAtFixation,jsons/VE83_randls_23_rotated.json,http://54.235.29.9/FacialAge/BNav_EC2/DepthDuration/v2_depth_duration_MTurk/v2_DepthDuration_HTML.html#12,12,1366,651,1366,768,8-29-2023,9-43-9,9,depth_duration_stimuli/001815_2014-06-26_20-52-55_260595134347_rgbf000020-resize_0/001815_2014-06-26_20-52-55_260595134347_rgbf000020-resize_0-target.png,83,3.3865,5,9975,82,feet,jsons/VE83_randls_23_rotated.json,1361818,1714259,35,Man
9,552014,DepthScenes,duration_manipulation_targetAtFixation,jsons/VE83_randls_23_rotated.json,http://54.235.29.9/FacialAge/BNav_EC2/DepthDuration/v2_depth_duration_MTurk/v2_DepthDuration_HTML.html#12,12,1366,651,1366,768,8-29-2023,9-43-9,10,depth_duration_stimuli/001808_2014-06-26_20-50-58_260595134347_rgbf000029-resize_1/001808_2014-06-26_20-50-58_260595134347_rgbf000029-resize_1-target.png,83,4.249,7,6554,82,feet,jsons/VE83_randls_23_rotated.json,1361818,1714259,35,Man
10,552014,DepthScenes,duration_manipulation_targetAtFixation,jsons/VE83_randls_23_rotated.json,http://54.235.29.9/FacialAge/BNav_EC2/DepthDuration/v2_depth_duration_MTurk/v2_DepthDuration_HTML.html#12,12,1366,651,1366,768,8-29-2023,9-43-9,11,depth_duration_stimuli/002995_2014-06-15_12-31-26_094959634447_rgbf000150-resize_1/002995_2014-06-15_12-31-26_094959634447_rgbf000150-resize_1-target.png,83,3.8360000000000003,7,4997,84,feet,jsons/VE83_randls_23_rotated.json,1361818,1714259,35,Man
11,552014,DepthScenes,duration_manipulation_targetAtFixation,jsons/VE83_randls_23_rotated.json,http://54.235.29.9/FacialAge/BNav_EC2/DepthDuration/v2_depth_duration_MTurk/v2_DepthDuration_HTML.html#12,12,1366,651,1366,768,8-29-2023,9-43-9,12,depth_duration_stimuli/002748_2014-06-22_19-07-22_094959634447_rgbf000078-resize_1/002748_2014-06-22_19-07-22_094959634447_rgbf000078-resize_1-target.png,83,4.6705,7,4514,83,feet,jsons/VE83_randls_23_rotated.json,1361818,1714259,35,Man
12,552014,DepthScenes,duration_manipulation_targetAtFixation,jsons/VE83_randls_23_rotated.json,http://54.235.29.9/FacialAge/BNav_EC2/DepthDuration/v2_depth_duration_MTurk/v2_DepthDuration_HTML.html#12,12,1366,651,1366,768,8-29-2023,9-43-9,13,depth_duration_stimuli/000549_2014-06-08_22-10-24_260595134347_rgbf000247-resize_3/000549_2014-06-08_22-10-24_260595134347_rgbf000247-resize_3-target.png,83,1.841,4,12497,84,feet,jsons/VE83_randls_23_rotated.json,1361818,1714259,35,Man
13,552014,DepthScenes,duration_manipulation_targetAtFixation,jsons/VE83_randls_23_rotated.json,http://54.235.29.9/FacialAge/BNav_EC2/DepthDuration/v2_depth_duration_MTurk/v2_DepthDuration_HTML.html#12,12,1366,651,1366,768,8-29-2023,9-43-9,14,depth_duration_stimuli/001055_2014-06-08_18-45-35_260595134347_rgbf000111-resize_4/001055_2014-06-08_18-45-35_260595134347_rgbf000111-resize_4-target.png,83,2.4290000000000003,6,6427,83,feet,jsons/VE83_randls_23_rotated.json,1361818,1714259,35,Man
14,552014,DepthScenes,duration_manipulation_targetAtFixation,jsons/VE83_randls_23_rotated.json,http://54.235.29.9/FacialAge/BNav_EC2/DepthDuration/v2_depth_duration_MTurk/v2_DepthDuration_HTML.html#12,12,1366,651,1366,768,8-29-2023,9-43-9,15,depth_duration_stimuli/001571_2014-06-20_17-21-32_260595134347_rgbf000089-resize_1/001571_2014-06-20_17-21-32_260595134347_rgbf000089-resize_1-target.png,83,1.86,4,15492,84,feet,jsons/VE83_randls_23_rotated.json,1361818,1714259,35,Man
15,552014,DepthScenes,duration_manipulation_targetAtFixation,jsons/VE83_randls_23_rotated.json,http://54.235.29.9/FacialAge/BNav_EC2/DepthDuration/v2_depth_duration_MTurk/v2_DepthDuration_HTML.html#12,12,1366,651,1366,768,8-29-2023,9-43-9,16,depth_duration_stimuli/002272_2014-06-28_18-53-56_260595134347_rgbf000067-resize_2/002272_2014-06-28_18-53-56_260595134347_rgbf000067-resize_2-target.png,83,1.138,4,8656,82,feet,jsons/VE83_randls_23_rotated.json,1361818,1714259,35,Man
16,552014,DepthScenes,duration_manipulation_targetAtFixation,jsons/VE83_randls_23_rotated.json,http://54.235.29.9/FacialAge/BNav_EC2/DepthDuration/v2_depth_duration_MTurk/v2_DepthDuration_HTML.html#12,12,1366,651,1366,768,8-29-2023,9-43-9,17,depth_duration_stimuli/001516_2014-06-20_16-25-09_260595134347_rgbf000076-resize_2/001516_2014-06-20_16-25-09_260595134347_rgbf000076-resize_2-target.png,83,1.7445,5,8274,84,feet,jsons/VE83_randls_23_rotated.json,1361818,1714259,35,Man
17,552014,DepthScenes,duration_manipulation_targetAtFixation,jsons/VE83_randls_23_rotated.json,http://54.235.29.9/FacialAge/BNav_EC2/DepthDuration/v2_depth_duration_MTurk/v2_DepthDuration_HTML.html#12,12,1366,651,1366,768,8-29-2023,9-43-9,18,depth_duration_stimuli/002118_2014-06-25_20-32-08_260595134347_rgbf000078-resize_1/002118_2014-06-25_20-32-08_260595134347_rgbf000078-resize_1-target.png,83,2.6460000000000004,5,8132,83,feet,jsons/VE83_randls_23_rotated.json,1361818,1714259,35,Man
18,552014,DepthScenes,duration_manipulation_targetAtFixation,jsons/VE83_randls_23_rotated.json,http://54.235.29.9/FacialAge/BNav_EC2/DepthDuration/v2_depth_duration_MTurk/v2_DepthDuration_HTML.html#12,12,1366,651,1366,768,8-29-2023,9-43-9,19,depth_duration_stimuli/001498_2014-06-19_17-45-14_260595134347_rgbf000129-resize_4/001498_2014-06-19_17-45-14_260595134347_rgbf000129-resize-original.jpg,83,1.4075,5,5749,84,feet,jsons/VE83_randls_23_rotated.json,1361818,1714259,35,Man
19,552014,DepthScenes,duration_manipulation_targetAtFixation,jsons/VE83_randls_23_rotated.json,http://54.235.29.9/FacialAge/BNav_EC2/DepthDuration/v2_depth_duration_MTurk/v2_DepthDuration_HTML.html#12,12,1366,651,1366,768,8-29-2023,9-43-9,20,depth_duration_stimuli/000866_2014-06-09_20-45-42_260595134347_rgbf000139-resize_1/000866_2014-06-09_20-45-42_260595134347_rgbf000139-resize_1-target.png,83,3.2155,5,13082,84,feet,jsons/VE83_randls_23_rotated.json,1361818,1714259,35,Man
20,552014,DepthScenes,duration_manipulation_targetAtFixation,jsons/VE83_randls_23_rotated.json,http://54.235.29.9/FacialAge/BNav_EC2/DepthDuration/v2_depth_duration_MTurk/v2_DepthDuration_HTML.html#12,12,1366,651,1366,768,8-29-2023,9-43-9,21,depth_duration_stimuli/002989_2014-06-15_12-25-03_094959634447_rgbf000150-resize_3/002989_2014-06-15_12-25-03_094959634447_rgbf000150-resize_3-target.png,83,4.1975,6,5090,84,feet,jsons/VE83_randls_23_rotated.json,1361818,1714259,35,Man
21,552014,DepthScenes,duration_manipulation_targetAtFixation,jsons/VE83_randls_23_rotated.json,http://54.235.29.9/FacialAge/BNav_EC2/DepthDuration/v2_depth_duration_MTurk/v2_DepthDuration_HTML.html#12,12,1366,651,1366,768,8-29-2023,9-43-9,22,depth_duration_stimuli/000691_2014-06-08_13-08-50_260595134347_rgbf000132-resize_3/000691_2014-06-08_13-08-50_260595134347_rgbf000132-resize_3-target.png,83,4.1530000000000005,7,5844,84,feet,jsons/VE83_randls_23_rotated.json,1361818,1714259,35,Man
22,552014,DepthScenes,duration_manipulation_targetAtFixation,jsons/VE83_randls_23_rotated.json,http://54.235.29.9/FacialAge/BNav_EC2/DepthDuration/v2_depth_duration_MTurk/v2_DepthDuration_HTML.html#12,12,1366,651,1366,768,8-29-2023,9-43-9,23,depth_duration_stimuli/002213_2014-06-28_18-37-58_260595134347_rgbf000055-resize_1/002213_2014-06-28_18-37-58_260595134347_rgbf000055-resize_1-target.png,83,3.62,6,4674,84,feet,jsons/VE83_randls_23_rotated.json,1361818,1714259,35,Man
23,552014,DepthScenes,duration_manipulation_targetAtFixation,jsons/VE83_randls_23_rotated.json,http://54.235.29.9/FacialAge/BNav_EC2/DepthDuration/v2_depth_duration_MTurk/v2_DepthDuration_HTML.html#12,12,1366,651,1366,768,8-29-2023,9-43-9,24,depth_duration_stimuli/001136_2014-06-17_15-19-41_260595134347_rgbf000076-resize_3/001136_2014-06-17_15-19-41_260595134347_rgbf000076-resize_3-target.png,83,1.8655,5,5951,83,feet,jsons/VE83_randls_23_rotated.json,1361818,1714259,35,Man
24,552014,DepthScenes,duration_manipulation_targetAtFixation,jsons/VE83_randls_23_rotated.json,http://54.235.29.9/FacialAge/BNav_EC2/DepthDuration/v2_depth_duration_MTurk/v2_DepthDuration_HTML.html#12,12,1366,651,1366,768,8-29-2023,9-43-9,25,depth_duration_stimuli/001164_2014-06-17_15-35-46_260595134347_rgbf000085-resize_3/001164_2014-06-17_15-35-46_260595134347_rgbf000085-resize_3-target.png,83,2.354,6,4260,83,feet,jsons/VE83_randls_23_rotated.json,1361818,1714259,35,Man
25,552014,DepthScenes,duration_manipulation_targetAtFixation,jsons/VE83_randls_23_rotated.json,http://54.235.29.9/FacialAge/BNav_EC2/DepthDuration/v2_depth_duration_MTurk/v2_DepthDuration_HTML.html#12,12,1366,651,1366,768,8-29-2023,9-43-9,26,depth_duration_stimuli/000103_2014-05-14_22-01-17_260595134347_rgbf000152-resize_5/000103_2014-05-14_22-01-17_260595134347_rgbf000152-resize_5-target.png,83,1.993,7,8595,84,feet,jsons/VE83_randls_23_rotated.json,1361818,1714259,35,Man
26,552014,DepthScenes,duration_manipulation_targetAtFixation,jsons/VE83_randls_23_rotated.json,http://54.235.29.9/FacialAge/BNav_EC2/DepthDuration/v2_depth_duration_MTurk/v2_DepthDuration_HTML.html#12,12,1366,651,1366,768,8-29-2023,9-43-9,27,depth_duration_stimuli/001555_2014-06-20_17-12-10_260595134347_rgbf000065-resize_4/001555_2014-06-20_17-12-10_260595134347_rgbf000065-resize_4-target.png,83,1.633,6,5194,84,feet,jsons/VE83_randls_23_rotated.json,1361818,1714259,35,Man
27,552014,DepthScenes,duration_manipulation_targetAtFixation,jsons/VE83_randls_23_rotated.json,http://54.235.29.9/FacialAge/BNav_EC2/DepthDuration/v2_depth_duration_MTurk/v2_DepthDuration_HTML.html#12,12,1366,651,1366,768,8-29-2023,9-43-9,28,depth_duration_stimuli/002467_2014-06-28_20-38-07_260595134347_rgbf000026-resize_2/002467_2014-06-28_20-38-07_260595134347_rgbf000026-resize_2-target.png,83,4.742,6,5771,84,feet,jsons/VE83_randls_23_rotated.json,1361818,1714259,35,Man
28,552014,DepthScenes,duration_manipulation_targetAtFixation,jsons/VE83_randls_23_rotated.json,http://54.235.29.9/FacialAge/BNav_EC2/DepthDuration/v2_depth_duration_MTurk/v2_DepthDuration_HTML.html#12,12,1366,651,1366,768,8-29-2023,9-43-9,29,depth_duration_stimuli/002570_2014-06-24_13-59-54_094959634447_rgbf000059-resize_0/002570_2014-06-24_13-59-54_094959634447_rgbf000059-resize_0-target.png,83,4.037,7,4534,84,feet,jsons/VE83_randls_23_rotated.json,1361818,1714259,35,Man
29,552014,DepthScenes,duration_manipulation_targetAtFixation,jsons/VE83_randls_23_rotated.json,http://54.235.29.9/FacialAge/BNav_EC2/DepthDuration/v2_depth_duration_MTurk/v2_DepthDuration_HTML.html#12,12,1366,651,1366,768,8-29-2023,9-43-9,30,depth_duration_stimuli/002072_2014-06-24_21-48-06_260595134347_rgbf000115-resize_0/002072_2014-06-24_21-48-06_260595134347_rgbf000115-resize-original.jpg,83,4.702,6,7357,83,feet,jsons/VE83_randls_23_rotated.json,1361818,1714259,35,Man
30,552014,DepthScenes,duration_manipulation_targetAtFixation,jsons/VE83_randls_23_rotated.json,http://54.235.29.9/FacialAge/BNav_EC2/DepthDuration/v2_depth_duration_MTurk/v2_DepthDuration_HTML.html#12,12,1366,651,1366,768,8-29-2023,9-43-9,31,depth_duration_stimuli/000749_2014-06-08_21-55-06_260595134347_rgbf000070-resize_2/000749_2014-06-08_21-55-06_260595134347_rgbf000070-resize_2-target.png,83,2.331,5,6153,84,feet,jsons/VE83_randls_23_rotated.json,1361818,1714259,35,Man
31,552014,DepthScenes,duration_manipulation_targetAtFixation,jsons/VE83_randls_23_rotated.json,http://54.235.29.9/FacialAge/BNav_EC2/DepthDuration/v2_depth_duration_MTurk/v2_DepthDuration_HTML.html#12,12,1366,651,1366,768,8-29-2023,9-43-9,32,depth_duration_stimuli/002788_2014-06-22_19-36-03_094959634447_rgbf000088-resize_2/002788_2014-06-22_19-36-03_094959634447_rgbf000088-resize_2-target.png,83,1.6465,7,4010,84,feet,jsons/VE83_randls_23_rotated.json,1361818,1714259,35,Man
32,552014,DepthScenes,duration_manipulation_targetAtFixation,jsons/VE83_randls_23_rotated.json,http://54.235.29.9/FacialAge/BNav_EC2/DepthDuration/v2_depth_duration_MTurk/v2_DepthDuration_HTML.html#12,12,1366,651,1366,768,8-29-2023,9-43-9,33,depth_duration_stimuli/002568_2014-06-24_13-59-21_094959634447_rgbf000062-resize_4/002568_2014-06-24_13-59-21_094959634447_rgbf000062-resize_4-target.png,83,3.015,7,9601,83,feet,jsons/VE83_randls_23_rotated.json,1361818,1714259,35,Man
33,552014,DepthScenes,duration_manipulation_targetAtFixation,jsons/VE83_randls_23_rotated.json,http://54.235.29.9/FacialAge/BNav_EC2/DepthDuration/v2_depth_duration_MTurk/v2_DepthDuration_HTML.html#12,12,1366,651,1366,768,8-29-2023,9-43-9,34,depth_duration_stimuli/003492_2014-05-21_15-50-55_094959634447_rgbf000828-resize_1/003492_2014-05-21_15-50-55_094959634447_rgbf000828-resize_1-target.png,83,4.06875,7,7487,84,feet,jsons/VE83_randls_23_rotated.json,1361818,1714259,35,Man
34,552014,DepthScenes,duration_manipulation_targetAtFixation,jsons/VE83_randls_23_rotated.json,http://54.235.29.9/FacialAge/BNav_EC2/DepthDuration/v2_depth_duration_MTurk/v2_DepthDuration_HTML.html#12,12,1366,651,1366,768,8-29-2023,9-43-9,35,depth_duration_stimuli/000854_2014-06-09_19-43-13_260595134347_rgbf000066-resize_0/000854_2014-06-09_19-43-13_260595134347_rgbf000066-resize_0-target.png,83,3.068,5,7402,83,feet,jsons/VE83_randls_23_rotated.json,1361818,1714259,35,Man
35,552014,DepthScenes,duration_manipulation_targetAtFixation,jsons/VE83_randls_23_rotated.json,http://54.235.29.9/FacialAge/BNav_EC2/DepthDuration/v2_depth_duration_MTurk/v2_DepthDuration_HTML.html#12,12,1366,651,1366,768,8-29-2023,9-43-9,36,depth_duration_stimuli/000758_2014-06-08_22-05-08_260595134347_rgbf000085-resize_0/000758_2014-06-08_22-05-08_260595134347_rgbf000085-resize_0-target.png,83,3.3810000000000002,7,6076,84,feet,jsons/VE83_randls_23_rotated.json,1361818,1714259,35,Man
36,552014,DepthScenes,duration_manipulation_targetAtFixation,jsons/VE83_randls_23_rotated.json,http://54.235.29.9/FacialAge/BNav_EC2/DepthDuration/v2_depth_duration_MTurk/v2_DepthDuration_HTML.html#12,12,1366,651,1366,768,8-29-2023,9-43-9,37,depth_duration_stimuli/002678_2014-06-13_16-15-32_094959634447_rgbf000151-resize_6/002678_2014-06-13_16-15-32_094959634447_rgbf000151-resize_6-target.png,83,2.1830000000000003,6,9304,83,feet,jsons/VE83_randls_23_rotated.json,1361818,1714259,35,Man
37,552014,DepthScenes,duration_manipulation_targetAtFixation,jsons/VE83_randls_23_rotated.json,http://54.235.29.9/FacialAge/BNav_EC2/DepthDuration/v2_depth_duration_MTurk/v2_DepthDuration_HTML.html#12,12,1366,651,1366,768,8-29-2023,9-43-9,38,depth_duration_stimuli/000368_2014-06-09_15-53-01_260595134347_rgbf000155-resize_2/000368_2014-06-09_15-53-01_260595134347_rgbf000155-resize_2-target.png,83,2.4859999999999998,5,6435,84,feet,jsons/VE83_randls_23_rotated.json,1361818,1714259,35,Man
38,552014,DepthScenes,duration_manipulation_targetAtFixation,jsons/VE83_randls_23_rotated.json,http://54.235.29.9/FacialAge/BNav_EC2/DepthDuration/v2_depth_duration_MTurk/v2_DepthDuration_HTML.html#12,12,1366,651,1366,768,8-29-2023,9-43-9,39,depth_duration_stimuli/000742_2014-06-08_18-48-09_260595134347_rgbf000164-resize_4/000742_2014-06-08_18-48-09_260595134347_rgbf000164-resize_4-target.png,83,4.632,8,9332,84,feet,jsons/VE83_randls_23_rotated.json,1361818,1714259,35,Man
39,552014,DepthScenes,duration_manipulation_targetAtFixation,jsons/VE83_randls_23_rotated.json,http://54.235.29.9/FacialAge/BNav_EC2/DepthDuration/v2_depth_duration_MTurk/v2_DepthDuration_HTML.html#12,12,1366,651,1366,768,8-29-2023,9-43-9,40,depth_duration_stimuli/001066_2014-06-08_22-03-20_260595134347_rgbf000066-resize_4/001066_2014-06-08_22-03-20_260595134347_rgbf000066-resize_4-target.png,83,4.2330000000000005,9,4251,83,feet,jsons/VE83_randls_23_rotated.json,1361818,1714259,35,Man
40,552014,DepthScenes,duration_manipulation_targetAtFixation,jsons/VE83_randls_23_rotated.json,http://54.235.29.9/FacialAge/BNav_EC2/DepthDuration/v2_depth_duration_MTurk/v2_DepthDuration_HTML.html#12,12,1366,651,1366,768,8-29-2023,9-43-9,41,depth_duration_stimuli/001032_2014-06-08_13-23-17_260595134347_rgbf000021-resize_3/001032_2014-06-08_13-23-17_260595134347_rgbf000021-resize_3-target.png,83,3.2725,6,6770,84,feet,jsons/VE83_randls_23_rotated.json,1361818,1714259,35,Man
41,552014,DepthScenes,duration_manipulation_targetAtFixation,jsons/VE83_randls_23_rotated.json,http://54.235.29.9/FacialAge/BNav_EC2/DepthDuration/v2_depth_duration_MTurk/v2_DepthDuration_HTML.html#12,12,1366,651,1366,768,8-29-2023,9-43-9,42,depth_duration_stimuli/001059_2014-06-08_21-53-27_260595134347_rgbf000061-resize_4/001059_2014-06-08_21-53-27_260595134347_rgbf000061-resize_4-target.png,83,2.4185,7,4911,84,feet,jsons/VE83_randls_23_rotated.json,1361818,1714259,35,Man
42,552014,DepthScenes,duration_manipulation_targetAtFixation,jsons/VE83_randls_23_rotated.json,http://54.235.29.9/FacialAge/BNav_EC2/DepthDuration/v2_depth_duration_MTurk/v2_DepthDuration_HTML.html#12,12,1366,651,1366,768,8-29-2023,9-43-9,43,depth_duration_stimuli/000635_2014-06-08_16-38-42_260595134347_rgbf000106-resize_1/000635_2014-06-08_16-38-42_260595134347_rgbf000106-resize_1-target.png,83,2.074,6,10860,83,feet,jsons/VE83_randls_23_rotated.json,1361818,1714259,35,Man
43,552014,DepthScenes,duration_manipulation_targetAtFixation,jsons/VE83_randls_23_rotated.json,http://54.235.29.9/FacialAge/BNav_EC2/DepthDuration/v2_depth_duration_MTurk/v2_DepthDuration_HTML.html#12,12,1366,651,1366,768,8-29-2023,9-43-9,44,depth_duration_stimuli/002279_2014-06-28_18-55-32_260595134347_rgbf000040-resize_5/002279_2014-06-28_18-55-32_260595134347_rgbf000040-resize_5-target.png,83,1.5043333333333,5,6884,84,feet,jsons/VE83_randls_23_rotated.json,1361818,1714259,35,Man
44,552014,DepthScenes,duration_manipulation_targetAtFixation,jsons/VE83_randls_23_rotated.json,http://54.235.29.9/FacialAge/BNav_EC2/DepthDuration/v2_depth_duration_MTurk/v2_DepthDuration_HTML.html#12,12,1366,651,1366,768,8-29-2023,9-43-9,45,depth_duration_stimuli/002340_2014-06-28_20-05-46_260595134347_rgbf000113-resize_0/002340_2014-06-28_20-05-46_260595134347_rgbf000113-resize_0-target.png,83,2.4735,9,7352,83,feet,jsons/VE83_randls_23_rotated.json,1361818,1714259,35,Man
45,552014,DepthScenes,duration_manipulation_targetAtFixation,jsons/VE83_randls_23_rotated.json,http://54.235.29.9/FacialAge/BNav_EC2/DepthDuration/v2_depth_duration_MTurk/v2_DepthDuration_HTML.html#12,12,1366,651,1366,768,8-29-2023,9-43-9,46,depth_duration_stimuli/001016_2014-06-09_16-16-10_260595134347_rgbf000112-resize_5/001016_2014-06-09_16-16-10_260595134347_rgbf000112-resize_5-target.png,83,1.6565,7,3990,84,feet,jsons/VE83_randls_23_rotated.json,1361818,1714259,35,Man
46,552014,DepthScenes,duration_manipulation_targetAtFixation,jsons/VE83_randls_23_rotated.json,http://54.235.29.9/FacialAge/BNav_EC2/DepthDuration/v2_depth_duration_MTurk/v2_DepthDuration_HTML.html#12,12,1366,651,1366,768,8-29-2023,9-43-9,47,depth_duration_stimuli/001132_2014-06-17_14-48-54_260595134347_rgbf000100-resize_2/001132_2014-06-17_14-48-54_260595134347_rgbf000100-resize_2-target.png,83,3.753,7,9607,84,feet,jsons/VE83_randls_23_rotated.json,1361818,1714259,35,Man
47,552014,DepthScenes,duration_manipulation_targetAtFixation,jsons/VE83_randls_23_rotated.json,http://54.235.29.9/FacialAge/BNav_EC2/DepthDuration/v2_depth_duration_MTurk/v2_DepthDuration_HTML.html#12,12,1366,651,1366,768,8-29-2023,9-43-9,48,depth_duration_stimuli/001133_2014-06-17_14-49-16_260595134347_rgbf000100-resize_0/001133_2014-06-17_14-49-16_260595134347_rgbf000100-resize_0-target.png,83,4.2115,8,5449,83,feet,jsons/VE83_randls_23_rotated.json,1361818,1714259,35,Man
48,552014,DepthScenes,duration_manipulation_targetAtFixation,jsons/VE83_randls_23_rotated.json,http://54.235.29.9/FacialAge/BNav_EC2/DepthDuration/v2_depth_duration_MTurk/v2_DepthDuration_HTML.html#12,12,1366,651,1366,768,8-29-2023,9-43-9,49,depth_duration_stimuli/001170_2014-06-17_15-43-44_260595134347_rgbf000096-resize_6/001170_2014-06-17_15-43-44_260595134347_rgbf000096-resize-original.jpg,83,1.1909999999999998,5,7171,83,feet,jsons/VE83_randls_23_rotated.json,1361818,1714259,35,Man
49,552014,DepthScenes,duration_manipulation_targetAtFixation,jsons/VE83_randls_23_rotated.json,http://54.235.29.9/FacialAge/BNav_EC2/DepthDuration/v2_depth_duration_MTurk/v2_DepthDuration_HTML.html#12,12,1366,651,1366,768,8-29-2023,9-43-9,50,depth_duration_stimuli/001094_2014-06-15_17-36-00_260595134347_rgbf000205-resize_0/001094_2014-06-15_17-36-00_260595134347_rgbf000205-resize_0-target.png,83,4.2175,9,7628,84,feet,jsons/VE83_randls_23_rotated.json,1361818,1714259,35,Man
50,552014,DepthScenes,duration_manipulation_targetAtFixation,jsons/VE83_randls_23_rotated.json,http://54.235.29.9/FacialAge/BNav_EC2/DepthDuration/v2_depth_duration_MTurk/v2_DepthDuration_HTML.html#12,12,1366,651,1366,768,8-29-2023,9-43-9,51,depth_duration_stimuli/000692_2014-06-08_13-09-42_260595134347_rgbf000199-resize_2/000692_2014-06-08_13-09-42_260595134347_rgbf000199-resize_2-target.png,83,3.661,9,4639,84,feet,jsons/VE83_randls_23_rotated.json,1361818,1714259,35,Man
51,552014,DepthScenes,duration_manipulation_targetAtFixation,jsons/VE83_randls_23_rotated.json,http://54.235.29.9/FacialAge/BNav_EC2/DepthDuration/v2_depth_duration_MTurk/v2_DepthDuration_HTML.html#12,12,1366,651,1366,768,8-29-2023,9-43-9,52,depth_duration_stimuli/001214_2014-06-17_16-13-55_260595134347_rgbf000111-resize_0/001214_2014-06-17_16-13-55_260595134347_rgbf000111-resize_0-target.png,83,2.6505,7,5253,83,feet,jsons/VE83_randls_23_rotated.json,1361818,1714259,35,Man
52,552014,DepthScenes,duration_manipulation_targetAtFixation,jsons/VE83_randls_23_rotated.json,http://54.235.29.9/FacialAge/BNav_EC2/DepthDuration/v2_depth_duration_MTurk/v2_DepthDuration_HTML.html#12,12,1366,651,1366,768,8-29-2023,9-43-9,53,depth_duration_stimuli/000810_2014-06-08_17-20-01_260595134347_rgbf000105-resize_0/000810_2014-06-08_17-20-01_260595134347_rgbf000105-resize_0-target.png,83,1.4865,8,6040,84,feet,jsons/VE83_randls_23_rotated.json,1361818,1714259,35,Man
53,552014,DepthScenes,duration_manipulation_targetAtFixation,jsons/VE83_randls_23_rotated.json,http://54.235.29.9/FacialAge/BNav_EC2/DepthDuration/v2_depth_duration_MTurk/v2_DepthDuration_HTML.html#12,12,1366,651,1366,768,8-29-2023,9-43-9,54,depth_duration_stimuli/001100_2014-06-15_17-46-26_260595134347_rgbf000225-resize_2/001100_2014-06-15_17-46-26_260595134347_rgbf000225-resize_2-target.png,83,2.24,5,5181,84,feet,jsons/VE83_randls_23_rotated.json,1361818,1714259,35,Man
54,552014,DepthScenes,duration_manipulation_targetAtFixation,jsons/VE83_randls_23_rotated.json,http://54.235.29.9/FacialAge/BNav_EC2/DepthDuration/v2_depth_duration_MTurk/v2_DepthDuration_HTML.html#12,12,1366,651,1366,768,8-29-2023,9-43-9,55,depth_duration_stimuli/002784_2014-06-22_19-26-30_094959634447_rgbf000083-resize_3/002784_2014-06-22_19-26-30_094959634447_rgbf000083-resize_3-target.png,83,1.8046666666667,5,4614,83,feet,jsons/VE83_randls_23_rotated.json,1361818,1714259,35,Man
55,552014,DepthScenes,duration_manipulation_targetAtFixation,jsons/VE83_randls_23_rotated.json,http://54.235.29.9/FacialAge/BNav_EC2/DepthDuration/v2_depth_duration_MTurk/v2_DepthDuration_HTML.html#12,12,1366,651,1366,768,8-29-2023,9-43-9,56,depth_duration_stimuli/003010_2014-06-15_12-54-35_094959634447_rgbf000112-resize_0/003010_2014-06-15_12-54-35_094959634447_rgbf000112-resize_0-target.png,83,3.1185,8,7373,84,feet,jsons/VE83_randls_23_rotated.json,1361818,1714259,35,Man
56,552014,DepthScenes,duration_manipulation_targetAtFixation,jsons/VE83_randls_23_rotated.json,http://54.235.29.9/FacialAge/BNav_EC2/DepthDuration/v2_depth_duration_MTurk/v2_DepthDuration_HTML.html#12,12,1366,651,1366,768,8-29-2023,9-43-9,57,depth_duration_stimuli/001810_2014-06-26_20-51-35_260595134347_rgbf000040-resize_3/001810_2014-06-26_20-51-35_260595134347_rgbf000040-resize_3-target.png,83,2.2525,6,5498,84,feet,jsons/VE83_randls_23_rotated.json,1361818,1714259,35,Man
57,552014,DepthScenes,duration_manipulation_targetAtFixation,jsons/VE83_randls_23_rotated.json,http://54.235.29.9/FacialAge/BNav_EC2/DepthDuration/v2_depth_duration_MTurk/v2_DepthDuration_HTML.html#12,12,1366,651,1366,768,8-29-2023,9-43-9,58,depth_duration_stimuli/000457_2014-06-08_16-52-43_260595134347_rgbf000199-resize_1/000457_2014-06-08_16-52-43_260595134347_rgbf000199-resize_1-target.png,83,3.6489999999999996,8,13055,84,feet,jsons/VE83_randls_23_rotated.json,1361818,1714259,35,Man
58,552014,DepthScenes,duration_manipulation_targetAtFixation,jsons/VE83_randls_23_rotated.json,http://54.235.29.9/FacialAge/BNav_EC2/DepthDuration/v2_depth_duration_MTurk/v2_DepthDuration_HTML.html#12,12,1366,651,1366,768,8-29-2023,9-43-9,59,depth_duration_stimuli/000929_2014-06-09_16-33-19_260595134347_rgbf000139-resize_0/000929_2014-06-09_16-33-19_260595134347_rgbf000139-resize_0-target.png,83,2.8680000000000003,7,3862,83,feet,jsons/VE83_randls_23_rotated.json,1361818,1714259,35,Man
59,552014,DepthScenes,duration_manipulation_targetAtFixation,jsons/VE83_randls_23_rotated.json,http://54.235.29.9/FacialAge/BNav_EC2/DepthDuration/v2_depth_duration_MTurk/v2_DepthDuration_HTML.html#12,12,1366,651,1366,768,8-29-2023,9-43-9,60,depth_duration_stimuli/001447_2014-06-19_17-00-32_260595134347_rgbf000082-resize_5/001447_2014-06-19_17-00-32_260595134347_rgbf000082-resize_5-target.png,83,4.13775,5,6269,84,feet,jsons/VE83_randls_23_rotated.json,1361818,1714259,35,Man
60,552014,DepthScenes,duration_manipulation_targetAtFixation,jsons/VE83_randls_23_rotated.json,http://54.235.29.9/FacialAge/BNav_EC2/DepthDuration/v2_depth_duration_MTurk/v2_DepthDuration_HTML.html#12,12,1366,651,1366,768,8-29-2023,9-43-9,61,depth_duration_stimuli/000447_2014-06-08_16-15-46_260595134347_rgbf000130-resize_1/000447_2014-06-08_16-15-46_260595134347_rgbf000130-resize_1-target.png,83,4.479,8,3868,83,feet,jsons/VE83_randls_23_rotated.json,1361818,1714259,35,Man
61,552014,DepthScenes,duration_manipulation_targetAtFixation,jsons/VE83_randls_23_rotated.json,http://54.235.29.9/FacialAge/BNav_EC2/DepthDuration/v2_depth_duration_MTurk/v2_DepthDuration_HTML.html#12,12,1366,651,1366,768,8-29-2023,9-43-9,62,depth_duration_stimuli/000483_2014-06-09_20-41-45_260595134347_rgbf000116-resize_4/000483_2014-06-09_20-41-45_260595134347_rgbf000116-resize_4-target.png,83,1.337,3,7043,84,feet,jsons/VE83_randls_23_rotated.json,1361818,1714259,35,Man
62,552014,DepthScenes,duration_manipulation_targetAtFixation,jsons/VE83_randls_23_rotated.json,http://54.235.29.9/FacialAge/BNav_EC2/DepthDuration/v2_depth_duration_MTurk/v2_DepthDuration_HTML.html#12,12,1366,651,1366,768,8-29-2023,9-43-9,63,depth_duration_stimuli/000469_2014-06-09_19-42-10_260595134347_rgbf000081-resize_1/000469_2014-06-09_19-42-10_260595134347_rgbf000081-resize_1-target.png,83,1.652,5,4558,84,feet,jsons/VE83_randls_23_rotated.json,1361818,1714259,35,Man
63,552014,DepthScenes,duration_manipulation_targetAtFixation,jsons/VE83_randls_23_rotated.json,http://54.235.29.9/FacialAge/BNav_EC2/DepthDuration/v2_depth_duration_MTurk/v2_DepthDuration_HTML.html#12,12,1366,651,1366,768,8-29-2023,9-43-9,64,depth_duration_stimuli/003490_2014-05-21_15-50-11_094959634447_rgbf000101-resize_3/003490_2014-05-21_15-50-11_094959634447_rgbf000101-resize_3-target.png,83,3.6445,6,8357,83,feet,jsons/VE83_randls_23_rotated.json,1361818,1714259,35,Man
64,552014,DepthScenes,duration_manipulation_targetAtFixation,jsons/VE83_randls_23_rotated.json,http://54.235.29.9/FacialAge/BNav_EC2/DepthDuration/v2_depth_duration_MTurk/v2_DepthDuration_HTML.html#12,12,1366,651,1366,768,8-29-2023,9-43-9,65,depth_duration_stimuli/001175_2014-06-17_15-45-55_260595134347_rgbf000129-resize_4/001175_2014-06-17_15-45-55_260595134347_rgbf000129-resize_4-target.png,83,4.255,9,4898,84,feet,jsons/VE83_randls_23_rotated.json,1361818,1714259,35,Man
65,552014,DepthScenes,duration_manipulation_targetAtFixation,jsons/VE83_randls_23_rotated.json,http://54.235.29.9/FacialAge/BNav_EC2/DepthDuration/v2_depth_duration_MTurk/v2_DepthDuration_HTML.html#12,12,1366,651,1366,768,8-29-2023,9-43-9,66,depth_duration_stimuli/001540_2014-06-20_17-01-05_260595134347_rgbf000086-resize_2/001540_2014-06-20_17-01-05_260595134347_rgbf000086-resize-original.jpg,83,1.459,8,4667,83,feet,jsons/VE83_randls_23_rotated.json,1361818,1714259,35,Man
66,552014,DepthScenes,duration_manipulation_targetAtFixation,jsons/VE83_randls_23_rotated.json,http://54.235.29.9/FacialAge/BNav_EC2/DepthDuration/v2_depth_duration_MTurk/v2_DepthDuration_HTML.html#12,12,1366,651,1366,768,8-29-2023,9-43-9,67,depth_duration_stimuli/000191_2014-05-12_17-07-38_260595134347_rgbf000199-resize_0/000191_2014-05-12_17-07-38_260595134347_rgbf000199-resize_0-target.png,83,3.7995,12,8443,83,feet,jsons/VE83_randls_23_rotated.json,1361818,1714259,35,Man
67,552014,DepthScenes,duration_manipulation_targetAtFixation,jsons/VE83_randls_23_rotated.json,http://54.235.29.9/FacialAge/BNav_EC2/DepthDuration/v2_depth_duration_MTurk/v2_DepthDuration_HTML.html#12,12,1366,651,1366,768,8-29-2023,9-43-9,68,depth_duration_stimuli/000493_2014-06-09_21-01-18_260595134347_rgbf000196-resize_3/000493_2014-06-09_21-01-18_260595134347_rgbf000196-resize_3-target.png,83,3.44,8,3738,84,feet,jsons/VE83_randls_23_rotated.json,1361818,1714259,35,Man
68,552014,DepthScenes,duration_manipulation_targetAtFixation,jsons/VE83_randls_23_rotated.json,http://54.235.29.9/FacialAge/BNav_EC2/DepthDuration/v2_depth_duration_MTurk/v2_DepthDuration_HTML.html#12,12,1366,651,1366,768,8-29-2023,9-43-9,69,depth_duration_stimuli/002657_2014-06-13_15-29-54_094959634447_rgbf000150-resize_1/002657_2014-06-13_15-29-54_094959634447_rgbf000150-resize_1-target.png,83,4.919,9,7213,84,feet,jsons/VE83_randls_23_rotated.json,1361818,1714259,35,Man
69,552014,DepthScenes,duration_manipulation_targetAtFixation,jsons/VE83_randls_23_rotated.json,http://54.235.29.9/FacialAge/BNav_EC2/DepthDuration/v2_depth_duration_MTurk/v2_DepthDuration_HTML.html#12,12,1366,651,1366,768,8-29-2023,9-43-9,70,depth_duration_stimuli/002375_2014-06-28_20-13-44_260595134347_rgbf000032-resize_1/002375_2014-06-28_20-13-44_260595134347_rgbf000032-resize_1-target.png,83,4.0175,9,4738,84,feet,jsons/VE83_randls_23_rotated.json,1361818,1714259,35,Man
70,552014,DepthScenes,duration_manipulation_targetAtFixation,jsons/VE83_randls_23_rotated.json,http://54.235.29.9/FacialAge/BNav_EC2/DepthDuration/v2_depth_duration_MTurk/v2_DepthDuration_HTML.html#12,12,1366,651,1366,768,8-29-2023,9-43-9,71,depth_duration_stimuli/000556_2014-06-09_22-42-56_260595134347_rgbf000214-resize_1/000556_2014-06-09_22-42-56_260595134347_rgbf000214-resize_1-target.png,83,4.8415,7,6318,84,feet,jsons/VE83_randls_23_rotated.json,1361818,1714259,35,Man
71,552014,DepthScenes,duration_manipulation_targetAtFixation,jsons/VE83_randls_23_rotated.json,http://54.235.29.9/FacialAge/BNav_EC2/DepthDuration/v2_depth_duration_MTurk/v2_DepthDuration_HTML.html#12,12,1366,651,1366,768,8-29-2023,9-43-9,72,depth_duration_stimuli/001158_2014-06-17_15-32-16_260595134347_rgbf000138-resize_2/001158_2014-06-17_15-32-16_260595134347_rgbf000138-resize_2-target.png,83,4.5315,8,6608,84,feet,jsons/VE83_randls_23_rotated.json,1361818,1714259,35,Man
72,552014,DepthScenes,duration_manipulation_targetAtFixation,jsons/VE83_randls_23_rotated.json,http://54.235.29.9/FacialAge/BNav_EC2/DepthDuration/v2_depth_duration_MTurk/v2_DepthDuration_HTML.html#12,12,1366,651,1366,768,8-29-2023,9-43-9,73,depth_duration_stimuli/000780_2014-06-08_22-28-29_260595134347_rgbf000126-resize_1/000780_2014-06-08_22-28-29_260595134347_rgbf000126-resize_1-target.png,83,3.3825,9,7779,84,feet,jsons/VE83_randls_23_rotated.json,1361818,1714259,35,Man
73,552014,DepthScenes,duration_manipulation_targetAtFixation,jsons/VE83_randls_23_rotated.json,http://54.235.29.9/FacialAge/BNav_EC2/DepthDuration/v2_depth_duration_MTurk/v2_DepthDuration_HTML.html#12,12,1366,651,1366,768,8-29-2023,9-43-9,74,depth_duration_stimuli/002445_2014-06-28_20-32-16_260595134347_rgbf000029-resize_4/002445_2014-06-28_20-32-16_260595134347_rgbf000029-resize_4-target.png,83,2.5315,6,4226,84,feet,jsons/VE83_randls_23_rotated.json,1361818,1714259,35,Man
74,552014,DepthScenes,duration_manipulation_targetAtFixation,jsons/VE83_randls_23_rotated.json,http://54.235.29.9/FacialAge/BNav_EC2/DepthDuration/v2_depth_duration_MTurk/v2_DepthDuration_HTML.html#12,12,1366,651,1366,768,8-29-2023,9-43-9,75,depth_duration_stimuli/002344_2014-06-28_20-06-29_260595134347_rgbf000030-resize_1/002344_2014-06-28_20-06-29_260595134347_rgbf000030-resize_1-target.png,83,1.5795,4,5501,83,feet,jsons/VE83_randls_23_rotated.json,1361818,1714259,35,Man
75,552014,DepthScenes,duration_manipulation_targetAtFixation,jsons/VE83_randls_23_rotated.json,http://54.235.29.9/FacialAge/BNav_EC2/DepthDuration/v2_depth_duration_MTurk/v2_DepthDuration_HTML.html#12,12,1366,651,1366,768,8-29-2023,9-43-9,76,depth_duration_stimuli/002725_2014-06-22_11-47-51_094959634447_rgbf000070-resize_1/002725_2014-06-22_11-47-51_094959634447_rgbf000070-resize_1-target.png,83,2.195,5,4538,84,feet,jsons/VE83_randls_23_rotated.json,1361818,1714259,35,Man
76,552014,DepthScenes,duration_manipulation_targetAtFixation,jsons/VE83_randls_23_rotated.json,http://54.235.29.9/FacialAge/BNav_EC2/DepthDuration/v2_depth_duration_MTurk/v2_DepthDuration_HTML.html#12,12,1366,651,1366,768,8-29-2023,9-43-9,77,depth_duration_stimuli/003338_2014-05-20_11-01-23_094959634447_rgbf000051-resize_6/003338_2014-05-20_11-01-23_094959634447_rgbf000051-resize_6-target.png,83,1.693,5,4659,84,feet,jsons/VE83_randls_23_rotated.json,1361818,1714259,35,Man
77,552014,DepthScenes,duration_manipulation_targetAtFixation,jsons/VE83_randls_23_rotated.json,http://54.235.29.9/FacialAge/BNav_EC2/DepthDuration/v2_depth_duration_MTurk/v2_DepthDuration_HTML.html#12,12,1366,651,1366,768,8-29-2023,9-43-9,78,depth_duration_stimuli/002509_2014-06-24_13-19-22_094959634447_rgbf000077-resize_0/002509_2014-06-24_13-19-22_094959634447_rgbf000077-resize_0-target.png,83,1.3065,5,4468,82,feet,jsons/VE83_randls_23_rotated.json,1361818,1714259,35,Man
78,552014,DepthScenes,duration_manipulation_targetAtFixation,jsons/VE83_randls_23_rotated.json,http://54.235.29.9/FacialAge/BNav_EC2/DepthDuration/v2_depth_duration_MTurk/v2_DepthDuration_HTML.html#12,12,1366,651,1366,768,8-29-2023,9-43-9,79,depth_duration_stimuli/002103_2014-06-25_20-00-40_260595134347_rgbf000049-resize_0/002103_2014-06-25_20-00-40_260595134347_rgbf000049-resize_0-target.png,83,4.105,4,8178,82,feet,jsons/VE83_randls_23_rotated.json,1361818,1714259,35,Man
79,552014,DepthScenes,duration_manipulation_targetAtFixation,jsons/VE83_randls_23_rotated.json,http://54.235.29.9/FacialAge/BNav_EC2/DepthDuration/v2_depth_duration_MTurk/v2_DepthDuration_HTML.html#12,12,1366,651,1366,768,8-29-2023,9-43-9,80,depth_duration_stimuli/002039_2014-06-24_20-22-38_260595134347_rgbf000084-resize_1/002039_2014-06-24_20-22-38_260595134347_rgbf000084-resize_1-target.png,83,4.408,10,6036,83,feet,jsons/VE83_randls_23_rotated.json,1361818,1714259,35,Man
80,552014,DepthScenes,duration_manipulation_targetAtFixation,jsons/VE83_randls_23_rotated.json,http://54.235.29.9/FacialAge/BNav_EC2/DepthDuration/v2_depth_duration_MTurk/v2_DepthDuration_HTML.html#12,12,1366,651,1366,768,8-29-2023,9-43-9,81,depth_duration_stimuli/002414_2014-06-28_20-24-58_260595134347_rgbf000067-resize_4/002414_2014-06-28_20-24-58_260595134347_rgbf000067-resize_4-target.png,83,4.363,9,6106,84,feet,jsons/VE83_randls_23_rotated.json,1361818,1714259,35,Man
81,552014,DepthScenes,duration_manipulation_targetAtFixation,jsons/VE83_randls_23_rotated.json,http://54.235.29.9/FacialAge/BNav_EC2/DepthDuration/v2_depth_duration_MTurk/v2_DepthDuration_HTML.html#12,12,1366,651,1366,768,8-29-2023,9-43-9,82,depth_duration_stimuli/000773_2014-06-08_22-24-54_260595134347_rgbf000093-resize_1/000773_2014-06-08_22-24-54_260595134347_rgbf000093-resize_1-target.png,83,4.973,8,3036,84,feet,jsons/VE83_randls_23_rotated.json,1361818,1714259,35,Man
82,552014,DepthScenes,duration_manipulation_targetAtFixation,jsons/VE83_randls_23_rotated.json,http://54.235.29.9/FacialAge/BNav_EC2/DepthDuration/v2_depth_duration_MTurk/v2_DepthDuration_HTML.html#12,12,1366,651,1366,768,8-29-2023,9-43-9,83,depth_duration_stimuli/002953_2014-06-08_17-32-18_094959634447_rgbf000059-resize_5/002953_2014-06-08_17-32-18_094959634447_rgbf000059-resize_5-target.png,83,1.551,5,5619,84,feet,jsons/VE83_randls_23_rotated.json,1361818,1714259,35,Man
83,552014,DepthScenes,duration_manipulation_targetAtFixation,jsons/VE83_randls_23_rotated.json,http://54.235.29.9/FacialAge/BNav_EC2/DepthDuration/v2_depth_duration_MTurk/v2_DepthDuration_HTML.html#12,12,1366,651,1366,768,8-29-2023,9-43-9,84,depth_duration_stimuli/000878_2014-06-08_22-52-45_260595134347_rgbf000045-resize_2/000878_2014-06-08_22-52-45_260595134347_rgbf000045-resize_2-target.png,83,2.092,9,4347,84,feet,jsons/VE83_randls_23_rotated.json,1361818,1714259,35,Man
84,552014,DepthScenes,duration_manipulation_targetAtFixation,jsons/VE83_randls_23_rotated.json,http://54.235.29.9/FacialAge/BNav_EC2/DepthDuration/v2_depth_duration_MTurk/v2_DepthDuration_HTML.html#12,12,1366,651,1366,768,8-29-2023,9-43-9,85,depth_duration_stimuli/001617_2014-06-20_11-35-32_260595134347_rgbf000066-resize_1/001617_2014-06-20_11-35-32_260595134347_rgbf000066-resize_1-target.png,83,3.7910000000000004,8,6020,83,feet,jsons/VE83_randls_23_rotated.json,1361818,1714259,35,Man
85,552014,DepthScenes,duration_manipulation_targetAtFixation,jsons/VE83_randls_23_rotated.json,http://54.235.29.9/FacialAge/BNav_EC2/DepthDuration/v2_depth_duration_MTurk/v2_DepthDuration_HTML.html#12,12,1366,651,1366,768,8-29-2023,9-43-9,86,depth_duration_stimuli/001806_2014-06-26_20-50-20_260595134347_rgbf000091-resize_1/001806_2014-06-26_20-50-20_260595134347_rgbf000091-resize_1-target.png,83,2.7305,9,4371,82,feet,jsons/VE83_randls_23_rotated.json,1361818,1714259,35,Man
86,552014,DepthScenes,duration_manipulation_targetAtFixation,jsons/VE83_randls_23_rotated.json,http://54.235.29.9/FacialAge/BNav_EC2/DepthDuration/v2_depth_duration_MTurk/v2_DepthDuration_HTML.html#12,12,1366,651,1366,768,8-29-2023,9-43-9,87,depth_duration_stimuli/003495_2014-05-21_16-01-51_094959634447_rgbf000100-resize_3/003495_2014-05-21_16-01-51_094959634447_rgbf000100-resize_3-target.png,83,1.6255,9,7211,84,feet,jsons/VE83_randls_23_rotated.json,1361818,1714259,35,Man
87,552014,DepthScenes,duration_manipulation_targetAtFixation,jsons/VE83_randls_23_rotated.json,http://54.235.29.9/FacialAge/BNav_EC2/DepthDuration/v2_depth_duration_MTurk/v2_DepthDuration_HTML.html#12,12,1366,651,1366,768,8-29-2023,9-43-9,88,depth_duration_stimuli/001244_2014-06-17_16-47-45_260595134347_rgbf000030-resize_4/001244_2014-06-17_16-47-45_260595134347_rgbf000030-resize_4-target.png,83,2.0425,7,3452,83,feet,jsons/VE83_randls_23_rotated.json,1361818,1714259,35,Man
88,552014,DepthScenes,duration_manipulation_targetAtFixation,jsons/VE83_randls_23_rotated.json,http://54.235.29.9/FacialAge/BNav_EC2/DepthDuration/v2_depth_duration_MTurk/v2_DepthDuration_HTML.html#12,12,1366,651,1366,768,8-29-2023,9-43-9,89,depth_duration_stimuli/002805_2014-06-22_19-54-03_094959634447_rgbf000079-resize_1/002805_2014-06-22_19-54-03_094959634447_rgbf000079-resize_1-target.png,83,3.1439999999999997,8,4402,83,feet,jsons/VE83_randls_23_rotated.json,1361818,1714259,35,Man
89,552014,DepthScenes,duration_manipulation_targetAtFixation,jsons/VE83_randls_23_rotated.json,http://54.235.29.9/FacialAge/BNav_EC2/DepthDuration/v2_depth_duration_MTurk/v2_DepthDuration_HTML.html#12,12,1366,651,1366,768,8-29-2023,9-43-9,90,depth_duration_stimuli/000906_2014-06-08_13-35-43_260595134347_rgbf000155-resize_1/000906_2014-06-08_13-35-43_260595134347_rgbf000155-resize_1-target.png,83,2.8489999999999998,7,7106,83,feet,jsons/VE83_randls_23_rotated.json,1361818,1714259,35,Man
90,552014,DepthScenes,duration_manipulation_targetAtFixation,jsons/VE83_randls_23_rotated.json,http://54.235.29.9/FacialAge/BNav_EC2/DepthDuration/v2_depth_duration_MTurk/v2_DepthDuration_HTML.html#12,12,1366,651,1366,768,8-29-2023,9-43-9,91,depth_duration_stimuli/000734_2014-06-08_17-39-11_260595134347_rgbf000128-resize_2/000734_2014-06-08_17-39-11_260595134347_rgbf000128-resize_2-target.png,83,4.098,6,4316,83,feet,jsons/VE83_randls_23_rotated.json,1361818,1714259,35,Man
91,552014,DepthScenes,duration_manipulation_targetAtFixation,jsons/VE83_randls_23_rotated.json,http://54.235.29.9/FacialAge/BNav_EC2/DepthDuration/v2_depth_duration_MTurk/v2_DepthDuration_HTML.html#12,12,1366,651,1366,768,8-29-2023,9-43-9,92,depth_duration_stimuli/000739_2014-06-08_18-45-58_260595134347_rgbf000068-resize_1/000739_2014-06-08_18-45-58_260595134347_rgbf000068-resize_1-target.png,83,3.534,8,4220,84,feet,jsons/VE83_randls_23_rotated.json,1361818,1714259,35,Man
92,552014,DepthScenes,duration_manipulation_targetAtFixation,jsons/VE83_randls_23_rotated.json,http://54.235.29.9/FacialAge/BNav_EC2/DepthDuration/v2_depth_duration_MTurk/v2_DepthDuration_HTML.html#12,12,1366,651,1366,768,8-29-2023,9-43-9,93,depth_duration_stimuli/002136_2014-06-25_21-18-03_260595134347_rgbf000109-resize_3/002136_2014-06-25_21-18-03_260595134347_rgbf000109-resize_3-target.png,83,1.9569999999999999,5,8403,84,feet,jsons/VE83_randls_23_rotated.json,1361818,1714259,35,Man
93,552014,DepthScenes,duration_manipulation_targetAtFixation,jsons/VE83_randls_23_rotated.json,http://54.235.29.9/FacialAge/BNav_EC2/DepthDuration/v2_depth_duration_MTurk/v2_DepthDuration_HTML.html#12,12,1366,651,1366,768,8-29-2023,9-43-9,94,depth_duration_stimuli/002964_2014-06-08_17-46-11_094959634447_rgbf000091-resize_4/002964_2014-06-08_17-46-11_094959634447_rgbf000091-resize_4-target.png,83,1.6909999999999998,7,3604,84,feet,jsons/VE83_randls_23_rotated.json,1361818,1714259,35,Man
94,552014,DepthScenes,duration_manipulation_targetAtFixation,jsons/VE83_randls_23_rotated.json,http://54.235.29.9/FacialAge/BNav_EC2/DepthDuration/v2_depth_duration_MTurk/v2_DepthDuration_HTML.html#12,12,1366,651,1366,768,8-29-2023,9-43-9,95,depth_duration_stimuli/000109_2014-05-14_23-41-52_260595134347_rgbf000035-resize_9/000109_2014-05-14_23-41-52_260595134347_rgbf000035-resize_9-target.png,83,1.3545,5,4930,84,feet,jsons/VE83_randls_23_rotated.json,1361818,1714259,35,Man
95,552014,DepthScenes,duration_manipulation_targetAtFixation,jsons/VE83_randls_23_rotated.json,http://54.235.29.9/FacialAge/BNav_EC2/DepthDuration/v2_depth_duration_MTurk/v2_DepthDuration_HTML.html#12,12,1366,651,1366,768,8-29-2023,9-43-9,96,depth_duration_stimuli/000470_2014-06-09_19-42-40_260595134347_rgbf000094-resize_1/000470_2014-06-09_19-42-40_260595134347_rgbf000094-resize_1-target.png,83,1.831,6,3970,84,feet,jsons/VE83_randls_23_rotated.json,1361818,1714259,35,Man
96,552014,DepthScenes,duration_manipulation_targetAtFixation,jsons/VE83_randls_23_rotated.json,http://54.235.29.9/FacialAge/BNav_EC2/DepthDuration/v2_depth_duration_MTurk/v2_DepthDuration_HTML.html#12,12,1366,651,1366,768,8-29-2023,9-43-9,97,depth_duration_stimuli/002639_2014-06-24_14-51-37_094959634447_rgbf000074-resize_4/002639_2014-06-24_14-51-37_094959634447_rgbf000074-resize_4-target.png,83,4.0375,7,4547,82,feet,jsons/VE83_randls_23_rotated.json,1361818,1714259,35,Man
97,552014,DepthScenes,duration_manipulation_targetAtFixation,jsons/VE83_randls_23_rotated.json,http://54.235.29.9/FacialAge/BNav_EC2/DepthDuration/v2_depth_duration_MTurk/v2_DepthDuration_HTML.html#12,12,1366,651,1366,768,8-29-2023,9-43-9,98,depth_duration_stimuli/003292_2014-05-14_21-53-49_094959634447_rgbf000100-resize_2/003292_2014-05-14_21-53-49_094959634447_rgbf000100-resize_2-target.png,83,3.4815,8,3779,84,feet,jsons/VE83_randls_23_rotated.json,1361818,1714259,35,Man
98,552014,DepthScenes,duration_manipulation_targetAtFixation,jsons/VE83_randls_23_rotated.json,http://54.235.29.9/FacialAge/BNav_EC2/DepthDuration/v2_depth_duration_MTurk/v2_DepthDuration_HTML.html#12,12,1366,651,1366,768,8-29-2023,9-43-9,99,depth_duration_stimuli/001222_2014-06-17_16-24-06_260595134347_rgbf000073-resize_0/001222_2014-06-17_16-24-06_260595134347_rgbf000073-resize-original.jpg,83,1.4385,13,10069,83,feet,jsons/VE83_randls_23_rotated.json,1361818,1714259,35,Man
99,552014,DepthScenes,duration_manipulation_targetAtFixation,jsons/VE83_randls_23_rotated.json,http://54.235.29.9/FacialAge/BNav_EC2/DepthDuration/v2_depth_duration_MTurk/v2_DepthDuration_HTML.html#12,12,1366,651,1366,768,8-29-2023,9-43-9,100,depth_duration_stimuli/003079_2014-06-15_15-18-20_094959634447_rgbf000152-resize_8/003079_2014-06-15_15-18-20_094959634447_rgbf000152-resize_8-target.png,83,2.8775,9,5137,84,feet,jsons/VE83_randls_23_rotated.json,1361818,1714259,35,Man
100,552014,DepthScenes,duration_manipulation_targetAtFixation,jsons/VE83_randls_23_rotated.json,http://54.235.29.9/FacialAge/BNav_EC2/DepthDuration/v2_depth_duration_MTurk/v2_DepthDuration_HTML.html#12,12,1366,651,1366,768,8-29-2023,9-43-9,101,depth_duration_stimuli/000506_2014-06-08_23-21-00_260595134347_rgbf000070-resize_7/000506_2014-06-08_23-21-00_260595134347_rgbf000070-resize_7-target.png,83,4.0585,8,244369,83,feet,jsons/VE83_randls_23_rotated.json,1361818,1714259,35,Man
101,552014,DepthScenes,duration_manipulation_targetAtFixation,jsons/VE83_randls_23_rotated.json,http://54.235.29.9/FacialAge/BNav_EC2/DepthDuration/v2_depth_duration_MTurk/v2_DepthDuration_HTML.html#12,12,1366,651,1366,768,8-29-2023,9-43-9,102,depth_duration_stimuli/003587_2014-05-23_16-48-02_094959634447_rgbf002384-resize_2/003587_2014-05-23_16-48-02_094959634447_rgbf002384-resize_2-target.png,83,1.357,5,4850,84,feet,jsons/VE83_randls_23_rotated.json,1361818,1714259,35,Man
102,552014,DepthScenes,duration_manipulation_targetAtFixation,jsons/VE83_randls_23_rotated.json,http://54.235.29.9/FacialAge/BNav_EC2/DepthDuration/v2_depth_duration_MTurk/v2_DepthDuration_HTML.html#12,12,1366,651,1366,768,8-29-2023,9-43-9,103,depth_duration_stimuli/001167_2014-06-17_15-38-07_260595134347_rgbf000108-resize_0/001167_2014-06-17_15-38-07_260595134347_rgbf000108-resize_0-target.png,83,1.8505,6,3361,84,feet,jsons/VE83_randls_23_rotated.json,1361818,1714259,35,Man
103,552014,DepthScenes,duration_manipulation_targetAtFixation,jsons/VE83_randls_23_rotated.json,http://54.235.29.9/FacialAge/BNav_EC2/DepthDuration/v2_depth_duration_MTurk/v2_DepthDuration_HTML.html#12,12,1366,651,1366,768,8-29-2023,9-43-9,104,depth_duration_stimuli/002758_2014-06-22_19-11-20_094959634447_rgbf000128-resize_1/002758_2014-06-22_19-11-20_094959634447_rgbf000128-resize_1-target.png,83,2.555,6,4679,84,feet,jsons/VE83_randls_23_rotated.json,1361818,1714259,35,Man
104,552014,DepthScenes,duration_manipulation_targetAtFixation,jsons/VE83_randls_23_rotated.json,http://54.235.29.9/FacialAge/BNav_EC2/DepthDuration/v2_depth_duration_MTurk/v2_DepthDuration_HTML.html#12,12,1366,651,1366,768,8-29-2023,9-43-9,105,depth_duration_stimuli/002630_2014-06-24_14-47-50_094959634447_rgbf000055-resize_1/002630_2014-06-24_14-47-50_094959634447_rgbf000055-resize_1-target.png,83,3.0095,8,5136,84,feet,jsons/VE83_randls_23_rotated.json,1361818,1714259,35,Man
105,552014,DepthScenes,duration_manipulation_targetAtFixation,jsons/VE83_randls_23_rotated.json,http://54.235.29.9/FacialAge/BNav_EC2/DepthDuration/v2_depth_duration_MTurk/v2_DepthDuration_HTML.html#12,12,1366,651,1366,768,8-29-2023,9-43-9,106,depth_duration_stimuli/001828_2014-06-26_21-40-03_260595134347_rgbf000024-resize_0/001828_2014-06-26_21-40-03_260595134347_rgbf000024-resize_0-target.png,83,4.8260000000000005,8,4083,83,feet,jsons/VE83_randls_23_rotated.json,1361818,1714259,35,Man
106,552014,DepthScenes,duration_manipulation_targetAtFixation,jsons/VE83_randls_23_rotated.json,http://54.235.29.9/FacialAge/BNav_EC2/DepthDuration/v2_depth_duration_MTurk/v2_DepthDuration_HTML.html#12,12,1366,651,1366,768,8-29-2023,9-43-9,107,depth_duration_stimuli/000009_2014-05-26_14-32-05_260595134347_rgbf000034-resize_3/000009_2014-05-26_14-32-05_260595134347_rgbf000034-resize_3-target.png,83,3.8715,9,3714,84,feet,jsons/VE83_randls_23_rotated.json,1361818,1714259,35,Man
107,552014,DepthScenes,duration_manipulation_targetAtFixation,jsons/VE83_randls_23_rotated.json,http://54.235.29.9/FacialAge/BNav_EC2/DepthDuration/v2_depth_duration_MTurk/v2_DepthDuration_HTML.html#12,12,1366,651,1366,768,8-29-2023,9-43-9,108,depth_duration_stimuli/000137_2014-05-20_17-04-49_260595134347_rgbf000120-resize_1/000137_2014-05-20_17-04-49_260595134347_rgbf000120-resize_1-target.png,83,3.786,6,5082,84,feet,jsons/VE83_randls_23_rotated.json,1361818,1714259,35,Man
108,552014,DepthScenes,duration_manipulation_targetAtFixation,jsons/VE83_randls_23_rotated.json,http://54.235.29.9/FacialAge/BNav_EC2/DepthDuration/v2_depth_duration_MTurk/v2_DepthDuration_HTML.html#12,12,1366,651,1366,768,8-29-2023,9-43-9,109,depth_duration_stimuli/000736_2014-06-08_18-24-15_260595134347_rgbf000206-resize_3/000736_2014-06-08_18-24-15_260595134347_rgbf000206-resize_3-target.png,83,3.515,7,38270,84,feet,jsons/VE83_randls_23_rotated.json,1361818,1714259,35,Man
109,552014,DepthScenes,duration_manipulation_targetAtFixation,jsons/VE83_randls_23_rotated.json,http://54.235.29.9/FacialAge/BNav_EC2/DepthDuration/v2_depth_duration_MTurk/v2_DepthDuration_HTML.html#12,12,1366,651,1366,768,8-29-2023,9-43-9,110,depth_duration_stimuli/001235_2014-06-17_16-37-36_260595134347_rgbf000084-resize_4/001235_2014-06-17_16-37-36_260595134347_rgbf000084-resize_4-target.png,83,3.6605,7,5018,84,feet,jsons/VE83_randls_23_rotated.json,1361818,1714259,35,Man
110,552014,DepthScenes,duration_manipulation_targetAtFixation,jsons/VE83_randls_23_rotated.json,http://54.235.29.9/FacialAge/BNav_EC2/DepthDuration/v2_depth_duration_MTurk/v2_DepthDuration_HTML.html#12,12,1366,651,1366,768,8-29-2023,9-43-9,111,depth_duration_stimuli/000788_2014-06-08_22-34-36_260595134347_rgbf000131-resize_1/000788_2014-06-08_22-34-36_260595134347_rgbf000131-resize_1-target.png,83,3.359,8,3041,83,feet,jsons/VE83_randls_23_rotated.json,1361818,1714259,35,Man
111,552014,DepthScenes,duration_manipulation_targetAtFixation,jsons/VE83_randls_23_rotated.json,http://54.235.29.9/FacialAge/BNav_EC2/DepthDuration/v2_depth_duration_MTurk/v2_DepthDuration_HTML.html#12,12,1366,651,1366,768,8-29-2023,9-43-9,112,depth_duration_stimuli/000709_2014-06-08_13-51-55_260595134347_rgbf000068-resize_3/000709_2014-06-08_13-51-55_260595134347_rgbf000068-resize_3-target.png,83,1.8030000000000002,5,8216,84,feet,jsons/VE83_randls_23_rotated.json,1361818,1714259,35,Man
112,552014,DepthScenes,duration_manipulation_targetAtFixation,jsons/VE83_randls_23_rotated.json,http://54.235.29.9/FacialAge/BNav_EC2/DepthDuration/v2_depth_duration_MTurk/v2_DepthDuration_HTML.html#12,12,1366,651,1366,768,8-29-2023,9-43-9,113,depth_duration_stimuli/002057_2014-06-24_21-00-13_260595134347_rgbf000120-resize_1/002057_2014-06-24_21-00-13_260595134347_rgbf000120-resize_1-target.png,83,2.967,5,5585,83,feet,jsons/VE83_randls_23_rotated.json,1361818,1714259,35,Man
113,552014,DepthScenes,duration_manipulation_targetAtFixation,jsons/VE83_randls_23_rotated.json,http://54.235.29.9/FacialAge/BNav_EC2/DepthDuration/v2_depth_duration_MTurk/v2_DepthDuration_HTML.html#12,12,1366,651,1366,768,8-29-2023,9-43-9,114,depth_duration_stimuli/003081_2014-06-15_15-19-16_094959634447_rgbf000150-resize_1/003081_2014-06-15_15-19-16_094959634447_rgbf000150-resize_1-target.png,83,3.9125,5,6540,82,feet,jsons/VE83_randls_23_rotated.json,1361818,1714259,35,Man
114,552014,DepthScenes,duration_manipulation_targetAtFixation,jsons/VE83_randls_23_rotated.json,http://54.235.29.9/FacialAge/BNav_EC2/DepthDuration/v2_depth_duration_MTurk/v2_DepthDuration_HTML.html#12,12,1366,651,1366,768,8-29-2023,9-43-9,115,depth_duration_stimuli/001417_2014-06-19_16-25-36_260595134347_rgbf000115-resize_5/001417_2014-06-19_16-25-36_260595134347_rgbf000115-resize_5-target.png,83,4.6255,6,3265,84,feet,jsons/VE83_randls_23_rotated.json,1361818,1714259,35,Man
115,552014,DepthScenes,duration_manipulation_targetAtFixation,jsons/VE83_randls_23_rotated.json,http://54.235.29.9/FacialAge/BNav_EC2/DepthDuration/v2_depth_duration_MTurk/v2_DepthDuration_HTML.html#12,12,1366,651,1366,768,8-29-2023,9-43-9,116,depth_duration_stimuli/000409_2014-06-04_19-23-33_260595134347_rgbf000067-resize_0/000409_2014-06-04_19-23-33_260595134347_rgbf000067-resize_0-target.png,83,3.7335,6,21701,84,feet,jsons/VE83_randls_23_rotated.json,1361818,1714259,35,Man
116,552014,DepthScenes,duration_manipulation_targetAtFixation,jsons/VE83_randls_23_rotated.json,http://54.235.29.9/FacialAge/BNav_EC2/DepthDuration/v2_depth_duration_MTurk/v2_DepthDuration_HTML.html#12,12,1366,651,1366,768,8-29-2023,9-43-9,117,depth_duration_stimuli/002663_2014-06-13_15-50-26_094959634447_rgbf000075-resize_1/002663_2014-06-13_15-50-26_094959634447_rgbf000075-resize_1-target.png,83,4.7495,7,3884,84,feet,jsons/VE83_randls_23_rotated.json,1361818,1714259,35,Man
117,552014,DepthScenes,duration_manipulation_targetAtFixation,jsons/VE83_randls_23_rotated.json,http://54.235.29.9/FacialAge/BNav_EC2/DepthDuration/v2_depth_duration_MTurk/v2_DepthDuration_HTML.html#12,12,1366,651,1366,768,8-29-2023,9-43-9,118,depth_duration_stimuli/000927_2014-06-09_16-32-30_260595134347_rgbf000123-resize_3/000927_2014-06-09_16-32-30_260595134347_rgbf000123-resize_3-target.png,83,2.6785,6,4948,82,feet,jsons/VE83_randls_23_rotated.json,1361818,1714259,35,Man
118,552014,DepthScenes,duration_manipulation_targetAtFixation,jsons/VE83_randls_23_rotated.json,http://54.235.29.9/FacialAge/BNav_EC2/DepthDuration/v2_depth_duration_MTurk/v2_DepthDuration_HTML.html#12,12,1366,651,1366,768,8-29-2023,9-43-9,119,depth_duration_stimuli/001110_2014-06-15_17-25-28_260595134347_rgbf000150-resize_1/001110_2014-06-15_17-25-28_260595134347_rgbf000150-resize_1-target.png,83,1.7115,8,2840,84,feet,jsons/VE83_randls_23_rotated.json,1361818,1714259,35,Man
119,552014,DepthScenes,duration_manipulation_targetAtFixation,jsons/VE83_randls_23_rotated.json,http://54.235.29.9/FacialAge/BNav_EC2/DepthDuration/v2_depth_duration_MTurk/v2_DepthDuration_HTML.html#12,12,1366,651,1366,768,8-29-2023,9-43-9,120,depth_duration_stimuli/000787_2014-06-08_22-33-53_260595134347_rgbf000175-resize_1/000787_2014-06-08_22-33-53_260595134347_rgbf000175-resize-original.jpg,83,4.784,8,3715,83,feet,jsons/VE83_randls_23_rotated.json,1361818,1714259,35,Man
120,552014,DepthScenes,duration_manipulation_targetAtFixation,jsons/VE83_randls_23_rotated.json,http://54.235.29.9/FacialAge/BNav_EC2/DepthDuration/v2_depth_duration_MTurk/v2_DepthDuration_HTML.html#12,12,1366,651,1366,768,8-29-2023,9-43-9,121,depth_duration_stimuli/000677_2014-06-08_23-10-32_260595134347_rgbf000158-resize_6/000677_2014-06-08_23-10-32_260595134347_rgbf000158-resize_6-target.png,83,3.556,7,8378,84,feet,jsons/VE83_randls_23_rotated.json,1361818,1714259,35,Man
121,552014,DepthScenes,duration_manipulation_targetAtFixation,jsons/VE83_randls_23_rotated.json,http://54.235.29.9/FacialAge/BNav_EC2/DepthDuration/v2_depth_duration_MTurk/v2_DepthDuration_HTML.html#12,12,1366,651,1366,768,8-29-2023,9-43-9,122,depth_duration_stimuli/001029_2014-06-08_13-17-57_260595134347_rgbf000065-resize_1/001029_2014-06-08_13-17-57_260595134347_rgbf000065-resize_1-target.png,83,3.0835,8,4362,82,feet,jsons/VE83_randls_23_rotated.json,1361818,1714259,35,Man
122,552014,DepthScenes,duration_manipulation_targetAtFixation,jsons/VE83_randls_23_rotated.json,http://54.235.29.9/FacialAge/BNav_EC2/DepthDuration/v2_depth_duration_MTurk/v2_DepthDuration_HTML.html#12,12,1366,651,1366,768,8-29-2023,9-43-9,123,depth_duration_stimuli/003228_2014-05-14_13-42-35_094959634447_rgbf000101-resize_1/003228_2014-05-14_13-42-35_094959634447_rgbf000101-resize_1-target.png,83,1.9680000000000002,8,5854,84,feet,jsons/VE83_randls_23_rotated.json,1361818,1714259,35,Man
123,552014,DepthScenes,duration_manipulation_targetAtFixation,jsons/VE83_randls_23_rotated.json,http://54.235.29.9/FacialAge/BNav_EC2/DepthDuration/v2_depth_duration_MTurk/v2_DepthDuration_HTML.html#12,12,1366,651,1366,768,8-29-2023,9-43-9,124,depth_duration_stimuli/002600_2014-06-24_14-27-04_094959634447_rgbf000074-resize_2/002600_2014-06-24_14-27-04_094959634447_rgbf000074-resize_2-target.png,83,2.7575,5,5824,83,feet,jsons/VE83_randls_23_rotated.json,1361818,1714259,35,Man
124,552014,DepthScenes,duration_manipulation_targetAtFixation,jsons/VE83_randls_23_rotated.json,http://54.235.29.9/FacialAge/BNav_EC2/DepthDuration/v2_depth_duration_MTurk/v2_DepthDuration_HTML.html#12,12,1366,651,1366,768,8-29-2023,9-43-9,125,depth_duration_stimuli/002750_2014-06-22_19-08-03_094959634447_rgbf000094-resize_4/002750_2014-06-22_19-08-03_094959634447_rgbf000094-resize_4-target.png,83,2.354,7,5811,84,feet,jsons/VE83_randls_23_rotated.json,1361818,1714259,35,Man
125,552014,DepthScenes,duration_manipulation_targetAtFixation,jsons/VE83_randls_23_rotated.json,http://54.235.29.9/FacialAge/BNav_EC2/DepthDuration/v2_depth_duration_MTurk/v2_DepthDuration_HTML.html#12,12,1366,651,1366,768,8-29-2023,9-43-9,126,depth_duration_stimuli/002549_2014-06-24_13-41-39_094959634447_rgbf000022-resize_3/002549_2014-06-24_13-41-39_094959634447_rgbf000022-resize_3-target.png,83,1.476,5,3736,84,feet,jsons/VE83_randls_23_rotated.json,1361818,1714259,35,Man
126,552014,DepthScenes,duration_manipulation_targetAtFixation,jsons/VE83_randls_23_rotated.json,http://54.235.29.9/FacialAge/BNav_EC2/DepthDuration/v2_depth_duration_MTurk/v2_DepthDuration_HTML.html#12,12,1366,651,1366,768,8-29-2023,9-43-9,127,depth_duration_stimuli/002323_2014-06-28_20-01-54_260595134347_rgbf000051-resize_4/002323_2014-06-28_20-01-54_260595134347_rgbf000051-resize_4-target.png,83,3.7310000000000003,6,4806,83,feet,jsons/VE83_randls_23_rotated.json,1361818,1714259,35,Man
127,552014,DepthScenes,duration_manipulation_targetAtFixation,jsons/VE83_randls_23_rotated.json,http://54.235.29.9/FacialAge/BNav_EC2/DepthDuration/v2_depth_duration_MTurk/v2_DepthDuration_HTML.html#12,12,1366,651,1366,768,8-29-2023,9-43-9,128,depth_duration_stimuli/000917_2014-06-09_22-45-29_260595134347_rgbf000149-resize_3/000917_2014-06-09_22-45-29_260595134347_rgbf000149-resize_3-target.png,83,4.1865,5,12154,84,feet,jsons/VE83_randls_23_rotated.json,1361818,1714259,35,Man
128,552014,DepthScenes,duration_manipulation_targetAtFixation,jsons/VE83_randls_23_rotated.json,http://54.235.29.9/FacialAge/BNav_EC2/DepthDuration/v2_depth_duration_MTurk/v2_DepthDuration_HTML.html#12,12,1366,651,1366,768,8-29-2023,9-43-9,129,depth_duration_stimuli/002949_2014-06-26_15-57-42_094959634447_rgbf000079-resize_1/002949_2014-06-26_15-57-42_094959634447_rgbf000079-resize_1-target.png,83,1.8915,5,5004,84,feet,jsons/VE83_randls_23_rotated.json,1361818,1714259,35,Man
129,552014,DepthScenes,duration_manipulation_targetAtFixation,jsons/VE83_randls_23_rotated.json,http://54.235.29.9/FacialAge/BNav_EC2/DepthDuration/v2_depth_duration_MTurk/v2_DepthDuration_HTML.html#12,12,1366,651,1366,768,8-29-2023,9-43-9,130,depth_duration_stimuli/000522_2014-06-08_13-35-06_260595134347_rgbf000244-resize_1/000522_2014-06-08_13-35-06_260595134347_rgbf000244-resize_1-target.png,83,2.3715,5,2673,82,feet,jsons/VE83_randls_23_rotated.json,1361818,1714259,35,Man
130,552014,DepthScenes,duration_manipulation_targetAtFixation,jsons/VE83_randls_23_rotated.json,http://54.235.29.9/FacialAge/BNav_EC2/DepthDuration/v2_depth_duration_MTurk/v2_DepthDuration_HTML.html#12,12,1366,651,1366,768,8-29-2023,9-43-9,131,depth_duration_stimuli/002209_2014-06-28_18-36-10_260595134347_rgbf000051-resize_1/002209_2014-06-28_18-36-10_260595134347_rgbf000051-resize_1-target.png,83,2.057,5,5387,83,feet,jsons/VE83_randls_23_rotated.json,1361818,1714259,35,Man
131,552014,DepthScenes,duration_manipulation_targetAtFixation,jsons/VE83_randls_23_rotated.json,http://54.235.29.9/FacialAge/BNav_EC2/DepthDuration/v2_depth_duration_MTurk/v2_DepthDuration_HTML.html#12,12,1366,651,1366,768,8-29-2023,9-43-9,132,depth_duration_stimuli/002763_2014-06-22_19-13-10_094959634447_rgbf000075-resize_4/002763_2014-06-22_19-13-10_094959634447_rgbf000075-resize_4-target.png,83,1.68375,6,3348,83,feet,jsons/VE83_randls_23_rotated.json,1361818,1714259,35,Man
132,552014,DepthScenes,duration_manipulation_targetAtFixation,jsons/VE83_randls_23_rotated.json,http://54.235.29.9/FacialAge/BNav_EC2/DepthDuration/v2_depth_duration_MTurk/v2_DepthDuration_HTML.html#12,12,1366,651,1366,768,8-29-2023,9-43-9,133,depth_duration_stimuli/003048_2014-06-15_13-49-43_094959634447_rgbf000150-resize_1/003048_2014-06-15_13-49-43_094959634447_rgbf000150-resize_1-target.png,83,4.0035,9,4949,83,feet,jsons/VE83_randls_23_rotated.json,1361818,1714259,35,Man
133,552014,DepthScenes,duration_manipulation_targetAtFixation,jsons/VE83_randls_23_rotated.json,http://54.235.29.9/FacialAge/BNav_EC2/DepthDuration/v2_depth_duration_MTurk/v2_DepthDuration_HTML.html#12,12,1366,651,1366,768,8-29-2023,9-43-9,134,depth_duration_stimuli/002043_2014-06-24_20-29-38_260595134347_rgbf000039-resize_4/002043_2014-06-24_20-29-38_260595134347_rgbf000039-resize_4-target.png,83,2.8435,8,3249,83,feet,jsons/VE83_randls_23_rotated.json,1361818,1714259,35,Man
134,552014,DepthScenes,duration_manipulation_targetAtFixation,jsons/VE83_randls_23_rotated.json,http://54.235.29.9/FacialAge/BNav_EC2/DepthDuration/v2_depth_duration_MTurk/v2_DepthDuration_HTML.html#12,12,1366,651,1366,768,8-29-2023,9-43-9,135,depth_duration_stimuli/000375_2014-06-08_11-17-29_260595134347_rgbf000133-resize_2/000375_2014-06-08_11-17-29_260595134347_rgbf000133-resize-original.jpg,83,4.718,8,5179,84,feet,jsons/VE83_randls_23_rotated.json,1361818,1714259,35,Man
135,552014,DepthScenes,duration_manipulation_targetAtFixation,jsons/VE83_randls_23_rotated.json,http://54.235.29.9/FacialAge/BNav_EC2/DepthDuration/v2_depth_duration_MTurk/v2_DepthDuration_HTML.html#12,12,1366,651,1366,768,8-29-2023,9-43-9,136,depth_duration_stimuli/001052_2014-06-08_18-24-54_260595134347_rgbf000130-resize_1/001052_2014-06-08_18-24-54_260595134347_rgbf000130-resize_1-target.png,83,4.1045,10,6012,83,feet,jsons/VE83_randls_23_rotated.json,1361818,1714259,35,Man
136,552014,DepthScenes,duration_manipulation_targetAtFixation,jsons/VE83_randls_23_rotated.json,http://54.235.29.9/FacialAge/BNav_EC2/DepthDuration/v2_depth_duration_MTurk/v2_DepthDuration_HTML.html#12,12,1366,651,1366,768,8-29-2023,9-43-9,137,depth_duration_stimuli/002988_2014-06-15_12-24-20_094959634447_rgbf000150-resize_1/002988_2014-06-15_12-24-20_094959634447_rgbf000150-resize_1-target.png,83,4.7669999999999995,8,4419,83,feet,jsons/VE83_randls_23_rotated.json,1361818,1714259,35,Man
137,552014,DepthScenes,duration_manipulation_targetAtFixation,jsons/VE83_randls_23_rotated.json,http://54.235.29.9/FacialAge/BNav_EC2/DepthDuration/v2_depth_duration_MTurk/v2_DepthDuration_HTML.html#12,12,1366,651,1366,768,8-29-2023,9-43-9,138,depth_duration_stimuli/002875_2014-06-01_15-19-00_094959634447_rgbf000151-resize_1/002875_2014-06-01_15-19-00_094959634447_rgbf000151-resize_1-target.png,83,1.9675,6,4528,84,feet,jsons/VE83_randls_23_rotated.json,1361818,1714259,35,Man
138,552014,DepthScenes,duration_manipulation_targetAtFixation,jsons/VE83_randls_23_rotated.json,http://54.235.29.9/FacialAge/BNav_EC2/DepthDuration/v2_depth_duration_MTurk/v2_DepthDuration_HTML.html#12,12,1366,651,1366,768,8-29-2023,9-43-9,139,depth_duration_stimuli/001011_2014-06-08_23-18-54_260595134347_rgbf000044-resize_4/001011_2014-06-08_23-18-54_260595134347_rgbf000044-resize_4-target.png,83,2.4730000000000003,6,3142,84,feet,jsons/VE83_randls_23_rotated.json,1361818,1714259,35,Man
139,552014,DepthScenes,duration_manipulation_targetAtFixation,jsons/VE83_randls_23_rotated.json,http://54.235.29.9/FacialAge/BNav_EC2/DepthDuration/v2_depth_duration_MTurk/v2_DepthDuration_HTML.html#12,12,1366,651,1366,768,8-29-2023,9-43-9,140,depth_duration_stimuli/002660_2014-06-13_15-44-18_094959634447_rgbf001878-resize_2/002660_2014-06-13_15-44-18_094959634447_rgbf001878-resize_2-target.png,83,3.576,7,4012,84,feet,jsons/VE83_randls_23_rotated.json,1361818,1714259,35,Man
140,552014,DepthScenes,duration_manipulation_targetAtFixation,jsons/VE83_randls_23_rotated.json,http://54.235.29.9/FacialAge/BNav_EC2/DepthDuration/v2_depth_duration_MTurk/v2_DepthDuration_HTML.html#12,12,1366,651,1366,768,8-29-2023,9-43-9,141,depth_duration_stimuli/002153_2014-06-25_21-27-18_260595134347_rgbf000038-resize_5/002153_2014-06-25_21-27-18_260595134347_rgbf000038-resize_5-target.png,83,2.505,8,2803,83,feet,jsons/VE83_randls_23_rotated.json,1361818,1714259,35,Man
141,552014,DepthScenes,duration_manipulation_targetAtFixation,jsons/VE83_randls_23_rotated.json,http://54.235.29.9/FacialAge/BNav_EC2/DepthDuration/v2_depth_duration_MTurk/v2_DepthDuration_HTML.html#12,12,1366,651,1366,768,8-29-2023,9-43-9,142,depth_duration_stimuli/003083_2014-06-15_15-21-03_094959634447_rgbf000063-resize_1/003083_2014-06-15_15-21-03_094959634447_rgbf000063-resize_1-target.png,83,4.1405,8,3539,83,feet,jsons/VE83_randls_23_rotated.json,1361818,1714259,35,Man
142,552014,DepthScenes,duration_manipulation_targetAtFixation,jsons/VE83_randls_23_rotated.json,http://54.235.29.9/FacialAge/BNav_EC2/DepthDuration/v2_depth_duration_MTurk/v2_DepthDuration_HTML.html#12,12,1366,651,1366,768,8-29-2023,9-43-9,143,depth_duration_stimuli/000486_2014-06-09_20-47-20_260595134347_rgbf000143-resize_2/000486_2014-06-09_20-47-20_260595134347_rgbf000143-resize_2-target.png,83,4.8325,8,2715,84,feet,jsons/VE83_randls_23_rotated.json,1361818,1714259,35,Man
143,552014,DepthScenes,duration_manipulation_targetAtFixation,jsons/VE83_randls_23_rotated.json,http://54.235.29.9/FacialAge/BNav_EC2/DepthDuration/v2_depth_duration_MTurk/v2_DepthDuration_HTML.html#12,12,1366,651,1366,768,8-29-2023,9-43-9,144,depth_duration_stimuli/003423_2014-05-21_10-23-26_094959634447_rgbf002665-resize_2/003423_2014-05-21_10-23-26_094959634447_rgbf002665-resize_2-target.png,83,3.2575,7,6008,84,feet,jsons/VE83_randls_23_rotated.json,1361818,1714259,35,Man
144,552014,DepthScenes,duration_manipulation_targetAtFixation,jsons/VE83_randls_23_rotated.json,http://54.235.29.9/FacialAge/BNav_EC2/DepthDuration/v2_depth_duration_MTurk/v2_DepthDuration_HTML.html#12,12,1366,651,1366,768,8-29-2023,9-43-9,145,depth_duration_stimuli/002905_2014-06-03_18-04-43_094959634447_rgbf000151-resize_2/002905_2014-06-03_18-04-43_094959634447_rgbf000151-resize_2-target.png,83,2.0295,7,3429,84,feet,jsons/VE83_randls_23_rotated.json,1361818,1714259,35,Man
145,552014,DepthScenes,duration_manipulation_targetAtFixation,jsons/VE83_randls_23_rotated.json,http://54.235.29.9/FacialAge/BNav_EC2/DepthDuration/v2_depth_duration_MTurk/v2_DepthDuration_HTML.html#12,12,1366,651,1366,768,8-29-2023,9-43-9,146,depth_duration_stimuli/000943_2014-06-09_19-31-07_260595134347_rgbf000128-resize_1/000943_2014-06-09_19-31-07_260595134347_rgbf000128-resize_1-target.png,83,1.9765,6,6178,84,feet,jsons/VE83_randls_23_rotated.json,1361818,1714259,35,Man
146,552014,DepthScenes,duration_manipulation_targetAtFixation,jsons/VE83_randls_23_rotated.json,http://54.235.29.9/FacialAge/BNav_EC2/DepthDuration/v2_depth_duration_MTurk/v2_DepthDuration_HTML.html#12,12,1366,651,1366,768,8-29-2023,9-43-9,147,depth_duration_stimuli/003070_2014-06-15_14-58-27_094959634447_rgbf000150-resize_3/003070_2014-06-15_14-58-27_094959634447_rgbf000150-resize_3-target.png,83,2.9415,6,3363,84,feet,jsons/VE83_randls_23_rotated.json,1361818,1714259,35,Man
147,552014,DepthScenes,duration_manipulation_targetAtFixation,jsons/VE83_randls_23_rotated.json,http://54.235.29.9/FacialAge/BNav_EC2/DepthDuration/v2_depth_duration_MTurk/v2_DepthDuration_HTML.html#12,12,1366,651,1366,768,8-29-2023,9-43-9,148,depth_duration_stimuli/003129_2014-05-12_10-48-10_094959634447_rgbf000100-resize_0/003129_2014-05-12_10-48-10_094959634447_rgbf000100-resize_0-target.png,83,4.9305,6,4618,84,feet,jsons/VE83_randls_23_rotated.json,1361818,1714259,35,Man
148,552014,DepthScenes,duration_manipulation_targetAtFixation,jsons/VE83_randls_23_rotated.json,http://54.235.29.9/FacialAge/BNav_EC2/DepthDuration/v2_depth_duration_MTurk/v2_DepthDuration_HTML.html#12,12,1366,651,1366,768,8-29-2023,9-43-9,149,depth_duration_stimuli/000414_2014-06-04_19-49-13_260595134347_rgbf000044-resize_0/000414_2014-06-04_19-49-13_260595134347_rgbf000044-resize_0-target.png,83,4.329,7,3365,84,feet,jsons/VE83_randls_23_rotated.json,1361818,1714259,35,Man
149,552014,DepthScenes,duration_manipulation_targetAtFixation,jsons/VE83_randls_23_rotated.json,http://54.235.29.9/FacialAge/BNav_EC2/DepthDuration/v2_depth_duration_MTurk/v2_DepthDuration_HTML.html#12,12,1366,651,1366,768,8-29-2023,9-43-9,150,depth_duration_stimuli/002545_2014-06-24_13-38-53_094959634447_rgbf000080-resize_4/002545_2014-06-24_13-38-53_094959634447_rgbf000080-resize_4-target.png,83,1.9205,7,4634,83,feet,jsons/VE83_randls_23_rotated.json,1361818,1714259,35,Man
150,552014,DepthScenes,duration_manipulation_targetAtFixation,jsons/VE83_randls_23_rotated.json,http://54.235.29.9/FacialAge/BNav_EC2/DepthDuration/v2_depth_duration_MTurk/v2_DepthDuration_HTML.html#12,12,1366,651,1366,768,8-29-2023,9-43-9,151,depth_duration_stimuli/001092_2014-06-15_17-34-58_260595134347_rgbf000171-resize_3/001092_2014-06-15_17-34-58_260595134347_rgbf000171-resize_3-target.png,83,2.6935,7,5701,84,feet,jsons/VE83_randls_23_rotated.json,1361818,1714259,35,Man
151,552014,DepthScenes,duration_manipulation_targetAtFixation,jsons/VE83_randls_23_rotated.json,http://54.235.29.9/FacialAge/BNav_EC2/DepthDuration/v2_depth_duration_MTurk/v2_DepthDuration_HTML.html#12,12,1366,651,1366,768,8-29-2023,9-43-9,152,depth_duration_stimuli/000569_2014-06-09_22-51-47_260595134347_rgbf000141-resize_3/000569_2014-06-09_22-51-47_260595134347_rgbf000141-resize-original.jpg,83,4.512,7,4963,84,feet,jsons/VE83_randls_23_rotated.json,1361818,1714259,35,Man
152,552014,DepthScenes,duration_manipulation_targetAtFixation,jsons/VE83_randls_23_rotated.json,http://54.235.29.9/FacialAge/BNav_EC2/DepthDuration/v2_depth_duration_MTurk/v2_DepthDuration_HTML.html#12,12,1366,651,1366,768,8-29-2023,9-43-9,153,depth_duration_stimuli/002199_2014-06-28_18-33-56_260595134347_rgbf000074-resize_0/002199_2014-06-28_18-33-56_260595134347_rgbf000074-resize_0-target.png,83,1.996,5,5757,84,feet,jsons/VE83_randls_23_rotated.json,1361818,1714259,35,Man
153,552014,DepthScenes,duration_manipulation_targetAtFixation,jsons/VE83_randls_23_rotated.json,http://54.235.29.9/FacialAge/BNav_EC2/DepthDuration/v2_depth_duration_MTurk/v2_DepthDuration_HTML.html#12,12,1366,651,1366,768,8-29-2023,9-43-9,154,depth_duration_stimuli/001056_2014-06-08_18-46-44_260595134347_rgbf000068-resize_0/001056_2014-06-08_18-46-44_260595134347_rgbf000068-resize_0-target.png,83,2.6625,4,9241,84,feet,jsons/VE83_randls_23_rotated.json,1361818,1714259,35,Man
154,552014,DepthScenes,duration_manipulation_targetAtFixation,jsons/VE83_randls_23_rotated.json,http://54.235.29.9/FacialAge/BNav_EC2/DepthDuration/v2_depth_duration_MTurk/v2_DepthDuration_HTML.html#12,12,1366,651,1366,768,8-29-2023,9-43-9,155,depth_duration_stimuli/002425_2014-06-28_20-27-29_260595134347_rgbf000031-resize_8/002425_2014-06-28_20-27-29_260595134347_rgbf000031-resize_8-target.png,83,3.8960000000000004,8,5292,84,feet,jsons/VE83_randls_23_rotated.json,1361818,1714259,35,Man
155,552014,DepthScenes,duration_manipulation_targetAtFixation,jsons/VE83_randls_23_rotated.json,http://54.235.29.9/FacialAge/BNav_EC2/DepthDuration/v2_depth_duration_MTurk/v2_DepthDuration_HTML.html#12,12,1366,651,1366,768,8-29-2023,9-43-9,156,depth_duration_stimuli/000642_2014-06-08_16-59-25_260595134347_rgbf000098-resize_2/000642_2014-06-08_16-59-25_260595134347_rgbf000098-resize_2-target.png,83,2.8815,6,3318,84,feet,jsons/VE83_randls_23_rotated.json,1361818,1714259,35,Man
156,552014,DepthScenes,duration_manipulation_targetAtFixation,jsons/VE83_randls_23_rotated.json,http://54.235.29.9/FacialAge/BNav_EC2/DepthDuration/v2_depth_duration_MTurk/v2_DepthDuration_HTML.html#12,12,1366,651,1366,768,8-29-2023,9-43-9,157,depth_duration_stimuli/000665_2014-06-09_20-42-35_260595134347_rgbf000110-resize_1/000665_2014-06-09_20-42-35_260595134347_rgbf000110-resize_1-target.png,83,3.057,6,5637,84,feet,jsons/VE83_randls_23_rotated.json,1361818,1714259,35,Man
157,552014,DepthScenes,duration_manipulation_targetAtFixation,jsons/VE83_randls_23_rotated.json,http://54.235.29.9/FacialAge/BNav_EC2/DepthDuration/v2_depth_duration_MTurk/v2_DepthDuration_HTML.html#12,12,1366,651,1366,768,8-29-2023,9-43-9,158,depth_duration_stimuli/001150_2014-06-17_15-27-34_260595134347_rgbf000108-resize_2/001150_2014-06-17_15-27-34_260595134347_rgbf000108-resize_2-target.png,83,4.0325,6,2920,84,feet,jsons/VE83_randls_23_rotated.json,1361818,1714259,35,Man
158,552014,DepthScenes,duration_manipulation_targetAtFixation,jsons/VE83_randls_23_rotated.json,http://54.235.29.9/FacialAge/BNav_EC2/DepthDuration/v2_depth_duration_MTurk/v2_DepthDuration_HTML.html#12,12,1366,651,1366,768,8-29-2023,9-43-9,159,depth_duration_stimuli/001450_2014-06-19_17-02-03_260595134347_rgbf000203-resize_4/001450_2014-06-19_17-02-03_260595134347_rgbf000203-resize_4-target.png,83,4.0106666666667,7,4222,84,feet,jsons/VE83_randls_23_rotated.json,1361818,1714259,35,Man
159,552014,DepthScenes,duration_manipulation_targetAtFixation,jsons/VE83_randls_23_rotated.json,http://54.235.29.9/FacialAge/BNav_EC2/DepthDuration/v2_depth_duration_MTurk/v2_DepthDuration_HTML.html#12,12,1366,651,1366,768,8-29-2023,9-43-9,160,depth_duration_stimuli/001449_2014-06-19_17-01-27_260595134347_rgbf000116-resize_2/001449_2014-06-19_17-01-27_260595134347_rgbf000116-resize_2-target.png,83,3.452,7,3032,83,feet,jsons/VE83_randls_23_rotated.json,1361818,1714259,35,Man
160,552014,DepthScenes,duration_manipulation_targetAtFixation,jsons/VE83_randls_23_rotated.json,http://54.235.29.9/FacialAge/BNav_EC2/DepthDuration/v2_depth_duration_MTurk/v2_DepthDuration_HTML.html#12,12,1366,651,1366,768,8-29-2023,9-43-9,161,depth_duration_stimuli/002444_2014-06-28_20-32-08_260595134347_rgbf000027-resize_0/002444_2014-06-28_20-32-08_260595134347_rgbf000027-resize_0-target.png,83,4.388999999999999,6,4507,83,feet,jsons/VE83_randls_23_rotated.json,1361818,1714259,35,Man
161,552014,DepthScenes,duration_manipulation_targetAtFixation,jsons/VE83_randls_23_rotated.json,http://54.235.29.9/FacialAge/BNav_EC2/DepthDuration/v2_depth_duration_MTurk/v2_DepthDuration_HTML.html#12,12,1366,651,1366,768,8-29-2023,9-43-9,162,depth_duration_stimuli/000436_2014-06-09_22-25-11_260595134347_rgbf000137-resize_1/000436_2014-06-09_22-25-11_260595134347_rgbf000137-resize_1-target.png,83,4.0705,8,3460,84,feet,jsons/VE83_randls_23_rotated.json,1361818,1714259,35,Man
162,552014,DepthScenes,duration_manipulation_targetAtFixation,jsons/VE83_randls_23_rotated.json,http://54.235.29.9/FacialAge/BNav_EC2/DepthDuration/v2_depth_duration_MTurk/v2_DepthDuration_HTML.html#12,12,1366,651,1366,768,8-29-2023,9-43-9,163,depth_duration_stimuli/001650_2014-06-20_12-09-00_260595134347_rgbf000087-resize_3/001650_2014-06-20_12-09-00_260595134347_rgbf000087-resize_3-target.png,83,1.9505,5,4726,84,feet,jsons/VE83_randls_23_rotated.json,1361818,1714259,35,Man
163,552014,DepthScenes,duration_manipulation_targetAtFixation,jsons/VE83_randls_23_rotated.json,http://54.235.29.9/FacialAge/BNav_EC2/DepthDuration/v2_depth_duration_MTurk/v2_DepthDuration_HTML.html#12,12,1366,651,1366,768,8-29-2023,9-43-9,164,depth_duration_stimuli/000682_2014-06-08_23-14-58_260595134347_rgbf000041-resize_5/000682_2014-06-08_23-14-58_260595134347_rgbf000041-resize_5-target.png,83,2.7239999999999998,7,3526,83,feet,jsons/VE83_randls_23_rotated.json,1361818,1714259,35,Man
