,subjID,experimentName,versionName,sequenceName,url,selected_row,windowWidth,windowHeight,screenWidth,screenHeight,startDate,startTime,trial,stimulus,duration,actual_depth,depth_estimate,trial_RT,log_sceneDuration,unitSelection,seq_filepath,experimentTime,totalTime,age,gender
0,552070,DepthScenes,duration_manipulation_targetAtFixation,jsons/VE125_randls_27_rotated.json,http://54.235.29.9/FacialAge/BNav_EC2/DepthDuration/v2_depth_duration_MTurk/v2_DepthDuration_HTML.html#316,316,1366,625,1366,768,8-29-2022,16-3-36,1,depth_duration_stimuli/003079_2014-06-15_15-18-20_094959634447_rgbf000152-resize_8/003079_2014-06-15_15-18-20_094959634447_rgbf000152-resize_8-target.png,125,2.8775,1,5140,128,meters,jsons/VE125_randls_27_rotated.json,827125,1023935,24,Man
1,552070,DepthScenes,duration_manipulation_targetAtFixation,jsons/VE125_randls_27_rotated.json,http://54.235.29.9/FacialAge/BNav_EC2/DepthDuration/v2_depth_duration_MTurk/v2_DepthDuration_HTML.html#316,316,1366,625,1366,768,8-29-2022,16-3-36,2,depth_duration_stimuli/000506_2014-06-08_23-21-00_260595134347_rgbf000070-resize_7/000506_2014-06-08_23-21-00_260595134347_rgbf000070-resize_7-target.png,125,4.0585,3,6027,138,meters,jsons/VE125_randls_27_rotated.json,827125,1023935,24,Man
2,552070,DepthScenes,duration_manipulation_targetAtFixation,jsons/VE125_randls_27_rotated.json,http://54.235.29.9/FacialAge/BNav_EC2/DepthDuration/v2_depth_duration_MTurk/v2_DepthDuration_HTML.html#316,316,1366,625,1366,768,8-29-2022,16-3-36,3,depth_duration_stimuli/003081_2014-06-15_15-19-16_094959634447_rgbf000150-resize_1/003081_2014-06-15_15-19-16_094959634447_rgbf000150-resize_1-target.png,125,3.9125,2,4849,138,meters,jsons/VE125_randls_27_rotated.json,827125,1023935,24,Man
3,552070,DepthScenes,duration_manipulation_targetAtFixation,jsons/VE125_randls_27_rotated.json,http://54.235.29.9/FacialAge/BNav_EC2/DepthDuration/v2_depth_duration_MTurk/v2_DepthDuration_HTML.html#316,316,1366,625,1366,768,8-29-2022,16-3-36,4,depth_duration_stimuli/001417_2014-06-19_16-25-36_260595134347_rgbf000115-resize_5/001417_2014-06-19_16-25-36_260595134347_rgbf000115-resize_5-target.png,125,4.6255,1,3926,124,meters,jsons/VE125_randls_27_rotated.json,827125,1023935,24,Man
4,552070,DepthScenes,duration_manipulation_targetAtFixation,jsons/VE125_randls_27_rotated.json,http://54.235.29.9/FacialAge/BNav_EC2/DepthDuration/v2_depth_duration_MTurk/v2_DepthDuration_HTML.html#316,316,1366,625,1366,768,8-29-2022,16-3-36,5,depth_duration_stimuli/001094_2014-06-15_17-36-00_260595134347_rgbf000205-resize_0/001094_2014-06-15_17-36-00_260595134347_rgbf000205-resize_0-target.png,125,4.2175,1,4748,138,meters,jsons/VE125_randls_27_rotated.json,827125,1023935,24,Man
5,552070,DepthScenes,duration_manipulation_targetAtFixation,jsons/VE125_randls_27_rotated.json,http://54.235.29.9/FacialAge/BNav_EC2/DepthDuration/v2_depth_duration_MTurk/v2_DepthDuration_HTML.html#316,316,1366,625,1366,768,8-29-2022,16-3-36,6,depth_duration_stimuli/000692_2014-06-08_13-09-42_260595134347_rgbf000199-resize_2/000692_2014-06-08_13-09-42_260595134347_rgbf000199-resize_2-target.png,125,3.661,1,3945,115,meters,jsons/VE125_randls_27_rotated.json,827125,1023935,24,Man
6,552070,DepthScenes,duration_manipulation_targetAtFixation,jsons/VE125_randls_27_rotated.json,http://54.235.29.9/FacialAge/BNav_EC2/DepthDuration/v2_depth_duration_MTurk/v2_DepthDuration_HTML.html#316,316,1366,625,1366,768,8-29-2022,16-3-36,7,depth_duration_stimuli/002209_2014-06-28_18-36-10_260595134347_rgbf000051-resize_1/002209_2014-06-28_18-36-10_260595134347_rgbf000051-resize_1-target.png,125,2.057,1,3733,124,meters,jsons/VE125_randls_27_rotated.json,827125,1023935,24,Man
7,552070,DepthScenes,duration_manipulation_targetAtFixation,jsons/VE125_randls_27_rotated.json,http://54.235.29.9/FacialAge/BNav_EC2/DepthDuration/v2_depth_duration_MTurk/v2_DepthDuration_HTML.html#316,316,1366,625,1366,768,8-29-2022,16-3-36,8,depth_duration_stimuli/002763_2014-06-22_19-13-10_094959634447_rgbf000075-resize_4/002763_2014-06-22_19-13-10_094959634447_rgbf000075-resize_4-target.png,125,1.68375,0,5351,122,meters,jsons/VE125_randls_27_rotated.json,827125,1023935,24,Man
8,552070,DepthScenes,duration_manipulation_targetAtFixation,jsons/VE125_randls_27_rotated.json,http://54.235.29.9/FacialAge/BNav_EC2/DepthDuration/v2_depth_duration_MTurk/v2_DepthDuration_HTML.html#316,316,1366,625,1366,768,8-29-2022,16-3-36,9,depth_duration_stimuli/000866_2014-06-09_20-45-42_260595134347_rgbf000139-resize_1/000866_2014-06-09_20-45-42_260595134347_rgbf000139-resize_1-target.png,125,3.2155,0,83424,120,meters,jsons/VE125_randls_27_rotated.json,827125,1023935,24,Man
9,552070,DepthScenes,duration_manipulation_targetAtFixation,jsons/VE125_randls_27_rotated.json,http://54.235.29.9/FacialAge/BNav_EC2/DepthDuration/v2_depth_duration_MTurk/v2_DepthDuration_HTML.html#316,316,1366,625,1366,768,8-29-2022,16-3-36,10,depth_duration_stimuli/002989_2014-06-15_12-25-03_094959634447_rgbf000150-resize_3/002989_2014-06-15_12-25-03_094959634447_rgbf000150-resize_3-target.png,125,4.1975,1,5939,115,meters,jsons/VE125_randls_27_rotated.json,827125,1023935,24,Man
10,552070,DepthScenes,duration_manipulation_targetAtFixation,jsons/VE125_randls_27_rotated.json,http://54.235.29.9/FacialAge/BNav_EC2/DepthDuration/v2_depth_duration_MTurk/v2_DepthDuration_HTML.html#316,316,1366,625,1366,768,8-29-2022,16-3-36,11,depth_duration_stimuli/002660_2014-06-13_15-44-18_094959634447_rgbf001878-resize_2/002660_2014-06-13_15-44-18_094959634447_rgbf001878-resize_2-target.png,125,3.576,1,4552,126,meters,jsons/VE125_randls_27_rotated.json,827125,1023935,24,Man
11,552070,DepthScenes,duration_manipulation_targetAtFixation,jsons/VE125_randls_27_rotated.json,http://54.235.29.9/FacialAge/BNav_EC2/DepthDuration/v2_depth_duration_MTurk/v2_DepthDuration_HTML.html#316,316,1366,625,1366,768,8-29-2022,16-3-36,12,depth_duration_stimuli/002153_2014-06-25_21-27-18_260595134347_rgbf000038-resize_5/002153_2014-06-25_21-27-18_260595134347_rgbf000038-resize_5-target.png,125,2.505,3,3022,122,meters,jsons/VE125_randls_27_rotated.json,827125,1023935,24,Man
12,552070,DepthScenes,duration_manipulation_targetAtFixation,jsons/VE125_randls_27_rotated.json,http://54.235.29.9/FacialAge/BNav_EC2/DepthDuration/v2_depth_duration_MTurk/v2_DepthDuration_HTML.html#316,316,1366,625,1366,768,8-29-2022,16-3-36,13,depth_duration_stimuli/002425_2014-06-28_20-27-29_260595134347_rgbf000031-resize_8/002425_2014-06-28_20-27-29_260595134347_rgbf000031-resize_8-target.png,125,3.8960000000000004,1,3024,124,meters,jsons/VE125_randls_27_rotated.json,827125,1023935,24,Man
13,552070,DepthScenes,duration_manipulation_targetAtFixation,jsons/VE125_randls_27_rotated.json,http://54.235.29.9/FacialAge/BNav_EC2/DepthDuration/v2_depth_duration_MTurk/v2_DepthDuration_HTML.html#316,316,1366,625,1366,768,8-29-2022,16-3-36,14,depth_duration_stimuli/000642_2014-06-08_16-59-25_260595134347_rgbf000098-resize_2/000642_2014-06-08_16-59-25_260595134347_rgbf000098-resize_2-target.png,125,2.8815,3,3026,123,meters,jsons/VE125_randls_27_rotated.json,827125,1023935,24,Man
14,552070,DepthScenes,duration_manipulation_targetAtFixation,jsons/VE125_randls_27_rotated.json,http://54.235.29.9/FacialAge/BNav_EC2/DepthDuration/v2_depth_duration_MTurk/v2_DepthDuration_HTML.html#316,316,1366,625,1366,768,8-29-2022,16-3-36,15,depth_duration_stimuli/002875_2014-06-01_15-19-00_094959634447_rgbf000151-resize_1/002875_2014-06-01_15-19-00_094959634447_rgbf000151-resize_1-target.png,125,1.9675,2,12111,126,meters,jsons/VE125_randls_27_rotated.json,827125,1023935,24,Man
15,552070,DepthScenes,duration_manipulation_targetAtFixation,jsons/VE125_randls_27_rotated.json,http://54.235.29.9/FacialAge/BNav_EC2/DepthDuration/v2_depth_duration_MTurk/v2_DepthDuration_HTML.html#316,316,1366,625,1366,768,8-29-2022,16-3-36,16,depth_duration_stimuli/001011_2014-06-08_23-18-54_260595134347_rgbf000044-resize_4/001011_2014-06-08_23-18-54_260595134347_rgbf000044-resize_4-target.png,125,2.4730000000000003,1,3027,73,meters,jsons/VE125_randls_27_rotated.json,827125,1023935,24,Man
16,552070,DepthScenes,duration_manipulation_targetAtFixation,jsons/VE125_randls_27_rotated.json,http://54.235.29.9/FacialAge/BNav_EC2/DepthDuration/v2_depth_duration_MTurk/v2_DepthDuration_HTML.html#316,316,1366,625,1366,768,8-29-2022,16-3-36,17,depth_duration_stimuli/002568_2014-06-24_13-59-21_094959634447_rgbf000062-resize_4/002568_2014-06-24_13-59-21_094959634447_rgbf000062-resize_4-target.png,125,3.015,2,3134,107,meters,jsons/VE125_randls_27_rotated.json,827125,1023935,24,Man
17,552070,DepthScenes,duration_manipulation_targetAtFixation,jsons/VE125_randls_27_rotated.json,http://54.235.29.9/FacialAge/BNav_EC2/DepthDuration/v2_depth_duration_MTurk/v2_DepthDuration_HTML.html#316,316,1366,625,1366,768,8-29-2022,16-3-36,18,depth_duration_stimuli/003492_2014-05-21_15-50-55_094959634447_rgbf000828-resize_1/003492_2014-05-21_15-50-55_094959634447_rgbf000828-resize_1-target.png,125,4.06875,0,10219,119,meters,jsons/VE125_randls_27_rotated.json,827125,1023935,24,Man
18,552070,DepthScenes,duration_manipulation_targetAtFixation,jsons/VE125_randls_27_rotated.json,http://54.235.29.9/FacialAge/BNav_EC2/DepthDuration/v2_depth_duration_MTurk/v2_DepthDuration_HTML.html#316,316,1366,625,1366,768,8-29-2022,16-3-36,19,depth_duration_stimuli/001498_2014-06-19_17-45-14_260595134347_rgbf000129-resize_4/001498_2014-06-19_17-45-14_260595134347_rgbf000129-resize-original.jpg,125,1.4075,0,3747,85,meters,jsons/VE125_randls_27_rotated.json,827125,1023935,24,Man
19,552070,DepthScenes,duration_manipulation_targetAtFixation,jsons/VE125_randls_27_rotated.json,http://54.235.29.9/FacialAge/BNav_EC2/DepthDuration/v2_depth_duration_MTurk/v2_DepthDuration_HTML.html#316,316,1366,625,1366,768,8-29-2022,16-3-36,20,depth_duration_stimuli/002467_2014-06-28_20-38-07_260595134347_rgbf000026-resize_2/002467_2014-06-28_20-38-07_260595134347_rgbf000026-resize_2-target.png,125,4.742,2,4497,123,meters,jsons/VE125_randls_27_rotated.json,827125,1023935,24,Man
20,552070,DepthScenes,duration_manipulation_targetAtFixation,jsons/VE125_randls_27_rotated.json,http://54.235.29.9/FacialAge/BNav_EC2/DepthDuration/v2_depth_duration_MTurk/v2_DepthDuration_HTML.html#316,316,1366,625,1366,768,8-29-2022,16-3-36,21,depth_duration_stimuli/002570_2014-06-24_13-59-54_094959634447_rgbf000059-resize_0/002570_2014-06-24_13-59-54_094959634447_rgbf000059-resize_0-target.png,125,4.037,1,2959,131,meters,jsons/VE125_randls_27_rotated.json,827125,1023935,24,Man
21,552070,DepthScenes,duration_manipulation_targetAtFixation,jsons/VE125_randls_27_rotated.json,http://54.235.29.9/FacialAge/BNav_EC2/DepthDuration/v2_depth_duration_MTurk/v2_DepthDuration_HTML.html#316,316,1366,625,1366,768,8-29-2022,16-3-36,22,depth_duration_stimuli/000734_2014-06-08_17-39-11_260595134347_rgbf000128-resize_2/000734_2014-06-08_17-39-11_260595134347_rgbf000128-resize_2-target.png,125,4.098,1,9829,124,meters,jsons/VE125_randls_27_rotated.json,827125,1023935,24,Man
22,552070,DepthScenes,duration_manipulation_targetAtFixation,jsons/VE125_randls_27_rotated.json,http://54.235.29.9/FacialAge/BNav_EC2/DepthDuration/v2_depth_duration_MTurk/v2_DepthDuration_HTML.html#316,316,1366,625,1366,768,8-29-2022,16-3-36,23,depth_duration_stimuli/000739_2014-06-08_18-45-58_260595134347_rgbf000068-resize_1/000739_2014-06-08_18-45-58_260595134347_rgbf000068-resize_1-target.png,125,3.534,3,2961,110,meters,jsons/VE125_randls_27_rotated.json,827125,1023935,24,Man
23,552070,DepthScenes,duration_manipulation_targetAtFixation,jsons/VE125_randls_27_rotated.json,http://54.235.29.9/FacialAge/BNav_EC2/DepthDuration/v2_depth_duration_MTurk/v2_DepthDuration_HTML.html#316,316,1366,625,1366,768,8-29-2022,16-3-36,24,depth_duration_stimuli/002199_2014-06-28_18-33-56_260595134347_rgbf000074-resize_0/002199_2014-06-28_18-33-56_260595134347_rgbf000074-resize_0-target.png,125,1.996,1,4489,113,meters,jsons/VE125_randls_27_rotated.json,827125,1023935,24,Man
24,552070,DepthScenes,duration_manipulation_targetAtFixation,jsons/VE125_randls_27_rotated.json,http://54.235.29.9/FacialAge/BNav_EC2/DepthDuration/v2_depth_duration_MTurk/v2_DepthDuration_HTML.html#316,316,1366,625,1366,768,8-29-2022,16-3-36,25,depth_duration_stimuli/001056_2014-06-08_18-46-44_260595134347_rgbf000068-resize_0/001056_2014-06-08_18-46-44_260595134347_rgbf000068-resize_0-target.png,125,2.6625,2,2874,80,meters,jsons/VE125_randls_27_rotated.json,827125,1023935,24,Man
25,552070,DepthScenes,duration_manipulation_targetAtFixation,jsons/VE125_randls_27_rotated.json,http://54.235.29.9/FacialAge/BNav_EC2/DepthDuration/v2_depth_duration_MTurk/v2_DepthDuration_HTML.html#316,316,1366,625,1366,768,8-29-2022,16-3-36,26,depth_duration_stimuli/000943_2014-06-09_19-31-07_260595134347_rgbf000128-resize_1/000943_2014-06-09_19-31-07_260595134347_rgbf000128-resize_1-target.png,125,1.9765,1,2782,176,meters,jsons/VE125_randls_27_rotated.json,827125,1023935,24,Man
26,552070,DepthScenes,duration_manipulation_targetAtFixation,jsons/VE125_randls_27_rotated.json,http://54.235.29.9/FacialAge/BNav_EC2/DepthDuration/v2_depth_duration_MTurk/v2_DepthDuration_HTML.html#316,316,1366,625,1366,768,8-29-2022,16-3-36,27,depth_duration_stimuli/003070_2014-06-15_14-58-27_094959634447_rgbf000150-resize_3/003070_2014-06-15_14-58-27_094959634447_rgbf000150-resize_3-target.png,125,2.9415,1,5002,112,meters,jsons/VE125_randls_27_rotated.json,827125,1023935,24,Man
27,552070,DepthScenes,duration_manipulation_targetAtFixation,jsons/VE125_randls_27_rotated.json,http://54.235.29.9/FacialAge/BNav_EC2/DepthDuration/v2_depth_duration_MTurk/v2_DepthDuration_HTML.html#316,316,1366,625,1366,768,8-29-2022,16-3-36,28,depth_duration_stimuli/002750_2014-06-22_19-08-03_094959634447_rgbf000094-resize_4/002750_2014-06-22_19-08-03_094959634447_rgbf000094-resize_4-target.png,125,2.354,0,3497,125,meters,jsons/VE125_randls_27_rotated.json,827125,1023935,24,Man
28,552070,DepthScenes,duration_manipulation_targetAtFixation,jsons/VE125_randls_27_rotated.json,http://54.235.29.9/FacialAge/BNav_EC2/DepthDuration/v2_depth_duration_MTurk/v2_DepthDuration_HTML.html#316,316,1366,625,1366,768,8-29-2022,16-3-36,29,depth_duration_stimuli/002549_2014-06-24_13-41-39_094959634447_rgbf000022-resize_3/002549_2014-06-24_13-41-39_094959634447_rgbf000022-resize_3-target.png,125,1.476,1,3139,123,meters,jsons/VE125_randls_27_rotated.json,827125,1023935,24,Man
29,552070,DepthScenes,duration_manipulation_targetAtFixation,jsons/VE125_randls_27_rotated.json,http://54.235.29.9/FacialAge/BNav_EC2/DepthDuration/v2_depth_duration_MTurk/v2_DepthDuration_HTML.html#316,316,1366,625,1366,768,8-29-2022,16-3-36,30,depth_duration_stimuli/002072_2014-06-24_21-48-06_260595134347_rgbf000115-resize_0/002072_2014-06-24_21-48-06_260595134347_rgbf000115-resize-original.jpg,125,4.702,1,3152,118,meters,jsons/VE125_randls_27_rotated.json,827125,1023935,24,Man
30,552070,DepthScenes,duration_manipulation_targetAtFixation,jsons/VE125_randls_27_rotated.json,http://54.235.29.9/FacialAge/BNav_EC2/DepthDuration/v2_depth_duration_MTurk/v2_DepthDuration_HTML.html#316,316,1366,625,1366,768,8-29-2022,16-3-36,31,depth_duration_stimuli/003083_2014-06-15_15-21-03_094959634447_rgbf000063-resize_1/003083_2014-06-15_15-21-03_094959634447_rgbf000063-resize_1-target.png,125,4.1405,3,6009,124,meters,jsons/VE125_randls_27_rotated.json,827125,1023935,24,Man
31,552070,DepthScenes,duration_manipulation_targetAtFixation,jsons/VE125_randls_27_rotated.json,http://54.235.29.9/FacialAge/BNav_EC2/DepthDuration/v2_depth_duration_MTurk/v2_DepthDuration_HTML.html#316,316,1366,625,1366,768,8-29-2022,16-3-36,32,depth_duration_stimuli/000486_2014-06-09_20-47-20_260595134347_rgbf000143-resize_2/000486_2014-06-09_20-47-20_260595134347_rgbf000143-resize_2-target.png,125,4.8325,3,3454,124,meters,jsons/VE125_randls_27_rotated.json,827125,1023935,24,Man
32,552070,DepthScenes,duration_manipulation_targetAtFixation,jsons/VE125_randls_27_rotated.json,http://54.235.29.9/FacialAge/BNav_EC2/DepthDuration/v2_depth_duration_MTurk/v2_DepthDuration_HTML.html#316,316,1366,625,1366,768,8-29-2022,16-3-36,33,depth_duration_stimuli/002444_2014-06-28_20-32-08_260595134347_rgbf000027-resize_0/002444_2014-06-28_20-32-08_260595134347_rgbf000027-resize_0-target.png,125,4.388999999999999,1,2870,126,meters,jsons/VE125_randls_27_rotated.json,827125,1023935,24,Man
33,552070,DepthScenes,duration_manipulation_targetAtFixation,jsons/VE125_randls_27_rotated.json,http://54.235.29.9/FacialAge/BNav_EC2/DepthDuration/v2_depth_duration_MTurk/v2_DepthDuration_HTML.html#316,316,1366,625,1366,768,8-29-2022,16-3-36,34,depth_duration_stimuli/000436_2014-06-09_22-25-11_260595134347_rgbf000137-resize_1/000436_2014-06-09_22-25-11_260595134347_rgbf000137-resize_1-target.png,125,4.0705,0,3279,111,meters,jsons/VE125_randls_27_rotated.json,827125,1023935,24,Man
34,552070,DepthScenes,duration_manipulation_targetAtFixation,jsons/VE125_randls_27_rotated.json,http://54.235.29.9/FacialAge/BNav_EC2/DepthDuration/v2_depth_duration_MTurk/v2_DepthDuration_HTML.html#316,316,1366,625,1366,768,8-29-2022,16-3-36,35,depth_duration_stimuli/000502_2014-06-08_23-02-32_260595134347_rgbf000063-resize_4/000502_2014-06-08_23-02-32_260595134347_rgbf000063-resize_4-target.png,125,2.431,0,4072,128,meters,jsons/VE125_randls_27_rotated.json,827125,1023935,24,Man
35,552070,DepthScenes,duration_manipulation_targetAtFixation,jsons/VE125_randls_27_rotated.json,http://54.235.29.9/FacialAge/BNav_EC2/DepthDuration/v2_depth_duration_MTurk/v2_DepthDuration_HTML.html#316,316,1366,625,1366,768,8-29-2022,16-3-36,36,depth_duration_stimuli/001199_2014-06-17_16-03-48_260595134347_rgbf000077-resize_0/001199_2014-06-17_16-03-48_260595134347_rgbf000077-resize_0-target.png,125,3.4375,1,2910,116,meters,jsons/VE125_randls_27_rotated.json,827125,1023935,24,Man
36,552070,DepthScenes,duration_manipulation_targetAtFixation,jsons/VE125_randls_27_rotated.json,http://54.235.29.9/FacialAge/BNav_EC2/DepthDuration/v2_depth_duration_MTurk/v2_DepthDuration_HTML.html#316,316,1366,625,1366,768,8-29-2022,16-3-36,37,depth_duration_stimuli/001136_2014-06-17_15-19-41_260595134347_rgbf000076-resize_3/001136_2014-06-17_15-19-41_260595134347_rgbf000076-resize_3-target.png,125,1.8655,1,3803,120,meters,jsons/VE125_randls_27_rotated.json,827125,1023935,24,Man
37,552070,DepthScenes,duration_manipulation_targetAtFixation,jsons/VE125_randls_27_rotated.json,http://54.235.29.9/FacialAge/BNav_EC2/DepthDuration/v2_depth_duration_MTurk/v2_DepthDuration_HTML.html#316,316,1366,625,1366,768,8-29-2022,16-3-36,38,depth_duration_stimuli/001164_2014-06-17_15-35-46_260595134347_rgbf000085-resize_3/001164_2014-06-17_15-35-46_260595134347_rgbf000085-resize_3-target.png,125,2.354,0,3078,123,meters,jsons/VE125_randls_27_rotated.json,827125,1023935,24,Man
38,552070,DepthScenes,duration_manipulation_targetAtFixation,jsons/VE125_randls_27_rotated.json,http://54.235.29.9/FacialAge/BNav_EC2/DepthDuration/v2_depth_duration_MTurk/v2_DepthDuration_HTML.html#316,316,1366,625,1366,768,8-29-2022,16-3-36,39,depth_duration_stimuli/003129_2014-05-12_10-48-10_094959634447_rgbf000100-resize_0/003129_2014-05-12_10-48-10_094959634447_rgbf000100-resize_0-target.png,125,4.9305,1,2793,118,meters,jsons/VE125_randls_27_rotated.json,827125,1023935,24,Man
39,552070,DepthScenes,duration_manipulation_targetAtFixation,jsons/VE125_randls_27_rotated.json,http://54.235.29.9/FacialAge/BNav_EC2/DepthDuration/v2_depth_duration_MTurk/v2_DepthDuration_HTML.html#316,316,1366,625,1366,768,8-29-2022,16-3-36,40,depth_duration_stimuli/000414_2014-06-04_19-49-13_260595134347_rgbf000044-resize_0/000414_2014-06-04_19-49-13_260595134347_rgbf000044-resize_0-target.png,125,4.329,1,8369,124,meters,jsons/VE125_randls_27_rotated.json,827125,1023935,24,Man
40,552070,DepthScenes,duration_manipulation_targetAtFixation,jsons/VE125_randls_27_rotated.json,http://54.235.29.9/FacialAge/BNav_EC2/DepthDuration/v2_depth_duration_MTurk/v2_DepthDuration_HTML.html#316,316,1366,625,1366,768,8-29-2022,16-3-36,41,depth_duration_stimuli/000191_2014-05-12_17-07-38_260595134347_rgbf000199-resize_0/000191_2014-05-12_17-07-38_260595134347_rgbf000199-resize_0-target.png,125,3.7995,1,7699,125,meters,jsons/VE125_randls_27_rotated.json,827125,1023935,24,Man
41,552070,DepthScenes,duration_manipulation_targetAtFixation,jsons/VE125_randls_27_rotated.json,http://54.235.29.9/FacialAge/BNav_EC2/DepthDuration/v2_depth_duration_MTurk/v2_DepthDuration_HTML.html#316,316,1366,625,1366,768,8-29-2022,16-3-36,42,depth_duration_stimuli/000493_2014-06-09_21-01-18_260595134347_rgbf000196-resize_3/000493_2014-06-09_21-01-18_260595134347_rgbf000196-resize_3-target.png,125,3.44,3,5939,171,meters,jsons/VE125_randls_27_rotated.json,827125,1023935,24,Man
42,552070,DepthScenes,duration_manipulation_targetAtFixation,jsons/VE125_randls_27_rotated.json,http://54.235.29.9/FacialAge/BNav_EC2/DepthDuration/v2_depth_duration_MTurk/v2_DepthDuration_HTML.html#316,316,1366,625,1366,768,8-29-2022,16-3-36,43,depth_duration_stimuli/001828_2014-06-26_21-40-03_260595134347_rgbf000024-resize_0/001828_2014-06-26_21-40-03_260595134347_rgbf000024-resize_0-target.png,125,4.8260000000000005,1,3755,123,meters,jsons/VE125_randls_27_rotated.json,827125,1023935,24,Man
43,552070,DepthScenes,duration_manipulation_targetAtFixation,jsons/VE125_randls_27_rotated.json,http://54.235.29.9/FacialAge/BNav_EC2/DepthDuration/v2_depth_duration_MTurk/v2_DepthDuration_HTML.html#316,316,1366,625,1366,768,8-29-2022,16-3-36,44,depth_duration_stimuli/000009_2014-05-26_14-32-05_260595134347_rgbf000034-resize_3/000009_2014-05-26_14-32-05_260595134347_rgbf000034-resize_3-target.png,125,3.8715,2,7251,110,meters,jsons/VE125_randls_27_rotated.json,827125,1023935,24,Man
44,552070,DepthScenes,duration_manipulation_targetAtFixation,jsons/VE125_randls_27_rotated.json,http://54.235.29.9/FacialAge/BNav_EC2/DepthDuration/v2_depth_duration_MTurk/v2_DepthDuration_HTML.html#316,316,1366,625,1366,768,8-29-2022,16-3-36,45,depth_duration_stimuli/002995_2014-06-15_12-31-26_094959634447_rgbf000150-resize_1/002995_2014-06-15_12-31-26_094959634447_rgbf000150-resize_1-target.png,125,3.8360000000000003,1,3296,124,meters,jsons/VE125_randls_27_rotated.json,827125,1023935,24,Man
45,552070,DepthScenes,duration_manipulation_targetAtFixation,jsons/VE125_randls_27_rotated.json,http://54.235.29.9/FacialAge/BNav_EC2/DepthDuration/v2_depth_duration_MTurk/v2_DepthDuration_HTML.html#316,316,1366,625,1366,768,8-29-2022,16-3-36,46,depth_duration_stimuli/002748_2014-06-22_19-07-22_094959634447_rgbf000078-resize_1/002748_2014-06-22_19-07-22_094959634447_rgbf000078-resize_1-target.png,125,4.6705,1,3045,124,meters,jsons/VE125_randls_27_rotated.json,827125,1023935,24,Man
46,552070,DepthScenes,duration_manipulation_targetAtFixation,jsons/VE125_randls_27_rotated.json,http://54.235.29.9/FacialAge/BNav_EC2/DepthDuration/v2_depth_duration_MTurk/v2_DepthDuration_HTML.html#316,316,1366,625,1366,768,8-29-2022,16-3-36,47,depth_duration_stimuli/000780_2014-06-08_22-28-29_260595134347_rgbf000126-resize_1/000780_2014-06-08_22-28-29_260595134347_rgbf000126-resize_1-target.png,125,3.3825,2,3218,125,meters,jsons/VE125_randls_27_rotated.json,827125,1023935,24,Man
47,552070,DepthScenes,duration_manipulation_targetAtFixation,jsons/VE125_randls_27_rotated.json,http://54.235.29.9/FacialAge/BNav_EC2/DepthDuration/v2_depth_duration_MTurk/v2_DepthDuration_HTML.html#316,316,1366,625,1366,768,8-29-2022,16-3-36,48,depth_duration_stimuli/002445_2014-06-28_20-32-16_260595134347_rgbf000029-resize_4/002445_2014-06-28_20-32-16_260595134347_rgbf000029-resize_4-target.png,125,2.5315,2,2736,125,meters,jsons/VE125_randls_27_rotated.json,827125,1023935,24,Man
48,552070,DepthScenes,duration_manipulation_targetAtFixation,jsons/VE125_randls_27_rotated.json,http://54.235.29.9/FacialAge/BNav_EC2/DepthDuration/v2_depth_duration_MTurk/v2_DepthDuration_HTML.html#316,316,1366,625,1366,768,8-29-2022,16-3-36,49,depth_duration_stimuli/001170_2014-06-17_15-43-44_260595134347_rgbf000096-resize_6/001170_2014-06-17_15-43-44_260595134347_rgbf000096-resize-original.jpg,125,1.1909999999999998,3,2868,132,meters,jsons/VE125_randls_27_rotated.json,827125,1023935,24,Man
49,552070,DepthScenes,duration_manipulation_targetAtFixation,jsons/VE125_randls_27_rotated.json,http://54.235.29.9/FacialAge/BNav_EC2/DepthDuration/v2_depth_duration_MTurk/v2_DepthDuration_HTML.html#316,316,1366,625,1366,768,8-29-2022,16-3-36,50,depth_duration_stimuli/003423_2014-05-21_10-23-26_094959634447_rgbf002665-resize_2/003423_2014-05-21_10-23-26_094959634447_rgbf002665-resize_2-target.png,125,3.2575,1,3324,123,meters,jsons/VE125_randls_27_rotated.json,827125,1023935,24,Man
50,552070,DepthScenes,duration_manipulation_targetAtFixation,jsons/VE125_randls_27_rotated.json,http://54.235.29.9/FacialAge/BNav_EC2/DepthDuration/v2_depth_duration_MTurk/v2_DepthDuration_HTML.html#316,316,1366,625,1366,768,8-29-2022,16-3-36,51,depth_duration_stimuli/002905_2014-06-03_18-04-43_094959634447_rgbf000151-resize_2/002905_2014-06-03_18-04-43_094959634447_rgbf000151-resize_2-target.png,125,2.0295,1,4865,121,meters,jsons/VE125_randls_27_rotated.json,827125,1023935,24,Man
51,552070,DepthScenes,duration_manipulation_targetAtFixation,jsons/VE125_randls_27_rotated.json,http://54.235.29.9/FacialAge/BNav_EC2/DepthDuration/v2_depth_duration_MTurk/v2_DepthDuration_HTML.html#316,316,1366,625,1366,768,8-29-2022,16-3-36,52,depth_duration_stimuli/000137_2014-05-20_17-04-49_260595134347_rgbf000120-resize_1/000137_2014-05-20_17-04-49_260595134347_rgbf000120-resize_1-target.png,125,3.786,3,3599,108,meters,jsons/VE125_randls_27_rotated.json,827125,1023935,24,Man
52,552070,DepthScenes,duration_manipulation_targetAtFixation,jsons/VE125_randls_27_rotated.json,http://54.235.29.9/FacialAge/BNav_EC2/DepthDuration/v2_depth_duration_MTurk/v2_DepthDuration_HTML.html#316,316,1366,625,1366,768,8-29-2022,16-3-36,53,depth_duration_stimuli/000736_2014-06-08_18-24-15_260595134347_rgbf000206-resize_3/000736_2014-06-08_18-24-15_260595134347_rgbf000206-resize_3-target.png,125,3.515,1,2906,126,meters,jsons/VE125_randls_27_rotated.json,827125,1023935,24,Man
53,552070,DepthScenes,duration_manipulation_targetAtFixation,jsons/VE125_randls_27_rotated.json,http://54.235.29.9/FacialAge/BNav_EC2/DepthDuration/v2_depth_duration_MTurk/v2_DepthDuration_HTML.html#316,316,1366,625,1366,768,8-29-2022,16-3-36,54,depth_duration_stimuli/002758_2014-06-22_19-11-20_094959634447_rgbf000128-resize_1/002758_2014-06-22_19-11-20_094959634447_rgbf000128-resize_1-target.png,125,2.555,1,2993,88,meters,jsons/VE125_randls_27_rotated.json,827125,1023935,24,Man
54,552070,DepthScenes,duration_manipulation_targetAtFixation,jsons/VE125_randls_27_rotated.json,http://54.235.29.9/FacialAge/BNav_EC2/DepthDuration/v2_depth_duration_MTurk/v2_DepthDuration_HTML.html#316,316,1366,625,1366,768,8-29-2022,16-3-36,55,depth_duration_stimuli/002630_2014-06-24_14-47-50_094959634447_rgbf000055-resize_1/002630_2014-06-24_14-47-50_094959634447_rgbf000055-resize_1-target.png,125,3.0095,3,4474,124,meters,jsons/VE125_randls_27_rotated.json,827125,1023935,24,Man
55,552070,DepthScenes,duration_manipulation_targetAtFixation,jsons/VE125_randls_27_rotated.json,http://54.235.29.9/FacialAge/BNav_EC2/DepthDuration/v2_depth_duration_MTurk/v2_DepthDuration_HTML.html#316,316,1366,625,1366,768,8-29-2022,16-3-36,56,depth_duration_stimuli/000742_2014-06-08_18-48-09_260595134347_rgbf000164-resize_4/000742_2014-06-08_18-48-09_260595134347_rgbf000164-resize_4-target.png,125,4.632,3,6160,126,meters,jsons/VE125_randls_27_rotated.json,827125,1023935,24,Man
56,552070,DepthScenes,duration_manipulation_targetAtFixation,jsons/VE125_randls_27_rotated.json,http://54.235.29.9/FacialAge/BNav_EC2/DepthDuration/v2_depth_duration_MTurk/v2_DepthDuration_HTML.html#316,316,1366,625,1366,768,8-29-2022,16-3-36,57,depth_duration_stimuli/001066_2014-06-08_22-03-20_260595134347_rgbf000066-resize_4/001066_2014-06-08_22-03-20_260595134347_rgbf000066-resize_4-target.png,125,4.2330000000000005,1,3051,117,meters,jsons/VE125_randls_27_rotated.json,827125,1023935,24,Man
57,552070,DepthScenes,duration_manipulation_targetAtFixation,jsons/VE125_randls_27_rotated.json,http://54.235.29.9/FacialAge/BNav_EC2/DepthDuration/v2_depth_duration_MTurk/v2_DepthDuration_HTML.html#316,316,1366,625,1366,768,8-29-2022,16-3-36,58,depth_duration_stimuli/002678_2014-06-13_16-15-32_094959634447_rgbf000151-resize_6/002678_2014-06-13_16-15-32_094959634447_rgbf000151-resize_6-target.png,125,2.1830000000000003,3,3890,30,meters,jsons/VE125_randls_27_rotated.json,827125,1023935,24,Man
58,552070,DepthScenes,duration_manipulation_targetAtFixation,jsons/VE125_randls_27_rotated.json,http://54.235.29.9/FacialAge/BNav_EC2/DepthDuration/v2_depth_duration_MTurk/v2_DepthDuration_HTML.html#316,316,1366,625,1366,768,8-29-2022,16-3-36,59,depth_duration_stimuli/000368_2014-06-09_15-53-01_260595134347_rgbf000155-resize_2/000368_2014-06-09_15-53-01_260595134347_rgbf000155-resize_2-target.png,125,2.4859999999999998,4,3035,116,meters,jsons/VE125_randls_27_rotated.json,827125,1023935,24,Man
59,552070,DepthScenes,duration_manipulation_targetAtFixation,jsons/VE125_randls_27_rotated.json,http://54.235.29.9/FacialAge/BNav_EC2/DepthDuration/v2_depth_duration_MTurk/v2_DepthDuration_HTML.html#316,316,1366,625,1366,768,8-29-2022,16-3-36,60,depth_duration_stimuli/003495_2014-05-21_16-01-51_094959634447_rgbf000100-resize_3/003495_2014-05-21_16-01-51_094959634447_rgbf000100-resize_3-target.png,125,1.6255,3,3149,124,meters,jsons/VE125_randls_27_rotated.json,827125,1023935,24,Man
60,552070,DepthScenes,duration_manipulation_targetAtFixation,jsons/VE125_randls_27_rotated.json,http://54.235.29.9/FacialAge/BNav_EC2/DepthDuration/v2_depth_duration_MTurk/v2_DepthDuration_HTML.html#316,316,1366,625,1366,768,8-29-2022,16-3-36,61,depth_duration_stimuli/001244_2014-06-17_16-47-45_260595134347_rgbf000030-resize_4/001244_2014-06-17_16-47-45_260595134347_rgbf000030-resize_4-target.png,125,2.0425,1,3134,125,meters,jsons/VE125_randls_27_rotated.json,827125,1023935,24,Man
61,552070,DepthScenes,duration_manipulation_targetAtFixation,jsons/VE125_randls_27_rotated.json,http://54.235.29.9/FacialAge/BNav_EC2/DepthDuration/v2_depth_duration_MTurk/v2_DepthDuration_HTML.html#316,316,1366,625,1366,768,8-29-2022,16-3-36,62,depth_duration_stimuli/000854_2014-06-09_19-43-13_260595134347_rgbf000066-resize_0/000854_2014-06-09_19-43-13_260595134347_rgbf000066-resize_0-target.png,125,3.068,1,3539,124,meters,jsons/VE125_randls_27_rotated.json,827125,1023935,24,Man
62,552070,DepthScenes,duration_manipulation_targetAtFixation,jsons/VE125_randls_27_rotated.json,http://54.235.29.9/FacialAge/BNav_EC2/DepthDuration/v2_depth_duration_MTurk/v2_DepthDuration_HTML.html#316,316,1366,625,1366,768,8-29-2022,16-3-36,63,depth_duration_stimuli/000758_2014-06-08_22-05-08_260595134347_rgbf000085-resize_0/000758_2014-06-08_22-05-08_260595134347_rgbf000085-resize_0-target.png,125,3.3810000000000002,2,4208,123,meters,jsons/VE125_randls_27_rotated.json,827125,1023935,24,Man
63,552070,DepthScenes,duration_manipulation_targetAtFixation,jsons/VE125_randls_27_rotated.json,http://54.235.29.9/FacialAge/BNav_EC2/DepthDuration/v2_depth_duration_MTurk/v2_DepthDuration_HTML.html#316,316,1366,625,1366,768,8-29-2022,16-3-36,64,depth_duration_stimuli/001584_2014-06-20_11-07-43_260595134347_rgbf000002-resize_1/001584_2014-06-20_11-07-43_260595134347_rgbf000002-resize_1-target.png,125,3.53,5,4151,46,meters,jsons/VE125_randls_27_rotated.json,827125,1023935,24,Man
64,552070,DepthScenes,duration_manipulation_targetAtFixation,jsons/VE125_randls_27_rotated.json,http://54.235.29.9/FacialAge/BNav_EC2/DepthDuration/v2_depth_duration_MTurk/v2_DepthDuration_HTML.html#316,316,1366,625,1366,768,8-29-2022,16-3-36,65,depth_duration_stimuli/003621_2014-05-23_18-06-08_094959634447_rgbf000101-resize_1/003621_2014-05-23_18-06-08_094959634447_rgbf000101-resize_1-target.png,125,3.9835,1,3331,53,meters,jsons/VE125_randls_27_rotated.json,827125,1023935,24,Man
65,552070,DepthScenes,duration_manipulation_targetAtFixation,jsons/VE125_randls_27_rotated.json,http://54.235.29.9/FacialAge/BNav_EC2/DepthDuration/v2_depth_duration_MTurk/v2_DepthDuration_HTML.html#316,316,1366,625,1366,768,8-29-2022,16-3-36,66,depth_duration_stimuli/001540_2014-06-20_17-01-05_260595134347_rgbf000086-resize_2/001540_2014-06-20_17-01-05_260595134347_rgbf000086-resize-original.jpg,125,1.459,3,3218,115,meters,jsons/VE125_randls_27_rotated.json,827125,1023935,24,Man
66,552070,DepthScenes,duration_manipulation_targetAtFixation,jsons/VE125_randls_27_rotated.json,http://54.235.29.9/FacialAge/BNav_EC2/DepthDuration/v2_depth_duration_MTurk/v2_DepthDuration_HTML.html#316,316,1366,625,1366,768,8-29-2022,16-3-36,67,depth_duration_stimuli/001617_2014-06-20_11-35-32_260595134347_rgbf000066-resize_1/001617_2014-06-20_11-35-32_260595134347_rgbf000066-resize_1-target.png,125,3.7910000000000004,2,4309,125,meters,jsons/VE125_randls_27_rotated.json,827125,1023935,24,Man
67,552070,DepthScenes,duration_manipulation_targetAtFixation,jsons/VE125_randls_27_rotated.json,http://54.235.29.9/FacialAge/BNav_EC2/DepthDuration/v2_depth_duration_MTurk/v2_DepthDuration_HTML.html#316,316,1366,625,1366,768,8-29-2022,16-3-36,68,depth_duration_stimuli/001806_2014-06-26_20-50-20_260595134347_rgbf000091-resize_1/001806_2014-06-26_20-50-20_260595134347_rgbf000091-resize_1-target.png,125,2.7305,1,3267,107,meters,jsons/VE125_randls_27_rotated.json,827125,1023935,24,Man
68,552070,DepthScenes,duration_manipulation_targetAtFixation,jsons/VE125_randls_27_rotated.json,http://54.235.29.9/FacialAge/BNav_EC2/DepthDuration/v2_depth_duration_MTurk/v2_DepthDuration_HTML.html#316,316,1366,625,1366,768,8-29-2022,16-3-36,69,depth_duration_stimuli/000556_2014-06-09_22-42-56_260595134347_rgbf000214-resize_1/000556_2014-06-09_22-42-56_260595134347_rgbf000214-resize_1-target.png,125,4.8415,3,3392,125,meters,jsons/VE125_randls_27_rotated.json,827125,1023935,24,Man
69,552070,DepthScenes,duration_manipulation_targetAtFixation,jsons/VE125_randls_27_rotated.json,http://54.235.29.9/FacialAge/BNav_EC2/DepthDuration/v2_depth_duration_MTurk/v2_DepthDuration_HTML.html#316,316,1366,625,1366,768,8-29-2022,16-3-36,70,depth_duration_stimuli/001158_2014-06-17_15-32-16_260595134347_rgbf000138-resize_2/001158_2014-06-17_15-32-16_260595134347_rgbf000138-resize_2-target.png,125,4.5315,4,3558,124,meters,jsons/VE125_randls_27_rotated.json,827125,1023935,24,Man
70,552070,DepthScenes,duration_manipulation_targetAtFixation,jsons/VE125_randls_27_rotated.json,http://54.235.29.9/FacialAge/BNav_EC2/DepthDuration/v2_depth_duration_MTurk/v2_DepthDuration_HTML.html#316,316,1366,625,1366,768,8-29-2022,16-3-36,71,depth_duration_stimuli/000635_2014-06-08_16-38-42_260595134347_rgbf000106-resize_1/000635_2014-06-08_16-38-42_260595134347_rgbf000106-resize_1-target.png,125,2.074,2,3512,118,meters,jsons/VE125_randls_27_rotated.json,827125,1023935,24,Man
71,552070,DepthScenes,duration_manipulation_targetAtFixation,jsons/VE125_randls_27_rotated.json,http://54.235.29.9/FacialAge/BNav_EC2/DepthDuration/v2_depth_duration_MTurk/v2_DepthDuration_HTML.html#316,316,1366,625,1366,768,8-29-2022,16-3-36,72,depth_duration_stimuli/002279_2014-06-28_18-55-32_260595134347_rgbf000040-resize_5/002279_2014-06-28_18-55-32_260595134347_rgbf000040-resize_5-target.png,125,1.5043333333333,6,4066,125,meters,jsons/VE125_randls_27_rotated.json,827125,1023935,24,Man
72,552070,DepthScenes,duration_manipulation_targetAtFixation,jsons/VE125_randls_27_rotated.json,http://54.235.29.9/FacialAge/BNav_EC2/DepthDuration/v2_depth_duration_MTurk/v2_DepthDuration_HTML.html#316,316,1366,625,1366,768,8-29-2022,16-3-36,73,depth_duration_stimuli/002637_2014-06-24_14-51-13_094959634447_rgbf000066-resize_4/002637_2014-06-24_14-51-13_094959634447_rgbf000066-resize_4-target.png,125,1.9955,3,3632,125,meters,jsons/VE125_randls_27_rotated.json,827125,1023935,24,Man
73,552070,DepthScenes,duration_manipulation_targetAtFixation,jsons/VE125_randls_27_rotated.json,http://54.235.29.9/FacialAge/BNav_EC2/DepthDuration/v2_depth_duration_MTurk/v2_DepthDuration_HTML.html#316,316,1366,625,1366,768,8-29-2022,16-3-36,74,depth_duration_stimuli/003534_2014-05-22_15-06-10_094959634447_rgbf000102-resize_4/003534_2014-05-22_15-06-10_094959634447_rgbf000102-resize_4-target.png,125,1.426,3,11224,125,meters,jsons/VE125_randls_27_rotated.json,827125,1023935,24,Man
74,552070,DepthScenes,duration_manipulation_targetAtFixation,jsons/VE125_randls_27_rotated.json,http://54.235.29.9/FacialAge/BNav_EC2/DepthDuration/v2_depth_duration_MTurk/v2_DepthDuration_HTML.html#316,316,1366,625,1366,768,8-29-2022,16-3-36,75,depth_duration_stimuli/000409_2014-06-04_19-23-33_260595134347_rgbf000067-resize_0/000409_2014-06-04_19-23-33_260595134347_rgbf000067-resize_0-target.png,125,3.7335,2,10912,123,meters,jsons/VE125_randls_27_rotated.json,827125,1023935,24,Man
75,552070,DepthScenes,duration_manipulation_targetAtFixation,jsons/VE125_randls_27_rotated.json,http://54.235.29.9/FacialAge/BNav_EC2/DepthDuration/v2_depth_duration_MTurk/v2_DepthDuration_HTML.html#316,316,1366,625,1366,768,8-29-2022,16-3-36,76,depth_duration_stimuli/002663_2014-06-13_15-50-26_094959634447_rgbf000075-resize_1/002663_2014-06-13_15-50-26_094959634447_rgbf000075-resize_1-target.png,125,4.7495,3,2777,125,meters,jsons/VE125_randls_27_rotated.json,827125,1023935,24,Man
76,552070,DepthScenes,duration_manipulation_targetAtFixation,jsons/VE125_randls_27_rotated.json,http://54.235.29.9/FacialAge/BNav_EC2/DepthDuration/v2_depth_duration_MTurk/v2_DepthDuration_HTML.html#316,316,1366,625,1366,768,8-29-2022,16-3-36,77,depth_duration_stimuli/003010_2014-06-15_12-54-35_094959634447_rgbf000112-resize_0/003010_2014-06-15_12-54-35_094959634447_rgbf000112-resize_0-target.png,125,3.1185,1,2948,115,meters,jsons/VE125_randls_27_rotated.json,827125,1023935,24,Man
77,552070,DepthScenes,duration_manipulation_targetAtFixation,jsons/VE125_randls_27_rotated.json,http://54.235.29.9/FacialAge/BNav_EC2/DepthDuration/v2_depth_duration_MTurk/v2_DepthDuration_HTML.html#316,316,1366,625,1366,768,8-29-2022,16-3-36,78,depth_duration_stimuli/001810_2014-06-26_20-51-35_260595134347_rgbf000040-resize_3/001810_2014-06-26_20-51-35_260595134347_rgbf000040-resize_3-target.png,125,2.2525,1,2751,111,meters,jsons/VE125_randls_27_rotated.json,827125,1023935,24,Man
78,552070,DepthScenes,duration_manipulation_targetAtFixation,jsons/VE125_randls_27_rotated.json,http://54.235.29.9/FacialAge/BNav_EC2/DepthDuration/v2_depth_duration_MTurk/v2_DepthDuration_HTML.html#316,316,1366,625,1366,768,8-29-2022,16-3-36,79,depth_duration_stimuli/001214_2014-06-17_16-13-55_260595134347_rgbf000111-resize_0/001214_2014-06-17_16-13-55_260595134347_rgbf000111-resize_0-target.png,125,2.6505,2,3450,121,meters,jsons/VE125_randls_27_rotated.json,827125,1023935,24,Man
79,552070,DepthScenes,duration_manipulation_targetAtFixation,jsons/VE125_randls_27_rotated.json,http://54.235.29.9/FacialAge/BNav_EC2/DepthDuration/v2_depth_duration_MTurk/v2_DepthDuration_HTML.html#316,316,1366,625,1366,768,8-29-2022,16-3-36,80,depth_duration_stimuli/000810_2014-06-08_17-20-01_260595134347_rgbf000105-resize_0/000810_2014-06-08_17-20-01_260595134347_rgbf000105-resize_0-target.png,125,1.4865,1,16676,123,meters,jsons/VE125_randls_27_rotated.json,827125,1023935,24,Man
80,552070,DepthScenes,duration_manipulation_targetAtFixation,jsons/VE125_randls_27_rotated.json,http://54.235.29.9/FacialAge/BNav_EC2/DepthDuration/v2_depth_duration_MTurk/v2_DepthDuration_HTML.html#316,316,1366,625,1366,768,8-29-2022,16-3-36,81,depth_duration_stimuli/000103_2014-05-14_22-01-17_260595134347_rgbf000152-resize_5/000103_2014-05-14_22-01-17_260595134347_rgbf000152-resize_5-target.png,125,1.993,3,3051,123,meters,jsons/VE125_randls_27_rotated.json,827125,1023935,24,Man
81,552070,DepthScenes,duration_manipulation_targetAtFixation,jsons/VE125_randls_27_rotated.json,http://54.235.29.9/FacialAge/BNav_EC2/DepthDuration/v2_depth_duration_MTurk/v2_DepthDuration_HTML.html#316,316,1366,625,1366,768,8-29-2022,16-3-36,82,depth_duration_stimuli/001555_2014-06-20_17-12-10_260595134347_rgbf000065-resize_4/001555_2014-06-20_17-12-10_260595134347_rgbf000065-resize_4-target.png,125,1.633,1,2569,126,meters,jsons/VE125_randls_27_rotated.json,827125,1023935,24,Man
82,552070,DepthScenes,duration_manipulation_targetAtFixation,jsons/VE125_randls_27_rotated.json,http://54.235.29.9/FacialAge/BNav_EC2/DepthDuration/v2_depth_duration_MTurk/v2_DepthDuration_HTML.html#316,316,1366,625,1366,768,8-29-2022,16-3-36,83,depth_duration_stimuli/001132_2014-06-17_14-48-54_260595134347_rgbf000100-resize_2/001132_2014-06-17_14-48-54_260595134347_rgbf000100-resize_2-target.png,125,3.753,2,3247,123,meters,jsons/VE125_randls_27_rotated.json,827125,1023935,24,Man
83,552070,DepthScenes,duration_manipulation_targetAtFixation,jsons/VE125_randls_27_rotated.json,http://54.235.29.9/FacialAge/BNav_EC2/DepthDuration/v2_depth_duration_MTurk/v2_DepthDuration_HTML.html#316,316,1366,625,1366,768,8-29-2022,16-3-36,84,depth_duration_stimuli/001133_2014-06-17_14-49-16_260595134347_rgbf000100-resize_0/001133_2014-06-17_14-49-16_260595134347_rgbf000100-resize_0-target.png,125,4.2115,2,2721,138,meters,jsons/VE125_randls_27_rotated.json,827125,1023935,24,Man
84,552070,DepthScenes,duration_manipulation_targetAtFixation,jsons/VE125_randls_27_rotated.json,http://54.235.29.9/FacialAge/BNav_EC2/DepthDuration/v2_depth_duration_MTurk/v2_DepthDuration_HTML.html#316,316,1366,625,1366,768,8-29-2022,16-3-36,85,depth_duration_stimuli/002323_2014-06-28_20-01-54_260595134347_rgbf000051-resize_4/002323_2014-06-28_20-01-54_260595134347_rgbf000051-resize_4-target.png,125,3.7310000000000003,3,3044,124,meters,jsons/VE125_randls_27_rotated.json,827125,1023935,24,Man
85,552070,DepthScenes,duration_manipulation_targetAtFixation,jsons/VE125_randls_27_rotated.json,http://54.235.29.9/FacialAge/BNav_EC2/DepthDuration/v2_depth_duration_MTurk/v2_DepthDuration_HTML.html#316,316,1366,625,1366,768,8-29-2022,16-3-36,86,depth_duration_stimuli/000917_2014-06-09_22-45-29_260595134347_rgbf000149-resize_3/000917_2014-06-09_22-45-29_260595134347_rgbf000149-resize_3-target.png,125,4.1865,2,3385,129,meters,jsons/VE125_randls_27_rotated.json,827125,1023935,24,Man
86,552070,DepthScenes,duration_manipulation_targetAtFixation,jsons/VE125_randls_27_rotated.json,http://54.235.29.9/FacialAge/BNav_EC2/DepthDuration/v2_depth_duration_MTurk/v2_DepthDuration_HTML.html#316,316,1366,625,1366,768,8-29-2022,16-3-36,87,depth_duration_stimuli/002545_2014-06-24_13-38-53_094959634447_rgbf000080-resize_4/002545_2014-06-24_13-38-53_094959634447_rgbf000080-resize_4-target.png,125,1.9205,4,4054,124,meters,jsons/VE125_randls_27_rotated.json,827125,1023935,24,Man
87,552070,DepthScenes,duration_manipulation_targetAtFixation,jsons/VE125_randls_27_rotated.json,http://54.235.29.9/FacialAge/BNav_EC2/DepthDuration/v2_depth_duration_MTurk/v2_DepthDuration_HTML.html#316,316,1366,625,1366,768,8-29-2022,16-3-36,88,depth_duration_stimuli/001092_2014-06-15_17-34-58_260595134347_rgbf000171-resize_3/001092_2014-06-15_17-34-58_260595134347_rgbf000171-resize_3-target.png,125,2.6935,1,9435,123,meters,jsons/VE125_randls_27_rotated.json,827125,1023935,24,Man
88,552070,DepthScenes,duration_manipulation_targetAtFixation,jsons/VE125_randls_27_rotated.json,http://54.235.29.9/FacialAge/BNav_EC2/DepthDuration/v2_depth_duration_MTurk/v2_DepthDuration_HTML.html#316,316,1366,625,1366,768,8-29-2022,16-3-36,89,depth_duration_stimuli/002344_2014-06-28_20-06-29_260595134347_rgbf000030-resize_1/002344_2014-06-28_20-06-29_260595134347_rgbf000030-resize_1-target.png,125,1.5795,2,2934,134,meters,jsons/VE125_randls_27_rotated.json,827125,1023935,24,Man
89,552070,DepthScenes,duration_manipulation_targetAtFixation,jsons/VE125_randls_27_rotated.json,http://54.235.29.9/FacialAge/BNav_EC2/DepthDuration/v2_depth_duration_MTurk/v2_DepthDuration_HTML.html#316,316,1366,625,1366,768,8-29-2022,16-3-36,90,depth_duration_stimuli/002725_2014-06-22_11-47-51_094959634447_rgbf000070-resize_1/002725_2014-06-22_11-47-51_094959634447_rgbf000070-resize_1-target.png,125,2.195,2,3043,119,meters,jsons/VE125_randls_27_rotated.json,827125,1023935,24,Man
90,552070,DepthScenes,duration_manipulation_targetAtFixation,jsons/VE125_randls_27_rotated.json,http://54.235.29.9/FacialAge/BNav_EC2/DepthDuration/v2_depth_duration_MTurk/v2_DepthDuration_HTML.html#316,316,1366,625,1366,768,8-29-2022,16-3-36,91,depth_duration_stimuli/001450_2014-06-19_17-02-03_260595134347_rgbf000203-resize_4/001450_2014-06-19_17-02-03_260595134347_rgbf000203-resize_4-target.png,125,4.0106666666667,1,2630,175,meters,jsons/VE125_randls_27_rotated.json,827125,1023935,24,Man
91,552070,DepthScenes,duration_manipulation_targetAtFixation,jsons/VE125_randls_27_rotated.json,http://54.235.29.9/FacialAge/BNav_EC2/DepthDuration/v2_depth_duration_MTurk/v2_DepthDuration_HTML.html#316,316,1366,625,1366,768,8-29-2022,16-3-36,92,depth_duration_stimuli/001449_2014-06-19_17-01-27_260595134347_rgbf000116-resize_2/001449_2014-06-19_17-01-27_260595134347_rgbf000116-resize_2-target.png,125,3.452,1,2746,114,meters,jsons/VE125_randls_27_rotated.json,827125,1023935,24,Man
92,552070,DepthScenes,duration_manipulation_targetAtFixation,jsons/VE125_randls_27_rotated.json,http://54.235.29.9/FacialAge/BNav_EC2/DepthDuration/v2_depth_duration_MTurk/v2_DepthDuration_HTML.html#316,316,1366,625,1366,768,8-29-2022,16-3-36,93,depth_duration_stimuli/000457_2014-06-08_16-52-43_260595134347_rgbf000199-resize_1/000457_2014-06-08_16-52-43_260595134347_rgbf000199-resize_1-target.png,125,3.6489999999999996,2,3030,126,meters,jsons/VE125_randls_27_rotated.json,827125,1023935,24,Man
93,552070,DepthScenes,duration_manipulation_targetAtFixation,jsons/VE125_randls_27_rotated.json,http://54.235.29.9/FacialAge/BNav_EC2/DepthDuration/v2_depth_duration_MTurk/v2_DepthDuration_HTML.html#316,316,1366,625,1366,768,8-29-2022,16-3-36,94,depth_duration_stimuli/000929_2014-06-09_16-33-19_260595134347_rgbf000139-resize_0/000929_2014-06-09_16-33-19_260595134347_rgbf000139-resize_0-target.png,125,2.8680000000000003,4,4202,39,meters,jsons/VE125_randls_27_rotated.json,827125,1023935,24,Man
94,552070,DepthScenes,duration_manipulation_targetAtFixation,jsons/VE125_randls_27_rotated.json,http://54.235.29.9/FacialAge/BNav_EC2/DepthDuration/v2_depth_duration_MTurk/v2_DepthDuration_HTML.html#316,316,1366,625,1366,768,8-29-2022,16-3-36,95,depth_duration_stimuli/001235_2014-06-17_16-37-36_260595134347_rgbf000084-resize_4/001235_2014-06-17_16-37-36_260595134347_rgbf000084-resize_4-target.png,125,3.6605,1,3403,123,meters,jsons/VE125_randls_27_rotated.json,827125,1023935,24,Man
95,552070,DepthScenes,duration_manipulation_targetAtFixation,jsons/VE125_randls_27_rotated.json,http://54.235.29.9/FacialAge/BNav_EC2/DepthDuration/v2_depth_duration_MTurk/v2_DepthDuration_HTML.html#316,316,1366,625,1366,768,8-29-2022,16-3-36,96,depth_duration_stimuli/000788_2014-06-08_22-34-36_260595134347_rgbf000131-resize_1/000788_2014-06-08_22-34-36_260595134347_rgbf000131-resize_1-target.png,125,3.359,1,2882,120,meters,jsons/VE125_randls_27_rotated.json,827125,1023935,24,Man
96,552070,DepthScenes,duration_manipulation_targetAtFixation,jsons/VE125_randls_27_rotated.json,http://54.235.29.9/FacialAge/BNav_EC2/DepthDuration/v2_depth_duration_MTurk/v2_DepthDuration_HTML.html#316,316,1366,625,1366,768,8-29-2022,16-3-36,97,depth_duration_stimuli/000927_2014-06-09_16-32-30_260595134347_rgbf000123-resize_3/000927_2014-06-09_16-32-30_260595134347_rgbf000123-resize_3-target.png,125,2.6785,2,2777,123,meters,jsons/VE125_randls_27_rotated.json,827125,1023935,24,Man
97,552070,DepthScenes,duration_manipulation_targetAtFixation,jsons/VE125_randls_27_rotated.json,http://54.235.29.9/FacialAge/BNav_EC2/DepthDuration/v2_depth_duration_MTurk/v2_DepthDuration_HTML.html#316,316,1366,625,1366,768,8-29-2022,16-3-36,98,depth_duration_stimuli/001110_2014-06-15_17-25-28_260595134347_rgbf000150-resize_1/001110_2014-06-15_17-25-28_260595134347_rgbf000150-resize_1-target.png,125,1.7115,1,3193,117,meters,jsons/VE125_randls_27_rotated.json,827125,1023935,24,Man
98,552070,DepthScenes,duration_manipulation_targetAtFixation,jsons/VE125_randls_27_rotated.json,http://54.235.29.9/FacialAge/BNav_EC2/DepthDuration/v2_depth_duration_MTurk/v2_DepthDuration_HTML.html#316,316,1366,625,1366,768,8-29-2022,16-3-36,99,depth_duration_stimuli/001222_2014-06-17_16-24-06_260595134347_rgbf000073-resize_0/001222_2014-06-17_16-24-06_260595134347_rgbf000073-resize-original.jpg,125,1.4385,1,3828,126,meters,jsons/VE125_randls_27_rotated.json,827125,1023935,24,Man
99,552070,DepthScenes,duration_manipulation_targetAtFixation,jsons/VE125_randls_27_rotated.json,http://54.235.29.9/FacialAge/BNav_EC2/DepthDuration/v2_depth_duration_MTurk/v2_DepthDuration_HTML.html#316,316,1366,625,1366,768,8-29-2022,16-3-36,100,depth_duration_stimuli/003587_2014-05-23_16-48-02_094959634447_rgbf002384-resize_2/003587_2014-05-23_16-48-02_094959634447_rgbf002384-resize_2-target.png,125,1.357,3,3201,101,meters,jsons/VE125_randls_27_rotated.json,827125,1023935,24,Man
100,552070,DepthScenes,duration_manipulation_targetAtFixation,jsons/VE125_randls_27_rotated.json,http://54.235.29.9/FacialAge/BNav_EC2/DepthDuration/v2_depth_duration_MTurk/v2_DepthDuration_HTML.html#316,316,1366,625,1366,768,8-29-2022,16-3-36,101,depth_duration_stimuli/001167_2014-06-17_15-38-07_260595134347_rgbf000108-resize_0/001167_2014-06-17_15-38-07_260595134347_rgbf000108-resize_0-target.png,125,1.8505,2,3248,131,meters,jsons/VE125_randls_27_rotated.json,827125,1023935,24,Man
101,552070,DepthScenes,duration_manipulation_targetAtFixation,jsons/VE125_randls_27_rotated.json,http://54.235.29.9/FacialAge/BNav_EC2/DepthDuration/v2_depth_duration_MTurk/v2_DepthDuration_HTML.html#316,316,1366,625,1366,768,8-29-2022,16-3-36,102,depth_duration_stimuli/001571_2014-06-20_17-21-32_260595134347_rgbf000089-resize_1/001571_2014-06-20_17-21-32_260595134347_rgbf000089-resize_1-target.png,125,1.86,2,3252,117,meters,jsons/VE125_randls_27_rotated.json,827125,1023935,24,Man
102,552070,DepthScenes,duration_manipulation_targetAtFixation,jsons/VE125_randls_27_rotated.json,http://54.235.29.9/FacialAge/BNav_EC2/DepthDuration/v2_depth_duration_MTurk/v2_DepthDuration_HTML.html#316,316,1366,625,1366,768,8-29-2022,16-3-36,103,depth_duration_stimuli/002272_2014-06-28_18-53-56_260595134347_rgbf000067-resize_2/002272_2014-06-28_18-53-56_260595134347_rgbf000067-resize_2-target.png,125,1.138,2,3023,121,meters,jsons/VE125_randls_27_rotated.json,827125,1023935,24,Man
103,552070,DepthScenes,duration_manipulation_targetAtFixation,jsons/VE125_randls_27_rotated.json,http://54.235.29.9/FacialAge/BNav_EC2/DepthDuration/v2_depth_duration_MTurk/v2_DepthDuration_HTML.html#316,316,1366,625,1366,768,8-29-2022,16-3-36,104,depth_duration_stimuli/000665_2014-06-09_20-42-35_260595134347_rgbf000110-resize_1/000665_2014-06-09_20-42-35_260595134347_rgbf000110-resize_1-target.png,125,3.057,3,3197,124,meters,jsons/VE125_randls_27_rotated.json,827125,1023935,24,Man
104,552070,DepthScenes,duration_manipulation_targetAtFixation,jsons/VE125_randls_27_rotated.json,http://54.235.29.9/FacialAge/BNav_EC2/DepthDuration/v2_depth_duration_MTurk/v2_DepthDuration_HTML.html#316,316,1366,625,1366,768,8-29-2022,16-3-36,105,depth_duration_stimuli/001150_2014-06-17_15-27-34_260595134347_rgbf000108-resize_2/001150_2014-06-17_15-27-34_260595134347_rgbf000108-resize_2-target.png,125,4.0325,4,3434,123,meters,jsons/VE125_randls_27_rotated.json,827125,1023935,24,Man
105,552070,DepthScenes,duration_manipulation_targetAtFixation,jsons/VE125_randls_27_rotated.json,http://54.235.29.9/FacialAge/BNav_EC2/DepthDuration/v2_depth_duration_MTurk/v2_DepthDuration_HTML.html#316,316,1366,625,1366,768,8-29-2022,16-3-36,106,depth_duration_stimuli/000109_2014-05-14_23-41-52_260595134347_rgbf000035-resize_9/000109_2014-05-14_23-41-52_260595134347_rgbf000035-resize_9-target.png,125,1.3545,2,3561,147,meters,jsons/VE125_randls_27_rotated.json,827125,1023935,24,Man
106,552070,DepthScenes,duration_manipulation_targetAtFixation,jsons/VE125_randls_27_rotated.json,http://54.235.29.9/FacialAge/BNav_EC2/DepthDuration/v2_depth_duration_MTurk/v2_DepthDuration_HTML.html#316,316,1366,625,1366,768,8-29-2022,16-3-36,107,depth_duration_stimuli/000470_2014-06-09_19-42-40_260595134347_rgbf000094-resize_1/000470_2014-06-09_19-42-40_260595134347_rgbf000094-resize_1-target.png,125,1.831,1,3374,124,meters,jsons/VE125_randls_27_rotated.json,827125,1023935,24,Man
107,552070,DepthScenes,duration_manipulation_targetAtFixation,jsons/VE125_randls_27_rotated.json,http://54.235.29.9/FacialAge/BNav_EC2/DepthDuration/v2_depth_duration_MTurk/v2_DepthDuration_HTML.html#316,316,1366,625,1366,768,8-29-2022,16-3-36,108,depth_duration_stimuli/002953_2014-06-08_17-32-18_094959634447_rgbf000059-resize_5/002953_2014-06-08_17-32-18_094959634447_rgbf000059-resize_5-target.png,125,1.551,2,2890,123,meters,jsons/VE125_randls_27_rotated.json,827125,1023935,24,Man
108,552070,DepthScenes,duration_manipulation_targetAtFixation,jsons/VE125_randls_27_rotated.json,http://54.235.29.9/FacialAge/BNav_EC2/DepthDuration/v2_depth_duration_MTurk/v2_DepthDuration_HTML.html#316,316,1366,625,1366,768,8-29-2022,16-3-36,109,depth_duration_stimuli/000878_2014-06-08_22-52-45_260595134347_rgbf000045-resize_2/000878_2014-06-08_22-52-45_260595134347_rgbf000045-resize_2-target.png,125,2.092,3,2861,109,meters,jsons/VE125_randls_27_rotated.json,827125,1023935,24,Man
109,552070,DepthScenes,duration_manipulation_targetAtFixation,jsons/VE125_randls_27_rotated.json,http://54.235.29.9/FacialAge/BNav_EC2/DepthDuration/v2_depth_duration_MTurk/v2_DepthDuration_HTML.html#316,316,1366,625,1366,768,8-29-2022,16-3-36,110,depth_duration_stimuli/000677_2014-06-08_23-10-32_260595134347_rgbf000158-resize_6/000677_2014-06-08_23-10-32_260595134347_rgbf000158-resize_6-target.png,125,3.556,2,3898,124,meters,jsons/VE125_randls_27_rotated.json,827125,1023935,24,Man
110,552070,DepthScenes,duration_manipulation_targetAtFixation,jsons/VE125_randls_27_rotated.json,http://54.235.29.9/FacialAge/BNav_EC2/DepthDuration/v2_depth_duration_MTurk/v2_DepthDuration_HTML.html#316,316,1366,625,1366,768,8-29-2022,16-3-36,111,depth_duration_stimuli/001029_2014-06-08_13-17-57_260595134347_rgbf000065-resize_1/001029_2014-06-08_13-17-57_260595134347_rgbf000065-resize_1-target.png,125,3.0835,1,2368,123,meters,jsons/VE125_randls_27_rotated.json,827125,1023935,24,Man
111,552070,DepthScenes,duration_manipulation_targetAtFixation,jsons/VE125_randls_27_rotated.json,http://54.235.29.9/FacialAge/BNav_EC2/DepthDuration/v2_depth_duration_MTurk/v2_DepthDuration_HTML.html#316,316,1366,625,1366,768,8-29-2022,16-3-36,112,depth_duration_stimuli/001100_2014-06-15_17-46-26_260595134347_rgbf000225-resize_2/001100_2014-06-15_17-46-26_260595134347_rgbf000225-resize_2-target.png,125,2.24,1,2467,24,meters,jsons/VE125_randls_27_rotated.json,827125,1023935,24,Man
112,552070,DepthScenes,duration_manipulation_targetAtFixation,jsons/VE125_randls_27_rotated.json,http://54.235.29.9/FacialAge/BNav_EC2/DepthDuration/v2_depth_duration_MTurk/v2_DepthDuration_HTML.html#316,316,1366,625,1366,768,8-29-2022,16-3-36,113,depth_duration_stimuli/002784_2014-06-22_19-26-30_094959634447_rgbf000083-resize_3/002784_2014-06-22_19-26-30_094959634447_rgbf000083-resize_3-target.png,125,1.8046666666667,2,4178,124,meters,jsons/VE125_randls_27_rotated.json,827125,1023935,24,Man
113,552070,DepthScenes,duration_manipulation_targetAtFixation,jsons/VE125_randls_27_rotated.json,http://54.235.29.9/FacialAge/BNav_EC2/DepthDuration/v2_depth_duration_MTurk/v2_DepthDuration_HTML.html#316,316,1366,625,1366,768,8-29-2022,16-3-36,114,depth_duration_stimuli/003228_2014-05-14_13-42-35_094959634447_rgbf000101-resize_1/003228_2014-05-14_13-42-35_094959634447_rgbf000101-resize_1-target.png,125,1.9680000000000002,1,2746,134,meters,jsons/VE125_randls_27_rotated.json,827125,1023935,24,Man
114,552070,DepthScenes,duration_manipulation_targetAtFixation,jsons/VE125_randls_27_rotated.json,http://54.235.29.9/FacialAge/BNav_EC2/DepthDuration/v2_depth_duration_MTurk/v2_DepthDuration_HTML.html#316,316,1366,625,1366,768,8-29-2022,16-3-36,115,depth_duration_stimuli/002600_2014-06-24_14-27-04_094959634447_rgbf000074-resize_2/002600_2014-06-24_14-27-04_094959634447_rgbf000074-resize_2-target.png,125,2.7575,2,3077,14,meters,jsons/VE125_randls_27_rotated.json,827125,1023935,24,Man
115,552070,DepthScenes,duration_manipulation_targetAtFixation,jsons/VE125_randls_27_rotated.json,http://54.235.29.9/FacialAge/BNav_EC2/DepthDuration/v2_depth_duration_MTurk/v2_DepthDuration_HTML.html#316,316,1366,625,1366,768,8-29-2022,16-3-36,116,depth_duration_stimuli/003048_2014-06-15_13-49-43_094959634447_rgbf000150-resize_1/003048_2014-06-15_13-49-43_094959634447_rgbf000150-resize_1-target.png,125,4.0035,1,2704,214,meters,jsons/VE125_randls_27_rotated.json,827125,1023935,24,Man
116,552070,DepthScenes,duration_manipulation_targetAtFixation,jsons/VE125_randls_27_rotated.json,http://54.235.29.9/FacialAge/BNav_EC2/DepthDuration/v2_depth_duration_MTurk/v2_DepthDuration_HTML.html#316,316,1366,625,1366,768,8-29-2022,16-3-36,117,depth_duration_stimuli/002043_2014-06-24_20-29-38_260595134347_rgbf000039-resize_4/002043_2014-06-24_20-29-38_260595134347_rgbf000039-resize_4-target.png,125,2.8435,3,4229,118,meters,jsons/VE125_randls_27_rotated.json,827125,1023935,24,Man
117,552070,DepthScenes,duration_manipulation_targetAtFixation,jsons/VE125_randls_27_rotated.json,http://54.235.29.9/FacialAge/BNav_EC2/DepthDuration/v2_depth_duration_MTurk/v2_DepthDuration_HTML.html#316,316,1366,625,1366,768,8-29-2022,16-3-36,118,depth_duration_stimuli/002103_2014-06-25_20-00-40_260595134347_rgbf000049-resize_0/002103_2014-06-25_20-00-40_260595134347_rgbf000049-resize_0-target.png,125,4.105,1,5321,121,meters,jsons/VE125_randls_27_rotated.json,827125,1023935,24,Man
118,552070,DepthScenes,duration_manipulation_targetAtFixation,jsons/VE125_randls_27_rotated.json,http://54.235.29.9/FacialAge/BNav_EC2/DepthDuration/v2_depth_duration_MTurk/v2_DepthDuration_HTML.html#316,316,1366,625,1366,768,8-29-2022,16-3-36,119,depth_duration_stimuli/002039_2014-06-24_20-22-38_260595134347_rgbf000084-resize_1/002039_2014-06-24_20-22-38_260595134347_rgbf000084-resize_1-target.png,125,4.408,3,3167,125,meters,jsons/VE125_randls_27_rotated.json,827125,1023935,24,Man
119,552070,DepthScenes,duration_manipulation_targetAtFixation,jsons/VE125_randls_27_rotated.json,http://54.235.29.9/FacialAge/BNav_EC2/DepthDuration/v2_depth_duration_MTurk/v2_DepthDuration_HTML.html#316,316,1366,625,1366,768,8-29-2022,16-3-36,120,depth_duration_stimuli/000787_2014-06-08_22-33-53_260595134347_rgbf000175-resize_1/000787_2014-06-08_22-33-53_260595134347_rgbf000175-resize-original.jpg,125,4.784,1,3111,126,meters,jsons/VE125_randls_27_rotated.json,827125,1023935,24,Man
120,552070,DepthScenes,duration_manipulation_targetAtFixation,jsons/VE125_randls_27_rotated.json,http://54.235.29.9/FacialAge/BNav_EC2/DepthDuration/v2_depth_duration_MTurk/v2_DepthDuration_HTML.html#316,316,1366,625,1366,768,8-29-2022,16-3-36,121,depth_duration_stimuli/000709_2014-06-08_13-51-55_260595134347_rgbf000068-resize_3/000709_2014-06-08_13-51-55_260595134347_rgbf000068-resize_3-target.png,125,1.8030000000000002,2,7391,124,meters,jsons/VE125_randls_27_rotated.json,827125,1023935,24,Man
121,552070,DepthScenes,duration_manipulation_targetAtFixation,jsons/VE125_randls_27_rotated.json,http://54.235.29.9/FacialAge/BNav_EC2/DepthDuration/v2_depth_duration_MTurk/v2_DepthDuration_HTML.html#316,316,1366,625,1366,768,8-29-2022,16-3-36,122,depth_duration_stimuli/002057_2014-06-24_21-00-13_260595134347_rgbf000120-resize_1/002057_2014-06-24_21-00-13_260595134347_rgbf000120-resize_1-target.png,125,2.967,0,3333,128,meters,jsons/VE125_randls_27_rotated.json,827125,1023935,24,Man
122,552070,DepthScenes,duration_manipulation_targetAtFixation,jsons/VE125_randls_27_rotated.json,http://54.235.29.9/FacialAge/BNav_EC2/DepthDuration/v2_depth_duration_MTurk/v2_DepthDuration_HTML.html#316,316,1366,625,1366,768,8-29-2022,16-3-36,123,depth_duration_stimuli/002949_2014-06-26_15-57-42_094959634447_rgbf000079-resize_1/002949_2014-06-26_15-57-42_094959634447_rgbf000079-resize_1-target.png,125,1.8915,1,2749,124,meters,jsons/VE125_randls_27_rotated.json,827125,1023935,24,Man
123,552070,DepthScenes,duration_manipulation_targetAtFixation,jsons/VE125_randls_27_rotated.json,http://54.235.29.9/FacialAge/BNav_EC2/DepthDuration/v2_depth_duration_MTurk/v2_DepthDuration_HTML.html#316,316,1366,625,1366,768,8-29-2022,16-3-36,124,depth_duration_stimuli/000522_2014-06-08_13-35-06_260595134347_rgbf000244-resize_1/000522_2014-06-08_13-35-06_260595134347_rgbf000244-resize_1-target.png,125,2.3715,5,3456,125,meters,jsons/VE125_randls_27_rotated.json,827125,1023935,24,Man
124,552070,DepthScenes,duration_manipulation_targetAtFixation,jsons/VE125_randls_27_rotated.json,http://54.235.29.9/FacialAge/BNav_EC2/DepthDuration/v2_depth_duration_MTurk/v2_DepthDuration_HTML.html#316,316,1366,625,1366,768,8-29-2022,16-3-36,125,depth_duration_stimuli/001516_2014-06-20_16-25-09_260595134347_rgbf000076-resize_2/001516_2014-06-20_16-25-09_260595134347_rgbf000076-resize_2-target.png,125,1.7445,0,4799,126,meters,jsons/VE125_randls_27_rotated.json,827125,1023935,24,Man
125,552070,DepthScenes,duration_manipulation_targetAtFixation,jsons/VE125_randls_27_rotated.json,http://54.235.29.9/FacialAge/BNav_EC2/DepthDuration/v2_depth_duration_MTurk/v2_DepthDuration_HTML.html#316,316,1366,625,1366,768,8-29-2022,16-3-36,126,depth_duration_stimuli/002118_2014-06-25_20-32-08_260595134347_rgbf000078-resize_1/002118_2014-06-25_20-32-08_260595134347_rgbf000078-resize_1-target.png,125,2.6460000000000004,2,2898,140,meters,jsons/VE125_randls_27_rotated.json,827125,1023935,24,Man
126,552070,DepthScenes,duration_manipulation_targetAtFixation,jsons/VE125_randls_27_rotated.json,http://54.235.29.9/FacialAge/BNav_EC2/DepthDuration/v2_depth_duration_MTurk/v2_DepthDuration_HTML.html#316,316,1366,625,1366,768,8-29-2022,16-3-36,127,depth_duration_stimuli/002657_2014-06-13_15-29-54_094959634447_rgbf000150-resize_1/002657_2014-06-13_15-29-54_094959634447_rgbf000150-resize_1-target.png,125,4.919,2,6469,132,meters,jsons/VE125_randls_27_rotated.json,827125,1023935,24,Man
127,552070,DepthScenes,duration_manipulation_targetAtFixation,jsons/VE125_randls_27_rotated.json,http://54.235.29.9/FacialAge/BNav_EC2/DepthDuration/v2_depth_duration_MTurk/v2_DepthDuration_HTML.html#316,316,1366,625,1366,768,8-29-2022,16-3-36,128,depth_duration_stimuli/002375_2014-06-28_20-13-44_260595134347_rgbf000032-resize_1/002375_2014-06-28_20-13-44_260595134347_rgbf000032-resize_1-target.png,125,4.0175,1,4287,124,meters,jsons/VE125_randls_27_rotated.json,827125,1023935,24,Man
128,552070,DepthScenes,duration_manipulation_targetAtFixation,jsons/VE125_randls_27_rotated.json,http://54.235.29.9/FacialAge/BNav_EC2/DepthDuration/v2_depth_duration_MTurk/v2_DepthDuration_HTML.html#316,316,1366,625,1366,768,8-29-2022,16-3-36,129,depth_duration_stimuli/002414_2014-06-28_20-24-58_260595134347_rgbf000067-resize_4/002414_2014-06-28_20-24-58_260595134347_rgbf000067-resize_4-target.png,125,4.363,3,2539,126,meters,jsons/VE125_randls_27_rotated.json,827125,1023935,24,Man
129,552070,DepthScenes,duration_manipulation_targetAtFixation,jsons/VE125_randls_27_rotated.json,http://54.235.29.9/FacialAge/BNav_EC2/DepthDuration/v2_depth_duration_MTurk/v2_DepthDuration_HTML.html#316,316,1366,625,1366,768,8-29-2022,16-3-36,130,depth_duration_stimuli/000773_2014-06-08_22-24-54_260595134347_rgbf000093-resize_1/000773_2014-06-08_22-24-54_260595134347_rgbf000093-resize_1-target.png,125,4.973,2,2623,61,meters,jsons/VE125_randls_27_rotated.json,827125,1023935,24,Man
130,552070,DepthScenes,duration_manipulation_targetAtFixation,jsons/VE125_randls_27_rotated.json,http://54.235.29.9/FacialAge/BNav_EC2/DepthDuration/v2_depth_duration_MTurk/v2_DepthDuration_HTML.html#316,316,1366,625,1366,768,8-29-2022,16-3-36,131,depth_duration_stimuli/001650_2014-06-20_12-09-00_260595134347_rgbf000087-resize_3/001650_2014-06-20_12-09-00_260595134347_rgbf000087-resize_3-target.png,125,1.9505,3,2770,137,meters,jsons/VE125_randls_27_rotated.json,827125,1023935,24,Man
131,552070,DepthScenes,duration_manipulation_targetAtFixation,jsons/VE125_randls_27_rotated.json,http://54.235.29.9/FacialAge/BNav_EC2/DepthDuration/v2_depth_duration_MTurk/v2_DepthDuration_HTML.html#316,316,1366,625,1366,768,8-29-2022,16-3-36,132,depth_duration_stimuli/000682_2014-06-08_23-14-58_260595134347_rgbf000041-resize_5/000682_2014-06-08_23-14-58_260595134347_rgbf000041-resize_5-target.png,125,2.7239999999999998,0,2793,122,meters,jsons/VE125_randls_27_rotated.json,827125,1023935,24,Man
132,552070,DepthScenes,duration_manipulation_targetAtFixation,jsons/VE125_randls_27_rotated.json,http://54.235.29.9/FacialAge/BNav_EC2/DepthDuration/v2_depth_duration_MTurk/v2_DepthDuration_HTML.html#316,316,1366,625,1366,768,8-29-2022,16-3-36,133,depth_duration_stimuli/000691_2014-06-08_13-08-50_260595134347_rgbf000132-resize_3/000691_2014-06-08_13-08-50_260595134347_rgbf000132-resize_3-target.png,125,4.1530000000000005,2,2875,121,meters,jsons/VE125_randls_27_rotated.json,827125,1023935,24,Man
133,552070,DepthScenes,duration_manipulation_targetAtFixation,jsons/VE125_randls_27_rotated.json,http://54.235.29.9/FacialAge/BNav_EC2/DepthDuration/v2_depth_duration_MTurk/v2_DepthDuration_HTML.html#316,316,1366,625,1366,768,8-29-2022,16-3-36,134,depth_duration_stimuli/002213_2014-06-28_18-37-58_260595134347_rgbf000055-resize_1/002213_2014-06-28_18-37-58_260595134347_rgbf000055-resize_1-target.png,125,3.62,1,2722,116,meters,jsons/VE125_randls_27_rotated.json,827125,1023935,24,Man
134,552070,DepthScenes,duration_manipulation_targetAtFixation,jsons/VE125_randls_27_rotated.json,http://54.235.29.9/FacialAge/BNav_EC2/DepthDuration/v2_depth_duration_MTurk/v2_DepthDuration_HTML.html#316,316,1366,625,1366,768,8-29-2022,16-3-36,135,depth_duration_stimuli/000375_2014-06-08_11-17-29_260595134347_rgbf000133-resize_2/000375_2014-06-08_11-17-29_260595134347_rgbf000133-resize-original.jpg,125,4.718,3,2740,118,meters,jsons/VE125_randls_27_rotated.json,827125,1023935,24,Man
135,552070,DepthScenes,duration_manipulation_targetAtFixation,jsons/VE125_randls_27_rotated.json,http://54.235.29.9/FacialAge/BNav_EC2/DepthDuration/v2_depth_duration_MTurk/v2_DepthDuration_HTML.html#316,316,1366,625,1366,768,8-29-2022,16-3-36,136,depth_duration_stimuli/002805_2014-06-22_19-54-03_094959634447_rgbf000079-resize_1/002805_2014-06-22_19-54-03_094959634447_rgbf000079-resize_1-target.png,125,3.1439999999999997,1,2705,124,meters,jsons/VE125_randls_27_rotated.json,827125,1023935,24,Man
136,552070,DepthScenes,duration_manipulation_targetAtFixation,jsons/VE125_randls_27_rotated.json,http://54.235.29.9/FacialAge/BNav_EC2/DepthDuration/v2_depth_duration_MTurk/v2_DepthDuration_HTML.html#316,316,1366,625,1366,768,8-29-2022,16-3-36,137,depth_duration_stimuli/000906_2014-06-08_13-35-43_260595134347_rgbf000155-resize_1/000906_2014-06-08_13-35-43_260595134347_rgbf000155-resize_1-target.png,125,2.8489999999999998,3,3130,127,meters,jsons/VE125_randls_27_rotated.json,827125,1023935,24,Man
137,552070,DepthScenes,duration_manipulation_targetAtFixation,jsons/VE125_randls_27_rotated.json,http://54.235.29.9/FacialAge/BNav_EC2/DepthDuration/v2_depth_duration_MTurk/v2_DepthDuration_HTML.html#316,316,1366,625,1366,768,8-29-2022,16-3-36,138,depth_duration_stimuli/001032_2014-06-08_13-23-17_260595134347_rgbf000021-resize_3/001032_2014-06-08_13-23-17_260595134347_rgbf000021-resize_3-target.png,125,3.2725,2,2961,122,meters,jsons/VE125_randls_27_rotated.json,827125,1023935,24,Man
138,552070,DepthScenes,duration_manipulation_targetAtFixation,jsons/VE125_randls_27_rotated.json,http://54.235.29.9/FacialAge/BNav_EC2/DepthDuration/v2_depth_duration_MTurk/v2_DepthDuration_HTML.html#316,316,1366,625,1366,768,8-29-2022,16-3-36,139,depth_duration_stimuli/001059_2014-06-08_21-53-27_260595134347_rgbf000061-resize_4/001059_2014-06-08_21-53-27_260595134347_rgbf000061-resize_4-target.png,125,2.4185,1,2988,125,meters,jsons/VE125_randls_27_rotated.json,827125,1023935,24,Man
139,552070,DepthScenes,duration_manipulation_targetAtFixation,jsons/VE125_randls_27_rotated.json,http://54.235.29.9/FacialAge/BNav_EC2/DepthDuration/v2_depth_duration_MTurk/v2_DepthDuration_HTML.html#316,316,1366,625,1366,768,8-29-2022,16-3-36,140,depth_duration_stimuli/001815_2014-06-26_20-52-55_260595134347_rgbf000020-resize_0/001815_2014-06-26_20-52-55_260595134347_rgbf000020-resize_0-target.png,125,3.3865,2,4389,112,meters,jsons/VE125_randls_27_rotated.json,827125,1023935,24,Man
140,552070,DepthScenes,duration_manipulation_targetAtFixation,jsons/VE125_randls_27_rotated.json,http://54.235.29.9/FacialAge/BNav_EC2/DepthDuration/v2_depth_duration_MTurk/v2_DepthDuration_HTML.html#316,316,1366,625,1366,768,8-29-2022,16-3-36,141,depth_duration_stimuli/001808_2014-06-26_20-50-58_260595134347_rgbf000029-resize_1/001808_2014-06-26_20-50-58_260595134347_rgbf000029-resize_1-target.png,125,4.249,2,9458,124,meters,jsons/VE125_randls_27_rotated.json,827125,1023935,24,Man
141,552070,DepthScenes,duration_manipulation_targetAtFixation,jsons/VE125_randls_27_rotated.json,http://54.235.29.9/FacialAge/BNav_EC2/DepthDuration/v2_depth_duration_MTurk/v2_DepthDuration_HTML.html#316,316,1366,625,1366,768,8-29-2022,16-3-36,142,depth_duration_stimuli/002136_2014-06-25_21-18-03_260595134347_rgbf000109-resize_3/002136_2014-06-25_21-18-03_260595134347_rgbf000109-resize_3-target.png,125,1.9569999999999999,2,5105,125,meters,jsons/VE125_randls_27_rotated.json,827125,1023935,24,Man
142,552070,DepthScenes,duration_manipulation_targetAtFixation,jsons/VE125_randls_27_rotated.json,http://54.235.29.9/FacialAge/BNav_EC2/DepthDuration/v2_depth_duration_MTurk/v2_DepthDuration_HTML.html#316,316,1366,625,1366,768,8-29-2022,16-3-36,143,depth_duration_stimuli/002964_2014-06-08_17-46-11_094959634447_rgbf000091-resize_4/002964_2014-06-08_17-46-11_094959634447_rgbf000091-resize_4-target.png,125,1.6909999999999998,1,5279,126,meters,jsons/VE125_randls_27_rotated.json,827125,1023935,24,Man
143,552070,DepthScenes,duration_manipulation_targetAtFixation,jsons/VE125_randls_27_rotated.json,http://54.235.29.9/FacialAge/BNav_EC2/DepthDuration/v2_depth_duration_MTurk/v2_DepthDuration_HTML.html#316,316,1366,625,1366,768,8-29-2022,16-3-36,144,depth_duration_stimuli/002639_2014-06-24_14-51-37_094959634447_rgbf000074-resize_4/002639_2014-06-24_14-51-37_094959634447_rgbf000074-resize_4-target.png,125,4.0375,2,2933,123,meters,jsons/VE125_randls_27_rotated.json,827125,1023935,24,Man
144,552070,DepthScenes,duration_manipulation_targetAtFixation,jsons/VE125_randls_27_rotated.json,http://54.235.29.9/FacialAge/BNav_EC2/DepthDuration/v2_depth_duration_MTurk/v2_DepthDuration_HTML.html#316,316,1366,625,1366,768,8-29-2022,16-3-36,145,depth_duration_stimuli/003292_2014-05-14_21-53-49_094959634447_rgbf000100-resize_2/003292_2014-05-14_21-53-49_094959634447_rgbf000100-resize_2-target.png,125,3.4815,0,2656,105,meters,jsons/VE125_randls_27_rotated.json,827125,1023935,24,Man
145,552070,DepthScenes,duration_manipulation_targetAtFixation,jsons/VE125_randls_27_rotated.json,http://54.235.29.9/FacialAge/BNav_EC2/DepthDuration/v2_depth_duration_MTurk/v2_DepthDuration_HTML.html#316,316,1366,625,1366,768,8-29-2022,16-3-36,146,depth_duration_stimuli/003338_2014-05-20_11-01-23_094959634447_rgbf000051-resize_6/003338_2014-05-20_11-01-23_094959634447_rgbf000051-resize_6-target.png,125,1.693,3,2832,125,meters,jsons/VE125_randls_27_rotated.json,827125,1023935,24,Man
146,552070,DepthScenes,duration_manipulation_targetAtFixation,jsons/VE125_randls_27_rotated.json,http://54.235.29.9/FacialAge/BNav_EC2/DepthDuration/v2_depth_duration_MTurk/v2_DepthDuration_HTML.html#316,316,1366,625,1366,768,8-29-2022,16-3-36,147,depth_duration_stimuli/002509_2014-06-24_13-19-22_094959634447_rgbf000077-resize_0/002509_2014-06-24_13-19-22_094959634447_rgbf000077-resize_0-target.png,125,1.3065,1,5825,122,meters,jsons/VE125_randls_27_rotated.json,827125,1023935,24,Man
147,552070,DepthScenes,duration_manipulation_targetAtFixation,jsons/VE125_randls_27_rotated.json,http://54.235.29.9/FacialAge/BNav_EC2/DepthDuration/v2_depth_duration_MTurk/v2_DepthDuration_HTML.html#316,316,1366,625,1366,768,8-29-2022,16-3-36,148,depth_duration_stimuli/000549_2014-06-08_22-10-24_260595134347_rgbf000247-resize_3/000549_2014-06-08_22-10-24_260595134347_rgbf000247-resize_3-target.png,125,1.841,2,2922,123,meters,jsons/VE125_randls_27_rotated.json,827125,1023935,24,Man
148,552070,DepthScenes,duration_manipulation_targetAtFixation,jsons/VE125_randls_27_rotated.json,http://54.235.29.9/FacialAge/BNav_EC2/DepthDuration/v2_depth_duration_MTurk/v2_DepthDuration_HTML.html#316,316,1366,625,1366,768,8-29-2022,16-3-36,149,depth_duration_stimuli/001055_2014-06-08_18-45-35_260595134347_rgbf000111-resize_4/001055_2014-06-08_18-45-35_260595134347_rgbf000111-resize_4-target.png,125,2.4290000000000003,3,2927,114,meters,jsons/VE125_randls_27_rotated.json,827125,1023935,24,Man
149,552070,DepthScenes,duration_manipulation_targetAtFixation,jsons/VE125_randls_27_rotated.json,http://54.235.29.9/FacialAge/BNav_EC2/DepthDuration/v2_depth_duration_MTurk/v2_DepthDuration_HTML.html#316,316,1366,625,1366,768,8-29-2022,16-3-36,150,depth_duration_stimuli/001052_2014-06-08_18-24-54_260595134347_rgbf000130-resize_1/001052_2014-06-08_18-24-54_260595134347_rgbf000130-resize_1-target.png,125,4.1045,1,2980,121,meters,jsons/VE125_randls_27_rotated.json,827125,1023935,24,Man
150,552070,DepthScenes,duration_manipulation_targetAtFixation,jsons/VE125_randls_27_rotated.json,http://54.235.29.9/FacialAge/BNav_EC2/DepthDuration/v2_depth_duration_MTurk/v2_DepthDuration_HTML.html#316,316,1366,625,1366,768,8-29-2022,16-3-36,151,depth_duration_stimuli/002988_2014-06-15_12-24-20_094959634447_rgbf000150-resize_1/002988_2014-06-15_12-24-20_094959634447_rgbf000150-resize_1-target.png,125,4.7669999999999995,3,7194,124,meters,jsons/VE125_randls_27_rotated.json,827125,1023935,24,Man
151,552070,DepthScenes,duration_manipulation_targetAtFixation,jsons/VE125_randls_27_rotated.json,http://54.235.29.9/FacialAge/BNav_EC2/DepthDuration/v2_depth_duration_MTurk/v2_DepthDuration_HTML.html#316,316,1366,625,1366,768,8-29-2022,16-3-36,152,depth_duration_stimuli/000569_2014-06-09_22-51-47_260595134347_rgbf000141-resize_3/000569_2014-06-09_22-51-47_260595134347_rgbf000141-resize-original.jpg,125,4.512,1,3182,123,meters,jsons/VE125_randls_27_rotated.json,827125,1023935,24,Man
152,552070,DepthScenes,duration_manipulation_targetAtFixation,jsons/VE125_randls_27_rotated.json,http://54.235.29.9/FacialAge/BNav_EC2/DepthDuration/v2_depth_duration_MTurk/v2_DepthDuration_HTML.html#316,316,1366,625,1366,768,8-29-2022,16-3-36,153,depth_duration_stimuli/001392_2014-06-19_16-07-59_260595134347_rgbf000046-resize_1/001392_2014-06-19_16-07-59_260595134347_rgbf000046-resize_1-target.png,125,4.135,3,6109,126,meters,jsons/VE125_randls_27_rotated.json,827125,1023935,24,Man
153,552070,DepthScenes,duration_manipulation_targetAtFixation,jsons/VE125_randls_27_rotated.json,http://54.235.29.9/FacialAge/BNav_EC2/DepthDuration/v2_depth_duration_MTurk/v2_DepthDuration_HTML.html#316,316,1366,625,1366,768,8-29-2022,16-3-36,154,depth_duration_stimuli/001570_2014-06-20_17-21-09_260595134347_rgbf000135-resize_4/001570_2014-06-20_17-21-09_260595134347_rgbf000135-resize_4-target.png,125,4.467,3,2914,120,meters,jsons/VE125_randls_27_rotated.json,827125,1023935,24,Man
154,552070,DepthScenes,duration_manipulation_targetAtFixation,jsons/VE125_randls_27_rotated.json,http://54.235.29.9/FacialAge/BNav_EC2/DepthDuration/v2_depth_duration_MTurk/v2_DepthDuration_HTML.html#316,316,1366,625,1366,768,8-29-2022,16-3-36,155,depth_duration_stimuli/001447_2014-06-19_17-00-32_260595134347_rgbf000082-resize_5/001447_2014-06-19_17-00-32_260595134347_rgbf000082-resize_5-target.png,125,4.13775,5,3123,89,meters,jsons/VE125_randls_27_rotated.json,827125,1023935,24,Man
155,552070,DepthScenes,duration_manipulation_targetAtFixation,jsons/VE125_randls_27_rotated.json,http://54.235.29.9/FacialAge/BNav_EC2/DepthDuration/v2_depth_duration_MTurk/v2_DepthDuration_HTML.html#316,316,1366,625,1366,768,8-29-2022,16-3-36,156,depth_duration_stimuli/000447_2014-06-08_16-15-46_260595134347_rgbf000130-resize_1/000447_2014-06-08_16-15-46_260595134347_rgbf000130-resize_1-target.png,125,4.479,1,5118,124,meters,jsons/VE125_randls_27_rotated.json,827125,1023935,24,Man
156,552070,DepthScenes,duration_manipulation_targetAtFixation,jsons/VE125_randls_27_rotated.json,http://54.235.29.9/FacialAge/BNav_EC2/DepthDuration/v2_depth_duration_MTurk/v2_DepthDuration_HTML.html#316,316,1366,625,1366,768,8-29-2022,16-3-36,157,depth_duration_stimuli/002340_2014-06-28_20-05-46_260595134347_rgbf000113-resize_0/002340_2014-06-28_20-05-46_260595134347_rgbf000113-resize_0-target.png,125,2.4735,3,3609,138,meters,jsons/VE125_randls_27_rotated.json,827125,1023935,24,Man
157,552070,DepthScenes,duration_manipulation_targetAtFixation,jsons/VE125_randls_27_rotated.json,http://54.235.29.9/FacialAge/BNav_EC2/DepthDuration/v2_depth_duration_MTurk/v2_DepthDuration_HTML.html#316,316,1366,625,1366,768,8-29-2022,16-3-36,158,depth_duration_stimuli/001016_2014-06-09_16-16-10_260595134347_rgbf000112-resize_5/001016_2014-06-09_16-16-10_260595134347_rgbf000112-resize_5-target.png,125,1.6565,1,2634,110,meters,jsons/VE125_randls_27_rotated.json,827125,1023935,24,Man
158,552070,DepthScenes,duration_manipulation_targetAtFixation,jsons/VE125_randls_27_rotated.json,http://54.235.29.9/FacialAge/BNav_EC2/DepthDuration/v2_depth_duration_MTurk/v2_DepthDuration_HTML.html#316,316,1366,625,1366,768,8-29-2022,16-3-36,159,depth_duration_stimuli/003490_2014-05-21_15-50-11_094959634447_rgbf000101-resize_3/003490_2014-05-21_15-50-11_094959634447_rgbf000101-resize_3-target.png,125,3.6445,3,2990,125,meters,jsons/VE125_randls_27_rotated.json,827125,1023935,24,Man
159,552070,DepthScenes,duration_manipulation_targetAtFixation,jsons/VE125_randls_27_rotated.json,http://54.235.29.9/FacialAge/BNav_EC2/DepthDuration/v2_depth_duration_MTurk/v2_DepthDuration_HTML.html#316,316,1366,625,1366,768,8-29-2022,16-3-36,160,depth_duration_stimuli/001175_2014-06-17_15-45-55_260595134347_rgbf000129-resize_4/001175_2014-06-17_15-45-55_260595134347_rgbf000129-resize_4-target.png,125,4.255,1,2852,121,meters,jsons/VE125_randls_27_rotated.json,827125,1023935,24,Man
160,552070,DepthScenes,duration_manipulation_targetAtFixation,jsons/VE125_randls_27_rotated.json,http://54.235.29.9/FacialAge/BNav_EC2/DepthDuration/v2_depth_duration_MTurk/v2_DepthDuration_HTML.html#316,316,1366,625,1366,768,8-29-2022,16-3-36,161,depth_duration_stimuli/000749_2014-06-08_21-55-06_260595134347_rgbf000070-resize_2/000749_2014-06-08_21-55-06_260595134347_rgbf000070-resize_2-target.png,125,2.331,2,7588,123,meters,jsons/VE125_randls_27_rotated.json,827125,1023935,24,Man
161,552070,DepthScenes,duration_manipulation_targetAtFixation,jsons/VE125_randls_27_rotated.json,http://54.235.29.9/FacialAge/BNav_EC2/DepthDuration/v2_depth_duration_MTurk/v2_DepthDuration_HTML.html#316,316,1366,625,1366,768,8-29-2022,16-3-36,162,depth_duration_stimuli/002788_2014-06-22_19-36-03_094959634447_rgbf000088-resize_2/002788_2014-06-22_19-36-03_094959634447_rgbf000088-resize_2-target.png,125,1.6465,1,2977,114,meters,jsons/VE125_randls_27_rotated.json,827125,1023935,24,Man
162,552070,DepthScenes,duration_manipulation_targetAtFixation,jsons/VE125_randls_27_rotated.json,http://54.235.29.9/FacialAge/BNav_EC2/DepthDuration/v2_depth_duration_MTurk/v2_DepthDuration_HTML.html#316,316,1366,625,1366,768,8-29-2022,16-3-36,163,depth_duration_stimuli/000483_2014-06-09_20-41-45_260595134347_rgbf000116-resize_4/000483_2014-06-09_20-41-45_260595134347_rgbf000116-resize_4-target.png,125,1.337,3,2698,125,meters,jsons/VE125_randls_27_rotated.json,827125,1023935,24,Man
163,552070,DepthScenes,duration_manipulation_targetAtFixation,jsons/VE125_randls_27_rotated.json,http://54.235.29.9/FacialAge/BNav_EC2/DepthDuration/v2_depth_duration_MTurk/v2_DepthDuration_HTML.html#316,316,1366,625,1366,768,8-29-2022,16-3-36,164,depth_duration_stimuli/000469_2014-06-09_19-42-10_260595134347_rgbf000081-resize_1/000469_2014-06-09_19-42-10_260595134347_rgbf000081-resize_1-target.png,125,1.652,3,3082,125,meters,jsons/VE125_randls_27_rotated.json,827125,1023935,24,Man
