,subjID,experimentName,versionName,sequenceName,url,selected_row,windowWidth,windowHeight,screenWidth,screenHeight,startDate,startTime,trial,stimulus,duration,actual_depth,depth_estimate,trial_RT,log_sceneDuration,unitSelection,seq_filepath,experimentTime,totalTime,age,gender
0,554405,DepthScenes,duration_manipulation_targetAtFixation,jsons/v1_VE250_randls_69.json,http://54.235.29.9/FacialAge/BNav_EC2/DepthDuration/v2_depth_duration_MTurk/v2_DepthDuration_HTML.html#144,144,1366,657,1366,768,9-19-2022,16-50-18,1,depth_duration_stimuli/000878_2014-06-08_22-52-45_260595134347_rgbf000045-resize_2/000878_2014-06-08_22-52-45_260595134347_rgbf000045-resize_2-target.png,250,2.092,3.0,4445,242,meters,jsons/v1_VE250_randls_69.json,1471482,1956847,32,Man
1,554405,DepthScenes,duration_manipulation_targetAtFixation,jsons/v1_VE250_randls_69.json,http://54.235.29.9/FacialAge/BNav_EC2/DepthDuration/v2_depth_duration_MTurk/v2_DepthDuration_HTML.html#144,144,1366,657,1366,768,9-19-2022,16-50-18,2,depth_duration_stimuli/002953_2014-06-08_17-32-18_094959634447_rgbf000059-resize_5/002953_2014-06-08_17-32-18_094959634447_rgbf000059-resize_5-target.png,250,1.551,1.0,3557,257,meters,jsons/v1_VE250_randls_69.json,1471482,1956847,32,Man
2,554405,DepthScenes,duration_manipulation_targetAtFixation,jsons/v1_VE250_randls_69.json,http://54.235.29.9/FacialAge/BNav_EC2/DepthDuration/v2_depth_duration_MTurk/v2_DepthDuration_HTML.html#144,144,1366,657,1366,768,9-19-2022,16-50-18,3,depth_duration_stimuli/002549_2014-06-24_13-41-39_094959634447_rgbf000022-resize_3/002549_2014-06-24_13-41-39_094959634447_rgbf000022-resize_3-target.png,250,1.476,1.0,4455,255,meters,jsons/v1_VE250_randls_69.json,1471482,1956847,32,Man
3,554405,DepthScenes,duration_manipulation_targetAtFixation,jsons/v1_VE250_randls_69.json,http://54.235.29.9/FacialAge/BNav_EC2/DepthDuration/v2_depth_duration_MTurk/v2_DepthDuration_HTML.html#144,144,1366,657,1366,768,9-19-2022,16-50-18,4,depth_duration_stimuli/002750_2014-06-22_19-08-03_094959634447_rgbf000094-resize_4/002750_2014-06-22_19-08-03_094959634447_rgbf000094-resize_4-target.png,250,2.354,3.0,3125,248,meters,jsons/v1_VE250_randls_69.json,1471482,1956847,32,Man
4,554405,DepthScenes,duration_manipulation_targetAtFixation,jsons/v1_VE250_randls_69.json,http://54.235.29.9/FacialAge/BNav_EC2/DepthDuration/v2_depth_duration_MTurk/v2_DepthDuration_HTML.html#144,144,1366,657,1366,768,9-19-2022,16-50-18,5,depth_duration_stimuli/001011_2014-06-08_23-18-54_260595134347_rgbf000044-resize_4/001011_2014-06-08_23-18-54_260595134347_rgbf000044-resize_4-target.png,250,2.4730000000000003,3.5,4252,245,meters,jsons/v1_VE250_randls_69.json,1471482,1956847,32,Man
5,554405,DepthScenes,duration_manipulation_targetAtFixation,jsons/v1_VE250_randls_69.json,http://54.235.29.9/FacialAge/BNav_EC2/DepthDuration/v2_depth_duration_MTurk/v2_DepthDuration_HTML.html#144,144,1366,657,1366,768,9-19-2022,16-50-18,6,depth_duration_stimuli/002875_2014-06-01_15-19-00_094959634447_rgbf000151-resize_1/002875_2014-06-01_15-19-00_094959634447_rgbf000151-resize_1-target.png,250,1.9675,3.0,5165,250,meters,jsons/v1_VE250_randls_69.json,1471482,1956847,32,Man
6,554405,DepthScenes,duration_manipulation_targetAtFixation,jsons/v1_VE250_randls_69.json,http://54.235.29.9/FacialAge/BNav_EC2/DepthDuration/v2_depth_duration_MTurk/v2_DepthDuration_HTML.html#144,144,1366,657,1366,768,9-19-2022,16-50-18,7,depth_duration_stimuli/001092_2014-06-15_17-34-58_260595134347_rgbf000171-resize_3/001092_2014-06-15_17-34-58_260595134347_rgbf000171-resize_3-target.png,250,2.6935,3.0,4310,236,meters,jsons/v1_VE250_randls_69.json,1471482,1956847,32,Man
7,554405,DepthScenes,duration_manipulation_targetAtFixation,jsons/v1_VE250_randls_69.json,http://54.235.29.9/FacialAge/BNav_EC2/DepthDuration/v2_depth_duration_MTurk/v2_DepthDuration_HTML.html#144,144,1366,657,1366,768,9-19-2022,16-50-18,8,depth_duration_stimuli/002545_2014-06-24_13-38-53_094959634447_rgbf000080-resize_4/002545_2014-06-24_13-38-53_094959634447_rgbf000080-resize_4-target.png,250,1.9205,3.5,3865,240,meters,jsons/v1_VE250_randls_69.json,1471482,1956847,32,Man
8,554405,DepthScenes,duration_manipulation_targetAtFixation,jsons/v1_VE250_randls_69.json,http://54.235.29.9/FacialAge/BNav_EC2/DepthDuration/v2_depth_duration_MTurk/v2_DepthDuration_HTML.html#144,144,1366,657,1366,768,9-19-2022,16-50-18,9,depth_duration_stimuli/001808_2014-06-26_20-50-58_260595134347_rgbf000029-resize_1/001808_2014-06-26_20-50-58_260595134347_rgbf000029-resize_1-target.png,250,4.249,5.0,2651,250,meters,jsons/v1_VE250_randls_69.json,1471482,1956847,32,Man
9,554405,DepthScenes,duration_manipulation_targetAtFixation,jsons/v1_VE250_randls_69.json,http://54.235.29.9/FacialAge/BNav_EC2/DepthDuration/v2_depth_duration_MTurk/v2_DepthDuration_HTML.html#144,144,1366,657,1366,768,9-19-2022,16-50-18,10,depth_duration_stimuli/001815_2014-06-26_20-52-55_260595134347_rgbf000020-resize_0/001815_2014-06-26_20-52-55_260595134347_rgbf000020-resize_0-target.png,250,3.3865,5.0,4037,235,meters,jsons/v1_VE250_randls_69.json,1471482,1956847,32,Man
10,554405,DepthScenes,duration_manipulation_targetAtFixation,jsons/v1_VE250_randls_69.json,http://54.235.29.9/FacialAge/BNav_EC2/DepthDuration/v2_depth_duration_MTurk/v2_DepthDuration_HTML.html#144,144,1366,657,1366,768,9-19-2022,16-50-18,11,depth_duration_stimuli/000009_2014-05-26_14-32-05_260595134347_rgbf000034-resize_3/000009_2014-05-26_14-32-05_260595134347_rgbf000034-resize_3-target.png,250,3.8715,7.0,4721,254,meters,jsons/v1_VE250_randls_69.json,1471482,1956847,32,Man
11,554405,DepthScenes,duration_manipulation_targetAtFixation,jsons/v1_VE250_randls_69.json,http://54.235.29.9/FacialAge/BNav_EC2/DepthDuration/v2_depth_duration_MTurk/v2_DepthDuration_HTML.html#144,144,1366,657,1366,768,9-19-2022,16-50-18,12,depth_duration_stimuli/001828_2014-06-26_21-40-03_260595134347_rgbf000024-resize_0/001828_2014-06-26_21-40-03_260595134347_rgbf000024-resize_0-target.png,250,4.8260000000000005,7.0,3170,263,meters,jsons/v1_VE250_randls_69.json,1471482,1956847,32,Man
12,554405,DepthScenes,duration_manipulation_targetAtFixation,jsons/v1_VE250_randls_69.json,http://54.235.29.9/FacialAge/BNav_EC2/DepthDuration/v2_depth_duration_MTurk/v2_DepthDuration_HTML.html#144,144,1366,657,1366,768,9-19-2022,16-50-18,13,depth_duration_stimuli/000569_2014-06-09_22-51-47_260595134347_rgbf000141-resize_3/000569_2014-06-09_22-51-47_260595134347_rgbf000141-resize-original.jpg,250,4.512,0.0,3303,242,meters,jsons/v1_VE250_randls_69.json,1471482,1956847,32,Man
13,554405,DepthScenes,duration_manipulation_targetAtFixation,jsons/v1_VE250_randls_69.json,http://54.235.29.9/FacialAge/BNav_EC2/DepthDuration/v2_depth_duration_MTurk/v2_DepthDuration_HTML.html#144,144,1366,657,1366,768,9-19-2022,16-50-18,14,depth_duration_stimuli/000917_2014-06-09_22-45-29_260595134347_rgbf000149-resize_3/000917_2014-06-09_22-45-29_260595134347_rgbf000149-resize_3-target.png,250,4.1865,3.0,8963,252,meters,jsons/v1_VE250_randls_69.json,1471482,1956847,32,Man
14,554405,DepthScenes,duration_manipulation_targetAtFixation,jsons/v1_VE250_randls_69.json,http://54.235.29.9/FacialAge/BNav_EC2/DepthDuration/v2_depth_duration_MTurk/v2_DepthDuration_HTML.html#144,144,1366,657,1366,768,9-19-2022,16-50-18,15,depth_duration_stimuli/002323_2014-06-28_20-01-54_260595134347_rgbf000051-resize_4/002323_2014-06-28_20-01-54_260595134347_rgbf000051-resize_4-target.png,250,3.7310000000000003,4.0,23142,252,meters,jsons/v1_VE250_randls_69.json,1471482,1956847,32,Man
15,554405,DepthScenes,duration_manipulation_targetAtFixation,jsons/v1_VE250_randls_69.json,http://54.235.29.9/FacialAge/BNav_EC2/DepthDuration/v2_depth_duration_MTurk/v2_DepthDuration_HTML.html#144,144,1366,657,1366,768,9-19-2022,16-50-18,16,depth_duration_stimuli/001806_2014-06-26_20-50-20_260595134347_rgbf000091-resize_1/001806_2014-06-26_20-50-20_260595134347_rgbf000091-resize_1-target.png,250,2.7305,2.0,3141,245,meters,jsons/v1_VE250_randls_69.json,1471482,1956847,32,Man
16,554405,DepthScenes,duration_manipulation_targetAtFixation,jsons/v1_VE250_randls_69.json,http://54.235.29.9/FacialAge/BNav_EC2/DepthDuration/v2_depth_duration_MTurk/v2_DepthDuration_HTML.html#144,144,1366,657,1366,768,9-19-2022,16-50-18,17,depth_duration_stimuli/001617_2014-06-20_11-35-32_260595134347_rgbf000066-resize_1/001617_2014-06-20_11-35-32_260595134347_rgbf000066-resize_1-target.png,250,3.7910000000000004,5.0,3813,260,meters,jsons/v1_VE250_randls_69.json,1471482,1956847,32,Man
17,554405,DepthScenes,duration_manipulation_targetAtFixation,jsons/v1_VE250_randls_69.json,http://54.235.29.9/FacialAge/BNav_EC2/DepthDuration/v2_depth_duration_MTurk/v2_DepthDuration_HTML.html#144,144,1366,657,1366,768,9-19-2022,16-50-18,18,depth_duration_stimuli/002279_2014-06-28_18-55-32_260595134347_rgbf000040-resize_5/002279_2014-06-28_18-55-32_260595134347_rgbf000040-resize_5-target.png,250,1.5043333333333,1.5,3906,242,meters,jsons/v1_VE250_randls_69.json,1471482,1956847,32,Man
18,554405,DepthScenes,duration_manipulation_targetAtFixation,jsons/v1_VE250_randls_69.json,http://54.235.29.9/FacialAge/BNav_EC2/DepthDuration/v2_depth_duration_MTurk/v2_DepthDuration_HTML.html#144,144,1366,657,1366,768,9-19-2022,16-50-18,19,depth_duration_stimuli/000635_2014-06-08_16-38-42_260595134347_rgbf000106-resize_1/000635_2014-06-08_16-38-42_260595134347_rgbf000106-resize_1-target.png,250,2.074,3.0,2793,249,meters,jsons/v1_VE250_randls_69.json,1471482,1956847,32,Man
19,554405,DepthScenes,duration_manipulation_targetAtFixation,jsons/v1_VE250_randls_69.json,http://54.235.29.9/FacialAge/BNav_EC2/DepthDuration/v2_depth_duration_MTurk/v2_DepthDuration_HTML.html#144,144,1366,657,1366,768,9-19-2022,16-50-18,20,depth_duration_stimuli/001555_2014-06-20_17-12-10_260595134347_rgbf000065-resize_4/001555_2014-06-20_17-12-10_260595134347_rgbf000065-resize_4-target.png,250,1.633,1.5,4563,244,meters,jsons/v1_VE250_randls_69.json,1471482,1956847,32,Man
20,554405,DepthScenes,duration_manipulation_targetAtFixation,jsons/v1_VE250_randls_69.json,http://54.235.29.9/FacialAge/BNav_EC2/DepthDuration/v2_depth_duration_MTurk/v2_DepthDuration_HTML.html#144,144,1366,657,1366,768,9-19-2022,16-50-18,21,depth_duration_stimuli/000103_2014-05-14_22-01-17_260595134347_rgbf000152-resize_5/000103_2014-05-14_22-01-17_260595134347_rgbf000152-resize_5-target.png,250,1.993,3.0,2481,246,meters,jsons/v1_VE250_randls_69.json,1471482,1956847,32,Man
21,554405,DepthScenes,duration_manipulation_targetAtFixation,jsons/v1_VE250_randls_69.json,http://54.235.29.9/FacialAge/BNav_EC2/DepthDuration/v2_depth_duration_MTurk/v2_DepthDuration_HTML.html#144,144,1366,657,1366,768,9-19-2022,16-50-18,22,depth_duration_stimuli/002748_2014-06-22_19-07-22_094959634447_rgbf000078-resize_1/002748_2014-06-22_19-07-22_094959634447_rgbf000078-resize_1-target.png,250,4.6705,7.0,3459,256,meters,jsons/v1_VE250_randls_69.json,1471482,1956847,32,Man
22,554405,DepthScenes,duration_manipulation_targetAtFixation,jsons/v1_VE250_randls_69.json,http://54.235.29.9/FacialAge/BNav_EC2/DepthDuration/v2_depth_duration_MTurk/v2_DepthDuration_HTML.html#144,144,1366,657,1366,768,9-19-2022,16-50-18,23,depth_duration_stimuli/002995_2014-06-15_12-31-26_094959634447_rgbf000150-resize_1/002995_2014-06-15_12-31-26_094959634447_rgbf000150-resize_1-target.png,250,3.8360000000000003,7.0,4130,240,meters,jsons/v1_VE250_randls_69.json,1471482,1956847,32,Man
23,554405,DepthScenes,duration_manipulation_targetAtFixation,jsons/v1_VE250_randls_69.json,http://54.235.29.9/FacialAge/BNav_EC2/DepthDuration/v2_depth_duration_MTurk/v2_DepthDuration_HTML.html#144,144,1366,657,1366,768,9-19-2022,16-50-18,24,depth_duration_stimuli/002118_2014-06-25_20-32-08_260595134347_rgbf000078-resize_1/002118_2014-06-25_20-32-08_260595134347_rgbf000078-resize_1-target.png,250,2.6460000000000004,3.0,3328,247,meters,jsons/v1_VE250_randls_69.json,1471482,1956847,32,Man
24,554405,DepthScenes,duration_manipulation_targetAtFixation,jsons/v1_VE250_randls_69.json,http://54.235.29.9/FacialAge/BNav_EC2/DepthDuration/v2_depth_duration_MTurk/v2_DepthDuration_HTML.html#144,144,1366,657,1366,768,9-19-2022,16-50-18,25,depth_duration_stimuli/001516_2014-06-20_16-25-09_260595134347_rgbf000076-resize_2/001516_2014-06-20_16-25-09_260595134347_rgbf000076-resize_2-target.png,250,1.7445,2.5,3582,241,meters,jsons/v1_VE250_randls_69.json,1471482,1956847,32,Man
25,554405,DepthScenes,duration_manipulation_targetAtFixation,jsons/v1_VE250_randls_69.json,http://54.235.29.9/FacialAge/BNav_EC2/DepthDuration/v2_depth_duration_MTurk/v2_DepthDuration_HTML.html#144,144,1366,657,1366,768,9-19-2022,16-50-18,26,depth_duration_stimuli/001110_2014-06-15_17-25-28_260595134347_rgbf000150-resize_1/001110_2014-06-15_17-25-28_260595134347_rgbf000150-resize_1-target.png,250,1.7115,3.0,2867,235,meters,jsons/v1_VE250_randls_69.json,1471482,1956847,32,Man
26,554405,DepthScenes,duration_manipulation_targetAtFixation,jsons/v1_VE250_randls_69.json,http://54.235.29.9/FacialAge/BNav_EC2/DepthDuration/v2_depth_duration_MTurk/v2_DepthDuration_HTML.html#144,144,1366,657,1366,768,9-19-2022,16-50-18,27,depth_duration_stimuli/000927_2014-06-09_16-32-30_260595134347_rgbf000123-resize_3/000927_2014-06-09_16-32-30_260595134347_rgbf000123-resize_3-target.png,250,2.6785,7.0,4254,239,meters,jsons/v1_VE250_randls_69.json,1471482,1956847,32,Man
27,554405,DepthScenes,duration_manipulation_targetAtFixation,jsons/v1_VE250_randls_69.json,http://54.235.29.9/FacialAge/BNav_EC2/DepthDuration/v2_depth_duration_MTurk/v2_DepthDuration_HTML.html#144,144,1366,657,1366,768,9-19-2022,16-50-18,28,depth_duration_stimuli/002153_2014-06-25_21-27-18_260595134347_rgbf000038-resize_5/002153_2014-06-25_21-27-18_260595134347_rgbf000038-resize_5-target.png,250,2.505,3.0,3281,244,meters,jsons/v1_VE250_randls_69.json,1471482,1956847,32,Man
28,554405,DepthScenes,duration_manipulation_targetAtFixation,jsons/v1_VE250_randls_69.json,http://54.235.29.9/FacialAge/BNav_EC2/DepthDuration/v2_depth_duration_MTurk/v2_DepthDuration_HTML.html#144,144,1366,657,1366,768,9-19-2022,16-50-18,29,depth_duration_stimuli/002660_2014-06-13_15-44-18_094959634447_rgbf001878-resize_2/002660_2014-06-13_15-44-18_094959634447_rgbf001878-resize_2-target.png,250,3.576,3.0,3613,240,meters,jsons/v1_VE250_randls_69.json,1471482,1956847,32,Man
29,554405,DepthScenes,duration_manipulation_targetAtFixation,jsons/v1_VE250_randls_69.json,http://54.235.29.9/FacialAge/BNav_EC2/DepthDuration/v2_depth_duration_MTurk/v2_DepthDuration_HTML.html#144,144,1366,657,1366,768,9-19-2022,16-50-18,30,depth_duration_stimuli/000375_2014-06-08_11-17-29_260595134347_rgbf000133-resize_2/000375_2014-06-08_11-17-29_260595134347_rgbf000133-resize-original.jpg,250,4.718,0.0,4367,248,meters,jsons/v1_VE250_randls_69.json,1471482,1956847,32,Man
30,554405,DepthScenes,duration_manipulation_targetAtFixation,jsons/v1_VE250_randls_69.json,http://54.235.29.9/FacialAge/BNav_EC2/DepthDuration/v2_depth_duration_MTurk/v2_DepthDuration_HTML.html#144,144,1366,657,1366,768,9-19-2022,16-50-18,31,depth_duration_stimuli/002964_2014-06-08_17-46-11_094959634447_rgbf000091-resize_4/002964_2014-06-08_17-46-11_094959634447_rgbf000091-resize_4-target.png,250,1.6909999999999998,2.0,8260,250,meters,jsons/v1_VE250_randls_69.json,1471482,1956847,32,Man
31,554405,DepthScenes,duration_manipulation_targetAtFixation,jsons/v1_VE250_randls_69.json,http://54.235.29.9/FacialAge/BNav_EC2/DepthDuration/v2_depth_duration_MTurk/v2_DepthDuration_HTML.html#144,144,1366,657,1366,768,9-19-2022,16-50-18,32,depth_duration_stimuli/002136_2014-06-25_21-18-03_260595134347_rgbf000109-resize_3/002136_2014-06-25_21-18-03_260595134347_rgbf000109-resize_3-target.png,250,1.9569999999999999,3.0,3130,255,meters,jsons/v1_VE250_randls_69.json,1471482,1956847,32,Man
32,554405,DepthScenes,duration_manipulation_targetAtFixation,jsons/v1_VE250_randls_69.json,http://54.235.29.9/FacialAge/BNav_EC2/DepthDuration/v2_depth_duration_MTurk/v2_DepthDuration_HTML.html#144,144,1366,657,1366,768,9-19-2022,16-50-18,33,depth_duration_stimuli/001244_2014-06-17_16-47-45_260595134347_rgbf000030-resize_4/001244_2014-06-17_16-47-45_260595134347_rgbf000030-resize_4-target.png,250,2.0425,3.0,3187,247,meters,jsons/v1_VE250_randls_69.json,1471482,1956847,32,Man
33,554405,DepthScenes,duration_manipulation_targetAtFixation,jsons/v1_VE250_randls_69.json,http://54.235.29.9/FacialAge/BNav_EC2/DepthDuration/v2_depth_duration_MTurk/v2_DepthDuration_HTML.html#144,144,1366,657,1366,768,9-19-2022,16-50-18,34,depth_duration_stimuli/003495_2014-05-21_16-01-51_094959634447_rgbf000100-resize_3/003495_2014-05-21_16-01-51_094959634447_rgbf000100-resize_3-target.png,250,1.6255,2.0,3239,245,meters,jsons/v1_VE250_randls_69.json,1471482,1956847,32,Man
34,554405,DepthScenes,duration_manipulation_targetAtFixation,jsons/v1_VE250_randls_69.json,http://54.235.29.9/FacialAge/BNav_EC2/DepthDuration/v2_depth_duration_MTurk/v2_DepthDuration_HTML.html#144,144,1366,657,1366,768,9-19-2022,16-50-18,35,depth_duration_stimuli/002988_2014-06-15_12-24-20_094959634447_rgbf000150-resize_1/002988_2014-06-15_12-24-20_094959634447_rgbf000150-resize_1-target.png,250,4.7669999999999995,8.0,3392,243,meters,jsons/v1_VE250_randls_69.json,1471482,1956847,32,Man
35,554405,DepthScenes,duration_manipulation_targetAtFixation,jsons/v1_VE250_randls_69.json,http://54.235.29.9/FacialAge/BNav_EC2/DepthDuration/v2_depth_duration_MTurk/v2_DepthDuration_HTML.html#144,144,1366,657,1366,768,9-19-2022,16-50-18,36,depth_duration_stimuli/001052_2014-06-08_18-24-54_260595134347_rgbf000130-resize_1/001052_2014-06-08_18-24-54_260595134347_rgbf000130-resize_1-target.png,250,4.1045,8.5,5581,330,meters,jsons/v1_VE250_randls_69.json,1471482,1956847,32,Man
36,554405,DepthScenes,duration_manipulation_targetAtFixation,jsons/v1_VE250_randls_69.json,http://54.235.29.9/FacialAge/BNav_EC2/DepthDuration/v2_depth_duration_MTurk/v2_DepthDuration_HTML.html#144,144,1366,657,1366,768,9-19-2022,16-50-18,37,depth_duration_stimuli/002989_2014-06-15_12-25-03_094959634447_rgbf000150-resize_3/002989_2014-06-15_12-25-03_094959634447_rgbf000150-resize_3-target.png,250,4.1975,9.0,6197,244,meters,jsons/v1_VE250_randls_69.json,1471482,1956847,32,Man
37,554405,DepthScenes,duration_manipulation_targetAtFixation,jsons/v1_VE250_randls_69.json,http://54.235.29.9/FacialAge/BNav_EC2/DepthDuration/v2_depth_duration_MTurk/v2_DepthDuration_HTML.html#144,144,1366,657,1366,768,9-19-2022,16-50-18,38,depth_duration_stimuli/000866_2014-06-09_20-45-42_260595134347_rgbf000139-resize_1/000866_2014-06-09_20-45-42_260595134347_rgbf000139-resize_1-target.png,250,3.2155,8.0,3207,240,meters,jsons/v1_VE250_randls_69.json,1471482,1956847,32,Man
38,554405,DepthScenes,duration_manipulation_targetAtFixation,jsons/v1_VE250_randls_69.json,http://54.235.29.9/FacialAge/BNav_EC2/DepthDuration/v2_depth_duration_MTurk/v2_DepthDuration_HTML.html#144,144,1366,657,1366,768,9-19-2022,16-50-18,39,depth_duration_stimuli/002272_2014-06-28_18-53-56_260595134347_rgbf000067-resize_2/002272_2014-06-28_18-53-56_260595134347_rgbf000067-resize_2-target.png,250,1.138,3.0,5729,241,meters,jsons/v1_VE250_randls_69.json,1471482,1956847,32,Man
39,554405,DepthScenes,duration_manipulation_targetAtFixation,jsons/v1_VE250_randls_69.json,http://54.235.29.9/FacialAge/BNav_EC2/DepthDuration/v2_depth_duration_MTurk/v2_DepthDuration_HTML.html#144,144,1366,657,1366,768,9-19-2022,16-50-18,40,depth_duration_stimuli/001571_2014-06-20_17-21-32_260595134347_rgbf000089-resize_1/001571_2014-06-20_17-21-32_260595134347_rgbf000089-resize_1-target.png,250,1.86,2.0,7769,249,meters,jsons/v1_VE250_randls_69.json,1471482,1956847,32,Man
40,554405,DepthScenes,duration_manipulation_targetAtFixation,jsons/v1_VE250_randls_69.json,http://54.235.29.9/FacialAge/BNav_EC2/DepthDuration/v2_depth_duration_MTurk/v2_DepthDuration_HTML.html#144,144,1366,657,1366,768,9-19-2022,16-50-18,41,depth_duration_stimuli/000906_2014-06-08_13-35-43_260595134347_rgbf000155-resize_1/000906_2014-06-08_13-35-43_260595134347_rgbf000155-resize_1-target.png,250,2.8489999999999998,7.0,3563,259,meters,jsons/v1_VE250_randls_69.json,1471482,1956847,32,Man
41,554405,DepthScenes,duration_manipulation_targetAtFixation,jsons/v1_VE250_randls_69.json,http://54.235.29.9/FacialAge/BNav_EC2/DepthDuration/v2_depth_duration_MTurk/v2_DepthDuration_HTML.html#144,144,1366,657,1366,768,9-19-2022,16-50-18,42,depth_duration_stimuli/002805_2014-06-22_19-54-03_094959634447_rgbf000079-resize_1/002805_2014-06-22_19-54-03_094959634447_rgbf000079-resize_1-target.png,250,3.1439999999999997,8.0,3284,220,meters,jsons/v1_VE250_randls_69.json,1471482,1956847,32,Man
42,554405,DepthScenes,duration_manipulation_targetAtFixation,jsons/v1_VE250_randls_69.json,http://54.235.29.9/FacialAge/BNav_EC2/DepthDuration/v2_depth_duration_MTurk/v2_DepthDuration_HTML.html#144,144,1366,657,1366,768,9-19-2022,16-50-18,43,depth_duration_stimuli/000486_2014-06-09_20-47-20_260595134347_rgbf000143-resize_2/000486_2014-06-09_20-47-20_260595134347_rgbf000143-resize_2-target.png,250,4.8325,5.0,18806,239,meters,jsons/v1_VE250_randls_69.json,1471482,1956847,32,Man
43,554405,DepthScenes,duration_manipulation_targetAtFixation,jsons/v1_VE250_randls_69.json,http://54.235.29.9/FacialAge/BNav_EC2/DepthDuration/v2_depth_duration_MTurk/v2_DepthDuration_HTML.html#144,144,1366,657,1366,768,9-19-2022,16-50-18,44,depth_duration_stimuli/003083_2014-06-15_15-21-03_094959634447_rgbf000063-resize_1/003083_2014-06-15_15-21-03_094959634447_rgbf000063-resize_1-target.png,250,4.1405,9.0,4123,259,meters,jsons/v1_VE250_randls_69.json,1471482,1956847,32,Man
44,554405,DepthScenes,duration_manipulation_targetAtFixation,jsons/v1_VE250_randls_69.json,http://54.235.29.9/FacialAge/BNav_EC2/DepthDuration/v2_depth_duration_MTurk/v2_DepthDuration_HTML.html#144,144,1366,657,1366,768,9-19-2022,16-50-18,45,depth_duration_stimuli/000787_2014-06-08_22-33-53_260595134347_rgbf000175-resize_1/000787_2014-06-08_22-33-53_260595134347_rgbf000175-resize-original.jpg,250,4.784,0.0,7282,249,meters,jsons/v1_VE250_randls_69.json,1471482,1956847,32,Man
45,554405,DepthScenes,duration_manipulation_targetAtFixation,jsons/v1_VE250_randls_69.json,http://54.235.29.9/FacialAge/BNav_EC2/DepthDuration/v2_depth_duration_MTurk/v2_DepthDuration_HTML.html#144,144,1366,657,1366,768,9-19-2022,16-50-18,46,depth_duration_stimuli/002630_2014-06-24_14-47-50_094959634447_rgbf000055-resize_1/002630_2014-06-24_14-47-50_094959634447_rgbf000055-resize_1-target.png,250,3.0095,10.0,4388,253,meters,jsons/v1_VE250_randls_69.json,1471482,1956847,32,Man
46,554405,DepthScenes,duration_manipulation_targetAtFixation,jsons/v1_VE250_randls_69.json,http://54.235.29.9/FacialAge/BNav_EC2/DepthDuration/v2_depth_duration_MTurk/v2_DepthDuration_HTML.html#144,144,1366,657,1366,768,9-19-2022,16-50-18,47,depth_duration_stimuli/002758_2014-06-22_19-11-20_094959634447_rgbf000128-resize_1/002758_2014-06-22_19-11-20_094959634447_rgbf000128-resize_1-target.png,250,2.555,4.0,3302,251,meters,jsons/v1_VE250_randls_69.json,1471482,1956847,32,Man
47,554405,DepthScenes,duration_manipulation_targetAtFixation,jsons/v1_VE250_randls_69.json,http://54.235.29.9/FacialAge/BNav_EC2/DepthDuration/v2_depth_duration_MTurk/v2_DepthDuration_HTML.html#144,144,1366,657,1366,768,9-19-2022,16-50-18,48,depth_duration_stimuli/000692_2014-06-08_13-09-42_260595134347_rgbf000199-resize_2/000692_2014-06-08_13-09-42_260595134347_rgbf000199-resize_2-target.png,250,3.661,11.0,5088,263,meters,jsons/v1_VE250_randls_69.json,1471482,1956847,32,Man
48,554405,DepthScenes,duration_manipulation_targetAtFixation,jsons/v1_VE250_randls_69.json,http://54.235.29.9/FacialAge/BNav_EC2/DepthDuration/v2_depth_duration_MTurk/v2_DepthDuration_HTML.html#144,144,1366,657,1366,768,9-19-2022,16-50-18,49,depth_duration_stimuli/001094_2014-06-15_17-36-00_260595134347_rgbf000205-resize_0/001094_2014-06-15_17-36-00_260595134347_rgbf000205-resize_0-target.png,250,4.2175,9.0,3083,259,meters,jsons/v1_VE250_randls_69.json,1471482,1956847,32,Man
49,554405,DepthScenes,duration_manipulation_targetAtFixation,jsons/v1_VE250_randls_69.json,http://54.235.29.9/FacialAge/BNav_EC2/DepthDuration/v2_depth_duration_MTurk/v2_DepthDuration_HTML.html#144,144,1366,657,1366,768,9-19-2022,16-50-18,50,depth_duration_stimuli/002784_2014-06-22_19-26-30_094959634447_rgbf000083-resize_3/002784_2014-06-22_19-26-30_094959634447_rgbf000083-resize_3-target.png,250,1.8046666666667,5.0,5116,250,meters,jsons/v1_VE250_randls_69.json,1471482,1956847,32,Man
50,554405,DepthScenes,duration_manipulation_targetAtFixation,jsons/v1_VE250_randls_69.json,http://54.235.29.9/FacialAge/BNav_EC2/DepthDuration/v2_depth_duration_MTurk/v2_DepthDuration_HTML.html#144,144,1366,657,1366,768,9-19-2022,16-50-18,51,depth_duration_stimuli/001100_2014-06-15_17-46-26_260595134347_rgbf000225-resize_2/001100_2014-06-15_17-46-26_260595134347_rgbf000225-resize_2-target.png,250,2.24,3.0,6371,250,meters,jsons/v1_VE250_randls_69.json,1471482,1956847,32,Man
51,554405,DepthScenes,duration_manipulation_targetAtFixation,jsons/v1_VE250_randls_69.json,http://54.235.29.9/FacialAge/BNav_EC2/DepthDuration/v2_depth_duration_MTurk/v2_DepthDuration_HTML.html#144,144,1366,657,1366,768,9-19-2022,16-50-18,52,depth_duration_stimuli/002570_2014-06-24_13-59-54_094959634447_rgbf000059-resize_0/002570_2014-06-24_13-59-54_094959634447_rgbf000059-resize_0-target.png,250,4.037,3.0,23209,255,meters,jsons/v1_VE250_randls_69.json,1471482,1956847,32,Man
52,554405,DepthScenes,duration_manipulation_targetAtFixation,jsons/v1_VE250_randls_69.json,http://54.235.29.9/FacialAge/BNav_EC2/DepthDuration/v2_depth_duration_MTurk/v2_DepthDuration_HTML.html#144,144,1366,657,1366,768,9-19-2022,16-50-18,53,depth_duration_stimuli/002467_2014-06-28_20-38-07_260595134347_rgbf000026-resize_2/002467_2014-06-28_20-38-07_260595134347_rgbf000026-resize_2-target.png,250,4.742,7.0,4737,253,meters,jsons/v1_VE250_randls_69.json,1471482,1956847,32,Man
53,554405,DepthScenes,duration_manipulation_targetAtFixation,jsons/v1_VE250_randls_69.json,http://54.235.29.9/FacialAge/BNav_EC2/DepthDuration/v2_depth_duration_MTurk/v2_DepthDuration_HTML.html#144,144,1366,657,1366,768,9-19-2022,16-50-18,54,depth_duration_stimuli/003070_2014-06-15_14-58-27_094959634447_rgbf000150-resize_3/003070_2014-06-15_14-58-27_094959634447_rgbf000150-resize_3-target.png,250,2.9415,6.0,9098,254,meters,jsons/v1_VE250_randls_69.json,1471482,1956847,32,Man
54,554405,DepthScenes,duration_manipulation_targetAtFixation,jsons/v1_VE250_randls_69.json,http://54.235.29.9/FacialAge/BNav_EC2/DepthDuration/v2_depth_duration_MTurk/v2_DepthDuration_HTML.html#144,144,1366,657,1366,768,9-19-2022,16-50-18,55,depth_duration_stimuli/000943_2014-06-09_19-31-07_260595134347_rgbf000128-resize_1/000943_2014-06-09_19-31-07_260595134347_rgbf000128-resize_1-target.png,250,1.9765,5.0,2788,251,meters,jsons/v1_VE250_randls_69.json,1471482,1956847,32,Man
55,554405,DepthScenes,duration_manipulation_targetAtFixation,jsons/v1_VE250_randls_69.json,http://54.235.29.9/FacialAge/BNav_EC2/DepthDuration/v2_depth_duration_MTurk/v2_DepthDuration_HTML.html#144,144,1366,657,1366,768,9-19-2022,16-50-18,56,depth_duration_stimuli/003621_2014-05-23_18-06-08_094959634447_rgbf000101-resize_1/003621_2014-05-23_18-06-08_094959634447_rgbf000101-resize_1-target.png,250,3.9835,8.0,3586,252,meters,jsons/v1_VE250_randls_69.json,1471482,1956847,32,Man
56,554405,DepthScenes,duration_manipulation_targetAtFixation,jsons/v1_VE250_randls_69.json,http://54.235.29.9/FacialAge/BNav_EC2/DepthDuration/v2_depth_duration_MTurk/v2_DepthDuration_HTML.html#144,144,1366,657,1366,768,9-19-2022,16-50-18,57,depth_duration_stimuli/001584_2014-06-20_11-07-43_260595134347_rgbf000002-resize_1/001584_2014-06-20_11-07-43_260595134347_rgbf000002-resize_1-target.png,250,3.53,5.0,5143,250,meters,jsons/v1_VE250_randls_69.json,1471482,1956847,32,Man
57,554405,DepthScenes,duration_manipulation_targetAtFixation,jsons/v1_VE250_randls_69.json,http://54.235.29.9/FacialAge/BNav_EC2/DepthDuration/v2_depth_duration_MTurk/v2_DepthDuration_HTML.html#144,144,1366,657,1366,768,9-19-2022,16-50-18,58,depth_duration_stimuli/001029_2014-06-08_13-17-57_260595134347_rgbf000065-resize_1/001029_2014-06-08_13-17-57_260595134347_rgbf000065-resize_1-target.png,250,3.0835,6.0,6018,255,meters,jsons/v1_VE250_randls_69.json,1471482,1956847,32,Man
58,554405,DepthScenes,duration_manipulation_targetAtFixation,jsons/v1_VE250_randls_69.json,http://54.235.29.9/FacialAge/BNav_EC2/DepthDuration/v2_depth_duration_MTurk/v2_DepthDuration_HTML.html#144,144,1366,657,1366,768,9-19-2022,16-50-18,59,depth_duration_stimuli/000677_2014-06-08_23-10-32_260595134347_rgbf000158-resize_6/000677_2014-06-08_23-10-32_260595134347_rgbf000158-resize_6-target.png,250,3.556,5.0,5188,248,meters,jsons/v1_VE250_randls_69.json,1471482,1956847,32,Man
59,554405,DepthScenes,duration_manipulation_targetAtFixation,jsons/v1_VE250_randls_69.json,http://54.235.29.9/FacialAge/BNav_EC2/DepthDuration/v2_depth_duration_MTurk/v2_DepthDuration_HTML.html#144,144,1366,657,1366,768,9-19-2022,16-50-18,60,depth_duration_stimuli/001066_2014-06-08_22-03-20_260595134347_rgbf000066-resize_4/001066_2014-06-08_22-03-20_260595134347_rgbf000066-resize_4-target.png,250,4.2330000000000005,9.0,3306,254,meters,jsons/v1_VE250_randls_69.json,1471482,1956847,32,Man
60,554405,DepthScenes,duration_manipulation_targetAtFixation,jsons/v1_VE250_randls_69.json,http://54.235.29.9/FacialAge/BNav_EC2/DepthDuration/v2_depth_duration_MTurk/v2_DepthDuration_HTML.html#144,144,1366,657,1366,768,9-19-2022,16-50-18,61,depth_duration_stimuli/000742_2014-06-08_18-48-09_260595134347_rgbf000164-resize_4/000742_2014-06-08_18-48-09_260595134347_rgbf000164-resize_4-target.png,250,4.632,8.0,2927,252,meters,jsons/v1_VE250_randls_69.json,1471482,1956847,32,Man
61,554405,DepthScenes,duration_manipulation_targetAtFixation,jsons/v1_VE250_randls_69.json,http://54.235.29.9/FacialAge/BNav_EC2/DepthDuration/v2_depth_duration_MTurk/v2_DepthDuration_HTML.html#144,144,1366,657,1366,768,9-19-2022,16-50-18,62,depth_duration_stimuli/000493_2014-06-09_21-01-18_260595134347_rgbf000196-resize_3/000493_2014-06-09_21-01-18_260595134347_rgbf000196-resize_3-target.png,250,3.44,7.0,3237,223,meters,jsons/v1_VE250_randls_69.json,1471482,1956847,32,Man
62,554405,DepthScenes,duration_manipulation_targetAtFixation,jsons/v1_VE250_randls_69.json,http://54.235.29.9/FacialAge/BNav_EC2/DepthDuration/v2_depth_duration_MTurk/v2_DepthDuration_HTML.html#144,144,1366,657,1366,768,9-19-2022,16-50-18,63,depth_duration_stimuli/000191_2014-05-12_17-07-38_260595134347_rgbf000199-resize_0/000191_2014-05-12_17-07-38_260595134347_rgbf000199-resize_0-target.png,250,3.7995,12.0,3725,252,meters,jsons/v1_VE250_randls_69.json,1471482,1956847,32,Man
63,554405,DepthScenes,duration_manipulation_targetAtFixation,jsons/v1_VE250_randls_69.json,http://54.235.29.9/FacialAge/BNav_EC2/DepthDuration/v2_depth_duration_MTurk/v2_DepthDuration_HTML.html#144,144,1366,657,1366,768,9-19-2022,16-50-18,64,depth_duration_stimuli/000788_2014-06-08_22-34-36_260595134347_rgbf000131-resize_1/000788_2014-06-08_22-34-36_260595134347_rgbf000131-resize_1-target.png,250,3.359,7.0,3085,255,meters,jsons/v1_VE250_randls_69.json,1471482,1956847,32,Man
64,554405,DepthScenes,duration_manipulation_targetAtFixation,jsons/v1_VE250_randls_69.json,http://54.235.29.9/FacialAge/BNav_EC2/DepthDuration/v2_depth_duration_MTurk/v2_DepthDuration_HTML.html#144,144,1366,657,1366,768,9-19-2022,16-50-18,65,depth_duration_stimuli/001235_2014-06-17_16-37-36_260595134347_rgbf000084-resize_4/001235_2014-06-17_16-37-36_260595134347_rgbf000084-resize_4-target.png,250,3.6605,7.0,2940,245,meters,jsons/v1_VE250_randls_69.json,1471482,1956847,32,Man
65,554405,DepthScenes,duration_manipulation_targetAtFixation,jsons/v1_VE250_randls_69.json,http://54.235.29.9/FacialAge/BNav_EC2/DepthDuration/v2_depth_duration_MTurk/v2_DepthDuration_HTML.html#144,144,1366,657,1366,768,9-19-2022,16-50-18,66,depth_duration_stimuli/001222_2014-06-17_16-24-06_260595134347_rgbf000073-resize_0/001222_2014-06-17_16-24-06_260595134347_rgbf000073-resize-original.jpg,250,1.4385,0.0,160964,250,meters,jsons/v1_VE250_randls_69.json,1471482,1956847,32,Man
66,554405,DepthScenes,duration_manipulation_targetAtFixation,jsons/v1_VE250_randls_69.json,http://54.235.29.9/FacialAge/BNav_EC2/DepthDuration/v2_depth_duration_MTurk/v2_DepthDuration_HTML.html#144,144,1366,657,1366,768,9-19-2022,16-50-18,67,depth_duration_stimuli/000522_2014-06-08_13-35-06_260595134347_rgbf000244-resize_1/000522_2014-06-08_13-35-06_260595134347_rgbf000244-resize_1-target.png,250,2.3715,2.0,3553,248,meters,jsons/v1_VE250_randls_69.json,1471482,1956847,32,Man
67,554405,DepthScenes,duration_manipulation_targetAtFixation,jsons/v1_VE250_randls_69.json,http://54.235.29.9/FacialAge/BNav_EC2/DepthDuration/v2_depth_duration_MTurk/v2_DepthDuration_HTML.html#144,144,1366,657,1366,768,9-19-2022,16-50-18,68,depth_duration_stimuli/002949_2014-06-26_15-57-42_094959634447_rgbf000079-resize_1/002949_2014-06-26_15-57-42_094959634447_rgbf000079-resize_1-target.png,250,1.8915,2.0,16058,250,meters,jsons/v1_VE250_randls_69.json,1471482,1956847,32,Man
68,554405,DepthScenes,duration_manipulation_targetAtFixation,jsons/v1_VE250_randls_69.json,http://54.235.29.9/FacialAge/BNav_EC2/DepthDuration/v2_depth_duration_MTurk/v2_DepthDuration_HTML.html#144,144,1366,657,1366,768,9-19-2022,16-50-18,69,depth_duration_stimuli/002057_2014-06-24_21-00-13_260595134347_rgbf000120-resize_1/002057_2014-06-24_21-00-13_260595134347_rgbf000120-resize_1-target.png,250,2.967,7.0,89763,249,meters,jsons/v1_VE250_randls_69.json,1471482,1956847,32,Man
69,554405,DepthScenes,duration_manipulation_targetAtFixation,jsons/v1_VE250_randls_69.json,http://54.235.29.9/FacialAge/BNav_EC2/DepthDuration/v2_depth_duration_MTurk/v2_DepthDuration_HTML.html#144,144,1366,657,1366,768,9-19-2022,16-50-18,70,depth_duration_stimuli/000709_2014-06-08_13-51-55_260595134347_rgbf000068-resize_3/000709_2014-06-08_13-51-55_260595134347_rgbf000068-resize_3-target.png,250,1.8030000000000002,3.0,6229,258,meters,jsons/v1_VE250_randls_69.json,1471482,1956847,32,Man
70,554405,DepthScenes,duration_manipulation_targetAtFixation,jsons/v1_VE250_randls_69.json,http://54.235.29.9/FacialAge/BNav_EC2/DepthDuration/v2_depth_duration_MTurk/v2_DepthDuration_HTML.html#144,144,1366,657,1366,768,9-19-2022,16-50-18,71,depth_duration_stimuli/001449_2014-06-19_17-01-27_260595134347_rgbf000116-resize_2/001449_2014-06-19_17-01-27_260595134347_rgbf000116-resize_2-target.png,250,3.452,6.0,2771,247,meters,jsons/v1_VE250_randls_69.json,1471482,1956847,32,Man
71,554405,DepthScenes,duration_manipulation_targetAtFixation,jsons/v1_VE250_randls_69.json,http://54.235.29.9/FacialAge/BNav_EC2/DepthDuration/v2_depth_duration_MTurk/v2_DepthDuration_HTML.html#144,144,1366,657,1366,768,9-19-2022,16-50-18,72,depth_duration_stimuli/001450_2014-06-19_17-02-03_260595134347_rgbf000203-resize_4/001450_2014-06-19_17-02-03_260595134347_rgbf000203-resize_4-target.png,250,4.0106666666667,8.0,2457,249,meters,jsons/v1_VE250_randls_69.json,1471482,1956847,32,Man
72,554405,DepthScenes,duration_manipulation_targetAtFixation,jsons/v1_VE250_randls_69.json,http://54.235.29.9/FacialAge/BNav_EC2/DepthDuration/v2_depth_duration_MTurk/v2_DepthDuration_HTML.html#144,144,1366,657,1366,768,9-19-2022,16-50-18,73,depth_duration_stimuli/000642_2014-06-08_16-59-25_260595134347_rgbf000098-resize_2/000642_2014-06-08_16-59-25_260595134347_rgbf000098-resize_2-target.png,250,2.8815,8.0,3023,247,meters,jsons/v1_VE250_randls_69.json,1471482,1956847,32,Man
73,554405,DepthScenes,duration_manipulation_targetAtFixation,jsons/v1_VE250_randls_69.json,http://54.235.29.9/FacialAge/BNav_EC2/DepthDuration/v2_depth_duration_MTurk/v2_DepthDuration_HTML.html#144,144,1366,657,1366,768,9-19-2022,16-50-18,74,depth_duration_stimuli/002425_2014-06-28_20-27-29_260595134347_rgbf000031-resize_8/002425_2014-06-28_20-27-29_260595134347_rgbf000031-resize_8-target.png,250,3.8960000000000004,7.0,2437,226,meters,jsons/v1_VE250_randls_69.json,1471482,1956847,32,Man
74,554405,DepthScenes,duration_manipulation_targetAtFixation,jsons/v1_VE250_randls_69.json,http://54.235.29.9/FacialAge/BNav_EC2/DepthDuration/v2_depth_duration_MTurk/v2_DepthDuration_HTML.html#144,144,1366,657,1366,768,9-19-2022,16-50-18,75,depth_duration_stimuli/002375_2014-06-28_20-13-44_260595134347_rgbf000032-resize_1/002375_2014-06-28_20-13-44_260595134347_rgbf000032-resize_1-target.png,250,4.0175,5.0,3248,249,meters,jsons/v1_VE250_randls_69.json,1471482,1956847,32,Man
75,554405,DepthScenes,duration_manipulation_targetAtFixation,jsons/v1_VE250_randls_69.json,http://54.235.29.9/FacialAge/BNav_EC2/DepthDuration/v2_depth_duration_MTurk/v2_DepthDuration_HTML.html#144,144,1366,657,1366,768,9-19-2022,16-50-18,76,depth_duration_stimuli/002657_2014-06-13_15-29-54_094959634447_rgbf000150-resize_1/002657_2014-06-13_15-29-54_094959634447_rgbf000150-resize_1-target.png,250,4.919,8.0,3961,248,meters,jsons/v1_VE250_randls_69.json,1471482,1956847,32,Man
76,554405,DepthScenes,duration_manipulation_targetAtFixation,jsons/v1_VE250_randls_69.json,http://54.235.29.9/FacialAge/BNav_EC2/DepthDuration/v2_depth_duration_MTurk/v2_DepthDuration_HTML.html#144,144,1366,657,1366,768,9-19-2022,16-50-18,77,depth_duration_stimuli/001175_2014-06-17_15-45-55_260595134347_rgbf000129-resize_4/001175_2014-06-17_15-45-55_260595134347_rgbf000129-resize_4-target.png,250,4.255,12.0,4794,249,meters,jsons/v1_VE250_randls_69.json,1471482,1956847,32,Man
77,554405,DepthScenes,duration_manipulation_targetAtFixation,jsons/v1_VE250_randls_69.json,http://54.235.29.9/FacialAge/BNav_EC2/DepthDuration/v2_depth_duration_MTurk/v2_DepthDuration_HTML.html#144,144,1366,657,1366,768,9-19-2022,16-50-18,78,depth_duration_stimuli/003490_2014-05-21_15-50-11_094959634447_rgbf000101-resize_3/003490_2014-05-21_15-50-11_094959634447_rgbf000101-resize_3-target.png,250,3.6445,9.0,4153,232,meters,jsons/v1_VE250_randls_69.json,1471482,1956847,32,Man
78,554405,DepthScenes,duration_manipulation_targetAtFixation,jsons/v1_VE250_randls_69.json,http://54.235.29.9/FacialAge/BNav_EC2/DepthDuration/v2_depth_duration_MTurk/v2_DepthDuration_HTML.html#144,144,1366,657,1366,768,9-19-2022,16-50-18,79,depth_duration_stimuli/001056_2014-06-08_18-46-44_260595134347_rgbf000068-resize_0/001056_2014-06-08_18-46-44_260595134347_rgbf000068-resize_0-target.png,250,2.6625,9.0,4346,250,meters,jsons/v1_VE250_randls_69.json,1471482,1956847,32,Man
79,554405,DepthScenes,duration_manipulation_targetAtFixation,jsons/v1_VE250_randls_69.json,http://54.235.29.9/FacialAge/BNav_EC2/DepthDuration/v2_depth_duration_MTurk/v2_DepthDuration_HTML.html#144,144,1366,657,1366,768,9-19-2022,16-50-18,80,depth_duration_stimuli/002199_2014-06-28_18-33-56_260595134347_rgbf000074-resize_0/002199_2014-06-28_18-33-56_260595134347_rgbf000074-resize_0-target.png,250,1.996,3.0,2739,250,meters,jsons/v1_VE250_randls_69.json,1471482,1956847,32,Man
80,554405,DepthScenes,duration_manipulation_targetAtFixation,jsons/v1_VE250_randls_69.json,http://54.235.29.9/FacialAge/BNav_EC2/DepthDuration/v2_depth_duration_MTurk/v2_DepthDuration_HTML.html#144,144,1366,657,1366,768,9-19-2022,16-50-18,81,depth_duration_stimuli/000739_2014-06-08_18-45-58_260595134347_rgbf000068-resize_1/000739_2014-06-08_18-45-58_260595134347_rgbf000068-resize_1-target.png,250,3.534,8.0,5093,249,meters,jsons/v1_VE250_randls_69.json,1471482,1956847,32,Man
81,554405,DepthScenes,duration_manipulation_targetAtFixation,jsons/v1_VE250_randls_69.json,http://54.235.29.9/FacialAge/BNav_EC2/DepthDuration/v2_depth_duration_MTurk/v2_DepthDuration_HTML.html#144,144,1366,657,1366,768,9-19-2022,16-50-18,82,depth_duration_stimuli/000734_2014-06-08_17-39-11_260595134347_rgbf000128-resize_2/000734_2014-06-08_17-39-11_260595134347_rgbf000128-resize_2-target.png,250,4.098,5.0,6369,249,meters,jsons/v1_VE250_randls_69.json,1471482,1956847,32,Man
82,554405,DepthScenes,duration_manipulation_targetAtFixation,jsons/v1_VE250_randls_69.json,http://54.235.29.9/FacialAge/BNav_EC2/DepthDuration/v2_depth_duration_MTurk/v2_DepthDuration_HTML.html#144,144,1366,657,1366,768,9-19-2022,16-50-18,83,depth_duration_stimuli/001059_2014-06-08_21-53-27_260595134347_rgbf000061-resize_4/001059_2014-06-08_21-53-27_260595134347_rgbf000061-resize_4-target.png,250,2.4185,6.0,6986,250,meters,jsons/v1_VE250_randls_69.json,1471482,1956847,32,Man
83,554405,DepthScenes,duration_manipulation_targetAtFixation,jsons/v1_VE250_randls_69.json,http://54.235.29.9/FacialAge/BNav_EC2/DepthDuration/v2_depth_duration_MTurk/v2_DepthDuration_HTML.html#144,144,1366,657,1366,768,9-19-2022,16-50-18,84,depth_duration_stimuli/001032_2014-06-08_13-23-17_260595134347_rgbf000021-resize_3/001032_2014-06-08_13-23-17_260595134347_rgbf000021-resize_3-target.png,250,3.2725,6.0,10209,250,meters,jsons/v1_VE250_randls_69.json,1471482,1956847,32,Man
84,554405,DepthScenes,duration_manipulation_targetAtFixation,jsons/v1_VE250_randls_69.json,http://54.235.29.9/FacialAge/BNav_EC2/DepthDuration/v2_depth_duration_MTurk/v2_DepthDuration_HTML.html#144,144,1366,657,1366,768,9-19-2022,16-50-18,85,depth_duration_stimuli/002763_2014-06-22_19-13-10_094959634447_rgbf000075-resize_4/002763_2014-06-22_19-13-10_094959634447_rgbf000075-resize_4-target.png,250,1.68375,4.0,39394,248,meters,jsons/v1_VE250_randls_69.json,1471482,1956847,32,Man
85,554405,DepthScenes,duration_manipulation_targetAtFixation,jsons/v1_VE250_randls_69.json,http://54.235.29.9/FacialAge/BNav_EC2/DepthDuration/v2_depth_duration_MTurk/v2_DepthDuration_HTML.html#144,144,1366,657,1366,768,9-19-2022,16-50-18,86,depth_duration_stimuli/002209_2014-06-28_18-36-10_260595134347_rgbf000051-resize_1/002209_2014-06-28_18-36-10_260595134347_rgbf000051-resize_1-target.png,250,2.057,4.0,2388,262,meters,jsons/v1_VE250_randls_69.json,1471482,1956847,32,Man
86,554405,DepthScenes,duration_manipulation_targetAtFixation,jsons/v1_VE250_randls_69.json,http://54.235.29.9/FacialAge/BNav_EC2/DepthDuration/v2_depth_duration_MTurk/v2_DepthDuration_HTML.html#144,144,1366,657,1366,768,9-19-2022,16-50-18,87,depth_duration_stimuli/001055_2014-06-08_18-45-35_260595134347_rgbf000111-resize_4/001055_2014-06-08_18-45-35_260595134347_rgbf000111-resize_4-target.png,250,2.4290000000000003,8.0,7247,248,meters,jsons/v1_VE250_randls_69.json,1471482,1956847,32,Man
87,554405,DepthScenes,duration_manipulation_targetAtFixation,jsons/v1_VE250_randls_69.json,http://54.235.29.9/FacialAge/BNav_EC2/DepthDuration/v2_depth_duration_MTurk/v2_DepthDuration_HTML.html#144,144,1366,657,1366,768,9-19-2022,16-50-18,88,depth_duration_stimuli/000549_2014-06-08_22-10-24_260595134347_rgbf000247-resize_3/000549_2014-06-08_22-10-24_260595134347_rgbf000247-resize_3-target.png,250,1.841,3.0,2653,213,meters,jsons/v1_VE250_randls_69.json,1471482,1956847,32,Man
88,554405,DepthScenes,duration_manipulation_targetAtFixation,jsons/v1_VE250_randls_69.json,http://54.235.29.9/FacialAge/BNav_EC2/DepthDuration/v2_depth_duration_MTurk/v2_DepthDuration_HTML.html#144,144,1366,657,1366,768,9-19-2022,16-50-18,89,depth_duration_stimuli/000682_2014-06-08_23-14-58_260595134347_rgbf000041-resize_5/000682_2014-06-08_23-14-58_260595134347_rgbf000041-resize_5-target.png,250,2.7239999999999998,4.0,5263,249,meters,jsons/v1_VE250_randls_69.json,1471482,1956847,32,Man
89,554405,DepthScenes,duration_manipulation_targetAtFixation,jsons/v1_VE250_randls_69.json,http://54.235.29.9/FacialAge/BNav_EC2/DepthDuration/v2_depth_duration_MTurk/v2_DepthDuration_HTML.html#144,144,1366,657,1366,768,9-19-2022,16-50-18,90,depth_duration_stimuli/001650_2014-06-20_12-09-00_260595134347_rgbf000087-resize_3/001650_2014-06-20_12-09-00_260595134347_rgbf000087-resize_3-target.png,250,1.9505,1.5,5145,248,meters,jsons/v1_VE250_randls_69.json,1471482,1956847,32,Man
90,554405,DepthScenes,duration_manipulation_targetAtFixation,jsons/v1_VE250_randls_69.json,http://54.235.29.9/FacialAge/BNav_EC2/DepthDuration/v2_depth_duration_MTurk/v2_DepthDuration_HTML.html#144,144,1366,657,1366,768,9-19-2022,16-50-18,91,depth_duration_stimuli/001164_2014-06-17_15-35-46_260595134347_rgbf000085-resize_3/001164_2014-06-17_15-35-46_260595134347_rgbf000085-resize_3-target.png,250,2.354,4.0,6443,250,meters,jsons/v1_VE250_randls_69.json,1471482,1956847,32,Man
91,554405,DepthScenes,duration_manipulation_targetAtFixation,jsons/v1_VE250_randls_69.json,http://54.235.29.9/FacialAge/BNav_EC2/DepthDuration/v2_depth_duration_MTurk/v2_DepthDuration_HTML.html#144,144,1366,657,1366,768,9-19-2022,16-50-18,92,depth_duration_stimuli/001136_2014-06-17_15-19-41_260595134347_rgbf000076-resize_3/001136_2014-06-17_15-19-41_260595134347_rgbf000076-resize_3-target.png,250,1.8655,5.0,2665,249,meters,jsons/v1_VE250_randls_69.json,1471482,1956847,32,Man
92,554405,DepthScenes,duration_manipulation_targetAtFixation,jsons/v1_VE250_randls_69.json,http://54.235.29.9/FacialAge/BNav_EC2/DepthDuration/v2_depth_duration_MTurk/v2_DepthDuration_HTML.html#144,144,1366,657,1366,768,9-19-2022,16-50-18,93,depth_duration_stimuli/000436_2014-06-09_22-25-11_260595134347_rgbf000137-resize_1/000436_2014-06-09_22-25-11_260595134347_rgbf000137-resize_1-target.png,250,4.0705,11.0,5637,249,meters,jsons/v1_VE250_randls_69.json,1471482,1956847,32,Man
93,554405,DepthScenes,duration_manipulation_targetAtFixation,jsons/v1_VE250_randls_69.json,http://54.235.29.9/FacialAge/BNav_EC2/DepthDuration/v2_depth_duration_MTurk/v2_DepthDuration_HTML.html#144,144,1366,657,1366,768,9-19-2022,16-50-18,94,depth_duration_stimuli/002444_2014-06-28_20-32-08_260595134347_rgbf000027-resize_0/002444_2014-06-28_20-32-08_260595134347_rgbf000027-resize_0-target.png,250,4.388999999999999,10.0,3130,260,meters,jsons/v1_VE250_randls_69.json,1471482,1956847,32,Man
94,554405,DepthScenes,duration_manipulation_targetAtFixation,jsons/v1_VE250_randls_69.json,http://54.235.29.9/FacialAge/BNav_EC2/DepthDuration/v2_depth_duration_MTurk/v2_DepthDuration_HTML.html#144,144,1366,657,1366,768,9-19-2022,16-50-18,95,depth_duration_stimuli/000470_2014-06-09_19-42-40_260595134347_rgbf000094-resize_1/000470_2014-06-09_19-42-40_260595134347_rgbf000094-resize_1-target.png,250,1.831,5.0,32573,249,meters,jsons/v1_VE250_randls_69.json,1471482,1956847,32,Man
95,554405,DepthScenes,duration_manipulation_targetAtFixation,jsons/v1_VE250_randls_69.json,http://54.235.29.9/FacialAge/BNav_EC2/DepthDuration/v2_depth_duration_MTurk/v2_DepthDuration_HTML.html#144,144,1366,657,1366,768,9-19-2022,16-50-18,96,depth_duration_stimuli/000109_2014-05-14_23-41-52_260595134347_rgbf000035-resize_9/000109_2014-05-14_23-41-52_260595134347_rgbf000035-resize_9-target.png,250,1.3545,3.0,3324,368,meters,jsons/v1_VE250_randls_69.json,1471482,1956847,32,Man
96,554405,DepthScenes,duration_manipulation_targetAtFixation,jsons/v1_VE250_randls_69.json,http://54.235.29.9/FacialAge/BNav_EC2/DepthDuration/v2_depth_duration_MTurk/v2_DepthDuration_HTML.html#144,144,1366,657,1366,768,9-19-2022,16-50-18,97,depth_duration_stimuli/000758_2014-06-08_22-05-08_260595134347_rgbf000085-resize_0/000758_2014-06-08_22-05-08_260595134347_rgbf000085-resize_0-target.png,250,3.3810000000000002,5.0,73738,248,meters,jsons/v1_VE250_randls_69.json,1471482,1956847,32,Man
97,554405,DepthScenes,duration_manipulation_targetAtFixation,jsons/v1_VE250_randls_69.json,http://54.235.29.9/FacialAge/BNav_EC2/DepthDuration/v2_depth_duration_MTurk/v2_DepthDuration_HTML.html#144,144,1366,657,1366,768,9-19-2022,16-50-18,98,depth_duration_stimuli/000854_2014-06-09_19-43-13_260595134347_rgbf000066-resize_0/000854_2014-06-09_19-43-13_260595134347_rgbf000066-resize_0-target.png,250,3.068,3.0,3377,237,meters,jsons/v1_VE250_randls_69.json,1471482,1956847,32,Man
98,554405,DepthScenes,duration_manipulation_targetAtFixation,jsons/v1_VE250_randls_69.json,http://54.235.29.9/FacialAge/BNav_EC2/DepthDuration/v2_depth_duration_MTurk/v2_DepthDuration_HTML.html#144,144,1366,657,1366,768,9-19-2022,16-50-18,99,depth_duration_stimuli/001540_2014-06-20_17-01-05_260595134347_rgbf000086-resize_2/001540_2014-06-20_17-01-05_260595134347_rgbf000086-resize-original.jpg,250,1.459,0.0,3153,250,meters,jsons/v1_VE250_randls_69.json,1471482,1956847,32,Man
99,554405,DepthScenes,duration_manipulation_targetAtFixation,jsons/v1_VE250_randls_69.json,http://54.235.29.9/FacialAge/BNav_EC2/DepthDuration/v2_depth_duration_MTurk/v2_DepthDuration_HTML.html#144,144,1366,657,1366,768,9-19-2022,16-50-18,100,depth_duration_stimuli/003492_2014-05-21_15-50-55_094959634447_rgbf000828-resize_1/003492_2014-05-21_15-50-55_094959634447_rgbf000828-resize_1-target.png,250,4.06875,10.0,3476,252,meters,jsons/v1_VE250_randls_69.json,1471482,1956847,32,Man
100,554405,DepthScenes,duration_manipulation_targetAtFixation,jsons/v1_VE250_randls_69.json,http://54.235.29.9/FacialAge/BNav_EC2/DepthDuration/v2_depth_duration_MTurk/v2_DepthDuration_HTML.html#144,144,1366,657,1366,768,9-19-2022,16-50-18,101,depth_duration_stimuli/002568_2014-06-24_13-59-21_094959634447_rgbf000062-resize_4/002568_2014-06-24_13-59-21_094959634447_rgbf000062-resize_4-target.png,250,3.015,4.0,14505,250,meters,jsons/v1_VE250_randls_69.json,1471482,1956847,32,Man
101,554405,DepthScenes,duration_manipulation_targetAtFixation,jsons/v1_VE250_randls_69.json,http://54.235.29.9/FacialAge/BNav_EC2/DepthDuration/v2_depth_duration_MTurk/v2_DepthDuration_HTML.html#144,144,1366,657,1366,768,9-19-2022,16-50-18,102,depth_duration_stimuli/001810_2014-06-26_20-51-35_260595134347_rgbf000040-resize_3/001810_2014-06-26_20-51-35_260595134347_rgbf000040-resize_3-target.png,250,2.2525,3.5,7777,250,meters,jsons/v1_VE250_randls_69.json,1471482,1956847,32,Man
102,554405,DepthScenes,duration_manipulation_targetAtFixation,jsons/v1_VE250_randls_69.json,http://54.235.29.9/FacialAge/BNav_EC2/DepthDuration/v2_depth_duration_MTurk/v2_DepthDuration_HTML.html#144,144,1366,657,1366,768,9-19-2022,16-50-18,103,depth_duration_stimuli/003010_2014-06-15_12-54-35_094959634447_rgbf000112-resize_0/003010_2014-06-15_12-54-35_094959634447_rgbf000112-resize_0-target.png,250,3.1185,10.0,4322,250,meters,jsons/v1_VE250_randls_69.json,1471482,1956847,32,Man
103,554405,DepthScenes,duration_manipulation_targetAtFixation,jsons/v1_VE250_randls_69.json,http://54.235.29.9/FacialAge/BNav_EC2/DepthDuration/v2_depth_duration_MTurk/v2_DepthDuration_HTML.html#144,144,1366,657,1366,768,9-19-2022,16-50-18,104,depth_duration_stimuli/001158_2014-06-17_15-32-16_260595134347_rgbf000138-resize_2/001158_2014-06-17_15-32-16_260595134347_rgbf000138-resize_2-target.png,250,4.5315,12.0,3011,251,meters,jsons/v1_VE250_randls_69.json,1471482,1956847,32,Man
104,554405,DepthScenes,duration_manipulation_targetAtFixation,jsons/v1_VE250_randls_69.json,http://54.235.29.9/FacialAge/BNav_EC2/DepthDuration/v2_depth_duration_MTurk/v2_DepthDuration_HTML.html#144,144,1366,657,1366,768,9-19-2022,16-50-18,105,depth_duration_stimuli/000556_2014-06-09_22-42-56_260595134347_rgbf000214-resize_1/000556_2014-06-09_22-42-56_260595134347_rgbf000214-resize_1-target.png,250,4.8415,12.0,6833,249,meters,jsons/v1_VE250_randls_69.json,1471482,1956847,32,Man
105,554405,DepthScenes,duration_manipulation_targetAtFixation,jsons/v1_VE250_randls_69.json,http://54.235.29.9/FacialAge/BNav_EC2/DepthDuration/v2_depth_duration_MTurk/v2_DepthDuration_HTML.html#144,144,1366,657,1366,768,9-19-2022,16-50-18,106,depth_duration_stimuli/000810_2014-06-08_17-20-01_260595134347_rgbf000105-resize_0/000810_2014-06-08_17-20-01_260595134347_rgbf000105-resize_0-target.png,250,1.4865,4.0,10194,246,meters,jsons/v1_VE250_randls_69.json,1471482,1956847,32,Man
106,554405,DepthScenes,duration_manipulation_targetAtFixation,jsons/v1_VE250_randls_69.json,http://54.235.29.9/FacialAge/BNav_EC2/DepthDuration/v2_depth_duration_MTurk/v2_DepthDuration_HTML.html#144,144,1366,657,1366,768,9-19-2022,16-50-18,107,depth_duration_stimuli/001214_2014-06-17_16-13-55_260595134347_rgbf000111-resize_0/001214_2014-06-17_16-13-55_260595134347_rgbf000111-resize_0-target.png,250,2.6505,1.0,5987,250,meters,jsons/v1_VE250_randls_69.json,1471482,1956847,32,Man
107,554405,DepthScenes,duration_manipulation_targetAtFixation,jsons/v1_VE250_randls_69.json,http://54.235.29.9/FacialAge/BNav_EC2/DepthDuration/v2_depth_duration_MTurk/v2_DepthDuration_HTML.html#144,144,1366,657,1366,768,9-19-2022,16-50-18,108,depth_duration_stimuli/002600_2014-06-24_14-27-04_094959634447_rgbf000074-resize_2/002600_2014-06-24_14-27-04_094959634447_rgbf000074-resize_2-target.png,250,2.7575,5.0,3371,249,meters,jsons/v1_VE250_randls_69.json,1471482,1956847,32,Man
108,554405,DepthScenes,duration_manipulation_targetAtFixation,jsons/v1_VE250_randls_69.json,http://54.235.29.9/FacialAge/BNav_EC2/DepthDuration/v2_depth_duration_MTurk/v2_DepthDuration_HTML.html#144,144,1366,657,1366,768,9-19-2022,16-50-18,109,depth_duration_stimuli/003228_2014-05-14_13-42-35_094959634447_rgbf000101-resize_1/003228_2014-05-14_13-42-35_094959634447_rgbf000101-resize_1-target.png,250,1.9680000000000002,4.0,30621,250,meters,jsons/v1_VE250_randls_69.json,1471482,1956847,32,Man
109,554405,DepthScenes,duration_manipulation_targetAtFixation,jsons/v1_VE250_randls_69.json,http://54.235.29.9/FacialAge/BNav_EC2/DepthDuration/v2_depth_duration_MTurk/v2_DepthDuration_HTML.html#144,144,1366,657,1366,768,9-19-2022,16-50-18,110,depth_duration_stimuli/001570_2014-06-20_17-21-09_260595134347_rgbf000135-resize_4/001570_2014-06-20_17-21-09_260595134347_rgbf000135-resize_4-target.png,250,4.467,9.0,5106,250,meters,jsons/v1_VE250_randls_69.json,1471482,1956847,32,Man
110,554405,DepthScenes,duration_manipulation_targetAtFixation,jsons/v1_VE250_randls_69.json,http://54.235.29.9/FacialAge/BNav_EC2/DepthDuration/v2_depth_duration_MTurk/v2_DepthDuration_HTML.html#144,144,1366,657,1366,768,9-19-2022,16-50-18,111,depth_duration_stimuli/001392_2014-06-19_16-07-59_260595134347_rgbf000046-resize_1/001392_2014-06-19_16-07-59_260595134347_rgbf000046-resize_1-target.png,250,4.135,8.0,10386,251,meters,jsons/v1_VE250_randls_69.json,1471482,1956847,32,Man
111,554405,DepthScenes,duration_manipulation_targetAtFixation,jsons/v1_VE250_randls_69.json,http://54.235.29.9/FacialAge/BNav_EC2/DepthDuration/v2_depth_duration_MTurk/v2_DepthDuration_HTML.html#144,144,1366,657,1366,768,9-19-2022,16-50-18,112,depth_duration_stimuli/000368_2014-06-09_15-53-01_260595134347_rgbf000155-resize_2/000368_2014-06-09_15-53-01_260595134347_rgbf000155-resize_2-target.png,250,2.4859999999999998,4.0,5932,250,meters,jsons/v1_VE250_randls_69.json,1471482,1956847,32,Man
112,554405,DepthScenes,duration_manipulation_targetAtFixation,jsons/v1_VE250_randls_69.json,http://54.235.29.9/FacialAge/BNav_EC2/DepthDuration/v2_depth_duration_MTurk/v2_DepthDuration_HTML.html#144,144,1366,657,1366,768,9-19-2022,16-50-18,113,depth_duration_stimuli/002678_2014-06-13_16-15-32_094959634447_rgbf000151-resize_6/002678_2014-06-13_16-15-32_094959634447_rgbf000151-resize_6-target.png,250,2.1830000000000003,10.0,4940,249,meters,jsons/v1_VE250_randls_69.json,1471482,1956847,32,Man
113,554405,DepthScenes,duration_manipulation_targetAtFixation,jsons/v1_VE250_randls_69.json,http://54.235.29.9/FacialAge/BNav_EC2/DepthDuration/v2_depth_duration_MTurk/v2_DepthDuration_HTML.html#144,144,1366,657,1366,768,9-19-2022,16-50-18,114,depth_duration_stimuli/001150_2014-06-17_15-27-34_260595134347_rgbf000108-resize_2/001150_2014-06-17_15-27-34_260595134347_rgbf000108-resize_2-target.png,250,4.0325,9.0,3807,254,meters,jsons/v1_VE250_randls_69.json,1471482,1956847,32,Man
114,554405,DepthScenes,duration_manipulation_targetAtFixation,jsons/v1_VE250_randls_69.json,http://54.235.29.9/FacialAge/BNav_EC2/DepthDuration/v2_depth_duration_MTurk/v2_DepthDuration_HTML.html#144,144,1366,657,1366,768,9-19-2022,16-50-18,115,depth_duration_stimuli/000665_2014-06-09_20-42-35_260595134347_rgbf000110-resize_1/000665_2014-06-09_20-42-35_260595134347_rgbf000110-resize_1-target.png,250,3.057,8.0,3947,250,meters,jsons/v1_VE250_randls_69.json,1471482,1956847,32,Man
115,554405,DepthScenes,duration_manipulation_targetAtFixation,jsons/v1_VE250_randls_69.json,http://54.235.29.9/FacialAge/BNav_EC2/DepthDuration/v2_depth_duration_MTurk/v2_DepthDuration_HTML.html#144,144,1366,657,1366,768,9-19-2022,16-50-18,116,depth_duration_stimuli/001170_2014-06-17_15-43-44_260595134347_rgbf000096-resize_6/001170_2014-06-17_15-43-44_260595134347_rgbf000096-resize-original.jpg,250,1.1909999999999998,0.0,7056,250,meters,jsons/v1_VE250_randls_69.json,1471482,1956847,32,Man
116,554405,DepthScenes,duration_manipulation_targetAtFixation,jsons/v1_VE250_randls_69.json,http://54.235.29.9/FacialAge/BNav_EC2/DepthDuration/v2_depth_duration_MTurk/v2_DepthDuration_HTML.html#144,144,1366,657,1366,768,9-19-2022,16-50-18,117,depth_duration_stimuli/002725_2014-06-22_11-47-51_094959634447_rgbf000070-resize_1/002725_2014-06-22_11-47-51_094959634447_rgbf000070-resize_1-target.png,250,2.195,4.0,5649,249,meters,jsons/v1_VE250_randls_69.json,1471482,1956847,32,Man
117,554405,DepthScenes,duration_manipulation_targetAtFixation,jsons/v1_VE250_randls_69.json,http://54.235.29.9/FacialAge/BNav_EC2/DepthDuration/v2_depth_duration_MTurk/v2_DepthDuration_HTML.html#144,144,1366,657,1366,768,9-19-2022,16-50-18,118,depth_duration_stimuli/002344_2014-06-28_20-06-29_260595134347_rgbf000030-resize_1/002344_2014-06-28_20-06-29_260595134347_rgbf000030-resize_1-target.png,250,1.5795,5.0,3113,248,meters,jsons/v1_VE250_randls_69.json,1471482,1956847,32,Man
118,554405,DepthScenes,duration_manipulation_targetAtFixation,jsons/v1_VE250_randls_69.json,http://54.235.29.9/FacialAge/BNav_EC2/DepthDuration/v2_depth_duration_MTurk/v2_DepthDuration_HTML.html#144,144,1366,657,1366,768,9-19-2022,16-50-18,119,depth_duration_stimuli/002509_2014-06-24_13-19-22_094959634447_rgbf000077-resize_0/002509_2014-06-24_13-19-22_094959634447_rgbf000077-resize_0-target.png,250,1.3065,3.0,3195,250,meters,jsons/v1_VE250_randls_69.json,1471482,1956847,32,Man
119,554405,DepthScenes,duration_manipulation_targetAtFixation,jsons/v1_VE250_randls_69.json,http://54.235.29.9/FacialAge/BNav_EC2/DepthDuration/v2_depth_duration_MTurk/v2_DepthDuration_HTML.html#144,144,1366,657,1366,768,9-19-2022,16-50-18,120,depth_duration_stimuli/003338_2014-05-20_11-01-23_094959634447_rgbf000051-resize_6/003338_2014-05-20_11-01-23_094959634447_rgbf000051-resize_6-target.png,250,1.693,4.0,2840,246,meters,jsons/v1_VE250_randls_69.json,1471482,1956847,32,Man
120,554405,DepthScenes,duration_manipulation_targetAtFixation,jsons/v1_VE250_randls_69.json,http://54.235.29.9/FacialAge/BNav_EC2/DepthDuration/v2_depth_duration_MTurk/v2_DepthDuration_HTML.html#144,144,1366,657,1366,768,9-19-2022,16-50-18,121,depth_duration_stimuli/002039_2014-06-24_20-22-38_260595134347_rgbf000084-resize_1/002039_2014-06-24_20-22-38_260595134347_rgbf000084-resize_1-target.png,250,4.408,8.0,3972,249,meters,jsons/v1_VE250_randls_69.json,1471482,1956847,32,Man
121,554405,DepthScenes,duration_manipulation_targetAtFixation,jsons/v1_VE250_randls_69.json,http://54.235.29.9/FacialAge/BNav_EC2/DepthDuration/v2_depth_duration_MTurk/v2_DepthDuration_HTML.html#144,144,1366,657,1366,768,9-19-2022,16-50-18,122,depth_duration_stimuli/002103_2014-06-25_20-00-40_260595134347_rgbf000049-resize_0/002103_2014-06-25_20-00-40_260595134347_rgbf000049-resize_0-target.png,250,4.105,6.0,2884,250,meters,jsons/v1_VE250_randls_69.json,1471482,1956847,32,Man
122,554405,DepthScenes,duration_manipulation_targetAtFixation,jsons/v1_VE250_randls_69.json,http://54.235.29.9/FacialAge/BNav_EC2/DepthDuration/v2_depth_duration_MTurk/v2_DepthDuration_HTML.html#144,144,1366,657,1366,768,9-19-2022,16-50-18,123,depth_duration_stimuli/000929_2014-06-09_16-33-19_260595134347_rgbf000139-resize_0/000929_2014-06-09_16-33-19_260595134347_rgbf000139-resize_0-target.png,250,2.8680000000000003,5.0,2313,249,meters,jsons/v1_VE250_randls_69.json,1471482,1956847,32,Man
123,554405,DepthScenes,duration_manipulation_targetAtFixation,jsons/v1_VE250_randls_69.json,http://54.235.29.9/FacialAge/BNav_EC2/DepthDuration/v2_depth_duration_MTurk/v2_DepthDuration_HTML.html#144,144,1366,657,1366,768,9-19-2022,16-50-18,124,depth_duration_stimuli/000457_2014-06-08_16-52-43_260595134347_rgbf000199-resize_1/000457_2014-06-08_16-52-43_260595134347_rgbf000199-resize_1-target.png,250,3.6489999999999996,8.0,3026,251,meters,jsons/v1_VE250_randls_69.json,1471482,1956847,32,Man
124,554405,DepthScenes,duration_manipulation_targetAtFixation,jsons/v1_VE250_randls_69.json,http://54.235.29.9/FacialAge/BNav_EC2/DepthDuration/v2_depth_duration_MTurk/v2_DepthDuration_HTML.html#144,144,1366,657,1366,768,9-19-2022,16-50-18,125,depth_duration_stimuli/000506_2014-06-08_23-21-00_260595134347_rgbf000070-resize_7/000506_2014-06-08_23-21-00_260595134347_rgbf000070-resize_7-target.png,250,4.0585,9.0,2796,250,meters,jsons/v1_VE250_randls_69.json,1471482,1956847,32,Man
125,554405,DepthScenes,duration_manipulation_targetAtFixation,jsons/v1_VE250_randls_69.json,http://54.235.29.9/FacialAge/BNav_EC2/DepthDuration/v2_depth_duration_MTurk/v2_DepthDuration_HTML.html#144,144,1366,657,1366,768,9-19-2022,16-50-18,126,depth_duration_stimuli/003079_2014-06-15_15-18-20_094959634447_rgbf000152-resize_8/003079_2014-06-15_15-18-20_094959634447_rgbf000152-resize_8-target.png,250,2.8775,9.0,2188,250,meters,jsons/v1_VE250_randls_69.json,1471482,1956847,32,Man
126,554405,DepthScenes,duration_manipulation_targetAtFixation,jsons/v1_VE250_randls_69.json,http://54.235.29.9/FacialAge/BNav_EC2/DepthDuration/v2_depth_duration_MTurk/v2_DepthDuration_HTML.html#144,144,1366,657,1366,768,9-19-2022,16-50-18,127,depth_duration_stimuli/000469_2014-06-09_19-42-10_260595134347_rgbf000081-resize_1/000469_2014-06-09_19-42-10_260595134347_rgbf000081-resize_1-target.png,250,1.652,3.0,2545,245,meters,jsons/v1_VE250_randls_69.json,1471482,1956847,32,Man
127,554405,DepthScenes,duration_manipulation_targetAtFixation,jsons/v1_VE250_randls_69.json,http://54.235.29.9/FacialAge/BNav_EC2/DepthDuration/v2_depth_duration_MTurk/v2_DepthDuration_HTML.html#144,144,1366,657,1366,768,9-19-2022,16-50-18,128,depth_duration_stimuli/000483_2014-06-09_20-41-45_260595134347_rgbf000116-resize_4/000483_2014-06-09_20-41-45_260595134347_rgbf000116-resize_4-target.png,250,1.337,2.0,23798,249,meters,jsons/v1_VE250_randls_69.json,1471482,1956847,32,Man
128,554405,DepthScenes,duration_manipulation_targetAtFixation,jsons/v1_VE250_randls_69.json,http://54.235.29.9/FacialAge/BNav_EC2/DepthDuration/v2_depth_duration_MTurk/v2_DepthDuration_HTML.html#144,144,1366,657,1366,768,9-19-2022,16-50-18,129,depth_duration_stimuli/000773_2014-06-08_22-24-54_260595134347_rgbf000093-resize_1/000773_2014-06-08_22-24-54_260595134347_rgbf000093-resize_1-target.png,250,4.973,6.0,64795,249,meters,jsons/v1_VE250_randls_69.json,1471482,1956847,32,Man
129,554405,DepthScenes,duration_manipulation_targetAtFixation,jsons/v1_VE250_randls_69.json,http://54.235.29.9/FacialAge/BNav_EC2/DepthDuration/v2_depth_duration_MTurk/v2_DepthDuration_HTML.html#144,144,1366,657,1366,768,9-19-2022,16-50-18,130,depth_duration_stimuli/002414_2014-06-28_20-24-58_260595134347_rgbf000067-resize_4/002414_2014-06-28_20-24-58_260595134347_rgbf000067-resize_4-target.png,250,4.363,8.0,3997,250,meters,jsons/v1_VE250_randls_69.json,1471482,1956847,32,Man
130,554405,DepthScenes,duration_manipulation_targetAtFixation,jsons/v1_VE250_randls_69.json,http://54.235.29.9/FacialAge/BNav_EC2/DepthDuration/v2_depth_duration_MTurk/v2_DepthDuration_HTML.html#144,144,1366,657,1366,768,9-19-2022,16-50-18,131,depth_duration_stimuli/001016_2014-06-09_16-16-10_260595134347_rgbf000112-resize_5/001016_2014-06-09_16-16-10_260595134347_rgbf000112-resize_5-target.png,250,1.6565,5.0,5937,248,meters,jsons/v1_VE250_randls_69.json,1471482,1956847,32,Man
131,554405,DepthScenes,duration_manipulation_targetAtFixation,jsons/v1_VE250_randls_69.json,http://54.235.29.9/FacialAge/BNav_EC2/DepthDuration/v2_depth_duration_MTurk/v2_DepthDuration_HTML.html#144,144,1366,657,1366,768,9-19-2022,16-50-18,132,depth_duration_stimuli/002340_2014-06-28_20-05-46_260595134347_rgbf000113-resize_0/002340_2014-06-28_20-05-46_260595134347_rgbf000113-resize_0-target.png,250,2.4735,7.0,4772,255,meters,jsons/v1_VE250_randls_69.json,1471482,1956847,32,Man
132,554405,DepthScenes,duration_manipulation_targetAtFixation,jsons/v1_VE250_randls_69.json,http://54.235.29.9/FacialAge/BNav_EC2/DepthDuration/v2_depth_duration_MTurk/v2_DepthDuration_HTML.html#144,144,1366,657,1366,768,9-19-2022,16-50-18,133,depth_duration_stimuli/002905_2014-06-03_18-04-43_094959634447_rgbf000151-resize_2/002905_2014-06-03_18-04-43_094959634447_rgbf000151-resize_2-target.png,250,2.0295,4.0,5289,249,meters,jsons/v1_VE250_randls_69.json,1471482,1956847,32,Man
133,554405,DepthScenes,duration_manipulation_targetAtFixation,jsons/v1_VE250_randls_69.json,http://54.235.29.9/FacialAge/BNav_EC2/DepthDuration/v2_depth_duration_MTurk/v2_DepthDuration_HTML.html#144,144,1366,657,1366,768,9-19-2022,16-50-18,134,depth_duration_stimuli/003423_2014-05-21_10-23-26_094959634447_rgbf002665-resize_2/003423_2014-05-21_10-23-26_094959634447_rgbf002665-resize_2-target.png,250,3.2575,9.0,2691,250,meters,jsons/v1_VE250_randls_69.json,1471482,1956847,32,Man
134,554405,DepthScenes,duration_manipulation_targetAtFixation,jsons/v1_VE250_randls_69.json,http://54.235.29.9/FacialAge/BNav_EC2/DepthDuration/v2_depth_duration_MTurk/v2_DepthDuration_HTML.html#144,144,1366,657,1366,768,9-19-2022,16-50-18,135,depth_duration_stimuli/002072_2014-06-24_21-48-06_260595134347_rgbf000115-resize_0/002072_2014-06-24_21-48-06_260595134347_rgbf000115-resize-original.jpg,250,4.702,0.0,3052,250,meters,jsons/v1_VE250_randls_69.json,1471482,1956847,32,Man
135,554405,DepthScenes,duration_manipulation_targetAtFixation,jsons/v1_VE250_randls_69.json,http://54.235.29.9/FacialAge/BNav_EC2/DepthDuration/v2_depth_duration_MTurk/v2_DepthDuration_HTML.html#144,144,1366,657,1366,768,9-19-2022,16-50-18,136,depth_duration_stimuli/001417_2014-06-19_16-25-36_260595134347_rgbf000115-resize_5/001417_2014-06-19_16-25-36_260595134347_rgbf000115-resize_5-target.png,250,4.6255,8.0,3379,250,meters,jsons/v1_VE250_randls_69.json,1471482,1956847,32,Man
136,554405,DepthScenes,duration_manipulation_targetAtFixation,jsons/v1_VE250_randls_69.json,http://54.235.29.9/FacialAge/BNav_EC2/DepthDuration/v2_depth_duration_MTurk/v2_DepthDuration_HTML.html#144,144,1366,657,1366,768,9-19-2022,16-50-18,137,depth_duration_stimuli/003081_2014-06-15_15-19-16_094959634447_rgbf000150-resize_1/003081_2014-06-15_15-19-16_094959634447_rgbf000150-resize_1-target.png,250,3.9125,8.0,3730,250,meters,jsons/v1_VE250_randls_69.json,1471482,1956847,32,Man
137,554405,DepthScenes,duration_manipulation_targetAtFixation,jsons/v1_VE250_randls_69.json,http://54.235.29.9/FacialAge/BNav_EC2/DepthDuration/v2_depth_duration_MTurk/v2_DepthDuration_HTML.html#144,144,1366,657,1366,768,9-19-2022,16-50-18,138,depth_duration_stimuli/001133_2014-06-17_14-49-16_260595134347_rgbf000100-resize_0/001133_2014-06-17_14-49-16_260595134347_rgbf000100-resize_0-target.png,250,4.2115,9.0,2801,250,meters,jsons/v1_VE250_randls_69.json,1471482,1956847,32,Man
138,554405,DepthScenes,duration_manipulation_targetAtFixation,jsons/v1_VE250_randls_69.json,http://54.235.29.9/FacialAge/BNav_EC2/DepthDuration/v2_depth_duration_MTurk/v2_DepthDuration_HTML.html#144,144,1366,657,1366,768,9-19-2022,16-50-18,139,depth_duration_stimuli/001132_2014-06-17_14-48-54_260595134347_rgbf000100-resize_2/001132_2014-06-17_14-48-54_260595134347_rgbf000100-resize_2-target.png,250,3.753,8.0,2610,249,meters,jsons/v1_VE250_randls_69.json,1471482,1956847,32,Man
139,554405,DepthScenes,duration_manipulation_targetAtFixation,jsons/v1_VE250_randls_69.json,http://54.235.29.9/FacialAge/BNav_EC2/DepthDuration/v2_depth_duration_MTurk/v2_DepthDuration_HTML.html#144,144,1366,657,1366,768,9-19-2022,16-50-18,140,depth_duration_stimuli/003292_2014-05-14_21-53-49_094959634447_rgbf000100-resize_2/003292_2014-05-14_21-53-49_094959634447_rgbf000100-resize_2-target.png,250,3.4815,7.0,2443,251,meters,jsons/v1_VE250_randls_69.json,1471482,1956847,32,Man
140,554405,DepthScenes,duration_manipulation_targetAtFixation,jsons/v1_VE250_randls_69.json,http://54.235.29.9/FacialAge/BNav_EC2/DepthDuration/v2_depth_duration_MTurk/v2_DepthDuration_HTML.html#144,144,1366,657,1366,768,9-19-2022,16-50-18,141,depth_duration_stimuli/002639_2014-06-24_14-51-37_094959634447_rgbf000074-resize_4/002639_2014-06-24_14-51-37_094959634447_rgbf000074-resize_4-target.png,250,4.0375,9.0,2569,249,meters,jsons/v1_VE250_randls_69.json,1471482,1956847,32,Man
141,554405,DepthScenes,duration_manipulation_targetAtFixation,jsons/v1_VE250_randls_69.json,http://54.235.29.9/FacialAge/BNav_EC2/DepthDuration/v2_depth_duration_MTurk/v2_DepthDuration_HTML.html#144,144,1366,657,1366,768,9-19-2022,16-50-18,142,depth_duration_stimuli/000736_2014-06-08_18-24-15_260595134347_rgbf000206-resize_3/000736_2014-06-08_18-24-15_260595134347_rgbf000206-resize_3-target.png,250,3.515,8.0,2795,250,meters,jsons/v1_VE250_randls_69.json,1471482,1956847,32,Man
142,554405,DepthScenes,duration_manipulation_targetAtFixation,jsons/v1_VE250_randls_69.json,http://54.235.29.9/FacialAge/BNav_EC2/DepthDuration/v2_depth_duration_MTurk/v2_DepthDuration_HTML.html#144,144,1366,657,1366,768,9-19-2022,16-50-18,143,depth_duration_stimuli/000137_2014-05-20_17-04-49_260595134347_rgbf000120-resize_1/000137_2014-05-20_17-04-49_260595134347_rgbf000120-resize_1-target.png,250,3.786,8.0,2788,256,meters,jsons/v1_VE250_randls_69.json,1471482,1956847,32,Man
143,554405,DepthScenes,duration_manipulation_targetAtFixation,jsons/v1_VE250_randls_69.json,http://54.235.29.9/FacialAge/BNav_EC2/DepthDuration/v2_depth_duration_MTurk/v2_DepthDuration_HTML.html#144,144,1366,657,1366,768,9-19-2022,16-50-18,144,depth_duration_stimuli/002043_2014-06-24_20-29-38_260595134347_rgbf000039-resize_4/002043_2014-06-24_20-29-38_260595134347_rgbf000039-resize_4-target.png,250,2.8435,8.0,2436,251,meters,jsons/v1_VE250_randls_69.json,1471482,1956847,32,Man
144,554405,DepthScenes,duration_manipulation_targetAtFixation,jsons/v1_VE250_randls_69.json,http://54.235.29.9/FacialAge/BNav_EC2/DepthDuration/v2_depth_duration_MTurk/v2_DepthDuration_HTML.html#144,144,1366,657,1366,768,9-19-2022,16-50-18,145,depth_duration_stimuli/003048_2014-06-15_13-49-43_094959634447_rgbf000150-resize_1/003048_2014-06-15_13-49-43_094959634447_rgbf000150-resize_1-target.png,250,4.0035,9.0,2400,249,meters,jsons/v1_VE250_randls_69.json,1471482,1956847,32,Man
145,554405,DepthScenes,duration_manipulation_targetAtFixation,jsons/v1_VE250_randls_69.json,http://54.235.29.9/FacialAge/BNav_EC2/DepthDuration/v2_depth_duration_MTurk/v2_DepthDuration_HTML.html#144,144,1366,657,1366,768,9-19-2022,16-50-18,146,depth_duration_stimuli/001498_2014-06-19_17-45-14_260595134347_rgbf000129-resize_4/001498_2014-06-19_17-45-14_260595134347_rgbf000129-resize-original.jpg,250,1.4075,0.0,3210,249,meters,jsons/v1_VE250_randls_69.json,1471482,1956847,32,Man
146,554405,DepthScenes,duration_manipulation_targetAtFixation,jsons/v1_VE250_randls_69.json,http://54.235.29.9/FacialAge/BNav_EC2/DepthDuration/v2_depth_duration_MTurk/v2_DepthDuration_HTML.html#144,144,1366,657,1366,768,9-19-2022,16-50-18,147,depth_duration_stimuli/002788_2014-06-22_19-36-03_094959634447_rgbf000088-resize_2/002788_2014-06-22_19-36-03_094959634447_rgbf000088-resize_2-target.png,250,1.6465,7.0,2904,233,meters,jsons/v1_VE250_randls_69.json,1471482,1956847,32,Man
147,554405,DepthScenes,duration_manipulation_targetAtFixation,jsons/v1_VE250_randls_69.json,http://54.235.29.9/FacialAge/BNav_EC2/DepthDuration/v2_depth_duration_MTurk/v2_DepthDuration_HTML.html#144,144,1366,657,1366,768,9-19-2022,16-50-18,148,depth_duration_stimuli/000749_2014-06-08_21-55-06_260595134347_rgbf000070-resize_2/000749_2014-06-08_21-55-06_260595134347_rgbf000070-resize_2-target.png,250,2.331,7.0,2177,250,meters,jsons/v1_VE250_randls_69.json,1471482,1956847,32,Man
148,554405,DepthScenes,duration_manipulation_targetAtFixation,jsons/v1_VE250_randls_69.json,http://54.235.29.9/FacialAge/BNav_EC2/DepthDuration/v2_depth_duration_MTurk/v2_DepthDuration_HTML.html#144,144,1366,657,1366,768,9-19-2022,16-50-18,149,depth_duration_stimuli/002663_2014-06-13_15-50-26_094959634447_rgbf000075-resize_1/002663_2014-06-13_15-50-26_094959634447_rgbf000075-resize_1-target.png,250,4.7495,13.0,3198,249,meters,jsons/v1_VE250_randls_69.json,1471482,1956847,32,Man
149,554405,DepthScenes,duration_manipulation_targetAtFixation,jsons/v1_VE250_randls_69.json,http://54.235.29.9/FacialAge/BNav_EC2/DepthDuration/v2_depth_duration_MTurk/v2_DepthDuration_HTML.html#144,144,1366,657,1366,768,9-19-2022,16-50-18,150,depth_duration_stimuli/000409_2014-06-04_19-23-33_260595134347_rgbf000067-resize_0/000409_2014-06-04_19-23-33_260595134347_rgbf000067-resize_0-target.png,250,3.7335,10.0,3855,251,meters,jsons/v1_VE250_randls_69.json,1471482,1956847,32,Man
150,554405,DepthScenes,duration_manipulation_targetAtFixation,jsons/v1_VE250_randls_69.json,http://54.235.29.9/FacialAge/BNav_EC2/DepthDuration/v2_depth_duration_MTurk/v2_DepthDuration_HTML.html#144,144,1366,657,1366,768,9-19-2022,16-50-18,151,depth_duration_stimuli/003534_2014-05-22_15-06-10_094959634447_rgbf000102-resize_4/003534_2014-05-22_15-06-10_094959634447_rgbf000102-resize_4-target.png,250,1.426,3.0,2621,250,meters,jsons/v1_VE250_randls_69.json,1471482,1956847,32,Man
151,554405,DepthScenes,duration_manipulation_targetAtFixation,jsons/v1_VE250_randls_69.json,http://54.235.29.9/FacialAge/BNav_EC2/DepthDuration/v2_depth_duration_MTurk/v2_DepthDuration_HTML.html#144,144,1366,657,1366,768,9-19-2022,16-50-18,152,depth_duration_stimuli/002637_2014-06-24_14-51-13_094959634447_rgbf000066-resize_4/002637_2014-06-24_14-51-13_094959634447_rgbf000066-resize_4-target.png,250,1.9955,5.0,2017,248,meters,jsons/v1_VE250_randls_69.json,1471482,1956847,32,Man
152,554405,DepthScenes,duration_manipulation_targetAtFixation,jsons/v1_VE250_randls_69.json,http://54.235.29.9/FacialAge/BNav_EC2/DepthDuration/v2_depth_duration_MTurk/v2_DepthDuration_HTML.html#144,144,1366,657,1366,768,9-19-2022,16-50-18,153,depth_duration_stimuli/001167_2014-06-17_15-38-07_260595134347_rgbf000108-resize_0/001167_2014-06-17_15-38-07_260595134347_rgbf000108-resize_0-target.png,250,1.8505,3.0,5058,249,meters,jsons/v1_VE250_randls_69.json,1471482,1956847,32,Man
153,554405,DepthScenes,duration_manipulation_targetAtFixation,jsons/v1_VE250_randls_69.json,http://54.235.29.9/FacialAge/BNav_EC2/DepthDuration/v2_depth_duration_MTurk/v2_DepthDuration_HTML.html#144,144,1366,657,1366,768,9-19-2022,16-50-18,154,depth_duration_stimuli/003587_2014-05-23_16-48-02_094959634447_rgbf002384-resize_2/003587_2014-05-23_16-48-02_094959634447_rgbf002384-resize_2-target.png,250,1.357,3.0,4932,250,meters,jsons/v1_VE250_randls_69.json,1471482,1956847,32,Man
154,554405,DepthScenes,duration_manipulation_targetAtFixation,jsons/v1_VE250_randls_69.json,http://54.235.29.9/FacialAge/BNav_EC2/DepthDuration/v2_depth_duration_MTurk/v2_DepthDuration_HTML.html#144,144,1366,657,1366,768,9-19-2022,16-50-18,155,depth_duration_stimuli/000414_2014-06-04_19-49-13_260595134347_rgbf000044-resize_0/000414_2014-06-04_19-49-13_260595134347_rgbf000044-resize_0-target.png,250,4.329,5.0,16903,597,meters,jsons/v1_VE250_randls_69.json,1471482,1956847,32,Man
155,554405,DepthScenes,duration_manipulation_targetAtFixation,jsons/v1_VE250_randls_69.json,http://54.235.29.9/FacialAge/BNav_EC2/DepthDuration/v2_depth_duration_MTurk/v2_DepthDuration_HTML.html#144,144,1366,657,1366,768,9-19-2022,16-50-18,156,depth_duration_stimuli/003129_2014-05-12_10-48-10_094959634447_rgbf000100-resize_0/003129_2014-05-12_10-48-10_094959634447_rgbf000100-resize_0-target.png,250,4.9305,15.0,4998,250,meters,jsons/v1_VE250_randls_69.json,1471482,1956847,32,Man
156,554405,DepthScenes,duration_manipulation_targetAtFixation,jsons/v1_VE250_randls_69.json,http://54.235.29.9/FacialAge/BNav_EC2/DepthDuration/v2_depth_duration_MTurk/v2_DepthDuration_HTML.html#144,144,1366,657,1366,768,9-19-2022,16-50-18,157,depth_duration_stimuli/001199_2014-06-17_16-03-48_260595134347_rgbf000077-resize_0/001199_2014-06-17_16-03-48_260595134347_rgbf000077-resize_0-target.png,250,3.4375,10.0,3565,250,meters,jsons/v1_VE250_randls_69.json,1471482,1956847,32,Man
157,554405,DepthScenes,duration_manipulation_targetAtFixation,jsons/v1_VE250_randls_69.json,http://54.235.29.9/FacialAge/BNav_EC2/DepthDuration/v2_depth_duration_MTurk/v2_DepthDuration_HTML.html#144,144,1366,657,1366,768,9-19-2022,16-50-18,158,depth_duration_stimuli/000502_2014-06-08_23-02-32_260595134347_rgbf000063-resize_4/000502_2014-06-08_23-02-32_260595134347_rgbf000063-resize_4-target.png,250,2.431,0.0,3132,250,meters,jsons/v1_VE250_randls_69.json,1471482,1956847,32,Man
158,554405,DepthScenes,duration_manipulation_targetAtFixation,jsons/v1_VE250_randls_69.json,http://54.235.29.9/FacialAge/BNav_EC2/DepthDuration/v2_depth_duration_MTurk/v2_DepthDuration_HTML.html#144,144,1366,657,1366,768,9-19-2022,16-50-18,159,depth_duration_stimuli/000447_2014-06-08_16-15-46_260595134347_rgbf000130-resize_1/000447_2014-06-08_16-15-46_260595134347_rgbf000130-resize_1-target.png,250,4.479,6.0,3472,249,meters,jsons/v1_VE250_randls_69.json,1471482,1956847,32,Man
159,554405,DepthScenes,duration_manipulation_targetAtFixation,jsons/v1_VE250_randls_69.json,http://54.235.29.9/FacialAge/BNav_EC2/DepthDuration/v2_depth_duration_MTurk/v2_DepthDuration_HTML.html#144,144,1366,657,1366,768,9-19-2022,16-50-18,160,depth_duration_stimuli/001447_2014-06-19_17-00-32_260595134347_rgbf000082-resize_5/001447_2014-06-19_17-00-32_260595134347_rgbf000082-resize_5-target.png,250,4.13775,5.0,69981,251,meters,jsons/v1_VE250_randls_69.json,1471482,1956847,32,Man
160,554405,DepthScenes,duration_manipulation_targetAtFixation,jsons/v1_VE250_randls_69.json,http://54.235.29.9/FacialAge/BNav_EC2/DepthDuration/v2_depth_duration_MTurk/v2_DepthDuration_HTML.html#144,144,1366,657,1366,768,9-19-2022,16-50-18,161,depth_duration_stimuli/002213_2014-06-28_18-37-58_260595134347_rgbf000055-resize_1/002213_2014-06-28_18-37-58_260595134347_rgbf000055-resize_1-target.png,250,3.62,7.0,37662,249,meters,jsons/v1_VE250_randls_69.json,1471482,1956847,32,Man
161,554405,DepthScenes,duration_manipulation_targetAtFixation,jsons/v1_VE250_randls_69.json,http://54.235.29.9/FacialAge/BNav_EC2/DepthDuration/v2_depth_duration_MTurk/v2_DepthDuration_HTML.html#144,144,1366,657,1366,768,9-19-2022,16-50-18,162,depth_duration_stimuli/000691_2014-06-08_13-08-50_260595134347_rgbf000132-resize_3/000691_2014-06-08_13-08-50_260595134347_rgbf000132-resize_3-target.png,250,4.1530000000000005,5.0,9777,249,meters,jsons/v1_VE250_randls_69.json,1471482,1956847,32,Man
162,554405,DepthScenes,duration_manipulation_targetAtFixation,jsons/v1_VE250_randls_69.json,http://54.235.29.9/FacialAge/BNav_EC2/DepthDuration/v2_depth_duration_MTurk/v2_DepthDuration_HTML.html#144,144,1366,657,1366,768,9-19-2022,16-50-18,163,depth_duration_stimuli/002445_2014-06-28_20-32-16_260595134347_rgbf000029-resize_4/002445_2014-06-28_20-32-16_260595134347_rgbf000029-resize_4-target.png,250,2.5315,4.0,4970,254,meters,jsons/v1_VE250_randls_69.json,1471482,1956847,32,Man
163,554405,DepthScenes,duration_manipulation_targetAtFixation,jsons/v1_VE250_randls_69.json,http://54.235.29.9/FacialAge/BNav_EC2/DepthDuration/v2_depth_duration_MTurk/v2_DepthDuration_HTML.html#144,144,1366,657,1366,768,9-19-2022,16-50-18,164,depth_duration_stimuli/000780_2014-06-08_22-28-29_260595134347_rgbf000126-resize_1/000780_2014-06-08_22-28-29_260595134347_rgbf000126-resize_1-target.png,250,3.3825,5.0,31164,250,meters,jsons/v1_VE250_randls_69.json,1471482,1956847,32,Man
