,subjID,experimentName,versionName,sequenceName,url,selected_row,windowWidth,windowHeight,screenWidth,screenHeight,startDate,startTime,trial,stimulus,duration,actual_depth,depth_estimate,trial_RT,log_sceneDuration,unitSelection,seq_filepath,experimentTime,totalTime,age,gender
0,555092,DepthScenes,duration_manipulation_targetAtFixation,jsons/VE125_randls_28.json,http://54.235.29.9/FacialAge/BNav_EC2/DepthDuration/v2_depth_duration_MTurk/v2_DepthDuration_HTML.html#71,71,1707,781,1366,768,8-21-2022,11-46-26,1,depth_duration_stimuli/001570_2014-06-20_17-21-09_260595134347_rgbf000135-resize_4/001570_2014-06-20_17-21-09_260595134347_rgbf000135-resize_4-target.png,125,4.467,25,4048,124,meters,jsons/VE125_randls_28.json,1823965,2170860,25,Man
1,555092,DepthScenes,duration_manipulation_targetAtFixation,jsons/VE125_randls_28.json,http://54.235.29.9/FacialAge/BNav_EC2/DepthDuration/v2_depth_duration_MTurk/v2_DepthDuration_HTML.html#71,71,1707,781,1366,768,8-21-2022,11-46-26,2,depth_duration_stimuli/001392_2014-06-19_16-07-59_260595134347_rgbf000046-resize_1/001392_2014-06-19_16-07-59_260595134347_rgbf000046-resize_1-target.png,125,4.135,20,3099,125,meters,jsons/VE125_randls_28.json,1823965,2170860,25,Man
2,555092,DepthScenes,duration_manipulation_targetAtFixation,jsons/VE125_randls_28.json,http://54.235.29.9/FacialAge/BNav_EC2/DepthDuration/v2_depth_duration_MTurk/v2_DepthDuration_HTML.html#71,71,1707,781,1366,768,8-21-2022,11-46-26,3,depth_duration_stimuli/002570_2014-06-24_13-59-54_094959634447_rgbf000059-resize_0/002570_2014-06-24_13-59-54_094959634447_rgbf000059-resize_0-target.png,125,4.037,15,4161,125,meters,jsons/VE125_randls_28.json,1823965,2170860,25,Man
3,555092,DepthScenes,duration_manipulation_targetAtFixation,jsons/VE125_randls_28.json,http://54.235.29.9/FacialAge/BNav_EC2/DepthDuration/v2_depth_duration_MTurk/v2_DepthDuration_HTML.html#71,71,1707,781,1366,768,8-21-2022,11-46-26,4,depth_duration_stimuli/002467_2014-06-28_20-38-07_260595134347_rgbf000026-resize_2/002467_2014-06-28_20-38-07_260595134347_rgbf000026-resize_2-target.png,125,4.742,26,3387,126,meters,jsons/VE125_randls_28.json,1823965,2170860,25,Man
4,555092,DepthScenes,duration_manipulation_targetAtFixation,jsons/VE125_randls_28.json,http://54.235.29.9/FacialAge/BNav_EC2/DepthDuration/v2_depth_duration_MTurk/v2_DepthDuration_HTML.html#71,71,1707,781,1366,768,8-21-2022,11-46-26,5,depth_duration_stimuli/000773_2014-06-08_22-24-54_260595134347_rgbf000093-resize_1/000773_2014-06-08_22-24-54_260595134347_rgbf000093-resize_1-target.png,125,4.973,23,2978,124,meters,jsons/VE125_randls_28.json,1823965,2170860,25,Man
5,555092,DepthScenes,duration_manipulation_targetAtFixation,jsons/VE125_randls_28.json,http://54.235.29.9/FacialAge/BNav_EC2/DepthDuration/v2_depth_duration_MTurk/v2_DepthDuration_HTML.html#71,71,1707,781,1366,768,8-21-2022,11-46-26,6,depth_duration_stimuli/002414_2014-06-28_20-24-58_260595134347_rgbf000067-resize_4/002414_2014-06-28_20-24-58_260595134347_rgbf000067-resize_4-target.png,125,4.363,28,2691,124,meters,jsons/VE125_randls_28.json,1823965,2170860,25,Man
6,555092,DepthScenes,duration_manipulation_targetAtFixation,jsons/VE125_randls_28.json,http://54.235.29.9/FacialAge/BNav_EC2/DepthDuration/v2_depth_duration_MTurk/v2_DepthDuration_HTML.html#71,71,1707,781,1366,768,8-21-2022,11-46-26,7,depth_duration_stimuli/002509_2014-06-24_13-19-22_094959634447_rgbf000077-resize_0/002509_2014-06-24_13-19-22_094959634447_rgbf000077-resize_0-target.png,125,1.3065,16,2898,124,meters,jsons/VE125_randls_28.json,1823965,2170860,25,Man
7,555092,DepthScenes,duration_manipulation_targetAtFixation,jsons/VE125_randls_28.json,http://54.235.29.9/FacialAge/BNav_EC2/DepthDuration/v2_depth_duration_MTurk/v2_DepthDuration_HTML.html#71,71,1707,781,1366,768,8-21-2022,11-46-26,8,depth_duration_stimuli/003338_2014-05-20_11-01-23_094959634447_rgbf000051-resize_6/003338_2014-05-20_11-01-23_094959634447_rgbf000051-resize_6-target.png,125,1.693,25,2544,124,meters,jsons/VE125_randls_28.json,1823965,2170860,25,Man
8,555092,DepthScenes,duration_manipulation_targetAtFixation,jsons/VE125_randls_28.json,http://54.235.29.9/FacialAge/BNav_EC2/DepthDuration/v2_depth_duration_MTurk/v2_DepthDuration_HTML.html#71,71,1707,781,1366,768,8-21-2022,11-46-26,9,depth_duration_stimuli/000522_2014-06-08_13-35-06_260595134347_rgbf000244-resize_1/000522_2014-06-08_13-35-06_260595134347_rgbf000244-resize_1-target.png,125,2.3715,20,2717,124,meters,jsons/VE125_randls_28.json,1823965,2170860,25,Man
9,555092,DepthScenes,duration_manipulation_targetAtFixation,jsons/VE125_randls_28.json,http://54.235.29.9/FacialAge/BNav_EC2/DepthDuration/v2_depth_duration_MTurk/v2_DepthDuration_HTML.html#71,71,1707,781,1366,768,8-21-2022,11-46-26,10,depth_duration_stimuli/002949_2014-06-26_15-57-42_094959634447_rgbf000079-resize_1/002949_2014-06-26_15-57-42_094959634447_rgbf000079-resize_1-target.png,125,1.8915,26,2606,124,meters,jsons/VE125_randls_28.json,1823965,2170860,25,Man
10,555092,DepthScenes,duration_manipulation_targetAtFixation,jsons/VE125_randls_28.json,http://54.235.29.9/FacialAge/BNav_EC2/DepthDuration/v2_depth_duration_MTurk/v2_DepthDuration_HTML.html#71,71,1707,781,1366,768,8-21-2022,11-46-26,11,depth_duration_stimuli/000692_2014-06-08_13-09-42_260595134347_rgbf000199-resize_2/000692_2014-06-08_13-09-42_260595134347_rgbf000199-resize_2-target.png,125,3.661,28,2546,125,meters,jsons/VE125_randls_28.json,1823965,2170860,25,Man
11,555092,DepthScenes,duration_manipulation_targetAtFixation,jsons/VE125_randls_28.json,http://54.235.29.9/FacialAge/BNav_EC2/DepthDuration/v2_depth_duration_MTurk/v2_DepthDuration_HTML.html#71,71,1707,781,1366,768,8-21-2022,11-46-26,12,depth_duration_stimuli/001094_2014-06-15_17-36-00_260595134347_rgbf000205-resize_0/001094_2014-06-15_17-36-00_260595134347_rgbf000205-resize_0-target.png,125,4.2175,0,2364,124,meters,jsons/VE125_randls_28.json,1823965,2170860,25,Man
12,555092,DepthScenes,duration_manipulation_targetAtFixation,jsons/VE125_randls_28.json,http://54.235.29.9/FacialAge/BNav_EC2/DepthDuration/v2_depth_duration_MTurk/v2_DepthDuration_HTML.html#71,71,1707,781,1366,768,8-21-2022,11-46-26,13,depth_duration_stimuli/000569_2014-06-09_22-51-47_260595134347_rgbf000141-resize_3/000569_2014-06-09_22-51-47_260595134347_rgbf000141-resize-original.jpg,125,4.512,20,175672,124,meters,jsons/VE125_randls_28.json,1823965,2170860,25,Man
13,555092,DepthScenes,duration_manipulation_targetAtFixation,jsons/VE125_randls_28.json,http://54.235.29.9/FacialAge/BNav_EC2/DepthDuration/v2_depth_duration_MTurk/v2_DepthDuration_HTML.html#71,71,1707,781,1366,768,8-21-2022,11-46-26,14,depth_duration_stimuli/003621_2014-05-23_18-06-08_094959634447_rgbf000101-resize_1/003621_2014-05-23_18-06-08_094959634447_rgbf000101-resize_1-target.png,125,3.9835,25,2723,124,meters,jsons/VE125_randls_28.json,1823965,2170860,25,Man
14,555092,DepthScenes,duration_manipulation_targetAtFixation,jsons/VE125_randls_28.json,http://54.235.29.9/FacialAge/BNav_EC2/DepthDuration/v2_depth_duration_MTurk/v2_DepthDuration_HTML.html#71,71,1707,781,1366,768,8-21-2022,11-46-26,15,depth_duration_stimuli/001584_2014-06-20_11-07-43_260595134347_rgbf000002-resize_1/001584_2014-06-20_11-07-43_260595134347_rgbf000002-resize_1-target.png,125,3.53,20,2839,125,meters,jsons/VE125_randls_28.json,1823965,2170860,25,Man
15,555092,DepthScenes,duration_manipulation_targetAtFixation,jsons/VE125_randls_28.json,http://54.235.29.9/FacialAge/BNav_EC2/DepthDuration/v2_depth_duration_MTurk/v2_DepthDuration_HTML.html#71,71,1707,781,1366,768,8-21-2022,11-46-26,16,depth_duration_stimuli/002788_2014-06-22_19-36-03_094959634447_rgbf000088-resize_2/002788_2014-06-22_19-36-03_094959634447_rgbf000088-resize_2-target.png,125,1.6465,0,1940,125,meters,jsons/VE125_randls_28.json,1823965,2170860,25,Man
16,555092,DepthScenes,duration_manipulation_targetAtFixation,jsons/VE125_randls_28.json,http://54.235.29.9/FacialAge/BNav_EC2/DepthDuration/v2_depth_duration_MTurk/v2_DepthDuration_HTML.html#71,71,1707,781,1366,768,8-21-2022,11-46-26,17,depth_duration_stimuli/000749_2014-06-08_21-55-06_260595134347_rgbf000070-resize_2/000749_2014-06-08_21-55-06_260595134347_rgbf000070-resize_2-target.png,125,2.331,15,2796,123,meters,jsons/VE125_randls_28.json,1823965,2170860,25,Man
17,555092,DepthScenes,duration_manipulation_targetAtFixation,jsons/VE125_randls_28.json,http://54.235.29.9/FacialAge/BNav_EC2/DepthDuration/v2_depth_duration_MTurk/v2_DepthDuration_HTML.html#71,71,1707,781,1366,768,8-21-2022,11-46-26,18,depth_duration_stimuli/000739_2014-06-08_18-45-58_260595134347_rgbf000068-resize_1/000739_2014-06-08_18-45-58_260595134347_rgbf000068-resize_1-target.png,125,3.534,20,2572,125,meters,jsons/VE125_randls_28.json,1823965,2170860,25,Man
18,555092,DepthScenes,duration_manipulation_targetAtFixation,jsons/VE125_randls_28.json,http://54.235.29.9/FacialAge/BNav_EC2/DepthDuration/v2_depth_duration_MTurk/v2_DepthDuration_HTML.html#71,71,1707,781,1366,768,8-21-2022,11-46-26,19,depth_duration_stimuli/000734_2014-06-08_17-39-11_260595134347_rgbf000128-resize_2/000734_2014-06-08_17-39-11_260595134347_rgbf000128-resize_2-target.png,125,4.098,15,2881,123,meters,jsons/VE125_randls_28.json,1823965,2170860,25,Man
19,555092,DepthScenes,duration_manipulation_targetAtFixation,jsons/VE125_randls_28.json,http://54.235.29.9/FacialAge/BNav_EC2/DepthDuration/v2_depth_duration_MTurk/v2_DepthDuration_HTML.html#71,71,1707,781,1366,768,8-21-2022,11-46-26,20,depth_duration_stimuli/000447_2014-06-08_16-15-46_260595134347_rgbf000130-resize_1/000447_2014-06-08_16-15-46_260595134347_rgbf000130-resize_1-target.png,125,4.479,26,2771,126,meters,jsons/VE125_randls_28.json,1823965,2170860,25,Man
20,555092,DepthScenes,duration_manipulation_targetAtFixation,jsons/VE125_randls_28.json,http://54.235.29.9/FacialAge/BNav_EC2/DepthDuration/v2_depth_duration_MTurk/v2_DepthDuration_HTML.html#71,71,1707,781,1366,768,8-21-2022,11-46-26,21,depth_duration_stimuli/001447_2014-06-19_17-00-32_260595134347_rgbf000082-resize_5/001447_2014-06-19_17-00-32_260595134347_rgbf000082-resize_5-target.png,125,4.13775,20,38193,124,meters,jsons/VE125_randls_28.json,1823965,2170860,25,Man
21,555092,DepthScenes,duration_manipulation_targetAtFixation,jsons/VE125_randls_28.json,http://54.235.29.9/FacialAge/BNav_EC2/DepthDuration/v2_depth_duration_MTurk/v2_DepthDuration_HTML.html#71,71,1707,781,1366,768,8-21-2022,11-46-26,22,depth_duration_stimuli/001066_2014-06-08_22-03-20_260595134347_rgbf000066-resize_4/001066_2014-06-08_22-03-20_260595134347_rgbf000066-resize_4-target.png,125,4.2330000000000005,25,3215,123,meters,jsons/VE125_randls_28.json,1823965,2170860,25,Man
22,555092,DepthScenes,duration_manipulation_targetAtFixation,jsons/VE125_randls_28.json,http://54.235.29.9/FacialAge/BNav_EC2/DepthDuration/v2_depth_duration_MTurk/v2_DepthDuration_HTML.html#71,71,1707,781,1366,768,8-21-2022,11-46-26,23,depth_duration_stimuli/000742_2014-06-08_18-48-09_260595134347_rgbf000164-resize_4/000742_2014-06-08_18-48-09_260595134347_rgbf000164-resize_4-target.png,125,4.632,36,3081,124,meters,jsons/VE125_randls_28.json,1823965,2170860,25,Man
23,555092,DepthScenes,duration_manipulation_targetAtFixation,jsons/VE125_randls_28.json,http://54.235.29.9/FacialAge/BNav_EC2/DepthDuration/v2_depth_duration_MTurk/v2_DepthDuration_HTML.html#71,71,1707,781,1366,768,8-21-2022,11-46-26,24,depth_duration_stimuli/000469_2014-06-09_19-42-10_260595134347_rgbf000081-resize_1/000469_2014-06-09_19-42-10_260595134347_rgbf000081-resize_1-target.png,125,1.652,28,3352,125,meters,jsons/VE125_randls_28.json,1823965,2170860,25,Man
24,555092,DepthScenes,duration_manipulation_targetAtFixation,jsons/VE125_randls_28.json,http://54.235.29.9/FacialAge/BNav_EC2/DepthDuration/v2_depth_duration_MTurk/v2_DepthDuration_HTML.html#71,71,1707,781,1366,768,8-21-2022,11-46-26,25,depth_duration_stimuli/000483_2014-06-09_20-41-45_260595134347_rgbf000116-resize_4/000483_2014-06-09_20-41-45_260595134347_rgbf000116-resize_4-target.png,125,1.337,16,3142,123,meters,jsons/VE125_randls_28.json,1823965,2170860,25,Man
25,555092,DepthScenes,duration_manipulation_targetAtFixation,jsons/VE125_randls_28.json,http://54.235.29.9/FacialAge/BNav_EC2/DepthDuration/v2_depth_duration_MTurk/v2_DepthDuration_HTML.html#71,71,1707,781,1366,768,8-21-2022,11-46-26,26,depth_duration_stimuli/001810_2014-06-26_20-51-35_260595134347_rgbf000040-resize_3/001810_2014-06-26_20-51-35_260595134347_rgbf000040-resize_3-target.png,125,2.2525,14,3385,124,meters,jsons/VE125_randls_28.json,1823965,2170860,25,Man
26,555092,DepthScenes,duration_manipulation_targetAtFixation,jsons/VE125_randls_28.json,http://54.235.29.9/FacialAge/BNav_EC2/DepthDuration/v2_depth_duration_MTurk/v2_DepthDuration_HTML.html#71,71,1707,781,1366,768,8-21-2022,11-46-26,27,depth_duration_stimuli/003010_2014-06-15_12-54-35_094959634447_rgbf000112-resize_0/003010_2014-06-15_12-54-35_094959634447_rgbf000112-resize_0-target.png,125,3.1185,29,3329,124,meters,jsons/VE125_randls_28.json,1823965,2170860,25,Man
27,555092,DepthScenes,duration_manipulation_targetAtFixation,jsons/VE125_randls_28.json,http://54.235.29.9/FacialAge/BNav_EC2/DepthDuration/v2_depth_duration_MTurk/v2_DepthDuration_HTML.html#71,71,1707,781,1366,768,8-21-2022,11-46-26,28,depth_duration_stimuli/001059_2014-06-08_21-53-27_260595134347_rgbf000061-resize_4/001059_2014-06-08_21-53-27_260595134347_rgbf000061-resize_4-target.png,125,2.4185,25,2929,124,meters,jsons/VE125_randls_28.json,1823965,2170860,25,Man
28,555092,DepthScenes,duration_manipulation_targetAtFixation,jsons/VE125_randls_28.json,http://54.235.29.9/FacialAge/BNav_EC2/DepthDuration/v2_depth_duration_MTurk/v2_DepthDuration_HTML.html#71,71,1707,781,1366,768,8-21-2022,11-46-26,29,depth_duration_stimuli/001032_2014-06-08_13-23-17_260595134347_rgbf000021-resize_3/001032_2014-06-08_13-23-17_260595134347_rgbf000021-resize_3-target.png,125,3.2725,17,3581,126,meters,jsons/VE125_randls_28.json,1823965,2170860,25,Man
29,555092,DepthScenes,duration_manipulation_targetAtFixation,jsons/VE125_randls_28.json,http://54.235.29.9/FacialAge/BNav_EC2/DepthDuration/v2_depth_duration_MTurk/v2_DepthDuration_HTML.html#71,71,1707,781,1366,768,8-21-2022,11-46-26,30,depth_duration_stimuli/000375_2014-06-08_11-17-29_260595134347_rgbf000133-resize_2/000375_2014-06-08_11-17-29_260595134347_rgbf000133-resize-original.jpg,125,4.718,18,51315,124,meters,jsons/VE125_randls_28.json,1823965,2170860,25,Man
30,555092,DepthScenes,duration_manipulation_targetAtFixation,jsons/VE125_randls_28.json,http://54.235.29.9/FacialAge/BNav_EC2/DepthDuration/v2_depth_duration_MTurk/v2_DepthDuration_HTML.html#71,71,1707,781,1366,768,8-21-2022,11-46-26,31,depth_duration_stimuli/000436_2014-06-09_22-25-11_260595134347_rgbf000137-resize_1/000436_2014-06-09_22-25-11_260595134347_rgbf000137-resize_1-target.png,125,4.0705,0,3610,124,meters,jsons/VE125_randls_28.json,1823965,2170860,25,Man
31,555092,DepthScenes,duration_manipulation_targetAtFixation,jsons/VE125_randls_28.json,http://54.235.29.9/FacialAge/BNav_EC2/DepthDuration/v2_depth_duration_MTurk/v2_DepthDuration_HTML.html#71,71,1707,781,1366,768,8-21-2022,11-46-26,32,depth_duration_stimuli/002444_2014-06-28_20-32-08_260595134347_rgbf000027-resize_0/002444_2014-06-28_20-32-08_260595134347_rgbf000027-resize_0-target.png,125,4.388999999999999,36,2561,124,meters,jsons/VE125_randls_28.json,1823965,2170860,25,Man
32,555092,DepthScenes,duration_manipulation_targetAtFixation,jsons/VE125_randls_28.json,http://54.235.29.9/FacialAge/BNav_EC2/DepthDuration/v2_depth_duration_MTurk/v2_DepthDuration_HTML.html#71,71,1707,781,1366,768,8-21-2022,11-46-26,33,depth_duration_stimuli/001175_2014-06-17_15-45-55_260595134347_rgbf000129-resize_4/001175_2014-06-17_15-45-55_260595134347_rgbf000129-resize_4-target.png,125,4.255,28,3519,125,meters,jsons/VE125_randls_28.json,1823965,2170860,25,Man
33,555092,DepthScenes,duration_manipulation_targetAtFixation,jsons/VE125_randls_28.json,http://54.235.29.9/FacialAge/BNav_EC2/DepthDuration/v2_depth_duration_MTurk/v2_DepthDuration_HTML.html#71,71,1707,781,1366,768,8-21-2022,11-46-26,34,depth_duration_stimuli/003490_2014-05-21_15-50-11_094959634447_rgbf000101-resize_3/003490_2014-05-21_15-50-11_094959634447_rgbf000101-resize_3-target.png,125,3.6445,0,2438,125,meters,jsons/VE125_randls_28.json,1823965,2170860,25,Man
34,555092,DepthScenes,duration_manipulation_targetAtFixation,jsons/VE125_randls_28.json,http://54.235.29.9/FacialAge/BNav_EC2/DepthDuration/v2_depth_duration_MTurk/v2_DepthDuration_HTML.html#71,71,1707,781,1366,768,8-21-2022,11-46-26,35,depth_duration_stimuli/000810_2014-06-08_17-20-01_260595134347_rgbf000105-resize_0/000810_2014-06-08_17-20-01_260595134347_rgbf000105-resize_0-target.png,125,1.4865,0,2329,124,meters,jsons/VE125_randls_28.json,1823965,2170860,25,Man
35,555092,DepthScenes,duration_manipulation_targetAtFixation,jsons/VE125_randls_28.json,http://54.235.29.9/FacialAge/BNav_EC2/DepthDuration/v2_depth_duration_MTurk/v2_DepthDuration_HTML.html#71,71,1707,781,1366,768,8-21-2022,11-46-26,36,depth_duration_stimuli/001214_2014-06-17_16-13-55_260595134347_rgbf000111-resize_0/001214_2014-06-17_16-13-55_260595134347_rgbf000111-resize_0-target.png,125,2.6505,26,2658,125,meters,jsons/VE125_randls_28.json,1823965,2170860,25,Man
36,555092,DepthScenes,duration_manipulation_targetAtFixation,jsons/VE125_randls_28.json,http://54.235.29.9/FacialAge/BNav_EC2/DepthDuration/v2_depth_duration_MTurk/v2_DepthDuration_HTML.html#71,71,1707,781,1366,768,8-21-2022,11-46-26,37,depth_duration_stimuli/001158_2014-06-17_15-32-16_260595134347_rgbf000138-resize_2/001158_2014-06-17_15-32-16_260595134347_rgbf000138-resize_2-target.png,125,4.5315,15,2708,125,meters,jsons/VE125_randls_28.json,1823965,2170860,25,Man
37,555092,DepthScenes,duration_manipulation_targetAtFixation,jsons/VE125_randls_28.json,http://54.235.29.9/FacialAge/BNav_EC2/DepthDuration/v2_depth_duration_MTurk/v2_DepthDuration_HTML.html#71,71,1707,781,1366,768,8-21-2022,11-46-26,38,depth_duration_stimuli/000556_2014-06-09_22-42-56_260595134347_rgbf000214-resize_1/000556_2014-06-09_22-42-56_260595134347_rgbf000214-resize_1-target.png,125,4.8415,25,2499,125,meters,jsons/VE125_randls_28.json,1823965,2170860,25,Man
38,555092,DepthScenes,duration_manipulation_targetAtFixation,jsons/VE125_randls_28.json,http://54.235.29.9/FacialAge/BNav_EC2/DepthDuration/v2_depth_duration_MTurk/v2_DepthDuration_HTML.html#71,71,1707,781,1366,768,8-21-2022,11-46-26,39,depth_duration_stimuli/000506_2014-06-08_23-21-00_260595134347_rgbf000070-resize_7/000506_2014-06-08_23-21-00_260595134347_rgbf000070-resize_7-target.png,125,4.0585,36,2363,124,meters,jsons/VE125_randls_28.json,1823965,2170860,25,Man
39,555092,DepthScenes,duration_manipulation_targetAtFixation,jsons/VE125_randls_28.json,http://54.235.29.9/FacialAge/BNav_EC2/DepthDuration/v2_depth_duration_MTurk/v2_DepthDuration_HTML.html#71,71,1707,781,1366,768,8-21-2022,11-46-26,40,depth_duration_stimuli/003079_2014-06-15_15-18-20_094959634447_rgbf000152-resize_8/003079_2014-06-15_15-18-20_094959634447_rgbf000152-resize_8-target.png,125,2.8775,15,2416,124,meters,jsons/VE125_randls_28.json,1823965,2170860,25,Man
40,555092,DepthScenes,duration_manipulation_targetAtFixation,jsons/VE125_randls_28.json,http://54.235.29.9/FacialAge/BNav_EC2/DepthDuration/v2_depth_duration_MTurk/v2_DepthDuration_HTML.html#71,71,1707,781,1366,768,8-21-2022,11-46-26,41,depth_duration_stimuli/001092_2014-06-15_17-34-58_260595134347_rgbf000171-resize_3/001092_2014-06-15_17-34-58_260595134347_rgbf000171-resize_3-target.png,125,2.6935,25,2403,125,meters,jsons/VE125_randls_28.json,1823965,2170860,25,Man
41,555092,DepthScenes,duration_manipulation_targetAtFixation,jsons/VE125_randls_28.json,http://54.235.29.9/FacialAge/BNav_EC2/DepthDuration/v2_depth_duration_MTurk/v2_DepthDuration_HTML.html#71,71,1707,781,1366,768,8-21-2022,11-46-26,42,depth_duration_stimuli/002545_2014-06-24_13-38-53_094959634447_rgbf000080-resize_4/002545_2014-06-24_13-38-53_094959634447_rgbf000080-resize_4-target.png,125,1.9205,20,94053,124,meters,jsons/VE125_randls_28.json,1823965,2170860,25,Man
42,555092,DepthScenes,duration_manipulation_targetAtFixation,jsons/VE125_randls_28.json,http://54.235.29.9/FacialAge/BNav_EC2/DepthDuration/v2_depth_duration_MTurk/v2_DepthDuration_HTML.html#71,71,1707,781,1366,768,8-21-2022,11-46-26,43,depth_duration_stimuli/002272_2014-06-28_18-53-56_260595134347_rgbf000067-resize_2/002272_2014-06-28_18-53-56_260595134347_rgbf000067-resize_2-target.png,125,1.138,25,4168,123,meters,jsons/VE125_randls_28.json,1823965,2170860,25,Man
43,555092,DepthScenes,duration_manipulation_targetAtFixation,jsons/VE125_randls_28.json,http://54.235.29.9/FacialAge/BNav_EC2/DepthDuration/v2_depth_duration_MTurk/v2_DepthDuration_HTML.html#71,71,1707,781,1366,768,8-21-2022,11-46-26,44,depth_duration_stimuli/001571_2014-06-20_17-21-32_260595134347_rgbf000089-resize_1/001571_2014-06-20_17-21-32_260595134347_rgbf000089-resize_1-target.png,125,1.86,2,40840,125,meters,jsons/VE125_randls_28.json,1823965,2170860,25,Man
44,555092,DepthScenes,duration_manipulation_targetAtFixation,jsons/VE125_randls_28.json,http://54.235.29.9/FacialAge/BNav_EC2/DepthDuration/v2_depth_duration_MTurk/v2_DepthDuration_HTML.html#71,71,1707,781,1366,768,8-21-2022,11-46-26,45,depth_duration_stimuli/000787_2014-06-08_22-33-53_260595134347_rgbf000175-resize_1/000787_2014-06-08_22-33-53_260595134347_rgbf000175-resize-original.jpg,125,4.784,0,2294,125,meters,jsons/VE125_randls_28.json,1823965,2170860,25,Man
45,555092,DepthScenes,duration_manipulation_targetAtFixation,jsons/VE125_randls_28.json,http://54.235.29.9/FacialAge/BNav_EC2/DepthDuration/v2_depth_duration_MTurk/v2_DepthDuration_HTML.html#71,71,1707,781,1366,768,8-21-2022,11-46-26,46,depth_duration_stimuli/002988_2014-06-15_12-24-20_094959634447_rgbf000150-resize_1/002988_2014-06-15_12-24-20_094959634447_rgbf000150-resize_1-target.png,125,4.7669999999999995,25,2479,123,meters,jsons/VE125_randls_28.json,1823965,2170860,25,Man
46,555092,DepthScenes,duration_manipulation_targetAtFixation,jsons/VE125_randls_28.json,http://54.235.29.9/FacialAge/BNav_EC2/DepthDuration/v2_depth_duration_MTurk/v2_DepthDuration_HTML.html#71,71,1707,781,1366,768,8-21-2022,11-46-26,47,depth_duration_stimuli/001052_2014-06-08_18-24-54_260595134347_rgbf000130-resize_1/001052_2014-06-08_18-24-54_260595134347_rgbf000130-resize_1-target.png,125,4.1045,26,2560,125,meters,jsons/VE125_randls_28.json,1823965,2170860,25,Man
47,555092,DepthScenes,duration_manipulation_targetAtFixation,jsons/VE125_randls_28.json,http://54.235.29.9/FacialAge/BNav_EC2/DepthDuration/v2_depth_duration_MTurk/v2_DepthDuration_HTML.html#71,71,1707,781,1366,768,8-21-2022,11-46-26,48,depth_duration_stimuli/002748_2014-06-22_19-07-22_094959634447_rgbf000078-resize_1/002748_2014-06-22_19-07-22_094959634447_rgbf000078-resize_1-target.png,125,4.6705,30,2576,123,meters,jsons/VE125_randls_28.json,1823965,2170860,25,Man
48,555092,DepthScenes,duration_manipulation_targetAtFixation,jsons/VE125_randls_28.json,http://54.235.29.9/FacialAge/BNav_EC2/DepthDuration/v2_depth_duration_MTurk/v2_DepthDuration_HTML.html#71,71,1707,781,1366,768,8-21-2022,11-46-26,49,depth_duration_stimuli/002995_2014-06-15_12-31-26_094959634447_rgbf000150-resize_1/002995_2014-06-15_12-31-26_094959634447_rgbf000150-resize_1-target.png,125,3.8360000000000003,25,5907,123,meters,jsons/VE125_randls_28.json,1823965,2170860,25,Man
49,555092,DepthScenes,duration_manipulation_targetAtFixation,jsons/VE125_randls_28.json,http://54.235.29.9/FacialAge/BNav_EC2/DepthDuration/v2_depth_duration_MTurk/v2_DepthDuration_HTML.html#71,71,1707,781,1366,768,8-21-2022,11-46-26,50,depth_duration_stimuli/002039_2014-06-24_20-22-38_260595134347_rgbf000084-resize_1/002039_2014-06-24_20-22-38_260595134347_rgbf000084-resize_1-target.png,125,4.408,0,2449,123,meters,jsons/VE125_randls_28.json,1823965,2170860,25,Man
50,555092,DepthScenes,duration_manipulation_targetAtFixation,jsons/VE125_randls_28.json,http://54.235.29.9/FacialAge/BNav_EC2/DepthDuration/v2_depth_duration_MTurk/v2_DepthDuration_HTML.html#71,71,1707,781,1366,768,8-21-2022,11-46-26,51,depth_duration_stimuli/002103_2014-06-25_20-00-40_260595134347_rgbf000049-resize_0/002103_2014-06-25_20-00-40_260595134347_rgbf000049-resize_0-target.png,125,4.105,25,96766,123,meters,jsons/VE125_randls_28.json,1823965,2170860,25,Man
51,555092,DepthScenes,duration_manipulation_targetAtFixation,jsons/VE125_randls_28.json,http://54.235.29.9/FacialAge/BNav_EC2/DepthDuration/v2_depth_duration_MTurk/v2_DepthDuration_HTML.html#71,71,1707,781,1366,768,8-21-2022,11-46-26,52,depth_duration_stimuli/002600_2014-06-24_14-27-04_094959634447_rgbf000074-resize_2/002600_2014-06-24_14-27-04_094959634447_rgbf000074-resize_2-target.png,125,2.7575,0,2194,124,meters,jsons/VE125_randls_28.json,1823965,2170860,25,Man
52,555092,DepthScenes,duration_manipulation_targetAtFixation,jsons/VE125_randls_28.json,http://54.235.29.9/FacialAge/BNav_EC2/DepthDuration/v2_depth_duration_MTurk/v2_DepthDuration_HTML.html#71,71,1707,781,1366,768,8-21-2022,11-46-26,53,depth_duration_stimuli/003228_2014-05-14_13-42-35_094959634447_rgbf000101-resize_1/003228_2014-05-14_13-42-35_094959634447_rgbf000101-resize_1-target.png,125,1.9680000000000002,20,2523,124,meters,jsons/VE125_randls_28.json,1823965,2170860,25,Man
53,555092,DepthScenes,duration_manipulation_targetAtFixation,jsons/VE125_randls_28.json,http://54.235.29.9/FacialAge/BNav_EC2/DepthDuration/v2_depth_duration_MTurk/v2_DepthDuration_HTML.html#71,71,1707,781,1366,768,8-21-2022,11-46-26,54,depth_duration_stimuli/003292_2014-05-14_21-53-49_094959634447_rgbf000100-resize_2/003292_2014-05-14_21-53-49_094959634447_rgbf000100-resize_2-target.png,125,3.4815,30,2482,124,meters,jsons/VE125_randls_28.json,1823965,2170860,25,Man
54,555092,DepthScenes,duration_manipulation_targetAtFixation,jsons/VE125_randls_28.json,http://54.235.29.9/FacialAge/BNav_EC2/DepthDuration/v2_depth_duration_MTurk/v2_DepthDuration_HTML.html#71,71,1707,781,1366,768,8-21-2022,11-46-26,55,depth_duration_stimuli/002639_2014-06-24_14-51-37_094959634447_rgbf000074-resize_4/002639_2014-06-24_14-51-37_094959634447_rgbf000074-resize_4-target.png,125,4.0375,25,2541,124,meters,jsons/VE125_randls_28.json,1823965,2170860,25,Man
55,555092,DepthScenes,duration_manipulation_targetAtFixation,jsons/VE125_randls_28.json,http://54.235.29.9/FacialAge/BNav_EC2/DepthDuration/v2_depth_duration_MTurk/v2_DepthDuration_HTML.html#71,71,1707,781,1366,768,8-21-2022,11-46-26,56,depth_duration_stimuli/000486_2014-06-09_20-47-20_260595134347_rgbf000143-resize_2/000486_2014-06-09_20-47-20_260595134347_rgbf000143-resize_2-target.png,125,4.8325,0,1907,124,meters,jsons/VE125_randls_28.json,1823965,2170860,25,Man
56,555092,DepthScenes,duration_manipulation_targetAtFixation,jsons/VE125_randls_28.json,http://54.235.29.9/FacialAge/BNav_EC2/DepthDuration/v2_depth_duration_MTurk/v2_DepthDuration_HTML.html#71,71,1707,781,1366,768,8-21-2022,11-46-26,57,depth_duration_stimuli/003083_2014-06-15_15-21-03_094959634447_rgbf000063-resize_1/003083_2014-06-15_15-21-03_094959634447_rgbf000063-resize_1-target.png,125,4.1405,25,4182,124,meters,jsons/VE125_randls_28.json,1823965,2170860,25,Man
57,555092,DepthScenes,duration_manipulation_targetAtFixation,jsons/VE125_randls_28.json,http://54.235.29.9/FacialAge/BNav_EC2/DepthDuration/v2_depth_duration_MTurk/v2_DepthDuration_HTML.html#71,71,1707,781,1366,768,8-21-2022,11-46-26,58,depth_duration_stimuli/000414_2014-06-04_19-49-13_260595134347_rgbf000044-resize_0/000414_2014-06-04_19-49-13_260595134347_rgbf000044-resize_0-target.png,125,4.329,20,2651,124,meters,jsons/VE125_randls_28.json,1823965,2170860,25,Man
58,555092,DepthScenes,duration_manipulation_targetAtFixation,jsons/VE125_randls_28.json,http://54.235.29.9/FacialAge/BNav_EC2/DepthDuration/v2_depth_duration_MTurk/v2_DepthDuration_HTML.html#71,71,1707,781,1366,768,8-21-2022,11-46-26,59,depth_duration_stimuli/003129_2014-05-12_10-48-10_094959634447_rgbf000100-resize_0/003129_2014-05-12_10-48-10_094959634447_rgbf000100-resize_0-target.png,125,4.9305,30,2959,123,meters,jsons/VE125_randls_28.json,1823965,2170860,25,Man
59,555092,DepthScenes,duration_manipulation_targetAtFixation,jsons/VE125_randls_28.json,http://54.235.29.9/FacialAge/BNav_EC2/DepthDuration/v2_depth_duration_MTurk/v2_DepthDuration_HTML.html#71,71,1707,781,1366,768,8-21-2022,11-46-26,60,depth_duration_stimuli/001029_2014-06-08_13-17-57_260595134347_rgbf000065-resize_1/001029_2014-06-08_13-17-57_260595134347_rgbf000065-resize_1-target.png,125,3.0835,0,1949,126,meters,jsons/VE125_randls_28.json,1823965,2170860,25,Man
60,555092,DepthScenes,duration_manipulation_targetAtFixation,jsons/VE125_randls_28.json,http://54.235.29.9/FacialAge/BNav_EC2/DepthDuration/v2_depth_duration_MTurk/v2_DepthDuration_HTML.html#71,71,1707,781,1366,768,8-21-2022,11-46-26,61,depth_duration_stimuli/000677_2014-06-08_23-10-32_260595134347_rgbf000158-resize_6/000677_2014-06-08_23-10-32_260595134347_rgbf000158-resize_6-target.png,125,3.556,0,2425,124,meters,jsons/VE125_randls_28.json,1823965,2170860,25,Man
61,555092,DepthScenes,duration_manipulation_targetAtFixation,jsons/VE125_randls_28.json,http://54.235.29.9/FacialAge/BNav_EC2/DepthDuration/v2_depth_duration_MTurk/v2_DepthDuration_HTML.html#71,71,1707,781,1366,768,8-21-2022,11-46-26,62,depth_duration_stimuli/002784_2014-06-22_19-26-30_094959634447_rgbf000083-resize_3/002784_2014-06-22_19-26-30_094959634447_rgbf000083-resize_3-target.png,125,1.8046666666667,25,4450,123,meters,jsons/VE125_randls_28.json,1823965,2170860,25,Man
62,555092,DepthScenes,duration_manipulation_targetAtFixation,jsons/VE125_randls_28.json,http://54.235.29.9/FacialAge/BNav_EC2/DepthDuration/v2_depth_duration_MTurk/v2_DepthDuration_HTML.html#71,71,1707,781,1366,768,8-21-2022,11-46-26,63,depth_duration_stimuli/001100_2014-06-15_17-46-26_260595134347_rgbf000225-resize_2/001100_2014-06-15_17-46-26_260595134347_rgbf000225-resize_2-target.png,125,2.24,15,4613,124,meters,jsons/VE125_randls_28.json,1823965,2170860,25,Man
63,555092,DepthScenes,duration_manipulation_targetAtFixation,jsons/VE125_randls_28.json,http://54.235.29.9/FacialAge/BNav_EC2/DepthDuration/v2_depth_duration_MTurk/v2_DepthDuration_HTML.html#71,71,1707,781,1366,768,8-21-2022,11-46-26,64,depth_duration_stimuli/000929_2014-06-09_16-33-19_260595134347_rgbf000139-resize_0/000929_2014-06-09_16-33-19_260595134347_rgbf000139-resize_0-target.png,125,2.8680000000000003,20,3269,124,meters,jsons/VE125_randls_28.json,1823965,2170860,25,Man
64,555092,DepthScenes,duration_manipulation_targetAtFixation,jsons/VE125_randls_28.json,http://54.235.29.9/FacialAge/BNav_EC2/DepthDuration/v2_depth_duration_MTurk/v2_DepthDuration_HTML.html#71,71,1707,781,1366,768,8-21-2022,11-46-26,65,depth_duration_stimuli/000457_2014-06-08_16-52-43_260595134347_rgbf000199-resize_1/000457_2014-06-08_16-52-43_260595134347_rgbf000199-resize_1-target.png,125,3.6489999999999996,20,4467,124,meters,jsons/VE125_randls_28.json,1823965,2170860,25,Man
65,555092,DepthScenes,duration_manipulation_targetAtFixation,jsons/VE125_randls_28.json,http://54.235.29.9/FacialAge/BNav_EC2/DepthDuration/v2_depth_duration_MTurk/v2_DepthDuration_HTML.html#71,71,1707,781,1366,768,8-21-2022,11-46-26,66,depth_duration_stimuli/001222_2014-06-17_16-24-06_260595134347_rgbf000073-resize_0/001222_2014-06-17_16-24-06_260595134347_rgbf000073-resize-original.jpg,125,1.4385,0,2121,124,meters,jsons/VE125_randls_28.json,1823965,2170860,25,Man
66,555092,DepthScenes,duration_manipulation_targetAtFixation,jsons/VE125_randls_28.json,http://54.235.29.9/FacialAge/BNav_EC2/DepthDuration/v2_depth_duration_MTurk/v2_DepthDuration_HTML.html#71,71,1707,781,1366,768,8-21-2022,11-46-26,67,depth_duration_stimuli/003492_2014-05-21_15-50-55_094959634447_rgbf000828-resize_1/003492_2014-05-21_15-50-55_094959634447_rgbf000828-resize_1-target.png,125,4.06875,26,3587,125,meters,jsons/VE125_randls_28.json,1823965,2170860,25,Man
67,555092,DepthScenes,duration_manipulation_targetAtFixation,jsons/VE125_randls_28.json,http://54.235.29.9/FacialAge/BNav_EC2/DepthDuration/v2_depth_duration_MTurk/v2_DepthDuration_HTML.html#71,71,1707,781,1366,768,8-21-2022,11-46-26,68,depth_duration_stimuli/002568_2014-06-24_13-59-21_094959634447_rgbf000062-resize_4/002568_2014-06-24_13-59-21_094959634447_rgbf000062-resize_4-target.png,125,3.015,20,3384,124,meters,jsons/VE125_randls_28.json,1823965,2170860,25,Man
68,555092,DepthScenes,duration_manipulation_targetAtFixation,jsons/VE125_randls_28.json,http://54.235.29.9/FacialAge/BNav_EC2/DepthDuration/v2_depth_duration_MTurk/v2_DepthDuration_HTML.html#71,71,1707,781,1366,768,8-21-2022,11-46-26,69,depth_duration_stimuli/000368_2014-06-09_15-53-01_260595134347_rgbf000155-resize_2/000368_2014-06-09_15-53-01_260595134347_rgbf000155-resize_2-target.png,125,2.4859999999999998,20,51436,124,meters,jsons/VE125_randls_28.json,1823965,2170860,25,Man
69,555092,DepthScenes,duration_manipulation_targetAtFixation,jsons/VE125_randls_28.json,http://54.235.29.9/FacialAge/BNav_EC2/DepthDuration/v2_depth_duration_MTurk/v2_DepthDuration_HTML.html#71,71,1707,781,1366,768,8-21-2022,11-46-26,70,depth_duration_stimuli/002678_2014-06-13_16-15-32_094959634447_rgbf000151-resize_6/002678_2014-06-13_16-15-32_094959634447_rgbf000151-resize_6-target.png,125,2.1830000000000003,25,3476,125,meters,jsons/VE125_randls_28.json,1823965,2170860,25,Man
70,555092,DepthScenes,duration_manipulation_targetAtFixation,jsons/VE125_randls_28.json,http://54.235.29.9/FacialAge/BNav_EC2/DepthDuration/v2_depth_duration_MTurk/v2_DepthDuration_HTML.html#71,71,1707,781,1366,768,8-21-2022,11-46-26,71,depth_duration_stimuli/001555_2014-06-20_17-12-10_260595134347_rgbf000065-resize_4/001555_2014-06-20_17-12-10_260595134347_rgbf000065-resize_4-target.png,125,1.633,0,2266,123,meters,jsons/VE125_randls_28.json,1823965,2170860,25,Man
71,555092,DepthScenes,duration_manipulation_targetAtFixation,jsons/VE125_randls_28.json,http://54.235.29.9/FacialAge/BNav_EC2/DepthDuration/v2_depth_duration_MTurk/v2_DepthDuration_HTML.html#71,71,1707,781,1366,768,8-21-2022,11-46-26,72,depth_duration_stimuli/000103_2014-05-14_22-01-17_260595134347_rgbf000152-resize_5/000103_2014-05-14_22-01-17_260595134347_rgbf000152-resize_5-target.png,125,1.993,26,2824,125,meters,jsons/VE125_randls_28.json,1823965,2170860,25,Man
72,555092,DepthScenes,duration_manipulation_targetAtFixation,jsons/VE125_randls_28.json,http://54.235.29.9/FacialAge/BNav_EC2/DepthDuration/v2_depth_duration_MTurk/v2_DepthDuration_HTML.html#71,71,1707,781,1366,768,8-21-2022,11-46-26,73,depth_duration_stimuli/000906_2014-06-08_13-35-43_260595134347_rgbf000155-resize_1/000906_2014-06-08_13-35-43_260595134347_rgbf000155-resize_1-target.png,125,2.8489999999999998,39,2949,124,meters,jsons/VE125_randls_28.json,1823965,2170860,25,Man
73,555092,DepthScenes,duration_manipulation_targetAtFixation,jsons/VE125_randls_28.json,http://54.235.29.9/FacialAge/BNav_EC2/DepthDuration/v2_depth_duration_MTurk/v2_DepthDuration_HTML.html#71,71,1707,781,1366,768,8-21-2022,11-46-26,74,depth_duration_stimuli/002805_2014-06-22_19-54-03_094959634447_rgbf000079-resize_1/002805_2014-06-22_19-54-03_094959634447_rgbf000079-resize_1-target.png,125,3.1439999999999997,15,2736,123,meters,jsons/VE125_randls_28.json,1823965,2170860,25,Man
74,555092,DepthScenes,duration_manipulation_targetAtFixation,jsons/VE125_randls_28.json,http://54.235.29.9/FacialAge/BNav_EC2/DepthDuration/v2_depth_duration_MTurk/v2_DepthDuration_HTML.html#71,71,1707,781,1366,768,8-21-2022,11-46-26,75,depth_duration_stimuli/003534_2014-05-22_15-06-10_094959634447_rgbf000102-resize_4/003534_2014-05-22_15-06-10_094959634447_rgbf000102-resize_4-target.png,125,1.426,10,2752,124,meters,jsons/VE125_randls_28.json,1823965,2170860,25,Man
75,555092,DepthScenes,duration_manipulation_targetAtFixation,jsons/VE125_randls_28.json,http://54.235.29.9/FacialAge/BNav_EC2/DepthDuration/v2_depth_duration_MTurk/v2_DepthDuration_HTML.html#71,71,1707,781,1366,768,8-21-2022,11-46-26,76,depth_duration_stimuli/002637_2014-06-24_14-51-13_094959634447_rgbf000066-resize_4/002637_2014-06-24_14-51-13_094959634447_rgbf000066-resize_4-target.png,125,1.9955,25,2747,126,meters,jsons/VE125_randls_28.json,1823965,2170860,25,Man
76,555092,DepthScenes,duration_manipulation_targetAtFixation,jsons/VE125_randls_28.json,http://54.235.29.9/FacialAge/BNav_EC2/DepthDuration/v2_depth_duration_MTurk/v2_DepthDuration_HTML.html#71,71,1707,781,1366,768,8-21-2022,11-46-26,77,depth_duration_stimuli/001011_2014-06-08_23-18-54_260595134347_rgbf000044-resize_4/001011_2014-06-08_23-18-54_260595134347_rgbf000044-resize_4-target.png,125,2.4730000000000003,20,2347,124,meters,jsons/VE125_randls_28.json,1823965,2170860,25,Man
77,555092,DepthScenes,duration_manipulation_targetAtFixation,jsons/VE125_randls_28.json,http://54.235.29.9/FacialAge/BNav_EC2/DepthDuration/v2_depth_duration_MTurk/v2_DepthDuration_HTML.html#71,71,1707,781,1366,768,8-21-2022,11-46-26,78,depth_duration_stimuli/002875_2014-06-01_15-19-00_094959634447_rgbf000151-resize_1/002875_2014-06-01_15-19-00_094959634447_rgbf000151-resize_1-target.png,125,1.9675,28,2691,123,meters,jsons/VE125_randls_28.json,1823965,2170860,25,Man
78,555092,DepthScenes,duration_manipulation_targetAtFixation,jsons/VE125_randls_28.json,http://54.235.29.9/FacialAge/BNav_EC2/DepthDuration/v2_depth_duration_MTurk/v2_DepthDuration_HTML.html#71,71,1707,781,1366,768,8-21-2022,11-46-26,79,depth_duration_stimuli/000788_2014-06-08_22-34-36_260595134347_rgbf000131-resize_1/000788_2014-06-08_22-34-36_260595134347_rgbf000131-resize_1-target.png,125,3.359,26,65052,125,meters,jsons/VE125_randls_28.json,1823965,2170860,25,Man
79,555092,DepthScenes,duration_manipulation_targetAtFixation,jsons/VE125_randls_28.json,http://54.235.29.9/FacialAge/BNav_EC2/DepthDuration/v2_depth_duration_MTurk/v2_DepthDuration_HTML.html#71,71,1707,781,1366,768,8-21-2022,11-46-26,80,depth_duration_stimuli/001235_2014-06-17_16-37-36_260595134347_rgbf000084-resize_4/001235_2014-06-17_16-37-36_260595134347_rgbf000084-resize_4-target.png,125,3.6605,0,3180,125,meters,jsons/VE125_randls_28.json,1823965,2170860,25,Man
80,555092,DepthScenes,duration_manipulation_targetAtFixation,jsons/VE125_randls_28.json,http://54.235.29.9/FacialAge/BNav_EC2/DepthDuration/v2_depth_duration_MTurk/v2_DepthDuration_HTML.html#71,71,1707,781,1366,768,8-21-2022,11-46-26,81,depth_duration_stimuli/002213_2014-06-28_18-37-58_260595134347_rgbf000055-resize_1/002213_2014-06-28_18-37-58_260595134347_rgbf000055-resize_1-target.png,125,3.62,0,2766,122,meters,jsons/VE125_randls_28.json,1823965,2170860,25,Man
81,555092,DepthScenes,duration_manipulation_targetAtFixation,jsons/VE125_randls_28.json,http://54.235.29.9/FacialAge/BNav_EC2/DepthDuration/v2_depth_duration_MTurk/v2_DepthDuration_HTML.html#71,71,1707,781,1366,768,8-21-2022,11-46-26,82,depth_duration_stimuli/000691_2014-06-08_13-08-50_260595134347_rgbf000132-resize_3/000691_2014-06-08_13-08-50_260595134347_rgbf000132-resize_3-target.png,125,4.1530000000000005,26,4762,124,meters,jsons/VE125_randls_28.json,1823965,2170860,25,Man
82,555092,DepthScenes,duration_manipulation_targetAtFixation,jsons/VE125_randls_28.json,http://54.235.29.9/FacialAge/BNav_EC2/DepthDuration/v2_depth_duration_MTurk/v2_DepthDuration_HTML.html#71,71,1707,781,1366,768,8-21-2022,11-46-26,83,depth_duration_stimuli/002043_2014-06-24_20-29-38_260595134347_rgbf000039-resize_4/002043_2014-06-24_20-29-38_260595134347_rgbf000039-resize_4-target.png,125,2.8435,20,2514,123,meters,jsons/VE125_randls_28.json,1823965,2170860,25,Man
83,555092,DepthScenes,duration_manipulation_targetAtFixation,jsons/VE125_randls_28.json,http://54.235.29.9/FacialAge/BNav_EC2/DepthDuration/v2_depth_duration_MTurk/v2_DepthDuration_HTML.html#71,71,1707,781,1366,768,8-21-2022,11-46-26,84,depth_duration_stimuli/003048_2014-06-15_13-49-43_094959634447_rgbf000150-resize_1/003048_2014-06-15_13-49-43_094959634447_rgbf000150-resize_1-target.png,125,4.0035,0,2612,125,meters,jsons/VE125_randls_28.json,1823965,2170860,25,Man
84,555092,DepthScenes,duration_manipulation_targetAtFixation,jsons/VE125_randls_28.json,http://54.235.29.9/FacialAge/BNav_EC2/DepthDuration/v2_depth_duration_MTurk/v2_DepthDuration_HTML.html#71,71,1707,781,1366,768,8-21-2022,11-46-26,85,depth_duration_stimuli/001199_2014-06-17_16-03-48_260595134347_rgbf000077-resize_0/001199_2014-06-17_16-03-48_260595134347_rgbf000077-resize_0-target.png,125,3.4375,25,2387,124,meters,jsons/VE125_randls_28.json,1823965,2170860,25,Man
85,555092,DepthScenes,duration_manipulation_targetAtFixation,jsons/VE125_randls_28.json,http://54.235.29.9/FacialAge/BNav_EC2/DepthDuration/v2_depth_duration_MTurk/v2_DepthDuration_HTML.html#71,71,1707,781,1366,768,8-21-2022,11-46-26,86,depth_duration_stimuli/000502_2014-06-08_23-02-32_260595134347_rgbf000063-resize_4/000502_2014-06-08_23-02-32_260595134347_rgbf000063-resize_4-target.png,125,2.431,26,2322,124,meters,jsons/VE125_randls_28.json,1823965,2170860,25,Man
86,555092,DepthScenes,duration_manipulation_targetAtFixation,jsons/VE125_randls_28.json,http://54.235.29.9/FacialAge/BNav_EC2/DepthDuration/v2_depth_duration_MTurk/v2_DepthDuration_HTML.html#71,71,1707,781,1366,768,8-21-2022,11-46-26,87,depth_duration_stimuli/001808_2014-06-26_20-50-58_260595134347_rgbf000029-resize_1/001808_2014-06-26_20-50-58_260595134347_rgbf000029-resize_1-target.png,125,4.249,0,2191,125,meters,jsons/VE125_randls_28.json,1823965,2170860,25,Man
87,555092,DepthScenes,duration_manipulation_targetAtFixation,jsons/VE125_randls_28.json,http://54.235.29.9/FacialAge/BNav_EC2/DepthDuration/v2_depth_duration_MTurk/v2_DepthDuration_HTML.html#71,71,1707,781,1366,768,8-21-2022,11-46-26,88,depth_duration_stimuli/001815_2014-06-26_20-52-55_260595134347_rgbf000020-resize_0/001815_2014-06-26_20-52-55_260595134347_rgbf000020-resize_0-target.png,125,3.3865,25,2770,124,meters,jsons/VE125_randls_28.json,1823965,2170860,25,Man
88,555092,DepthScenes,duration_manipulation_targetAtFixation,jsons/VE125_randls_28.json,http://54.235.29.9/FacialAge/BNav_EC2/DepthDuration/v2_depth_duration_MTurk/v2_DepthDuration_HTML.html#71,71,1707,781,1366,768,8-21-2022,11-46-26,89,depth_duration_stimuli/000470_2014-06-09_19-42-40_260595134347_rgbf000094-resize_1/000470_2014-06-09_19-42-40_260595134347_rgbf000094-resize_1-target.png,125,1.831,20,68538,124,meters,jsons/VE125_randls_28.json,1823965,2170860,25,Man
89,555092,DepthScenes,duration_manipulation_targetAtFixation,jsons/VE125_randls_28.json,http://54.235.29.9/FacialAge/BNav_EC2/DepthDuration/v2_depth_duration_MTurk/v2_DepthDuration_HTML.html#71,71,1707,781,1366,768,8-21-2022,11-46-26,90,depth_duration_stimuli/000109_2014-05-14_23-41-52_260595134347_rgbf000035-resize_9/000109_2014-05-14_23-41-52_260595134347_rgbf000035-resize_9-target.png,125,1.3545,0,2477,126,meters,jsons/VE125_randls_28.json,1823965,2170860,25,Man
90,555092,DepthScenes,duration_manipulation_targetAtFixation,jsons/VE125_randls_28.json,http://54.235.29.9/FacialAge/BNav_EC2/DepthDuration/v2_depth_duration_MTurk/v2_DepthDuration_HTML.html#71,71,1707,781,1366,768,8-21-2022,11-46-26,91,depth_duration_stimuli/000009_2014-05-26_14-32-05_260595134347_rgbf000034-resize_3/000009_2014-05-26_14-32-05_260595134347_rgbf000034-resize_3-target.png,125,3.8715,25,2344,123,meters,jsons/VE125_randls_28.json,1823965,2170860,25,Man
91,555092,DepthScenes,duration_manipulation_targetAtFixation,jsons/VE125_randls_28.json,http://54.235.29.9/FacialAge/BNav_EC2/DepthDuration/v2_depth_duration_MTurk/v2_DepthDuration_HTML.html#71,71,1707,781,1366,768,8-21-2022,11-46-26,92,depth_duration_stimuli/001828_2014-06-26_21-40-03_260595134347_rgbf000024-resize_0/001828_2014-06-26_21-40-03_260595134347_rgbf000024-resize_0-target.png,125,4.8260000000000005,36,3169,124,meters,jsons/VE125_randls_28.json,1823965,2170860,25,Man
92,555092,DepthScenes,duration_manipulation_targetAtFixation,jsons/VE125_randls_28.json,http://54.235.29.9/FacialAge/BNav_EC2/DepthDuration/v2_depth_duration_MTurk/v2_DepthDuration_HTML.html#71,71,1707,781,1366,768,8-21-2022,11-46-26,93,depth_duration_stimuli/002118_2014-06-25_20-32-08_260595134347_rgbf000078-resize_1/002118_2014-06-25_20-32-08_260595134347_rgbf000078-resize_1-target.png,125,2.6460000000000004,15,2499,125,meters,jsons/VE125_randls_28.json,1823965,2170860,25,Man
93,555092,DepthScenes,duration_manipulation_targetAtFixation,jsons/VE125_randls_28.json,http://54.235.29.9/FacialAge/BNav_EC2/DepthDuration/v2_depth_duration_MTurk/v2_DepthDuration_HTML.html#71,71,1707,781,1366,768,8-21-2022,11-46-26,94,depth_duration_stimuli/001516_2014-06-20_16-25-09_260595134347_rgbf000076-resize_2/001516_2014-06-20_16-25-09_260595134347_rgbf000076-resize_2-target.png,125,1.7445,28,2459,125,meters,jsons/VE125_randls_28.json,1823965,2170860,25,Man
94,555092,DepthScenes,duration_manipulation_targetAtFixation,jsons/VE125_randls_28.json,http://54.235.29.9/FacialAge/BNav_EC2/DepthDuration/v2_depth_duration_MTurk/v2_DepthDuration_HTML.html#71,71,1707,781,1366,768,8-21-2022,11-46-26,95,depth_duration_stimuli/001055_2014-06-08_18-45-35_260595134347_rgbf000111-resize_4/001055_2014-06-08_18-45-35_260595134347_rgbf000111-resize_4-target.png,125,2.4290000000000003,29,2642,124,meters,jsons/VE125_randls_28.json,1823965,2170860,25,Man
95,555092,DepthScenes,duration_manipulation_targetAtFixation,jsons/VE125_randls_28.json,http://54.235.29.9/FacialAge/BNav_EC2/DepthDuration/v2_depth_duration_MTurk/v2_DepthDuration_HTML.html#71,71,1707,781,1366,768,8-21-2022,11-46-26,96,depth_duration_stimuli/000549_2014-06-08_22-10-24_260595134347_rgbf000247-resize_3/000549_2014-06-08_22-10-24_260595134347_rgbf000247-resize_3-target.png,125,1.841,26,2660,125,meters,jsons/VE125_randls_28.json,1823965,2170860,25,Man
96,555092,DepthScenes,duration_manipulation_targetAtFixation,jsons/VE125_randls_28.json,http://54.235.29.9/FacialAge/BNav_EC2/DepthDuration/v2_depth_duration_MTurk/v2_DepthDuration_HTML.html#71,71,1707,781,1366,768,8-21-2022,11-46-26,97,depth_duration_stimuli/002725_2014-06-22_11-47-51_094959634447_rgbf000070-resize_1/002725_2014-06-22_11-47-51_094959634447_rgbf000070-resize_1-target.png,125,2.195,39,2921,125,meters,jsons/VE125_randls_28.json,1823965,2170860,25,Man
97,555092,DepthScenes,duration_manipulation_targetAtFixation,jsons/VE125_randls_28.json,http://54.235.29.9/FacialAge/BNav_EC2/DepthDuration/v2_depth_duration_MTurk/v2_DepthDuration_HTML.html#71,71,1707,781,1366,768,8-21-2022,11-46-26,98,depth_duration_stimuli/002344_2014-06-28_20-06-29_260595134347_rgbf000030-resize_1/002344_2014-06-28_20-06-29_260595134347_rgbf000030-resize_1-target.png,125,1.5795,15,2580,126,meters,jsons/VE125_randls_28.json,1823965,2170860,25,Man
98,555092,DepthScenes,duration_manipulation_targetAtFixation,jsons/VE125_randls_28.json,http://54.235.29.9/FacialAge/BNav_EC2/DepthDuration/v2_depth_duration_MTurk/v2_DepthDuration_HTML.html#71,71,1707,781,1366,768,8-21-2022,11-46-26,99,depth_duration_stimuli/001540_2014-06-20_17-01-05_260595134347_rgbf000086-resize_2/001540_2014-06-20_17-01-05_260595134347_rgbf000086-resize-original.jpg,125,1.459,16,2473,124,meters,jsons/VE125_randls_28.json,1823965,2170860,25,Man
99,555092,DepthScenes,duration_manipulation_targetAtFixation,jsons/VE125_randls_28.json,http://54.235.29.9/FacialAge/BNav_EC2/DepthDuration/v2_depth_duration_MTurk/v2_DepthDuration_HTML.html#71,71,1707,781,1366,768,8-21-2022,11-46-26,100,depth_duration_stimuli/000878_2014-06-08_22-52-45_260595134347_rgbf000045-resize_2/000878_2014-06-08_22-52-45_260595134347_rgbf000045-resize_2-target.png,125,2.092,28,2550,125,meters,jsons/VE125_randls_28.json,1823965,2170860,25,Man
100,555092,DepthScenes,duration_manipulation_targetAtFixation,jsons/VE125_randls_28.json,http://54.235.29.9/FacialAge/BNav_EC2/DepthDuration/v2_depth_duration_MTurk/v2_DepthDuration_HTML.html#71,71,1707,781,1366,768,8-21-2022,11-46-26,101,depth_duration_stimuli/002953_2014-06-08_17-32-18_094959634447_rgbf000059-resize_5/002953_2014-06-08_17-32-18_094959634447_rgbf000059-resize_5-target.png,125,1.551,15,2511,124,meters,jsons/VE125_randls_28.json,1823965,2170860,25,Man
101,555092,DepthScenes,duration_manipulation_targetAtFixation,jsons/VE125_randls_28.json,http://54.235.29.9/FacialAge/BNav_EC2/DepthDuration/v2_depth_duration_MTurk/v2_DepthDuration_HTML.html#71,71,1707,781,1366,768,8-21-2022,11-46-26,102,depth_duration_stimuli/002630_2014-06-24_14-47-50_094959634447_rgbf000055-resize_1/002630_2014-06-24_14-47-50_094959634447_rgbf000055-resize_1-target.png,125,3.0095,19,2548,125,meters,jsons/VE125_randls_28.json,1823965,2170860,25,Man
102,555092,DepthScenes,duration_manipulation_targetAtFixation,jsons/VE125_randls_28.json,http://54.235.29.9/FacialAge/BNav_EC2/DepthDuration/v2_depth_duration_MTurk/v2_DepthDuration_HTML.html#71,71,1707,781,1366,768,8-21-2022,11-46-26,103,depth_duration_stimuli/002758_2014-06-22_19-11-20_094959634447_rgbf000128-resize_1/002758_2014-06-22_19-11-20_094959634447_rgbf000128-resize_1-target.png,125,2.555,20,2561,124,meters,jsons/VE125_randls_28.json,1823965,2170860,25,Man
103,555092,DepthScenes,duration_manipulation_targetAtFixation,jsons/VE125_randls_28.json,http://54.235.29.9/FacialAge/BNav_EC2/DepthDuration/v2_depth_duration_MTurk/v2_DepthDuration_HTML.html#71,71,1707,781,1366,768,8-21-2022,11-46-26,104,depth_duration_stimuli/002445_2014-06-28_20-32-16_260595134347_rgbf000029-resize_4/002445_2014-06-28_20-32-16_260595134347_rgbf000029-resize_4-target.png,125,2.5315,20,2596,125,meters,jsons/VE125_randls_28.json,1823965,2170860,25,Man
104,555092,DepthScenes,duration_manipulation_targetAtFixation,jsons/VE125_randls_28.json,http://54.235.29.9/FacialAge/BNav_EC2/DepthDuration/v2_depth_duration_MTurk/v2_DepthDuration_HTML.html#71,71,1707,781,1366,768,8-21-2022,11-46-26,105,depth_duration_stimuli/000780_2014-06-08_22-28-29_260595134347_rgbf000126-resize_1/000780_2014-06-08_22-28-29_260595134347_rgbf000126-resize_1-target.png,125,3.3825,20,393979,124,meters,jsons/VE125_randls_28.json,1823965,2170860,25,Man
105,555092,DepthScenes,duration_manipulation_targetAtFixation,jsons/VE125_randls_28.json,http://54.235.29.9/FacialAge/BNav_EC2/DepthDuration/v2_depth_duration_MTurk/v2_DepthDuration_HTML.html#71,71,1707,781,1366,768,8-21-2022,11-46-26,106,depth_duration_stimuli/000642_2014-06-08_16-59-25_260595134347_rgbf000098-resize_2/000642_2014-06-08_16-59-25_260595134347_rgbf000098-resize_2-target.png,125,2.8815,25,2547,124,meters,jsons/VE125_randls_28.json,1823965,2170860,25,Man
106,555092,DepthScenes,duration_manipulation_targetAtFixation,jsons/VE125_randls_28.json,http://54.235.29.9/FacialAge/BNav_EC2/DepthDuration/v2_depth_duration_MTurk/v2_DepthDuration_HTML.html#71,71,1707,781,1366,768,8-21-2022,11-46-26,107,depth_duration_stimuli/002425_2014-06-28_20-27-29_260595134347_rgbf000031-resize_8/002425_2014-06-28_20-27-29_260595134347_rgbf000031-resize_8-target.png,125,3.8960000000000004,20,2402,124,meters,jsons/VE125_randls_28.json,1823965,2170860,25,Man
107,555092,DepthScenes,duration_manipulation_targetAtFixation,jsons/VE125_randls_28.json,http://54.235.29.9/FacialAge/BNav_EC2/DepthDuration/v2_depth_duration_MTurk/v2_DepthDuration_HTML.html#71,71,1707,781,1366,768,8-21-2022,11-46-26,108,depth_duration_stimuli/001133_2014-06-17_14-49-16_260595134347_rgbf000100-resize_0/001133_2014-06-17_14-49-16_260595134347_rgbf000100-resize_0-target.png,125,4.2115,25,2340,122,meters,jsons/VE125_randls_28.json,1823965,2170860,25,Man
108,555092,DepthScenes,duration_manipulation_targetAtFixation,jsons/VE125_randls_28.json,http://54.235.29.9/FacialAge/BNav_EC2/DepthDuration/v2_depth_duration_MTurk/v2_DepthDuration_HTML.html#71,71,1707,781,1366,768,8-21-2022,11-46-26,109,depth_duration_stimuli/001132_2014-06-17_14-48-54_260595134347_rgbf000100-resize_2/001132_2014-06-17_14-48-54_260595134347_rgbf000100-resize_2-target.png,125,3.753,20,129624,124,meters,jsons/VE125_randls_28.json,1823965,2170860,25,Man
109,555092,DepthScenes,duration_manipulation_targetAtFixation,jsons/VE125_randls_28.json,http://54.235.29.9/FacialAge/BNav_EC2/DepthDuration/v2_depth_duration_MTurk/v2_DepthDuration_HTML.html#71,71,1707,781,1366,768,8-21-2022,11-46-26,110,depth_duration_stimuli/001164_2014-06-17_15-35-46_260595134347_rgbf000085-resize_3/001164_2014-06-17_15-35-46_260595134347_rgbf000085-resize_3-target.png,125,2.354,25,7675,125,meters,jsons/VE125_randls_28.json,1823965,2170860,25,Man
110,555092,DepthScenes,duration_manipulation_targetAtFixation,jsons/VE125_randls_28.json,http://54.235.29.9/FacialAge/BNav_EC2/DepthDuration/v2_depth_duration_MTurk/v2_DepthDuration_HTML.html#71,71,1707,781,1366,768,8-21-2022,11-46-26,111,depth_duration_stimuli/001136_2014-06-17_15-19-41_260595134347_rgbf000076-resize_3/001136_2014-06-17_15-19-41_260595134347_rgbf000076-resize_3-target.png,125,1.8655,20,2735,125,meters,jsons/VE125_randls_28.json,1823965,2170860,25,Man
111,555092,DepthScenes,duration_manipulation_targetAtFixation,jsons/VE125_randls_28.json,http://54.235.29.9/FacialAge/BNav_EC2/DepthDuration/v2_depth_duration_MTurk/v2_DepthDuration_HTML.html#71,71,1707,781,1366,768,8-21-2022,11-46-26,112,depth_duration_stimuli/001110_2014-06-15_17-25-28_260595134347_rgbf000150-resize_1/001110_2014-06-15_17-25-28_260595134347_rgbf000150-resize_1-target.png,125,1.7115,20,94013,124,meters,jsons/VE125_randls_28.json,1823965,2170860,25,Man
112,555092,DepthScenes,duration_manipulation_targetAtFixation,jsons/VE125_randls_28.json,http://54.235.29.9/FacialAge/BNav_EC2/DepthDuration/v2_depth_duration_MTurk/v2_DepthDuration_HTML.html#71,71,1707,781,1366,768,8-21-2022,11-46-26,113,depth_duration_stimuli/000927_2014-06-09_16-32-30_260595134347_rgbf000123-resize_3/000927_2014-06-09_16-32-30_260595134347_rgbf000123-resize_3-target.png,125,2.6785,25,2641,123,meters,jsons/VE125_randls_28.json,1823965,2170860,25,Man
113,555092,DepthScenes,duration_manipulation_targetAtFixation,jsons/VE125_randls_28.json,http://54.235.29.9/FacialAge/BNav_EC2/DepthDuration/v2_depth_duration_MTurk/v2_DepthDuration_HTML.html#71,71,1707,781,1366,768,8-21-2022,11-46-26,114,depth_duration_stimuli/001417_2014-06-19_16-25-36_260595134347_rgbf000115-resize_5/001417_2014-06-19_16-25-36_260595134347_rgbf000115-resize_5-target.png,125,4.6255,20,2435,124,meters,jsons/VE125_randls_28.json,1823965,2170860,25,Man
114,555092,DepthScenes,duration_manipulation_targetAtFixation,jsons/VE125_randls_28.json,http://54.235.29.9/FacialAge/BNav_EC2/DepthDuration/v2_depth_duration_MTurk/v2_DepthDuration_HTML.html#71,71,1707,781,1366,768,8-21-2022,11-46-26,115,depth_duration_stimuli/003081_2014-06-15_15-19-16_094959634447_rgbf000150-resize_1/003081_2014-06-15_15-19-16_094959634447_rgbf000150-resize_1-target.png,125,3.9125,0,2946,124,meters,jsons/VE125_randls_28.json,1823965,2170860,25,Man
115,555092,DepthScenes,duration_manipulation_targetAtFixation,jsons/VE125_randls_28.json,http://54.235.29.9/FacialAge/BNav_EC2/DepthDuration/v2_depth_duration_MTurk/v2_DepthDuration_HTML.html#71,71,1707,781,1366,768,8-21-2022,11-46-26,116,depth_duration_stimuli/001170_2014-06-17_15-43-44_260595134347_rgbf000096-resize_6/001170_2014-06-17_15-43-44_260595134347_rgbf000096-resize-original.jpg,125,1.1909999999999998,0,1930,124,meters,jsons/VE125_randls_28.json,1823965,2170860,25,Man
116,555092,DepthScenes,duration_manipulation_targetAtFixation,jsons/VE125_randls_28.json,http://54.235.29.9/FacialAge/BNav_EC2/DepthDuration/v2_depth_duration_MTurk/v2_DepthDuration_HTML.html#71,71,1707,781,1366,768,8-21-2022,11-46-26,117,depth_duration_stimuli/000917_2014-06-09_22-45-29_260595134347_rgbf000149-resize_3/000917_2014-06-09_22-45-29_260595134347_rgbf000149-resize_3-target.png,125,4.1865,22,2923,125,meters,jsons/VE125_randls_28.json,1823965,2170860,25,Man
117,555092,DepthScenes,duration_manipulation_targetAtFixation,jsons/VE125_randls_28.json,http://54.235.29.9/FacialAge/BNav_EC2/DepthDuration/v2_depth_duration_MTurk/v2_DepthDuration_HTML.html#71,71,1707,781,1366,768,8-21-2022,11-46-26,118,depth_duration_stimuli/002323_2014-06-28_20-01-54_260595134347_rgbf000051-resize_4/002323_2014-06-28_20-01-54_260595134347_rgbf000051-resize_4-target.png,125,3.7310000000000003,33,2218,124,meters,jsons/VE125_randls_28.json,1823965,2170860,25,Man
118,555092,DepthScenes,duration_manipulation_targetAtFixation,jsons/VE125_randls_28.json,http://54.235.29.9/FacialAge/BNav_EC2/DepthDuration/v2_depth_duration_MTurk/v2_DepthDuration_HTML.html#71,71,1707,781,1366,768,8-21-2022,11-46-26,119,depth_duration_stimuli/002153_2014-06-25_21-27-18_260595134347_rgbf000038-resize_5/002153_2014-06-25_21-27-18_260595134347_rgbf000038-resize_5-target.png,125,2.505,20,2570,124,meters,jsons/VE125_randls_28.json,1823965,2170860,25,Man
119,555092,DepthScenes,duration_manipulation_targetAtFixation,jsons/VE125_randls_28.json,http://54.235.29.9/FacialAge/BNav_EC2/DepthDuration/v2_depth_duration_MTurk/v2_DepthDuration_HTML.html#71,71,1707,781,1366,768,8-21-2022,11-46-26,120,depth_duration_stimuli/002660_2014-06-13_15-44-18_094959634447_rgbf001878-resize_2/002660_2014-06-13_15-44-18_094959634447_rgbf001878-resize_2-target.png,125,3.576,25,2443,123,meters,jsons/VE125_randls_28.json,1823965,2170860,25,Man
120,555092,DepthScenes,duration_manipulation_targetAtFixation,jsons/VE125_randls_28.json,http://54.235.29.9/FacialAge/BNav_EC2/DepthDuration/v2_depth_duration_MTurk/v2_DepthDuration_HTML.html#71,71,1707,781,1366,768,8-21-2022,11-46-26,121,depth_duration_stimuli/001056_2014-06-08_18-46-44_260595134347_rgbf000068-resize_0/001056_2014-06-08_18-46-44_260595134347_rgbf000068-resize_0-target.png,125,2.6625,26,2408,124,meters,jsons/VE125_randls_28.json,1823965,2170860,25,Man
121,555092,DepthScenes,duration_manipulation_targetAtFixation,jsons/VE125_randls_28.json,http://54.235.29.9/FacialAge/BNav_EC2/DepthDuration/v2_depth_duration_MTurk/v2_DepthDuration_HTML.html#71,71,1707,781,1366,768,8-21-2022,11-46-26,122,depth_duration_stimuli/002199_2014-06-28_18-33-56_260595134347_rgbf000074-resize_0/002199_2014-06-28_18-33-56_260595134347_rgbf000074-resize_0-target.png,125,1.996,25,2280,125,meters,jsons/VE125_randls_28.json,1823965,2170860,25,Man
122,555092,DepthScenes,duration_manipulation_targetAtFixation,jsons/VE125_randls_28.json,http://54.235.29.9/FacialAge/BNav_EC2/DepthDuration/v2_depth_duration_MTurk/v2_DepthDuration_HTML.html#71,71,1707,781,1366,768,8-21-2022,11-46-26,123,depth_duration_stimuli/001150_2014-06-17_15-27-34_260595134347_rgbf000108-resize_2/001150_2014-06-17_15-27-34_260595134347_rgbf000108-resize_2-target.png,125,4.0325,33,2682,126,meters,jsons/VE125_randls_28.json,1823965,2170860,25,Man
123,555092,DepthScenes,duration_manipulation_targetAtFixation,jsons/VE125_randls_28.json,http://54.235.29.9/FacialAge/BNav_EC2/DepthDuration/v2_depth_duration_MTurk/v2_DepthDuration_HTML.html#71,71,1707,781,1366,768,8-21-2022,11-46-26,124,depth_duration_stimuli/000665_2014-06-09_20-42-35_260595134347_rgbf000110-resize_1/000665_2014-06-09_20-42-35_260595134347_rgbf000110-resize_1-target.png,125,3.057,36,3785,125,meters,jsons/VE125_randls_28.json,1823965,2170860,25,Man
124,555092,DepthScenes,duration_manipulation_targetAtFixation,jsons/VE125_randls_28.json,http://54.235.29.9/FacialAge/BNav_EC2/DepthDuration/v2_depth_duration_MTurk/v2_DepthDuration_HTML.html#71,71,1707,781,1366,768,8-21-2022,11-46-26,125,depth_duration_stimuli/002375_2014-06-28_20-13-44_260595134347_rgbf000032-resize_1/002375_2014-06-28_20-13-44_260595134347_rgbf000032-resize_1-target.png,125,4.0175,25,2562,124,meters,jsons/VE125_randls_28.json,1823965,2170860,25,Man
125,555092,DepthScenes,duration_manipulation_targetAtFixation,jsons/VE125_randls_28.json,http://54.235.29.9/FacialAge/BNav_EC2/DepthDuration/v2_depth_duration_MTurk/v2_DepthDuration_HTML.html#71,71,1707,781,1366,768,8-21-2022,11-46-26,126,depth_duration_stimuli/002657_2014-06-13_15-29-54_094959634447_rgbf000150-resize_1/002657_2014-06-13_15-29-54_094959634447_rgbf000150-resize_1-target.png,125,4.919,26,4587,125,meters,jsons/VE125_randls_28.json,1823965,2170860,25,Man
126,555092,DepthScenes,duration_manipulation_targetAtFixation,jsons/VE125_randls_28.json,http://54.235.29.9/FacialAge/BNav_EC2/DepthDuration/v2_depth_duration_MTurk/v2_DepthDuration_HTML.html#71,71,1707,781,1366,768,8-21-2022,11-46-26,127,depth_duration_stimuli/001167_2014-06-17_15-38-07_260595134347_rgbf000108-resize_0/001167_2014-06-17_15-38-07_260595134347_rgbf000108-resize_0-target.png,125,1.8505,20,2519,125,meters,jsons/VE125_randls_28.json,1823965,2170860,25,Man
127,555092,DepthScenes,duration_manipulation_targetAtFixation,jsons/VE125_randls_28.json,http://54.235.29.9/FacialAge/BNav_EC2/DepthDuration/v2_depth_duration_MTurk/v2_DepthDuration_HTML.html#71,71,1707,781,1366,768,8-21-2022,11-46-26,128,depth_duration_stimuli/003587_2014-05-23_16-48-02_094959634447_rgbf002384-resize_2/003587_2014-05-23_16-48-02_094959634447_rgbf002384-resize_2-target.png,125,1.357,26,2342,124,meters,jsons/VE125_randls_28.json,1823965,2170860,25,Man
128,555092,DepthScenes,duration_manipulation_targetAtFixation,jsons/VE125_randls_28.json,http://54.235.29.9/FacialAge/BNav_EC2/DepthDuration/v2_depth_duration_MTurk/v2_DepthDuration_HTML.html#71,71,1707,781,1366,768,8-21-2022,11-46-26,129,depth_duration_stimuli/001016_2014-06-09_16-16-10_260595134347_rgbf000112-resize_5/001016_2014-06-09_16-16-10_260595134347_rgbf000112-resize_5-target.png,125,1.6565,20,3042,125,meters,jsons/VE125_randls_28.json,1823965,2170860,25,Man
129,555092,DepthScenes,duration_manipulation_targetAtFixation,jsons/VE125_randls_28.json,http://54.235.29.9/FacialAge/BNav_EC2/DepthDuration/v2_depth_duration_MTurk/v2_DepthDuration_HTML.html#71,71,1707,781,1366,768,8-21-2022,11-46-26,130,depth_duration_stimuli/002340_2014-06-28_20-05-46_260595134347_rgbf000113-resize_0/002340_2014-06-28_20-05-46_260595134347_rgbf000113-resize_0-target.png,125,2.4735,20,4428,124,meters,jsons/VE125_randls_28.json,1823965,2170860,25,Man
130,555092,DepthScenes,duration_manipulation_targetAtFixation,jsons/VE125_randls_28.json,http://54.235.29.9/FacialAge/BNav_EC2/DepthDuration/v2_depth_duration_MTurk/v2_DepthDuration_HTML.html#71,71,1707,781,1366,768,8-21-2022,11-46-26,131,depth_duration_stimuli/002279_2014-06-28_18-55-32_260595134347_rgbf000040-resize_5/002279_2014-06-28_18-55-32_260595134347_rgbf000040-resize_5-target.png,125,1.5043333333333,15,2473,124,meters,jsons/VE125_randls_28.json,1823965,2170860,25,Man
131,555092,DepthScenes,duration_manipulation_targetAtFixation,jsons/VE125_randls_28.json,http://54.235.29.9/FacialAge/BNav_EC2/DepthDuration/v2_depth_duration_MTurk/v2_DepthDuration_HTML.html#71,71,1707,781,1366,768,8-21-2022,11-46-26,132,depth_duration_stimuli/000635_2014-06-08_16-38-42_260595134347_rgbf000106-resize_1/000635_2014-06-08_16-38-42_260595134347_rgbf000106-resize_1-target.png,125,2.074,20,2610,126,meters,jsons/VE125_randls_28.json,1823965,2170860,25,Man
132,555092,DepthScenes,duration_manipulation_targetAtFixation,jsons/VE125_randls_28.json,http://54.235.29.9/FacialAge/BNav_EC2/DepthDuration/v2_depth_duration_MTurk/v2_DepthDuration_HTML.html#71,71,1707,781,1366,768,8-21-2022,11-46-26,133,depth_duration_stimuli/003070_2014-06-15_14-58-27_094959634447_rgbf000150-resize_3/003070_2014-06-15_14-58-27_094959634447_rgbf000150-resize_3-target.png,125,2.9415,29,2587,124,meters,jsons/VE125_randls_28.json,1823965,2170860,25,Man
133,555092,DepthScenes,duration_manipulation_targetAtFixation,jsons/VE125_randls_28.json,http://54.235.29.9/FacialAge/BNav_EC2/DepthDuration/v2_depth_duration_MTurk/v2_DepthDuration_HTML.html#71,71,1707,781,1366,768,8-21-2022,11-46-26,134,depth_duration_stimuli/000943_2014-06-09_19-31-07_260595134347_rgbf000128-resize_1/000943_2014-06-09_19-31-07_260595134347_rgbf000128-resize_1-target.png,125,1.9765,35,2313,125,meters,jsons/VE125_randls_28.json,1823965,2170860,25,Man
134,555092,DepthScenes,duration_manipulation_targetAtFixation,jsons/VE125_randls_28.json,http://54.235.29.9/FacialAge/BNav_EC2/DepthDuration/v2_depth_duration_MTurk/v2_DepthDuration_HTML.html#71,71,1707,781,1366,768,8-21-2022,11-46-26,135,depth_duration_stimuli/002072_2014-06-24_21-48-06_260595134347_rgbf000115-resize_0/002072_2014-06-24_21-48-06_260595134347_rgbf000115-resize-original.jpg,125,4.702,0,1954,124,meters,jsons/VE125_randls_28.json,1823965,2170860,25,Man
135,555092,DepthScenes,duration_manipulation_targetAtFixation,jsons/VE125_randls_28.json,http://54.235.29.9/FacialAge/BNav_EC2/DepthDuration/v2_depth_duration_MTurk/v2_DepthDuration_HTML.html#71,71,1707,781,1366,768,8-21-2022,11-46-26,136,depth_duration_stimuli/000682_2014-06-08_23-14-58_260595134347_rgbf000041-resize_5/000682_2014-06-08_23-14-58_260595134347_rgbf000041-resize_5-target.png,125,2.7239999999999998,16,2858,124,meters,jsons/VE125_randls_28.json,1823965,2170860,25,Man
136,555092,DepthScenes,duration_manipulation_targetAtFixation,jsons/VE125_randls_28.json,http://54.235.29.9/FacialAge/BNav_EC2/DepthDuration/v2_depth_duration_MTurk/v2_DepthDuration_HTML.html#71,71,1707,781,1366,768,8-21-2022,11-46-26,137,depth_duration_stimuli/001650_2014-06-20_12-09-00_260595134347_rgbf000087-resize_3/001650_2014-06-20_12-09-00_260595134347_rgbf000087-resize_3-target.png,125,1.9505,13,2444,124,meters,jsons/VE125_randls_28.json,1823965,2170860,25,Man
137,555092,DepthScenes,duration_manipulation_targetAtFixation,jsons/VE125_randls_28.json,http://54.235.29.9/FacialAge/BNav_EC2/DepthDuration/v2_depth_duration_MTurk/v2_DepthDuration_HTML.html#71,71,1707,781,1366,768,8-21-2022,11-46-26,138,depth_duration_stimuli/000493_2014-06-09_21-01-18_260595134347_rgbf000196-resize_3/000493_2014-06-09_21-01-18_260595134347_rgbf000196-resize_3-target.png,125,3.44,15,2377,125,meters,jsons/VE125_randls_28.json,1823965,2170860,25,Man
138,555092,DepthScenes,duration_manipulation_targetAtFixation,jsons/VE125_randls_28.json,http://54.235.29.9/FacialAge/BNav_EC2/DepthDuration/v2_depth_duration_MTurk/v2_DepthDuration_HTML.html#71,71,1707,781,1366,768,8-21-2022,11-46-26,139,depth_duration_stimuli/000191_2014-05-12_17-07-38_260595134347_rgbf000199-resize_0/000191_2014-05-12_17-07-38_260595134347_rgbf000199-resize_0-target.png,125,3.7995,10,14507,125,meters,jsons/VE125_randls_28.json,1823965,2170860,25,Man
139,555092,DepthScenes,duration_manipulation_targetAtFixation,jsons/VE125_randls_28.json,http://54.235.29.9/FacialAge/BNav_EC2/DepthDuration/v2_depth_duration_MTurk/v2_DepthDuration_HTML.html#71,71,1707,781,1366,768,8-21-2022,11-46-26,140,depth_duration_stimuli/002763_2014-06-22_19-13-10_094959634447_rgbf000075-resize_4/002763_2014-06-22_19-13-10_094959634447_rgbf000075-resize_4-target.png,125,1.68375,13,3169,124,meters,jsons/VE125_randls_28.json,1823965,2170860,25,Man
140,555092,DepthScenes,duration_manipulation_targetAtFixation,jsons/VE125_randls_28.json,http://54.235.29.9/FacialAge/BNav_EC2/DepthDuration/v2_depth_duration_MTurk/v2_DepthDuration_HTML.html#71,71,1707,781,1366,768,8-21-2022,11-46-26,141,depth_duration_stimuli/002209_2014-06-28_18-36-10_260595134347_rgbf000051-resize_1/002209_2014-06-28_18-36-10_260595134347_rgbf000051-resize_1-target.png,125,2.057,12,2451,123,meters,jsons/VE125_randls_28.json,1823965,2170860,25,Man
141,555092,DepthScenes,duration_manipulation_targetAtFixation,jsons/VE125_randls_28.json,http://54.235.29.9/FacialAge/BNav_EC2/DepthDuration/v2_depth_duration_MTurk/v2_DepthDuration_HTML.html#71,71,1707,781,1366,768,8-21-2022,11-46-26,142,depth_duration_stimuli/002057_2014-06-24_21-00-13_260595134347_rgbf000120-resize_1/002057_2014-06-24_21-00-13_260595134347_rgbf000120-resize_1-target.png,125,2.967,18,2713,124,meters,jsons/VE125_randls_28.json,1823965,2170860,25,Man
142,555092,DepthScenes,duration_manipulation_targetAtFixation,jsons/VE125_randls_28.json,http://54.235.29.9/FacialAge/BNav_EC2/DepthDuration/v2_depth_duration_MTurk/v2_DepthDuration_HTML.html#71,71,1707,781,1366,768,8-21-2022,11-46-26,143,depth_duration_stimuli/000709_2014-06-08_13-51-55_260595134347_rgbf000068-resize_3/000709_2014-06-08_13-51-55_260595134347_rgbf000068-resize_3-target.png,125,1.8030000000000002,12,2449,124,meters,jsons/VE125_randls_28.json,1823965,2170860,25,Man
143,555092,DepthScenes,duration_manipulation_targetAtFixation,jsons/VE125_randls_28.json,http://54.235.29.9/FacialAge/BNav_EC2/DepthDuration/v2_depth_duration_MTurk/v2_DepthDuration_HTML.html#71,71,1707,781,1366,768,8-21-2022,11-46-26,144,depth_duration_stimuli/000736_2014-06-08_18-24-15_260595134347_rgbf000206-resize_3/000736_2014-06-08_18-24-15_260595134347_rgbf000206-resize_3-target.png,125,3.515,13,2106,124,meters,jsons/VE125_randls_28.json,1823965,2170860,25,Man
144,555092,DepthScenes,duration_manipulation_targetAtFixation,jsons/VE125_randls_28.json,http://54.235.29.9/FacialAge/BNav_EC2/DepthDuration/v2_depth_duration_MTurk/v2_DepthDuration_HTML.html#71,71,1707,781,1366,768,8-21-2022,11-46-26,145,depth_duration_stimuli/000137_2014-05-20_17-04-49_260595134347_rgbf000120-resize_1/000137_2014-05-20_17-04-49_260595134347_rgbf000120-resize_1-target.png,125,3.786,26,3228,124,meters,jsons/VE125_randls_28.json,1823965,2170860,25,Man
145,555092,DepthScenes,duration_manipulation_targetAtFixation,jsons/VE125_randls_28.json,http://54.235.29.9/FacialAge/BNav_EC2/DepthDuration/v2_depth_duration_MTurk/v2_DepthDuration_HTML.html#71,71,1707,781,1366,768,8-21-2022,11-46-26,146,depth_duration_stimuli/001498_2014-06-19_17-45-14_260595134347_rgbf000129-resize_4/001498_2014-06-19_17-45-14_260595134347_rgbf000129-resize-original.jpg,125,1.4075,25,2402,124,meters,jsons/VE125_randls_28.json,1823965,2170860,25,Man
146,555092,DepthScenes,duration_manipulation_targetAtFixation,jsons/VE125_randls_28.json,http://54.235.29.9/FacialAge/BNav_EC2/DepthDuration/v2_depth_duration_MTurk/v2_DepthDuration_HTML.html#71,71,1707,781,1366,768,8-21-2022,11-46-26,147,depth_duration_stimuli/002905_2014-06-03_18-04-43_094959634447_rgbf000151-resize_2/002905_2014-06-03_18-04-43_094959634447_rgbf000151-resize_2-target.png,125,2.0295,36,2451,124,meters,jsons/VE125_randls_28.json,1823965,2170860,25,Man
147,555092,DepthScenes,duration_manipulation_targetAtFixation,jsons/VE125_randls_28.json,http://54.235.29.9/FacialAge/BNav_EC2/DepthDuration/v2_depth_duration_MTurk/v2_DepthDuration_HTML.html#71,71,1707,781,1366,768,8-21-2022,11-46-26,148,depth_duration_stimuli/003423_2014-05-21_10-23-26_094959634447_rgbf002665-resize_2/003423_2014-05-21_10-23-26_094959634447_rgbf002665-resize_2-target.png,125,3.2575,25,2439,125,meters,jsons/VE125_randls_28.json,1823965,2170860,25,Man
148,555092,DepthScenes,duration_manipulation_targetAtFixation,jsons/VE125_randls_28.json,http://54.235.29.9/FacialAge/BNav_EC2/DepthDuration/v2_depth_duration_MTurk/v2_DepthDuration_HTML.html#71,71,1707,781,1366,768,8-21-2022,11-46-26,149,depth_duration_stimuli/002549_2014-06-24_13-41-39_094959634447_rgbf000022-resize_3/002549_2014-06-24_13-41-39_094959634447_rgbf000022-resize_3-target.png,125,1.476,16,2506,125,meters,jsons/VE125_randls_28.json,1823965,2170860,25,Man
149,555092,DepthScenes,duration_manipulation_targetAtFixation,jsons/VE125_randls_28.json,http://54.235.29.9/FacialAge/BNav_EC2/DepthDuration/v2_depth_duration_MTurk/v2_DepthDuration_HTML.html#71,71,1707,781,1366,768,8-21-2022,11-46-26,150,depth_duration_stimuli/002750_2014-06-22_19-08-03_094959634447_rgbf000094-resize_4/002750_2014-06-22_19-08-03_094959634447_rgbf000094-resize_4-target.png,125,2.354,0,2042,126,meters,jsons/VE125_randls_28.json,1823965,2170860,25,Man
150,555092,DepthScenes,duration_manipulation_targetAtFixation,jsons/VE125_randls_28.json,http://54.235.29.9/FacialAge/BNav_EC2/DepthDuration/v2_depth_duration_MTurk/v2_DepthDuration_HTML.html#71,71,1707,781,1366,768,8-21-2022,11-46-26,151,depth_duration_stimuli/001806_2014-06-26_20-50-20_260595134347_rgbf000091-resize_1/001806_2014-06-26_20-50-20_260595134347_rgbf000091-resize_1-target.png,125,2.7305,25,2209,125,meters,jsons/VE125_randls_28.json,1823965,2170860,25,Man
151,555092,DepthScenes,duration_manipulation_targetAtFixation,jsons/VE125_randls_28.json,http://54.235.29.9/FacialAge/BNav_EC2/DepthDuration/v2_depth_duration_MTurk/v2_DepthDuration_HTML.html#71,71,1707,781,1366,768,8-21-2022,11-46-26,152,depth_duration_stimuli/001617_2014-06-20_11-35-32_260595134347_rgbf000066-resize_1/001617_2014-06-20_11-35-32_260595134347_rgbf000066-resize_1-target.png,125,3.7910000000000004,23,2659,126,meters,jsons/VE125_randls_28.json,1823965,2170860,25,Man
152,555092,DepthScenes,duration_manipulation_targetAtFixation,jsons/VE125_randls_28.json,http://54.235.29.9/FacialAge/BNav_EC2/DepthDuration/v2_depth_duration_MTurk/v2_DepthDuration_HTML.html#71,71,1707,781,1366,768,8-21-2022,11-46-26,153,depth_duration_stimuli/001449_2014-06-19_17-01-27_260595134347_rgbf000116-resize_2/001449_2014-06-19_17-01-27_260595134347_rgbf000116-resize_2-target.png,125,3.452,26,2445,124,meters,jsons/VE125_randls_28.json,1823965,2170860,25,Man
153,555092,DepthScenes,duration_manipulation_targetAtFixation,jsons/VE125_randls_28.json,http://54.235.29.9/FacialAge/BNav_EC2/DepthDuration/v2_depth_duration_MTurk/v2_DepthDuration_HTML.html#71,71,1707,781,1366,768,8-21-2022,11-46-26,154,depth_duration_stimuli/001450_2014-06-19_17-02-03_260595134347_rgbf000203-resize_4/001450_2014-06-19_17-02-03_260595134347_rgbf000203-resize_4-target.png,125,4.0106666666667,25,2733,122,meters,jsons/VE125_randls_28.json,1823965,2170860,25,Man
154,555092,DepthScenes,duration_manipulation_targetAtFixation,jsons/VE125_randls_28.json,http://54.235.29.9/FacialAge/BNav_EC2/DepthDuration/v2_depth_duration_MTurk/v2_DepthDuration_HTML.html#71,71,1707,781,1366,768,8-21-2022,11-46-26,155,depth_duration_stimuli/000758_2014-06-08_22-05-08_260595134347_rgbf000085-resize_0/000758_2014-06-08_22-05-08_260595134347_rgbf000085-resize_0-target.png,125,3.3810000000000002,13,2439,125,meters,jsons/VE125_randls_28.json,1823965,2170860,25,Man
155,555092,DepthScenes,duration_manipulation_targetAtFixation,jsons/VE125_randls_28.json,http://54.235.29.9/FacialAge/BNav_EC2/DepthDuration/v2_depth_duration_MTurk/v2_DepthDuration_HTML.html#71,71,1707,781,1366,768,8-21-2022,11-46-26,156,depth_duration_stimuli/000854_2014-06-09_19-43-13_260595134347_rgbf000066-resize_0/000854_2014-06-09_19-43-13_260595134347_rgbf000066-resize_0-target.png,125,3.068,20,3248,125,meters,jsons/VE125_randls_28.json,1823965,2170860,25,Man
156,555092,DepthScenes,duration_manipulation_targetAtFixation,jsons/VE125_randls_28.json,http://54.235.29.9/FacialAge/BNav_EC2/DepthDuration/v2_depth_duration_MTurk/v2_DepthDuration_HTML.html#71,71,1707,781,1366,768,8-21-2022,11-46-26,157,depth_duration_stimuli/001244_2014-06-17_16-47-45_260595134347_rgbf000030-resize_4/001244_2014-06-17_16-47-45_260595134347_rgbf000030-resize_4-target.png,125,2.0425,26,2647,124,meters,jsons/VE125_randls_28.json,1823965,2170860,25,Man
157,555092,DepthScenes,duration_manipulation_targetAtFixation,jsons/VE125_randls_28.json,http://54.235.29.9/FacialAge/BNav_EC2/DepthDuration/v2_depth_duration_MTurk/v2_DepthDuration_HTML.html#71,71,1707,781,1366,768,8-21-2022,11-46-26,158,depth_duration_stimuli/003495_2014-05-21_16-01-51_094959634447_rgbf000100-resize_3/003495_2014-05-21_16-01-51_094959634447_rgbf000100-resize_3-target.png,125,1.6255,3,2677,126,meters,jsons/VE125_randls_28.json,1823965,2170860,25,Man
158,555092,DepthScenes,duration_manipulation_targetAtFixation,jsons/VE125_randls_28.json,http://54.235.29.9/FacialAge/BNav_EC2/DepthDuration/v2_depth_duration_MTurk/v2_DepthDuration_HTML.html#71,71,1707,781,1366,768,8-21-2022,11-46-26,159,depth_duration_stimuli/002663_2014-06-13_15-50-26_094959634447_rgbf000075-resize_1/002663_2014-06-13_15-50-26_094959634447_rgbf000075-resize_1-target.png,125,4.7495,25,2473,124,meters,jsons/VE125_randls_28.json,1823965,2170860,25,Man
159,555092,DepthScenes,duration_manipulation_targetAtFixation,jsons/VE125_randls_28.json,http://54.235.29.9/FacialAge/BNav_EC2/DepthDuration/v2_depth_duration_MTurk/v2_DepthDuration_HTML.html#71,71,1707,781,1366,768,8-21-2022,11-46-26,160,depth_duration_stimuli/000409_2014-06-04_19-23-33_260595134347_rgbf000067-resize_0/000409_2014-06-04_19-23-33_260595134347_rgbf000067-resize_0-target.png,125,3.7335,25,3502,124,meters,jsons/VE125_randls_28.json,1823965,2170860,25,Man
160,555092,DepthScenes,duration_manipulation_targetAtFixation,jsons/VE125_randls_28.json,http://54.235.29.9/FacialAge/BNav_EC2/DepthDuration/v2_depth_duration_MTurk/v2_DepthDuration_HTML.html#71,71,1707,781,1366,768,8-21-2022,11-46-26,161,depth_duration_stimuli/002989_2014-06-15_12-25-03_094959634447_rgbf000150-resize_3/002989_2014-06-15_12-25-03_094959634447_rgbf000150-resize_3-target.png,125,4.1975,36,2606,125,meters,jsons/VE125_randls_28.json,1823965,2170860,25,Man
161,555092,DepthScenes,duration_manipulation_targetAtFixation,jsons/VE125_randls_28.json,http://54.235.29.9/FacialAge/BNav_EC2/DepthDuration/v2_depth_duration_MTurk/v2_DepthDuration_HTML.html#71,71,1707,781,1366,768,8-21-2022,11-46-26,162,depth_duration_stimuli/000866_2014-06-09_20-45-42_260595134347_rgbf000139-resize_1/000866_2014-06-09_20-45-42_260595134347_rgbf000139-resize_1-target.png,125,3.2155,15,3183,125,meters,jsons/VE125_randls_28.json,1823965,2170860,25,Man
162,555092,DepthScenes,duration_manipulation_targetAtFixation,jsons/VE125_randls_28.json,http://54.235.29.9/FacialAge/BNav_EC2/DepthDuration/v2_depth_duration_MTurk/v2_DepthDuration_HTML.html#71,71,1707,781,1366,768,8-21-2022,11-46-26,163,depth_duration_stimuli/002964_2014-06-08_17-46-11_094959634447_rgbf000091-resize_4/002964_2014-06-08_17-46-11_094959634447_rgbf000091-resize_4-target.png,125,1.6909999999999998,16,2753,125,meters,jsons/VE125_randls_28.json,1823965,2170860,25,Man
163,555092,DepthScenes,duration_manipulation_targetAtFixation,jsons/VE125_randls_28.json,http://54.235.29.9/FacialAge/BNav_EC2/DepthDuration/v2_depth_duration_MTurk/v2_DepthDuration_HTML.html#71,71,1707,781,1366,768,8-21-2022,11-46-26,164,depth_duration_stimuli/002136_2014-06-25_21-18-03_260595134347_rgbf000109-resize_3/002136_2014-06-25_21-18-03_260595134347_rgbf000109-resize_3-target.png,125,1.9569999999999999,25,2555,126,meters,jsons/VE125_randls_28.json,1823965,2170860,25,Man
