,subjID,experimentName,versionName,sequenceName,url,selected_row,windowWidth,windowHeight,screenWidth,screenHeight,startDate,startTime,trial,stimulus,duration,actual_depth,depth_estimate,trial_RT,log_sceneDuration,unitSelection,seq_filepath,experimentTime,totalTime,age,gender
0,556086,DepthScenes,duration_manipulation_targetAtFixation,jsons/v1_VE1000_randls_16_rotated.json,http://54.235.29.9/FacialAge/BNav_EC2/DepthDuration/v2_depth_duration_MTurk/v2_DepthDuration_HTML.html#129,129,1536,864,1536,864,8-22-2022,8-9-31,1,depth_duration_stimuli/002344_2014-06-28_20-06-29_260595134347_rgbf000030-resize_1/002344_2014-06-28_20-06-29_260595134347_rgbf000030-resize_1-target.png,1000,1.5795,1,4331,1008,feet,jsons/v1_VE1000_randls_16_rotated.json,836740,1033573,40,Woman
1,556086,DepthScenes,duration_manipulation_targetAtFixation,jsons/v1_VE1000_randls_16_rotated.json,http://54.235.29.9/FacialAge/BNav_EC2/DepthDuration/v2_depth_duration_MTurk/v2_DepthDuration_HTML.html#129,129,1536,864,1536,864,8-22-2022,8-9-31,2,depth_duration_stimuli/002725_2014-06-22_11-47-51_094959634447_rgbf000070-resize_1/002725_2014-06-22_11-47-51_094959634447_rgbf000070-resize_1-target.png,1000,2.195,5,6394,996,feet,jsons/v1_VE1000_randls_16_rotated.json,836740,1033573,40,Woman
2,556086,DepthScenes,duration_manipulation_targetAtFixation,jsons/v1_VE1000_randls_16_rotated.json,http://54.235.29.9/FacialAge/BNav_EC2/DepthDuration/v2_depth_duration_MTurk/v2_DepthDuration_HTML.html#129,129,1536,864,1536,864,8-22-2022,8-9-31,3,depth_duration_stimuli/001584_2014-06-20_11-07-43_260595134347_rgbf000002-resize_1/001584_2014-06-20_11-07-43_260595134347_rgbf000002-resize_1-target.png,1000,3.53,11,7028,995,feet,jsons/v1_VE1000_randls_16_rotated.json,836740,1033573,40,Woman
3,556086,DepthScenes,duration_manipulation_targetAtFixation,jsons/v1_VE1000_randls_16_rotated.json,http://54.235.29.9/FacialAge/BNav_EC2/DepthDuration/v2_depth_duration_MTurk/v2_DepthDuration_HTML.html#129,129,1536,864,1536,864,8-22-2022,8-9-31,4,depth_duration_stimuli/003621_2014-05-23_18-06-08_094959634447_rgbf000101-resize_1/003621_2014-05-23_18-06-08_094959634447_rgbf000101-resize_1-target.png,1000,3.9835,17,12064,987,feet,jsons/v1_VE1000_randls_16_rotated.json,836740,1033573,40,Woman
4,556086,DepthScenes,duration_manipulation_targetAtFixation,jsons/v1_VE1000_randls_16_rotated.json,http://54.235.29.9/FacialAge/BNav_EC2/DepthDuration/v2_depth_duration_MTurk/v2_DepthDuration_HTML.html#129,129,1536,864,1536,864,8-22-2022,8-9-31,5,depth_duration_stimuli/002750_2014-06-22_19-08-03_094959634447_rgbf000094-resize_4/002750_2014-06-22_19-08-03_094959634447_rgbf000094-resize_4-target.png,1000,2.354,8,4362,995,feet,jsons/v1_VE1000_randls_16_rotated.json,836740,1033573,40,Woman
5,556086,DepthScenes,duration_manipulation_targetAtFixation,jsons/v1_VE1000_randls_16_rotated.json,http://54.235.29.9/FacialAge/BNav_EC2/DepthDuration/v2_depth_duration_MTurk/v2_DepthDuration_HTML.html#129,129,1536,864,1536,864,8-22-2022,8-9-31,6,depth_duration_stimuli/002549_2014-06-24_13-41-39_094959634447_rgbf000022-resize_3/002549_2014-06-24_13-41-39_094959634447_rgbf000022-resize_3-target.png,1000,1.476,2,3847,999,feet,jsons/v1_VE1000_randls_16_rotated.json,836740,1033573,40,Woman
6,556086,DepthScenes,duration_manipulation_targetAtFixation,jsons/v1_VE1000_randls_16_rotated.json,http://54.235.29.9/FacialAge/BNav_EC2/DepthDuration/v2_depth_duration_MTurk/v2_DepthDuration_HTML.html#129,129,1536,864,1536,864,8-22-2022,8-9-31,7,depth_duration_stimuli/003083_2014-06-15_15-21-03_094959634447_rgbf000063-resize_1/003083_2014-06-15_15-21-03_094959634447_rgbf000063-resize_1-target.png,1000,4.1405,12,5683,997,feet,jsons/v1_VE1000_randls_16_rotated.json,836740,1033573,40,Woman
7,556086,DepthScenes,duration_manipulation_targetAtFixation,jsons/v1_VE1000_randls_16_rotated.json,http://54.235.29.9/FacialAge/BNav_EC2/DepthDuration/v2_depth_duration_MTurk/v2_DepthDuration_HTML.html#129,129,1536,864,1536,864,8-22-2022,8-9-31,8,depth_duration_stimuli/000486_2014-06-09_20-47-20_260595134347_rgbf000143-resize_2/000486_2014-06-09_20-47-20_260595134347_rgbf000143-resize_2-target.png,1000,4.8325,15,6527,1010,feet,jsons/v1_VE1000_randls_16_rotated.json,836740,1033573,40,Woman
8,556086,DepthScenes,duration_manipulation_targetAtFixation,jsons/v1_VE1000_randls_16_rotated.json,http://54.235.29.9/FacialAge/BNav_EC2/DepthDuration/v2_depth_duration_MTurk/v2_DepthDuration_HTML.html#129,129,1536,864,1536,864,8-22-2022,8-9-31,9,depth_duration_stimuli/002414_2014-06-28_20-24-58_260595134347_rgbf000067-resize_4/002414_2014-06-28_20-24-58_260595134347_rgbf000067-resize_4-target.png,1000,4.363,14,5014,995,feet,jsons/v1_VE1000_randls_16_rotated.json,836740,1033573,40,Woman
9,556086,DepthScenes,duration_manipulation_targetAtFixation,jsons/v1_VE1000_randls_16_rotated.json,http://54.235.29.9/FacialAge/BNav_EC2/DepthDuration/v2_depth_duration_MTurk/v2_DepthDuration_HTML.html#129,129,1536,864,1536,864,8-22-2022,8-9-31,10,depth_duration_stimuli/000773_2014-06-08_22-24-54_260595134347_rgbf000093-resize_1/000773_2014-06-08_22-24-54_260595134347_rgbf000093-resize_1-target.png,1000,4.973,9,7221,995,feet,jsons/v1_VE1000_randls_16_rotated.json,836740,1033573,40,Woman
10,556086,DepthScenes,duration_manipulation_targetAtFixation,jsons/v1_VE1000_randls_16_rotated.json,http://54.235.29.9/FacialAge/BNav_EC2/DepthDuration/v2_depth_duration_MTurk/v2_DepthDuration_HTML.html#129,129,1536,864,1536,864,8-22-2022,8-9-31,11,depth_duration_stimuli/000780_2014-06-08_22-28-29_260595134347_rgbf000126-resize_1/000780_2014-06-08_22-28-29_260595134347_rgbf000126-resize_1-target.png,1000,3.3825,16,8106,999,feet,jsons/v1_VE1000_randls_16_rotated.json,836740,1033573,40,Woman
11,556086,DepthScenes,duration_manipulation_targetAtFixation,jsons/v1_VE1000_randls_16_rotated.json,http://54.235.29.9/FacialAge/BNav_EC2/DepthDuration/v2_depth_duration_MTurk/v2_DepthDuration_HTML.html#129,129,1536,864,1536,864,8-22-2022,8-9-31,12,depth_duration_stimuli/002445_2014-06-28_20-32-16_260595134347_rgbf000029-resize_4/002445_2014-06-28_20-32-16_260595134347_rgbf000029-resize_4-target.png,1000,2.5315,12,7610,998,feet,jsons/v1_VE1000_randls_16_rotated.json,836740,1033573,40,Woman
12,556086,DepthScenes,duration_manipulation_targetAtFixation,jsons/v1_VE1000_randls_16_rotated.json,http://54.235.29.9/FacialAge/BNav_EC2/DepthDuration/v2_depth_duration_MTurk/v2_DepthDuration_HTML.html#129,129,1536,864,1536,864,8-22-2022,8-9-31,13,depth_duration_stimuli/001094_2014-06-15_17-36-00_260595134347_rgbf000205-resize_0/001094_2014-06-15_17-36-00_260595134347_rgbf000205-resize_0-target.png,1000,4.2175,18,5484,1000,feet,jsons/v1_VE1000_randls_16_rotated.json,836740,1033573,40,Woman
13,556086,DepthScenes,duration_manipulation_targetAtFixation,jsons/v1_VE1000_randls_16_rotated.json,http://54.235.29.9/FacialAge/BNav_EC2/DepthDuration/v2_depth_duration_MTurk/v2_DepthDuration_HTML.html#129,129,1536,864,1536,864,8-22-2022,8-9-31,14,depth_duration_stimuli/000692_2014-06-08_13-09-42_260595134347_rgbf000199-resize_2/000692_2014-06-08_13-09-42_260595134347_rgbf000199-resize_2-target.png,1000,3.661,12,5551,997,feet,jsons/v1_VE1000_randls_16_rotated.json,836740,1033573,40,Woman
14,556086,DepthScenes,duration_manipulation_targetAtFixation,jsons/v1_VE1000_randls_16_rotated.json,http://54.235.29.9/FacialAge/BNav_EC2/DepthDuration/v2_depth_duration_MTurk/v2_DepthDuration_HTML.html#129,129,1536,864,1536,864,8-22-2022,8-9-31,15,depth_duration_stimuli/003423_2014-05-21_10-23-26_094959634447_rgbf002665-resize_2/003423_2014-05-21_10-23-26_094959634447_rgbf002665-resize_2-target.png,1000,3.2575,7,3912,999,feet,jsons/v1_VE1000_randls_16_rotated.json,836740,1033573,40,Woman
15,556086,DepthScenes,duration_manipulation_targetAtFixation,jsons/v1_VE1000_randls_16_rotated.json,http://54.235.29.9/FacialAge/BNav_EC2/DepthDuration/v2_depth_duration_MTurk/v2_DepthDuration_HTML.html#129,129,1536,864,1536,864,8-22-2022,8-9-31,16,depth_duration_stimuli/002905_2014-06-03_18-04-43_094959634447_rgbf000151-resize_2/002905_2014-06-03_18-04-43_094959634447_rgbf000151-resize_2-target.png,1000,2.0295,4,5544,994,feet,jsons/v1_VE1000_randls_16_rotated.json,836740,1033573,40,Woman
16,556086,DepthScenes,duration_manipulation_targetAtFixation,jsons/v1_VE1000_randls_16_rotated.json,http://54.235.29.9/FacialAge/BNav_EC2/DepthDuration/v2_depth_duration_MTurk/v2_DepthDuration_HTML.html#129,129,1536,864,1536,864,8-22-2022,8-9-31,17,depth_duration_stimuli/003081_2014-06-15_15-19-16_094959634447_rgbf000150-resize_1/003081_2014-06-15_15-19-16_094959634447_rgbf000150-resize_1-target.png,1000,3.9125,8,5834,997,feet,jsons/v1_VE1000_randls_16_rotated.json,836740,1033573,40,Woman
17,556086,DepthScenes,duration_manipulation_targetAtFixation,jsons/v1_VE1000_randls_16_rotated.json,http://54.235.29.9/FacialAge/BNav_EC2/DepthDuration/v2_depth_duration_MTurk/v2_DepthDuration_HTML.html#129,129,1536,864,1536,864,8-22-2022,8-9-31,18,depth_duration_stimuli/001417_2014-06-19_16-25-36_260595134347_rgbf000115-resize_5/001417_2014-06-19_16-25-36_260595134347_rgbf000115-resize_5-target.png,1000,4.6255,17,5648,994,feet,jsons/v1_VE1000_randls_16_rotated.json,836740,1033573,40,Woman
18,556086,DepthScenes,duration_manipulation_targetAtFixation,jsons/v1_VE1000_randls_16_rotated.json,http://54.235.29.9/FacialAge/BNav_EC2/DepthDuration/v2_depth_duration_MTurk/v2_DepthDuration_HTML.html#129,129,1536,864,1536,864,8-22-2022,8-9-31,19,depth_duration_stimuli/001498_2014-06-19_17-45-14_260595134347_rgbf000129-resize_4/001498_2014-06-19_17-45-14_260595134347_rgbf000129-resize-original.jpg,1000,1.4075,0,5884,994,feet,jsons/v1_VE1000_randls_16_rotated.json,836740,1033573,40,Woman
19,556086,DepthScenes,duration_manipulation_targetAtFixation,jsons/v1_VE1000_randls_16_rotated.json,http://54.235.29.9/FacialAge/BNav_EC2/DepthDuration/v2_depth_duration_MTurk/v2_DepthDuration_HTML.html#129,129,1536,864,1536,864,8-22-2022,8-9-31,20,depth_duration_stimuli/001235_2014-06-17_16-37-36_260595134347_rgbf000084-resize_4/001235_2014-06-17_16-37-36_260595134347_rgbf000084-resize_4-target.png,1000,3.6605,8,5622,995,feet,jsons/v1_VE1000_randls_16_rotated.json,836740,1033573,40,Woman
20,556086,DepthScenes,duration_manipulation_targetAtFixation,jsons/v1_VE1000_randls_16_rotated.json,http://54.235.29.9/FacialAge/BNav_EC2/DepthDuration/v2_depth_duration_MTurk/v2_DepthDuration_HTML.html#129,129,1536,864,1536,864,8-22-2022,8-9-31,21,depth_duration_stimuli/000788_2014-06-08_22-34-36_260595134347_rgbf000131-resize_1/000788_2014-06-08_22-34-36_260595134347_rgbf000131-resize_1-target.png,1000,3.359,10,5241,998,feet,jsons/v1_VE1000_randls_16_rotated.json,836740,1033573,40,Woman
21,556086,DepthScenes,duration_manipulation_targetAtFixation,jsons/v1_VE1000_randls_16_rotated.json,http://54.235.29.9/FacialAge/BNav_EC2/DepthDuration/v2_depth_duration_MTurk/v2_DepthDuration_HTML.html#129,129,1536,864,1536,864,8-22-2022,8-9-31,22,depth_duration_stimuli/003228_2014-05-14_13-42-35_094959634447_rgbf000101-resize_1/003228_2014-05-14_13-42-35_094959634447_rgbf000101-resize_1-target.png,1000,1.9680000000000002,6,5595,993,feet,jsons/v1_VE1000_randls_16_rotated.json,836740,1033573,40,Woman
22,556086,DepthScenes,duration_manipulation_targetAtFixation,jsons/v1_VE1000_randls_16_rotated.json,http://54.235.29.9/FacialAge/BNav_EC2/DepthDuration/v2_depth_duration_MTurk/v2_DepthDuration_HTML.html#129,129,1536,864,1536,864,8-22-2022,8-9-31,23,depth_duration_stimuli/002600_2014-06-24_14-27-04_094959634447_rgbf000074-resize_2/002600_2014-06-24_14-27-04_094959634447_rgbf000074-resize_2-target.png,1000,2.7575,7,6186,1006,feet,jsons/v1_VE1000_randls_16_rotated.json,836740,1033573,40,Woman
23,556086,DepthScenes,duration_manipulation_targetAtFixation,jsons/v1_VE1000_randls_16_rotated.json,http://54.235.29.9/FacialAge/BNav_EC2/DepthDuration/v2_depth_duration_MTurk/v2_DepthDuration_HTML.html#129,129,1536,864,1536,864,8-22-2022,8-9-31,24,depth_duration_stimuli/001516_2014-06-20_16-25-09_260595134347_rgbf000076-resize_2/001516_2014-06-20_16-25-09_260595134347_rgbf000076-resize_2-target.png,1000,1.7445,8,8041,997,feet,jsons/v1_VE1000_randls_16_rotated.json,836740,1033573,40,Woman
24,556086,DepthScenes,duration_manipulation_targetAtFixation,jsons/v1_VE1000_randls_16_rotated.json,http://54.235.29.9/FacialAge/BNav_EC2/DepthDuration/v2_depth_duration_MTurk/v2_DepthDuration_HTML.html#129,129,1536,864,1536,864,8-22-2022,8-9-31,25,depth_duration_stimuli/002118_2014-06-25_20-32-08_260595134347_rgbf000078-resize_1/002118_2014-06-25_20-32-08_260595134347_rgbf000078-resize_1-target.png,1000,2.6460000000000004,16,6714,995,feet,jsons/v1_VE1000_randls_16_rotated.json,836740,1033573,40,Woman
25,556086,DepthScenes,duration_manipulation_targetAtFixation,jsons/v1_VE1000_randls_16_rotated.json,http://54.235.29.9/FacialAge/BNav_EC2/DepthDuration/v2_depth_duration_MTurk/v2_DepthDuration_HTML.html#129,129,1536,864,1536,864,8-22-2022,8-9-31,26,depth_duration_stimuli/002805_2014-06-22_19-54-03_094959634447_rgbf000079-resize_1/002805_2014-06-22_19-54-03_094959634447_rgbf000079-resize_1-target.png,1000,3.1439999999999997,14,12259,996,feet,jsons/v1_VE1000_randls_16_rotated.json,836740,1033573,40,Woman
26,556086,DepthScenes,duration_manipulation_targetAtFixation,jsons/v1_VE1000_randls_16_rotated.json,http://54.235.29.9/FacialAge/BNav_EC2/DepthDuration/v2_depth_duration_MTurk/v2_DepthDuration_HTML.html#129,129,1536,864,1536,864,8-22-2022,8-9-31,27,depth_duration_stimuli/000906_2014-06-08_13-35-43_260595134347_rgbf000155-resize_1/000906_2014-06-08_13-35-43_260595134347_rgbf000155-resize_1-target.png,1000,2.8489999999999998,20,5048,998,feet,jsons/v1_VE1000_randls_16_rotated.json,836740,1033573,40,Woman
27,556086,DepthScenes,duration_manipulation_targetAtFixation,jsons/v1_VE1000_randls_16_rotated.json,http://54.235.29.9/FacialAge/BNav_EC2/DepthDuration/v2_depth_duration_MTurk/v2_DepthDuration_HTML.html#129,129,1536,864,1536,864,8-22-2022,8-9-31,28,depth_duration_stimuli/002758_2014-06-22_19-11-20_094959634447_rgbf000128-resize_1/002758_2014-06-22_19-11-20_094959634447_rgbf000128-resize_1-target.png,1000,2.555,8,8666,999,feet,jsons/v1_VE1000_randls_16_rotated.json,836740,1033573,40,Woman
28,556086,DepthScenes,duration_manipulation_targetAtFixation,jsons/v1_VE1000_randls_16_rotated.json,http://54.235.29.9/FacialAge/BNav_EC2/DepthDuration/v2_depth_duration_MTurk/v2_DepthDuration_HTML.html#129,129,1536,864,1536,864,8-22-2022,8-9-31,29,depth_duration_stimuli/002630_2014-06-24_14-47-50_094959634447_rgbf000055-resize_1/002630_2014-06-24_14-47-50_094959634447_rgbf000055-resize_1-target.png,1000,3.0095,25,5303,995,feet,jsons/v1_VE1000_randls_16_rotated.json,836740,1033573,40,Woman
29,556086,DepthScenes,duration_manipulation_targetAtFixation,jsons/v1_VE1000_randls_16_rotated.json,http://54.235.29.9/FacialAge/BNav_EC2/DepthDuration/v2_depth_duration_MTurk/v2_DepthDuration_HTML.html#129,129,1536,864,1536,864,8-22-2022,8-9-31,30,depth_duration_stimuli/002072_2014-06-24_21-48-06_260595134347_rgbf000115-resize_0/002072_2014-06-24_21-48-06_260595134347_rgbf000115-resize-original.jpg,1000,4.702,0,4034,996,feet,jsons/v1_VE1000_randls_16_rotated.json,836740,1033573,40,Woman
30,556086,DepthScenes,duration_manipulation_targetAtFixation,jsons/v1_VE1000_randls_16_rotated.json,http://54.235.29.9/FacialAge/BNav_EC2/DepthDuration/v2_depth_duration_MTurk/v2_DepthDuration_HTML.html#129,129,1536,864,1536,864,8-22-2022,8-9-31,31,depth_duration_stimuli/003338_2014-05-20_11-01-23_094959634447_rgbf000051-resize_6/003338_2014-05-20_11-01-23_094959634447_rgbf000051-resize_6-target.png,1000,1.693,3,3797,1002,feet,jsons/v1_VE1000_randls_16_rotated.json,836740,1033573,40,Woman
31,556086,DepthScenes,duration_manipulation_targetAtFixation,jsons/v1_VE1000_randls_16_rotated.json,http://54.235.29.9/FacialAge/BNav_EC2/DepthDuration/v2_depth_duration_MTurk/v2_DepthDuration_HTML.html#129,129,1536,864,1536,864,8-22-2022,8-9-31,32,depth_duration_stimuli/002509_2014-06-24_13-19-22_094959634447_rgbf000077-resize_0/002509_2014-06-24_13-19-22_094959634447_rgbf000077-resize_0-target.png,1000,1.3065,4,3803,995,feet,jsons/v1_VE1000_randls_16_rotated.json,836740,1033573,40,Woman
32,556086,DepthScenes,duration_manipulation_targetAtFixation,jsons/v1_VE1000_randls_16_rotated.json,http://54.235.29.9/FacialAge/BNav_EC2/DepthDuration/v2_depth_duration_MTurk/v2_DepthDuration_HTML.html#129,129,1536,864,1536,864,8-22-2022,8-9-31,33,depth_duration_stimuli/002199_2014-06-28_18-33-56_260595134347_rgbf000074-resize_0/002199_2014-06-28_18-33-56_260595134347_rgbf000074-resize_0-target.png,1000,1.996,4,3784,991,feet,jsons/v1_VE1000_randls_16_rotated.json,836740,1033573,40,Woman
33,556086,DepthScenes,duration_manipulation_targetAtFixation,jsons/v1_VE1000_randls_16_rotated.json,http://54.235.29.9/FacialAge/BNav_EC2/DepthDuration/v2_depth_duration_MTurk/v2_DepthDuration_HTML.html#129,129,1536,864,1536,864,8-22-2022,8-9-31,34,depth_duration_stimuli/001056_2014-06-08_18-46-44_260595134347_rgbf000068-resize_0/001056_2014-06-08_18-46-44_260595134347_rgbf000068-resize_0-target.png,1000,2.6625,9,4204,1002,feet,jsons/v1_VE1000_randls_16_rotated.json,836740,1033573,40,Woman
34,556086,DepthScenes,duration_manipulation_targetAtFixation,jsons/v1_VE1000_randls_16_rotated.json,http://54.235.29.9/FacialAge/BNav_EC2/DepthDuration/v2_depth_duration_MTurk/v2_DepthDuration_HTML.html#129,129,1536,864,1536,864,8-22-2022,8-9-31,35,depth_duration_stimuli/001100_2014-06-15_17-46-26_260595134347_rgbf000225-resize_2/001100_2014-06-15_17-46-26_260595134347_rgbf000225-resize_2-target.png,1000,2.24,6,4280,997,feet,jsons/v1_VE1000_randls_16_rotated.json,836740,1033573,40,Woman
35,556086,DepthScenes,duration_manipulation_targetAtFixation,jsons/v1_VE1000_randls_16_rotated.json,http://54.235.29.9/FacialAge/BNav_EC2/DepthDuration/v2_depth_duration_MTurk/v2_DepthDuration_HTML.html#129,129,1536,864,1536,864,8-22-2022,8-9-31,36,depth_duration_stimuli/002784_2014-06-22_19-26-30_094959634447_rgbf000083-resize_3/002784_2014-06-22_19-26-30_094959634447_rgbf000083-resize_3-target.png,1000,1.8046666666667,8,5297,995,feet,jsons/v1_VE1000_randls_16_rotated.json,836740,1033573,40,Woman
36,556086,DepthScenes,duration_manipulation_targetAtFixation,jsons/v1_VE1000_randls_16_rotated.json,http://54.235.29.9/FacialAge/BNav_EC2/DepthDuration/v2_depth_duration_MTurk/v2_DepthDuration_HTML.html#129,129,1536,864,1536,864,8-22-2022,8-9-31,37,depth_duration_stimuli/002875_2014-06-01_15-19-00_094959634447_rgbf000151-resize_1/002875_2014-06-01_15-19-00_094959634447_rgbf000151-resize_1-target.png,1000,1.9675,13,5355,1000,feet,jsons/v1_VE1000_randls_16_rotated.json,836740,1033573,40,Woman
37,556086,DepthScenes,duration_manipulation_targetAtFixation,jsons/v1_VE1000_randls_16_rotated.json,http://54.235.29.9/FacialAge/BNav_EC2/DepthDuration/v2_depth_duration_MTurk/v2_DepthDuration_HTML.html#129,129,1536,864,1536,864,8-22-2022,8-9-31,38,depth_duration_stimuli/001011_2014-06-08_23-18-54_260595134347_rgbf000044-resize_4/001011_2014-06-08_23-18-54_260595134347_rgbf000044-resize_4-target.png,1000,2.4730000000000003,16,6388,991,feet,jsons/v1_VE1000_randls_16_rotated.json,836740,1033573,40,Woman
38,556086,DepthScenes,duration_manipulation_targetAtFixation,jsons/v1_VE1000_randls_16_rotated.json,http://54.235.29.9/FacialAge/BNav_EC2/DepthDuration/v2_depth_duration_MTurk/v2_DepthDuration_HTML.html#129,129,1536,864,1536,864,8-22-2022,8-9-31,39,depth_duration_stimuli/000549_2014-06-08_22-10-24_260595134347_rgbf000247-resize_3/000549_2014-06-08_22-10-24_260595134347_rgbf000247-resize_3-target.png,1000,1.841,4,7451,995,feet,jsons/v1_VE1000_randls_16_rotated.json,836740,1033573,40,Woman
39,556086,DepthScenes,duration_manipulation_targetAtFixation,jsons/v1_VE1000_randls_16_rotated.json,http://54.235.29.9/FacialAge/BNav_EC2/DepthDuration/v2_depth_duration_MTurk/v2_DepthDuration_HTML.html#129,129,1536,864,1536,864,8-22-2022,8-9-31,40,depth_duration_stimuli/001055_2014-06-08_18-45-35_260595134347_rgbf000111-resize_4/001055_2014-06-08_18-45-35_260595134347_rgbf000111-resize_4-target.png,1000,2.4290000000000003,14,6895,995,feet,jsons/v1_VE1000_randls_16_rotated.json,836740,1033573,40,Woman
40,556086,DepthScenes,duration_manipulation_targetAtFixation,jsons/v1_VE1000_randls_16_rotated.json,http://54.235.29.9/FacialAge/BNav_EC2/DepthDuration/v2_depth_duration_MTurk/v2_DepthDuration_HTML.html#129,129,1536,864,1536,864,8-22-2022,8-9-31,41,depth_duration_stimuli/002136_2014-06-25_21-18-03_260595134347_rgbf000109-resize_3/002136_2014-06-25_21-18-03_260595134347_rgbf000109-resize_3-target.png,1000,1.9569999999999999,8,4276,996,feet,jsons/v1_VE1000_randls_16_rotated.json,836740,1033573,40,Woman
41,556086,DepthScenes,duration_manipulation_targetAtFixation,jsons/v1_VE1000_randls_16_rotated.json,http://54.235.29.9/FacialAge/BNav_EC2/DepthDuration/v2_depth_duration_MTurk/v2_DepthDuration_HTML.html#129,129,1536,864,1536,864,8-22-2022,8-9-31,42,depth_duration_stimuli/002964_2014-06-08_17-46-11_094959634447_rgbf000091-resize_4/002964_2014-06-08_17-46-11_094959634447_rgbf000091-resize_4-target.png,1000,1.6909999999999998,3,5390,992,feet,jsons/v1_VE1000_randls_16_rotated.json,836740,1033573,40,Woman
42,556086,DepthScenes,duration_manipulation_targetAtFixation,jsons/v1_VE1000_randls_16_rotated.json,http://54.235.29.9/FacialAge/BNav_EC2/DepthDuration/v2_depth_duration_MTurk/v2_DepthDuration_HTML.html#129,129,1536,864,1536,864,8-22-2022,8-9-31,43,depth_duration_stimuli/002545_2014-06-24_13-38-53_094959634447_rgbf000080-resize_4/002545_2014-06-24_13-38-53_094959634447_rgbf000080-resize_4-target.png,1000,1.9205,11,6950,996,feet,jsons/v1_VE1000_randls_16_rotated.json,836740,1033573,40,Woman
43,556086,DepthScenes,duration_manipulation_targetAtFixation,jsons/v1_VE1000_randls_16_rotated.json,http://54.235.29.9/FacialAge/BNav_EC2/DepthDuration/v2_depth_duration_MTurk/v2_DepthDuration_HTML.html#129,129,1536,864,1536,864,8-22-2022,8-9-31,44,depth_duration_stimuli/001092_2014-06-15_17-34-58_260595134347_rgbf000171-resize_3/001092_2014-06-15_17-34-58_260595134347_rgbf000171-resize_3-target.png,1000,2.6935,10,6953,999,feet,jsons/v1_VE1000_randls_16_rotated.json,836740,1033573,40,Woman
44,556086,DepthScenes,duration_manipulation_targetAtFixation,jsons/v1_VE1000_randls_16_rotated.json,http://54.235.29.9/FacialAge/BNav_EC2/DepthDuration/v2_depth_duration_MTurk/v2_DepthDuration_HTML.html#129,129,1536,864,1536,864,8-22-2022,8-9-31,45,depth_duration_stimuli/000742_2014-06-08_18-48-09_260595134347_rgbf000164-resize_4/000742_2014-06-08_18-48-09_260595134347_rgbf000164-resize_4-target.png,1000,4.632,22,5426,993,feet,jsons/v1_VE1000_randls_16_rotated.json,836740,1033573,40,Woman
45,556086,DepthScenes,duration_manipulation_targetAtFixation,jsons/v1_VE1000_randls_16_rotated.json,http://54.235.29.9/FacialAge/BNav_EC2/DepthDuration/v2_depth_duration_MTurk/v2_DepthDuration_HTML.html#129,129,1536,864,1536,864,8-22-2022,8-9-31,46,depth_duration_stimuli/001066_2014-06-08_22-03-20_260595134347_rgbf000066-resize_4/001066_2014-06-08_22-03-20_260595134347_rgbf000066-resize_4-target.png,1000,4.2330000000000005,27,4728,995,feet,jsons/v1_VE1000_randls_16_rotated.json,836740,1033573,40,Woman
46,556086,DepthScenes,duration_manipulation_targetAtFixation,jsons/v1_VE1000_randls_16_rotated.json,http://54.235.29.9/FacialAge/BNav_EC2/DepthDuration/v2_depth_duration_MTurk/v2_DepthDuration_HTML.html#129,129,1536,864,1536,864,8-22-2022,8-9-31,47,depth_duration_stimuli/002660_2014-06-13_15-44-18_094959634447_rgbf001878-resize_2/002660_2014-06-13_15-44-18_094959634447_rgbf001878-resize_2-target.png,1000,3.576,12,4927,994,feet,jsons/v1_VE1000_randls_16_rotated.json,836740,1033573,40,Woman
47,556086,DepthScenes,duration_manipulation_targetAtFixation,jsons/v1_VE1000_randls_16_rotated.json,http://54.235.29.9/FacialAge/BNav_EC2/DepthDuration/v2_depth_duration_MTurk/v2_DepthDuration_HTML.html#129,129,1536,864,1536,864,8-22-2022,8-9-31,48,depth_duration_stimuli/002153_2014-06-25_21-27-18_260595134347_rgbf000038-resize_5/002153_2014-06-25_21-27-18_260595134347_rgbf000038-resize_5-target.png,1000,2.505,15,6054,997,feet,jsons/v1_VE1000_randls_16_rotated.json,836740,1033573,40,Woman
48,556086,DepthScenes,duration_manipulation_targetAtFixation,jsons/v1_VE1000_randls_16_rotated.json,http://54.235.29.9/FacialAge/BNav_EC2/DepthDuration/v2_depth_duration_MTurk/v2_DepthDuration_HTML.html#129,129,1536,864,1536,864,8-22-2022,8-9-31,49,depth_duration_stimuli/001170_2014-06-17_15-43-44_260595134347_rgbf000096-resize_6/001170_2014-06-17_15-43-44_260595134347_rgbf000096-resize-original.jpg,1000,1.1909999999999998,0,3956,996,feet,jsons/v1_VE1000_randls_16_rotated.json,836740,1033573,40,Woman
49,556086,DepthScenes,duration_manipulation_targetAtFixation,jsons/v1_VE1000_randls_16_rotated.json,http://54.235.29.9/FacialAge/BNav_EC2/DepthDuration/v2_depth_duration_MTurk/v2_DepthDuration_HTML.html#129,129,1536,864,1536,864,8-22-2022,8-9-31,50,depth_duration_stimuli/002637_2014-06-24_14-51-13_094959634447_rgbf000066-resize_4/002637_2014-06-24_14-51-13_094959634447_rgbf000066-resize_4-target.png,1000,1.9955,21,6147,989,feet,jsons/v1_VE1000_randls_16_rotated.json,836740,1033573,40,Woman
50,556086,DepthScenes,duration_manipulation_targetAtFixation,jsons/v1_VE1000_randls_16_rotated.json,http://54.235.29.9/FacialAge/BNav_EC2/DepthDuration/v2_depth_duration_MTurk/v2_DepthDuration_HTML.html#129,129,1536,864,1536,864,8-22-2022,8-9-31,51,depth_duration_stimuli/003534_2014-05-22_15-06-10_094959634447_rgbf000102-resize_4/003534_2014-05-22_15-06-10_094959634447_rgbf000102-resize_4-target.png,1000,1.426,4,4552,1000,feet,jsons/v1_VE1000_randls_16_rotated.json,836740,1033573,40,Woman
51,556086,DepthScenes,duration_manipulation_targetAtFixation,jsons/v1_VE1000_randls_16_rotated.json,http://54.235.29.9/FacialAge/BNav_EC2/DepthDuration/v2_depth_duration_MTurk/v2_DepthDuration_HTML.html#129,129,1536,864,1536,864,8-22-2022,8-9-31,52,depth_duration_stimuli/003048_2014-06-15_13-49-43_094959634447_rgbf000150-resize_1/003048_2014-06-15_13-49-43_094959634447_rgbf000150-resize_1-target.png,1000,4.0035,23,4776,992,feet,jsons/v1_VE1000_randls_16_rotated.json,836740,1033573,40,Woman
52,556086,DepthScenes,duration_manipulation_targetAtFixation,jsons/v1_VE1000_randls_16_rotated.json,http://54.235.29.9/FacialAge/BNav_EC2/DepthDuration/v2_depth_duration_MTurk/v2_DepthDuration_HTML.html#129,129,1536,864,1536,864,8-22-2022,8-9-31,53,depth_duration_stimuli/002043_2014-06-24_20-29-38_260595134347_rgbf000039-resize_4/002043_2014-06-24_20-29-38_260595134347_rgbf000039-resize_4-target.png,1000,2.8435,16,6062,998,feet,jsons/v1_VE1000_randls_16_rotated.json,836740,1033573,40,Woman
53,556086,DepthScenes,duration_manipulation_targetAtFixation,jsons/v1_VE1000_randls_16_rotated.json,http://54.235.29.9/FacialAge/BNav_EC2/DepthDuration/v2_depth_duration_MTurk/v2_DepthDuration_HTML.html#129,129,1536,864,1536,864,8-22-2022,8-9-31,54,depth_duration_stimuli/000734_2014-06-08_17-39-11_260595134347_rgbf000128-resize_2/000734_2014-06-08_17-39-11_260595134347_rgbf000128-resize_2-target.png,1000,4.098,14,4600,995,feet,jsons/v1_VE1000_randls_16_rotated.json,836740,1033573,40,Woman
54,556086,DepthScenes,duration_manipulation_targetAtFixation,jsons/v1_VE1000_randls_16_rotated.json,http://54.235.29.9/FacialAge/BNav_EC2/DepthDuration/v2_depth_duration_MTurk/v2_DepthDuration_HTML.html#129,129,1536,864,1536,864,8-22-2022,8-9-31,55,depth_duration_stimuli/000739_2014-06-08_18-45-58_260595134347_rgbf000068-resize_1/000739_2014-06-08_18-45-58_260595134347_rgbf000068-resize_1-target.png,1000,3.534,19,5647,992,feet,jsons/v1_VE1000_randls_16_rotated.json,836740,1033573,40,Woman
55,556086,DepthScenes,duration_manipulation_targetAtFixation,jsons/v1_VE1000_randls_16_rotated.json,http://54.235.29.9/FacialAge/BNav_EC2/DepthDuration/v2_depth_duration_MTurk/v2_DepthDuration_HTML.html#129,129,1536,864,1536,864,8-22-2022,8-9-31,56,depth_duration_stimuli/000635_2014-06-08_16-38-42_260595134347_rgbf000106-resize_1/000635_2014-06-08_16-38-42_260595134347_rgbf000106-resize_1-target.png,1000,2.074,21,5411,995,feet,jsons/v1_VE1000_randls_16_rotated.json,836740,1033573,40,Woman
56,556086,DepthScenes,duration_manipulation_targetAtFixation,jsons/v1_VE1000_randls_16_rotated.json,http://54.235.29.9/FacialAge/BNav_EC2/DepthDuration/v2_depth_duration_MTurk/v2_DepthDuration_HTML.html#129,129,1536,864,1536,864,8-22-2022,8-9-31,57,depth_duration_stimuli/002279_2014-06-28_18-55-32_260595134347_rgbf000040-resize_5/002279_2014-06-28_18-55-32_260595134347_rgbf000040-resize_5-target.png,1000,1.5043333333333,4,3907,994,feet,jsons/v1_VE1000_randls_16_rotated.json,836740,1033573,40,Woman
57,556086,DepthScenes,duration_manipulation_targetAtFixation,jsons/v1_VE1000_randls_16_rotated.json,http://54.235.29.9/FacialAge/BNav_EC2/DepthDuration/v2_depth_duration_MTurk/v2_DepthDuration_HTML.html#129,129,1536,864,1536,864,8-22-2022,8-9-31,58,depth_duration_stimuli/000866_2014-06-09_20-45-42_260595134347_rgbf000139-resize_1/000866_2014-06-09_20-45-42_260595134347_rgbf000139-resize_1-target.png,1000,3.2155,24,6097,992,feet,jsons/v1_VE1000_randls_16_rotated.json,836740,1033573,40,Woman
58,556086,DepthScenes,duration_manipulation_targetAtFixation,jsons/v1_VE1000_randls_16_rotated.json,http://54.235.29.9/FacialAge/BNav_EC2/DepthDuration/v2_depth_duration_MTurk/v2_DepthDuration_HTML.html#129,129,1536,864,1536,864,8-22-2022,8-9-31,59,depth_duration_stimuli/002989_2014-06-15_12-25-03_094959634447_rgbf000150-resize_3/002989_2014-06-15_12-25-03_094959634447_rgbf000150-resize_3-target.png,1000,4.1975,28,6008,1000,feet,jsons/v1_VE1000_randls_16_rotated.json,836740,1033573,40,Woman
59,556086,DepthScenes,duration_manipulation_targetAtFixation,jsons/v1_VE1000_randls_16_rotated.json,http://54.235.29.9/FacialAge/BNav_EC2/DepthDuration/v2_depth_duration_MTurk/v2_DepthDuration_HTML.html#129,129,1536,864,1536,864,8-22-2022,8-9-31,60,depth_duration_stimuli/000457_2014-06-08_16-52-43_260595134347_rgbf000199-resize_1/000457_2014-06-08_16-52-43_260595134347_rgbf000199-resize_1-target.png,1000,3.6489999999999996,29,7997,993,feet,jsons/v1_VE1000_randls_16_rotated.json,836740,1033573,40,Woman
60,556086,DepthScenes,duration_manipulation_targetAtFixation,jsons/v1_VE1000_randls_16_rotated.json,http://54.235.29.9/FacialAge/BNav_EC2/DepthDuration/v2_depth_duration_MTurk/v2_DepthDuration_HTML.html#129,129,1536,864,1536,864,8-22-2022,8-9-31,61,depth_duration_stimuli/000929_2014-06-09_16-33-19_260595134347_rgbf000139-resize_0/000929_2014-06-09_16-33-19_260595134347_rgbf000139-resize_0-target.png,1000,2.8680000000000003,9,3387,995,feet,jsons/v1_VE1000_randls_16_rotated.json,836740,1033573,40,Woman
61,556086,DepthScenes,duration_manipulation_targetAtFixation,jsons/v1_VE1000_randls_16_rotated.json,http://54.235.29.9/FacialAge/BNav_EC2/DepthDuration/v2_depth_duration_MTurk/v2_DepthDuration_HTML.html#129,129,1536,864,1536,864,8-22-2022,8-9-31,62,depth_duration_stimuli/001617_2014-06-20_11-35-32_260595134347_rgbf000066-resize_1/001617_2014-06-20_11-35-32_260595134347_rgbf000066-resize_1-target.png,1000,3.7910000000000004,24,4661,984,feet,jsons/v1_VE1000_randls_16_rotated.json,836740,1033573,40,Woman
62,556086,DepthScenes,duration_manipulation_targetAtFixation,jsons/v1_VE1000_randls_16_rotated.json,http://54.235.29.9/FacialAge/BNav_EC2/DepthDuration/v2_depth_duration_MTurk/v2_DepthDuration_HTML.html#129,129,1536,864,1536,864,8-22-2022,8-9-31,63,depth_duration_stimuli/001806_2014-06-26_20-50-20_260595134347_rgbf000091-resize_1/001806_2014-06-26_20-50-20_260595134347_rgbf000091-resize_1-target.png,1000,2.7305,7,5120,996,feet,jsons/v1_VE1000_randls_16_rotated.json,836740,1033573,40,Woman
63,556086,DepthScenes,duration_manipulation_targetAtFixation,jsons/v1_VE1000_randls_16_rotated.json,http://54.235.29.9/FacialAge/BNav_EC2/DepthDuration/v2_depth_duration_MTurk/v2_DepthDuration_HTML.html#129,129,1536,864,1536,864,8-22-2022,8-9-31,64,depth_duration_stimuli/000109_2014-05-14_23-41-52_260595134347_rgbf000035-resize_9/000109_2014-05-14_23-41-52_260595134347_rgbf000035-resize_9-target.png,1000,1.3545,4,2812,1008,feet,jsons/v1_VE1000_randls_16_rotated.json,836740,1033573,40,Woman
64,556086,DepthScenes,duration_manipulation_targetAtFixation,jsons/v1_VE1000_randls_16_rotated.json,http://54.235.29.9/FacialAge/BNav_EC2/DepthDuration/v2_depth_duration_MTurk/v2_DepthDuration_HTML.html#129,129,1536,864,1536,864,8-22-2022,8-9-31,65,depth_duration_stimuli/000470_2014-06-09_19-42-40_260595134347_rgbf000094-resize_1/000470_2014-06-09_19-42-40_260595134347_rgbf000094-resize_1-target.png,1000,1.831,7,3109,998,feet,jsons/v1_VE1000_randls_16_rotated.json,836740,1033573,40,Woman
65,556086,DepthScenes,duration_manipulation_targetAtFixation,jsons/v1_VE1000_randls_16_rotated.json,http://54.235.29.9/FacialAge/BNav_EC2/DepthDuration/v2_depth_duration_MTurk/v2_DepthDuration_HTML.html#129,129,1536,864,1536,864,8-22-2022,8-9-31,66,depth_duration_stimuli/001540_2014-06-20_17-01-05_260595134347_rgbf000086-resize_2/001540_2014-06-20_17-01-05_260595134347_rgbf000086-resize-original.jpg,1000,1.459,0,2882,997,feet,jsons/v1_VE1000_randls_16_rotated.json,836740,1033573,40,Woman
66,556086,DepthScenes,duration_manipulation_targetAtFixation,jsons/v1_VE1000_randls_16_rotated.json,http://54.235.29.9/FacialAge/BNav_EC2/DepthDuration/v2_depth_duration_MTurk/v2_DepthDuration_HTML.html#129,129,1536,864,1536,864,8-22-2022,8-9-31,67,depth_duration_stimuli/001052_2014-06-08_18-24-54_260595134347_rgbf000130-resize_1/001052_2014-06-08_18-24-54_260595134347_rgbf000130-resize_1-target.png,1000,4.1045,17,3807,1004,feet,jsons/v1_VE1000_randls_16_rotated.json,836740,1033573,40,Woman
67,556086,DepthScenes,duration_manipulation_targetAtFixation,jsons/v1_VE1000_randls_16_rotated.json,http://54.235.29.9/FacialAge/BNav_EC2/DepthDuration/v2_depth_duration_MTurk/v2_DepthDuration_HTML.html#129,129,1536,864,1536,864,8-22-2022,8-9-31,68,depth_duration_stimuli/002988_2014-06-15_12-24-20_094959634447_rgbf000150-resize_1/002988_2014-06-15_12-24-20_094959634447_rgbf000150-resize_1-target.png,1000,4.7669999999999995,21,2983,1001,feet,jsons/v1_VE1000_randls_16_rotated.json,836740,1033573,40,Woman
68,556086,DepthScenes,duration_manipulation_targetAtFixation,jsons/v1_VE1000_randls_16_rotated.json,http://54.235.29.9/FacialAge/BNav_EC2/DepthDuration/v2_depth_duration_MTurk/v2_DepthDuration_HTML.html#129,129,1536,864,1536,864,8-22-2022,8-9-31,69,depth_duration_stimuli/002103_2014-06-25_20-00-40_260595134347_rgbf000049-resize_0/002103_2014-06-25_20-00-40_260595134347_rgbf000049-resize_0-target.png,1000,4.105,25,5355,998,feet,jsons/v1_VE1000_randls_16_rotated.json,836740,1033573,40,Woman
69,556086,DepthScenes,duration_manipulation_targetAtFixation,jsons/v1_VE1000_randls_16_rotated.json,http://54.235.29.9/FacialAge/BNav_EC2/DepthDuration/v2_depth_duration_MTurk/v2_DepthDuration_HTML.html#129,129,1536,864,1536,864,8-22-2022,8-9-31,70,depth_duration_stimuli/002039_2014-06-24_20-22-38_260595134347_rgbf000084-resize_1/002039_2014-06-24_20-22-38_260595134347_rgbf000084-resize_1-target.png,1000,4.408,33,5466,1006,feet,jsons/v1_VE1000_randls_16_rotated.json,836740,1033573,40,Woman
70,556086,DepthScenes,duration_manipulation_targetAtFixation,jsons/v1_VE1000_randls_16_rotated.json,http://54.235.29.9/FacialAge/BNav_EC2/DepthDuration/v2_depth_duration_MTurk/v2_DepthDuration_HTML.html#129,129,1536,864,1536,864,8-22-2022,8-9-31,71,depth_duration_stimuli/003495_2014-05-21_16-01-51_094959634447_rgbf000100-resize_3/003495_2014-05-21_16-01-51_094959634447_rgbf000100-resize_3-target.png,1000,1.6255,4,3784,999,feet,jsons/v1_VE1000_randls_16_rotated.json,836740,1033573,40,Woman
71,556086,DepthScenes,duration_manipulation_targetAtFixation,jsons/v1_VE1000_randls_16_rotated.json,http://54.235.29.9/FacialAge/BNav_EC2/DepthDuration/v2_depth_duration_MTurk/v2_DepthDuration_HTML.html#129,129,1536,864,1536,864,8-22-2022,8-9-31,72,depth_duration_stimuli/001244_2014-06-17_16-47-45_260595134347_rgbf000030-resize_4/001244_2014-06-17_16-47-45_260595134347_rgbf000030-resize_4-target.png,1000,2.0425,11,3593,1000,feet,jsons/v1_VE1000_randls_16_rotated.json,836740,1033573,40,Woman
72,556086,DepthScenes,duration_manipulation_targetAtFixation,jsons/v1_VE1000_randls_16_rotated.json,http://54.235.29.9/FacialAge/BNav_EC2/DepthDuration/v2_depth_duration_MTurk/v2_DepthDuration_HTML.html#129,129,1536,864,1536,864,8-22-2022,8-9-31,73,depth_duration_stimuli/002678_2014-06-13_16-15-32_094959634447_rgbf000151-resize_6/002678_2014-06-13_16-15-32_094959634447_rgbf000151-resize_6-target.png,1000,2.1830000000000003,14,4739,999,feet,jsons/v1_VE1000_randls_16_rotated.json,836740,1033573,40,Woman
73,556086,DepthScenes,duration_manipulation_targetAtFixation,jsons/v1_VE1000_randls_16_rotated.json,http://54.235.29.9/FacialAge/BNav_EC2/DepthDuration/v2_depth_duration_MTurk/v2_DepthDuration_HTML.html#129,129,1536,864,1536,864,8-22-2022,8-9-31,74,depth_duration_stimuli/000368_2014-06-09_15-53-01_260595134347_rgbf000155-resize_2/000368_2014-06-09_15-53-01_260595134347_rgbf000155-resize_2-target.png,1000,2.4859999999999998,8,3189,1008,feet,jsons/v1_VE1000_randls_16_rotated.json,836740,1033573,40,Woman
74,556086,DepthScenes,duration_manipulation_targetAtFixation,jsons/v1_VE1000_randls_16_rotated.json,http://54.235.29.9/FacialAge/BNav_EC2/DepthDuration/v2_depth_duration_MTurk/v2_DepthDuration_HTML.html#129,129,1536,864,1536,864,8-22-2022,8-9-31,75,depth_duration_stimuli/000502_2014-06-08_23-02-32_260595134347_rgbf000063-resize_4/000502_2014-06-08_23-02-32_260595134347_rgbf000063-resize_4-target.png,1000,2.431,7,4629,996,feet,jsons/v1_VE1000_randls_16_rotated.json,836740,1033573,40,Woman
75,556086,DepthScenes,duration_manipulation_targetAtFixation,jsons/v1_VE1000_randls_16_rotated.json,http://54.235.29.9/FacialAge/BNav_EC2/DepthDuration/v2_depth_duration_MTurk/v2_DepthDuration_HTML.html#129,129,1536,864,1536,864,8-22-2022,8-9-31,76,depth_duration_stimuli/001199_2014-06-17_16-03-48_260595134347_rgbf000077-resize_0/001199_2014-06-17_16-03-48_260595134347_rgbf000077-resize_0-target.png,1000,3.4375,20,5162,995,feet,jsons/v1_VE1000_randls_16_rotated.json,836740,1033573,40,Woman
76,556086,DepthScenes,duration_manipulation_targetAtFixation,jsons/v1_VE1000_randls_16_rotated.json,http://54.235.29.9/FacialAge/BNav_EC2/DepthDuration/v2_depth_duration_MTurk/v2_DepthDuration_HTML.html#129,129,1536,864,1536,864,8-22-2022,8-9-31,77,depth_duration_stimuli/001447_2014-06-19_17-00-32_260595134347_rgbf000082-resize_5/001447_2014-06-19_17-00-32_260595134347_rgbf000082-resize_5-target.png,1000,4.13775,10,4213,996,feet,jsons/v1_VE1000_randls_16_rotated.json,836740,1033573,40,Woman
77,556086,DepthScenes,duration_manipulation_targetAtFixation,jsons/v1_VE1000_randls_16_rotated.json,http://54.235.29.9/FacialAge/BNav_EC2/DepthDuration/v2_depth_duration_MTurk/v2_DepthDuration_HTML.html#129,129,1536,864,1536,864,8-22-2022,8-9-31,78,depth_duration_stimuli/000447_2014-06-08_16-15-46_260595134347_rgbf000130-resize_1/000447_2014-06-08_16-15-46_260595134347_rgbf000130-resize_1-target.png,1000,4.479,14,2901,997,feet,jsons/v1_VE1000_randls_16_rotated.json,836740,1033573,40,Woman
78,556086,DepthScenes,duration_manipulation_targetAtFixation,jsons/v1_VE1000_randls_16_rotated.json,http://54.235.29.9/FacialAge/BNav_EC2/DepthDuration/v2_depth_duration_MTurk/v2_DepthDuration_HTML.html#129,129,1536,864,1536,864,8-22-2022,8-9-31,79,depth_duration_stimuli/001392_2014-06-19_16-07-59_260595134347_rgbf000046-resize_1/001392_2014-06-19_16-07-59_260595134347_rgbf000046-resize_1-target.png,1000,4.135,23,3991,997,feet,jsons/v1_VE1000_randls_16_rotated.json,836740,1033573,40,Woman
79,556086,DepthScenes,duration_manipulation_targetAtFixation,jsons/v1_VE1000_randls_16_rotated.json,http://54.235.29.9/FacialAge/BNav_EC2/DepthDuration/v2_depth_duration_MTurk/v2_DepthDuration_HTML.html#129,129,1536,864,1536,864,8-22-2022,8-9-31,80,depth_duration_stimuli/001570_2014-06-20_17-21-09_260595134347_rgbf000135-resize_4/001570_2014-06-20_17-21-09_260595134347_rgbf000135-resize_4-target.png,1000,4.467,35,5253,999,feet,jsons/v1_VE1000_randls_16_rotated.json,836740,1033573,40,Woman
80,556086,DepthScenes,duration_manipulation_targetAtFixation,jsons/v1_VE1000_randls_16_rotated.json,http://54.235.29.9/FacialAge/BNav_EC2/DepthDuration/v2_depth_duration_MTurk/v2_DepthDuration_HTML.html#129,129,1536,864,1536,864,8-22-2022,8-9-31,81,depth_duration_stimuli/001650_2014-06-20_12-09-00_260595134347_rgbf000087-resize_3/001650_2014-06-20_12-09-00_260595134347_rgbf000087-resize_3-target.png,1000,1.9505,3,3070,997,feet,jsons/v1_VE1000_randls_16_rotated.json,836740,1033573,40,Woman
81,556086,DepthScenes,duration_manipulation_targetAtFixation,jsons/v1_VE1000_randls_16_rotated.json,http://54.235.29.9/FacialAge/BNav_EC2/DepthDuration/v2_depth_duration_MTurk/v2_DepthDuration_HTML.html#129,129,1536,864,1536,864,8-22-2022,8-9-31,82,depth_duration_stimuli/000682_2014-06-08_23-14-58_260595134347_rgbf000041-resize_5/000682_2014-06-08_23-14-58_260595134347_rgbf000041-resize_5-target.png,1000,2.7239999999999998,6,3752,1001,feet,jsons/v1_VE1000_randls_16_rotated.json,836740,1033573,40,Woman
82,556086,DepthScenes,duration_manipulation_targetAtFixation,jsons/v1_VE1000_randls_16_rotated.json,http://54.235.29.9/FacialAge/BNav_EC2/DepthDuration/v2_depth_duration_MTurk/v2_DepthDuration_HTML.html#129,129,1536,864,1536,864,8-22-2022,8-9-31,83,depth_duration_stimuli/002568_2014-06-24_13-59-21_094959634447_rgbf000062-resize_4/002568_2014-06-24_13-59-21_094959634447_rgbf000062-resize_4-target.png,1000,3.015,10,3322,988,feet,jsons/v1_VE1000_randls_16_rotated.json,836740,1033573,40,Woman
83,556086,DepthScenes,duration_manipulation_targetAtFixation,jsons/v1_VE1000_randls_16_rotated.json,http://54.235.29.9/FacialAge/BNav_EC2/DepthDuration/v2_depth_duration_MTurk/v2_DepthDuration_HTML.html#129,129,1536,864,1536,864,8-22-2022,8-9-31,84,depth_duration_stimuli/003492_2014-05-21_15-50-55_094959634447_rgbf000828-resize_1/003492_2014-05-21_15-50-55_094959634447_rgbf000828-resize_1-target.png,1000,4.06875,5,4957,994,feet,jsons/v1_VE1000_randls_16_rotated.json,836740,1033573,40,Woman
84,556086,DepthScenes,duration_manipulation_targetAtFixation,jsons/v1_VE1000_randls_16_rotated.json,http://54.235.29.9/FacialAge/BNav_EC2/DepthDuration/v2_depth_duration_MTurk/v2_DepthDuration_HTML.html#129,129,1536,864,1536,864,8-22-2022,8-9-31,85,depth_duration_stimuli/002953_2014-06-08_17-32-18_094959634447_rgbf000059-resize_5/002953_2014-06-08_17-32-18_094959634447_rgbf000059-resize_5-target.png,1000,1.551,5,3019,996,feet,jsons/v1_VE1000_randls_16_rotated.json,836740,1033573,40,Woman
85,556086,DepthScenes,duration_manipulation_targetAtFixation,jsons/v1_VE1000_randls_16_rotated.json,http://54.235.29.9/FacialAge/BNav_EC2/DepthDuration/v2_depth_duration_MTurk/v2_DepthDuration_HTML.html#129,129,1536,864,1536,864,8-22-2022,8-9-31,86,depth_duration_stimuli/000878_2014-06-08_22-52-45_260595134347_rgbf000045-resize_2/000878_2014-06-08_22-52-45_260595134347_rgbf000045-resize_2-target.png,1000,2.092,14,3313,1010,feet,jsons/v1_VE1000_randls_16_rotated.json,836740,1033573,40,Woman
86,556086,DepthScenes,duration_manipulation_targetAtFixation,jsons/v1_VE1000_randls_16_rotated.json,http://54.235.29.9/FacialAge/BNav_EC2/DepthDuration/v2_depth_duration_MTurk/v2_DepthDuration_HTML.html#129,129,1536,864,1536,864,8-22-2022,8-9-31,87,depth_duration_stimuli/000191_2014-05-12_17-07-38_260595134347_rgbf000199-resize_0/000191_2014-05-12_17-07-38_260595134347_rgbf000199-resize_0-target.png,1000,3.7995,18,8611,997,feet,jsons/v1_VE1000_randls_16_rotated.json,836740,1033573,40,Woman
87,556086,DepthScenes,duration_manipulation_targetAtFixation,jsons/v1_VE1000_randls_16_rotated.json,http://54.235.29.9/FacialAge/BNav_EC2/DepthDuration/v2_depth_duration_MTurk/v2_DepthDuration_HTML.html#129,129,1536,864,1536,864,8-22-2022,8-9-31,88,depth_duration_stimuli/000493_2014-06-09_21-01-18_260595134347_rgbf000196-resize_3/000493_2014-06-09_21-01-18_260595134347_rgbf000196-resize_3-target.png,1000,3.44,8,2985,998,feet,jsons/v1_VE1000_randls_16_rotated.json,836740,1033573,40,Woman
88,556086,DepthScenes,duration_manipulation_targetAtFixation,jsons/v1_VE1000_randls_16_rotated.json,http://54.235.29.9/FacialAge/BNav_EC2/DepthDuration/v2_depth_duration_MTurk/v2_DepthDuration_HTML.html#129,129,1536,864,1536,864,8-22-2022,8-9-31,89,depth_duration_stimuli/002949_2014-06-26_15-57-42_094959634447_rgbf000079-resize_1/002949_2014-06-26_15-57-42_094959634447_rgbf000079-resize_1-target.png,1000,1.8915,6,4076,994,feet,jsons/v1_VE1000_randls_16_rotated.json,836740,1033573,40,Woman
89,556086,DepthScenes,duration_manipulation_targetAtFixation,jsons/v1_VE1000_randls_16_rotated.json,http://54.235.29.9/FacialAge/BNav_EC2/DepthDuration/v2_depth_duration_MTurk/v2_DepthDuration_HTML.html#129,129,1536,864,1536,864,8-22-2022,8-9-31,90,depth_duration_stimuli/000522_2014-06-08_13-35-06_260595134347_rgbf000244-resize_1/000522_2014-06-08_13-35-06_260595134347_rgbf000244-resize_1-target.png,1000,2.3715,3,3706,995,feet,jsons/v1_VE1000_randls_16_rotated.json,836740,1033573,40,Woman
90,556086,DepthScenes,duration_manipulation_targetAtFixation,jsons/v1_VE1000_randls_16_rotated.json,http://54.235.29.9/FacialAge/BNav_EC2/DepthDuration/v2_depth_duration_MTurk/v2_DepthDuration_HTML.html#129,129,1536,864,1536,864,8-22-2022,8-9-31,91,depth_duration_stimuli/003587_2014-05-23_16-48-02_094959634447_rgbf002384-resize_2/003587_2014-05-23_16-48-02_094959634447_rgbf002384-resize_2-target.png,1000,1.357,2,2581,1005,feet,jsons/v1_VE1000_randls_16_rotated.json,836740,1033573,40,Woman
91,556086,DepthScenes,duration_manipulation_targetAtFixation,jsons/v1_VE1000_randls_16_rotated.json,http://54.235.29.9/FacialAge/BNav_EC2/DepthDuration/v2_depth_duration_MTurk/v2_DepthDuration_HTML.html#129,129,1536,864,1536,864,8-22-2022,8-9-31,92,depth_duration_stimuli/001167_2014-06-17_15-38-07_260595134347_rgbf000108-resize_0/001167_2014-06-17_15-38-07_260595134347_rgbf000108-resize_0-target.png,1000,1.8505,5,2651,997,feet,jsons/v1_VE1000_randls_16_rotated.json,836740,1033573,40,Woman
92,556086,DepthScenes,duration_manipulation_targetAtFixation,jsons/v1_VE1000_randls_16_rotated.json,http://54.235.29.9/FacialAge/BNav_EC2/DepthDuration/v2_depth_duration_MTurk/v2_DepthDuration_HTML.html#129,129,1536,864,1536,864,8-22-2022,8-9-31,93,depth_duration_stimuli/000556_2014-06-09_22-42-56_260595134347_rgbf000214-resize_1/000556_2014-06-09_22-42-56_260595134347_rgbf000214-resize_1-target.png,1000,4.8415,12,3405,996,feet,jsons/v1_VE1000_randls_16_rotated.json,836740,1033573,40,Woman
93,556086,DepthScenes,duration_manipulation_targetAtFixation,jsons/v1_VE1000_randls_16_rotated.json,http://54.235.29.9/FacialAge/BNav_EC2/DepthDuration/v2_depth_duration_MTurk/v2_DepthDuration_HTML.html#129,129,1536,864,1536,864,8-22-2022,8-9-31,94,depth_duration_stimuli/001158_2014-06-17_15-32-16_260595134347_rgbf000138-resize_2/001158_2014-06-17_15-32-16_260595134347_rgbf000138-resize_2-target.png,1000,4.5315,19,3479,1013,feet,jsons/v1_VE1000_randls_16_rotated.json,836740,1033573,40,Woman
94,556086,DepthScenes,duration_manipulation_targetAtFixation,jsons/v1_VE1000_randls_16_rotated.json,http://54.235.29.9/FacialAge/BNav_EC2/DepthDuration/v2_depth_duration_MTurk/v2_DepthDuration_HTML.html#129,129,1536,864,1536,864,8-22-2022,8-9-31,95,depth_duration_stimuli/003129_2014-05-12_10-48-10_094959634447_rgbf000100-resize_0/003129_2014-05-12_10-48-10_094959634447_rgbf000100-resize_0-target.png,1000,4.9305,16,4315,994,feet,jsons/v1_VE1000_randls_16_rotated.json,836740,1033573,40,Woman
95,556086,DepthScenes,duration_manipulation_targetAtFixation,jsons/v1_VE1000_randls_16_rotated.json,http://54.235.29.9/FacialAge/BNav_EC2/DepthDuration/v2_depth_duration_MTurk/v2_DepthDuration_HTML.html#129,129,1536,864,1536,864,8-22-2022,8-9-31,96,depth_duration_stimuli/000414_2014-06-04_19-49-13_260595134347_rgbf000044-resize_0/000414_2014-06-04_19-49-13_260595134347_rgbf000044-resize_0-target.png,1000,4.329,21,8881,995,feet,jsons/v1_VE1000_randls_16_rotated.json,836740,1033573,40,Woman
96,556086,DepthScenes,duration_manipulation_targetAtFixation,jsons/v1_VE1000_randls_16_rotated.json,http://54.235.29.9/FacialAge/BNav_EC2/DepthDuration/v2_depth_duration_MTurk/v2_DepthDuration_HTML.html#129,129,1536,864,1536,864,8-22-2022,8-9-31,97,depth_duration_stimuli/001136_2014-06-17_15-19-41_260595134347_rgbf000076-resize_3/001136_2014-06-17_15-19-41_260595134347_rgbf000076-resize_3-target.png,1000,1.8655,8,5752,998,feet,jsons/v1_VE1000_randls_16_rotated.json,836740,1033573,40,Woman
97,556086,DepthScenes,duration_manipulation_targetAtFixation,jsons/v1_VE1000_randls_16_rotated.json,http://54.235.29.9/FacialAge/BNav_EC2/DepthDuration/v2_depth_duration_MTurk/v2_DepthDuration_HTML.html#129,129,1536,864,1536,864,8-22-2022,8-9-31,98,depth_duration_stimuli/001164_2014-06-17_15-35-46_260595134347_rgbf000085-resize_3/001164_2014-06-17_15-35-46_260595134347_rgbf000085-resize_3-target.png,1000,2.354,13,3190,999,feet,jsons/v1_VE1000_randls_16_rotated.json,836740,1033573,40,Woman
98,556086,DepthScenes,duration_manipulation_targetAtFixation,jsons/v1_VE1000_randls_16_rotated.json,http://54.235.29.9/FacialAge/BNav_EC2/DepthDuration/v2_depth_duration_MTurk/v2_DepthDuration_HTML.html#129,129,1536,864,1536,864,8-22-2022,8-9-31,99,depth_duration_stimuli/001222_2014-06-17_16-24-06_260595134347_rgbf000073-resize_0/001222_2014-06-17_16-24-06_260595134347_rgbf000073-resize-original.jpg,1000,1.4385,0,2741,1010,feet,jsons/v1_VE1000_randls_16_rotated.json,836740,1033573,40,Woman
99,556086,DepthScenes,duration_manipulation_targetAtFixation,jsons/v1_VE1000_randls_16_rotated.json,http://54.235.29.9/FacialAge/BNav_EC2/DepthDuration/v2_depth_duration_MTurk/v2_DepthDuration_HTML.html#129,129,1536,864,1536,864,8-22-2022,8-9-31,100,depth_duration_stimuli/000943_2014-06-09_19-31-07_260595134347_rgbf000128-resize_1/000943_2014-06-09_19-31-07_260595134347_rgbf000128-resize_1-target.png,1000,1.9765,5,3396,1004,feet,jsons/v1_VE1000_randls_16_rotated.json,836740,1033573,40,Woman
100,556086,DepthScenes,duration_manipulation_targetAtFixation,jsons/v1_VE1000_randls_16_rotated.json,http://54.235.29.9/FacialAge/BNav_EC2/DepthDuration/v2_depth_duration_MTurk/v2_DepthDuration_HTML.html#129,129,1536,864,1536,864,8-22-2022,8-9-31,101,depth_duration_stimuli/003070_2014-06-15_14-58-27_094959634447_rgbf000150-resize_3/003070_2014-06-15_14-58-27_094959634447_rgbf000150-resize_3-target.png,1000,2.9415,11,3498,998,feet,jsons/v1_VE1000_randls_16_rotated.json,836740,1033573,40,Woman
101,556086,DepthScenes,duration_manipulation_targetAtFixation,jsons/v1_VE1000_randls_16_rotated.json,http://54.235.29.9/FacialAge/BNav_EC2/DepthDuration/v2_depth_duration_MTurk/v2_DepthDuration_HTML.html#129,129,1536,864,1536,864,8-22-2022,8-9-31,102,depth_duration_stimuli/002444_2014-06-28_20-32-08_260595134347_rgbf000027-resize_0/002444_2014-06-28_20-32-08_260595134347_rgbf000027-resize_0-target.png,1000,4.388999999999999,15,3718,999,feet,jsons/v1_VE1000_randls_16_rotated.json,836740,1033573,40,Woman
102,556086,DepthScenes,duration_manipulation_targetAtFixation,jsons/v1_VE1000_randls_16_rotated.json,http://54.235.29.9/FacialAge/BNav_EC2/DepthDuration/v2_depth_duration_MTurk/v2_DepthDuration_HTML.html#129,129,1536,864,1536,864,8-22-2022,8-9-31,103,depth_duration_stimuli/000436_2014-06-09_22-25-11_260595134347_rgbf000137-resize_1/000436_2014-06-09_22-25-11_260595134347_rgbf000137-resize_1-target.png,1000,4.0705,9,4538,1005,feet,jsons/v1_VE1000_randls_16_rotated.json,836740,1033573,40,Woman
103,556086,DepthScenes,duration_manipulation_targetAtFixation,jsons/v1_VE1000_randls_16_rotated.json,http://54.235.29.9/FacialAge/BNav_EC2/DepthDuration/v2_depth_duration_MTurk/v2_DepthDuration_HTML.html#129,129,1536,864,1536,864,8-22-2022,8-9-31,104,depth_duration_stimuli/003490_2014-05-21_15-50-11_094959634447_rgbf000101-resize_3/003490_2014-05-21_15-50-11_094959634447_rgbf000101-resize_3-target.png,1000,3.6445,12,4171,1003,feet,jsons/v1_VE1000_randls_16_rotated.json,836740,1033573,40,Woman
104,556086,DepthScenes,duration_manipulation_targetAtFixation,jsons/v1_VE1000_randls_16_rotated.json,http://54.235.29.9/FacialAge/BNav_EC2/DepthDuration/v2_depth_duration_MTurk/v2_DepthDuration_HTML.html#129,129,1536,864,1536,864,8-22-2022,8-9-31,105,depth_duration_stimuli/001175_2014-06-17_15-45-55_260595134347_rgbf000129-resize_4/001175_2014-06-17_15-45-55_260595134347_rgbf000129-resize_4-target.png,1000,4.255,23,7477,996,feet,jsons/v1_VE1000_randls_16_rotated.json,836740,1033573,40,Woman
105,556086,DepthScenes,duration_manipulation_targetAtFixation,jsons/v1_VE1000_randls_16_rotated.json,http://54.235.29.9/FacialAge/BNav_EC2/DepthDuration/v2_depth_duration_MTurk/v2_DepthDuration_HTML.html#129,129,1536,864,1536,864,8-22-2022,8-9-31,106,depth_duration_stimuli/002323_2014-06-28_20-01-54_260595134347_rgbf000051-resize_4/002323_2014-06-28_20-01-54_260595134347_rgbf000051-resize_4-target.png,1000,3.7310000000000003,21,4672,993,feet,jsons/v1_VE1000_randls_16_rotated.json,836740,1033573,40,Woman
106,556086,DepthScenes,duration_manipulation_targetAtFixation,jsons/v1_VE1000_randls_16_rotated.json,http://54.235.29.9/FacialAge/BNav_EC2/DepthDuration/v2_depth_duration_MTurk/v2_DepthDuration_HTML.html#129,129,1536,864,1536,864,8-22-2022,8-9-31,107,depth_duration_stimuli/000917_2014-06-09_22-45-29_260595134347_rgbf000149-resize_3/000917_2014-06-09_22-45-29_260595134347_rgbf000149-resize_3-target.png,1000,4.1865,15,3908,996,feet,jsons/v1_VE1000_randls_16_rotated.json,836740,1033573,40,Woman
107,556086,DepthScenes,duration_manipulation_targetAtFixation,jsons/v1_VE1000_randls_16_rotated.json,http://54.235.29.9/FacialAge/BNav_EC2/DepthDuration/v2_depth_duration_MTurk/v2_DepthDuration_HTML.html#129,129,1536,864,1536,864,8-22-2022,8-9-31,108,depth_duration_stimuli/000709_2014-06-08_13-51-55_260595134347_rgbf000068-resize_3/000709_2014-06-08_13-51-55_260595134347_rgbf000068-resize_3-target.png,1000,1.8030000000000002,6,4261,997,feet,jsons/v1_VE1000_randls_16_rotated.json,836740,1033573,40,Woman
108,556086,DepthScenes,duration_manipulation_targetAtFixation,jsons/v1_VE1000_randls_16_rotated.json,http://54.235.29.9/FacialAge/BNav_EC2/DepthDuration/v2_depth_duration_MTurk/v2_DepthDuration_HTML.html#129,129,1536,864,1536,864,8-22-2022,8-9-31,109,depth_duration_stimuli/002057_2014-06-24_21-00-13_260595134347_rgbf000120-resize_1/002057_2014-06-24_21-00-13_260595134347_rgbf000120-resize_1-target.png,1000,2.967,9,4125,1002,feet,jsons/v1_VE1000_randls_16_rotated.json,836740,1033573,40,Woman
109,556086,DepthScenes,duration_manipulation_targetAtFixation,jsons/v1_VE1000_randls_16_rotated.json,http://54.235.29.9/FacialAge/BNav_EC2/DepthDuration/v2_depth_duration_MTurk/v2_DepthDuration_HTML.html#129,129,1536,864,1536,864,8-22-2022,8-9-31,110,depth_duration_stimuli/001815_2014-06-26_20-52-55_260595134347_rgbf000020-resize_0/001815_2014-06-26_20-52-55_260595134347_rgbf000020-resize_0-target.png,1000,3.3865,12,4471,1013,feet,jsons/v1_VE1000_randls_16_rotated.json,836740,1033573,40,Woman
110,556086,DepthScenes,duration_manipulation_targetAtFixation,jsons/v1_VE1000_randls_16_rotated.json,http://54.235.29.9/FacialAge/BNav_EC2/DepthDuration/v2_depth_duration_MTurk/v2_DepthDuration_HTML.html#129,129,1536,864,1536,864,8-22-2022,8-9-31,111,depth_duration_stimuli/001808_2014-06-26_20-50-58_260595134347_rgbf000029-resize_1/001808_2014-06-26_20-50-58_260595134347_rgbf000029-resize_1-target.png,1000,4.249,14,3984,1010,feet,jsons/v1_VE1000_randls_16_rotated.json,836740,1033573,40,Woman
111,556086,DepthScenes,duration_manipulation_targetAtFixation,jsons/v1_VE1000_randls_16_rotated.json,http://54.235.29.9/FacialAge/BNav_EC2/DepthDuration/v2_depth_duration_MTurk/v2_DepthDuration_HTML.html#129,129,1536,864,1536,864,8-22-2022,8-9-31,112,depth_duration_stimuli/002209_2014-06-28_18-36-10_260595134347_rgbf000051-resize_1/002209_2014-06-28_18-36-10_260595134347_rgbf000051-resize_1-target.png,1000,2.057,5,4391,1000,feet,jsons/v1_VE1000_randls_16_rotated.json,836740,1033573,40,Woman
112,556086,DepthScenes,duration_manipulation_targetAtFixation,jsons/v1_VE1000_randls_16_rotated.json,http://54.235.29.9/FacialAge/BNav_EC2/DepthDuration/v2_depth_duration_MTurk/v2_DepthDuration_HTML.html#129,129,1536,864,1536,864,8-22-2022,8-9-31,113,depth_duration_stimuli/002763_2014-06-22_19-13-10_094959634447_rgbf000075-resize_4/002763_2014-06-22_19-13-10_094959634447_rgbf000075-resize_4-target.png,1000,1.68375,7,3746,998,feet,jsons/v1_VE1000_randls_16_rotated.json,836740,1033573,40,Woman
113,556086,DepthScenes,duration_manipulation_targetAtFixation,jsons/v1_VE1000_randls_16_rotated.json,http://54.235.29.9/FacialAge/BNav_EC2/DepthDuration/v2_depth_duration_MTurk/v2_DepthDuration_HTML.html#129,129,1536,864,1536,864,8-22-2022,8-9-31,114,depth_duration_stimuli/002639_2014-06-24_14-51-37_094959634447_rgbf000074-resize_4/002639_2014-06-24_14-51-37_094959634447_rgbf000074-resize_4-target.png,1000,4.0375,8,3875,992,feet,jsons/v1_VE1000_randls_16_rotated.json,836740,1033573,40,Woman
114,556086,DepthScenes,duration_manipulation_targetAtFixation,jsons/v1_VE1000_randls_16_rotated.json,http://54.235.29.9/FacialAge/BNav_EC2/DepthDuration/v2_depth_duration_MTurk/v2_DepthDuration_HTML.html#129,129,1536,864,1536,864,8-22-2022,8-9-31,115,depth_duration_stimuli/003292_2014-05-14_21-53-49_094959634447_rgbf000100-resize_2/003292_2014-05-14_21-53-49_094959634447_rgbf000100-resize_2-target.png,1000,3.4815,11,2982,1009,feet,jsons/v1_VE1000_randls_16_rotated.json,836740,1033573,40,Woman
115,556086,DepthScenes,duration_manipulation_targetAtFixation,jsons/v1_VE1000_randls_16_rotated.json,http://54.235.29.9/FacialAge/BNav_EC2/DepthDuration/v2_depth_duration_MTurk/v2_DepthDuration_HTML.html#129,129,1536,864,1536,864,8-22-2022,8-9-31,116,depth_duration_stimuli/001214_2014-06-17_16-13-55_260595134347_rgbf000111-resize_0/001214_2014-06-17_16-13-55_260595134347_rgbf000111-resize_0-target.png,1000,2.6505,4,3393,998,feet,jsons/v1_VE1000_randls_16_rotated.json,836740,1033573,40,Woman
116,556086,DepthScenes,duration_manipulation_targetAtFixation,jsons/v1_VE1000_randls_16_rotated.json,http://54.235.29.9/FacialAge/BNav_EC2/DepthDuration/v2_depth_duration_MTurk/v2_DepthDuration_HTML.html#129,129,1536,864,1536,864,8-22-2022,8-9-31,117,depth_duration_stimuli/000810_2014-06-08_17-20-01_260595134347_rgbf000105-resize_0/000810_2014-06-08_17-20-01_260595134347_rgbf000105-resize_0-target.png,1000,1.4865,7,5261,1000,feet,jsons/v1_VE1000_randls_16_rotated.json,836740,1033573,40,Woman
117,556086,DepthScenes,duration_manipulation_targetAtFixation,jsons/v1_VE1000_randls_16_rotated.json,http://54.235.29.9/FacialAge/BNav_EC2/DepthDuration/v2_depth_duration_MTurk/v2_DepthDuration_HTML.html#129,129,1536,864,1536,864,8-22-2022,8-9-31,118,depth_duration_stimuli/000677_2014-06-08_23-10-32_260595134347_rgbf000158-resize_6/000677_2014-06-08_23-10-32_260595134347_rgbf000158-resize_6-target.png,1000,3.556,9,3053,1008,feet,jsons/v1_VE1000_randls_16_rotated.json,836740,1033573,40,Woman
118,556086,DepthScenes,duration_manipulation_targetAtFixation,jsons/v1_VE1000_randls_16_rotated.json,http://54.235.29.9/FacialAge/BNav_EC2/DepthDuration/v2_depth_duration_MTurk/v2_DepthDuration_HTML.html#129,129,1536,864,1536,864,8-22-2022,8-9-31,119,depth_duration_stimuli/001029_2014-06-08_13-17-57_260595134347_rgbf000065-resize_1/001029_2014-06-08_13-17-57_260595134347_rgbf000065-resize_1-target.png,1000,3.0835,8,2796,1000,feet,jsons/v1_VE1000_randls_16_rotated.json,836740,1033573,40,Woman
119,556086,DepthScenes,duration_manipulation_targetAtFixation,jsons/v1_VE1000_randls_16_rotated.json,http://54.235.29.9/FacialAge/BNav_EC2/DepthDuration/v2_depth_duration_MTurk/v2_DepthDuration_HTML.html#129,129,1536,864,1536,864,8-22-2022,8-9-31,120,depth_duration_stimuli/000787_2014-06-08_22-33-53_260595134347_rgbf000175-resize_1/000787_2014-06-08_22-33-53_260595134347_rgbf000175-resize-original.jpg,1000,4.784,0,2921,1007,feet,jsons/v1_VE1000_randls_16_rotated.json,836740,1033573,40,Woman
120,556086,DepthScenes,duration_manipulation_targetAtFixation,jsons/v1_VE1000_randls_16_rotated.json,http://54.235.29.9/FacialAge/BNav_EC2/DepthDuration/v2_depth_duration_MTurk/v2_DepthDuration_HTML.html#129,129,1536,864,1536,864,8-22-2022,8-9-31,121,depth_duration_stimuli/002657_2014-06-13_15-29-54_094959634447_rgbf000150-resize_1/002657_2014-06-13_15-29-54_094959634447_rgbf000150-resize_1-target.png,1000,4.919,12,7146,1011,feet,jsons/v1_VE1000_randls_16_rotated.json,836740,1033573,40,Woman
121,556086,DepthScenes,duration_manipulation_targetAtFixation,jsons/v1_VE1000_randls_16_rotated.json,http://54.235.29.9/FacialAge/BNav_EC2/DepthDuration/v2_depth_duration_MTurk/v2_DepthDuration_HTML.html#129,129,1536,864,1536,864,8-22-2022,8-9-31,122,depth_duration_stimuli/002375_2014-06-28_20-13-44_260595134347_rgbf000032-resize_1/002375_2014-06-28_20-13-44_260595134347_rgbf000032-resize_1-target.png,1000,4.0175,8,3912,996,feet,jsons/v1_VE1000_randls_16_rotated.json,836740,1033573,40,Woman
122,556086,DepthScenes,duration_manipulation_targetAtFixation,jsons/v1_VE1000_randls_16_rotated.json,http://54.235.29.9/FacialAge/BNav_EC2/DepthDuration/v2_depth_duration_MTurk/v2_DepthDuration_HTML.html#129,129,1536,864,1536,864,8-22-2022,8-9-31,123,depth_duration_stimuli/000749_2014-06-08_21-55-06_260595134347_rgbf000070-resize_2/000749_2014-06-08_21-55-06_260595134347_rgbf000070-resize_2-target.png,1000,2.331,10,2919,996,feet,jsons/v1_VE1000_randls_16_rotated.json,836740,1033573,40,Woman
123,556086,DepthScenes,duration_manipulation_targetAtFixation,jsons/v1_VE1000_randls_16_rotated.json,http://54.235.29.9/FacialAge/BNav_EC2/DepthDuration/v2_depth_duration_MTurk/v2_DepthDuration_HTML.html#129,129,1536,864,1536,864,8-22-2022,8-9-31,124,depth_duration_stimuli/002788_2014-06-22_19-36-03_094959634447_rgbf000088-resize_2/002788_2014-06-22_19-36-03_094959634447_rgbf000088-resize_2-target.png,1000,1.6465,15,5172,1011,feet,jsons/v1_VE1000_randls_16_rotated.json,836740,1033573,40,Woman
124,556086,DepthScenes,duration_manipulation_targetAtFixation,jsons/v1_VE1000_randls_16_rotated.json,http://54.235.29.9/FacialAge/BNav_EC2/DepthDuration/v2_depth_duration_MTurk/v2_DepthDuration_HTML.html#129,129,1536,864,1536,864,8-22-2022,8-9-31,125,depth_duration_stimuli/001032_2014-06-08_13-23-17_260595134347_rgbf000021-resize_3/001032_2014-06-08_13-23-17_260595134347_rgbf000021-resize_3-target.png,1000,3.2725,10,3848,1010,feet,jsons/v1_VE1000_randls_16_rotated.json,836740,1033573,40,Woman
125,556086,DepthScenes,duration_manipulation_targetAtFixation,jsons/v1_VE1000_randls_16_rotated.json,http://54.235.29.9/FacialAge/BNav_EC2/DepthDuration/v2_depth_duration_MTurk/v2_DepthDuration_HTML.html#129,129,1536,864,1536,864,8-22-2022,8-9-31,126,depth_duration_stimuli/001059_2014-06-08_21-53-27_260595134347_rgbf000061-resize_4/001059_2014-06-08_21-53-27_260595134347_rgbf000061-resize_4-target.png,1000,2.4185,8,4041,1004,feet,jsons/v1_VE1000_randls_16_rotated.json,836740,1033573,40,Woman
126,556086,DepthScenes,duration_manipulation_targetAtFixation,jsons/v1_VE1000_randls_16_rotated.json,http://54.235.29.9/FacialAge/BNav_EC2/DepthDuration/v2_depth_duration_MTurk/v2_DepthDuration_HTML.html#129,129,1536,864,1536,864,8-22-2022,8-9-31,127,depth_duration_stimuli/001450_2014-06-19_17-02-03_260595134347_rgbf000203-resize_4/001450_2014-06-19_17-02-03_260595134347_rgbf000203-resize_4-target.png,1000,4.0106666666667,16,3739,997,feet,jsons/v1_VE1000_randls_16_rotated.json,836740,1033573,40,Woman
127,556086,DepthScenes,duration_manipulation_targetAtFixation,jsons/v1_VE1000_randls_16_rotated.json,http://54.235.29.9/FacialAge/BNav_EC2/DepthDuration/v2_depth_duration_MTurk/v2_DepthDuration_HTML.html#129,129,1536,864,1536,864,8-22-2022,8-9-31,128,depth_duration_stimuli/001449_2014-06-19_17-01-27_260595134347_rgbf000116-resize_2/001449_2014-06-19_17-01-27_260595134347_rgbf000116-resize_2-target.png,1000,3.452,15,4087,1006,feet,jsons/v1_VE1000_randls_16_rotated.json,836740,1033573,40,Woman
128,556086,DepthScenes,duration_manipulation_targetAtFixation,jsons/v1_VE1000_randls_16_rotated.json,http://54.235.29.9/FacialAge/BNav_EC2/DepthDuration/v2_depth_duration_MTurk/v2_DepthDuration_HTML.html#129,129,1536,864,1536,864,8-22-2022,8-9-31,129,depth_duration_stimuli/001571_2014-06-20_17-21-32_260595134347_rgbf000089-resize_1/001571_2014-06-20_17-21-32_260595134347_rgbf000089-resize_1-target.png,1000,1.86,8,2691,999,feet,jsons/v1_VE1000_randls_16_rotated.json,836740,1033573,40,Woman
129,556086,DepthScenes,duration_manipulation_targetAtFixation,jsons/v1_VE1000_randls_16_rotated.json,http://54.235.29.9/FacialAge/BNav_EC2/DepthDuration/v2_depth_duration_MTurk/v2_DepthDuration_HTML.html#129,129,1536,864,1536,864,8-22-2022,8-9-31,130,depth_duration_stimuli/002272_2014-06-28_18-53-56_260595134347_rgbf000067-resize_2/002272_2014-06-28_18-53-56_260595134347_rgbf000067-resize_2-target.png,1000,1.138,3,3699,1000,feet,jsons/v1_VE1000_randls_16_rotated.json,836740,1033573,40,Woman
130,556086,DepthScenes,duration_manipulation_targetAtFixation,jsons/v1_VE1000_randls_16_rotated.json,http://54.235.29.9/FacialAge/BNav_EC2/DepthDuration/v2_depth_duration_MTurk/v2_DepthDuration_HTML.html#129,129,1536,864,1536,864,8-22-2022,8-9-31,131,depth_duration_stimuli/001132_2014-06-17_14-48-54_260595134347_rgbf000100-resize_2/001132_2014-06-17_14-48-54_260595134347_rgbf000100-resize_2-target.png,1000,3.753,11,3299,995,feet,jsons/v1_VE1000_randls_16_rotated.json,836740,1033573,40,Woman
131,556086,DepthScenes,duration_manipulation_targetAtFixation,jsons/v1_VE1000_randls_16_rotated.json,http://54.235.29.9/FacialAge/BNav_EC2/DepthDuration/v2_depth_duration_MTurk/v2_DepthDuration_HTML.html#129,129,1536,864,1536,864,8-22-2022,8-9-31,132,depth_duration_stimuli/001133_2014-06-17_14-49-16_260595134347_rgbf000100-resize_0/001133_2014-06-17_14-49-16_260595134347_rgbf000100-resize_0-target.png,1000,4.2115,12,2973,995,feet,jsons/v1_VE1000_randls_16_rotated.json,836740,1033573,40,Woman
132,556086,DepthScenes,duration_manipulation_targetAtFixation,jsons/v1_VE1000_randls_16_rotated.json,http://54.235.29.9/FacialAge/BNav_EC2/DepthDuration/v2_depth_duration_MTurk/v2_DepthDuration_HTML.html#129,129,1536,864,1536,864,8-22-2022,8-9-31,133,depth_duration_stimuli/002467_2014-06-28_20-38-07_260595134347_rgbf000026-resize_2/002467_2014-06-28_20-38-07_260595134347_rgbf000026-resize_2-target.png,1000,4.742,10,4106,1012,feet,jsons/v1_VE1000_randls_16_rotated.json,836740,1033573,40,Woman
133,556086,DepthScenes,duration_manipulation_targetAtFixation,jsons/v1_VE1000_randls_16_rotated.json,http://54.235.29.9/FacialAge/BNav_EC2/DepthDuration/v2_depth_duration_MTurk/v2_DepthDuration_HTML.html#129,129,1536,864,1536,864,8-22-2022,8-9-31,134,depth_duration_stimuli/002570_2014-06-24_13-59-54_094959634447_rgbf000059-resize_0/002570_2014-06-24_13-59-54_094959634447_rgbf000059-resize_0-target.png,1000,4.037,9,4747,999,feet,jsons/v1_VE1000_randls_16_rotated.json,836740,1033573,40,Woman
134,556086,DepthScenes,duration_manipulation_targetAtFixation,jsons/v1_VE1000_randls_16_rotated.json,http://54.235.29.9/FacialAge/BNav_EC2/DepthDuration/v2_depth_duration_MTurk/v2_DepthDuration_HTML.html#129,129,1536,864,1536,864,8-22-2022,8-9-31,135,depth_duration_stimuli/000375_2014-06-08_11-17-29_260595134347_rgbf000133-resize_2/000375_2014-06-08_11-17-29_260595134347_rgbf000133-resize-original.jpg,1000,4.718,0,2782,1010,feet,jsons/v1_VE1000_randls_16_rotated.json,836740,1033573,40,Woman
135,556086,DepthScenes,duration_manipulation_targetAtFixation,jsons/v1_VE1000_randls_16_rotated.json,http://54.235.29.9/FacialAge/BNav_EC2/DepthDuration/v2_depth_duration_MTurk/v2_DepthDuration_HTML.html#129,129,1536,864,1536,864,8-22-2022,8-9-31,136,depth_duration_stimuli/000137_2014-05-20_17-04-49_260595134347_rgbf000120-resize_1/000137_2014-05-20_17-04-49_260595134347_rgbf000120-resize_1-target.png,1000,3.786,8,3123,1013,feet,jsons/v1_VE1000_randls_16_rotated.json,836740,1033573,40,Woman
136,556086,DepthScenes,duration_manipulation_targetAtFixation,jsons/v1_VE1000_randls_16_rotated.json,http://54.235.29.9/FacialAge/BNav_EC2/DepthDuration/v2_depth_duration_MTurk/v2_DepthDuration_HTML.html#129,129,1536,864,1536,864,8-22-2022,8-9-31,137,depth_duration_stimuli/000736_2014-06-08_18-24-15_260595134347_rgbf000206-resize_3/000736_2014-06-08_18-24-15_260595134347_rgbf000206-resize_3-target.png,1000,3.515,9,4269,995,feet,jsons/v1_VE1000_randls_16_rotated.json,836740,1033573,40,Woman
137,556086,DepthScenes,duration_manipulation_targetAtFixation,jsons/v1_VE1000_randls_16_rotated.json,http://54.235.29.9/FacialAge/BNav_EC2/DepthDuration/v2_depth_duration_MTurk/v2_DepthDuration_HTML.html#129,129,1536,864,1536,864,8-22-2022,8-9-31,138,depth_duration_stimuli/002340_2014-06-28_20-05-46_260595134347_rgbf000113-resize_0/002340_2014-06-28_20-05-46_260595134347_rgbf000113-resize_0-target.png,1000,2.4735,12,3271,985,feet,jsons/v1_VE1000_randls_16_rotated.json,836740,1033573,40,Woman
138,556086,DepthScenes,duration_manipulation_targetAtFixation,jsons/v1_VE1000_randls_16_rotated.json,http://54.235.29.9/FacialAge/BNav_EC2/DepthDuration/v2_depth_duration_MTurk/v2_DepthDuration_HTML.html#129,129,1536,864,1536,864,8-22-2022,8-9-31,139,depth_duration_stimuli/001016_2014-06-09_16-16-10_260595134347_rgbf000112-resize_5/001016_2014-06-09_16-16-10_260595134347_rgbf000112-resize_5-target.png,1000,1.6565,12,4673,1008,feet,jsons/v1_VE1000_randls_16_rotated.json,836740,1033573,40,Woman
139,556086,DepthScenes,duration_manipulation_targetAtFixation,jsons/v1_VE1000_randls_16_rotated.json,http://54.235.29.9/FacialAge/BNav_EC2/DepthDuration/v2_depth_duration_MTurk/v2_DepthDuration_HTML.html#129,129,1536,864,1536,864,8-22-2022,8-9-31,140,depth_duration_stimuli/000103_2014-05-14_22-01-17_260595134347_rgbf000152-resize_5/000103_2014-05-14_22-01-17_260595134347_rgbf000152-resize_5-target.png,1000,1.993,8,2779,995,feet,jsons/v1_VE1000_randls_16_rotated.json,836740,1033573,40,Woman
140,556086,DepthScenes,duration_manipulation_targetAtFixation,jsons/v1_VE1000_randls_16_rotated.json,http://54.235.29.9/FacialAge/BNav_EC2/DepthDuration/v2_depth_duration_MTurk/v2_DepthDuration_HTML.html#129,129,1536,864,1536,864,8-22-2022,8-9-31,141,depth_duration_stimuli/001555_2014-06-20_17-12-10_260595134347_rgbf000065-resize_4/001555_2014-06-20_17-12-10_260595134347_rgbf000065-resize_4-target.png,1000,1.633,3,2994,1006,feet,jsons/v1_VE1000_randls_16_rotated.json,836740,1033573,40,Woman
141,556086,DepthScenes,duration_manipulation_targetAtFixation,jsons/v1_VE1000_randls_16_rotated.json,http://54.235.29.9/FacialAge/BNav_EC2/DepthDuration/v2_depth_duration_MTurk/v2_DepthDuration_HTML.html#129,129,1536,864,1536,864,8-22-2022,8-9-31,142,depth_duration_stimuli/000665_2014-06-09_20-42-35_260595134347_rgbf000110-resize_1/000665_2014-06-09_20-42-35_260595134347_rgbf000110-resize_1-target.png,1000,3.057,5,4107,995,feet,jsons/v1_VE1000_randls_16_rotated.json,836740,1033573,40,Woman
142,556086,DepthScenes,duration_manipulation_targetAtFixation,jsons/v1_VE1000_randls_16_rotated.json,http://54.235.29.9/FacialAge/BNav_EC2/DepthDuration/v2_depth_duration_MTurk/v2_DepthDuration_HTML.html#129,129,1536,864,1536,864,8-22-2022,8-9-31,143,depth_duration_stimuli/001150_2014-06-17_15-27-34_260595134347_rgbf000108-resize_2/001150_2014-06-17_15-27-34_260595134347_rgbf000108-resize_2-target.png,1000,4.0325,15,3489,1012,feet,jsons/v1_VE1000_randls_16_rotated.json,836740,1033573,40,Woman
143,556086,DepthScenes,duration_manipulation_targetAtFixation,jsons/v1_VE1000_randls_16_rotated.json,http://54.235.29.9/FacialAge/BNav_EC2/DepthDuration/v2_depth_duration_MTurk/v2_DepthDuration_HTML.html#129,129,1536,864,1536,864,8-22-2022,8-9-31,144,depth_duration_stimuli/000483_2014-06-09_20-41-45_260595134347_rgbf000116-resize_4/000483_2014-06-09_20-41-45_260595134347_rgbf000116-resize_4-target.png,1000,1.337,2,3311,996,feet,jsons/v1_VE1000_randls_16_rotated.json,836740,1033573,40,Woman
144,556086,DepthScenes,duration_manipulation_targetAtFixation,jsons/v1_VE1000_randls_16_rotated.json,http://54.235.29.9/FacialAge/BNav_EC2/DepthDuration/v2_depth_duration_MTurk/v2_DepthDuration_HTML.html#129,129,1536,864,1536,864,8-22-2022,8-9-31,145,depth_duration_stimuli/000469_2014-06-09_19-42-10_260595134347_rgbf000081-resize_1/000469_2014-06-09_19-42-10_260595134347_rgbf000081-resize_1-target.png,1000,1.652,4,2788,1011,feet,jsons/v1_VE1000_randls_16_rotated.json,836740,1033573,40,Woman
145,556086,DepthScenes,duration_manipulation_targetAtFixation,jsons/v1_VE1000_randls_16_rotated.json,http://54.235.29.9/FacialAge/BNav_EC2/DepthDuration/v2_depth_duration_MTurk/v2_DepthDuration_HTML.html#129,129,1536,864,1536,864,8-22-2022,8-9-31,146,depth_duration_stimuli/002425_2014-06-28_20-27-29_260595134347_rgbf000031-resize_8/002425_2014-06-28_20-27-29_260595134347_rgbf000031-resize_8-target.png,1000,3.8960000000000004,12,3806,996,feet,jsons/v1_VE1000_randls_16_rotated.json,836740,1033573,40,Woman
146,556086,DepthScenes,duration_manipulation_targetAtFixation,jsons/v1_VE1000_randls_16_rotated.json,http://54.235.29.9/FacialAge/BNav_EC2/DepthDuration/v2_depth_duration_MTurk/v2_DepthDuration_HTML.html#129,129,1536,864,1536,864,8-22-2022,8-9-31,147,depth_duration_stimuli/000642_2014-06-08_16-59-25_260595134347_rgbf000098-resize_2/000642_2014-06-08_16-59-25_260595134347_rgbf000098-resize_2-target.png,1000,2.8815,10,3597,999,feet,jsons/v1_VE1000_randls_16_rotated.json,836740,1033573,40,Woman
147,556086,DepthScenes,duration_manipulation_targetAtFixation,jsons/v1_VE1000_randls_16_rotated.json,http://54.235.29.9/FacialAge/BNav_EC2/DepthDuration/v2_depth_duration_MTurk/v2_DepthDuration_HTML.html#129,129,1536,864,1536,864,8-22-2022,8-9-31,148,depth_duration_stimuli/003010_2014-06-15_12-54-35_094959634447_rgbf000112-resize_0/003010_2014-06-15_12-54-35_094959634447_rgbf000112-resize_0-target.png,1000,3.1185,14,3139,998,feet,jsons/v1_VE1000_randls_16_rotated.json,836740,1033573,40,Woman
148,556086,DepthScenes,duration_manipulation_targetAtFixation,jsons/v1_VE1000_randls_16_rotated.json,http://54.235.29.9/FacialAge/BNav_EC2/DepthDuration/v2_depth_duration_MTurk/v2_DepthDuration_HTML.html#129,129,1536,864,1536,864,8-22-2022,8-9-31,149,depth_duration_stimuli/001810_2014-06-26_20-51-35_260595134347_rgbf000040-resize_3/001810_2014-06-26_20-51-35_260595134347_rgbf000040-resize_3-target.png,1000,2.2525,5,3246,993,feet,jsons/v1_VE1000_randls_16_rotated.json,836740,1033573,40,Woman
149,556086,DepthScenes,duration_manipulation_targetAtFixation,jsons/v1_VE1000_randls_16_rotated.json,http://54.235.29.9/FacialAge/BNav_EC2/DepthDuration/v2_depth_duration_MTurk/v2_DepthDuration_HTML.html#129,129,1536,864,1536,864,8-22-2022,8-9-31,150,depth_duration_stimuli/000927_2014-06-09_16-32-30_260595134347_rgbf000123-resize_3/000927_2014-06-09_16-32-30_260595134347_rgbf000123-resize_3-target.png,1000,2.6785,13,3959,998,feet,jsons/v1_VE1000_randls_16_rotated.json,836740,1033573,40,Woman
150,556086,DepthScenes,duration_manipulation_targetAtFixation,jsons/v1_VE1000_randls_16_rotated.json,http://54.235.29.9/FacialAge/BNav_EC2/DepthDuration/v2_depth_duration_MTurk/v2_DepthDuration_HTML.html#129,129,1536,864,1536,864,8-22-2022,8-9-31,151,depth_duration_stimuli/001110_2014-06-15_17-25-28_260595134347_rgbf000150-resize_1/001110_2014-06-15_17-25-28_260595134347_rgbf000150-resize_1-target.png,1000,1.7115,7,4071,998,feet,jsons/v1_VE1000_randls_16_rotated.json,836740,1033573,40,Woman
151,556086,DepthScenes,duration_manipulation_targetAtFixation,jsons/v1_VE1000_randls_16_rotated.json,http://54.235.29.9/FacialAge/BNav_EC2/DepthDuration/v2_depth_duration_MTurk/v2_DepthDuration_HTML.html#129,129,1536,864,1536,864,8-22-2022,8-9-31,152,depth_duration_stimuli/000569_2014-06-09_22-51-47_260595134347_rgbf000141-resize_3/000569_2014-06-09_22-51-47_260595134347_rgbf000141-resize-original.jpg,1000,4.512,0,4808,999,feet,jsons/v1_VE1000_randls_16_rotated.json,836740,1033573,40,Woman
152,556086,DepthScenes,duration_manipulation_targetAtFixation,jsons/v1_VE1000_randls_16_rotated.json,http://54.235.29.9/FacialAge/BNav_EC2/DepthDuration/v2_depth_duration_MTurk/v2_DepthDuration_HTML.html#129,129,1536,864,1536,864,8-22-2022,8-9-31,153,depth_duration_stimuli/003079_2014-06-15_15-18-20_094959634447_rgbf000152-resize_8/003079_2014-06-15_15-18-20_094959634447_rgbf000152-resize_8-target.png,1000,2.8775,13,3889,993,feet,jsons/v1_VE1000_randls_16_rotated.json,836740,1033573,40,Woman
153,556086,DepthScenes,duration_manipulation_targetAtFixation,jsons/v1_VE1000_randls_16_rotated.json,http://54.235.29.9/FacialAge/BNav_EC2/DepthDuration/v2_depth_duration_MTurk/v2_DepthDuration_HTML.html#129,129,1536,864,1536,864,8-22-2022,8-9-31,154,depth_duration_stimuli/000506_2014-06-08_23-21-00_260595134347_rgbf000070-resize_7/000506_2014-06-08_23-21-00_260595134347_rgbf000070-resize_7-target.png,1000,4.0585,8,3051,997,feet,jsons/v1_VE1000_randls_16_rotated.json,836740,1033573,40,Woman
154,556086,DepthScenes,duration_manipulation_targetAtFixation,jsons/v1_VE1000_randls_16_rotated.json,http://54.235.29.9/FacialAge/BNav_EC2/DepthDuration/v2_depth_duration_MTurk/v2_DepthDuration_HTML.html#129,129,1536,864,1536,864,8-22-2022,8-9-31,155,depth_duration_stimuli/000691_2014-06-08_13-08-50_260595134347_rgbf000132-resize_3/000691_2014-06-08_13-08-50_260595134347_rgbf000132-resize_3-target.png,1000,4.1530000000000005,9,2905,1011,feet,jsons/v1_VE1000_randls_16_rotated.json,836740,1033573,40,Woman
155,556086,DepthScenes,duration_manipulation_targetAtFixation,jsons/v1_VE1000_randls_16_rotated.json,http://54.235.29.9/FacialAge/BNav_EC2/DepthDuration/v2_depth_duration_MTurk/v2_DepthDuration_HTML.html#129,129,1536,864,1536,864,8-22-2022,8-9-31,156,depth_duration_stimuli/002213_2014-06-28_18-37-58_260595134347_rgbf000055-resize_1/002213_2014-06-28_18-37-58_260595134347_rgbf000055-resize_1-target.png,1000,3.62,13,2915,998,feet,jsons/v1_VE1000_randls_16_rotated.json,836740,1033573,40,Woman
156,556086,DepthScenes,duration_manipulation_targetAtFixation,jsons/v1_VE1000_randls_16_rotated.json,http://54.235.29.9/FacialAge/BNav_EC2/DepthDuration/v2_depth_duration_MTurk/v2_DepthDuration_HTML.html#129,129,1536,864,1536,864,8-22-2022,8-9-31,157,depth_duration_stimuli/001828_2014-06-26_21-40-03_260595134347_rgbf000024-resize_0/001828_2014-06-26_21-40-03_260595134347_rgbf000024-resize_0-target.png,1000,4.8260000000000005,11,3476,998,feet,jsons/v1_VE1000_randls_16_rotated.json,836740,1033573,40,Woman
157,556086,DepthScenes,duration_manipulation_targetAtFixation,jsons/v1_VE1000_randls_16_rotated.json,http://54.235.29.9/FacialAge/BNav_EC2/DepthDuration/v2_depth_duration_MTurk/v2_DepthDuration_HTML.html#129,129,1536,864,1536,864,8-22-2022,8-9-31,158,depth_duration_stimuli/000009_2014-05-26_14-32-05_260595134347_rgbf000034-resize_3/000009_2014-05-26_14-32-05_260595134347_rgbf000034-resize_3-target.png,1000,3.8715,15,3102,1000,feet,jsons/v1_VE1000_randls_16_rotated.json,836740,1033573,40,Woman
158,556086,DepthScenes,duration_manipulation_targetAtFixation,jsons/v1_VE1000_randls_16_rotated.json,http://54.235.29.9/FacialAge/BNav_EC2/DepthDuration/v2_depth_duration_MTurk/v2_DepthDuration_HTML.html#129,129,1536,864,1536,864,8-22-2022,8-9-31,159,depth_duration_stimuli/000854_2014-06-09_19-43-13_260595134347_rgbf000066-resize_0/000854_2014-06-09_19-43-13_260595134347_rgbf000066-resize_0-target.png,1000,3.068,7,4080,991,feet,jsons/v1_VE1000_randls_16_rotated.json,836740,1033573,40,Woman
159,556086,DepthScenes,duration_manipulation_targetAtFixation,jsons/v1_VE1000_randls_16_rotated.json,http://54.235.29.9/FacialAge/BNav_EC2/DepthDuration/v2_depth_duration_MTurk/v2_DepthDuration_HTML.html#129,129,1536,864,1536,864,8-22-2022,8-9-31,160,depth_duration_stimuli/000758_2014-06-08_22-05-08_260595134347_rgbf000085-resize_0/000758_2014-06-08_22-05-08_260595134347_rgbf000085-resize_0-target.png,1000,3.3810000000000002,8,2492,998,feet,jsons/v1_VE1000_randls_16_rotated.json,836740,1033573,40,Woman
160,556086,DepthScenes,duration_manipulation_targetAtFixation,jsons/v1_VE1000_randls_16_rotated.json,http://54.235.29.9/FacialAge/BNav_EC2/DepthDuration/v2_depth_duration_MTurk/v2_DepthDuration_HTML.html#129,129,1536,864,1536,864,8-22-2022,8-9-31,161,depth_duration_stimuli/000409_2014-06-04_19-23-33_260595134347_rgbf000067-resize_0/000409_2014-06-04_19-23-33_260595134347_rgbf000067-resize_0-target.png,1000,3.7335,8,3559,1000,feet,jsons/v1_VE1000_randls_16_rotated.json,836740,1033573,40,Woman
161,556086,DepthScenes,duration_manipulation_targetAtFixation,jsons/v1_VE1000_randls_16_rotated.json,http://54.235.29.9/FacialAge/BNav_EC2/DepthDuration/v2_depth_duration_MTurk/v2_DepthDuration_HTML.html#129,129,1536,864,1536,864,8-22-2022,8-9-31,162,depth_duration_stimuli/002663_2014-06-13_15-50-26_094959634447_rgbf000075-resize_1/002663_2014-06-13_15-50-26_094959634447_rgbf000075-resize_1-target.png,1000,4.7495,12,2911,992,feet,jsons/v1_VE1000_randls_16_rotated.json,836740,1033573,40,Woman
162,556086,DepthScenes,duration_manipulation_targetAtFixation,jsons/v1_VE1000_randls_16_rotated.json,http://54.235.29.9/FacialAge/BNav_EC2/DepthDuration/v2_depth_duration_MTurk/v2_DepthDuration_HTML.html#129,129,1536,864,1536,864,8-22-2022,8-9-31,163,depth_duration_stimuli/002995_2014-06-15_12-31-26_094959634447_rgbf000150-resize_1/002995_2014-06-15_12-31-26_094959634447_rgbf000150-resize_1-target.png,1000,3.8360000000000003,10,3479,1010,feet,jsons/v1_VE1000_randls_16_rotated.json,836740,1033573,40,Woman
163,556086,DepthScenes,duration_manipulation_targetAtFixation,jsons/v1_VE1000_randls_16_rotated.json,http://54.235.29.9/FacialAge/BNav_EC2/DepthDuration/v2_depth_duration_MTurk/v2_DepthDuration_HTML.html#129,129,1536,864,1536,864,8-22-2022,8-9-31,164,depth_duration_stimuli/002748_2014-06-22_19-07-22_094959634447_rgbf000078-resize_1/002748_2014-06-22_19-07-22_094959634447_rgbf000078-resize_1-target.png,1000,4.6705,17,3527,997,feet,jsons/v1_VE1000_randls_16_rotated.json,836740,1033573,40,Woman
