,subjID,experimentName,versionName,sequenceName,url,selected_row,windowWidth,windowHeight,screenWidth,screenHeight,startDate,startTime,trial,stimulus,duration,actual_depth,depth_estimate,trial_RT,log_sceneDuration,unitSelection,seq_filepath,experimentTime,totalTime,age,gender
0,556273,DepthScenes,duration_manipulation_targetAtFixation,jsons/VE125_randls_6.json,http://54.235.29.9/FacialAge/BNav_EC2/DepthDuration/v2_depth_duration_MTurk/v2_DepthDuration_HTML.html#91,91,1280,569,1280,720,9-19-2022,15-59-28,1,depth_duration_stimuli/002663_2014-06-13_15-50-26_094959634447_rgbf000075-resize_1/002663_2014-06-13_15-50-26_094959634447_rgbf000075-resize_1-target.png,125,4.7495,12.0,2726,125,feet,jsons/VE125_randls_6.json,496525,690037,29,Man
1,556273,DepthScenes,duration_manipulation_targetAtFixation,jsons/VE125_randls_6.json,http://54.235.29.9/FacialAge/BNav_EC2/DepthDuration/v2_depth_duration_MTurk/v2_DepthDuration_HTML.html#91,91,1280,569,1280,720,9-19-2022,15-59-28,2,depth_duration_stimuli/000409_2014-06-04_19-23-33_260595134347_rgbf000067-resize_0/000409_2014-06-04_19-23-33_260595134347_rgbf000067-resize_0-target.png,125,3.7335,8.0,3777,123,feet,jsons/VE125_randls_6.json,496525,690037,29,Man
2,556273,DepthScenes,duration_manipulation_targetAtFixation,jsons/VE125_randls_6.json,http://54.235.29.9/FacialAge/BNav_EC2/DepthDuration/v2_depth_duration_MTurk/v2_DepthDuration_HTML.html#91,91,1280,569,1280,720,9-19-2022,15-59-28,3,depth_duration_stimuli/002905_2014-06-03_18-04-43_094959634447_rgbf000151-resize_2/002905_2014-06-03_18-04-43_094959634447_rgbf000151-resize_2-target.png,125,2.0295,6.0,4199,127,feet,jsons/VE125_randls_6.json,496525,690037,29,Man
3,556273,DepthScenes,duration_manipulation_targetAtFixation,jsons/VE125_randls_6.json,http://54.235.29.9/FacialAge/BNav_EC2/DepthDuration/v2_depth_duration_MTurk/v2_DepthDuration_HTML.html#91,91,1280,569,1280,720,9-19-2022,15-59-28,4,depth_duration_stimuli/003423_2014-05-21_10-23-26_094959634447_rgbf002665-resize_2/003423_2014-05-21_10-23-26_094959634447_rgbf002665-resize_2-target.png,125,3.2575,15.0,4603,124,feet,jsons/VE125_randls_6.json,496525,690037,29,Man
4,556273,DepthScenes,duration_manipulation_targetAtFixation,jsons/VE125_randls_6.json,http://54.235.29.9/FacialAge/BNav_EC2/DepthDuration/v2_depth_duration_MTurk/v2_DepthDuration_HTML.html#91,91,1280,569,1280,720,9-19-2022,15-59-28,5,depth_duration_stimuli/000642_2014-06-08_16-59-25_260595134347_rgbf000098-resize_2/000642_2014-06-08_16-59-25_260595134347_rgbf000098-resize_2-target.png,125,2.8815,9.0,3724,124,feet,jsons/VE125_randls_6.json,496525,690037,29,Man
5,556273,DepthScenes,duration_manipulation_targetAtFixation,jsons/VE125_randls_6.json,http://54.235.29.9/FacialAge/BNav_EC2/DepthDuration/v2_depth_duration_MTurk/v2_DepthDuration_HTML.html#91,91,1280,569,1280,720,9-19-2022,15-59-28,6,depth_duration_stimuli/002425_2014-06-28_20-27-29_260595134347_rgbf000031-resize_8/002425_2014-06-28_20-27-29_260595134347_rgbf000031-resize_8-target.png,125,3.8960000000000004,10.0,3761,116,feet,jsons/VE125_randls_6.json,496525,690037,29,Man
6,556273,DepthScenes,duration_manipulation_targetAtFixation,jsons/VE125_randls_6.json,http://54.235.29.9/FacialAge/BNav_EC2/DepthDuration/v2_depth_duration_MTurk/v2_DepthDuration_HTML.html#91,91,1280,569,1280,720,9-19-2022,15-59-28,7,depth_duration_stimuli/001449_2014-06-19_17-01-27_260595134347_rgbf000116-resize_2/001449_2014-06-19_17-01-27_260595134347_rgbf000116-resize_2-target.png,125,3.452,6.5,5554,123,feet,jsons/VE125_randls_6.json,496525,690037,29,Man
7,556273,DepthScenes,duration_manipulation_targetAtFixation,jsons/VE125_randls_6.json,http://54.235.29.9/FacialAge/BNav_EC2/DepthDuration/v2_depth_duration_MTurk/v2_DepthDuration_HTML.html#91,91,1280,569,1280,720,9-19-2022,15-59-28,8,depth_duration_stimuli/001450_2014-06-19_17-02-03_260595134347_rgbf000203-resize_4/001450_2014-06-19_17-02-03_260595134347_rgbf000203-resize_4-target.png,125,4.0106666666667,9.5,4472,123,feet,jsons/VE125_randls_6.json,496525,690037,29,Man
8,556273,DepthScenes,duration_manipulation_targetAtFixation,jsons/VE125_randls_6.json,http://54.235.29.9/FacialAge/BNav_EC2/DepthDuration/v2_depth_duration_MTurk/v2_DepthDuration_HTML.html#91,91,1280,569,1280,720,9-19-2022,15-59-28,9,depth_duration_stimuli/002272_2014-06-28_18-53-56_260595134347_rgbf000067-resize_2/002272_2014-06-28_18-53-56_260595134347_rgbf000067-resize_2-target.png,125,1.138,3.0,2252,130,feet,jsons/VE125_randls_6.json,496525,690037,29,Man
9,556273,DepthScenes,duration_manipulation_targetAtFixation,jsons/VE125_randls_6.json,http://54.235.29.9/FacialAge/BNav_EC2/DepthDuration/v2_depth_duration_MTurk/v2_DepthDuration_HTML.html#91,91,1280,569,1280,720,9-19-2022,15-59-28,10,depth_duration_stimuli/001571_2014-06-20_17-21-32_260595134347_rgbf000089-resize_1/001571_2014-06-20_17-21-32_260595134347_rgbf000089-resize_1-target.png,125,1.86,4.5,2207,123,feet,jsons/VE125_randls_6.json,496525,690037,29,Man
10,556273,DepthScenes,duration_manipulation_targetAtFixation,jsons/VE125_randls_6.json,http://54.235.29.9/FacialAge/BNav_EC2/DepthDuration/v2_depth_duration_MTurk/v2_DepthDuration_HTML.html#91,91,1280,569,1280,720,9-19-2022,15-59-28,11,depth_duration_stimuli/002630_2014-06-24_14-47-50_094959634447_rgbf000055-resize_1/002630_2014-06-24_14-47-50_094959634447_rgbf000055-resize_1-target.png,125,3.0095,14.0,3198,125,feet,jsons/VE125_randls_6.json,496525,690037,29,Man
11,556273,DepthScenes,duration_manipulation_targetAtFixation,jsons/VE125_randls_6.json,http://54.235.29.9/FacialAge/BNav_EC2/DepthDuration/v2_depth_duration_MTurk/v2_DepthDuration_HTML.html#91,91,1280,569,1280,720,9-19-2022,15-59-28,12,depth_duration_stimuli/002758_2014-06-22_19-11-20_094959634447_rgbf000128-resize_1/002758_2014-06-22_19-11-20_094959634447_rgbf000128-resize_1-target.png,125,2.555,5.0,2005,115,feet,jsons/VE125_randls_6.json,496525,690037,29,Man
12,556273,DepthScenes,duration_manipulation_targetAtFixation,jsons/VE125_randls_6.json,http://54.235.29.9/FacialAge/BNav_EC2/DepthDuration/v2_depth_duration_MTurk/v2_DepthDuration_HTML.html#91,91,1280,569,1280,720,9-19-2022,15-59-28,13,depth_duration_stimuli/000569_2014-06-09_22-51-47_260595134347_rgbf000141-resize_3/000569_2014-06-09_22-51-47_260595134347_rgbf000141-resize-original.jpg,125,4.512,0.0,2735,128,feet,jsons/VE125_randls_6.json,496525,690037,29,Man
13,556273,DepthScenes,duration_manipulation_targetAtFixation,jsons/VE125_randls_6.json,http://54.235.29.9/FacialAge/BNav_EC2/DepthDuration/v2_depth_duration_MTurk/v2_DepthDuration_HTML.html#91,91,1280,569,1280,720,9-19-2022,15-59-28,14,depth_duration_stimuli/002784_2014-06-22_19-26-30_094959634447_rgbf000083-resize_3/002784_2014-06-22_19-26-30_094959634447_rgbf000083-resize_3-target.png,125,1.8046666666667,5.0,2417,123,feet,jsons/VE125_randls_6.json,496525,690037,29,Man
14,556273,DepthScenes,duration_manipulation_targetAtFixation,jsons/VE125_randls_6.json,http://54.235.29.9/FacialAge/BNav_EC2/DepthDuration/v2_depth_duration_MTurk/v2_DepthDuration_HTML.html#91,91,1280,569,1280,720,9-19-2022,15-59-28,15,depth_duration_stimuli/001100_2014-06-15_17-46-26_260595134347_rgbf000225-resize_2/001100_2014-06-15_17-46-26_260595134347_rgbf000225-resize_2-target.png,125,2.24,4.5,3333,124,feet,jsons/VE125_randls_6.json,496525,690037,29,Man
15,556273,DepthScenes,duration_manipulation_targetAtFixation,jsons/VE125_randls_6.json,http://54.235.29.9/FacialAge/BNav_EC2/DepthDuration/v2_depth_duration_MTurk/v2_DepthDuration_HTML.html#91,91,1280,569,1280,720,9-19-2022,15-59-28,16,depth_duration_stimuli/002988_2014-06-15_12-24-20_094959634447_rgbf000150-resize_1/002988_2014-06-15_12-24-20_094959634447_rgbf000150-resize_1-target.png,125,4.7669999999999995,9.0,2010,126,feet,jsons/VE125_randls_6.json,496525,690037,29,Man
16,556273,DepthScenes,duration_manipulation_targetAtFixation,jsons/VE125_randls_6.json,http://54.235.29.9/FacialAge/BNav_EC2/DepthDuration/v2_depth_duration_MTurk/v2_DepthDuration_HTML.html#91,91,1280,569,1280,720,9-19-2022,15-59-28,17,depth_duration_stimuli/001052_2014-06-08_18-24-54_260595134347_rgbf000130-resize_1/001052_2014-06-08_18-24-54_260595134347_rgbf000130-resize_1-target.png,125,4.1045,8.0,1863,125,feet,jsons/VE125_randls_6.json,496525,690037,29,Man
17,556273,DepthScenes,duration_manipulation_targetAtFixation,jsons/VE125_randls_6.json,http://54.235.29.9/FacialAge/BNav_EC2/DepthDuration/v2_depth_duration_MTurk/v2_DepthDuration_HTML.html#91,91,1280,569,1280,720,9-19-2022,15-59-28,18,depth_duration_stimuli/002748_2014-06-22_19-07-22_094959634447_rgbf000078-resize_1/002748_2014-06-22_19-07-22_094959634447_rgbf000078-resize_1-target.png,125,4.6705,11.0,2269,123,feet,jsons/VE125_randls_6.json,496525,690037,29,Man
18,556273,DepthScenes,duration_manipulation_targetAtFixation,jsons/VE125_randls_6.json,http://54.235.29.9/FacialAge/BNav_EC2/DepthDuration/v2_depth_duration_MTurk/v2_DepthDuration_HTML.html#91,91,1280,569,1280,720,9-19-2022,15-59-28,19,depth_duration_stimuli/002995_2014-06-15_12-31-26_094959634447_rgbf000150-resize_1/002995_2014-06-15_12-31-26_094959634447_rgbf000150-resize_1-target.png,125,3.8360000000000003,10.0,2472,125,feet,jsons/VE125_randls_6.json,496525,690037,29,Man
19,556273,DepthScenes,duration_manipulation_targetAtFixation,jsons/VE125_randls_6.json,http://54.235.29.9/FacialAge/BNav_EC2/DepthDuration/v2_depth_duration_MTurk/v2_DepthDuration_HTML.html#91,91,1280,569,1280,720,9-19-2022,15-59-28,20,depth_duration_stimuli/002213_2014-06-28_18-37-58_260595134347_rgbf000055-resize_1/002213_2014-06-28_18-37-58_260595134347_rgbf000055-resize_1-target.png,125,3.62,9.0,3200,125,feet,jsons/VE125_randls_6.json,496525,690037,29,Man
20,556273,DepthScenes,duration_manipulation_targetAtFixation,jsons/VE125_randls_6.json,http://54.235.29.9/FacialAge/BNav_EC2/DepthDuration/v2_depth_duration_MTurk/v2_DepthDuration_HTML.html#91,91,1280,569,1280,720,9-19-2022,15-59-28,21,depth_duration_stimuli/000691_2014-06-08_13-08-50_260595134347_rgbf000132-resize_3/000691_2014-06-08_13-08-50_260595134347_rgbf000132-resize_3-target.png,125,4.1530000000000005,8.5,3052,125,feet,jsons/VE125_randls_6.json,496525,690037,29,Man
21,556273,DepthScenes,duration_manipulation_targetAtFixation,jsons/VE125_randls_6.json,http://54.235.29.9/FacialAge/BNav_EC2/DepthDuration/v2_depth_duration_MTurk/v2_DepthDuration_HTML.html#91,91,1280,569,1280,720,9-19-2022,15-59-28,22,depth_duration_stimuli/003492_2014-05-21_15-50-55_094959634447_rgbf000828-resize_1/003492_2014-05-21_15-50-55_094959634447_rgbf000828-resize_1-target.png,125,4.06875,8.75,6097,124,feet,jsons/VE125_randls_6.json,496525,690037,29,Man
22,556273,DepthScenes,duration_manipulation_targetAtFixation,jsons/VE125_randls_6.json,http://54.235.29.9/FacialAge/BNav_EC2/DepthDuration/v2_depth_duration_MTurk/v2_DepthDuration_HTML.html#91,91,1280,569,1280,720,9-19-2022,15-59-28,23,depth_duration_stimuli/002568_2014-06-24_13-59-21_094959634447_rgbf000062-resize_4/002568_2014-06-24_13-59-21_094959634447_rgbf000062-resize_4-target.png,125,3.015,6.0,3283,128,feet,jsons/VE125_randls_6.json,496525,690037,29,Man
23,556273,DepthScenes,duration_manipulation_targetAtFixation,jsons/VE125_randls_6.json,http://54.235.29.9/FacialAge/BNav_EC2/DepthDuration/v2_depth_duration_MTurk/v2_DepthDuration_HTML.html#91,91,1280,569,1280,720,9-19-2022,15-59-28,24,depth_duration_stimuli/001011_2014-06-08_23-18-54_260595134347_rgbf000044-resize_4/001011_2014-06-08_23-18-54_260595134347_rgbf000044-resize_4-target.png,125,2.4730000000000003,5.5,2251,125,feet,jsons/VE125_randls_6.json,496525,690037,29,Man
24,556273,DepthScenes,duration_manipulation_targetAtFixation,jsons/VE125_randls_6.json,http://54.235.29.9/FacialAge/BNav_EC2/DepthDuration/v2_depth_duration_MTurk/v2_DepthDuration_HTML.html#91,91,1280,569,1280,720,9-19-2022,15-59-28,25,depth_duration_stimuli/002875_2014-06-01_15-19-00_094959634447_rgbf000151-resize_1/002875_2014-06-01_15-19-00_094959634447_rgbf000151-resize_1-target.png,125,1.9675,4.5,2386,126,feet,jsons/VE125_randls_6.json,496525,690037,29,Man
25,556273,DepthScenes,duration_manipulation_targetAtFixation,jsons/VE125_randls_6.json,http://54.235.29.9/FacialAge/BNav_EC2/DepthDuration/v2_depth_duration_MTurk/v2_DepthDuration_HTML.html#91,91,1280,569,1280,720,9-19-2022,15-59-28,26,depth_duration_stimuli/002964_2014-06-08_17-46-11_094959634447_rgbf000091-resize_4/002964_2014-06-08_17-46-11_094959634447_rgbf000091-resize_4-target.png,125,1.6909999999999998,3.0,1732,124,feet,jsons/VE125_randls_6.json,496525,690037,29,Man
26,556273,DepthScenes,duration_manipulation_targetAtFixation,jsons/VE125_randls_6.json,http://54.235.29.9/FacialAge/BNav_EC2/DepthDuration/v2_depth_duration_MTurk/v2_DepthDuration_HTML.html#91,91,1280,569,1280,720,9-19-2022,15-59-28,27,depth_duration_stimuli/002136_2014-06-25_21-18-03_260595134347_rgbf000109-resize_3/002136_2014-06-25_21-18-03_260595134347_rgbf000109-resize_3-target.png,125,1.9569999999999999,5.0,1964,114,feet,jsons/VE125_randls_6.json,496525,690037,29,Man
27,556273,DepthScenes,duration_manipulation_targetAtFixation,jsons/VE125_randls_6.json,http://54.235.29.9/FacialAge/BNav_EC2/DepthDuration/v2_depth_duration_MTurk/v2_DepthDuration_HTML.html#91,91,1280,569,1280,720,9-19-2022,15-59-28,28,depth_duration_stimuli/001555_2014-06-20_17-12-10_260595134347_rgbf000065-resize_4/001555_2014-06-20_17-12-10_260595134347_rgbf000065-resize_4-target.png,125,1.633,4.0,2333,110,feet,jsons/VE125_randls_6.json,496525,690037,29,Man
28,556273,DepthScenes,duration_manipulation_targetAtFixation,jsons/VE125_randls_6.json,http://54.235.29.9/FacialAge/BNav_EC2/DepthDuration/v2_depth_duration_MTurk/v2_DepthDuration_HTML.html#91,91,1280,569,1280,720,9-19-2022,15-59-28,29,depth_duration_stimuli/000103_2014-05-14_22-01-17_260595134347_rgbf000152-resize_5/000103_2014-05-14_22-01-17_260595134347_rgbf000152-resize_5-target.png,125,1.993,7.0,2447,133,feet,jsons/VE125_randls_6.json,496525,690037,29,Man
29,556273,DepthScenes,duration_manipulation_targetAtFixation,jsons/VE125_randls_6.json,http://54.235.29.9/FacialAge/BNav_EC2/DepthDuration/v2_depth_duration_MTurk/v2_DepthDuration_HTML.html#91,91,1280,569,1280,720,9-19-2022,15-59-28,30,depth_duration_stimuli/000375_2014-06-08_11-17-29_260595134347_rgbf000133-resize_2/000375_2014-06-08_11-17-29_260595134347_rgbf000133-resize-original.jpg,125,4.718,0.0,1886,124,feet,jsons/VE125_randls_6.json,496525,690037,29,Man
30,556273,DepthScenes,duration_manipulation_targetAtFixation,jsons/VE125_randls_6.json,http://54.235.29.9/FacialAge/BNav_EC2/DepthDuration/v2_depth_duration_MTurk/v2_DepthDuration_HTML.html#91,91,1280,569,1280,720,9-19-2022,15-59-28,31,depth_duration_stimuli/001175_2014-06-17_15-45-55_260595134347_rgbf000129-resize_4/001175_2014-06-17_15-45-55_260595134347_rgbf000129-resize_4-target.png,125,4.255,12.0,2599,136,feet,jsons/VE125_randls_6.json,496525,690037,29,Man
31,556273,DepthScenes,duration_manipulation_targetAtFixation,jsons/VE125_randls_6.json,http://54.235.29.9/FacialAge/BNav_EC2/DepthDuration/v2_depth_duration_MTurk/v2_DepthDuration_HTML.html#91,91,1280,569,1280,720,9-19-2022,15-59-28,32,depth_duration_stimuli/003490_2014-05-21_15-50-11_094959634447_rgbf000101-resize_3/003490_2014-05-21_15-50-11_094959634447_rgbf000101-resize_3-target.png,125,3.6445,8.0,2295,124,feet,jsons/VE125_randls_6.json,496525,690037,29,Man
32,556273,DepthScenes,duration_manipulation_targetAtFixation,jsons/VE125_randls_6.json,http://54.235.29.9/FacialAge/BNav_EC2/DepthDuration/v2_depth_duration_MTurk/v2_DepthDuration_HTML.html#91,91,1280,569,1280,720,9-19-2022,15-59-28,33,depth_duration_stimuli/003534_2014-05-22_15-06-10_094959634447_rgbf000102-resize_4/003534_2014-05-22_15-06-10_094959634447_rgbf000102-resize_4-target.png,125,1.426,5.0,2154,126,feet,jsons/VE125_randls_6.json,496525,690037,29,Man
33,556273,DepthScenes,duration_manipulation_targetAtFixation,jsons/VE125_randls_6.json,http://54.235.29.9/FacialAge/BNav_EC2/DepthDuration/v2_depth_duration_MTurk/v2_DepthDuration_HTML.html#91,91,1280,569,1280,720,9-19-2022,15-59-28,34,depth_duration_stimuli/002637_2014-06-24_14-51-13_094959634447_rgbf000066-resize_4/002637_2014-06-24_14-51-13_094959634447_rgbf000066-resize_4-target.png,125,1.9955,7.0,1913,124,feet,jsons/VE125_randls_6.json,496525,690037,29,Man
34,556273,DepthScenes,duration_manipulation_targetAtFixation,jsons/VE125_randls_6.json,http://54.235.29.9/FacialAge/BNav_EC2/DepthDuration/v2_depth_duration_MTurk/v2_DepthDuration_HTML.html#91,91,1280,569,1280,720,9-19-2022,15-59-28,35,depth_duration_stimuli/001110_2014-06-15_17-25-28_260595134347_rgbf000150-resize_1/001110_2014-06-15_17-25-28_260595134347_rgbf000150-resize_1-target.png,125,1.7115,6.0,3137,123,feet,jsons/VE125_randls_6.json,496525,690037,29,Man
35,556273,DepthScenes,duration_manipulation_targetAtFixation,jsons/VE125_randls_6.json,http://54.235.29.9/FacialAge/BNav_EC2/DepthDuration/v2_depth_duration_MTurk/v2_DepthDuration_HTML.html#91,91,1280,569,1280,720,9-19-2022,15-59-28,36,depth_duration_stimuli/000927_2014-06-09_16-32-30_260595134347_rgbf000123-resize_3/000927_2014-06-09_16-32-30_260595134347_rgbf000123-resize_3-target.png,125,2.6785,7.5,2526,125,feet,jsons/VE125_randls_6.json,496525,690037,29,Man
36,556273,DepthScenes,duration_manipulation_targetAtFixation,jsons/VE125_randls_6.json,http://54.235.29.9/FacialAge/BNav_EC2/DepthDuration/v2_depth_duration_MTurk/v2_DepthDuration_HTML.html#91,91,1280,569,1280,720,9-19-2022,15-59-28,37,depth_duration_stimuli/001810_2014-06-26_20-51-35_260595134347_rgbf000040-resize_3/001810_2014-06-26_20-51-35_260595134347_rgbf000040-resize_3-target.png,125,2.2525,5.5,1952,125,feet,jsons/VE125_randls_6.json,496525,690037,29,Man
37,556273,DepthScenes,duration_manipulation_targetAtFixation,jsons/VE125_randls_6.json,http://54.235.29.9/FacialAge/BNav_EC2/DepthDuration/v2_depth_duration_MTurk/v2_DepthDuration_HTML.html#91,91,1280,569,1280,720,9-19-2022,15-59-28,38,depth_duration_stimuli/003010_2014-06-15_12-54-35_094959634447_rgbf000112-resize_0/003010_2014-06-15_12-54-35_094959634447_rgbf000112-resize_0-target.png,125,3.1185,8.0,3929,126,feet,jsons/VE125_randls_6.json,496525,690037,29,Man
38,556273,DepthScenes,duration_manipulation_targetAtFixation,jsons/VE125_randls_6.json,http://54.235.29.9/FacialAge/BNav_EC2/DepthDuration/v2_depth_duration_MTurk/v2_DepthDuration_HTML.html#91,91,1280,569,1280,720,9-19-2022,15-59-28,39,depth_duration_stimuli/002445_2014-06-28_20-32-16_260595134347_rgbf000029-resize_4/002445_2014-06-28_20-32-16_260595134347_rgbf000029-resize_4-target.png,125,2.5315,6.0,2296,123,feet,jsons/VE125_randls_6.json,496525,690037,29,Man
39,556273,DepthScenes,duration_manipulation_targetAtFixation,jsons/VE125_randls_6.json,http://54.235.29.9/FacialAge/BNav_EC2/DepthDuration/v2_depth_duration_MTurk/v2_DepthDuration_HTML.html#91,91,1280,569,1280,720,9-19-2022,15-59-28,40,depth_duration_stimuli/000780_2014-06-08_22-28-29_260595134347_rgbf000126-resize_1/000780_2014-06-08_22-28-29_260595134347_rgbf000126-resize_1-target.png,125,3.3825,12.0,3021,123,feet,jsons/VE125_randls_6.json,496525,690037,29,Man
40,556273,DepthScenes,duration_manipulation_targetAtFixation,jsons/VE125_randls_6.json,http://54.235.29.9/FacialAge/BNav_EC2/DepthDuration/v2_depth_duration_MTurk/v2_DepthDuration_HTML.html#91,91,1280,569,1280,720,9-19-2022,15-59-28,41,depth_duration_stimuli/002763_2014-06-22_19-13-10_094959634447_rgbf000075-resize_4/002763_2014-06-22_19-13-10_094959634447_rgbf000075-resize_4-target.png,125,1.68375,6.0,1862,126,feet,jsons/VE125_randls_6.json,496525,690037,29,Man
41,556273,DepthScenes,duration_manipulation_targetAtFixation,jsons/VE125_randls_6.json,http://54.235.29.9/FacialAge/BNav_EC2/DepthDuration/v2_depth_duration_MTurk/v2_DepthDuration_HTML.html#91,91,1280,569,1280,720,9-19-2022,15-59-28,42,depth_duration_stimuli/002209_2014-06-28_18-36-10_260595134347_rgbf000051-resize_1/002209_2014-06-28_18-36-10_260595134347_rgbf000051-resize_1-target.png,125,2.057,6.0,2275,130,feet,jsons/VE125_randls_6.json,496525,690037,29,Man
42,556273,DepthScenes,duration_manipulation_targetAtFixation,jsons/VE125_randls_6.json,http://54.235.29.9/FacialAge/BNav_EC2/DepthDuration/v2_depth_duration_MTurk/v2_DepthDuration_HTML.html#91,91,1280,569,1280,720,9-19-2022,15-59-28,43,depth_duration_stimuli/000009_2014-05-26_14-32-05_260595134347_rgbf000034-resize_3/000009_2014-05-26_14-32-05_260595134347_rgbf000034-resize_3-target.png,125,3.8715,11.0,3048,121,feet,jsons/VE125_randls_6.json,496525,690037,29,Man
43,556273,DepthScenes,duration_manipulation_targetAtFixation,jsons/VE125_randls_6.json,http://54.235.29.9/FacialAge/BNav_EC2/DepthDuration/v2_depth_duration_MTurk/v2_DepthDuration_HTML.html#91,91,1280,569,1280,720,9-19-2022,15-59-28,44,depth_duration_stimuli/001828_2014-06-26_21-40-03_260595134347_rgbf000024-resize_0/001828_2014-06-26_21-40-03_260595134347_rgbf000024-resize_0-target.png,125,4.8260000000000005,15.0,2594,124,feet,jsons/VE125_randls_6.json,496525,690037,29,Man
44,556273,DepthScenes,duration_manipulation_targetAtFixation,jsons/VE125_randls_6.json,http://54.235.29.9/FacialAge/BNav_EC2/DepthDuration/v2_depth_duration_MTurk/v2_DepthDuration_HTML.html#91,91,1280,569,1280,720,9-19-2022,15-59-28,45,depth_duration_stimuli/000787_2014-06-08_22-33-53_260595134347_rgbf000175-resize_1/000787_2014-06-08_22-33-53_260595134347_rgbf000175-resize-original.jpg,125,4.784,0.0,2942,130,feet,jsons/VE125_randls_6.json,496525,690037,29,Man
45,556273,DepthScenes,duration_manipulation_targetAtFixation,jsons/VE125_randls_6.json,http://54.235.29.9/FacialAge/BNav_EC2/DepthDuration/v2_depth_duration_MTurk/v2_DepthDuration_HTML.html#91,91,1280,569,1280,720,9-19-2022,15-59-28,46,depth_duration_stimuli/000917_2014-06-09_22-45-29_260595134347_rgbf000149-resize_3/000917_2014-06-09_22-45-29_260595134347_rgbf000149-resize_3-target.png,125,4.1865,10.0,2065,137,feet,jsons/VE125_randls_6.json,496525,690037,29,Man
46,556273,DepthScenes,duration_manipulation_targetAtFixation,jsons/VE125_randls_6.json,http://54.235.29.9/FacialAge/BNav_EC2/DepthDuration/v2_depth_duration_MTurk/v2_DepthDuration_HTML.html#91,91,1280,569,1280,720,9-19-2022,15-59-28,47,depth_duration_stimuli/002323_2014-06-28_20-01-54_260595134347_rgbf000051-resize_4/002323_2014-06-28_20-01-54_260595134347_rgbf000051-resize_4-target.png,125,3.7310000000000003,16.0,2427,123,feet,jsons/VE125_randls_6.json,496525,690037,29,Man
47,556273,DepthScenes,duration_manipulation_targetAtFixation,jsons/VE125_randls_6.json,http://54.235.29.9/FacialAge/BNav_EC2/DepthDuration/v2_depth_duration_MTurk/v2_DepthDuration_HTML.html#91,91,1280,569,1280,720,9-19-2022,15-59-28,48,depth_duration_stimuli/001570_2014-06-20_17-21-09_260595134347_rgbf000135-resize_4/001570_2014-06-20_17-21-09_260595134347_rgbf000135-resize_4-target.png,125,4.467,13.0,2469,122,feet,jsons/VE125_randls_6.json,496525,690037,29,Man
48,556273,DepthScenes,duration_manipulation_targetAtFixation,jsons/VE125_randls_6.json,http://54.235.29.9/FacialAge/BNav_EC2/DepthDuration/v2_depth_duration_MTurk/v2_DepthDuration_HTML.html#91,91,1280,569,1280,720,9-19-2022,15-59-28,49,depth_duration_stimuli/001392_2014-06-19_16-07-59_260595134347_rgbf000046-resize_1/001392_2014-06-19_16-07-59_260595134347_rgbf000046-resize_1-target.png,125,4.135,9.0,2179,122,feet,jsons/VE125_randls_6.json,496525,690037,29,Man
49,556273,DepthScenes,duration_manipulation_targetAtFixation,jsons/VE125_randls_6.json,http://54.235.29.9/FacialAge/BNav_EC2/DepthDuration/v2_depth_duration_MTurk/v2_DepthDuration_HTML.html#91,91,1280,569,1280,720,9-19-2022,15-59-28,50,depth_duration_stimuli/000788_2014-06-08_22-34-36_260595134347_rgbf000131-resize_1/000788_2014-06-08_22-34-36_260595134347_rgbf000131-resize_1-target.png,125,3.359,7.5,2890,136,feet,jsons/VE125_randls_6.json,496525,690037,29,Man
50,556273,DepthScenes,duration_manipulation_targetAtFixation,jsons/VE125_randls_6.json,http://54.235.29.9/FacialAge/BNav_EC2/DepthDuration/v2_depth_duration_MTurk/v2_DepthDuration_HTML.html#91,91,1280,569,1280,720,9-19-2022,15-59-28,51,depth_duration_stimuli/001235_2014-06-17_16-37-36_260595134347_rgbf000084-resize_4/001235_2014-06-17_16-37-36_260595134347_rgbf000084-resize_4-target.png,125,3.6605,8.0,2993,124,feet,jsons/VE125_randls_6.json,496525,690037,29,Man
51,556273,DepthScenes,duration_manipulation_targetAtFixation,jsons/VE125_randls_6.json,http://54.235.29.9/FacialAge/BNav_EC2/DepthDuration/v2_depth_duration_MTurk/v2_DepthDuration_HTML.html#91,91,1280,569,1280,720,9-19-2022,15-59-28,52,depth_duration_stimuli/000739_2014-06-08_18-45-58_260595134347_rgbf000068-resize_1/000739_2014-06-08_18-45-58_260595134347_rgbf000068-resize_1-target.png,125,3.534,6.0,2612,126,feet,jsons/VE125_randls_6.json,496525,690037,29,Man
52,556273,DepthScenes,duration_manipulation_targetAtFixation,jsons/VE125_randls_6.json,http://54.235.29.9/FacialAge/BNav_EC2/DepthDuration/v2_depth_duration_MTurk/v2_DepthDuration_HTML.html#91,91,1280,569,1280,720,9-19-2022,15-59-28,53,depth_duration_stimuli/000734_2014-06-08_17-39-11_260595134347_rgbf000128-resize_2/000734_2014-06-08_17-39-11_260595134347_rgbf000128-resize_2-target.png,125,4.098,9.0,3542,123,feet,jsons/VE125_randls_6.json,496525,690037,29,Man
53,556273,DepthScenes,duration_manipulation_targetAtFixation,jsons/VE125_randls_6.json,http://54.235.29.9/FacialAge/BNav_EC2/DepthDuration/v2_depth_duration_MTurk/v2_DepthDuration_HTML.html#91,91,1280,569,1280,720,9-19-2022,15-59-28,54,depth_duration_stimuli/000736_2014-06-08_18-24-15_260595134347_rgbf000206-resize_3/000736_2014-06-08_18-24-15_260595134347_rgbf000206-resize_3-target.png,125,3.515,7.5,2712,125,feet,jsons/VE125_randls_6.json,496525,690037,29,Man
54,556273,DepthScenes,duration_manipulation_targetAtFixation,jsons/VE125_randls_6.json,http://54.235.29.9/FacialAge/BNav_EC2/DepthDuration/v2_depth_duration_MTurk/v2_DepthDuration_HTML.html#91,91,1280,569,1280,720,9-19-2022,15-59-28,55,depth_duration_stimuli/000137_2014-05-20_17-04-49_260595134347_rgbf000120-resize_1/000137_2014-05-20_17-04-49_260595134347_rgbf000120-resize_1-target.png,125,3.786,10.0,2560,119,feet,jsons/VE125_randls_6.json,496525,690037,29,Man
55,556273,DepthScenes,duration_manipulation_targetAtFixation,jsons/VE125_randls_6.json,http://54.235.29.9/FacialAge/BNav_EC2/DepthDuration/v2_depth_duration_MTurk/v2_DepthDuration_HTML.html#91,91,1280,569,1280,720,9-19-2022,15-59-28,56,depth_duration_stimuli/001244_2014-06-17_16-47-45_260595134347_rgbf000030-resize_4/001244_2014-06-17_16-47-45_260595134347_rgbf000030-resize_4-target.png,125,2.0425,6.0,2055,139,feet,jsons/VE125_randls_6.json,496525,690037,29,Man
56,556273,DepthScenes,duration_manipulation_targetAtFixation,jsons/VE125_randls_6.json,http://54.235.29.9/FacialAge/BNav_EC2/DepthDuration/v2_depth_duration_MTurk/v2_DepthDuration_HTML.html#91,91,1280,569,1280,720,9-19-2022,15-59-28,57,depth_duration_stimuli/003495_2014-05-21_16-01-51_094959634447_rgbf000100-resize_3/003495_2014-05-21_16-01-51_094959634447_rgbf000100-resize_3-target.png,125,1.6255,4.0,1764,139,feet,jsons/VE125_randls_6.json,496525,690037,29,Man
57,556273,DepthScenes,duration_manipulation_targetAtFixation,jsons/VE125_randls_6.json,http://54.235.29.9/FacialAge/BNav_EC2/DepthDuration/v2_depth_duration_MTurk/v2_DepthDuration_HTML.html#91,91,1280,569,1280,720,9-19-2022,15-59-28,58,depth_duration_stimuli/002039_2014-06-24_20-22-38_260595134347_rgbf000084-resize_1/002039_2014-06-24_20-22-38_260595134347_rgbf000084-resize_1-target.png,125,4.408,12.0,1973,123,feet,jsons/VE125_randls_6.json,496525,690037,29,Man
58,556273,DepthScenes,duration_manipulation_targetAtFixation,jsons/VE125_randls_6.json,http://54.235.29.9/FacialAge/BNav_EC2/DepthDuration/v2_depth_duration_MTurk/v2_DepthDuration_HTML.html#91,91,1280,569,1280,720,9-19-2022,15-59-28,59,depth_duration_stimuli/002103_2014-06-25_20-00-40_260595134347_rgbf000049-resize_0/002103_2014-06-25_20-00-40_260595134347_rgbf000049-resize_0-target.png,125,4.105,9.0,2430,115,feet,jsons/VE125_randls_6.json,496525,690037,29,Man
59,556273,DepthScenes,duration_manipulation_targetAtFixation,jsons/VE125_randls_6.json,http://54.235.29.9/FacialAge/BNav_EC2/DepthDuration/v2_depth_duration_MTurk/v2_DepthDuration_HTML.html#91,91,1280,569,1280,720,9-19-2022,15-59-28,60,depth_duration_stimuli/003070_2014-06-15_14-58-27_094959634447_rgbf000150-resize_3/003070_2014-06-15_14-58-27_094959634447_rgbf000150-resize_3-target.png,125,2.9415,8.0,2892,116,feet,jsons/VE125_randls_6.json,496525,690037,29,Man
60,556273,DepthScenes,duration_manipulation_targetAtFixation,jsons/VE125_randls_6.json,http://54.235.29.9/FacialAge/BNav_EC2/DepthDuration/v2_depth_duration_MTurk/v2_DepthDuration_HTML.html#91,91,1280,569,1280,720,9-19-2022,15-59-28,61,depth_duration_stimuli/000943_2014-06-09_19-31-07_260595134347_rgbf000128-resize_1/000943_2014-06-09_19-31-07_260595134347_rgbf000128-resize_1-target.png,125,1.9765,5.5,1879,119,feet,jsons/VE125_randls_6.json,496525,690037,29,Man
61,556273,DepthScenes,duration_manipulation_targetAtFixation,jsons/VE125_randls_6.json,http://54.235.29.9/FacialAge/BNav_EC2/DepthDuration/v2_depth_duration_MTurk/v2_DepthDuration_HTML.html#91,91,1280,569,1280,720,9-19-2022,15-59-28,62,depth_duration_stimuli/001150_2014-06-17_15-27-34_260595134347_rgbf000108-resize_2/001150_2014-06-17_15-27-34_260595134347_rgbf000108-resize_2-target.png,125,4.0325,8.5,3157,123,feet,jsons/VE125_randls_6.json,496525,690037,29,Man
62,556273,DepthScenes,duration_manipulation_targetAtFixation,jsons/VE125_randls_6.json,http://54.235.29.9/FacialAge/BNav_EC2/DepthDuration/v2_depth_duration_MTurk/v2_DepthDuration_HTML.html#91,91,1280,569,1280,720,9-19-2022,15-59-28,63,depth_duration_stimuli/000665_2014-06-09_20-42-35_260595134347_rgbf000110-resize_1/000665_2014-06-09_20-42-35_260595134347_rgbf000110-resize_1-target.png,125,3.057,7.5,4537,123,feet,jsons/VE125_randls_6.json,496525,690037,29,Man
63,556273,DepthScenes,duration_manipulation_targetAtFixation,jsons/VE125_randls_6.json,http://54.235.29.9/FacialAge/BNav_EC2/DepthDuration/v2_depth_duration_MTurk/v2_DepthDuration_HTML.html#91,91,1280,569,1280,720,9-19-2022,15-59-28,64,depth_duration_stimuli/000414_2014-06-04_19-49-13_260595134347_rgbf000044-resize_0/000414_2014-06-04_19-49-13_260595134347_rgbf000044-resize_0-target.png,125,4.329,10.0,3754,123,feet,jsons/VE125_randls_6.json,496525,690037,29,Man
64,556273,DepthScenes,duration_manipulation_targetAtFixation,jsons/VE125_randls_6.json,http://54.235.29.9/FacialAge/BNav_EC2/DepthDuration/v2_depth_duration_MTurk/v2_DepthDuration_HTML.html#91,91,1280,569,1280,720,9-19-2022,15-59-28,65,depth_duration_stimuli/003129_2014-05-12_10-48-10_094959634447_rgbf000100-resize_0/003129_2014-05-12_10-48-10_094959634447_rgbf000100-resize_0-target.png,125,4.9305,11.0,1909,119,feet,jsons/VE125_randls_6.json,496525,690037,29,Man
65,556273,DepthScenes,duration_manipulation_targetAtFixation,jsons/VE125_randls_6.json,http://54.235.29.9/FacialAge/BNav_EC2/DepthDuration/v2_depth_duration_MTurk/v2_DepthDuration_HTML.html#91,91,1280,569,1280,720,9-19-2022,15-59-28,66,depth_duration_stimuli/001222_2014-06-17_16-24-06_260595134347_rgbf000073-resize_0/001222_2014-06-17_16-24-06_260595134347_rgbf000073-resize-original.jpg,125,1.4385,0.0,1904,125,feet,jsons/VE125_randls_6.json,496525,690037,29,Man
66,556273,DepthScenes,duration_manipulation_targetAtFixation,jsons/VE125_randls_6.json,http://54.235.29.9/FacialAge/BNav_EC2/DepthDuration/v2_depth_duration_MTurk/v2_DepthDuration_HTML.html#91,91,1280,569,1280,720,9-19-2022,15-59-28,67,depth_duration_stimuli/000368_2014-06-09_15-53-01_260595134347_rgbf000155-resize_2/000368_2014-06-09_15-53-01_260595134347_rgbf000155-resize_2-target.png,125,2.4859999999999998,6.0,1981,126,feet,jsons/VE125_randls_6.json,496525,690037,29,Man
67,556273,DepthScenes,duration_manipulation_targetAtFixation,jsons/VE125_randls_6.json,http://54.235.29.9/FacialAge/BNav_EC2/DepthDuration/v2_depth_duration_MTurk/v2_DepthDuration_HTML.html#91,91,1280,569,1280,720,9-19-2022,15-59-28,68,depth_duration_stimuli/002678_2014-06-13_16-15-32_094959634447_rgbf000151-resize_6/002678_2014-06-13_16-15-32_094959634447_rgbf000151-resize_6-target.png,125,2.1830000000000003,10.0,1965,124,feet,jsons/VE125_randls_6.json,496525,690037,29,Man
68,556273,DepthScenes,duration_manipulation_targetAtFixation,jsons/VE125_randls_6.json,http://54.235.29.9/FacialAge/BNav_EC2/DepthDuration/v2_depth_duration_MTurk/v2_DepthDuration_HTML.html#91,91,1280,569,1280,720,9-19-2022,15-59-28,69,depth_duration_stimuli/002043_2014-06-24_20-29-38_260595134347_rgbf000039-resize_4/002043_2014-06-24_20-29-38_260595134347_rgbf000039-resize_4-target.png,125,2.8435,9.0,2328,126,feet,jsons/VE125_randls_6.json,496525,690037,29,Man
69,556273,DepthScenes,duration_manipulation_targetAtFixation,jsons/VE125_randls_6.json,http://54.235.29.9/FacialAge/BNav_EC2/DepthDuration/v2_depth_duration_MTurk/v2_DepthDuration_HTML.html#91,91,1280,569,1280,720,9-19-2022,15-59-28,70,depth_duration_stimuli/003048_2014-06-15_13-49-43_094959634447_rgbf000150-resize_1/003048_2014-06-15_13-49-43_094959634447_rgbf000150-resize_1-target.png,125,4.0035,11.0,2863,123,feet,jsons/VE125_randls_6.json,496525,690037,29,Man
70,556273,DepthScenes,duration_manipulation_targetAtFixation,jsons/VE125_randls_6.json,http://54.235.29.9/FacialAge/BNav_EC2/DepthDuration/v2_depth_duration_MTurk/v2_DepthDuration_HTML.html#91,91,1280,569,1280,720,9-19-2022,15-59-28,71,depth_duration_stimuli/000810_2014-06-08_17-20-01_260595134347_rgbf000105-resize_0/000810_2014-06-08_17-20-01_260595134347_rgbf000105-resize_0-target.png,125,1.4865,6.0,2510,128,feet,jsons/VE125_randls_6.json,496525,690037,29,Man
71,556273,DepthScenes,duration_manipulation_targetAtFixation,jsons/VE125_randls_6.json,http://54.235.29.9/FacialAge/BNav_EC2/DepthDuration/v2_depth_duration_MTurk/v2_DepthDuration_HTML.html#91,91,1280,569,1280,720,9-19-2022,15-59-28,72,depth_duration_stimuli/001214_2014-06-17_16-13-55_260595134347_rgbf000111-resize_0/001214_2014-06-17_16-13-55_260595134347_rgbf000111-resize_0-target.png,125,2.6505,5.0,2065,130,feet,jsons/VE125_randls_6.json,496525,690037,29,Man
72,556273,DepthScenes,duration_manipulation_targetAtFixation,jsons/VE125_randls_6.json,http://54.235.29.9/FacialAge/BNav_EC2/DepthDuration/v2_depth_duration_MTurk/v2_DepthDuration_HTML.html#91,91,1280,569,1280,720,9-19-2022,15-59-28,73,depth_duration_stimuli/001029_2014-06-08_13-17-57_260595134347_rgbf000065-resize_1/001029_2014-06-08_13-17-57_260595134347_rgbf000065-resize_1-target.png,125,3.0835,8.0,1765,126,feet,jsons/VE125_randls_6.json,496525,690037,29,Man
73,556273,DepthScenes,duration_manipulation_targetAtFixation,jsons/VE125_randls_6.json,http://54.235.29.9/FacialAge/BNav_EC2/DepthDuration/v2_depth_duration_MTurk/v2_DepthDuration_HTML.html#91,91,1280,569,1280,720,9-19-2022,15-59-28,74,depth_duration_stimuli/000677_2014-06-08_23-10-32_260595134347_rgbf000158-resize_6/000677_2014-06-08_23-10-32_260595134347_rgbf000158-resize_6-target.png,125,3.556,9.0,2127,128,feet,jsons/VE125_randls_6.json,496525,690037,29,Man
74,556273,DepthScenes,duration_manipulation_targetAtFixation,jsons/VE125_randls_6.json,http://54.235.29.9/FacialAge/BNav_EC2/DepthDuration/v2_depth_duration_MTurk/v2_DepthDuration_HTML.html#91,91,1280,569,1280,720,9-19-2022,15-59-28,75,depth_duration_stimuli/000506_2014-06-08_23-21-00_260595134347_rgbf000070-resize_7/000506_2014-06-08_23-21-00_260595134347_rgbf000070-resize_7-target.png,125,4.0585,12.0,1979,125,feet,jsons/VE125_randls_6.json,496525,690037,29,Man
75,556273,DepthScenes,duration_manipulation_targetAtFixation,jsons/VE125_randls_6.json,http://54.235.29.9/FacialAge/BNav_EC2/DepthDuration/v2_depth_duration_MTurk/v2_DepthDuration_HTML.html#91,91,1280,569,1280,720,9-19-2022,15-59-28,76,depth_duration_stimuli/003079_2014-06-15_15-18-20_094959634447_rgbf000152-resize_8/003079_2014-06-15_15-18-20_094959634447_rgbf000152-resize_8-target.png,125,2.8775,9.5,2653,115,feet,jsons/VE125_randls_6.json,496525,690037,29,Man
76,556273,DepthScenes,duration_manipulation_targetAtFixation,jsons/VE125_randls_6.json,http://54.235.29.9/FacialAge/BNav_EC2/DepthDuration/v2_depth_duration_MTurk/v2_DepthDuration_HTML.html#91,91,1280,569,1280,720,9-19-2022,15-59-28,77,depth_duration_stimuli/001417_2014-06-19_16-25-36_260595134347_rgbf000115-resize_5/001417_2014-06-19_16-25-36_260595134347_rgbf000115-resize_5-target.png,125,4.6255,15.0,2653,123,feet,jsons/VE125_randls_6.json,496525,690037,29,Man
77,556273,DepthScenes,duration_manipulation_targetAtFixation,jsons/VE125_randls_6.json,http://54.235.29.9/FacialAge/BNav_EC2/DepthDuration/v2_depth_duration_MTurk/v2_DepthDuration_HTML.html#91,91,1280,569,1280,720,9-19-2022,15-59-28,78,depth_duration_stimuli/003081_2014-06-15_15-19-16_094959634447_rgbf000150-resize_1/003081_2014-06-15_15-19-16_094959634447_rgbf000150-resize_1-target.png,125,3.9125,9.0,3943,124,feet,jsons/VE125_randls_6.json,496525,690037,29,Man
78,556273,DepthScenes,duration_manipulation_targetAtFixation,jsons/VE125_randls_6.json,http://54.235.29.9/FacialAge/BNav_EC2/DepthDuration/v2_depth_duration_MTurk/v2_DepthDuration_HTML.html#91,91,1280,569,1280,720,9-19-2022,15-59-28,79,depth_duration_stimuli/003621_2014-05-23_18-06-08_094959634447_rgbf000101-resize_1/003621_2014-05-23_18-06-08_094959634447_rgbf000101-resize_1-target.png,125,3.9835,11.0,3108,122,feet,jsons/VE125_randls_6.json,496525,690037,29,Man
79,556273,DepthScenes,duration_manipulation_targetAtFixation,jsons/VE125_randls_6.json,http://54.235.29.9/FacialAge/BNav_EC2/DepthDuration/v2_depth_duration_MTurk/v2_DepthDuration_HTML.html#91,91,1280,569,1280,720,9-19-2022,15-59-28,80,depth_duration_stimuli/001584_2014-06-20_11-07-43_260595134347_rgbf000002-resize_1/001584_2014-06-20_11-07-43_260595134347_rgbf000002-resize_1-target.png,125,3.53,7.0,1898,124,feet,jsons/VE125_randls_6.json,496525,690037,29,Man
80,556273,DepthScenes,duration_manipulation_targetAtFixation,jsons/VE125_randls_6.json,http://54.235.29.9/FacialAge/BNav_EC2/DepthDuration/v2_depth_duration_MTurk/v2_DepthDuration_HTML.html#91,91,1280,569,1280,720,9-19-2022,15-59-28,81,depth_duration_stimuli/002375_2014-06-28_20-13-44_260595134347_rgbf000032-resize_1/002375_2014-06-28_20-13-44_260595134347_rgbf000032-resize_1-target.png,125,4.0175,5.0,1965,138,feet,jsons/VE125_randls_6.json,496525,690037,29,Man
81,556273,DepthScenes,duration_manipulation_targetAtFixation,jsons/VE125_randls_6.json,http://54.235.29.9/FacialAge/BNav_EC2/DepthDuration/v2_depth_duration_MTurk/v2_DepthDuration_HTML.html#91,91,1280,569,1280,720,9-19-2022,15-59-28,82,depth_duration_stimuli/002657_2014-06-13_15-29-54_094959634447_rgbf000150-resize_1/002657_2014-06-13_15-29-54_094959634447_rgbf000150-resize_1-target.png,125,4.919,9.0,2288,138,feet,jsons/VE125_randls_6.json,496525,690037,29,Man
82,556273,DepthScenes,duration_manipulation_targetAtFixation,jsons/VE125_randls_6.json,http://54.235.29.9/FacialAge/BNav_EC2/DepthDuration/v2_depth_duration_MTurk/v2_DepthDuration_HTML.html#91,91,1280,569,1280,720,9-19-2022,15-59-28,83,depth_duration_stimuli/002509_2014-06-24_13-19-22_094959634447_rgbf000077-resize_0/002509_2014-06-24_13-19-22_094959634447_rgbf000077-resize_0-target.png,125,1.3065,6.0,2226,117,feet,jsons/VE125_randls_6.json,496525,690037,29,Man
83,556273,DepthScenes,duration_manipulation_targetAtFixation,jsons/VE125_randls_6.json,http://54.235.29.9/FacialAge/BNav_EC2/DepthDuration/v2_depth_duration_MTurk/v2_DepthDuration_HTML.html#91,91,1280,569,1280,720,9-19-2022,15-59-28,84,depth_duration_stimuli/003338_2014-05-20_11-01-23_094959634447_rgbf000051-resize_6/003338_2014-05-20_11-01-23_094959634447_rgbf000051-resize_6-target.png,125,1.693,5.0,2168,125,feet,jsons/VE125_randls_6.json,496525,690037,29,Man
84,556273,DepthScenes,duration_manipulation_targetAtFixation,jsons/VE125_randls_6.json,http://54.235.29.9/FacialAge/BNav_EC2/DepthDuration/v2_depth_duration_MTurk/v2_DepthDuration_HTML.html#91,91,1280,569,1280,720,9-19-2022,15-59-28,85,depth_duration_stimuli/002549_2014-06-24_13-41-39_094959634447_rgbf000022-resize_3/002549_2014-06-24_13-41-39_094959634447_rgbf000022-resize_3-target.png,125,1.476,5.5,2597,124,feet,jsons/VE125_randls_6.json,496525,690037,29,Man
85,556273,DepthScenes,duration_manipulation_targetAtFixation,jsons/VE125_randls_6.json,http://54.235.29.9/FacialAge/BNav_EC2/DepthDuration/v2_depth_duration_MTurk/v2_DepthDuration_HTML.html#91,91,1280,569,1280,720,9-19-2022,15-59-28,86,depth_duration_stimuli/002750_2014-06-22_19-08-03_094959634447_rgbf000094-resize_4/002750_2014-06-22_19-08-03_094959634447_rgbf000094-resize_4-target.png,125,2.354,7.0,2250,124,feet,jsons/VE125_randls_6.json,496525,690037,29,Man
86,556273,DepthScenes,duration_manipulation_targetAtFixation,jsons/VE125_randls_6.json,http://54.235.29.9/FacialAge/BNav_EC2/DepthDuration/v2_depth_duration_MTurk/v2_DepthDuration_HTML.html#91,91,1280,569,1280,720,9-19-2022,15-59-28,87,depth_duration_stimuli/002057_2014-06-24_21-00-13_260595134347_rgbf000120-resize_1/002057_2014-06-24_21-00-13_260595134347_rgbf000120-resize_1-target.png,125,2.967,9.0,1842,111,feet,jsons/VE125_randls_6.json,496525,690037,29,Man
87,556273,DepthScenes,duration_manipulation_targetAtFixation,jsons/VE125_randls_6.json,http://54.235.29.9/FacialAge/BNav_EC2/DepthDuration/v2_depth_duration_MTurk/v2_DepthDuration_HTML.html#91,91,1280,569,1280,720,9-19-2022,15-59-28,88,depth_duration_stimuli/000709_2014-06-08_13-51-55_260595134347_rgbf000068-resize_3/000709_2014-06-08_13-51-55_260595134347_rgbf000068-resize_3-target.png,125,1.8030000000000002,6.5,4025,124,feet,jsons/VE125_randls_6.json,496525,690037,29,Man
88,556273,DepthScenes,duration_manipulation_targetAtFixation,jsons/VE125_randls_6.json,http://54.235.29.9/FacialAge/BNav_EC2/DepthDuration/v2_depth_duration_MTurk/v2_DepthDuration_HTML.html#91,91,1280,569,1280,720,9-19-2022,15-59-28,89,depth_duration_stimuli/000773_2014-06-08_22-24-54_260595134347_rgbf000093-resize_1/000773_2014-06-08_22-24-54_260595134347_rgbf000093-resize_1-target.png,125,4.973,12.0,1831,124,feet,jsons/VE125_randls_6.json,496525,690037,29,Man
89,556273,DepthScenes,duration_manipulation_targetAtFixation,jsons/VE125_randls_6.json,http://54.235.29.9/FacialAge/BNav_EC2/DepthDuration/v2_depth_duration_MTurk/v2_DepthDuration_HTML.html#91,91,1280,569,1280,720,9-19-2022,15-59-28,90,depth_duration_stimuli/002414_2014-06-28_20-24-58_260595134347_rgbf000067-resize_4/002414_2014-06-28_20-24-58_260595134347_rgbf000067-resize_4-target.png,125,4.363,14.0,1916,124,feet,jsons/VE125_randls_6.json,496525,690037,29,Man
90,556273,DepthScenes,duration_manipulation_targetAtFixation,jsons/VE125_randls_6.json,http://54.235.29.9/FacialAge/BNav_EC2/DepthDuration/v2_depth_duration_MTurk/v2_DepthDuration_HTML.html#91,91,1280,569,1280,720,9-19-2022,15-59-28,91,depth_duration_stimuli/000906_2014-06-08_13-35-43_260595134347_rgbf000155-resize_1/000906_2014-06-08_13-35-43_260595134347_rgbf000155-resize_1-target.png,125,2.8489999999999998,10.0,2531,111,feet,jsons/VE125_randls_6.json,496525,690037,29,Man
91,556273,DepthScenes,duration_manipulation_targetAtFixation,jsons/VE125_randls_6.json,http://54.235.29.9/FacialAge/BNav_EC2/DepthDuration/v2_depth_duration_MTurk/v2_DepthDuration_HTML.html#91,91,1280,569,1280,720,9-19-2022,15-59-28,92,depth_duration_stimuli/002805_2014-06-22_19-54-03_094959634447_rgbf000079-resize_1/002805_2014-06-22_19-54-03_094959634447_rgbf000079-resize_1-target.png,125,3.1439999999999997,8.0,1826,123,feet,jsons/VE125_randls_6.json,496525,690037,29,Man
92,556273,DepthScenes,duration_manipulation_targetAtFixation,jsons/VE125_randls_6.json,http://54.235.29.9/FacialAge/BNav_EC2/DepthDuration/v2_depth_duration_MTurk/v2_DepthDuration_HTML.html#91,91,1280,569,1280,720,9-19-2022,15-59-28,93,depth_duration_stimuli/002570_2014-06-24_13-59-54_094959634447_rgbf000059-resize_0/002570_2014-06-24_13-59-54_094959634447_rgbf000059-resize_0-target.png,125,4.037,9.0,2445,123,feet,jsons/VE125_randls_6.json,496525,690037,29,Man
93,556273,DepthScenes,duration_manipulation_targetAtFixation,jsons/VE125_randls_6.json,http://54.235.29.9/FacialAge/BNav_EC2/DepthDuration/v2_depth_duration_MTurk/v2_DepthDuration_HTML.html#91,91,1280,569,1280,720,9-19-2022,15-59-28,94,depth_duration_stimuli/002467_2014-06-28_20-38-07_260595134347_rgbf000026-resize_2/002467_2014-06-28_20-38-07_260595134347_rgbf000026-resize_2-target.png,125,4.742,15.0,1955,124,feet,jsons/VE125_randls_6.json,496525,690037,29,Man
94,556273,DepthScenes,duration_manipulation_targetAtFixation,jsons/VE125_randls_6.json,http://54.235.29.9/FacialAge/BNav_EC2/DepthDuration/v2_depth_duration_MTurk/v2_DepthDuration_HTML.html#91,91,1280,569,1280,720,9-19-2022,15-59-28,95,depth_duration_stimuli/001806_2014-06-26_20-50-20_260595134347_rgbf000091-resize_1/001806_2014-06-26_20-50-20_260595134347_rgbf000091-resize_1-target.png,125,2.7305,7.0,2695,124,feet,jsons/VE125_randls_6.json,496525,690037,29,Man
95,556273,DepthScenes,duration_manipulation_targetAtFixation,jsons/VE125_randls_6.json,http://54.235.29.9/FacialAge/BNav_EC2/DepthDuration/v2_depth_duration_MTurk/v2_DepthDuration_HTML.html#91,91,1280,569,1280,720,9-19-2022,15-59-28,96,depth_duration_stimuli/001617_2014-06-20_11-35-32_260595134347_rgbf000066-resize_1/001617_2014-06-20_11-35-32_260595134347_rgbf000066-resize_1-target.png,125,3.7910000000000004,13.0,3880,138,feet,jsons/VE125_randls_6.json,496525,690037,29,Man
96,556273,DepthScenes,duration_manipulation_targetAtFixation,jsons/VE125_randls_6.json,http://54.235.29.9/FacialAge/BNav_EC2/DepthDuration/v2_depth_duration_MTurk/v2_DepthDuration_HTML.html#91,91,1280,569,1280,720,9-19-2022,15-59-28,97,depth_duration_stimuli/002153_2014-06-25_21-27-18_260595134347_rgbf000038-resize_5/002153_2014-06-25_21-27-18_260595134347_rgbf000038-resize_5-target.png,125,2.505,7.0,2049,124,feet,jsons/VE125_randls_6.json,496525,690037,29,Man
97,556273,DepthScenes,duration_manipulation_targetAtFixation,jsons/VE125_randls_6.json,http://54.235.29.9/FacialAge/BNav_EC2/DepthDuration/v2_depth_duration_MTurk/v2_DepthDuration_HTML.html#91,91,1280,569,1280,720,9-19-2022,15-59-28,98,depth_duration_stimuli/002660_2014-06-13_15-44-18_094959634447_rgbf001878-resize_2/002660_2014-06-13_15-44-18_094959634447_rgbf001878-resize_2-target.png,125,3.576,8.0,5553,124,feet,jsons/VE125_randls_6.json,496525,690037,29,Man
98,556273,DepthScenes,duration_manipulation_targetAtFixation,jsons/VE125_randls_6.json,http://54.235.29.9/FacialAge/BNav_EC2/DepthDuration/v2_depth_duration_MTurk/v2_DepthDuration_HTML.html#91,91,1280,569,1280,720,9-19-2022,15-59-28,99,depth_duration_stimuli/001540_2014-06-20_17-01-05_260595134347_rgbf000086-resize_2/001540_2014-06-20_17-01-05_260595134347_rgbf000086-resize-original.jpg,125,1.459,0.0,3751,121,feet,jsons/VE125_randls_6.json,496525,690037,29,Man
99,556273,DepthScenes,duration_manipulation_targetAtFixation,jsons/VE125_randls_6.json,http://54.235.29.9/FacialAge/BNav_EC2/DepthDuration/v2_depth_duration_MTurk/v2_DepthDuration_HTML.html#91,91,1280,569,1280,720,9-19-2022,15-59-28,100,depth_duration_stimuli/001055_2014-06-08_18-45-35_260595134347_rgbf000111-resize_4/001055_2014-06-08_18-45-35_260595134347_rgbf000111-resize_4-target.png,125,2.4290000000000003,10.0,2311,123,feet,jsons/VE125_randls_6.json,496525,690037,29,Man
100,556273,DepthScenes,duration_manipulation_targetAtFixation,jsons/VE125_randls_6.json,http://54.235.29.9/FacialAge/BNav_EC2/DepthDuration/v2_depth_duration_MTurk/v2_DepthDuration_HTML.html#91,91,1280,569,1280,720,9-19-2022,15-59-28,101,depth_duration_stimuli/000549_2014-06-08_22-10-24_260595134347_rgbf000247-resize_3/000549_2014-06-08_22-10-24_260595134347_rgbf000247-resize_3-target.png,125,1.841,6.5,2671,127,feet,jsons/VE125_randls_6.json,496525,690037,29,Man
101,556273,DepthScenes,duration_manipulation_targetAtFixation,jsons/VE125_randls_6.json,http://54.235.29.9/FacialAge/BNav_EC2/DepthDuration/v2_depth_duration_MTurk/v2_DepthDuration_HTML.html#91,91,1280,569,1280,720,9-19-2022,15-59-28,102,depth_duration_stimuli/000470_2014-06-09_19-42-40_260595134347_rgbf000094-resize_1/000470_2014-06-09_19-42-40_260595134347_rgbf000094-resize_1-target.png,125,1.831,5.5,1897,123,feet,jsons/VE125_randls_6.json,496525,690037,29,Man
102,556273,DepthScenes,duration_manipulation_targetAtFixation,jsons/VE125_randls_6.json,http://54.235.29.9/FacialAge/BNav_EC2/DepthDuration/v2_depth_duration_MTurk/v2_DepthDuration_HTML.html#91,91,1280,569,1280,720,9-19-2022,15-59-28,103,depth_duration_stimuli/000109_2014-05-14_23-41-52_260595134347_rgbf000035-resize_9/000109_2014-05-14_23-41-52_260595134347_rgbf000035-resize_9-target.png,125,1.3545,4.0,2132,136,feet,jsons/VE125_randls_6.json,496525,690037,29,Man
103,556273,DepthScenes,duration_manipulation_targetAtFixation,jsons/VE125_randls_6.json,http://54.235.29.9/FacialAge/BNav_EC2/DepthDuration/v2_depth_duration_MTurk/v2_DepthDuration_HTML.html#91,91,1280,569,1280,720,9-19-2022,15-59-28,104,depth_duration_stimuli/000469_2014-06-09_19-42-10_260595134347_rgbf000081-resize_1/000469_2014-06-09_19-42-10_260595134347_rgbf000081-resize_1-target.png,125,1.652,5.0,1780,125,feet,jsons/VE125_randls_6.json,496525,690037,29,Man
104,556273,DepthScenes,duration_manipulation_targetAtFixation,jsons/VE125_randls_6.json,http://54.235.29.9/FacialAge/BNav_EC2/DepthDuration/v2_depth_duration_MTurk/v2_DepthDuration_HTML.html#91,91,1280,569,1280,720,9-19-2022,15-59-28,105,depth_duration_stimuli/000483_2014-06-09_20-41-45_260595134347_rgbf000116-resize_4/000483_2014-06-09_20-41-45_260595134347_rgbf000116-resize_4-target.png,125,1.337,4.5,2504,123,feet,jsons/VE125_randls_6.json,496525,690037,29,Man
105,556273,DepthScenes,duration_manipulation_targetAtFixation,jsons/VE125_randls_6.json,http://54.235.29.9/FacialAge/BNav_EC2/DepthDuration/v2_depth_duration_MTurk/v2_DepthDuration_HTML.html#91,91,1280,569,1280,720,9-19-2022,15-59-28,106,depth_duration_stimuli/001164_2014-06-17_15-35-46_260595134347_rgbf000085-resize_3/001164_2014-06-17_15-35-46_260595134347_rgbf000085-resize_3-target.png,125,2.354,6.0,1945,124,feet,jsons/VE125_randls_6.json,496525,690037,29,Man
106,556273,DepthScenes,duration_manipulation_targetAtFixation,jsons/VE125_randls_6.json,http://54.235.29.9/FacialAge/BNav_EC2/DepthDuration/v2_depth_duration_MTurk/v2_DepthDuration_HTML.html#91,91,1280,569,1280,720,9-19-2022,15-59-28,107,depth_duration_stimuli/001136_2014-06-17_15-19-41_260595134347_rgbf000076-resize_3/001136_2014-06-17_15-19-41_260595134347_rgbf000076-resize_3-target.png,125,1.8655,6.0,1696,122,feet,jsons/VE125_randls_6.json,496525,690037,29,Man
107,556273,DepthScenes,duration_manipulation_targetAtFixation,jsons/VE125_randls_6.json,http://54.235.29.9/FacialAge/BNav_EC2/DepthDuration/v2_depth_duration_MTurk/v2_DepthDuration_HTML.html#91,91,1280,569,1280,720,9-19-2022,15-59-28,108,depth_duration_stimuli/003292_2014-05-14_21-53-49_094959634447_rgbf000100-resize_2/003292_2014-05-14_21-53-49_094959634447_rgbf000100-resize_2-target.png,125,3.4815,7.0,1875,123,feet,jsons/VE125_randls_6.json,496525,690037,29,Man
108,556273,DepthScenes,duration_manipulation_targetAtFixation,jsons/VE125_randls_6.json,http://54.235.29.9/FacialAge/BNav_EC2/DepthDuration/v2_depth_duration_MTurk/v2_DepthDuration_HTML.html#91,91,1280,569,1280,720,9-19-2022,15-59-28,109,depth_duration_stimuli/002639_2014-06-24_14-51-37_094959634447_rgbf000074-resize_4/002639_2014-06-24_14-51-37_094959634447_rgbf000074-resize_4-target.png,125,4.0375,12.0,1854,125,feet,jsons/VE125_randls_6.json,496525,690037,29,Man
109,556273,DepthScenes,duration_manipulation_targetAtFixation,jsons/VE125_randls_6.json,http://54.235.29.9/FacialAge/BNav_EC2/DepthDuration/v2_depth_duration_MTurk/v2_DepthDuration_HTML.html#91,91,1280,569,1280,720,9-19-2022,15-59-28,110,depth_duration_stimuli/002725_2014-06-22_11-47-51_094959634447_rgbf000070-resize_1/002725_2014-06-22_11-47-51_094959634447_rgbf000070-resize_1-target.png,125,2.195,8.0,1827,139,feet,jsons/VE125_randls_6.json,496525,690037,29,Man
110,556273,DepthScenes,duration_manipulation_targetAtFixation,jsons/VE125_randls_6.json,http://54.235.29.9/FacialAge/BNav_EC2/DepthDuration/v2_depth_duration_MTurk/v2_DepthDuration_HTML.html#91,91,1280,569,1280,720,9-19-2022,15-59-28,111,depth_duration_stimuli/002344_2014-06-28_20-06-29_260595134347_rgbf000030-resize_1/002344_2014-06-28_20-06-29_260595134347_rgbf000030-resize_1-target.png,125,1.5795,4.0,1479,122,feet,jsons/VE125_randls_6.json,496525,690037,29,Man
111,556273,DepthScenes,duration_manipulation_targetAtFixation,jsons/VE125_randls_6.json,http://54.235.29.9/FacialAge/BNav_EC2/DepthDuration/v2_depth_duration_MTurk/v2_DepthDuration_HTML.html#91,91,1280,569,1280,720,9-19-2022,15-59-28,112,depth_duration_stimuli/000929_2014-06-09_16-33-19_260595134347_rgbf000139-resize_0/000929_2014-06-09_16-33-19_260595134347_rgbf000139-resize_0-target.png,125,2.8680000000000003,6.0,3218,123,feet,jsons/VE125_randls_6.json,496525,690037,29,Man
112,556273,DepthScenes,duration_manipulation_targetAtFixation,jsons/VE125_randls_6.json,http://54.235.29.9/FacialAge/BNav_EC2/DepthDuration/v2_depth_duration_MTurk/v2_DepthDuration_HTML.html#91,91,1280,569,1280,720,9-19-2022,15-59-28,113,depth_duration_stimuli/000457_2014-06-08_16-52-43_260595134347_rgbf000199-resize_1/000457_2014-06-08_16-52-43_260595134347_rgbf000199-resize_1-target.png,125,3.6489999999999996,10.5,5027,125,feet,jsons/VE125_randls_6.json,496525,690037,29,Man
113,556273,DepthScenes,duration_manipulation_targetAtFixation,jsons/VE125_randls_6.json,http://54.235.29.9/FacialAge/BNav_EC2/DepthDuration/v2_depth_duration_MTurk/v2_DepthDuration_HTML.html#91,91,1280,569,1280,720,9-19-2022,15-59-28,114,depth_duration_stimuli/002279_2014-06-28_18-55-32_260595134347_rgbf000040-resize_5/002279_2014-06-28_18-55-32_260595134347_rgbf000040-resize_5-target.png,125,1.5043333333333,0.0,2578,121,feet,jsons/VE125_randls_6.json,496525,690037,29,Man
114,556273,DepthScenes,duration_manipulation_targetAtFixation,jsons/VE125_randls_6.json,http://54.235.29.9/FacialAge/BNav_EC2/DepthDuration/v2_depth_duration_MTurk/v2_DepthDuration_HTML.html#91,91,1280,569,1280,720,9-19-2022,15-59-28,115,depth_duration_stimuli/000635_2014-06-08_16-38-42_260595134347_rgbf000106-resize_1/000635_2014-06-08_16-38-42_260595134347_rgbf000106-resize_1-target.png,125,2.074,8.0,1872,127,feet,jsons/VE125_randls_6.json,496525,690037,29,Man
115,556273,DepthScenes,duration_manipulation_targetAtFixation,jsons/VE125_randls_6.json,http://54.235.29.9/FacialAge/BNav_EC2/DepthDuration/v2_depth_duration_MTurk/v2_DepthDuration_HTML.html#91,91,1280,569,1280,720,9-19-2022,15-59-28,116,depth_duration_stimuli/001170_2014-06-17_15-43-44_260595134347_rgbf000096-resize_6/001170_2014-06-17_15-43-44_260595134347_rgbf000096-resize-original.jpg,125,1.1909999999999998,0.0,1695,124,feet,jsons/VE125_randls_6.json,496525,690037,29,Man
116,556273,DepthScenes,duration_manipulation_targetAtFixation,jsons/VE125_randls_6.json,http://54.235.29.9/FacialAge/BNav_EC2/DepthDuration/v2_depth_duration_MTurk/v2_DepthDuration_HTML.html#91,91,1280,569,1280,720,9-19-2022,15-59-28,117,depth_duration_stimuli/000692_2014-06-08_13-09-42_260595134347_rgbf000199-resize_2/000692_2014-06-08_13-09-42_260595134347_rgbf000199-resize_2-target.png,125,3.661,15.0,3230,124,feet,jsons/VE125_randls_6.json,496525,690037,29,Man
117,556273,DepthScenes,duration_manipulation_targetAtFixation,jsons/VE125_randls_6.json,http://54.235.29.9/FacialAge/BNav_EC2/DepthDuration/v2_depth_duration_MTurk/v2_DepthDuration_HTML.html#91,91,1280,569,1280,720,9-19-2022,15-59-28,118,depth_duration_stimuli/001094_2014-06-15_17-36-00_260595134347_rgbf000205-resize_0/001094_2014-06-15_17-36-00_260595134347_rgbf000205-resize_0-target.png,125,4.2175,9.0,2428,138,feet,jsons/VE125_randls_6.json,496525,690037,29,Man
118,556273,DepthScenes,duration_manipulation_targetAtFixation,jsons/VE125_randls_6.json,http://54.235.29.9/FacialAge/BNav_EC2/DepthDuration/v2_depth_duration_MTurk/v2_DepthDuration_HTML.html#91,91,1280,569,1280,720,9-19-2022,15-59-28,119,depth_duration_stimuli/001199_2014-06-17_16-03-48_260595134347_rgbf000077-resize_0/001199_2014-06-17_16-03-48_260595134347_rgbf000077-resize_0-target.png,125,3.4375,18.0,3139,125,feet,jsons/VE125_randls_6.json,496525,690037,29,Man
119,556273,DepthScenes,duration_manipulation_targetAtFixation,jsons/VE125_randls_6.json,http://54.235.29.9/FacialAge/BNav_EC2/DepthDuration/v2_depth_duration_MTurk/v2_DepthDuration_HTML.html#91,91,1280,569,1280,720,9-19-2022,15-59-28,120,depth_duration_stimuli/000502_2014-06-08_23-02-32_260595134347_rgbf000063-resize_4/000502_2014-06-08_23-02-32_260595134347_rgbf000063-resize_4-target.png,125,2.431,8.0,2209,123,feet,jsons/VE125_randls_6.json,496525,690037,29,Man
120,556273,DepthScenes,duration_manipulation_targetAtFixation,jsons/VE125_randls_6.json,http://54.235.29.9/FacialAge/BNav_EC2/DepthDuration/v2_depth_duration_MTurk/v2_DepthDuration_HTML.html#91,91,1280,569,1280,720,9-19-2022,15-59-28,121,depth_duration_stimuli/002788_2014-06-22_19-36-03_094959634447_rgbf000088-resize_2/002788_2014-06-22_19-36-03_094959634447_rgbf000088-resize_2-target.png,125,1.6465,6.0,1795,124,feet,jsons/VE125_randls_6.json,496525,690037,29,Man
121,556273,DepthScenes,duration_manipulation_targetAtFixation,jsons/VE125_randls_6.json,http://54.235.29.9/FacialAge/BNav_EC2/DepthDuration/v2_depth_duration_MTurk/v2_DepthDuration_HTML.html#91,91,1280,569,1280,720,9-19-2022,15-59-28,122,depth_duration_stimuli/000749_2014-06-08_21-55-06_260595134347_rgbf000070-resize_2/000749_2014-06-08_21-55-06_260595134347_rgbf000070-resize_2-target.png,125,2.331,10.0,2790,123,feet,jsons/VE125_randls_6.json,496525,690037,29,Man
122,556273,DepthScenes,duration_manipulation_targetAtFixation,jsons/VE125_randls_6.json,http://54.235.29.9/FacialAge/BNav_EC2/DepthDuration/v2_depth_duration_MTurk/v2_DepthDuration_HTML.html#91,91,1280,569,1280,720,9-19-2022,15-59-28,123,depth_duration_stimuli/001092_2014-06-15_17-34-58_260595134347_rgbf000171-resize_3/001092_2014-06-15_17-34-58_260595134347_rgbf000171-resize_3-target.png,125,2.6935,6.5,2193,122,feet,jsons/VE125_randls_6.json,496525,690037,29,Man
123,556273,DepthScenes,duration_manipulation_targetAtFixation,jsons/VE125_randls_6.json,http://54.235.29.9/FacialAge/BNav_EC2/DepthDuration/v2_depth_duration_MTurk/v2_DepthDuration_HTML.html#91,91,1280,569,1280,720,9-19-2022,15-59-28,124,depth_duration_stimuli/002545_2014-06-24_13-38-53_094959634447_rgbf000080-resize_4/002545_2014-06-24_13-38-53_094959634447_rgbf000080-resize_4-target.png,125,1.9205,7.0,1813,124,feet,jsons/VE125_randls_6.json,496525,690037,29,Man
124,556273,DepthScenes,duration_manipulation_targetAtFixation,jsons/VE125_randls_6.json,http://54.235.29.9/FacialAge/BNav_EC2/DepthDuration/v2_depth_duration_MTurk/v2_DepthDuration_HTML.html#91,91,1280,569,1280,720,9-19-2022,15-59-28,125,depth_duration_stimuli/002989_2014-06-15_12-25-03_094959634447_rgbf000150-resize_3/002989_2014-06-15_12-25-03_094959634447_rgbf000150-resize_3-target.png,125,4.1975,8.0,1691,124,feet,jsons/VE125_randls_6.json,496525,690037,29,Man
125,556273,DepthScenes,duration_manipulation_targetAtFixation,jsons/VE125_randls_6.json,http://54.235.29.9/FacialAge/BNav_EC2/DepthDuration/v2_depth_duration_MTurk/v2_DepthDuration_HTML.html#91,91,1280,569,1280,720,9-19-2022,15-59-28,126,depth_duration_stimuli/000866_2014-06-09_20-45-42_260595134347_rgbf000139-resize_1/000866_2014-06-09_20-45-42_260595134347_rgbf000139-resize_1-target.png,125,3.2155,9.0,1708,123,feet,jsons/VE125_randls_6.json,496525,690037,29,Man
126,556273,DepthScenes,duration_manipulation_targetAtFixation,jsons/VE125_randls_6.json,http://54.235.29.9/FacialAge/BNav_EC2/DepthDuration/v2_depth_duration_MTurk/v2_DepthDuration_HTML.html#91,91,1280,569,1280,720,9-19-2022,15-59-28,127,depth_duration_stimuli/000878_2014-06-08_22-52-45_260595134347_rgbf000045-resize_2/000878_2014-06-08_22-52-45_260595134347_rgbf000045-resize_2-target.png,125,2.092,6.75,3724,125,feet,jsons/VE125_randls_6.json,496525,690037,29,Man
127,556273,DepthScenes,duration_manipulation_targetAtFixation,jsons/VE125_randls_6.json,http://54.235.29.9/FacialAge/BNav_EC2/DepthDuration/v2_depth_duration_MTurk/v2_DepthDuration_HTML.html#91,91,1280,569,1280,720,9-19-2022,15-59-28,128,depth_duration_stimuli/002953_2014-06-08_17-32-18_094959634447_rgbf000059-resize_5/002953_2014-06-08_17-32-18_094959634447_rgbf000059-resize_5-target.png,125,1.551,4.0,2582,133,feet,jsons/VE125_randls_6.json,496525,690037,29,Man
128,556273,DepthScenes,duration_manipulation_targetAtFixation,jsons/VE125_randls_6.json,http://54.235.29.9/FacialAge/BNav_EC2/DepthDuration/v2_depth_duration_MTurk/v2_DepthDuration_HTML.html#91,91,1280,569,1280,720,9-19-2022,15-59-28,129,depth_duration_stimuli/000447_2014-06-08_16-15-46_260595134347_rgbf000130-resize_1/000447_2014-06-08_16-15-46_260595134347_rgbf000130-resize_1-target.png,125,4.479,10.0,1722,115,feet,jsons/VE125_randls_6.json,496525,690037,29,Man
129,556273,DepthScenes,duration_manipulation_targetAtFixation,jsons/VE125_randls_6.json,http://54.235.29.9/FacialAge/BNav_EC2/DepthDuration/v2_depth_duration_MTurk/v2_DepthDuration_HTML.html#91,91,1280,569,1280,720,9-19-2022,15-59-28,130,depth_duration_stimuli/001447_2014-06-19_17-00-32_260595134347_rgbf000082-resize_5/001447_2014-06-19_17-00-32_260595134347_rgbf000082-resize_5-target.png,125,4.13775,9.0,2428,122,feet,jsons/VE125_randls_6.json,496525,690037,29,Man
130,556273,DepthScenes,duration_manipulation_targetAtFixation,jsons/VE125_randls_6.json,http://54.235.29.9/FacialAge/BNav_EC2/DepthDuration/v2_depth_duration_MTurk/v2_DepthDuration_HTML.html#91,91,1280,569,1280,720,9-19-2022,15-59-28,131,depth_duration_stimuli/000493_2014-06-09_21-01-18_260595134347_rgbf000196-resize_3/000493_2014-06-09_21-01-18_260595134347_rgbf000196-resize_3-target.png,125,3.44,8.0,2438,125,feet,jsons/VE125_randls_6.json,496525,690037,29,Man
131,556273,DepthScenes,duration_manipulation_targetAtFixation,jsons/VE125_randls_6.json,http://54.235.29.9/FacialAge/BNav_EC2/DepthDuration/v2_depth_duration_MTurk/v2_DepthDuration_HTML.html#91,91,1280,569,1280,720,9-19-2022,15-59-28,132,depth_duration_stimuli/000191_2014-05-12_17-07-38_260595134347_rgbf000199-resize_0/000191_2014-05-12_17-07-38_260595134347_rgbf000199-resize_0-target.png,125,3.7995,10.0,2124,123,feet,jsons/VE125_randls_6.json,496525,690037,29,Man
132,556273,DepthScenes,duration_manipulation_targetAtFixation,jsons/VE125_randls_6.json,http://54.235.29.9/FacialAge/BNav_EC2/DepthDuration/v2_depth_duration_MTurk/v2_DepthDuration_HTML.html#91,91,1280,569,1280,720,9-19-2022,15-59-28,133,depth_duration_stimuli/001059_2014-06-08_21-53-27_260595134347_rgbf000061-resize_4/001059_2014-06-08_21-53-27_260595134347_rgbf000061-resize_4-target.png,125,2.4185,7.5,2490,123,feet,jsons/VE125_randls_6.json,496525,690037,29,Man
133,556273,DepthScenes,duration_manipulation_targetAtFixation,jsons/VE125_randls_6.json,http://54.235.29.9/FacialAge/BNav_EC2/DepthDuration/v2_depth_duration_MTurk/v2_DepthDuration_HTML.html#91,91,1280,569,1280,720,9-19-2022,15-59-28,134,depth_duration_stimuli/001032_2014-06-08_13-23-17_260595134347_rgbf000021-resize_3/001032_2014-06-08_13-23-17_260595134347_rgbf000021-resize_3-target.png,125,3.2725,7.0,2458,135,feet,jsons/VE125_randls_6.json,496525,690037,29,Man
134,556273,DepthScenes,duration_manipulation_targetAtFixation,jsons/VE125_randls_6.json,http://54.235.29.9/FacialAge/BNav_EC2/DepthDuration/v2_depth_duration_MTurk/v2_DepthDuration_HTML.html#91,91,1280,569,1280,720,9-19-2022,15-59-28,135,depth_duration_stimuli/002072_2014-06-24_21-48-06_260595134347_rgbf000115-resize_0/002072_2014-06-24_21-48-06_260595134347_rgbf000115-resize-original.jpg,125,4.702,0.0,1684,123,feet,jsons/VE125_randls_6.json,496525,690037,29,Man
135,556273,DepthScenes,duration_manipulation_targetAtFixation,jsons/VE125_randls_6.json,http://54.235.29.9/FacialAge/BNav_EC2/DepthDuration/v2_depth_duration_MTurk/v2_DepthDuration_HTML.html#91,91,1280,569,1280,720,9-19-2022,15-59-28,136,depth_duration_stimuli/001066_2014-06-08_22-03-20_260595134347_rgbf000066-resize_4/001066_2014-06-08_22-03-20_260595134347_rgbf000066-resize_4-target.png,125,4.2330000000000005,9.0,1949,115,feet,jsons/VE125_randls_6.json,496525,690037,29,Man
136,556273,DepthScenes,duration_manipulation_targetAtFixation,jsons/VE125_randls_6.json,http://54.235.29.9/FacialAge/BNav_EC2/DepthDuration/v2_depth_duration_MTurk/v2_DepthDuration_HTML.html#91,91,1280,569,1280,720,9-19-2022,15-59-28,137,depth_duration_stimuli/000742_2014-06-08_18-48-09_260595134347_rgbf000164-resize_4/000742_2014-06-08_18-48-09_260595134347_rgbf000164-resize_4-target.png,125,4.632,14.0,2359,123,feet,jsons/VE125_randls_6.json,496525,690037,29,Man
137,556273,DepthScenes,duration_manipulation_targetAtFixation,jsons/VE125_randls_6.json,http://54.235.29.9/FacialAge/BNav_EC2/DepthDuration/v2_depth_duration_MTurk/v2_DepthDuration_HTML.html#91,91,1280,569,1280,720,9-19-2022,15-59-28,138,depth_duration_stimuli/001056_2014-06-08_18-46-44_260595134347_rgbf000068-resize_0/001056_2014-06-08_18-46-44_260595134347_rgbf000068-resize_0-target.png,125,2.6625,9.0,1819,133,feet,jsons/VE125_randls_6.json,496525,690037,29,Man
138,556273,DepthScenes,duration_manipulation_targetAtFixation,jsons/VE125_randls_6.json,http://54.235.29.9/FacialAge/BNav_EC2/DepthDuration/v2_depth_duration_MTurk/v2_DepthDuration_HTML.html#91,91,1280,569,1280,720,9-19-2022,15-59-28,139,depth_duration_stimuli/002199_2014-06-28_18-33-56_260595134347_rgbf000074-resize_0/002199_2014-06-28_18-33-56_260595134347_rgbf000074-resize_0-target.png,125,1.996,5.0,1715,123,feet,jsons/VE125_randls_6.json,496525,690037,29,Man
139,556273,DepthScenes,duration_manipulation_targetAtFixation,jsons/VE125_randls_6.json,http://54.235.29.9/FacialAge/BNav_EC2/DepthDuration/v2_depth_duration_MTurk/v2_DepthDuration_HTML.html#91,91,1280,569,1280,720,9-19-2022,15-59-28,140,depth_duration_stimuli/000436_2014-06-09_22-25-11_260595134347_rgbf000137-resize_1/000436_2014-06-09_22-25-11_260595134347_rgbf000137-resize_1-target.png,125,4.0705,13.0,3046,109,feet,jsons/VE125_randls_6.json,496525,690037,29,Man
140,556273,DepthScenes,duration_manipulation_targetAtFixation,jsons/VE125_randls_6.json,http://54.235.29.9/FacialAge/BNav_EC2/DepthDuration/v2_depth_duration_MTurk/v2_DepthDuration_HTML.html#91,91,1280,569,1280,720,9-19-2022,15-59-28,141,depth_duration_stimuli/002444_2014-06-28_20-32-08_260595134347_rgbf000027-resize_0/002444_2014-06-28_20-32-08_260595134347_rgbf000027-resize_0-target.png,125,4.388999999999999,12.0,2051,125,feet,jsons/VE125_randls_6.json,496525,690037,29,Man
141,556273,DepthScenes,duration_manipulation_targetAtFixation,jsons/VE125_randls_6.json,http://54.235.29.9/FacialAge/BNav_EC2/DepthDuration/v2_depth_duration_MTurk/v2_DepthDuration_HTML.html#91,91,1280,569,1280,720,9-19-2022,15-59-28,142,depth_duration_stimuli/001158_2014-06-17_15-32-16_260595134347_rgbf000138-resize_2/001158_2014-06-17_15-32-16_260595134347_rgbf000138-resize_2-target.png,125,4.5315,10.0,2215,123,feet,jsons/VE125_randls_6.json,496525,690037,29,Man
142,556273,DepthScenes,duration_manipulation_targetAtFixation,jsons/VE125_randls_6.json,http://54.235.29.9/FacialAge/BNav_EC2/DepthDuration/v2_depth_duration_MTurk/v2_DepthDuration_HTML.html#91,91,1280,569,1280,720,9-19-2022,15-59-28,143,depth_duration_stimuli/000556_2014-06-09_22-42-56_260595134347_rgbf000214-resize_1/000556_2014-06-09_22-42-56_260595134347_rgbf000214-resize_1-target.png,125,4.8415,11.0,1695,121,feet,jsons/VE125_randls_6.json,496525,690037,29,Man
143,556273,DepthScenes,duration_manipulation_targetAtFixation,jsons/VE125_randls_6.json,http://54.235.29.9/FacialAge/BNav_EC2/DepthDuration/v2_depth_duration_MTurk/v2_DepthDuration_HTML.html#91,91,1280,569,1280,720,9-19-2022,15-59-28,144,depth_duration_stimuli/001808_2014-06-26_20-50-58_260595134347_rgbf000029-resize_1/001808_2014-06-26_20-50-58_260595134347_rgbf000029-resize_1-target.png,125,4.249,12.0,2233,125,feet,jsons/VE125_randls_6.json,496525,690037,29,Man
144,556273,DepthScenes,duration_manipulation_targetAtFixation,jsons/VE125_randls_6.json,http://54.235.29.9/FacialAge/BNav_EC2/DepthDuration/v2_depth_duration_MTurk/v2_DepthDuration_HTML.html#91,91,1280,569,1280,720,9-19-2022,15-59-28,145,depth_duration_stimuli/001815_2014-06-26_20-52-55_260595134347_rgbf000020-resize_0/001815_2014-06-26_20-52-55_260595134347_rgbf000020-resize_0-target.png,125,3.3865,10.5,2849,128,feet,jsons/VE125_randls_6.json,496525,690037,29,Man
145,556273,DepthScenes,duration_manipulation_targetAtFixation,jsons/VE125_randls_6.json,http://54.235.29.9/FacialAge/BNav_EC2/DepthDuration/v2_depth_duration_MTurk/v2_DepthDuration_HTML.html#91,91,1280,569,1280,720,9-19-2022,15-59-28,146,depth_duration_stimuli/001498_2014-06-19_17-45-14_260595134347_rgbf000129-resize_4/001498_2014-06-19_17-45-14_260595134347_rgbf000129-resize-original.jpg,125,1.4075,0.0,1513,119,feet,jsons/VE125_randls_6.json,496525,690037,29,Man
146,556273,DepthScenes,duration_manipulation_targetAtFixation,jsons/VE125_randls_6.json,http://54.235.29.9/FacialAge/BNav_EC2/DepthDuration/v2_depth_duration_MTurk/v2_DepthDuration_HTML.html#91,91,1280,569,1280,720,9-19-2022,15-59-28,147,depth_duration_stimuli/000682_2014-06-08_23-14-58_260595134347_rgbf000041-resize_5/000682_2014-06-08_23-14-58_260595134347_rgbf000041-resize_5-target.png,125,2.7239999999999998,5.5,1946,123,feet,jsons/VE125_randls_6.json,496525,690037,29,Man
147,556273,DepthScenes,duration_manipulation_targetAtFixation,jsons/VE125_randls_6.json,http://54.235.29.9/FacialAge/BNav_EC2/DepthDuration/v2_depth_duration_MTurk/v2_DepthDuration_HTML.html#91,91,1280,569,1280,720,9-19-2022,15-59-28,148,depth_duration_stimuli/001650_2014-06-20_12-09-00_260595134347_rgbf000087-resize_3/001650_2014-06-20_12-09-00_260595134347_rgbf000087-resize_3-target.png,125,1.9505,4.0,1830,128,feet,jsons/VE125_randls_6.json,496525,690037,29,Man
148,556273,DepthScenes,duration_manipulation_targetAtFixation,jsons/VE125_randls_6.json,http://54.235.29.9/FacialAge/BNav_EC2/DepthDuration/v2_depth_duration_MTurk/v2_DepthDuration_HTML.html#91,91,1280,569,1280,720,9-19-2022,15-59-28,149,depth_duration_stimuli/000758_2014-06-08_22-05-08_260595134347_rgbf000085-resize_0/000758_2014-06-08_22-05-08_260595134347_rgbf000085-resize_0-target.png,125,3.3810000000000002,7.0,1743,125,feet,jsons/VE125_randls_6.json,496525,690037,29,Man
149,556273,DepthScenes,duration_manipulation_targetAtFixation,jsons/VE125_randls_6.json,http://54.235.29.9/FacialAge/BNav_EC2/DepthDuration/v2_depth_duration_MTurk/v2_DepthDuration_HTML.html#91,91,1280,569,1280,720,9-19-2022,15-59-28,150,depth_duration_stimuli/000854_2014-06-09_19-43-13_260595134347_rgbf000066-resize_0/000854_2014-06-09_19-43-13_260595134347_rgbf000066-resize_0-target.png,125,3.068,3.5,1832,123,feet,jsons/VE125_randls_6.json,496525,690037,29,Man
150,556273,DepthScenes,duration_manipulation_targetAtFixation,jsons/VE125_randls_6.json,http://54.235.29.9/FacialAge/BNav_EC2/DepthDuration/v2_depth_duration_MTurk/v2_DepthDuration_HTML.html#91,91,1280,569,1280,720,9-19-2022,15-59-28,151,depth_duration_stimuli/002600_2014-06-24_14-27-04_094959634447_rgbf000074-resize_2/002600_2014-06-24_14-27-04_094959634447_rgbf000074-resize_2-target.png,125,2.7575,5.5,1802,137,feet,jsons/VE125_randls_6.json,496525,690037,29,Man
151,556273,DepthScenes,duration_manipulation_targetAtFixation,jsons/VE125_randls_6.json,http://54.235.29.9/FacialAge/BNav_EC2/DepthDuration/v2_depth_duration_MTurk/v2_DepthDuration_HTML.html#91,91,1280,569,1280,720,9-19-2022,15-59-28,152,depth_duration_stimuli/003228_2014-05-14_13-42-35_094959634447_rgbf000101-resize_1/003228_2014-05-14_13-42-35_094959634447_rgbf000101-resize_1-target.png,125,1.9680000000000002,5.0,3327,123,feet,jsons/VE125_randls_6.json,496525,690037,29,Man
152,556273,DepthScenes,duration_manipulation_targetAtFixation,jsons/VE125_randls_6.json,http://54.235.29.9/FacialAge/BNav_EC2/DepthDuration/v2_depth_duration_MTurk/v2_DepthDuration_HTML.html#91,91,1280,569,1280,720,9-19-2022,15-59-28,153,depth_duration_stimuli/001016_2014-06-09_16-16-10_260595134347_rgbf000112-resize_5/001016_2014-06-09_16-16-10_260595134347_rgbf000112-resize_5-target.png,125,1.6565,6.0,2118,122,feet,jsons/VE125_randls_6.json,496525,690037,29,Man
153,556273,DepthScenes,duration_manipulation_targetAtFixation,jsons/VE125_randls_6.json,http://54.235.29.9/FacialAge/BNav_EC2/DepthDuration/v2_depth_duration_MTurk/v2_DepthDuration_HTML.html#91,91,1280,569,1280,720,9-19-2022,15-59-28,154,depth_duration_stimuli/002340_2014-06-28_20-05-46_260595134347_rgbf000113-resize_0/002340_2014-06-28_20-05-46_260595134347_rgbf000113-resize_0-target.png,125,2.4735,10.0,2495,124,feet,jsons/VE125_randls_6.json,496525,690037,29,Man
154,556273,DepthScenes,duration_manipulation_targetAtFixation,jsons/VE125_randls_6.json,http://54.235.29.9/FacialAge/BNav_EC2/DepthDuration/v2_depth_duration_MTurk/v2_DepthDuration_HTML.html#91,91,1280,569,1280,720,9-19-2022,15-59-28,155,depth_duration_stimuli/002118_2014-06-25_20-32-08_260595134347_rgbf000078-resize_1/002118_2014-06-25_20-32-08_260595134347_rgbf000078-resize_1-target.png,125,2.6460000000000004,7.0,2582,126,feet,jsons/VE125_randls_6.json,496525,690037,29,Man
155,556273,DepthScenes,duration_manipulation_targetAtFixation,jsons/VE125_randls_6.json,http://54.235.29.9/FacialAge/BNav_EC2/DepthDuration/v2_depth_duration_MTurk/v2_DepthDuration_HTML.html#91,91,1280,569,1280,720,9-19-2022,15-59-28,156,depth_duration_stimuli/001516_2014-06-20_16-25-09_260595134347_rgbf000076-resize_2/001516_2014-06-20_16-25-09_260595134347_rgbf000076-resize_2-target.png,125,1.7445,5.0,2207,124,feet,jsons/VE125_randls_6.json,496525,690037,29,Man
156,556273,DepthScenes,duration_manipulation_targetAtFixation,jsons/VE125_randls_6.json,http://54.235.29.9/FacialAge/BNav_EC2/DepthDuration/v2_depth_duration_MTurk/v2_DepthDuration_HTML.html#91,91,1280,569,1280,720,9-19-2022,15-59-28,157,depth_duration_stimuli/001167_2014-06-17_15-38-07_260595134347_rgbf000108-resize_0/001167_2014-06-17_15-38-07_260595134347_rgbf000108-resize_0-target.png,125,1.8505,4.0,1543,137,feet,jsons/VE125_randls_6.json,496525,690037,29,Man
157,556273,DepthScenes,duration_manipulation_targetAtFixation,jsons/VE125_randls_6.json,http://54.235.29.9/FacialAge/BNav_EC2/DepthDuration/v2_depth_duration_MTurk/v2_DepthDuration_HTML.html#91,91,1280,569,1280,720,9-19-2022,15-59-28,158,depth_duration_stimuli/003587_2014-05-23_16-48-02_094959634447_rgbf002384-resize_2/003587_2014-05-23_16-48-02_094959634447_rgbf002384-resize_2-target.png,125,1.357,3.5,2490,123,feet,jsons/VE125_randls_6.json,496525,690037,29,Man
158,556273,DepthScenes,duration_manipulation_targetAtFixation,jsons/VE125_randls_6.json,http://54.235.29.9/FacialAge/BNav_EC2/DepthDuration/v2_depth_duration_MTurk/v2_DepthDuration_HTML.html#91,91,1280,569,1280,720,9-19-2022,15-59-28,159,depth_duration_stimuli/000486_2014-06-09_20-47-20_260595134347_rgbf000143-resize_2/000486_2014-06-09_20-47-20_260595134347_rgbf000143-resize_2-target.png,125,4.8325,10.0,2281,126,feet,jsons/VE125_randls_6.json,496525,690037,29,Man
159,556273,DepthScenes,duration_manipulation_targetAtFixation,jsons/VE125_randls_6.json,http://54.235.29.9/FacialAge/BNav_EC2/DepthDuration/v2_depth_duration_MTurk/v2_DepthDuration_HTML.html#91,91,1280,569,1280,720,9-19-2022,15-59-28,160,depth_duration_stimuli/003083_2014-06-15_15-21-03_094959634447_rgbf000063-resize_1/003083_2014-06-15_15-21-03_094959634447_rgbf000063-resize_1-target.png,125,4.1405,12.0,2357,124,feet,jsons/VE125_randls_6.json,496525,690037,29,Man
160,556273,DepthScenes,duration_manipulation_targetAtFixation,jsons/VE125_randls_6.json,http://54.235.29.9/FacialAge/BNav_EC2/DepthDuration/v2_depth_duration_MTurk/v2_DepthDuration_HTML.html#91,91,1280,569,1280,720,9-19-2022,15-59-28,161,depth_duration_stimuli/000522_2014-06-08_13-35-06_260595134347_rgbf000244-resize_1/000522_2014-06-08_13-35-06_260595134347_rgbf000244-resize_1-target.png,125,2.3715,6.0,1679,124,feet,jsons/VE125_randls_6.json,496525,690037,29,Man
161,556273,DepthScenes,duration_manipulation_targetAtFixation,jsons/VE125_randls_6.json,http://54.235.29.9/FacialAge/BNav_EC2/DepthDuration/v2_depth_duration_MTurk/v2_DepthDuration_HTML.html#91,91,1280,569,1280,720,9-19-2022,15-59-28,162,depth_duration_stimuli/002949_2014-06-26_15-57-42_094959634447_rgbf000079-resize_1/002949_2014-06-26_15-57-42_094959634447_rgbf000079-resize_1-target.png,125,1.8915,5.0,1722,126,feet,jsons/VE125_randls_6.json,496525,690037,29,Man
162,556273,DepthScenes,duration_manipulation_targetAtFixation,jsons/VE125_randls_6.json,http://54.235.29.9/FacialAge/BNav_EC2/DepthDuration/v2_depth_duration_MTurk/v2_DepthDuration_HTML.html#91,91,1280,569,1280,720,9-19-2022,15-59-28,163,depth_duration_stimuli/001133_2014-06-17_14-49-16_260595134347_rgbf000100-resize_0/001133_2014-06-17_14-49-16_260595134347_rgbf000100-resize_0-target.png,125,4.2115,14.0,3081,122,feet,jsons/VE125_randls_6.json,496525,690037,29,Man
163,556273,DepthScenes,duration_manipulation_targetAtFixation,jsons/VE125_randls_6.json,http://54.235.29.9/FacialAge/BNav_EC2/DepthDuration/v2_depth_duration_MTurk/v2_DepthDuration_HTML.html#91,91,1280,569,1280,720,9-19-2022,15-59-28,164,depth_duration_stimuli/001132_2014-06-17_14-48-54_260595134347_rgbf000100-resize_2/001132_2014-06-17_14-48-54_260595134347_rgbf000100-resize_2-target.png,125,3.753,8.0,2572,129,feet,jsons/VE125_randls_6.json,496525,690037,29,Man
