,subjID,experimentName,versionName,sequenceName,url,selected_row,windowWidth,windowHeight,screenWidth,screenHeight,startDate,startTime,trial,stimulus,duration,actual_depth,depth_estimate,trial_RT,log_sceneDuration,unitSelection,seq_filepath,experimentTime,totalTime,age,gender
0,557139,DepthScenes,duration_manipulation_targetAtFixation,jsons/v1_VE1000_randls_55.json,http://54.235.29.9/FacialAge/BNav_EC2/DepthDuration/v2_depth_duration_MTurk/v2_DepthDuration_HTML.html#468,468,1366,768,1366,768,8-29-2022,8-41-13,1,depth_duration_stimuli/001167_2014-06-17_15-38-07_260595134347_rgbf000108-resize_0/001167_2014-06-17_15-38-07_260595134347_rgbf000108-resize_0-target.png,1000,1.8505,5,3251,997,feet,jsons/v1_VE1000_randls_55.json,867866,1061209,25,Woman
1,557139,DepthScenes,duration_manipulation_targetAtFixation,jsons/v1_VE1000_randls_55.json,http://54.235.29.9/FacialAge/BNav_EC2/DepthDuration/v2_depth_duration_MTurk/v2_DepthDuration_HTML.html#468,468,1366,768,1366,768,8-29-2022,8-41-13,2,depth_duration_stimuli/003587_2014-05-23_16-48-02_094959634447_rgbf002384-resize_2/003587_2014-05-23_16-48-02_094959634447_rgbf002384-resize_2-target.png,1000,1.357,5,4610,1002,feet,jsons/v1_VE1000_randls_55.json,867866,1061209,25,Woman
2,557139,DepthScenes,duration_manipulation_targetAtFixation,jsons/v1_VE1000_randls_55.json,http://54.235.29.9/FacialAge/BNav_EC2/DepthDuration/v2_depth_duration_MTurk/v2_DepthDuration_HTML.html#468,468,1366,768,1366,768,8-29-2022,8-41-13,3,depth_duration_stimuli/000447_2014-06-08_16-15-46_260595134347_rgbf000130-resize_1/000447_2014-06-08_16-15-46_260595134347_rgbf000130-resize_1-target.png,1000,4.479,8,3012,1000,feet,jsons/v1_VE1000_randls_55.json,867866,1061209,25,Woman
3,557139,DepthScenes,duration_manipulation_targetAtFixation,jsons/v1_VE1000_randls_55.json,http://54.235.29.9/FacialAge/BNav_EC2/DepthDuration/v2_depth_duration_MTurk/v2_DepthDuration_HTML.html#468,468,1366,768,1366,768,8-29-2022,8-41-13,4,depth_duration_stimuli/001447_2014-06-19_17-00-32_260595134347_rgbf000082-resize_5/001447_2014-06-19_17-00-32_260595134347_rgbf000082-resize_5-target.png,1000,4.13775,7,3050,1000,feet,jsons/v1_VE1000_randls_55.json,867866,1061209,25,Woman
4,557139,DepthScenes,duration_manipulation_targetAtFixation,jsons/v1_VE1000_randls_55.json,http://54.235.29.9/FacialAge/BNav_EC2/DepthDuration/v2_depth_duration_MTurk/v2_DepthDuration_HTML.html#468,468,1366,768,1366,768,8-29-2022,8-41-13,5,depth_duration_stimuli/002375_2014-06-28_20-13-44_260595134347_rgbf000032-resize_1/002375_2014-06-28_20-13-44_260595134347_rgbf000032-resize_1-target.png,1000,4.0175,6,2625,999,feet,jsons/v1_VE1000_randls_55.json,867866,1061209,25,Woman
5,557139,DepthScenes,duration_manipulation_targetAtFixation,jsons/v1_VE1000_randls_55.json,http://54.235.29.9/FacialAge/BNav_EC2/DepthDuration/v2_depth_duration_MTurk/v2_DepthDuration_HTML.html#468,468,1366,768,1366,768,8-29-2022,8-41-13,6,depth_duration_stimuli/002657_2014-06-13_15-29-54_094959634447_rgbf000150-resize_1/002657_2014-06-13_15-29-54_094959634447_rgbf000150-resize_1-target.png,1000,4.919,7,2550,995,feet,jsons/v1_VE1000_randls_55.json,867866,1061209,25,Woman
6,557139,DepthScenes,duration_manipulation_targetAtFixation,jsons/v1_VE1000_randls_55.json,http://54.235.29.9/FacialAge/BNav_EC2/DepthDuration/v2_depth_duration_MTurk/v2_DepthDuration_HTML.html#468,468,1366,768,1366,768,8-29-2022,8-41-13,7,depth_duration_stimuli/002630_2014-06-24_14-47-50_094959634447_rgbf000055-resize_1/002630_2014-06-24_14-47-50_094959634447_rgbf000055-resize_1-target.png,1000,3.0095,8,3330,1003,feet,jsons/v1_VE1000_randls_55.json,867866,1061209,25,Woman
7,557139,DepthScenes,duration_manipulation_targetAtFixation,jsons/v1_VE1000_randls_55.json,http://54.235.29.9/FacialAge/BNav_EC2/DepthDuration/v2_depth_duration_MTurk/v2_DepthDuration_HTML.html#468,468,1366,768,1366,768,8-29-2022,8-41-13,8,depth_duration_stimuli/002758_2014-06-22_19-11-20_094959634447_rgbf000128-resize_1/002758_2014-06-22_19-11-20_094959634447_rgbf000128-resize_1-target.png,1000,2.555,5,2979,1000,feet,jsons/v1_VE1000_randls_55.json,867866,1061209,25,Woman
8,557139,DepthScenes,duration_manipulation_targetAtFixation,jsons/v1_VE1000_randls_55.json,http://54.235.29.9/FacialAge/BNav_EC2/DepthDuration/v2_depth_duration_MTurk/v2_DepthDuration_HTML.html#468,468,1366,768,1366,768,8-29-2022,8-41-13,9,depth_duration_stimuli/000810_2014-06-08_17-20-01_260595134347_rgbf000105-resize_0/000810_2014-06-08_17-20-01_260595134347_rgbf000105-resize_0-target.png,1000,1.4865,6,3778,998,feet,jsons/v1_VE1000_randls_55.json,867866,1061209,25,Woman
9,557139,DepthScenes,duration_manipulation_targetAtFixation,jsons/v1_VE1000_randls_55.json,http://54.235.29.9/FacialAge/BNav_EC2/DepthDuration/v2_depth_duration_MTurk/v2_DepthDuration_HTML.html#468,468,1366,768,1366,768,8-29-2022,8-41-13,10,depth_duration_stimuli/001214_2014-06-17_16-13-55_260595134347_rgbf000111-resize_0/001214_2014-06-17_16-13-55_260595134347_rgbf000111-resize_0-target.png,1000,2.6505,5,3912,989,feet,jsons/v1_VE1000_randls_55.json,867866,1061209,25,Woman
10,557139,DepthScenes,duration_manipulation_targetAtFixation,jsons/v1_VE1000_randls_55.json,http://54.235.29.9/FacialAge/BNav_EC2/DepthDuration/v2_depth_duration_MTurk/v2_DepthDuration_HTML.html#468,468,1366,768,1366,768,8-29-2022,8-41-13,11,depth_duration_stimuli/003534_2014-05-22_15-06-10_094959634447_rgbf000102-resize_4/003534_2014-05-22_15-06-10_094959634447_rgbf000102-resize_4-target.png,1000,1.426,5,4096,1006,feet,jsons/v1_VE1000_randls_55.json,867866,1061209,25,Woman
11,557139,DepthScenes,duration_manipulation_targetAtFixation,jsons/v1_VE1000_randls_55.json,http://54.235.29.9/FacialAge/BNav_EC2/DepthDuration/v2_depth_duration_MTurk/v2_DepthDuration_HTML.html#468,468,1366,768,1366,768,8-29-2022,8-41-13,12,depth_duration_stimuli/002637_2014-06-24_14-51-13_094959634447_rgbf000066-resize_4/002637_2014-06-24_14-51-13_094959634447_rgbf000066-resize_4-target.png,1000,1.9955,8,2641,989,feet,jsons/v1_VE1000_randls_55.json,867866,1061209,25,Woman
12,557139,DepthScenes,duration_manipulation_targetAtFixation,jsons/v1_VE1000_randls_55.json,http://54.235.29.9/FacialAge/BNav_EC2/DepthDuration/v2_depth_duration_MTurk/v2_DepthDuration_HTML.html#468,468,1366,768,1366,768,8-29-2022,8-41-13,13,depth_duration_stimuli/000569_2014-06-09_22-51-47_260595134347_rgbf000141-resize_3/000569_2014-06-09_22-51-47_260595134347_rgbf000141-resize-original.jpg,1000,4.512,0,2994,999,feet,jsons/v1_VE1000_randls_55.json,867866,1061209,25,Woman
13,557139,DepthScenes,duration_manipulation_targetAtFixation,jsons/v1_VE1000_randls_55.json,http://54.235.29.9/FacialAge/BNav_EC2/DepthDuration/v2_depth_duration_MTurk/v2_DepthDuration_HTML.html#468,468,1366,768,1366,768,8-29-2022,8-41-13,14,depth_duration_stimuli/000436_2014-06-09_22-25-11_260595134347_rgbf000137-resize_1/000436_2014-06-09_22-25-11_260595134347_rgbf000137-resize_1-target.png,1000,4.0705,8,2523,1004,feet,jsons/v1_VE1000_randls_55.json,867866,1061209,25,Woman
14,557139,DepthScenes,duration_manipulation_targetAtFixation,jsons/v1_VE1000_randls_55.json,http://54.235.29.9/FacialAge/BNav_EC2/DepthDuration/v2_depth_duration_MTurk/v2_DepthDuration_HTML.html#468,468,1366,768,1366,768,8-29-2022,8-41-13,15,depth_duration_stimuli/002444_2014-06-28_20-32-08_260595134347_rgbf000027-resize_0/002444_2014-06-28_20-32-08_260595134347_rgbf000027-resize_0-target.png,1000,4.388999999999999,6,2938,991,feet,jsons/v1_VE1000_randls_55.json,867866,1061209,25,Woman
15,557139,DepthScenes,duration_manipulation_targetAtFixation,jsons/v1_VE1000_randls_55.json,http://54.235.29.9/FacialAge/BNav_EC2/DepthDuration/v2_depth_duration_MTurk/v2_DepthDuration_HTML.html#468,468,1366,768,1366,768,8-29-2022,8-41-13,16,depth_duration_stimuli/002600_2014-06-24_14-27-04_094959634447_rgbf000074-resize_2/002600_2014-06-24_14-27-04_094959634447_rgbf000074-resize_2-target.png,1000,2.7575,7,3702,997,feet,jsons/v1_VE1000_randls_55.json,867866,1061209,25,Woman
16,557139,DepthScenes,duration_manipulation_targetAtFixation,jsons/v1_VE1000_randls_55.json,http://54.235.29.9/FacialAge/BNav_EC2/DepthDuration/v2_depth_duration_MTurk/v2_DepthDuration_HTML.html#468,468,1366,768,1366,768,8-29-2022,8-41-13,17,depth_duration_stimuli/003228_2014-05-14_13-42-35_094959634447_rgbf000101-resize_1/003228_2014-05-14_13-42-35_094959634447_rgbf000101-resize_1-target.png,1000,1.9680000000000002,5,2484,1007,feet,jsons/v1_VE1000_randls_55.json,867866,1061209,25,Woman
17,557139,DepthScenes,duration_manipulation_targetAtFixation,jsons/v1_VE1000_randls_55.json,http://54.235.29.9/FacialAge/BNav_EC2/DepthDuration/v2_depth_duration_MTurk/v2_DepthDuration_HTML.html#468,468,1366,768,1366,768,8-29-2022,8-41-13,18,depth_duration_stimuli/000758_2014-06-08_22-05-08_260595134347_rgbf000085-resize_0/000758_2014-06-08_22-05-08_260595134347_rgbf000085-resize_0-target.png,1000,3.3810000000000002,8,2561,1000,feet,jsons/v1_VE1000_randls_55.json,867866,1061209,25,Woman
18,557139,DepthScenes,duration_manipulation_targetAtFixation,jsons/v1_VE1000_randls_55.json,http://54.235.29.9/FacialAge/BNav_EC2/DepthDuration/v2_depth_duration_MTurk/v2_DepthDuration_HTML.html#468,468,1366,768,1366,768,8-29-2022,8-41-13,19,depth_duration_stimuli/000854_2014-06-09_19-43-13_260595134347_rgbf000066-resize_0/000854_2014-06-09_19-43-13_260595134347_rgbf000066-resize_0-target.png,1000,3.068,6,4059,1000,feet,jsons/v1_VE1000_randls_55.json,867866,1061209,25,Woman
19,557139,DepthScenes,duration_manipulation_targetAtFixation,jsons/v1_VE1000_randls_55.json,http://54.235.29.9/FacialAge/BNav_EC2/DepthDuration/v2_depth_duration_MTurk/v2_DepthDuration_HTML.html#468,468,1366,768,1366,768,8-29-2022,8-41-13,20,depth_duration_stimuli/001199_2014-06-17_16-03-48_260595134347_rgbf000077-resize_0/001199_2014-06-17_16-03-48_260595134347_rgbf000077-resize_0-target.png,1000,3.4375,8,4066,992,feet,jsons/v1_VE1000_randls_55.json,867866,1061209,25,Woman
20,557139,DepthScenes,duration_manipulation_targetAtFixation,jsons/v1_VE1000_randls_55.json,http://54.235.29.9/FacialAge/BNav_EC2/DepthDuration/v2_depth_duration_MTurk/v2_DepthDuration_HTML.html#468,468,1366,768,1366,768,8-29-2022,8-41-13,21,depth_duration_stimuli/000502_2014-06-08_23-02-32_260595134347_rgbf000063-resize_4/000502_2014-06-08_23-02-32_260595134347_rgbf000063-resize_4-target.png,1000,2.431,5,3535,997,feet,jsons/v1_VE1000_randls_55.json,867866,1061209,25,Woman
21,557139,DepthScenes,duration_manipulation_targetAtFixation,jsons/v1_VE1000_randls_55.json,http://54.235.29.9/FacialAge/BNav_EC2/DepthDuration/v2_depth_duration_MTurk/v2_DepthDuration_HTML.html#468,468,1366,768,1366,768,8-29-2022,8-41-13,22,depth_duration_stimuli/000692_2014-06-08_13-09-42_260595134347_rgbf000199-resize_2/000692_2014-06-08_13-09-42_260595134347_rgbf000199-resize_2-target.png,1000,3.661,8,2587,999,feet,jsons/v1_VE1000_randls_55.json,867866,1061209,25,Woman
22,557139,DepthScenes,duration_manipulation_targetAtFixation,jsons/v1_VE1000_randls_55.json,http://54.235.29.9/FacialAge/BNav_EC2/DepthDuration/v2_depth_duration_MTurk/v2_DepthDuration_HTML.html#468,468,1366,768,1366,768,8-29-2022,8-41-13,23,depth_duration_stimuli/001094_2014-06-15_17-36-00_260595134347_rgbf000205-resize_0/001094_2014-06-15_17-36-00_260595134347_rgbf000205-resize_0-target.png,1000,4.2175,8,2652,1005,feet,jsons/v1_VE1000_randls_55.json,867866,1061209,25,Woman
23,557139,DepthScenes,duration_manipulation_targetAtFixation,jsons/v1_VE1000_randls_55.json,http://54.235.29.9/FacialAge/BNav_EC2/DepthDuration/v2_depth_duration_MTurk/v2_DepthDuration_HTML.html#468,468,1366,768,1366,768,8-29-2022,8-41-13,24,depth_duration_stimuli/000917_2014-06-09_22-45-29_260595134347_rgbf000149-resize_3/000917_2014-06-09_22-45-29_260595134347_rgbf000149-resize_3-target.png,1000,4.1865,9,2536,1003,feet,jsons/v1_VE1000_randls_55.json,867866,1061209,25,Woman
24,557139,DepthScenes,duration_manipulation_targetAtFixation,jsons/v1_VE1000_randls_55.json,http://54.235.29.9/FacialAge/BNav_EC2/DepthDuration/v2_depth_duration_MTurk/v2_DepthDuration_HTML.html#468,468,1366,768,1366,768,8-29-2022,8-41-13,25,depth_duration_stimuli/002323_2014-06-28_20-01-54_260595134347_rgbf000051-resize_4/002323_2014-06-28_20-01-54_260595134347_rgbf000051-resize_4-target.png,1000,3.7310000000000003,7,3817,991,feet,jsons/v1_VE1000_randls_55.json,867866,1061209,25,Woman
25,557139,DepthScenes,duration_manipulation_targetAtFixation,jsons/v1_VE1000_randls_55.json,http://54.235.29.9/FacialAge/BNav_EC2/DepthDuration/v2_depth_duration_MTurk/v2_DepthDuration_HTML.html#468,468,1366,768,1366,768,8-29-2022,8-41-13,26,depth_duration_stimuli/002509_2014-06-24_13-19-22_094959634447_rgbf000077-resize_0/002509_2014-06-24_13-19-22_094959634447_rgbf000077-resize_0-target.png,1000,1.3065,5,2973,1003,feet,jsons/v1_VE1000_randls_55.json,867866,1061209,25,Woman
26,557139,DepthScenes,duration_manipulation_targetAtFixation,jsons/v1_VE1000_randls_55.json,http://54.235.29.9/FacialAge/BNav_EC2/DepthDuration/v2_depth_duration_MTurk/v2_DepthDuration_HTML.html#468,468,1366,768,1366,768,8-29-2022,8-41-13,27,depth_duration_stimuli/003338_2014-05-20_11-01-23_094959634447_rgbf000051-resize_6/003338_2014-05-20_11-01-23_094959634447_rgbf000051-resize_6-target.png,1000,1.693,4,4247,1002,feet,jsons/v1_VE1000_randls_55.json,867866,1061209,25,Woman
27,557139,DepthScenes,duration_manipulation_targetAtFixation,jsons/v1_VE1000_randls_55.json,http://54.235.29.9/FacialAge/BNav_EC2/DepthDuration/v2_depth_duration_MTurk/v2_DepthDuration_HTML.html#468,468,1366,768,1366,768,8-29-2022,8-41-13,28,depth_duration_stimuli/002057_2014-06-24_21-00-13_260595134347_rgbf000120-resize_1/002057_2014-06-24_21-00-13_260595134347_rgbf000120-resize_1-target.png,1000,2.967,8,2731,1003,feet,jsons/v1_VE1000_randls_55.json,867866,1061209,25,Woman
28,557139,DepthScenes,duration_manipulation_targetAtFixation,jsons/v1_VE1000_randls_55.json,http://54.235.29.9/FacialAge/BNav_EC2/DepthDuration/v2_depth_duration_MTurk/v2_DepthDuration_HTML.html#468,468,1366,768,1366,768,8-29-2022,8-41-13,29,depth_duration_stimuli/000709_2014-06-08_13-51-55_260595134347_rgbf000068-resize_3/000709_2014-06-08_13-51-55_260595134347_rgbf000068-resize_3-target.png,1000,1.8030000000000002,6,3402,1000,feet,jsons/v1_VE1000_randls_55.json,867866,1061209,25,Woman
29,557139,DepthScenes,duration_manipulation_targetAtFixation,jsons/v1_VE1000_randls_55.json,http://54.235.29.9/FacialAge/BNav_EC2/DepthDuration/v2_depth_duration_MTurk/v2_DepthDuration_HTML.html#468,468,1366,768,1366,768,8-29-2022,8-41-13,30,depth_duration_stimuli/000375_2014-06-08_11-17-29_260595134347_rgbf000133-resize_2/000375_2014-06-08_11-17-29_260595134347_rgbf000133-resize-original.jpg,1000,4.718,5,4378,1000,feet,jsons/v1_VE1000_randls_55.json,867866,1061209,25,Woman
30,557139,DepthScenes,duration_manipulation_targetAtFixation,jsons/v1_VE1000_randls_55.json,http://54.235.29.9/FacialAge/BNav_EC2/DepthDuration/v2_depth_duration_MTurk/v2_DepthDuration_HTML.html#468,468,1366,768,1366,768,8-29-2022,8-41-13,31,depth_duration_stimuli/000682_2014-06-08_23-14-58_260595134347_rgbf000041-resize_5/000682_2014-06-08_23-14-58_260595134347_rgbf000041-resize_5-target.png,1000,2.7239999999999998,5,2974,1000,feet,jsons/v1_VE1000_randls_55.json,867866,1061209,25,Woman
31,557139,DepthScenes,duration_manipulation_targetAtFixation,jsons/v1_VE1000_randls_55.json,http://54.235.29.9/FacialAge/BNav_EC2/DepthDuration/v2_depth_duration_MTurk/v2_DepthDuration_HTML.html#468,468,1366,768,1366,768,8-29-2022,8-41-13,32,depth_duration_stimuli/001650_2014-06-20_12-09-00_260595134347_rgbf000087-resize_3/001650_2014-06-20_12-09-00_260595134347_rgbf000087-resize_3-target.png,1000,1.9505,5,6299,993,feet,jsons/v1_VE1000_randls_55.json,867866,1061209,25,Woman
32,557139,DepthScenes,duration_manipulation_targetAtFixation,jsons/v1_VE1000_randls_55.json,http://54.235.29.9/FacialAge/BNav_EC2/DepthDuration/v2_depth_duration_MTurk/v2_DepthDuration_HTML.html#468,468,1366,768,1366,768,8-29-2022,8-41-13,33,depth_duration_stimuli/001164_2014-06-17_15-35-46_260595134347_rgbf000085-resize_3/001164_2014-06-17_15-35-46_260595134347_rgbf000085-resize_3-target.png,1000,2.354,5,169278,997,feet,jsons/v1_VE1000_randls_55.json,867866,1061209,25,Woman
33,557139,DepthScenes,duration_manipulation_targetAtFixation,jsons/v1_VE1000_randls_55.json,http://54.235.29.9/FacialAge/BNav_EC2/DepthDuration/v2_depth_duration_MTurk/v2_DepthDuration_HTML.html#468,468,1366,768,1366,768,8-29-2022,8-41-13,34,depth_duration_stimuli/001136_2014-06-17_15-19-41_260595134347_rgbf000076-resize_3/001136_2014-06-17_15-19-41_260595134347_rgbf000076-resize_3-target.png,1000,1.8655,8,2987,993,feet,jsons/v1_VE1000_randls_55.json,867866,1061209,25,Woman
34,557139,DepthScenes,duration_manipulation_targetAtFixation,jsons/v1_VE1000_randls_55.json,http://54.235.29.9/FacialAge/BNav_EC2/DepthDuration/v2_depth_duration_MTurk/v2_DepthDuration_HTML.html#468,468,1366,768,1366,768,8-29-2022,8-41-13,35,depth_duration_stimuli/001808_2014-06-26_20-50-58_260595134347_rgbf000029-resize_1/001808_2014-06-26_20-50-58_260595134347_rgbf000029-resize_1-target.png,1000,4.249,6,3988,1009,feet,jsons/v1_VE1000_randls_55.json,867866,1061209,25,Woman
35,557139,DepthScenes,duration_manipulation_targetAtFixation,jsons/v1_VE1000_randls_55.json,http://54.235.29.9/FacialAge/BNav_EC2/DepthDuration/v2_depth_duration_MTurk/v2_DepthDuration_HTML.html#468,468,1366,768,1366,768,8-29-2022,8-41-13,36,depth_duration_stimuli/001815_2014-06-26_20-52-55_260595134347_rgbf000020-resize_0/001815_2014-06-26_20-52-55_260595134347_rgbf000020-resize_0-target.png,1000,3.3865,8,2891,1007,feet,jsons/v1_VE1000_randls_55.json,867866,1061209,25,Woman
36,557139,DepthScenes,duration_manipulation_targetAtFixation,jsons/v1_VE1000_randls_55.json,http://54.235.29.9/FacialAge/BNav_EC2/DepthDuration/v2_depth_duration_MTurk/v2_DepthDuration_HTML.html#468,468,1366,768,1366,768,8-29-2022,8-41-13,37,depth_duration_stimuli/001570_2014-06-20_17-21-09_260595134347_rgbf000135-resize_4/001570_2014-06-20_17-21-09_260595134347_rgbf000135-resize_4-target.png,1000,4.467,8,3212,998,feet,jsons/v1_VE1000_randls_55.json,867866,1061209,25,Woman
37,557139,DepthScenes,duration_manipulation_targetAtFixation,jsons/v1_VE1000_randls_55.json,http://54.235.29.9/FacialAge/BNav_EC2/DepthDuration/v2_depth_duration_MTurk/v2_DepthDuration_HTML.html#468,468,1366,768,1366,768,8-29-2022,8-41-13,38,depth_duration_stimuli/001392_2014-06-19_16-07-59_260595134347_rgbf000046-resize_1/001392_2014-06-19_16-07-59_260595134347_rgbf000046-resize_1-target.png,1000,4.135,7,2765,995,feet,jsons/v1_VE1000_randls_55.json,867866,1061209,25,Woman
38,557139,DepthScenes,duration_manipulation_targetAtFixation,jsons/v1_VE1000_randls_55.json,http://54.235.29.9/FacialAge/BNav_EC2/DepthDuration/v2_depth_duration_MTurk/v2_DepthDuration_HTML.html#468,468,1366,768,1366,768,8-29-2022,8-41-13,39,depth_duration_stimuli/001016_2014-06-09_16-16-10_260595134347_rgbf000112-resize_5/001016_2014-06-09_16-16-10_260595134347_rgbf000112-resize_5-target.png,1000,1.6565,6,2762,1004,feet,jsons/v1_VE1000_randls_55.json,867866,1061209,25,Woman
39,557139,DepthScenes,duration_manipulation_targetAtFixation,jsons/v1_VE1000_randls_55.json,http://54.235.29.9/FacialAge/BNav_EC2/DepthDuration/v2_depth_duration_MTurk/v2_DepthDuration_HTML.html#468,468,1366,768,1366,768,8-29-2022,8-41-13,40,depth_duration_stimuli/002340_2014-06-28_20-05-46_260595134347_rgbf000113-resize_0/002340_2014-06-28_20-05-46_260595134347_rgbf000113-resize_0-target.png,1000,2.4735,8,3690,1000,feet,jsons/v1_VE1000_randls_55.json,867866,1061209,25,Woman
40,557139,DepthScenes,duration_manipulation_targetAtFixation,jsons/v1_VE1000_randls_55.json,http://54.235.29.9/FacialAge/BNav_EC2/DepthDuration/v2_depth_duration_MTurk/v2_DepthDuration_HTML.html#468,468,1366,768,1366,768,8-29-2022,8-41-13,41,depth_duration_stimuli/002043_2014-06-24_20-29-38_260595134347_rgbf000039-resize_4/002043_2014-06-24_20-29-38_260595134347_rgbf000039-resize_4-target.png,1000,2.8435,7,3019,1000,feet,jsons/v1_VE1000_randls_55.json,867866,1061209,25,Woman
41,557139,DepthScenes,duration_manipulation_targetAtFixation,jsons/v1_VE1000_randls_55.json,http://54.235.29.9/FacialAge/BNav_EC2/DepthDuration/v2_depth_duration_MTurk/v2_DepthDuration_HTML.html#468,468,1366,768,1366,768,8-29-2022,8-41-13,42,depth_duration_stimuli/003048_2014-06-15_13-49-43_094959634447_rgbf000150-resize_1/003048_2014-06-15_13-49-43_094959634447_rgbf000150-resize_1-target.png,1000,4.0035,6,3292,1008,feet,jsons/v1_VE1000_randls_55.json,867866,1061209,25,Woman
42,557139,DepthScenes,duration_manipulation_targetAtFixation,jsons/v1_VE1000_randls_55.json,http://54.235.29.9/FacialAge/BNav_EC2/DepthDuration/v2_depth_duration_MTurk/v2_DepthDuration_HTML.html#468,468,1366,768,1366,768,8-29-2022,8-41-13,43,depth_duration_stimuli/000414_2014-06-04_19-49-13_260595134347_rgbf000044-resize_0/000414_2014-06-04_19-49-13_260595134347_rgbf000044-resize_0-target.png,1000,4.329,8,3002,998,feet,jsons/v1_VE1000_randls_55.json,867866,1061209,25,Woman
43,557139,DepthScenes,duration_manipulation_targetAtFixation,jsons/v1_VE1000_randls_55.json,http://54.235.29.9/FacialAge/BNav_EC2/DepthDuration/v2_depth_duration_MTurk/v2_DepthDuration_HTML.html#468,468,1366,768,1366,768,8-29-2022,8-41-13,44,depth_duration_stimuli/003129_2014-05-12_10-48-10_094959634447_rgbf000100-resize_0/003129_2014-05-12_10-48-10_094959634447_rgbf000100-resize_0-target.png,1000,4.9305,6,3906,991,feet,jsons/v1_VE1000_randls_55.json,867866,1061209,25,Woman
44,557139,DepthScenes,duration_manipulation_targetAtFixation,jsons/v1_VE1000_randls_55.json,http://54.235.29.9/FacialAge/BNav_EC2/DepthDuration/v2_depth_duration_MTurk/v2_DepthDuration_HTML.html#468,468,1366,768,1366,768,8-29-2022,8-41-13,45,depth_duration_stimuli/000787_2014-06-08_22-33-53_260595134347_rgbf000175-resize_1/000787_2014-06-08_22-33-53_260595134347_rgbf000175-resize-original.jpg,1000,4.784,3,5152,998,feet,jsons/v1_VE1000_randls_55.json,867866,1061209,25,Woman
45,557139,DepthScenes,duration_manipulation_targetAtFixation,jsons/v1_VE1000_randls_55.json,http://54.235.29.9/FacialAge/BNav_EC2/DepthDuration/v2_depth_duration_MTurk/v2_DepthDuration_HTML.html#468,468,1366,768,1366,768,8-29-2022,8-41-13,46,depth_duration_stimuli/002663_2014-06-13_15-50-26_094959634447_rgbf000075-resize_1/002663_2014-06-13_15-50-26_094959634447_rgbf000075-resize_1-target.png,1000,4.7495,8,2642,999,feet,jsons/v1_VE1000_randls_55.json,867866,1061209,25,Woman
46,557139,DepthScenes,duration_manipulation_targetAtFixation,jsons/v1_VE1000_randls_55.json,http://54.235.29.9/FacialAge/BNav_EC2/DepthDuration/v2_depth_duration_MTurk/v2_DepthDuration_HTML.html#468,468,1366,768,1366,768,8-29-2022,8-41-13,47,depth_duration_stimuli/000409_2014-06-04_19-23-33_260595134347_rgbf000067-resize_0/000409_2014-06-04_19-23-33_260595134347_rgbf000067-resize_0-target.png,1000,3.7335,5,2605,1001,feet,jsons/v1_VE1000_randls_55.json,867866,1061209,25,Woman
47,557139,DepthScenes,duration_manipulation_targetAtFixation,jsons/v1_VE1000_randls_55.json,http://54.235.29.9/FacialAge/BNav_EC2/DepthDuration/v2_depth_duration_MTurk/v2_DepthDuration_HTML.html#468,468,1366,768,1366,768,8-29-2022,8-41-13,48,depth_duration_stimuli/001133_2014-06-17_14-49-16_260595134347_rgbf000100-resize_0/001133_2014-06-17_14-49-16_260595134347_rgbf000100-resize_0-target.png,1000,4.2115,7,2596,1002,feet,jsons/v1_VE1000_randls_55.json,867866,1061209,25,Woman
48,557139,DepthScenes,duration_manipulation_targetAtFixation,jsons/v1_VE1000_randls_55.json,http://54.235.29.9/FacialAge/BNav_EC2/DepthDuration/v2_depth_duration_MTurk/v2_DepthDuration_HTML.html#468,468,1366,768,1366,768,8-29-2022,8-41-13,49,depth_duration_stimuli/001132_2014-06-17_14-48-54_260595134347_rgbf000100-resize_2/001132_2014-06-17_14-48-54_260595134347_rgbf000100-resize_2-target.png,1000,3.753,8,2527,1005,feet,jsons/v1_VE1000_randls_55.json,867866,1061209,25,Woman
49,557139,DepthScenes,duration_manipulation_targetAtFixation,jsons/v1_VE1000_randls_55.json,http://54.235.29.9/FacialAge/BNav_EC2/DepthDuration/v2_depth_duration_MTurk/v2_DepthDuration_HTML.html#468,468,1366,768,1366,768,8-29-2022,8-41-13,50,depth_duration_stimuli/001066_2014-06-08_22-03-20_260595134347_rgbf000066-resize_4/001066_2014-06-08_22-03-20_260595134347_rgbf000066-resize_4-target.png,1000,4.2330000000000005,7,2625,998,feet,jsons/v1_VE1000_randls_55.json,867866,1061209,25,Woman
50,557139,DepthScenes,duration_manipulation_targetAtFixation,jsons/v1_VE1000_randls_55.json,http://54.235.29.9/FacialAge/BNav_EC2/DepthDuration/v2_depth_duration_MTurk/v2_DepthDuration_HTML.html#468,468,1366,768,1366,768,8-29-2022,8-41-13,51,depth_duration_stimuli/000742_2014-06-08_18-48-09_260595134347_rgbf000164-resize_4/000742_2014-06-08_18-48-09_260595134347_rgbf000164-resize_4-target.png,1000,4.632,6,2659,1002,feet,jsons/v1_VE1000_randls_55.json,867866,1061209,25,Woman
51,557139,DepthScenes,duration_manipulation_targetAtFixation,jsons/v1_VE1000_randls_55.json,http://54.235.29.9/FacialAge/BNav_EC2/DepthDuration/v2_depth_duration_MTurk/v2_DepthDuration_HTML.html#468,468,1366,768,1366,768,8-29-2022,8-41-13,52,depth_duration_stimuli/001417_2014-06-19_16-25-36_260595134347_rgbf000115-resize_5/001417_2014-06-19_16-25-36_260595134347_rgbf000115-resize_5-target.png,1000,4.6255,8,3490,1007,feet,jsons/v1_VE1000_randls_55.json,867866,1061209,25,Woman
52,557139,DepthScenes,duration_manipulation_targetAtFixation,jsons/v1_VE1000_randls_55.json,http://54.235.29.9/FacialAge/BNav_EC2/DepthDuration/v2_depth_duration_MTurk/v2_DepthDuration_HTML.html#468,468,1366,768,1366,768,8-29-2022,8-41-13,53,depth_duration_stimuli/003081_2014-06-15_15-19-16_094959634447_rgbf000150-resize_1/003081_2014-06-15_15-19-16_094959634447_rgbf000150-resize_1-target.png,1000,3.9125,7,3212,992,feet,jsons/v1_VE1000_randls_55.json,867866,1061209,25,Woman
53,557139,DepthScenes,duration_manipulation_targetAtFixation,jsons/v1_VE1000_randls_55.json,http://54.235.29.9/FacialAge/BNav_EC2/DepthDuration/v2_depth_duration_MTurk/v2_DepthDuration_HTML.html#468,468,1366,768,1366,768,8-29-2022,8-41-13,54,depth_duration_stimuli/001055_2014-06-08_18-45-35_260595134347_rgbf000111-resize_4/001055_2014-06-08_18-45-35_260595134347_rgbf000111-resize_4-target.png,1000,2.4290000000000003,5,3419,1001,feet,jsons/v1_VE1000_randls_55.json,867866,1061209,25,Woman
54,557139,DepthScenes,duration_manipulation_targetAtFixation,jsons/v1_VE1000_randls_55.json,http://54.235.29.9/FacialAge/BNav_EC2/DepthDuration/v2_depth_duration_MTurk/v2_DepthDuration_HTML.html#468,468,1366,768,1366,768,8-29-2022,8-41-13,55,depth_duration_stimuli/000549_2014-06-08_22-10-24_260595134347_rgbf000247-resize_3/000549_2014-06-08_22-10-24_260595134347_rgbf000247-resize_3-target.png,1000,1.841,5,4947,1018,feet,jsons/v1_VE1000_randls_55.json,867866,1061209,25,Woman
55,557139,DepthScenes,duration_manipulation_targetAtFixation,jsons/v1_VE1000_randls_55.json,http://54.235.29.9/FacialAge/BNav_EC2/DepthDuration/v2_depth_duration_MTurk/v2_DepthDuration_HTML.html#468,468,1366,768,1366,768,8-29-2022,8-41-13,56,depth_duration_stimuli/002748_2014-06-22_19-07-22_094959634447_rgbf000078-resize_1/002748_2014-06-22_19-07-22_094959634447_rgbf000078-resize_1-target.png,1000,4.6705,9,5315,1002,feet,jsons/v1_VE1000_randls_55.json,867866,1061209,25,Woman
56,557139,DepthScenes,duration_manipulation_targetAtFixation,jsons/v1_VE1000_randls_55.json,http://54.235.29.9/FacialAge/BNav_EC2/DepthDuration/v2_depth_duration_MTurk/v2_DepthDuration_HTML.html#468,468,1366,768,1366,768,8-29-2022,8-41-13,57,depth_duration_stimuli/002995_2014-06-15_12-31-26_094959634447_rgbf000150-resize_1/002995_2014-06-15_12-31-26_094959634447_rgbf000150-resize_1-target.png,1000,3.8360000000000003,7,2538,1000,feet,jsons/v1_VE1000_randls_55.json,867866,1061209,25,Woman
57,557139,DepthScenes,duration_manipulation_targetAtFixation,jsons/v1_VE1000_randls_55.json,http://54.235.29.9/FacialAge/BNav_EC2/DepthDuration/v2_depth_duration_MTurk/v2_DepthDuration_HTML.html#468,468,1366,768,1366,768,8-29-2022,8-41-13,58,depth_duration_stimuli/003492_2014-05-21_15-50-55_094959634447_rgbf000828-resize_1/003492_2014-05-21_15-50-55_094959634447_rgbf000828-resize_1-target.png,1000,4.06875,6,2635,1008,feet,jsons/v1_VE1000_randls_55.json,867866,1061209,25,Woman
58,557139,DepthScenes,duration_manipulation_targetAtFixation,jsons/v1_VE1000_randls_55.json,http://54.235.29.9/FacialAge/BNav_EC2/DepthDuration/v2_depth_duration_MTurk/v2_DepthDuration_HTML.html#468,468,1366,768,1366,768,8-29-2022,8-41-13,59,depth_duration_stimuli/002568_2014-06-24_13-59-21_094959634447_rgbf000062-resize_4/002568_2014-06-24_13-59-21_094959634447_rgbf000062-resize_4-target.png,1000,3.015,5,2784,998,feet,jsons/v1_VE1000_randls_55.json,867866,1061209,25,Woman
59,557139,DepthScenes,duration_manipulation_targetAtFixation,jsons/v1_VE1000_randls_55.json,http://54.235.29.9/FacialAge/BNav_EC2/DepthDuration/v2_depth_duration_MTurk/v2_DepthDuration_HTML.html#468,468,1366,768,1366,768,8-29-2022,8-41-13,60,depth_duration_stimuli/000486_2014-06-09_20-47-20_260595134347_rgbf000143-resize_2/000486_2014-06-09_20-47-20_260595134347_rgbf000143-resize_2-target.png,1000,4.8325,7,2684,1004,feet,jsons/v1_VE1000_randls_55.json,867866,1061209,25,Woman
60,557139,DepthScenes,duration_manipulation_targetAtFixation,jsons/v1_VE1000_randls_55.json,http://54.235.29.9/FacialAge/BNav_EC2/DepthDuration/v2_depth_duration_MTurk/v2_DepthDuration_HTML.html#468,468,1366,768,1366,768,8-29-2022,8-41-13,61,depth_duration_stimuli/003083_2014-06-15_15-21-03_094959634447_rgbf000063-resize_1/003083_2014-06-15_15-21-03_094959634447_rgbf000063-resize_1-target.png,1000,4.1405,8,2612,1003,feet,jsons/v1_VE1000_randls_55.json,867866,1061209,25,Woman
61,557139,DepthScenes,duration_manipulation_targetAtFixation,jsons/v1_VE1000_randls_55.json,http://54.235.29.9/FacialAge/BNav_EC2/DepthDuration/v2_depth_duration_MTurk/v2_DepthDuration_HTML.html#468,468,1366,768,1366,768,8-29-2022,8-41-13,62,depth_duration_stimuli/001555_2014-06-20_17-12-10_260595134347_rgbf000065-resize_4/001555_2014-06-20_17-12-10_260595134347_rgbf000065-resize_4-target.png,1000,1.633,5,3244,1007,feet,jsons/v1_VE1000_randls_55.json,867866,1061209,25,Woman
62,557139,DepthScenes,duration_manipulation_targetAtFixation,jsons/v1_VE1000_randls_55.json,http://54.235.29.9/FacialAge/BNav_EC2/DepthDuration/v2_depth_duration_MTurk/v2_DepthDuration_HTML.html#468,468,1366,768,1366,768,8-29-2022,8-41-13,63,depth_duration_stimuli/000103_2014-05-14_22-01-17_260595134347_rgbf000152-resize_5/000103_2014-05-14_22-01-17_260595134347_rgbf000152-resize_5-target.png,1000,1.993,6,2531,1006,feet,jsons/v1_VE1000_randls_55.json,867866,1061209,25,Woman
63,557139,DepthScenes,duration_manipulation_targetAtFixation,jsons/v1_VE1000_randls_55.json,http://54.235.29.9/FacialAge/BNav_EC2/DepthDuration/v2_depth_duration_MTurk/v2_DepthDuration_HTML.html#468,468,1366,768,1366,768,8-29-2022,8-41-13,64,depth_duration_stimuli/001175_2014-06-17_15-45-55_260595134347_rgbf000129-resize_4/001175_2014-06-17_15-45-55_260595134347_rgbf000129-resize_4-target.png,1000,4.255,8,2666,1005,feet,jsons/v1_VE1000_randls_55.json,867866,1061209,25,Woman
64,557139,DepthScenes,duration_manipulation_targetAtFixation,jsons/v1_VE1000_randls_55.json,http://54.235.29.9/FacialAge/BNav_EC2/DepthDuration/v2_depth_duration_MTurk/v2_DepthDuration_HTML.html#468,468,1366,768,1366,768,8-29-2022,8-41-13,65,depth_duration_stimuli/003490_2014-05-21_15-50-11_094959634447_rgbf000101-resize_3/003490_2014-05-21_15-50-11_094959634447_rgbf000101-resize_3-target.png,1000,3.6445,7,9114,1005,feet,jsons/v1_VE1000_randls_55.json,867866,1061209,25,Woman
65,557139,DepthScenes,duration_manipulation_targetAtFixation,jsons/v1_VE1000_randls_55.json,http://54.235.29.9/FacialAge/BNav_EC2/DepthDuration/v2_depth_duration_MTurk/v2_DepthDuration_HTML.html#468,468,1366,768,1366,768,8-29-2022,8-41-13,66,depth_duration_stimuli/001222_2014-06-17_16-24-06_260595134347_rgbf000073-resize_0/001222_2014-06-17_16-24-06_260595134347_rgbf000073-resize-original.jpg,1000,1.4385,0,3225,990,feet,jsons/v1_VE1000_randls_55.json,867866,1061209,25,Woman
66,557139,DepthScenes,duration_manipulation_targetAtFixation,jsons/v1_VE1000_randls_55.json,http://54.235.29.9/FacialAge/BNav_EC2/DepthDuration/v2_depth_duration_MTurk/v2_DepthDuration_HTML.html#468,468,1366,768,1366,768,8-29-2022,8-41-13,67,depth_duration_stimuli/002445_2014-06-28_20-32-16_260595134347_rgbf000029-resize_4/002445_2014-06-28_20-32-16_260595134347_rgbf000029-resize_4-target.png,1000,2.5315,5,2595,1000,feet,jsons/v1_VE1000_randls_55.json,867866,1061209,25,Woman
67,557139,DepthScenes,duration_manipulation_targetAtFixation,jsons/v1_VE1000_randls_55.json,http://54.235.29.9/FacialAge/BNav_EC2/DepthDuration/v2_depth_duration_MTurk/v2_DepthDuration_HTML.html#468,468,1366,768,1366,768,8-29-2022,8-41-13,68,depth_duration_stimuli/000780_2014-06-08_22-28-29_260595134347_rgbf000126-resize_1/000780_2014-06-08_22-28-29_260595134347_rgbf000126-resize_1-target.png,1000,3.3825,8,3042,1007,feet,jsons/v1_VE1000_randls_55.json,867866,1061209,25,Woman
68,557139,DepthScenes,duration_manipulation_targetAtFixation,jsons/v1_VE1000_randls_55.json,http://54.235.29.9/FacialAge/BNav_EC2/DepthDuration/v2_depth_duration_MTurk/v2_DepthDuration_HTML.html#468,468,1366,768,1366,768,8-29-2022,8-41-13,69,depth_duration_stimuli/001244_2014-06-17_16-47-45_260595134347_rgbf000030-resize_4/001244_2014-06-17_16-47-45_260595134347_rgbf000030-resize_4-target.png,1000,2.0425,7,3631,999,feet,jsons/v1_VE1000_randls_55.json,867866,1061209,25,Woman
69,557139,DepthScenes,duration_manipulation_targetAtFixation,jsons/v1_VE1000_randls_55.json,http://54.235.29.9/FacialAge/BNav_EC2/DepthDuration/v2_depth_duration_MTurk/v2_DepthDuration_HTML.html#468,468,1366,768,1366,768,8-29-2022,8-41-13,70,depth_duration_stimuli/003495_2014-05-21_16-01-51_094959634447_rgbf000100-resize_3/003495_2014-05-21_16-01-51_094959634447_rgbf000100-resize_3-target.png,1000,1.6255,3,2779,999,feet,jsons/v1_VE1000_randls_55.json,867866,1061209,25,Woman
70,557139,DepthScenes,duration_manipulation_targetAtFixation,jsons/v1_VE1000_randls_55.json,http://54.235.29.9/FacialAge/BNav_EC2/DepthDuration/v2_depth_duration_MTurk/v2_DepthDuration_HTML.html#468,468,1366,768,1366,768,8-29-2022,8-41-13,71,depth_duration_stimuli/002272_2014-06-28_18-53-56_260595134347_rgbf000067-resize_2/002272_2014-06-28_18-53-56_260595134347_rgbf000067-resize_2-target.png,1000,1.138,5,5395,996,feet,jsons/v1_VE1000_randls_55.json,867866,1061209,25,Woman
71,557139,DepthScenes,duration_manipulation_targetAtFixation,jsons/v1_VE1000_randls_55.json,http://54.235.29.9/FacialAge/BNav_EC2/DepthDuration/v2_depth_duration_MTurk/v2_DepthDuration_HTML.html#468,468,1366,768,1366,768,8-29-2022,8-41-13,72,depth_duration_stimuli/001571_2014-06-20_17-21-32_260595134347_rgbf000089-resize_1/001571_2014-06-20_17-21-32_260595134347_rgbf000089-resize_1-target.png,1000,1.86,5,2783,995,feet,jsons/v1_VE1000_randls_55.json,867866,1061209,25,Woman
72,557139,DepthScenes,duration_manipulation_targetAtFixation,jsons/v1_VE1000_randls_55.json,http://54.235.29.9/FacialAge/BNav_EC2/DepthDuration/v2_depth_duration_MTurk/v2_DepthDuration_HTML.html#468,468,1366,768,1366,768,8-29-2022,8-41-13,73,depth_duration_stimuli/000493_2014-06-09_21-01-18_260595134347_rgbf000196-resize_3/000493_2014-06-09_21-01-18_260595134347_rgbf000196-resize_3-target.png,1000,3.44,7,2827,1002,feet,jsons/v1_VE1000_randls_55.json,867866,1061209,25,Woman
73,557139,DepthScenes,duration_manipulation_targetAtFixation,jsons/v1_VE1000_randls_55.json,http://54.235.29.9/FacialAge/BNav_EC2/DepthDuration/v2_depth_duration_MTurk/v2_DepthDuration_HTML.html#468,468,1366,768,1366,768,8-29-2022,8-41-13,74,depth_duration_stimuli/000191_2014-05-12_17-07-38_260595134347_rgbf000199-resize_0/000191_2014-05-12_17-07-38_260595134347_rgbf000199-resize_0-target.png,1000,3.7995,8,2755,1007,feet,jsons/v1_VE1000_randls_55.json,867866,1061209,25,Woman
74,557139,DepthScenes,duration_manipulation_targetAtFixation,jsons/v1_VE1000_randls_55.json,http://54.235.29.9/FacialAge/BNav_EC2/DepthDuration/v2_depth_duration_MTurk/v2_DepthDuration_HTML.html#468,468,1366,768,1366,768,8-29-2022,8-41-13,75,depth_duration_stimuli/002788_2014-06-22_19-36-03_094959634447_rgbf000088-resize_2/002788_2014-06-22_19-36-03_094959634447_rgbf000088-resize_2-target.png,1000,1.6465,5,2609,996,feet,jsons/v1_VE1000_randls_55.json,867866,1061209,25,Woman
75,557139,DepthScenes,duration_manipulation_targetAtFixation,jsons/v1_VE1000_randls_55.json,http://54.235.29.9/FacialAge/BNav_EC2/DepthDuration/v2_depth_duration_MTurk/v2_DepthDuration_HTML.html#468,468,1366,768,1366,768,8-29-2022,8-41-13,76,depth_duration_stimuli/000749_2014-06-08_21-55-06_260595134347_rgbf000070-resize_2/000749_2014-06-08_21-55-06_260595134347_rgbf000070-resize_2-target.png,1000,2.331,6,3950,997,feet,jsons/v1_VE1000_randls_55.json,867866,1061209,25,Woman
76,557139,DepthScenes,duration_manipulation_targetAtFixation,jsons/v1_VE1000_randls_55.json,http://54.235.29.9/FacialAge/BNav_EC2/DepthDuration/v2_depth_duration_MTurk/v2_DepthDuration_HTML.html#468,468,1366,768,1366,768,8-29-2022,8-41-13,77,depth_duration_stimuli/000009_2014-05-26_14-32-05_260595134347_rgbf000034-resize_3/000009_2014-05-26_14-32-05_260595134347_rgbf000034-resize_3-target.png,1000,3.8715,8,2886,995,feet,jsons/v1_VE1000_randls_55.json,867866,1061209,25,Woman
77,557139,DepthScenes,duration_manipulation_targetAtFixation,jsons/v1_VE1000_randls_55.json,http://54.235.29.9/FacialAge/BNav_EC2/DepthDuration/v2_depth_duration_MTurk/v2_DepthDuration_HTML.html#468,468,1366,768,1366,768,8-29-2022,8-41-13,78,depth_duration_stimuli/001828_2014-06-26_21-40-03_260595134347_rgbf000024-resize_0/001828_2014-06-26_21-40-03_260595134347_rgbf000024-resize_0-target.png,1000,4.8260000000000005,7,3015,996,feet,jsons/v1_VE1000_randls_55.json,867866,1061209,25,Woman
78,557139,DepthScenes,duration_manipulation_targetAtFixation,jsons/v1_VE1000_randls_55.json,http://54.235.29.9/FacialAge/BNav_EC2/DepthDuration/v2_depth_duration_MTurk/v2_DepthDuration_HTML.html#468,468,1366,768,1366,768,8-29-2022,8-41-13,79,depth_duration_stimuli/003292_2014-05-14_21-53-49_094959634447_rgbf000100-resize_2/003292_2014-05-14_21-53-49_094959634447_rgbf000100-resize_2-target.png,1000,3.4815,5,3154,999,feet,jsons/v1_VE1000_randls_55.json,867866,1061209,25,Woman
79,557139,DepthScenes,duration_manipulation_targetAtFixation,jsons/v1_VE1000_randls_55.json,http://54.235.29.9/FacialAge/BNav_EC2/DepthDuration/v2_depth_duration_MTurk/v2_DepthDuration_HTML.html#468,468,1366,768,1366,768,8-29-2022,8-41-13,80,depth_duration_stimuli/002639_2014-06-24_14-51-37_094959634447_rgbf000074-resize_4/002639_2014-06-24_14-51-37_094959634447_rgbf000074-resize_4-target.png,1000,4.0375,5,3228,999,feet,jsons/v1_VE1000_randls_55.json,867866,1061209,25,Woman
80,557139,DepthScenes,duration_manipulation_targetAtFixation,jsons/v1_VE1000_randls_55.json,http://54.235.29.9/FacialAge/BNav_EC2/DepthDuration/v2_depth_duration_MTurk/v2_DepthDuration_HTML.html#468,468,1366,768,1366,768,8-29-2022,8-41-13,81,depth_duration_stimuli/002964_2014-06-08_17-46-11_094959634447_rgbf000091-resize_4/002964_2014-06-08_17-46-11_094959634447_rgbf000091-resize_4-target.png,1000,1.6909999999999998,3,2866,1001,feet,jsons/v1_VE1000_randls_55.json,867866,1061209,25,Woman
81,557139,DepthScenes,duration_manipulation_targetAtFixation,jsons/v1_VE1000_randls_55.json,http://54.235.29.9/FacialAge/BNav_EC2/DepthDuration/v2_depth_duration_MTurk/v2_DepthDuration_HTML.html#468,468,1366,768,1366,768,8-29-2022,8-41-13,82,depth_duration_stimuli/002136_2014-06-25_21-18-03_260595134347_rgbf000109-resize_3/002136_2014-06-25_21-18-03_260595134347_rgbf000109-resize_3-target.png,1000,1.9569999999999999,5,2666,1002,feet,jsons/v1_VE1000_randls_55.json,867866,1061209,25,Woman
82,557139,DepthScenes,duration_manipulation_targetAtFixation,jsons/v1_VE1000_randls_55.json,http://54.235.29.9/FacialAge/BNav_EC2/DepthDuration/v2_depth_duration_MTurk/v2_DepthDuration_HTML.html#468,468,1366,768,1366,768,8-29-2022,8-41-13,83,depth_duration_stimuli/002549_2014-06-24_13-41-39_094959634447_rgbf000022-resize_3/002549_2014-06-24_13-41-39_094959634447_rgbf000022-resize_3-target.png,1000,1.476,5,2952,996,feet,jsons/v1_VE1000_randls_55.json,867866,1061209,25,Woman
83,557139,DepthScenes,duration_manipulation_targetAtFixation,jsons/v1_VE1000_randls_55.json,http://54.235.29.9/FacialAge/BNav_EC2/DepthDuration/v2_depth_duration_MTurk/v2_DepthDuration_HTML.html#468,468,1366,768,1366,768,8-29-2022,8-41-13,84,depth_duration_stimuli/002750_2014-06-22_19-08-03_094959634447_rgbf000094-resize_4/002750_2014-06-22_19-08-03_094959634447_rgbf000094-resize_4-target.png,1000,2.354,7,2974,1003,feet,jsons/v1_VE1000_randls_55.json,867866,1061209,25,Woman
84,557139,DepthScenes,duration_manipulation_targetAtFixation,jsons/v1_VE1000_randls_55.json,http://54.235.29.9/FacialAge/BNav_EC2/DepthDuration/v2_depth_duration_MTurk/v2_DepthDuration_HTML.html#468,468,1366,768,1366,768,8-29-2022,8-41-13,85,depth_duration_stimuli/000736_2014-06-08_18-24-15_260595134347_rgbf000206-resize_3/000736_2014-06-08_18-24-15_260595134347_rgbf000206-resize_3-target.png,1000,3.515,7,9299,1010,feet,jsons/v1_VE1000_randls_55.json,867866,1061209,25,Woman
85,557139,DepthScenes,duration_manipulation_targetAtFixation,jsons/v1_VE1000_randls_55.json,http://54.235.29.9/FacialAge/BNav_EC2/DepthDuration/v2_depth_duration_MTurk/v2_DepthDuration_HTML.html#468,468,1366,768,1366,768,8-29-2022,8-41-13,86,depth_duration_stimuli/000137_2014-05-20_17-04-49_260595134347_rgbf000120-resize_1/000137_2014-05-20_17-04-49_260595134347_rgbf000120-resize_1-target.png,1000,3.786,7,5947,1000,feet,jsons/v1_VE1000_randls_55.json,867866,1061209,25,Woman
86,557139,DepthScenes,duration_manipulation_targetAtFixation,jsons/v1_VE1000_randls_55.json,http://54.235.29.9/FacialAge/BNav_EC2/DepthDuration/v2_depth_duration_MTurk/v2_DepthDuration_HTML.html#468,468,1366,768,1366,768,8-29-2022,8-41-13,87,depth_duration_stimuli/001110_2014-06-15_17-25-28_260595134347_rgbf000150-resize_1/001110_2014-06-15_17-25-28_260595134347_rgbf000150-resize_1-target.png,1000,1.7115,5,3867,1000,feet,jsons/v1_VE1000_randls_55.json,867866,1061209,25,Woman
87,557139,DepthScenes,duration_manipulation_targetAtFixation,jsons/v1_VE1000_randls_55.json,http://54.235.29.9/FacialAge/BNav_EC2/DepthDuration/v2_depth_duration_MTurk/v2_DepthDuration_HTML.html#468,468,1366,768,1366,768,8-29-2022,8-41-13,88,depth_duration_stimuli/000927_2014-06-09_16-32-30_260595134347_rgbf000123-resize_3/000927_2014-06-09_16-32-30_260595134347_rgbf000123-resize_3-target.png,1000,2.6785,5,7874,1001,feet,jsons/v1_VE1000_randls_55.json,867866,1061209,25,Woman
88,557139,DepthScenes,duration_manipulation_targetAtFixation,jsons/v1_VE1000_randls_55.json,http://54.235.29.9/FacialAge/BNav_EC2/DepthDuration/v2_depth_duration_MTurk/v2_DepthDuration_HTML.html#468,468,1366,768,1366,768,8-29-2022,8-41-13,89,depth_duration_stimuli/000739_2014-06-08_18-45-58_260595134347_rgbf000068-resize_1/000739_2014-06-08_18-45-58_260595134347_rgbf000068-resize_1-target.png,1000,3.534,8,3321,999,feet,jsons/v1_VE1000_randls_55.json,867866,1061209,25,Woman
89,557139,DepthScenes,duration_manipulation_targetAtFixation,jsons/v1_VE1000_randls_55.json,http://54.235.29.9/FacialAge/BNav_EC2/DepthDuration/v2_depth_duration_MTurk/v2_DepthDuration_HTML.html#468,468,1366,768,1366,768,8-29-2022,8-41-13,90,depth_duration_stimuli/000734_2014-06-08_17-39-11_260595134347_rgbf000128-resize_2/000734_2014-06-08_17-39-11_260595134347_rgbf000128-resize_2-target.png,1000,4.098,8,2712,996,feet,jsons/v1_VE1000_randls_55.json,867866,1061209,25,Woman
90,557139,DepthScenes,duration_manipulation_targetAtFixation,jsons/v1_VE1000_randls_55.json,http://54.235.29.9/FacialAge/BNav_EC2/DepthDuration/v2_depth_duration_MTurk/v2_DepthDuration_HTML.html#468,468,1366,768,1366,768,8-29-2022,8-41-13,91,depth_duration_stimuli/001092_2014-06-15_17-34-58_260595134347_rgbf000171-resize_3/001092_2014-06-15_17-34-58_260595134347_rgbf000171-resize_3-target.png,1000,2.6935,6,2548,998,feet,jsons/v1_VE1000_randls_55.json,867866,1061209,25,Woman
91,557139,DepthScenes,duration_manipulation_targetAtFixation,jsons/v1_VE1000_randls_55.json,http://54.235.29.9/FacialAge/BNav_EC2/DepthDuration/v2_depth_duration_MTurk/v2_DepthDuration_HTML.html#468,468,1366,768,1366,768,8-29-2022,8-41-13,92,depth_duration_stimuli/002545_2014-06-24_13-38-53_094959634447_rgbf000080-resize_4/002545_2014-06-24_13-38-53_094959634447_rgbf000080-resize_4-target.png,1000,1.9205,7,3035,1005,feet,jsons/v1_VE1000_randls_55.json,867866,1061209,25,Woman
92,557139,DepthScenes,duration_manipulation_targetAtFixation,jsons/v1_VE1000_randls_55.json,http://54.235.29.9/FacialAge/BNav_EC2/DepthDuration/v2_depth_duration_MTurk/v2_DepthDuration_HTML.html#468,468,1366,768,1366,768,8-29-2022,8-41-13,93,depth_duration_stimuli/001449_2014-06-19_17-01-27_260595134347_rgbf000116-resize_2/001449_2014-06-19_17-01-27_260595134347_rgbf000116-resize_2-target.png,1000,3.452,8,3080,1001,feet,jsons/v1_VE1000_randls_55.json,867866,1061209,25,Woman
93,557139,DepthScenes,duration_manipulation_targetAtFixation,jsons/v1_VE1000_randls_55.json,http://54.235.29.9/FacialAge/BNav_EC2/DepthDuration/v2_depth_duration_MTurk/v2_DepthDuration_HTML.html#468,468,1366,768,1366,768,8-29-2022,8-41-13,94,depth_duration_stimuli/001450_2014-06-19_17-02-03_260595134347_rgbf000203-resize_4/001450_2014-06-19_17-02-03_260595134347_rgbf000203-resize_4-target.png,1000,4.0106666666667,8,2954,991,feet,jsons/v1_VE1000_randls_55.json,867866,1061209,25,Woman
94,557139,DepthScenes,duration_manipulation_targetAtFixation,jsons/v1_VE1000_randls_55.json,http://54.235.29.9/FacialAge/BNav_EC2/DepthDuration/v2_depth_duration_MTurk/v2_DepthDuration_HTML.html#468,468,1366,768,1366,768,8-29-2022,8-41-13,95,depth_duration_stimuli/001150_2014-06-17_15-27-34_260595134347_rgbf000108-resize_2/001150_2014-06-17_15-27-34_260595134347_rgbf000108-resize_2-target.png,1000,4.0325,8,2674,1007,feet,jsons/v1_VE1000_randls_55.json,867866,1061209,25,Woman
95,557139,DepthScenes,duration_manipulation_targetAtFixation,jsons/v1_VE1000_randls_55.json,http://54.235.29.9/FacialAge/BNav_EC2/DepthDuration/v2_depth_duration_MTurk/v2_DepthDuration_HTML.html#468,468,1366,768,1366,768,8-29-2022,8-41-13,96,depth_duration_stimuli/000665_2014-06-09_20-42-35_260595134347_rgbf000110-resize_1/000665_2014-06-09_20-42-35_260595134347_rgbf000110-resize_1-target.png,1000,3.057,5,2572,998,feet,jsons/v1_VE1000_randls_55.json,867866,1061209,25,Woman
96,557139,DepthScenes,duration_manipulation_targetAtFixation,jsons/v1_VE1000_randls_55.json,http://54.235.29.9/FacialAge/BNav_EC2/DepthDuration/v2_depth_duration_MTurk/v2_DepthDuration_HTML.html#468,468,1366,768,1366,768,8-29-2022,8-41-13,97,depth_duration_stimuli/000906_2014-06-08_13-35-43_260595134347_rgbf000155-resize_1/000906_2014-06-08_13-35-43_260595134347_rgbf000155-resize_1-target.png,1000,2.8489999999999998,7,2603,1000,feet,jsons/v1_VE1000_randls_55.json,867866,1061209,25,Woman
97,557139,DepthScenes,duration_manipulation_targetAtFixation,jsons/v1_VE1000_randls_55.json,http://54.235.29.9/FacialAge/BNav_EC2/DepthDuration/v2_depth_duration_MTurk/v2_DepthDuration_HTML.html#468,468,1366,768,1366,768,8-29-2022,8-41-13,98,depth_duration_stimuli/002805_2014-06-22_19-54-03_094959634447_rgbf000079-resize_1/002805_2014-06-22_19-54-03_094959634447_rgbf000079-resize_1-target.png,1000,3.1439999999999997,7,4057,981,feet,jsons/v1_VE1000_randls_55.json,867866,1061209,25,Woman
98,557139,DepthScenes,duration_manipulation_targetAtFixation,jsons/v1_VE1000_randls_55.json,http://54.235.29.9/FacialAge/BNav_EC2/DepthDuration/v2_depth_duration_MTurk/v2_DepthDuration_HTML.html#468,468,1366,768,1366,768,8-29-2022,8-41-13,99,depth_duration_stimuli/001540_2014-06-20_17-01-05_260595134347_rgbf000086-resize_2/001540_2014-06-20_17-01-05_260595134347_rgbf000086-resize-original.jpg,1000,1.459,0,3697,999,feet,jsons/v1_VE1000_randls_55.json,867866,1061209,25,Woman
99,557139,DepthScenes,duration_manipulation_targetAtFixation,jsons/v1_VE1000_randls_55.json,http://54.235.29.9/FacialAge/BNav_EC2/DepthDuration/v2_depth_duration_MTurk/v2_DepthDuration_HTML.html#468,468,1366,768,1366,768,8-29-2022,8-41-13,100,depth_duration_stimuli/000469_2014-06-09_19-42-10_260595134347_rgbf000081-resize_1/000469_2014-06-09_19-42-10_260595134347_rgbf000081-resize_1-target.png,1000,1.652,5,3732,1007,feet,jsons/v1_VE1000_randls_55.json,867866,1061209,25,Woman
100,557139,DepthScenes,duration_manipulation_targetAtFixation,jsons/v1_VE1000_randls_55.json,http://54.235.29.9/FacialAge/BNav_EC2/DepthDuration/v2_depth_duration_MTurk/v2_DepthDuration_HTML.html#468,468,1366,768,1366,768,8-29-2022,8-41-13,101,depth_duration_stimuli/000483_2014-06-09_20-41-45_260595134347_rgbf000116-resize_4/000483_2014-06-09_20-41-45_260595134347_rgbf000116-resize_4-target.png,1000,1.337,4,2800,994,feet,jsons/v1_VE1000_randls_55.json,867866,1061209,25,Woman
101,557139,DepthScenes,duration_manipulation_targetAtFixation,jsons/v1_VE1000_randls_55.json,http://54.235.29.9/FacialAge/BNav_EC2/DepthDuration/v2_depth_duration_MTurk/v2_DepthDuration_HTML.html#468,468,1366,768,1366,768,8-29-2022,8-41-13,102,depth_duration_stimuli/002118_2014-06-25_20-32-08_260595134347_rgbf000078-resize_1/002118_2014-06-25_20-32-08_260595134347_rgbf000078-resize_1-target.png,1000,2.6460000000000004,5,2473,999,feet,jsons/v1_VE1000_randls_55.json,867866,1061209,25,Woman
102,557139,DepthScenes,duration_manipulation_targetAtFixation,jsons/v1_VE1000_randls_55.json,http://54.235.29.9/FacialAge/BNav_EC2/DepthDuration/v2_depth_duration_MTurk/v2_DepthDuration_HTML.html#468,468,1366,768,1366,768,8-29-2022,8-41-13,103,depth_duration_stimuli/001516_2014-06-20_16-25-09_260595134347_rgbf000076-resize_2/001516_2014-06-20_16-25-09_260595134347_rgbf000076-resize_2-target.png,1000,1.7445,8,2575,1013,feet,jsons/v1_VE1000_randls_55.json,867866,1061209,25,Woman
103,557139,DepthScenes,duration_manipulation_targetAtFixation,jsons/v1_VE1000_randls_55.json,http://54.235.29.9/FacialAge/BNav_EC2/DepthDuration/v2_depth_duration_MTurk/v2_DepthDuration_HTML.html#468,468,1366,768,1366,768,8-29-2022,8-41-13,104,depth_duration_stimuli/000773_2014-06-08_22-24-54_260595134347_rgbf000093-resize_1/000773_2014-06-08_22-24-54_260595134347_rgbf000093-resize_1-target.png,1000,4.973,8,3036,984,feet,jsons/v1_VE1000_randls_55.json,867866,1061209,25,Woman
104,557139,DepthScenes,duration_manipulation_targetAtFixation,jsons/v1_VE1000_randls_55.json,http://54.235.29.9/FacialAge/BNav_EC2/DepthDuration/v2_depth_duration_MTurk/v2_DepthDuration_HTML.html#468,468,1366,768,1366,768,8-29-2022,8-41-13,105,depth_duration_stimuli/002414_2014-06-28_20-24-58_260595134347_rgbf000067-resize_4/002414_2014-06-28_20-24-58_260595134347_rgbf000067-resize_4-target.png,1000,4.363,8,3448,990,feet,jsons/v1_VE1000_randls_55.json,867866,1061209,25,Woman
105,557139,DepthScenes,duration_manipulation_targetAtFixation,jsons/v1_VE1000_randls_55.json,http://54.235.29.9/FacialAge/BNav_EC2/DepthDuration/v2_depth_duration_MTurk/v2_DepthDuration_HTML.html#468,468,1366,768,1366,768,8-29-2022,8-41-13,106,depth_duration_stimuli/002725_2014-06-22_11-47-51_094959634447_rgbf000070-resize_1/002725_2014-06-22_11-47-51_094959634447_rgbf000070-resize_1-target.png,1000,2.195,6,83689,1003,feet,jsons/v1_VE1000_randls_55.json,867866,1061209,25,Woman
106,557139,DepthScenes,duration_manipulation_targetAtFixation,jsons/v1_VE1000_randls_55.json,http://54.235.29.9/FacialAge/BNav_EC2/DepthDuration/v2_depth_duration_MTurk/v2_DepthDuration_HTML.html#468,468,1366,768,1366,768,8-29-2022,8-41-13,107,depth_duration_stimuli/002344_2014-06-28_20-06-29_260595134347_rgbf000030-resize_1/002344_2014-06-28_20-06-29_260595134347_rgbf000030-resize_1-target.png,1000,1.5795,3,6989,992,feet,jsons/v1_VE1000_randls_55.json,867866,1061209,25,Woman
107,557139,DepthScenes,duration_manipulation_targetAtFixation,jsons/v1_VE1000_randls_55.json,http://54.235.29.9/FacialAge/BNav_EC2/DepthDuration/v2_depth_duration_MTurk/v2_DepthDuration_HTML.html#468,468,1366,768,1366,768,8-29-2022,8-41-13,108,depth_duration_stimuli/000470_2014-06-09_19-42-40_260595134347_rgbf000094-resize_1/000470_2014-06-09_19-42-40_260595134347_rgbf000094-resize_1-target.png,1000,1.831,5,5074,1009,feet,jsons/v1_VE1000_randls_55.json,867866,1061209,25,Woman
108,557139,DepthScenes,duration_manipulation_targetAtFixation,jsons/v1_VE1000_randls_55.json,http://54.235.29.9/FacialAge/BNav_EC2/DepthDuration/v2_depth_duration_MTurk/v2_DepthDuration_HTML.html#468,468,1366,768,1366,768,8-29-2022,8-41-13,109,depth_duration_stimuli/000109_2014-05-14_23-41-52_260595134347_rgbf000035-resize_9/000109_2014-05-14_23-41-52_260595134347_rgbf000035-resize_9-target.png,1000,1.3545,4,3192,996,feet,jsons/v1_VE1000_randls_55.json,867866,1061209,25,Woman
109,557139,DepthScenes,duration_manipulation_targetAtFixation,jsons/v1_VE1000_randls_55.json,http://54.235.29.9/FacialAge/BNav_EC2/DepthDuration/v2_depth_duration_MTurk/v2_DepthDuration_HTML.html#468,468,1366,768,1366,768,8-29-2022,8-41-13,110,depth_duration_stimuli/002570_2014-06-24_13-59-54_094959634447_rgbf000059-resize_0/002570_2014-06-24_13-59-54_094959634447_rgbf000059-resize_0-target.png,1000,4.037,7,2635,996,feet,jsons/v1_VE1000_randls_55.json,867866,1061209,25,Woman
110,557139,DepthScenes,duration_manipulation_targetAtFixation,jsons/v1_VE1000_randls_55.json,http://54.235.29.9/FacialAge/BNav_EC2/DepthDuration/v2_depth_duration_MTurk/v2_DepthDuration_HTML.html#468,468,1366,768,1366,768,8-29-2022,8-41-13,111,depth_duration_stimuli/002467_2014-06-28_20-38-07_260595134347_rgbf000026-resize_2/002467_2014-06-28_20-38-07_260595134347_rgbf000026-resize_2-target.png,1000,4.742,8,2560,1003,feet,jsons/v1_VE1000_randls_55.json,867866,1061209,25,Woman
111,557139,DepthScenes,duration_manipulation_targetAtFixation,jsons/v1_VE1000_randls_55.json,http://54.235.29.9/FacialAge/BNav_EC2/DepthDuration/v2_depth_duration_MTurk/v2_DepthDuration_HTML.html#468,468,1366,768,1366,768,8-29-2022,8-41-13,112,depth_duration_stimuli/002784_2014-06-22_19-26-30_094959634447_rgbf000083-resize_3/002784_2014-06-22_19-26-30_094959634447_rgbf000083-resize_3-target.png,1000,1.8046666666667,3,2469,1005,feet,jsons/v1_VE1000_randls_55.json,867866,1061209,25,Woman
112,557139,DepthScenes,duration_manipulation_targetAtFixation,jsons/v1_VE1000_randls_55.json,http://54.235.29.9/FacialAge/BNav_EC2/DepthDuration/v2_depth_duration_MTurk/v2_DepthDuration_HTML.html#468,468,1366,768,1366,768,8-29-2022,8-41-13,113,depth_duration_stimuli/001100_2014-06-15_17-46-26_260595134347_rgbf000225-resize_2/001100_2014-06-15_17-46-26_260595134347_rgbf000225-resize_2-target.png,1000,2.24,5,2628,999,feet,jsons/v1_VE1000_randls_55.json,867866,1061209,25,Woman
113,557139,DepthScenes,duration_manipulation_targetAtFixation,jsons/v1_VE1000_randls_55.json,http://54.235.29.9/FacialAge/BNav_EC2/DepthDuration/v2_depth_duration_MTurk/v2_DepthDuration_HTML.html#468,468,1366,768,1366,768,8-29-2022,8-41-13,114,depth_duration_stimuli/000368_2014-06-09_15-53-01_260595134347_rgbf000155-resize_2/000368_2014-06-09_15-53-01_260595134347_rgbf000155-resize_2-target.png,1000,2.4859999999999998,5,2891,990,feet,jsons/v1_VE1000_randls_55.json,867866,1061209,25,Woman
114,557139,DepthScenes,duration_manipulation_targetAtFixation,jsons/v1_VE1000_randls_55.json,http://54.235.29.9/FacialAge/BNav_EC2/DepthDuration/v2_depth_duration_MTurk/v2_DepthDuration_HTML.html#468,468,1366,768,1366,768,8-29-2022,8-41-13,115,depth_duration_stimuli/002678_2014-06-13_16-15-32_094959634447_rgbf000151-resize_6/002678_2014-06-13_16-15-32_094959634447_rgbf000151-resize_6-target.png,1000,2.1830000000000003,8,2596,1015,feet,jsons/v1_VE1000_randls_55.json,867866,1061209,25,Woman
115,557139,DepthScenes,duration_manipulation_targetAtFixation,jsons/v1_VE1000_randls_55.json,http://54.235.29.9/FacialAge/BNav_EC2/DepthDuration/v2_depth_duration_MTurk/v2_DepthDuration_HTML.html#468,468,1366,768,1366,768,8-29-2022,8-41-13,116,depth_duration_stimuli/001170_2014-06-17_15-43-44_260595134347_rgbf000096-resize_6/001170_2014-06-17_15-43-44_260595134347_rgbf000096-resize-original.jpg,1000,1.1909999999999998,0,2434,999,feet,jsons/v1_VE1000_randls_55.json,867866,1061209,25,Woman
116,557139,DepthScenes,duration_manipulation_targetAtFixation,jsons/v1_VE1000_randls_55.json,http://54.235.29.9/FacialAge/BNav_EC2/DepthDuration/v2_depth_duration_MTurk/v2_DepthDuration_HTML.html#468,468,1366,768,1366,768,8-29-2022,8-41-13,117,depth_duration_stimuli/002039_2014-06-24_20-22-38_260595134347_rgbf000084-resize_1/002039_2014-06-24_20-22-38_260595134347_rgbf000084-resize_1-target.png,1000,4.408,7,2741,1003,feet,jsons/v1_VE1000_randls_55.json,867866,1061209,25,Woman
117,557139,DepthScenes,duration_manipulation_targetAtFixation,jsons/v1_VE1000_randls_55.json,http://54.235.29.9/FacialAge/BNav_EC2/DepthDuration/v2_depth_duration_MTurk/v2_DepthDuration_HTML.html#468,468,1366,768,1366,768,8-29-2022,8-41-13,118,depth_duration_stimuli/002103_2014-06-25_20-00-40_260595134347_rgbf000049-resize_0/002103_2014-06-25_20-00-40_260595134347_rgbf000049-resize_0-target.png,1000,4.105,8,2475,1004,feet,jsons/v1_VE1000_randls_55.json,867866,1061209,25,Woman
118,557139,DepthScenes,duration_manipulation_targetAtFixation,jsons/v1_VE1000_randls_55.json,http://54.235.29.9/FacialAge/BNav_EC2/DepthDuration/v2_depth_duration_MTurk/v2_DepthDuration_HTML.html#468,468,1366,768,1366,768,8-29-2022,8-41-13,119,depth_duration_stimuli/000788_2014-06-08_22-34-36_260595134347_rgbf000131-resize_1/000788_2014-06-08_22-34-36_260595134347_rgbf000131-resize_1-target.png,1000,3.359,7,3053,995,feet,jsons/v1_VE1000_randls_55.json,867866,1061209,25,Woman
119,557139,DepthScenes,duration_manipulation_targetAtFixation,jsons/v1_VE1000_randls_55.json,http://54.235.29.9/FacialAge/BNav_EC2/DepthDuration/v2_depth_duration_MTurk/v2_DepthDuration_HTML.html#468,468,1366,768,1366,768,8-29-2022,8-41-13,120,depth_duration_stimuli/001235_2014-06-17_16-37-36_260595134347_rgbf000084-resize_4/001235_2014-06-17_16-37-36_260595134347_rgbf000084-resize_4-target.png,1000,3.6605,8,2791,1000,feet,jsons/v1_VE1000_randls_55.json,867866,1061209,25,Woman
120,557139,DepthScenes,duration_manipulation_targetAtFixation,jsons/v1_VE1000_randls_55.json,http://54.235.29.9/FacialAge/BNav_EC2/DepthDuration/v2_depth_duration_MTurk/v2_DepthDuration_HTML.html#468,468,1366,768,1366,768,8-29-2022,8-41-13,121,depth_duration_stimuli/000506_2014-06-08_23-21-00_260595134347_rgbf000070-resize_7/000506_2014-06-08_23-21-00_260595134347_rgbf000070-resize_7-target.png,1000,4.0585,6,3250,1002,feet,jsons/v1_VE1000_randls_55.json,867866,1061209,25,Woman
121,557139,DepthScenes,duration_manipulation_targetAtFixation,jsons/v1_VE1000_randls_55.json,http://54.235.29.9/FacialAge/BNav_EC2/DepthDuration/v2_depth_duration_MTurk/v2_DepthDuration_HTML.html#468,468,1366,768,1366,768,8-29-2022,8-41-13,122,depth_duration_stimuli/003079_2014-06-15_15-18-20_094959634447_rgbf000152-resize_8/003079_2014-06-15_15-18-20_094959634447_rgbf000152-resize_8-target.png,1000,2.8775,8,3811,999,feet,jsons/v1_VE1000_randls_55.json,867866,1061209,25,Woman
122,557139,DepthScenes,duration_manipulation_targetAtFixation,jsons/v1_VE1000_randls_55.json,http://54.235.29.9/FacialAge/BNav_EC2/DepthDuration/v2_depth_duration_MTurk/v2_DepthDuration_HTML.html#468,468,1366,768,1366,768,8-29-2022,8-41-13,123,depth_duration_stimuli/002153_2014-06-25_21-27-18_260595134347_rgbf000038-resize_5/002153_2014-06-25_21-27-18_260595134347_rgbf000038-resize_5-target.png,1000,2.505,5,4895,997,feet,jsons/v1_VE1000_randls_55.json,867866,1061209,25,Woman
123,557139,DepthScenes,duration_manipulation_targetAtFixation,jsons/v1_VE1000_randls_55.json,http://54.235.29.9/FacialAge/BNav_EC2/DepthDuration/v2_depth_duration_MTurk/v2_DepthDuration_HTML.html#468,468,1366,768,1366,768,8-29-2022,8-41-13,124,depth_duration_stimuli/002660_2014-06-13_15-44-18_094959634447_rgbf001878-resize_2/002660_2014-06-13_15-44-18_094959634447_rgbf001878-resize_2-target.png,1000,3.576,5,2586,1006,feet,jsons/v1_VE1000_randls_55.json,867866,1061209,25,Woman
124,557139,DepthScenes,duration_manipulation_targetAtFixation,jsons/v1_VE1000_randls_55.json,http://54.235.29.9/FacialAge/BNav_EC2/DepthDuration/v2_depth_duration_MTurk/v2_DepthDuration_HTML.html#468,468,1366,768,1366,768,8-29-2022,8-41-13,125,depth_duration_stimuli/000642_2014-06-08_16-59-25_260595134347_rgbf000098-resize_2/000642_2014-06-08_16-59-25_260595134347_rgbf000098-resize_2-target.png,1000,2.8815,4,5019,1009,feet,jsons/v1_VE1000_randls_55.json,867866,1061209,25,Woman
125,557139,DepthScenes,duration_manipulation_targetAtFixation,jsons/v1_VE1000_randls_55.json,http://54.235.29.9/FacialAge/BNav_EC2/DepthDuration/v2_depth_duration_MTurk/v2_DepthDuration_HTML.html#468,468,1366,768,1366,768,8-29-2022,8-41-13,126,depth_duration_stimuli/002425_2014-06-28_20-27-29_260595134347_rgbf000031-resize_8/002425_2014-06-28_20-27-29_260595134347_rgbf000031-resize_8-target.png,1000,3.8960000000000004,8,2579,1006,feet,jsons/v1_VE1000_randls_55.json,867866,1061209,25,Woman
126,557139,DepthScenes,duration_manipulation_targetAtFixation,jsons/v1_VE1000_randls_55.json,http://54.235.29.9/FacialAge/BNav_EC2/DepthDuration/v2_depth_duration_MTurk/v2_DepthDuration_HTML.html#468,468,1366,768,1366,768,8-29-2022,8-41-13,127,depth_duration_stimuli/001806_2014-06-26_20-50-20_260595134347_rgbf000091-resize_1/001806_2014-06-26_20-50-20_260595134347_rgbf000091-resize_1-target.png,1000,2.7305,5,2451,991,feet,jsons/v1_VE1000_randls_55.json,867866,1061209,25,Woman
127,557139,DepthScenes,duration_manipulation_targetAtFixation,jsons/v1_VE1000_randls_55.json,http://54.235.29.9/FacialAge/BNav_EC2/DepthDuration/v2_depth_duration_MTurk/v2_DepthDuration_HTML.html#468,468,1366,768,1366,768,8-29-2022,8-41-13,128,depth_duration_stimuli/001617_2014-06-20_11-35-32_260595134347_rgbf000066-resize_1/001617_2014-06-20_11-35-32_260595134347_rgbf000066-resize_1-target.png,1000,3.7910000000000004,7,2939,991,feet,jsons/v1_VE1000_randls_55.json,867866,1061209,25,Woman
128,557139,DepthScenes,duration_manipulation_targetAtFixation,jsons/v1_VE1000_randls_55.json,http://54.235.29.9/FacialAge/BNav_EC2/DepthDuration/v2_depth_duration_MTurk/v2_DepthDuration_HTML.html#468,468,1366,768,1366,768,8-29-2022,8-41-13,129,depth_duration_stimuli/001810_2014-06-26_20-51-35_260595134347_rgbf000040-resize_3/001810_2014-06-26_20-51-35_260595134347_rgbf000040-resize_3-target.png,1000,2.2525,5,9947,1001,feet,jsons/v1_VE1000_randls_55.json,867866,1061209,25,Woman
129,557139,DepthScenes,duration_manipulation_targetAtFixation,jsons/v1_VE1000_randls_55.json,http://54.235.29.9/FacialAge/BNav_EC2/DepthDuration/v2_depth_duration_MTurk/v2_DepthDuration_HTML.html#468,468,1366,768,1366,768,8-29-2022,8-41-13,130,depth_duration_stimuli/003010_2014-06-15_12-54-35_094959634447_rgbf000112-resize_0/003010_2014-06-15_12-54-35_094959634447_rgbf000112-resize_0-target.png,1000,3.1185,8,3128,1006,feet,jsons/v1_VE1000_randls_55.json,867866,1061209,25,Woman
130,557139,DepthScenes,duration_manipulation_targetAtFixation,jsons/v1_VE1000_randls_55.json,http://54.235.29.9/FacialAge/BNav_EC2/DepthDuration/v2_depth_duration_MTurk/v2_DepthDuration_HTML.html#468,468,1366,768,1366,768,8-29-2022,8-41-13,131,depth_duration_stimuli/000878_2014-06-08_22-52-45_260595134347_rgbf000045-resize_2/000878_2014-06-08_22-52-45_260595134347_rgbf000045-resize_2-target.png,1000,2.092,8,2883,1000,feet,jsons/v1_VE1000_randls_55.json,867866,1061209,25,Woman
131,557139,DepthScenes,duration_manipulation_targetAtFixation,jsons/v1_VE1000_randls_55.json,http://54.235.29.9/FacialAge/BNav_EC2/DepthDuration/v2_depth_duration_MTurk/v2_DepthDuration_HTML.html#468,468,1366,768,1366,768,8-29-2022,8-41-13,132,depth_duration_stimuli/002953_2014-06-08_17-32-18_094959634447_rgbf000059-resize_5/002953_2014-06-08_17-32-18_094959634447_rgbf000059-resize_5-target.png,1000,1.551,3,3003,999,feet,jsons/v1_VE1000_randls_55.json,867866,1061209,25,Woman
132,557139,DepthScenes,duration_manipulation_targetAtFixation,jsons/v1_VE1000_randls_55.json,http://54.235.29.9/FacialAge/BNav_EC2/DepthDuration/v2_depth_duration_MTurk/v2_DepthDuration_HTML.html#468,468,1366,768,1366,768,8-29-2022,8-41-13,133,depth_duration_stimuli/001011_2014-06-08_23-18-54_260595134347_rgbf000044-resize_4/001011_2014-06-08_23-18-54_260595134347_rgbf000044-resize_4-target.png,1000,2.4730000000000003,7,2418,999,feet,jsons/v1_VE1000_randls_55.json,867866,1061209,25,Woman
133,557139,DepthScenes,duration_manipulation_targetAtFixation,jsons/v1_VE1000_randls_55.json,http://54.235.29.9/FacialAge/BNav_EC2/DepthDuration/v2_depth_duration_MTurk/v2_DepthDuration_HTML.html#468,468,1366,768,1366,768,8-29-2022,8-41-13,134,depth_duration_stimuli/002875_2014-06-01_15-19-00_094959634447_rgbf000151-resize_1/002875_2014-06-01_15-19-00_094959634447_rgbf000151-resize_1-target.png,1000,1.9675,8,2887,996,feet,jsons/v1_VE1000_randls_55.json,867866,1061209,25,Woman
134,557139,DepthScenes,duration_manipulation_targetAtFixation,jsons/v1_VE1000_randls_55.json,http://54.235.29.9/FacialAge/BNav_EC2/DepthDuration/v2_depth_duration_MTurk/v2_DepthDuration_HTML.html#468,468,1366,768,1366,768,8-29-2022,8-41-13,135,depth_duration_stimuli/002072_2014-06-24_21-48-06_260595134347_rgbf000115-resize_0/002072_2014-06-24_21-48-06_260595134347_rgbf000115-resize-original.jpg,1000,4.702,0,2605,994,feet,jsons/v1_VE1000_randls_55.json,867866,1061209,25,Woman
135,557139,DepthScenes,duration_manipulation_targetAtFixation,jsons/v1_VE1000_randls_55.json,http://54.235.29.9/FacialAge/BNav_EC2/DepthDuration/v2_depth_duration_MTurk/v2_DepthDuration_HTML.html#468,468,1366,768,1366,768,8-29-2022,8-41-13,136,depth_duration_stimuli/002213_2014-06-28_18-37-58_260595134347_rgbf000055-resize_1/002213_2014-06-28_18-37-58_260595134347_rgbf000055-resize_1-target.png,1000,3.62,7,2769,999,feet,jsons/v1_VE1000_randls_55.json,867866,1061209,25,Woman
136,557139,DepthScenes,duration_manipulation_targetAtFixation,jsons/v1_VE1000_randls_55.json,http://54.235.29.9/FacialAge/BNav_EC2/DepthDuration/v2_depth_duration_MTurk/v2_DepthDuration_HTML.html#468,468,1366,768,1366,768,8-29-2022,8-41-13,137,depth_duration_stimuli/000691_2014-06-08_13-08-50_260595134347_rgbf000132-resize_3/000691_2014-06-08_13-08-50_260595134347_rgbf000132-resize_3-target.png,1000,4.1530000000000005,5,2922,1000,feet,jsons/v1_VE1000_randls_55.json,867866,1061209,25,Woman
137,557139,DepthScenes,duration_manipulation_targetAtFixation,jsons/v1_VE1000_randls_55.json,http://54.235.29.9/FacialAge/BNav_EC2/DepthDuration/v2_depth_duration_MTurk/v2_DepthDuration_HTML.html#468,468,1366,768,1366,768,8-29-2022,8-41-13,138,depth_duration_stimuli/000929_2014-06-09_16-33-19_260595134347_rgbf000139-resize_0/000929_2014-06-09_16-33-19_260595134347_rgbf000139-resize_0-target.png,1000,2.8680000000000003,5,2843,999,feet,jsons/v1_VE1000_randls_55.json,867866,1061209,25,Woman
138,557139,DepthScenes,duration_manipulation_targetAtFixation,jsons/v1_VE1000_randls_55.json,http://54.235.29.9/FacialAge/BNav_EC2/DepthDuration/v2_depth_duration_MTurk/v2_DepthDuration_HTML.html#468,468,1366,768,1366,768,8-29-2022,8-41-13,139,depth_duration_stimuli/000457_2014-06-08_16-52-43_260595134347_rgbf000199-resize_1/000457_2014-06-08_16-52-43_260595134347_rgbf000199-resize_1-target.png,1000,3.6489999999999996,7,3055,1000,feet,jsons/v1_VE1000_randls_55.json,867866,1061209,25,Woman
139,557139,DepthScenes,duration_manipulation_targetAtFixation,jsons/v1_VE1000_randls_55.json,http://54.235.29.9/FacialAge/BNav_EC2/DepthDuration/v2_depth_duration_MTurk/v2_DepthDuration_HTML.html#468,468,1366,768,1366,768,8-29-2022,8-41-13,140,depth_duration_stimuli/001158_2014-06-17_15-32-16_260595134347_rgbf000138-resize_2/001158_2014-06-17_15-32-16_260595134347_rgbf000138-resize_2-target.png,1000,4.5315,7,3394,1003,feet,jsons/v1_VE1000_randls_55.json,867866,1061209,25,Woman
140,557139,DepthScenes,duration_manipulation_targetAtFixation,jsons/v1_VE1000_randls_55.json,http://54.235.29.9/FacialAge/BNav_EC2/DepthDuration/v2_depth_duration_MTurk/v2_DepthDuration_HTML.html#468,468,1366,768,1366,768,8-29-2022,8-41-13,141,depth_duration_stimuli/000556_2014-06-09_22-42-56_260595134347_rgbf000214-resize_1/000556_2014-06-09_22-42-56_260595134347_rgbf000214-resize_1-target.png,1000,4.8415,8,2918,1000,feet,jsons/v1_VE1000_randls_55.json,867866,1061209,25,Woman
141,557139,DepthScenes,duration_manipulation_targetAtFixation,jsons/v1_VE1000_randls_55.json,http://54.235.29.9/FacialAge/BNav_EC2/DepthDuration/v2_depth_duration_MTurk/v2_DepthDuration_HTML.html#468,468,1366,768,1366,768,8-29-2022,8-41-13,142,depth_duration_stimuli/003621_2014-05-23_18-06-08_094959634447_rgbf000101-resize_1/003621_2014-05-23_18-06-08_094959634447_rgbf000101-resize_1-target.png,1000,3.9835,8,2576,1005,feet,jsons/v1_VE1000_randls_55.json,867866,1061209,25,Woman
142,557139,DepthScenes,duration_manipulation_targetAtFixation,jsons/v1_VE1000_randls_55.json,http://54.235.29.9/FacialAge/BNav_EC2/DepthDuration/v2_depth_duration_MTurk/v2_DepthDuration_HTML.html#468,468,1366,768,1366,768,8-29-2022,8-41-13,143,depth_duration_stimuli/001584_2014-06-20_11-07-43_260595134347_rgbf000002-resize_1/001584_2014-06-20_11-07-43_260595134347_rgbf000002-resize_1-target.png,1000,3.53,8,2780,993,feet,jsons/v1_VE1000_randls_55.json,867866,1061209,25,Woman
143,557139,DepthScenes,duration_manipulation_targetAtFixation,jsons/v1_VE1000_randls_55.json,http://54.235.29.9/FacialAge/BNav_EC2/DepthDuration/v2_depth_duration_MTurk/v2_DepthDuration_HTML.html#468,468,1366,768,1366,768,8-29-2022,8-41-13,144,depth_duration_stimuli/002988_2014-06-15_12-24-20_094959634447_rgbf000150-resize_1/002988_2014-06-15_12-24-20_094959634447_rgbf000150-resize_1-target.png,1000,4.7669999999999995,9,2959,995,feet,jsons/v1_VE1000_randls_55.json,867866,1061209,25,Woman
144,557139,DepthScenes,duration_manipulation_targetAtFixation,jsons/v1_VE1000_randls_55.json,http://54.235.29.9/FacialAge/BNav_EC2/DepthDuration/v2_depth_duration_MTurk/v2_DepthDuration_HTML.html#468,468,1366,768,1366,768,8-29-2022,8-41-13,145,depth_duration_stimuli/001052_2014-06-08_18-24-54_260595134347_rgbf000130-resize_1/001052_2014-06-08_18-24-54_260595134347_rgbf000130-resize_1-target.png,1000,4.1045,9,2868,1000,feet,jsons/v1_VE1000_randls_55.json,867866,1061209,25,Woman
145,557139,DepthScenes,duration_manipulation_targetAtFixation,jsons/v1_VE1000_randls_55.json,http://54.235.29.9/FacialAge/BNav_EC2/DepthDuration/v2_depth_duration_MTurk/v2_DepthDuration_HTML.html#468,468,1366,768,1366,768,8-29-2022,8-41-13,146,depth_duration_stimuli/001498_2014-06-19_17-45-14_260595134347_rgbf000129-resize_4/001498_2014-06-19_17-45-14_260595134347_rgbf000129-resize-original.jpg,1000,1.4075,0,2754,1004,feet,jsons/v1_VE1000_randls_55.json,867866,1061209,25,Woman
146,557139,DepthScenes,duration_manipulation_targetAtFixation,jsons/v1_VE1000_randls_55.json,http://54.235.29.9/FacialAge/BNav_EC2/DepthDuration/v2_depth_duration_MTurk/v2_DepthDuration_HTML.html#468,468,1366,768,1366,768,8-29-2022,8-41-13,147,depth_duration_stimuli/003070_2014-06-15_14-58-27_094959634447_rgbf000150-resize_3/003070_2014-06-15_14-58-27_094959634447_rgbf000150-resize_3-target.png,1000,2.9415,5,2592,1003,feet,jsons/v1_VE1000_randls_55.json,867866,1061209,25,Woman
147,557139,DepthScenes,duration_manipulation_targetAtFixation,jsons/v1_VE1000_randls_55.json,http://54.235.29.9/FacialAge/BNav_EC2/DepthDuration/v2_depth_duration_MTurk/v2_DepthDuration_HTML.html#468,468,1366,768,1366,768,8-29-2022,8-41-13,148,depth_duration_stimuli/000943_2014-06-09_19-31-07_260595134347_rgbf000128-resize_1/000943_2014-06-09_19-31-07_260595134347_rgbf000128-resize_1-target.png,1000,1.9765,7,2678,996,feet,jsons/v1_VE1000_randls_55.json,867866,1061209,25,Woman
148,557139,DepthScenes,duration_manipulation_targetAtFixation,jsons/v1_VE1000_randls_55.json,http://54.235.29.9/FacialAge/BNav_EC2/DepthDuration/v2_depth_duration_MTurk/v2_DepthDuration_HTML.html#468,468,1366,768,1366,768,8-29-2022,8-41-13,149,depth_duration_stimuli/001056_2014-06-08_18-46-44_260595134347_rgbf000068-resize_0/001056_2014-06-08_18-46-44_260595134347_rgbf000068-resize_0-target.png,1000,2.6625,6,2523,999,feet,jsons/v1_VE1000_randls_55.json,867866,1061209,25,Woman
149,557139,DepthScenes,duration_manipulation_targetAtFixation,jsons/v1_VE1000_randls_55.json,http://54.235.29.9/FacialAge/BNav_EC2/DepthDuration/v2_depth_duration_MTurk/v2_DepthDuration_HTML.html#468,468,1366,768,1366,768,8-29-2022,8-41-13,150,depth_duration_stimuli/002199_2014-06-28_18-33-56_260595134347_rgbf000074-resize_0/002199_2014-06-28_18-33-56_260595134347_rgbf000074-resize_0-target.png,1000,1.996,5,2501,1025,feet,jsons/v1_VE1000_randls_55.json,867866,1061209,25,Woman
150,557139,DepthScenes,duration_manipulation_targetAtFixation,jsons/v1_VE1000_randls_55.json,http://54.235.29.9/FacialAge/BNav_EC2/DepthDuration/v2_depth_duration_MTurk/v2_DepthDuration_HTML.html#468,468,1366,768,1366,768,8-29-2022,8-41-13,151,depth_duration_stimuli/002763_2014-06-22_19-13-10_094959634447_rgbf000075-resize_4/002763_2014-06-22_19-13-10_094959634447_rgbf000075-resize_4-target.png,1000,1.68375,7,2569,1000,feet,jsons/v1_VE1000_randls_55.json,867866,1061209,25,Woman
151,557139,DepthScenes,duration_manipulation_targetAtFixation,jsons/v1_VE1000_randls_55.json,http://54.235.29.9/FacialAge/BNav_EC2/DepthDuration/v2_depth_duration_MTurk/v2_DepthDuration_HTML.html#468,468,1366,768,1366,768,8-29-2022,8-41-13,152,depth_duration_stimuli/002209_2014-06-28_18-36-10_260595134347_rgbf000051-resize_1/002209_2014-06-28_18-36-10_260595134347_rgbf000051-resize_1-target.png,1000,2.057,6,2603,1009,feet,jsons/v1_VE1000_randls_55.json,867866,1061209,25,Woman
152,557139,DepthScenes,duration_manipulation_targetAtFixation,jsons/v1_VE1000_randls_55.json,http://54.235.29.9/FacialAge/BNav_EC2/DepthDuration/v2_depth_duration_MTurk/v2_DepthDuration_HTML.html#468,468,1366,768,1366,768,8-29-2022,8-41-13,153,depth_duration_stimuli/002279_2014-06-28_18-55-32_260595134347_rgbf000040-resize_5/002279_2014-06-28_18-55-32_260595134347_rgbf000040-resize_5-target.png,1000,1.5043333333333,5,2468,996,feet,jsons/v1_VE1000_randls_55.json,867866,1061209,25,Woman
153,557139,DepthScenes,duration_manipulation_targetAtFixation,jsons/v1_VE1000_randls_55.json,http://54.235.29.9/FacialAge/BNav_EC2/DepthDuration/v2_depth_duration_MTurk/v2_DepthDuration_HTML.html#468,468,1366,768,1366,768,8-29-2022,8-41-13,154,depth_duration_stimuli/000635_2014-06-08_16-38-42_260595134347_rgbf000106-resize_1/000635_2014-06-08_16-38-42_260595134347_rgbf000106-resize_1-target.png,1000,2.074,7,2452,991,feet,jsons/v1_VE1000_randls_55.json,867866,1061209,25,Woman
154,557139,DepthScenes,duration_manipulation_targetAtFixation,jsons/v1_VE1000_randls_55.json,http://54.235.29.9/FacialAge/BNav_EC2/DepthDuration/v2_depth_duration_MTurk/v2_DepthDuration_HTML.html#468,468,1366,768,1366,768,8-29-2022,8-41-13,155,depth_duration_stimuli/000522_2014-06-08_13-35-06_260595134347_rgbf000244-resize_1/000522_2014-06-08_13-35-06_260595134347_rgbf000244-resize_1-target.png,1000,2.3715,5,2436,1004,feet,jsons/v1_VE1000_randls_55.json,867866,1061209,25,Woman
155,557139,DepthScenes,duration_manipulation_targetAtFixation,jsons/v1_VE1000_randls_55.json,http://54.235.29.9/FacialAge/BNav_EC2/DepthDuration/v2_depth_duration_MTurk/v2_DepthDuration_HTML.html#468,468,1366,768,1366,768,8-29-2022,8-41-13,156,depth_duration_stimuli/002949_2014-06-26_15-57-42_094959634447_rgbf000079-resize_1/002949_2014-06-26_15-57-42_094959634447_rgbf000079-resize_1-target.png,1000,1.8915,7,2474,992,feet,jsons/v1_VE1000_randls_55.json,867866,1061209,25,Woman
156,557139,DepthScenes,duration_manipulation_targetAtFixation,jsons/v1_VE1000_randls_55.json,http://54.235.29.9/FacialAge/BNav_EC2/DepthDuration/v2_depth_duration_MTurk/v2_DepthDuration_HTML.html#468,468,1366,768,1366,768,8-29-2022,8-41-13,157,depth_duration_stimuli/002989_2014-06-15_12-25-03_094959634447_rgbf000150-resize_3/002989_2014-06-15_12-25-03_094959634447_rgbf000150-resize_3-target.png,1000,4.1975,6,3415,996,feet,jsons/v1_VE1000_randls_55.json,867866,1061209,25,Woman
157,557139,DepthScenes,duration_manipulation_targetAtFixation,jsons/v1_VE1000_randls_55.json,http://54.235.29.9/FacialAge/BNav_EC2/DepthDuration/v2_depth_duration_MTurk/v2_DepthDuration_HTML.html#468,468,1366,768,1366,768,8-29-2022,8-41-13,158,depth_duration_stimuli/000866_2014-06-09_20-45-42_260595134347_rgbf000139-resize_1/000866_2014-06-09_20-45-42_260595134347_rgbf000139-resize_1-target.png,1000,3.2155,8,2617,1009,feet,jsons/v1_VE1000_randls_55.json,867866,1061209,25,Woman
158,557139,DepthScenes,duration_manipulation_targetAtFixation,jsons/v1_VE1000_randls_55.json,http://54.235.29.9/FacialAge/BNav_EC2/DepthDuration/v2_depth_duration_MTurk/v2_DepthDuration_HTML.html#468,468,1366,768,1366,768,8-29-2022,8-41-13,159,depth_duration_stimuli/002905_2014-06-03_18-04-43_094959634447_rgbf000151-resize_2/002905_2014-06-03_18-04-43_094959634447_rgbf000151-resize_2-target.png,1000,2.0295,7,3155,992,feet,jsons/v1_VE1000_randls_55.json,867866,1061209,25,Woman
159,557139,DepthScenes,duration_manipulation_targetAtFixation,jsons/v1_VE1000_randls_55.json,http://54.235.29.9/FacialAge/BNav_EC2/DepthDuration/v2_depth_duration_MTurk/v2_DepthDuration_HTML.html#468,468,1366,768,1366,768,8-29-2022,8-41-13,160,depth_duration_stimuli/003423_2014-05-21_10-23-26_094959634447_rgbf002665-resize_2/003423_2014-05-21_10-23-26_094959634447_rgbf002665-resize_2-target.png,1000,3.2575,6,2803,1007,feet,jsons/v1_VE1000_randls_55.json,867866,1061209,25,Woman
160,557139,DepthScenes,duration_manipulation_targetAtFixation,jsons/v1_VE1000_randls_55.json,http://54.235.29.9/FacialAge/BNav_EC2/DepthDuration/v2_depth_duration_MTurk/v2_DepthDuration_HTML.html#468,468,1366,768,1366,768,8-29-2022,8-41-13,161,depth_duration_stimuli/001059_2014-06-08_21-53-27_260595134347_rgbf000061-resize_4/001059_2014-06-08_21-53-27_260595134347_rgbf000061-resize_4-target.png,1000,2.4185,7,3235,1000,feet,jsons/v1_VE1000_randls_55.json,867866,1061209,25,Woman
161,557139,DepthScenes,duration_manipulation_targetAtFixation,jsons/v1_VE1000_randls_55.json,http://54.235.29.9/FacialAge/BNav_EC2/DepthDuration/v2_depth_duration_MTurk/v2_DepthDuration_HTML.html#468,468,1366,768,1366,768,8-29-2022,8-41-13,162,depth_duration_stimuli/001032_2014-06-08_13-23-17_260595134347_rgbf000021-resize_3/001032_2014-06-08_13-23-17_260595134347_rgbf000021-resize_3-target.png,1000,3.2725,5,2924,992,feet,jsons/v1_VE1000_randls_55.json,867866,1061209,25,Woman
162,557139,DepthScenes,duration_manipulation_targetAtFixation,jsons/v1_VE1000_randls_55.json,http://54.235.29.9/FacialAge/BNav_EC2/DepthDuration/v2_depth_duration_MTurk/v2_DepthDuration_HTML.html#468,468,1366,768,1366,768,8-29-2022,8-41-13,163,depth_duration_stimuli/001029_2014-06-08_13-17-57_260595134347_rgbf000065-resize_1/001029_2014-06-08_13-17-57_260595134347_rgbf000065-resize_1-target.png,1000,3.0835,8,3021,999,feet,jsons/v1_VE1000_randls_55.json,867866,1061209,25,Woman
163,557139,DepthScenes,duration_manipulation_targetAtFixation,jsons/v1_VE1000_randls_55.json,http://54.235.29.9/FacialAge/BNav_EC2/DepthDuration/v2_depth_duration_MTurk/v2_DepthDuration_HTML.html#468,468,1366,768,1366,768,8-29-2022,8-41-13,164,depth_duration_stimuli/000677_2014-06-08_23-10-32_260595134347_rgbf000158-resize_6/000677_2014-06-08_23-10-32_260595134347_rgbf000158-resize_6-target.png,1000,3.556,8,2484,1000,feet,jsons/v1_VE1000_randls_55.json,867866,1061209,25,Woman
