,subjID,experimentName,versionName,sequenceName,url,selected_row,windowWidth,windowHeight,screenWidth,screenHeight,startDate,startTime,trial,stimulus,duration,actual_depth,depth_estimate,trial_RT,log_sceneDuration,unitSelection,seq_filepath,experimentTime,totalTime,age,gender
0,559550,DepthScenes,duration_manipulation_targetAtFixation,jsons/VE125_randls_8_rotated.json,http://54.235.29.9/FacialAge/BNav_EC2/DepthDuration/v2_depth_duration_MTurk/v2_DepthDuration_HTML.html#218,218,1093,614,1366,768,9-3-2022,9-8-39,1,depth_duration_stimuli/001447_2014-06-19_17-00-32_260595134347_rgbf000082-resize_5/001447_2014-06-19_17-00-32_260595134347_rgbf000082-resize_5-target.png,125,4.13775,2.0,5869,123,feet,jsons/VE125_randls_8_rotated.json,736499,1796514,66,Woman
1,559550,DepthScenes,duration_manipulation_targetAtFixation,jsons/VE125_randls_8_rotated.json,http://54.235.29.9/FacialAge/BNav_EC2/DepthDuration/v2_depth_duration_MTurk/v2_DepthDuration_HTML.html#218,218,1093,614,1366,768,9-3-2022,9-8-39,2,depth_duration_stimuli/000447_2014-06-08_16-15-46_260595134347_rgbf000130-resize_1/000447_2014-06-08_16-15-46_260595134347_rgbf000130-resize_1-target.png,125,4.479,3.0,6138,124,feet,jsons/VE125_randls_8_rotated.json,736499,1796514,66,Woman
2,559550,DepthScenes,duration_manipulation_targetAtFixation,jsons/VE125_randls_8_rotated.json,http://54.235.29.9/FacialAge/BNav_EC2/DepthDuration/v2_depth_duration_MTurk/v2_DepthDuration_HTML.html#218,218,1093,614,1366,768,9-3-2022,9-8-39,3,depth_duration_stimuli/002136_2014-06-25_21-18-03_260595134347_rgbf000109-resize_3/002136_2014-06-25_21-18-03_260595134347_rgbf000109-resize_3-target.png,125,1.9569999999999999,2.0,4568,124,feet,jsons/VE125_randls_8_rotated.json,736499,1796514,66,Woman
3,559550,DepthScenes,duration_manipulation_targetAtFixation,jsons/VE125_randls_8_rotated.json,http://54.235.29.9/FacialAge/BNav_EC2/DepthDuration/v2_depth_duration_MTurk/v2_DepthDuration_HTML.html#218,218,1093,614,1366,768,9-3-2022,9-8-39,4,depth_duration_stimuli/002964_2014-06-08_17-46-11_094959634447_rgbf000091-resize_4/002964_2014-06-08_17-46-11_094959634447_rgbf000091-resize_4-target.png,125,1.6909999999999998,1.0,5379,124,feet,jsons/VE125_randls_8_rotated.json,736499,1796514,66,Woman
4,559550,DepthScenes,duration_manipulation_targetAtFixation,jsons/VE125_randls_8_rotated.json,http://54.235.29.9/FacialAge/BNav_EC2/DepthDuration/v2_depth_duration_MTurk/v2_DepthDuration_HTML.html#218,218,1093,614,1366,768,9-3-2022,9-8-39,5,depth_duration_stimuli/000109_2014-05-14_23-41-52_260595134347_rgbf000035-resize_9/000109_2014-05-14_23-41-52_260595134347_rgbf000035-resize_9-target.png,125,1.3545,1.0,3681,116,feet,jsons/VE125_randls_8_rotated.json,736499,1796514,66,Woman
5,559550,DepthScenes,duration_manipulation_targetAtFixation,jsons/VE125_randls_8_rotated.json,http://54.235.29.9/FacialAge/BNav_EC2/DepthDuration/v2_depth_duration_MTurk/v2_DepthDuration_HTML.html#218,218,1093,614,1366,768,9-3-2022,9-8-39,6,depth_duration_stimuli/000470_2014-06-09_19-42-40_260595134347_rgbf000094-resize_1/000470_2014-06-09_19-42-40_260595134347_rgbf000094-resize_1-target.png,125,1.831,1.5,6185,123,feet,jsons/VE125_randls_8_rotated.json,736499,1796514,66,Woman
6,559550,DepthScenes,duration_manipulation_targetAtFixation,jsons/VE125_randls_8_rotated.json,http://54.235.29.9/FacialAge/BNav_EC2/DepthDuration/v2_depth_duration_MTurk/v2_DepthDuration_HTML.html#218,218,1093,614,1366,768,9-3-2022,9-8-39,7,depth_duration_stimuli/002657_2014-06-13_15-29-54_094959634447_rgbf000150-resize_1/002657_2014-06-13_15-29-54_094959634447_rgbf000150-resize_1-target.png,125,4.919,3.0,3990,122,feet,jsons/VE125_randls_8_rotated.json,736499,1796514,66,Woman
7,559550,DepthScenes,duration_manipulation_targetAtFixation,jsons/VE125_randls_8_rotated.json,http://54.235.29.9/FacialAge/BNav_EC2/DepthDuration/v2_depth_duration_MTurk/v2_DepthDuration_HTML.html#218,218,1093,614,1366,768,9-3-2022,9-8-39,8,depth_duration_stimuli/002375_2014-06-28_20-13-44_260595134347_rgbf000032-resize_1/002375_2014-06-28_20-13-44_260595134347_rgbf000032-resize_1-target.png,125,4.0175,2.0,3534,122,feet,jsons/VE125_randls_8_rotated.json,736499,1796514,66,Woman
8,559550,DepthScenes,duration_manipulation_targetAtFixation,jsons/VE125_randls_8_rotated.json,http://54.235.29.9/FacialAge/BNav_EC2/DepthDuration/v2_depth_duration_MTurk/v2_DepthDuration_HTML.html#218,218,1093,614,1366,768,9-3-2022,9-8-39,9,depth_duration_stimuli/001617_2014-06-20_11-35-32_260595134347_rgbf000066-resize_1/001617_2014-06-20_11-35-32_260595134347_rgbf000066-resize_1-target.png,125,3.7910000000000004,3.0,4083,125,feet,jsons/VE125_randls_8_rotated.json,736499,1796514,66,Woman
9,559550,DepthScenes,duration_manipulation_targetAtFixation,jsons/VE125_randls_8_rotated.json,http://54.235.29.9/FacialAge/BNav_EC2/DepthDuration/v2_depth_duration_MTurk/v2_DepthDuration_HTML.html#218,218,1093,614,1366,768,9-3-2022,9-8-39,10,depth_duration_stimuli/001806_2014-06-26_20-50-20_260595134347_rgbf000091-resize_1/001806_2014-06-26_20-50-20_260595134347_rgbf000091-resize_1-target.png,125,2.7305,2.0,3435,126,feet,jsons/VE125_randls_8_rotated.json,736499,1796514,66,Woman
10,559550,DepthScenes,duration_manipulation_targetAtFixation,jsons/VE125_randls_8_rotated.json,http://54.235.29.9/FacialAge/BNav_EC2/DepthDuration/v2_depth_duration_MTurk/v2_DepthDuration_HTML.html#218,218,1093,614,1366,768,9-3-2022,9-8-39,11,depth_duration_stimuli/002344_2014-06-28_20-06-29_260595134347_rgbf000030-resize_1/002344_2014-06-28_20-06-29_260595134347_rgbf000030-resize_1-target.png,125,1.5795,2.0,5678,124,feet,jsons/VE125_randls_8_rotated.json,736499,1796514,66,Woman
11,559550,DepthScenes,duration_manipulation_targetAtFixation,jsons/VE125_randls_8_rotated.json,http://54.235.29.9/FacialAge/BNav_EC2/DepthDuration/v2_depth_duration_MTurk/v2_DepthDuration_HTML.html#218,218,1093,614,1366,768,9-3-2022,9-8-39,12,depth_duration_stimuli/002725_2014-06-22_11-47-51_094959634447_rgbf000070-resize_1/002725_2014-06-22_11-47-51_094959634447_rgbf000070-resize_1-target.png,125,2.195,4.0,3996,124,feet,jsons/VE125_randls_8_rotated.json,736499,1796514,66,Woman
12,559550,DepthScenes,duration_manipulation_targetAtFixation,jsons/VE125_randls_8_rotated.json,http://54.235.29.9/FacialAge/BNav_EC2/DepthDuration/v2_depth_duration_MTurk/v2_DepthDuration_HTML.html#218,218,1093,614,1366,768,9-3-2022,9-8-39,13,depth_duration_stimuli/002875_2014-06-01_15-19-00_094959634447_rgbf000151-resize_1/002875_2014-06-01_15-19-00_094959634447_rgbf000151-resize_1-target.png,125,1.9675,2.0,3643,125,feet,jsons/VE125_randls_8_rotated.json,736499,1796514,66,Woman
13,559550,DepthScenes,duration_manipulation_targetAtFixation,jsons/VE125_randls_8_rotated.json,http://54.235.29.9/FacialAge/BNav_EC2/DepthDuration/v2_depth_duration_MTurk/v2_DepthDuration_HTML.html#218,218,1093,614,1366,768,9-3-2022,9-8-39,14,depth_duration_stimuli/001011_2014-06-08_23-18-54_260595134347_rgbf000044-resize_4/001011_2014-06-08_23-18-54_260595134347_rgbf000044-resize_4-target.png,125,2.4730000000000003,4.0,3831,138,feet,jsons/VE125_randls_8_rotated.json,736499,1796514,66,Woman
14,559550,DepthScenes,duration_manipulation_targetAtFixation,jsons/VE125_randls_8_rotated.json,http://54.235.29.9/FacialAge/BNav_EC2/DepthDuration/v2_depth_duration_MTurk/v2_DepthDuration_HTML.html#218,218,1093,614,1366,768,9-3-2022,9-8-39,15,depth_duration_stimuli/001815_2014-06-26_20-52-55_260595134347_rgbf000020-resize_0/001815_2014-06-26_20-52-55_260595134347_rgbf000020-resize_0-target.png,125,3.3865,5.0,4346,124,feet,jsons/VE125_randls_8_rotated.json,736499,1796514,66,Woman
15,559550,DepthScenes,duration_manipulation_targetAtFixation,jsons/VE125_randls_8_rotated.json,http://54.235.29.9/FacialAge/BNav_EC2/DepthDuration/v2_depth_duration_MTurk/v2_DepthDuration_HTML.html#218,218,1093,614,1366,768,9-3-2022,9-8-39,16,depth_duration_stimuli/001808_2014-06-26_20-50-58_260595134347_rgbf000029-resize_1/001808_2014-06-26_20-50-58_260595134347_rgbf000029-resize_1-target.png,125,4.249,6.0,4676,129,feet,jsons/VE125_randls_8_rotated.json,736499,1796514,66,Woman
16,559550,DepthScenes,duration_manipulation_targetAtFixation,jsons/VE125_randls_8_rotated.json,http://54.235.29.9/FacialAge/BNav_EC2/DepthDuration/v2_depth_duration_MTurk/v2_DepthDuration_HTML.html#218,218,1093,614,1366,768,9-3-2022,9-8-39,17,depth_duration_stimuli/000549_2014-06-08_22-10-24_260595134347_rgbf000247-resize_3/000549_2014-06-08_22-10-24_260595134347_rgbf000247-resize_3-target.png,125,1.841,2.0,4008,126,feet,jsons/VE125_randls_8_rotated.json,736499,1796514,66,Woman
17,559550,DepthScenes,duration_manipulation_targetAtFixation,jsons/VE125_randls_8_rotated.json,http://54.235.29.9/FacialAge/BNav_EC2/DepthDuration/v2_depth_duration_MTurk/v2_DepthDuration_HTML.html#218,218,1093,614,1366,768,9-3-2022,9-8-39,18,depth_duration_stimuli/001055_2014-06-08_18-45-35_260595134347_rgbf000111-resize_4/001055_2014-06-08_18-45-35_260595134347_rgbf000111-resize_4-target.png,125,2.4290000000000003,6.0,3879,130,feet,jsons/VE125_randls_8_rotated.json,736499,1796514,66,Woman
18,559550,DepthScenes,duration_manipulation_targetAtFixation,jsons/VE125_randls_8_rotated.json,http://54.235.29.9/FacialAge/BNav_EC2/DepthDuration/v2_depth_duration_MTurk/v2_DepthDuration_HTML.html#218,218,1093,614,1366,768,9-3-2022,9-8-39,19,depth_duration_stimuli/001498_2014-06-19_17-45-14_260595134347_rgbf000129-resize_4/001498_2014-06-19_17-45-14_260595134347_rgbf000129-resize-original.jpg,125,1.4075,0.0,4392,122,feet,jsons/VE125_randls_8_rotated.json,736499,1796514,66,Woman
19,559550,DepthScenes,duration_manipulation_targetAtFixation,jsons/VE125_randls_8_rotated.json,http://54.235.29.9/FacialAge/BNav_EC2/DepthDuration/v2_depth_duration_MTurk/v2_DepthDuration_HTML.html#218,218,1093,614,1366,768,9-3-2022,9-8-39,20,depth_duration_stimuli/002340_2014-06-28_20-05-46_260595134347_rgbf000113-resize_0/002340_2014-06-28_20-05-46_260595134347_rgbf000113-resize_0-target.png,125,2.4735,4.0,3677,124,feet,jsons/VE125_randls_8_rotated.json,736499,1796514,66,Woman
20,559550,DepthScenes,duration_manipulation_targetAtFixation,jsons/VE125_randls_8_rotated.json,http://54.235.29.9/FacialAge/BNav_EC2/DepthDuration/v2_depth_duration_MTurk/v2_DepthDuration_HTML.html#218,218,1093,614,1366,768,9-3-2022,9-8-39,21,depth_duration_stimuli/001016_2014-06-09_16-16-10_260595134347_rgbf000112-resize_5/001016_2014-06-09_16-16-10_260595134347_rgbf000112-resize_5-target.png,125,1.6565,3.0,3480,124,feet,jsons/VE125_randls_8_rotated.json,736499,1796514,66,Woman
21,559550,DepthScenes,duration_manipulation_targetAtFixation,jsons/VE125_randls_8_rotated.json,http://54.235.29.9/FacialAge/BNav_EC2/DepthDuration/v2_depth_duration_MTurk/v2_DepthDuration_HTML.html#218,218,1093,614,1366,768,9-3-2022,9-8-39,22,depth_duration_stimuli/002953_2014-06-08_17-32-18_094959634447_rgbf000059-resize_5/002953_2014-06-08_17-32-18_094959634447_rgbf000059-resize_5-target.png,125,1.551,2.0,4755,123,feet,jsons/VE125_randls_8_rotated.json,736499,1796514,66,Woman
22,559550,DepthScenes,duration_manipulation_targetAtFixation,jsons/VE125_randls_8_rotated.json,http://54.235.29.9/FacialAge/BNav_EC2/DepthDuration/v2_depth_duration_MTurk/v2_DepthDuration_HTML.html#218,218,1093,614,1366,768,9-3-2022,9-8-39,23,depth_duration_stimuli/000878_2014-06-08_22-52-45_260595134347_rgbf000045-resize_2/000878_2014-06-08_22-52-45_260595134347_rgbf000045-resize_2-target.png,125,2.092,4.0,4505,123,feet,jsons/VE125_randls_8_rotated.json,736499,1796514,66,Woman
23,559550,DepthScenes,duration_manipulation_targetAtFixation,jsons/VE125_randls_8_rotated.json,http://54.235.29.9/FacialAge/BNav_EC2/DepthDuration/v2_depth_duration_MTurk/v2_DepthDuration_HTML.html#218,218,1093,614,1366,768,9-3-2022,9-8-39,24,depth_duration_stimuli/002750_2014-06-22_19-08-03_094959634447_rgbf000094-resize_4/002750_2014-06-22_19-08-03_094959634447_rgbf000094-resize_4-target.png,125,2.354,5.0,3705,138,feet,jsons/VE125_randls_8_rotated.json,736499,1796514,66,Woman
24,559550,DepthScenes,duration_manipulation_targetAtFixation,jsons/VE125_randls_8_rotated.json,http://54.235.29.9/FacialAge/BNav_EC2/DepthDuration/v2_depth_duration_MTurk/v2_DepthDuration_HTML.html#218,218,1093,614,1366,768,9-3-2022,9-8-39,25,depth_duration_stimuli/002549_2014-06-24_13-41-39_094959634447_rgbf000022-resize_3/002549_2014-06-24_13-41-39_094959634447_rgbf000022-resize_3-target.png,125,1.476,3.0,3887,121,feet,jsons/VE125_randls_8_rotated.json,736499,1796514,66,Woman
25,559550,DepthScenes,duration_manipulation_targetAtFixation,jsons/VE125_randls_8_rotated.json,http://54.235.29.9/FacialAge/BNav_EC2/DepthDuration/v2_depth_duration_MTurk/v2_DepthDuration_HTML.html#218,218,1093,614,1366,768,9-3-2022,9-8-39,26,depth_duration_stimuli/000780_2014-06-08_22-28-29_260595134347_rgbf000126-resize_1/000780_2014-06-08_22-28-29_260595134347_rgbf000126-resize_1-target.png,125,3.3825,5.0,3702,125,feet,jsons/VE125_randls_8_rotated.json,736499,1796514,66,Woman
26,559550,DepthScenes,duration_manipulation_targetAtFixation,jsons/VE125_randls_8_rotated.json,http://54.235.29.9/FacialAge/BNav_EC2/DepthDuration/v2_depth_duration_MTurk/v2_DepthDuration_HTML.html#218,218,1093,614,1366,768,9-3-2022,9-8-39,27,depth_duration_stimuli/002445_2014-06-28_20-32-16_260595134347_rgbf000029-resize_4/002445_2014-06-28_20-32-16_260595134347_rgbf000029-resize_4-target.png,125,2.5315,3.0,3716,125,feet,jsons/VE125_randls_8_rotated.json,736499,1796514,66,Woman
27,559550,DepthScenes,duration_manipulation_targetAtFixation,jsons/VE125_randls_8_rotated.json,http://54.235.29.9/FacialAge/BNav_EC2/DepthDuration/v2_depth_duration_MTurk/v2_DepthDuration_HTML.html#218,218,1093,614,1366,768,9-3-2022,9-8-39,28,depth_duration_stimuli/003228_2014-05-14_13-42-35_094959634447_rgbf000101-resize_1/003228_2014-05-14_13-42-35_094959634447_rgbf000101-resize_1-target.png,125,1.9680000000000002,3.0,3788,123,feet,jsons/VE125_randls_8_rotated.json,736499,1796514,66,Woman
28,559550,DepthScenes,duration_manipulation_targetAtFixation,jsons/VE125_randls_8_rotated.json,http://54.235.29.9/FacialAge/BNav_EC2/DepthDuration/v2_depth_duration_MTurk/v2_DepthDuration_HTML.html#218,218,1093,614,1366,768,9-3-2022,9-8-39,29,depth_duration_stimuli/002600_2014-06-24_14-27-04_094959634447_rgbf000074-resize_2/002600_2014-06-24_14-27-04_094959634447_rgbf000074-resize_2-target.png,125,2.7575,5.0,8747,123,feet,jsons/VE125_randls_8_rotated.json,736499,1796514,66,Woman
29,559550,DepthScenes,duration_manipulation_targetAtFixation,jsons/VE125_randls_8_rotated.json,http://54.235.29.9/FacialAge/BNav_EC2/DepthDuration/v2_depth_duration_MTurk/v2_DepthDuration_HTML.html#218,218,1093,614,1366,768,9-3-2022,9-8-39,30,depth_duration_stimuli/002072_2014-06-24_21-48-06_260595134347_rgbf000115-resize_0/002072_2014-06-24_21-48-06_260595134347_rgbf000115-resize-original.jpg,125,4.702,0.0,3215,124,feet,jsons/VE125_randls_8_rotated.json,736499,1796514,66,Woman
30,559550,DepthScenes,duration_manipulation_targetAtFixation,jsons/VE125_randls_8_rotated.json,http://54.235.29.9/FacialAge/BNav_EC2/DepthDuration/v2_depth_duration_MTurk/v2_DepthDuration_HTML.html#218,218,1093,614,1366,768,9-3-2022,9-8-39,31,depth_duration_stimuli/000709_2014-06-08_13-51-55_260595134347_rgbf000068-resize_3/000709_2014-06-08_13-51-55_260595134347_rgbf000068-resize_3-target.png,125,1.8030000000000002,5.0,3850,123,feet,jsons/VE125_randls_8_rotated.json,736499,1796514,66,Woman
31,559550,DepthScenes,duration_manipulation_targetAtFixation,jsons/VE125_randls_8_rotated.json,http://54.235.29.9/FacialAge/BNav_EC2/DepthDuration/v2_depth_duration_MTurk/v2_DepthDuration_HTML.html#218,218,1093,614,1366,768,9-3-2022,9-8-39,32,depth_duration_stimuli/002057_2014-06-24_21-00-13_260595134347_rgbf000120-resize_1/002057_2014-06-24_21-00-13_260595134347_rgbf000120-resize_1-target.png,125,2.967,6.0,3747,123,feet,jsons/VE125_randls_8_rotated.json,736499,1796514,66,Woman
32,559550,DepthScenes,duration_manipulation_targetAtFixation,jsons/VE125_randls_8_rotated.json,http://54.235.29.9/FacialAge/BNav_EC2/DepthDuration/v2_depth_duration_MTurk/v2_DepthDuration_HTML.html#218,218,1093,614,1366,768,9-3-2022,9-8-39,33,depth_duration_stimuli/000103_2014-05-14_22-01-17_260595134347_rgbf000152-resize_5/000103_2014-05-14_22-01-17_260595134347_rgbf000152-resize_5-target.png,125,1.993,5.0,3741,123,feet,jsons/VE125_randls_8_rotated.json,736499,1796514,66,Woman
33,559550,DepthScenes,duration_manipulation_targetAtFixation,jsons/VE125_randls_8_rotated.json,http://54.235.29.9/FacialAge/BNav_EC2/DepthDuration/v2_depth_duration_MTurk/v2_DepthDuration_HTML.html#218,218,1093,614,1366,768,9-3-2022,9-8-39,34,depth_duration_stimuli/001555_2014-06-20_17-12-10_260595134347_rgbf000065-resize_4/001555_2014-06-20_17-12-10_260595134347_rgbf000065-resize_4-target.png,125,1.633,2.0,3560,124,feet,jsons/VE125_randls_8_rotated.json,736499,1796514,66,Woman
34,559550,DepthScenes,duration_manipulation_targetAtFixation,jsons/VE125_randls_8_rotated.json,http://54.235.29.9/FacialAge/BNav_EC2/DepthDuration/v2_depth_duration_MTurk/v2_DepthDuration_HTML.html#218,218,1093,614,1366,768,9-3-2022,9-8-39,35,depth_duration_stimuli/001094_2014-06-15_17-36-00_260595134347_rgbf000205-resize_0/001094_2014-06-15_17-36-00_260595134347_rgbf000205-resize_0-target.png,125,4.2175,5.0,5725,121,feet,jsons/VE125_randls_8_rotated.json,736499,1796514,66,Woman
35,559550,DepthScenes,duration_manipulation_targetAtFixation,jsons/VE125_randls_8_rotated.json,http://54.235.29.9/FacialAge/BNav_EC2/DepthDuration/v2_depth_duration_MTurk/v2_DepthDuration_HTML.html#218,218,1093,614,1366,768,9-3-2022,9-8-39,36,depth_duration_stimuli/000692_2014-06-08_13-09-42_260595134347_rgbf000199-resize_2/000692_2014-06-08_13-09-42_260595134347_rgbf000199-resize_2-target.png,125,3.661,6.0,3353,138,feet,jsons/VE125_randls_8_rotated.json,736499,1796514,66,Woman
36,559550,DepthScenes,duration_manipulation_targetAtFixation,jsons/VE125_randls_8_rotated.json,http://54.235.29.9/FacialAge/BNav_EC2/DepthDuration/v2_depth_duration_MTurk/v2_DepthDuration_HTML.html#218,218,1093,614,1366,768,9-3-2022,9-8-39,37,depth_duration_stimuli/001052_2014-06-08_18-24-54_260595134347_rgbf000130-resize_1/001052_2014-06-08_18-24-54_260595134347_rgbf000130-resize_1-target.png,125,4.1045,4.0,4230,124,feet,jsons/VE125_randls_8_rotated.json,736499,1796514,66,Woman
37,559550,DepthScenes,duration_manipulation_targetAtFixation,jsons/VE125_randls_8_rotated.json,http://54.235.29.9/FacialAge/BNav_EC2/DepthDuration/v2_depth_duration_MTurk/v2_DepthDuration_HTML.html#218,218,1093,614,1366,768,9-3-2022,9-8-39,38,depth_duration_stimuli/002988_2014-06-15_12-24-20_094959634447_rgbf000150-resize_1/002988_2014-06-15_12-24-20_094959634447_rgbf000150-resize_1-target.png,125,4.7669999999999995,6.0,5464,137,feet,jsons/VE125_randls_8_rotated.json,736499,1796514,66,Woman
38,559550,DepthScenes,duration_manipulation_targetAtFixation,jsons/VE125_randls_8_rotated.json,http://54.235.29.9/FacialAge/BNav_EC2/DepthDuration/v2_depth_duration_MTurk/v2_DepthDuration_HTML.html#218,218,1093,614,1366,768,9-3-2022,9-8-39,39,depth_duration_stimuli/003048_2014-06-15_13-49-43_094959634447_rgbf000150-resize_1/003048_2014-06-15_13-49-43_094959634447_rgbf000150-resize_1-target.png,125,4.0035,5.0,3748,124,feet,jsons/VE125_randls_8_rotated.json,736499,1796514,66,Woman
39,559550,DepthScenes,duration_manipulation_targetAtFixation,jsons/VE125_randls_8_rotated.json,http://54.235.29.9/FacialAge/BNav_EC2/DepthDuration/v2_depth_duration_MTurk/v2_DepthDuration_HTML.html#218,218,1093,614,1366,768,9-3-2022,9-8-39,40,depth_duration_stimuli/002043_2014-06-24_20-29-38_260595134347_rgbf000039-resize_4/002043_2014-06-24_20-29-38_260595134347_rgbf000039-resize_4-target.png,125,2.8435,5.0,3561,130,feet,jsons/VE125_randls_8_rotated.json,736499,1796514,66,Woman
40,559550,DepthScenes,duration_manipulation_targetAtFixation,jsons/VE125_randls_8_rotated.json,http://54.235.29.9/FacialAge/BNav_EC2/DepthDuration/v2_depth_duration_MTurk/v2_DepthDuration_HTML.html#218,218,1093,614,1366,768,9-3-2022,9-8-39,41,depth_duration_stimuli/002467_2014-06-28_20-38-07_260595134347_rgbf000026-resize_2/002467_2014-06-28_20-38-07_260595134347_rgbf000026-resize_2-target.png,125,4.742,7.0,3771,129,feet,jsons/VE125_randls_8_rotated.json,736499,1796514,66,Woman
41,559550,DepthScenes,duration_manipulation_targetAtFixation,jsons/VE125_randls_8_rotated.json,http://54.235.29.9/FacialAge/BNav_EC2/DepthDuration/v2_depth_duration_MTurk/v2_DepthDuration_HTML.html#218,218,1093,614,1366,768,9-3-2022,9-8-39,42,depth_duration_stimuli/002570_2014-06-24_13-59-54_094959634447_rgbf000059-resize_0/002570_2014-06-24_13-59-54_094959634447_rgbf000059-resize_0-target.png,125,4.037,4.0,3866,124,feet,jsons/VE125_randls_8_rotated.json,736499,1796514,66,Woman
42,559550,DepthScenes,duration_manipulation_targetAtFixation,jsons/VE125_randls_8_rotated.json,http://54.235.29.9/FacialAge/BNav_EC2/DepthDuration/v2_depth_duration_MTurk/v2_DepthDuration_HTML.html#218,218,1093,614,1366,768,9-3-2022,9-8-39,43,depth_duration_stimuli/000691_2014-06-08_13-08-50_260595134347_rgbf000132-resize_3/000691_2014-06-08_13-08-50_260595134347_rgbf000132-resize_3-target.png,125,4.1530000000000005,5.0,5190,123,feet,jsons/VE125_randls_8_rotated.json,736499,1796514,66,Woman
43,559550,DepthScenes,duration_manipulation_targetAtFixation,jsons/VE125_randls_8_rotated.json,http://54.235.29.9/FacialAge/BNav_EC2/DepthDuration/v2_depth_duration_MTurk/v2_DepthDuration_HTML.html#218,218,1093,614,1366,768,9-3-2022,9-8-39,44,depth_duration_stimuli/002213_2014-06-28_18-37-58_260595134347_rgbf000055-resize_1/002213_2014-06-28_18-37-58_260595134347_rgbf000055-resize_1-target.png,125,3.62,6.0,3596,129,feet,jsons/VE125_randls_8_rotated.json,736499,1796514,66,Woman
44,559550,DepthScenes,duration_manipulation_targetAtFixation,jsons/VE125_randls_8_rotated.json,http://54.235.29.9/FacialAge/BNav_EC2/DepthDuration/v2_depth_duration_MTurk/v2_DepthDuration_HTML.html#218,218,1093,614,1366,768,9-3-2022,9-8-39,45,depth_duration_stimuli/001571_2014-06-20_17-21-32_260595134347_rgbf000089-resize_1/001571_2014-06-20_17-21-32_260595134347_rgbf000089-resize_1-target.png,125,1.86,3.0,5055,122,feet,jsons/VE125_randls_8_rotated.json,736499,1796514,66,Woman
45,559550,DepthScenes,duration_manipulation_targetAtFixation,jsons/VE125_randls_8_rotated.json,http://54.235.29.9/FacialAge/BNav_EC2/DepthDuration/v2_depth_duration_MTurk/v2_DepthDuration_HTML.html#218,218,1093,614,1366,768,9-3-2022,9-8-39,46,depth_duration_stimuli/002272_2014-06-28_18-53-56_260595134347_rgbf000067-resize_2/002272_2014-06-28_18-53-56_260595134347_rgbf000067-resize_2-target.png,125,1.138,2.0,11558,124,feet,jsons/VE125_randls_8_rotated.json,736499,1796514,66,Woman
46,559550,DepthScenes,duration_manipulation_targetAtFixation,jsons/VE125_randls_8_rotated.json,http://54.235.29.9/FacialAge/BNav_EC2/DepthDuration/v2_depth_duration_MTurk/v2_DepthDuration_HTML.html#218,218,1093,614,1366,768,9-3-2022,9-8-39,47,depth_duration_stimuli/002949_2014-06-26_15-57-42_094959634447_rgbf000079-resize_1/002949_2014-06-26_15-57-42_094959634447_rgbf000079-resize_1-target.png,125,1.8915,3.0,5378,125,feet,jsons/VE125_randls_8_rotated.json,736499,1796514,66,Woman
47,559550,DepthScenes,duration_manipulation_targetAtFixation,jsons/VE125_randls_8_rotated.json,http://54.235.29.9/FacialAge/BNav_EC2/DepthDuration/v2_depth_duration_MTurk/v2_DepthDuration_HTML.html#218,218,1093,614,1366,768,9-3-2022,9-8-39,48,depth_duration_stimuli/000522_2014-06-08_13-35-06_260595134347_rgbf000244-resize_1/000522_2014-06-08_13-35-06_260595134347_rgbf000244-resize_1-target.png,125,2.3715,2.0,3854,123,feet,jsons/VE125_randls_8_rotated.json,736499,1796514,66,Woman
48,559550,DepthScenes,duration_manipulation_targetAtFixation,jsons/VE125_randls_8_rotated.json,http://54.235.29.9/FacialAge/BNav_EC2/DepthDuration/v2_depth_duration_MTurk/v2_DepthDuration_HTML.html#218,218,1093,614,1366,768,9-3-2022,9-8-39,49,depth_duration_stimuli/001170_2014-06-17_15-43-44_260595134347_rgbf000096-resize_6/001170_2014-06-17_15-43-44_260595134347_rgbf000096-resize-original.jpg,125,1.1909999999999998,1.0,4181,123,feet,jsons/VE125_randls_8_rotated.json,736499,1796514,66,Woman
49,559550,DepthScenes,duration_manipulation_targetAtFixation,jsons/VE125_randls_8_rotated.json,http://54.235.29.9/FacialAge/BNav_EC2/DepthDuration/v2_depth_duration_MTurk/v2_DepthDuration_HTML.html#218,218,1093,614,1366,768,9-3-2022,9-8-39,50,depth_duration_stimuli/002660_2014-06-13_15-44-18_094959634447_rgbf001878-resize_2/002660_2014-06-13_15-44-18_094959634447_rgbf001878-resize_2-target.png,125,3.576,4.0,3469,124,feet,jsons/VE125_randls_8_rotated.json,736499,1796514,66,Woman
50,559550,DepthScenes,duration_manipulation_targetAtFixation,jsons/VE125_randls_8_rotated.json,http://54.235.29.9/FacialAge/BNav_EC2/DepthDuration/v2_depth_duration_MTurk/v2_DepthDuration_HTML.html#218,218,1093,614,1366,768,9-3-2022,9-8-39,51,depth_duration_stimuli/002153_2014-06-25_21-27-18_260595134347_rgbf000038-resize_5/002153_2014-06-25_21-27-18_260595134347_rgbf000038-resize_5-target.png,125,2.505,3.0,3704,124,feet,jsons/VE125_randls_8_rotated.json,736499,1796514,66,Woman
51,559550,DepthScenes,duration_manipulation_targetAtFixation,jsons/VE125_randls_8_rotated.json,http://54.235.29.9/FacialAge/BNav_EC2/DepthDuration/v2_depth_duration_MTurk/v2_DepthDuration_HTML.html#218,218,1093,614,1366,768,9-3-2022,9-8-39,52,depth_duration_stimuli/000635_2014-06-08_16-38-42_260595134347_rgbf000106-resize_1/000635_2014-06-08_16-38-42_260595134347_rgbf000106-resize_1-target.png,125,2.074,3.0,3625,123,feet,jsons/VE125_randls_8_rotated.json,736499,1796514,66,Woman
52,559550,DepthScenes,duration_manipulation_targetAtFixation,jsons/VE125_randls_8_rotated.json,http://54.235.29.9/FacialAge/BNav_EC2/DepthDuration/v2_depth_duration_MTurk/v2_DepthDuration_HTML.html#218,218,1093,614,1366,768,9-3-2022,9-8-39,53,depth_duration_stimuli/002279_2014-06-28_18-55-32_260595134347_rgbf000040-resize_5/002279_2014-06-28_18-55-32_260595134347_rgbf000040-resize_5-target.png,125,1.5043333333333,1.0,3626,111,feet,jsons/VE125_randls_8_rotated.json,736499,1796514,66,Woman
53,559550,DepthScenes,duration_manipulation_targetAtFixation,jsons/VE125_randls_8_rotated.json,http://54.235.29.9/FacialAge/BNav_EC2/DepthDuration/v2_depth_duration_MTurk/v2_DepthDuration_HTML.html#218,218,1093,614,1366,768,9-3-2022,9-8-39,54,depth_duration_stimuli/003423_2014-05-21_10-23-26_094959634447_rgbf002665-resize_2/003423_2014-05-21_10-23-26_094959634447_rgbf002665-resize_2-target.png,125,3.2575,6.0,3491,137,feet,jsons/VE125_randls_8_rotated.json,736499,1796514,66,Woman
54,559550,DepthScenes,duration_manipulation_targetAtFixation,jsons/VE125_randls_8_rotated.json,http://54.235.29.9/FacialAge/BNav_EC2/DepthDuration/v2_depth_duration_MTurk/v2_DepthDuration_HTML.html#218,218,1093,614,1366,768,9-3-2022,9-8-39,55,depth_duration_stimuli/002905_2014-06-03_18-04-43_094959634447_rgbf000151-resize_2/002905_2014-06-03_18-04-43_094959634447_rgbf000151-resize_2-target.png,125,2.0295,2.0,3676,125,feet,jsons/VE125_randls_8_rotated.json,736499,1796514,66,Woman
55,559550,DepthScenes,duration_manipulation_targetAtFixation,jsons/VE125_randls_8_rotated.json,http://54.235.29.9/FacialAge/BNav_EC2/DepthDuration/v2_depth_duration_MTurk/v2_DepthDuration_HTML.html#218,218,1093,614,1366,768,9-3-2022,9-8-39,56,depth_duration_stimuli/000734_2014-06-08_17-39-11_260595134347_rgbf000128-resize_2/000734_2014-06-08_17-39-11_260595134347_rgbf000128-resize_2-target.png,125,4.098,4.0,3379,123,feet,jsons/VE125_randls_8_rotated.json,736499,1796514,66,Woman
56,559550,DepthScenes,duration_manipulation_targetAtFixation,jsons/VE125_randls_8_rotated.json,http://54.235.29.9/FacialAge/BNav_EC2/DepthDuration/v2_depth_duration_MTurk/v2_DepthDuration_HTML.html#218,218,1093,614,1366,768,9-3-2022,9-8-39,57,depth_duration_stimuli/000739_2014-06-08_18-45-58_260595134347_rgbf000068-resize_1/000739_2014-06-08_18-45-58_260595134347_rgbf000068-resize_1-target.png,125,3.534,5.0,5606,122,feet,jsons/VE125_randls_8_rotated.json,736499,1796514,66,Woman
57,559550,DepthScenes,duration_manipulation_targetAtFixation,jsons/VE125_randls_8_rotated.json,http://54.235.29.9/FacialAge/BNav_EC2/DepthDuration/v2_depth_duration_MTurk/v2_DepthDuration_HTML.html#218,218,1093,614,1366,768,9-3-2022,9-8-39,58,depth_duration_stimuli/003083_2014-06-15_15-21-03_094959634447_rgbf000063-resize_1/003083_2014-06-15_15-21-03_094959634447_rgbf000063-resize_1-target.png,125,4.1405,6.0,7655,123,feet,jsons/VE125_randls_8_rotated.json,736499,1796514,66,Woman
58,559550,DepthScenes,duration_manipulation_targetAtFixation,jsons/VE125_randls_8_rotated.json,http://54.235.29.9/FacialAge/BNav_EC2/DepthDuration/v2_depth_duration_MTurk/v2_DepthDuration_HTML.html#218,218,1093,614,1366,768,9-3-2022,9-8-39,59,depth_duration_stimuli/000486_2014-06-09_20-47-20_260595134347_rgbf000143-resize_2/000486_2014-06-09_20-47-20_260595134347_rgbf000143-resize_2-target.png,125,4.8325,4.0,3588,125,feet,jsons/VE125_randls_8_rotated.json,736499,1796514,66,Woman
59,559550,DepthScenes,duration_manipulation_targetAtFixation,jsons/VE125_randls_8_rotated.json,http://54.235.29.9/FacialAge/BNav_EC2/DepthDuration/v2_depth_duration_MTurk/v2_DepthDuration_HTML.html#218,218,1093,614,1366,768,9-3-2022,9-8-39,60,depth_duration_stimuli/002545_2014-06-24_13-38-53_094959634447_rgbf000080-resize_4/002545_2014-06-24_13-38-53_094959634447_rgbf000080-resize_4-target.png,125,1.9205,3.0,3516,123,feet,jsons/VE125_randls_8_rotated.json,736499,1796514,66,Woman
60,559550,DepthScenes,duration_manipulation_targetAtFixation,jsons/VE125_randls_8_rotated.json,http://54.235.29.9/FacialAge/BNav_EC2/DepthDuration/v2_depth_duration_MTurk/v2_DepthDuration_HTML.html#218,218,1093,614,1366,768,9-3-2022,9-8-39,61,depth_duration_stimuli/001092_2014-06-15_17-34-58_260595134347_rgbf000171-resize_3/001092_2014-06-15_17-34-58_260595134347_rgbf000171-resize_3-target.png,125,2.6935,4.0,3598,122,feet,jsons/VE125_randls_8_rotated.json,736499,1796514,66,Woman
61,559550,DepthScenes,duration_manipulation_targetAtFixation,jsons/VE125_randls_8_rotated.json,http://54.235.29.9/FacialAge/BNav_EC2/DepthDuration/v2_depth_duration_MTurk/v2_DepthDuration_HTML.html#218,218,1093,614,1366,768,9-3-2022,9-8-39,62,depth_duration_stimuli/002103_2014-06-25_20-00-40_260595134347_rgbf000049-resize_0/002103_2014-06-25_20-00-40_260595134347_rgbf000049-resize_0-target.png,125,4.105,5.0,3896,124,feet,jsons/VE125_randls_8_rotated.json,736499,1796514,66,Woman
62,559550,DepthScenes,duration_manipulation_targetAtFixation,jsons/VE125_randls_8_rotated.json,http://54.235.29.9/FacialAge/BNav_EC2/DepthDuration/v2_depth_duration_MTurk/v2_DepthDuration_HTML.html#218,218,1093,614,1366,768,9-3-2022,9-8-39,63,depth_duration_stimuli/002039_2014-06-24_20-22-38_260595134347_rgbf000084-resize_1/002039_2014-06-24_20-22-38_260595134347_rgbf000084-resize_1-target.png,125,4.408,5.0,3829,124,feet,jsons/VE125_randls_8_rotated.json,736499,1796514,66,Woman
63,559550,DepthScenes,duration_manipulation_targetAtFixation,jsons/VE125_randls_8_rotated.json,http://54.235.29.9/FacialAge/BNav_EC2/DepthDuration/v2_depth_duration_MTurk/v2_DepthDuration_HTML.html#218,218,1093,614,1366,768,9-3-2022,9-8-39,64,depth_duration_stimuli/001136_2014-06-17_15-19-41_260595134347_rgbf000076-resize_3/001136_2014-06-17_15-19-41_260595134347_rgbf000076-resize_3-target.png,125,1.8655,4.0,3389,117,feet,jsons/VE125_randls_8_rotated.json,736499,1796514,66,Woman
64,559550,DepthScenes,duration_manipulation_targetAtFixation,jsons/VE125_randls_8_rotated.json,http://54.235.29.9/FacialAge/BNav_EC2/DepthDuration/v2_depth_duration_MTurk/v2_DepthDuration_HTML.html#218,218,1093,614,1366,768,9-3-2022,9-8-39,65,depth_duration_stimuli/001164_2014-06-17_15-35-46_260595134347_rgbf000085-resize_3/001164_2014-06-17_15-35-46_260595134347_rgbf000085-resize_3-target.png,125,2.354,4.0,3468,124,feet,jsons/VE125_randls_8_rotated.json,736499,1796514,66,Woman
65,559550,DepthScenes,duration_manipulation_targetAtFixation,jsons/VE125_randls_8_rotated.json,http://54.235.29.9/FacialAge/BNav_EC2/DepthDuration/v2_depth_duration_MTurk/v2_DepthDuration_HTML.html#218,218,1093,614,1366,768,9-3-2022,9-8-39,66,depth_duration_stimuli/001540_2014-06-20_17-01-05_260595134347_rgbf000086-resize_2/001540_2014-06-20_17-01-05_260595134347_rgbf000086-resize-original.jpg,125,1.459,0.0,2954,123,feet,jsons/VE125_randls_8_rotated.json,736499,1796514,66,Woman
66,559550,DepthScenes,duration_manipulation_targetAtFixation,jsons/VE125_randls_8_rotated.json,http://54.235.29.9/FacialAge/BNav_EC2/DepthDuration/v2_depth_duration_MTurk/v2_DepthDuration_HTML.html#218,218,1093,614,1366,768,9-3-2022,9-8-39,67,depth_duration_stimuli/000665_2014-06-09_20-42-35_260595134347_rgbf000110-resize_1/000665_2014-06-09_20-42-35_260595134347_rgbf000110-resize_1-target.png,125,3.057,4.0,3929,124,feet,jsons/VE125_randls_8_rotated.json,736499,1796514,66,Woman
67,559550,DepthScenes,duration_manipulation_targetAtFixation,jsons/VE125_randls_8_rotated.json,http://54.235.29.9/FacialAge/BNav_EC2/DepthDuration/v2_depth_duration_MTurk/v2_DepthDuration_HTML.html#218,218,1093,614,1366,768,9-3-2022,9-8-39,68,depth_duration_stimuli/001150_2014-06-17_15-27-34_260595134347_rgbf000108-resize_2/001150_2014-06-17_15-27-34_260595134347_rgbf000108-resize_2-target.png,125,4.0325,6.0,4544,123,feet,jsons/VE125_randls_8_rotated.json,736499,1796514,66,Woman
68,559550,DepthScenes,duration_manipulation_targetAtFixation,jsons/VE125_randls_8_rotated.json,http://54.235.29.9/FacialAge/BNav_EC2/DepthDuration/v2_depth_duration_MTurk/v2_DepthDuration_HTML.html#218,218,1093,614,1366,768,9-3-2022,9-8-39,69,depth_duration_stimuli/002425_2014-06-28_20-27-29_260595134347_rgbf000031-resize_8/002425_2014-06-28_20-27-29_260595134347_rgbf000031-resize_8-target.png,125,3.8960000000000004,6.0,3137,125,feet,jsons/VE125_randls_8_rotated.json,736499,1796514,66,Woman
69,559550,DepthScenes,duration_manipulation_targetAtFixation,jsons/VE125_randls_8_rotated.json,http://54.235.29.9/FacialAge/BNav_EC2/DepthDuration/v2_depth_duration_MTurk/v2_DepthDuration_HTML.html#218,218,1093,614,1366,768,9-3-2022,9-8-39,70,depth_duration_stimuli/000642_2014-06-08_16-59-25_260595134347_rgbf000098-resize_2/000642_2014-06-08_16-59-25_260595134347_rgbf000098-resize_2-target.png,125,2.8815,4.0,3556,124,feet,jsons/VE125_randls_8_rotated.json,736499,1796514,66,Woman
70,559550,DepthScenes,duration_manipulation_targetAtFixation,jsons/VE125_randls_8_rotated.json,http://54.235.29.9/FacialAge/BNav_EC2/DepthDuration/v2_depth_duration_MTurk/v2_DepthDuration_HTML.html#218,218,1093,614,1366,768,9-3-2022,9-8-39,71,depth_duration_stimuli/002323_2014-06-28_20-01-54_260595134347_rgbf000051-resize_4/002323_2014-06-28_20-01-54_260595134347_rgbf000051-resize_4-target.png,125,3.7310000000000003,5.0,3618,126,feet,jsons/VE125_randls_8_rotated.json,736499,1796514,66,Woman
71,559550,DepthScenes,duration_manipulation_targetAtFixation,jsons/VE125_randls_8_rotated.json,http://54.235.29.9/FacialAge/BNav_EC2/DepthDuration/v2_depth_duration_MTurk/v2_DepthDuration_HTML.html#218,218,1093,614,1366,768,9-3-2022,9-8-39,72,depth_duration_stimuli/000917_2014-06-09_22-45-29_260595134347_rgbf000149-resize_3/000917_2014-06-09_22-45-29_260595134347_rgbf000149-resize_3-target.png,125,4.1865,5.0,3662,125,feet,jsons/VE125_randls_8_rotated.json,736499,1796514,66,Woman
72,559550,DepthScenes,duration_manipulation_targetAtFixation,jsons/VE125_randls_8_rotated.json,http://54.235.29.9/FacialAge/BNav_EC2/DepthDuration/v2_depth_duration_MTurk/v2_DepthDuration_HTML.html#218,218,1093,614,1366,768,9-3-2022,9-8-39,73,depth_duration_stimuli/001516_2014-06-20_16-25-09_260595134347_rgbf000076-resize_2/001516_2014-06-20_16-25-09_260595134347_rgbf000076-resize_2-target.png,125,1.7445,4.0,3446,124,feet,jsons/VE125_randls_8_rotated.json,736499,1796514,66,Woman
73,559550,DepthScenes,duration_manipulation_targetAtFixation,jsons/VE125_randls_8_rotated.json,http://54.235.29.9/FacialAge/BNav_EC2/DepthDuration/v2_depth_duration_MTurk/v2_DepthDuration_HTML.html#218,218,1093,614,1366,768,9-3-2022,9-8-39,74,depth_duration_stimuli/002118_2014-06-25_20-32-08_260595134347_rgbf000078-resize_1/002118_2014-06-25_20-32-08_260595134347_rgbf000078-resize_1-target.png,125,2.6460000000000004,3.0,5614,123,feet,jsons/VE125_randls_8_rotated.json,736499,1796514,66,Woman
74,559550,DepthScenes,duration_manipulation_targetAtFixation,jsons/VE125_randls_8_rotated.json,http://54.235.29.9/FacialAge/BNav_EC2/DepthDuration/v2_depth_duration_MTurk/v2_DepthDuration_HTML.html#218,218,1093,614,1366,768,9-3-2022,9-8-39,75,depth_duration_stimuli/002637_2014-06-24_14-51-13_094959634447_rgbf000066-resize_4/002637_2014-06-24_14-51-13_094959634447_rgbf000066-resize_4-target.png,125,1.9955,5.0,3444,123,feet,jsons/VE125_randls_8_rotated.json,736499,1796514,66,Woman
75,559550,DepthScenes,duration_manipulation_targetAtFixation,jsons/VE125_randls_8_rotated.json,http://54.235.29.9/FacialAge/BNav_EC2/DepthDuration/v2_depth_duration_MTurk/v2_DepthDuration_HTML.html#218,218,1093,614,1366,768,9-3-2022,9-8-39,76,depth_duration_stimuli/003534_2014-05-22_15-06-10_094959634447_rgbf000102-resize_4/003534_2014-05-22_15-06-10_094959634447_rgbf000102-resize_4-target.png,125,1.426,1.0,3227,123,feet,jsons/VE125_randls_8_rotated.json,736499,1796514,66,Woman
76,559550,DepthScenes,duration_manipulation_targetAtFixation,jsons/VE125_randls_8_rotated.json,http://54.235.29.9/FacialAge/BNav_EC2/DepthDuration/v2_depth_duration_MTurk/v2_DepthDuration_HTML.html#218,218,1093,614,1366,768,9-3-2022,9-8-39,77,depth_duration_stimuli/000677_2014-06-08_23-10-32_260595134347_rgbf000158-resize_6/000677_2014-06-08_23-10-32_260595134347_rgbf000158-resize_6-target.png,125,3.556,3.0,3419,109,feet,jsons/VE125_randls_8_rotated.json,736499,1796514,66,Woman
77,559550,DepthScenes,duration_manipulation_targetAtFixation,jsons/VE125_randls_8_rotated.json,http://54.235.29.9/FacialAge/BNav_EC2/DepthDuration/v2_depth_duration_MTurk/v2_DepthDuration_HTML.html#218,218,1093,614,1366,768,9-3-2022,9-8-39,78,depth_duration_stimuli/001029_2014-06-08_13-17-57_260595134347_rgbf000065-resize_1/001029_2014-06-08_13-17-57_260595134347_rgbf000065-resize_1-target.png,125,3.0835,4.0,3711,125,feet,jsons/VE125_randls_8_rotated.json,736499,1796514,66,Woman
78,559550,DepthScenes,duration_manipulation_targetAtFixation,jsons/VE125_randls_8_rotated.json,http://54.235.29.9/FacialAge/BNav_EC2/DepthDuration/v2_depth_duration_MTurk/v2_DepthDuration_HTML.html#218,218,1093,614,1366,768,9-3-2022,9-8-39,79,depth_duration_stimuli/001828_2014-06-26_21-40-03_260595134347_rgbf000024-resize_0/001828_2014-06-26_21-40-03_260595134347_rgbf000024-resize_0-target.png,125,4.8260000000000005,5.0,3521,123,feet,jsons/VE125_randls_8_rotated.json,736499,1796514,66,Woman
79,559550,DepthScenes,duration_manipulation_targetAtFixation,jsons/VE125_randls_8_rotated.json,http://54.235.29.9/FacialAge/BNav_EC2/DepthDuration/v2_depth_duration_MTurk/v2_DepthDuration_HTML.html#218,218,1093,614,1366,768,9-3-2022,9-8-39,80,depth_duration_stimuli/000009_2014-05-26_14-32-05_260595134347_rgbf000034-resize_3/000009_2014-05-26_14-32-05_260595134347_rgbf000034-resize_3-target.png,125,3.8715,7.0,4852,123,feet,jsons/VE125_randls_8_rotated.json,736499,1796514,66,Woman
80,559550,DepthScenes,duration_manipulation_targetAtFixation,jsons/VE125_randls_8_rotated.json,http://54.235.29.9/FacialAge/BNav_EC2/DepthDuration/v2_depth_duration_MTurk/v2_DepthDuration_HTML.html#218,218,1093,614,1366,768,9-3-2022,9-8-39,81,depth_duration_stimuli/000854_2014-06-09_19-43-13_260595134347_rgbf000066-resize_0/000854_2014-06-09_19-43-13_260595134347_rgbf000066-resize_0-target.png,125,3.068,4.0,3749,137,feet,jsons/VE125_randls_8_rotated.json,736499,1796514,66,Woman
81,559550,DepthScenes,duration_manipulation_targetAtFixation,jsons/VE125_randls_8_rotated.json,http://54.235.29.9/FacialAge/BNav_EC2/DepthDuration/v2_depth_duration_MTurk/v2_DepthDuration_HTML.html#218,218,1093,614,1366,768,9-3-2022,9-8-39,82,depth_duration_stimuli/000758_2014-06-08_22-05-08_260595134347_rgbf000085-resize_0/000758_2014-06-08_22-05-08_260595134347_rgbf000085-resize_0-target.png,125,3.3810000000000002,6.0,3732,123,feet,jsons/VE125_randls_8_rotated.json,736499,1796514,66,Woman
82,559550,DepthScenes,duration_manipulation_targetAtFixation,jsons/VE125_randls_8_rotated.json,http://54.235.29.9/FacialAge/BNav_EC2/DepthDuration/v2_depth_duration_MTurk/v2_DepthDuration_HTML.html#218,218,1093,614,1366,768,9-3-2022,9-8-39,83,depth_duration_stimuli/002444_2014-06-28_20-32-08_260595134347_rgbf000027-resize_0/002444_2014-06-28_20-32-08_260595134347_rgbf000027-resize_0-target.png,125,4.388999999999999,5.0,3716,119,feet,jsons/VE125_randls_8_rotated.json,736499,1796514,66,Woman
83,559550,DepthScenes,duration_manipulation_targetAtFixation,jsons/VE125_randls_8_rotated.json,http://54.235.29.9/FacialAge/BNav_EC2/DepthDuration/v2_depth_duration_MTurk/v2_DepthDuration_HTML.html#218,218,1093,614,1366,768,9-3-2022,9-8-39,84,depth_duration_stimuli/000436_2014-06-09_22-25-11_260595134347_rgbf000137-resize_1/000436_2014-06-09_22-25-11_260595134347_rgbf000137-resize_1-target.png,125,4.0705,8.0,3171,122,feet,jsons/VE125_randls_8_rotated.json,736499,1796514,66,Woman
84,559550,DepthScenes,duration_manipulation_targetAtFixation,jsons/VE125_randls_8_rotated.json,http://54.235.29.9/FacialAge/BNav_EC2/DepthDuration/v2_depth_duration_MTurk/v2_DepthDuration_HTML.html#218,218,1093,614,1366,768,9-3-2022,9-8-39,85,depth_duration_stimuli/002995_2014-06-15_12-31-26_094959634447_rgbf000150-resize_1/002995_2014-06-15_12-31-26_094959634447_rgbf000150-resize_1-target.png,125,3.8360000000000003,6.0,3909,124,feet,jsons/VE125_randls_8_rotated.json,736499,1796514,66,Woman
85,559550,DepthScenes,duration_manipulation_targetAtFixation,jsons/VE125_randls_8_rotated.json,http://54.235.29.9/FacialAge/BNav_EC2/DepthDuration/v2_depth_duration_MTurk/v2_DepthDuration_HTML.html#218,218,1093,614,1366,768,9-3-2022,9-8-39,86,depth_duration_stimuli/002748_2014-06-22_19-07-22_094959634447_rgbf000078-resize_1/002748_2014-06-22_19-07-22_094959634447_rgbf000078-resize_1-target.png,125,4.6705,6.0,3746,124,feet,jsons/VE125_randls_8_rotated.json,736499,1796514,66,Woman
86,559550,DepthScenes,duration_manipulation_targetAtFixation,jsons/VE125_randls_8_rotated.json,http://54.235.29.9/FacialAge/BNav_EC2/DepthDuration/v2_depth_duration_MTurk/v2_DepthDuration_HTML.html#218,218,1093,614,1366,768,9-3-2022,9-8-39,87,depth_duration_stimuli/000556_2014-06-09_22-42-56_260595134347_rgbf000214-resize_1/000556_2014-06-09_22-42-56_260595134347_rgbf000214-resize_1-target.png,125,4.8415,7.0,4462,130,feet,jsons/VE125_randls_8_rotated.json,736499,1796514,66,Woman
87,559550,DepthScenes,duration_manipulation_targetAtFixation,jsons/VE125_randls_8_rotated.json,http://54.235.29.9/FacialAge/BNav_EC2/DepthDuration/v2_depth_duration_MTurk/v2_DepthDuration_HTML.html#218,218,1093,614,1366,768,9-3-2022,9-8-39,88,depth_duration_stimuli/001158_2014-06-17_15-32-16_260595134347_rgbf000138-resize_2/001158_2014-06-17_15-32-16_260595134347_rgbf000138-resize_2-target.png,125,4.5315,6.0,3577,123,feet,jsons/VE125_randls_8_rotated.json,736499,1796514,66,Woman
88,559550,DepthScenes,duration_manipulation_targetAtFixation,jsons/VE125_randls_8_rotated.json,http://54.235.29.9/FacialAge/BNav_EC2/DepthDuration/v2_depth_duration_MTurk/v2_DepthDuration_HTML.html#218,218,1093,614,1366,768,9-3-2022,9-8-39,89,depth_duration_stimuli/002199_2014-06-28_18-33-56_260595134347_rgbf000074-resize_0/002199_2014-06-28_18-33-56_260595134347_rgbf000074-resize_0-target.png,125,1.996,2.0,3748,130,feet,jsons/VE125_randls_8_rotated.json,736499,1796514,66,Woman
89,559550,DepthScenes,duration_manipulation_targetAtFixation,jsons/VE125_randls_8_rotated.json,http://54.235.29.9/FacialAge/BNav_EC2/DepthDuration/v2_depth_duration_MTurk/v2_DepthDuration_HTML.html#218,218,1093,614,1366,768,9-3-2022,9-8-39,90,depth_duration_stimuli/001056_2014-06-08_18-46-44_260595134347_rgbf000068-resize_0/001056_2014-06-08_18-46-44_260595134347_rgbf000068-resize_0-target.png,125,2.6625,4.0,3241,109,feet,jsons/VE125_randls_8_rotated.json,736499,1796514,66,Woman
90,559550,DepthScenes,duration_manipulation_targetAtFixation,jsons/VE125_randls_8_rotated.json,http://54.235.29.9/FacialAge/BNav_EC2/DepthDuration/v2_depth_duration_MTurk/v2_DepthDuration_HTML.html#218,218,1093,614,1366,768,9-3-2022,9-8-39,91,depth_duration_stimuli/000502_2014-06-08_23-02-32_260595134347_rgbf000063-resize_4/000502_2014-06-08_23-02-32_260595134347_rgbf000063-resize_4-target.png,125,2.431,3.0,3422,124,feet,jsons/VE125_randls_8_rotated.json,736499,1796514,66,Woman
91,559550,DepthScenes,duration_manipulation_targetAtFixation,jsons/VE125_randls_8_rotated.json,http://54.235.29.9/FacialAge/BNav_EC2/DepthDuration/v2_depth_duration_MTurk/v2_DepthDuration_HTML.html#218,218,1093,614,1366,768,9-3-2022,9-8-39,92,depth_duration_stimuli/001199_2014-06-17_16-03-48_260595134347_rgbf000077-resize_0/001199_2014-06-17_16-03-48_260595134347_rgbf000077-resize_0-target.png,125,3.4375,5.0,3141,123,feet,jsons/VE125_randls_8_rotated.json,736499,1796514,66,Woman
92,559550,DepthScenes,duration_manipulation_targetAtFixation,jsons/VE125_randls_8_rotated.json,http://54.235.29.9/FacialAge/BNav_EC2/DepthDuration/v2_depth_duration_MTurk/v2_DepthDuration_HTML.html#218,218,1093,614,1366,768,9-3-2022,9-8-39,93,depth_duration_stimuli/002805_2014-06-22_19-54-03_094959634447_rgbf000079-resize_1/002805_2014-06-22_19-54-03_094959634447_rgbf000079-resize_1-target.png,125,3.1439999999999997,7.0,3574,109,feet,jsons/VE125_randls_8_rotated.json,736499,1796514,66,Woman
93,559550,DepthScenes,duration_manipulation_targetAtFixation,jsons/VE125_randls_8_rotated.json,http://54.235.29.9/FacialAge/BNav_EC2/DepthDuration/v2_depth_duration_MTurk/v2_DepthDuration_HTML.html#218,218,1093,614,1366,768,9-3-2022,9-8-39,94,depth_duration_stimuli/000906_2014-06-08_13-35-43_260595134347_rgbf000155-resize_1/000906_2014-06-08_13-35-43_260595134347_rgbf000155-resize_1-target.png,125,2.8489999999999998,6.0,3557,122,feet,jsons/VE125_randls_8_rotated.json,736499,1796514,66,Woman
94,559550,DepthScenes,duration_manipulation_targetAtFixation,jsons/VE125_randls_8_rotated.json,http://54.235.29.9/FacialAge/BNav_EC2/DepthDuration/v2_depth_duration_MTurk/v2_DepthDuration_HTML.html#218,218,1093,614,1366,768,9-3-2022,9-8-39,95,depth_duration_stimuli/003587_2014-05-23_16-48-02_094959634447_rgbf002384-resize_2/003587_2014-05-23_16-48-02_094959634447_rgbf002384-resize_2-target.png,125,1.357,2.0,3224,122,feet,jsons/VE125_randls_8_rotated.json,736499,1796514,66,Woman
95,559550,DepthScenes,duration_manipulation_targetAtFixation,jsons/VE125_randls_8_rotated.json,http://54.235.29.9/FacialAge/BNav_EC2/DepthDuration/v2_depth_duration_MTurk/v2_DepthDuration_HTML.html#218,218,1093,614,1366,768,9-3-2022,9-8-39,96,depth_duration_stimuli/001167_2014-06-17_15-38-07_260595134347_rgbf000108-resize_0/001167_2014-06-17_15-38-07_260595134347_rgbf000108-resize_0-target.png,125,1.8505,2.0,3226,124,feet,jsons/VE125_randls_8_rotated.json,736499,1796514,66,Woman
96,559550,DepthScenes,duration_manipulation_targetAtFixation,jsons/VE125_randls_8_rotated.json,http://54.235.29.9/FacialAge/BNav_EC2/DepthDuration/v2_depth_duration_MTurk/v2_DepthDuration_HTML.html#218,218,1093,614,1366,768,9-3-2022,9-8-39,97,depth_duration_stimuli/001100_2014-06-15_17-46-26_260595134347_rgbf000225-resize_2/001100_2014-06-15_17-46-26_260595134347_rgbf000225-resize_2-target.png,125,2.24,3.0,3874,138,feet,jsons/VE125_randls_8_rotated.json,736499,1796514,66,Woman
97,559550,DepthScenes,duration_manipulation_targetAtFixation,jsons/VE125_randls_8_rotated.json,http://54.235.29.9/FacialAge/BNav_EC2/DepthDuration/v2_depth_duration_MTurk/v2_DepthDuration_HTML.html#218,218,1093,614,1366,768,9-3-2022,9-8-39,98,depth_duration_stimuli/002784_2014-06-22_19-26-30_094959634447_rgbf000083-resize_3/002784_2014-06-22_19-26-30_094959634447_rgbf000083-resize_3-target.png,125,1.8046666666667,4.0,5459,121,feet,jsons/VE125_randls_8_rotated.json,736499,1796514,66,Woman
98,559550,DepthScenes,duration_manipulation_targetAtFixation,jsons/VE125_randls_8_rotated.json,http://54.235.29.9/FacialAge/BNav_EC2/DepthDuration/v2_depth_duration_MTurk/v2_DepthDuration_HTML.html#218,218,1093,614,1366,768,9-3-2022,9-8-39,99,depth_duration_stimuli/001222_2014-06-17_16-24-06_260595134347_rgbf000073-resize_0/001222_2014-06-17_16-24-06_260595134347_rgbf000073-resize-original.jpg,125,1.4385,0.0,3166,123,feet,jsons/VE125_randls_8_rotated.json,736499,1796514,66,Woman
99,559550,DepthScenes,duration_manipulation_targetAtFixation,jsons/VE125_randls_8_rotated.json,http://54.235.29.9/FacialAge/BNav_EC2/DepthDuration/v2_depth_duration_MTurk/v2_DepthDuration_HTML.html#218,218,1093,614,1366,768,9-3-2022,9-8-39,100,depth_duration_stimuli/000927_2014-06-09_16-32-30_260595134347_rgbf000123-resize_3/000927_2014-06-09_16-32-30_260595134347_rgbf000123-resize_3-target.png,125,2.6785,5.0,3474,123,feet,jsons/VE125_randls_8_rotated.json,736499,1796514,66,Woman
100,559550,DepthScenes,duration_manipulation_targetAtFixation,jsons/VE125_randls_8_rotated.json,http://54.235.29.9/FacialAge/BNav_EC2/DepthDuration/v2_depth_duration_MTurk/v2_DepthDuration_HTML.html#218,218,1093,614,1366,768,9-3-2022,9-8-39,101,depth_duration_stimuli/001110_2014-06-15_17-25-28_260595134347_rgbf000150-resize_1/001110_2014-06-15_17-25-28_260595134347_rgbf000150-resize_1-target.png,125,1.7115,4.0,3623,138,feet,jsons/VE125_randls_8_rotated.json,736499,1796514,66,Woman
101,559550,DepthScenes,duration_manipulation_targetAtFixation,jsons/VE125_randls_8_rotated.json,http://54.235.29.9/FacialAge/BNav_EC2/DepthDuration/v2_depth_duration_MTurk/v2_DepthDuration_HTML.html#218,218,1093,614,1366,768,9-3-2022,9-8-39,102,depth_duration_stimuli/003079_2014-06-15_15-18-20_094959634447_rgbf000152-resize_8/003079_2014-06-15_15-18-20_094959634447_rgbf000152-resize_8-target.png,125,2.8775,5.0,3498,123,feet,jsons/VE125_randls_8_rotated.json,736499,1796514,66,Woman
102,559550,DepthScenes,duration_manipulation_targetAtFixation,jsons/VE125_randls_8_rotated.json,http://54.235.29.9/FacialAge/BNav_EC2/DepthDuration/v2_depth_duration_MTurk/v2_DepthDuration_HTML.html#218,218,1093,614,1366,768,9-3-2022,9-8-39,103,depth_duration_stimuli/000506_2014-06-08_23-21-00_260595134347_rgbf000070-resize_7/000506_2014-06-08_23-21-00_260595134347_rgbf000070-resize_7-target.png,125,4.0585,5.0,3471,126,feet,jsons/VE125_randls_8_rotated.json,736499,1796514,66,Woman
103,559550,DepthScenes,duration_manipulation_targetAtFixation,jsons/VE125_randls_8_rotated.json,http://54.235.29.9/FacialAge/BNav_EC2/DepthDuration/v2_depth_duration_MTurk/v2_DepthDuration_HTML.html#218,218,1093,614,1366,768,9-3-2022,9-8-39,104,depth_duration_stimuli/001450_2014-06-19_17-02-03_260595134347_rgbf000203-resize_4/001450_2014-06-19_17-02-03_260595134347_rgbf000203-resize_4-target.png,125,4.0106666666667,5.0,3722,122,feet,jsons/VE125_randls_8_rotated.json,736499,1796514,66,Woman
104,559550,DepthScenes,duration_manipulation_targetAtFixation,jsons/VE125_randls_8_rotated.json,http://54.235.29.9/FacialAge/BNav_EC2/DepthDuration/v2_depth_duration_MTurk/v2_DepthDuration_HTML.html#218,218,1093,614,1366,768,9-3-2022,9-8-39,105,depth_duration_stimuli/001449_2014-06-19_17-01-27_260595134347_rgbf000116-resize_2/001449_2014-06-19_17-01-27_260595134347_rgbf000116-resize_2-target.png,125,3.452,6.0,3932,123,feet,jsons/VE125_randls_8_rotated.json,736499,1796514,66,Woman
105,559550,DepthScenes,duration_manipulation_targetAtFixation,jsons/VE125_randls_8_rotated.json,http://54.235.29.9/FacialAge/BNav_EC2/DepthDuration/v2_depth_duration_MTurk/v2_DepthDuration_HTML.html#218,218,1093,614,1366,768,9-3-2022,9-8-39,106,depth_duration_stimuli/002639_2014-06-24_14-51-37_094959634447_rgbf000074-resize_4/002639_2014-06-24_14-51-37_094959634447_rgbf000074-resize_4-target.png,125,4.0375,5.0,3580,123,feet,jsons/VE125_randls_8_rotated.json,736499,1796514,66,Woman
106,559550,DepthScenes,duration_manipulation_targetAtFixation,jsons/VE125_randls_8_rotated.json,http://54.235.29.9/FacialAge/BNav_EC2/DepthDuration/v2_depth_duration_MTurk/v2_DepthDuration_HTML.html#218,218,1093,614,1366,768,9-3-2022,9-8-39,107,depth_duration_stimuli/003292_2014-05-14_21-53-49_094959634447_rgbf000100-resize_2/003292_2014-05-14_21-53-49_094959634447_rgbf000100-resize_2-target.png,125,3.4815,4.0,3672,124,feet,jsons/VE125_randls_8_rotated.json,736499,1796514,66,Woman
107,559550,DepthScenes,duration_manipulation_targetAtFixation,jsons/VE125_randls_8_rotated.json,http://54.235.29.9/FacialAge/BNav_EC2/DepthDuration/v2_depth_duration_MTurk/v2_DepthDuration_HTML.html#218,218,1093,614,1366,768,9-3-2022,9-8-39,108,depth_duration_stimuli/000866_2014-06-09_20-45-42_260595134347_rgbf000139-resize_1/000866_2014-06-09_20-45-42_260595134347_rgbf000139-resize_1-target.png,125,3.2155,5.0,3251,122,feet,jsons/VE125_randls_8_rotated.json,736499,1796514,66,Woman
108,559550,DepthScenes,duration_manipulation_targetAtFixation,jsons/VE125_randls_8_rotated.json,http://54.235.29.9/FacialAge/BNav_EC2/DepthDuration/v2_depth_duration_MTurk/v2_DepthDuration_HTML.html#218,218,1093,614,1366,768,9-3-2022,9-8-39,109,depth_duration_stimuli/002989_2014-06-15_12-25-03_094959634447_rgbf000150-resize_3/002989_2014-06-15_12-25-03_094959634447_rgbf000150-resize_3-target.png,125,4.1975,4.0,3444,124,feet,jsons/VE125_randls_8_rotated.json,736499,1796514,66,Woman
109,559550,DepthScenes,duration_manipulation_targetAtFixation,jsons/VE125_randls_8_rotated.json,http://54.235.29.9/FacialAge/BNav_EC2/DepthDuration/v2_depth_duration_MTurk/v2_DepthDuration_HTML.html#218,218,1093,614,1366,768,9-3-2022,9-8-39,110,depth_duration_stimuli/001584_2014-06-20_11-07-43_260595134347_rgbf000002-resize_1/001584_2014-06-20_11-07-43_260595134347_rgbf000002-resize_1-target.png,125,3.53,4.0,3432,123,feet,jsons/VE125_randls_8_rotated.json,736499,1796514,66,Woman
110,559550,DepthScenes,duration_manipulation_targetAtFixation,jsons/VE125_randls_8_rotated.json,http://54.235.29.9/FacialAge/BNav_EC2/DepthDuration/v2_depth_duration_MTurk/v2_DepthDuration_HTML.html#218,218,1093,614,1366,768,9-3-2022,9-8-39,111,depth_duration_stimuli/003621_2014-05-23_18-06-08_094959634447_rgbf000101-resize_1/003621_2014-05-23_18-06-08_094959634447_rgbf000101-resize_1-target.png,125,3.9835,6.0,5011,123,feet,jsons/VE125_randls_8_rotated.json,736499,1796514,66,Woman
111,559550,DepthScenes,duration_manipulation_targetAtFixation,jsons/VE125_randls_8_rotated.json,http://54.235.29.9/FacialAge/BNav_EC2/DepthDuration/v2_depth_duration_MTurk/v2_DepthDuration_HTML.html#218,218,1093,614,1366,768,9-3-2022,9-8-39,112,depth_duration_stimuli/002678_2014-06-13_16-15-32_094959634447_rgbf000151-resize_6/002678_2014-06-13_16-15-32_094959634447_rgbf000151-resize_6-target.png,125,2.1830000000000003,6.0,7085,123,feet,jsons/VE125_randls_8_rotated.json,736499,1796514,66,Woman
112,559550,DepthScenes,duration_manipulation_targetAtFixation,jsons/VE125_randls_8_rotated.json,http://54.235.29.9/FacialAge/BNav_EC2/DepthDuration/v2_depth_duration_MTurk/v2_DepthDuration_HTML.html#218,218,1093,614,1366,768,9-3-2022,9-8-39,113,depth_duration_stimuli/000368_2014-06-09_15-53-01_260595134347_rgbf000155-resize_2/000368_2014-06-09_15-53-01_260595134347_rgbf000155-resize_2-target.png,125,2.4859999999999998,4.0,3516,125,feet,jsons/VE125_randls_8_rotated.json,736499,1796514,66,Woman
113,559550,DepthScenes,duration_manipulation_targetAtFixation,jsons/VE125_randls_8_rotated.json,http://54.235.29.9/FacialAge/BNav_EC2/DepthDuration/v2_depth_duration_MTurk/v2_DepthDuration_HTML.html#218,218,1093,614,1366,768,9-3-2022,9-8-39,114,depth_duration_stimuli/002568_2014-06-24_13-59-21_094959634447_rgbf000062-resize_4/002568_2014-06-24_13-59-21_094959634447_rgbf000062-resize_4-target.png,125,3.015,5.0,3203,124,feet,jsons/VE125_randls_8_rotated.json,736499,1796514,66,Woman
114,559550,DepthScenes,duration_manipulation_targetAtFixation,jsons/VE125_randls_8_rotated.json,http://54.235.29.9/FacialAge/BNav_EC2/DepthDuration/v2_depth_duration_MTurk/v2_DepthDuration_HTML.html#218,218,1093,614,1366,768,9-3-2022,9-8-39,115,depth_duration_stimuli/003492_2014-05-21_15-50-55_094959634447_rgbf000828-resize_1/003492_2014-05-21_15-50-55_094959634447_rgbf000828-resize_1-target.png,125,4.06875,8.0,3538,124,feet,jsons/VE125_randls_8_rotated.json,736499,1796514,66,Woman
115,559550,DepthScenes,duration_manipulation_targetAtFixation,jsons/VE125_randls_8_rotated.json,http://54.235.29.9/FacialAge/BNav_EC2/DepthDuration/v2_depth_duration_MTurk/v2_DepthDuration_HTML.html#218,218,1093,614,1366,768,9-3-2022,9-8-39,116,depth_duration_stimuli/003338_2014-05-20_11-01-23_094959634447_rgbf000051-resize_6/003338_2014-05-20_11-01-23_094959634447_rgbf000051-resize_6-target.png,125,1.693,3.0,3694,121,feet,jsons/VE125_randls_8_rotated.json,736499,1796514,66,Woman
116,559550,DepthScenes,duration_manipulation_targetAtFixation,jsons/VE125_randls_8_rotated.json,http://54.235.29.9/FacialAge/BNav_EC2/DepthDuration/v2_depth_duration_MTurk/v2_DepthDuration_HTML.html#218,218,1093,614,1366,768,9-3-2022,9-8-39,117,depth_duration_stimuli/002509_2014-06-24_13-19-22_094959634447_rgbf000077-resize_0/002509_2014-06-24_13-19-22_094959634447_rgbf000077-resize_0-target.png,125,1.3065,2.0,3198,139,feet,jsons/VE125_randls_8_rotated.json,736499,1796514,66,Woman
117,559550,DepthScenes,duration_manipulation_targetAtFixation,jsons/VE125_randls_8_rotated.json,http://54.235.29.9/FacialAge/BNav_EC2/DepthDuration/v2_depth_duration_MTurk/v2_DepthDuration_HTML.html#218,218,1093,614,1366,768,9-3-2022,9-8-39,118,depth_duration_stimuli/000749_2014-06-08_21-55-06_260595134347_rgbf000070-resize_2/000749_2014-06-08_21-55-06_260595134347_rgbf000070-resize_2-target.png,125,2.331,4.0,3811,124,feet,jsons/VE125_randls_8_rotated.json,736499,1796514,66,Woman
118,559550,DepthScenes,duration_manipulation_targetAtFixation,jsons/VE125_randls_8_rotated.json,http://54.235.29.9/FacialAge/BNav_EC2/DepthDuration/v2_depth_duration_MTurk/v2_DepthDuration_HTML.html#218,218,1093,614,1366,768,9-3-2022,9-8-39,119,depth_duration_stimuli/002788_2014-06-22_19-36-03_094959634447_rgbf000088-resize_2/002788_2014-06-22_19-36-03_094959634447_rgbf000088-resize_2-target.png,125,1.6465,6.0,3611,125,feet,jsons/VE125_randls_8_rotated.json,736499,1796514,66,Woman
119,559550,DepthScenes,duration_manipulation_targetAtFixation,jsons/VE125_randls_8_rotated.json,http://54.235.29.9/FacialAge/BNav_EC2/DepthDuration/v2_depth_duration_MTurk/v2_DepthDuration_HTML.html#218,218,1093,614,1366,768,9-3-2022,9-8-39,120,depth_duration_stimuli/000787_2014-06-08_22-33-53_260595134347_rgbf000175-resize_1/000787_2014-06-08_22-33-53_260595134347_rgbf000175-resize-original.jpg,125,4.784,0.0,3515,125,feet,jsons/VE125_randls_8_rotated.json,736499,1796514,66,Woman
120,559550,DepthScenes,duration_manipulation_targetAtFixation,jsons/VE125_randls_8_rotated.json,http://54.235.29.9/FacialAge/BNav_EC2/DepthDuration/v2_depth_duration_MTurk/v2_DepthDuration_HTML.html#218,218,1093,614,1366,768,9-3-2022,9-8-39,121,depth_duration_stimuli/000409_2014-06-04_19-23-33_260595134347_rgbf000067-resize_0/000409_2014-06-04_19-23-33_260595134347_rgbf000067-resize_0-target.png,125,3.7335,6.0,4232,122,feet,jsons/VE125_randls_8_rotated.json,736499,1796514,66,Woman
121,559550,DepthScenes,duration_manipulation_targetAtFixation,jsons/VE125_randls_8_rotated.json,http://54.235.29.9/FacialAge/BNav_EC2/DepthDuration/v2_depth_duration_MTurk/v2_DepthDuration_HTML.html#218,218,1093,614,1366,768,9-3-2022,9-8-39,122,depth_duration_stimuli/002663_2014-06-13_15-50-26_094959634447_rgbf000075-resize_1/002663_2014-06-13_15-50-26_094959634447_rgbf000075-resize_1-target.png,125,4.7495,7.0,3958,124,feet,jsons/VE125_randls_8_rotated.json,736499,1796514,66,Woman
122,559550,DepthScenes,duration_manipulation_targetAtFixation,jsons/VE125_randls_8_rotated.json,http://54.235.29.9/FacialAge/BNav_EC2/DepthDuration/v2_depth_duration_MTurk/v2_DepthDuration_HTML.html#218,218,1093,614,1366,768,9-3-2022,9-8-39,123,depth_duration_stimuli/002414_2014-06-28_20-24-58_260595134347_rgbf000067-resize_4/002414_2014-06-28_20-24-58_260595134347_rgbf000067-resize_4-target.png,125,4.363,9.0,3787,124,feet,jsons/VE125_randls_8_rotated.json,736499,1796514,66,Woman
123,559550,DepthScenes,duration_manipulation_targetAtFixation,jsons/VE125_randls_8_rotated.json,http://54.235.29.9/FacialAge/BNav_EC2/DepthDuration/v2_depth_duration_MTurk/v2_DepthDuration_HTML.html#218,218,1093,614,1366,768,9-3-2022,9-8-39,124,depth_duration_stimuli/000773_2014-06-08_22-24-54_260595134347_rgbf000093-resize_1/000773_2014-06-08_22-24-54_260595134347_rgbf000093-resize_1-target.png,125,4.973,7.0,3600,122,feet,jsons/VE125_randls_8_rotated.json,736499,1796514,66,Woman
124,559550,DepthScenes,duration_manipulation_targetAtFixation,jsons/VE125_randls_8_rotated.json,http://54.235.29.9/FacialAge/BNav_EC2/DepthDuration/v2_depth_duration_MTurk/v2_DepthDuration_HTML.html#218,218,1093,614,1366,768,9-3-2022,9-8-39,125,depth_duration_stimuli/000742_2014-06-08_18-48-09_260595134347_rgbf000164-resize_4/000742_2014-06-08_18-48-09_260595134347_rgbf000164-resize_4-target.png,125,4.632,7.0,4166,126,feet,jsons/VE125_randls_8_rotated.json,736499,1796514,66,Woman
125,559550,DepthScenes,duration_manipulation_targetAtFixation,jsons/VE125_randls_8_rotated.json,http://54.235.29.9/FacialAge/BNav_EC2/DepthDuration/v2_depth_duration_MTurk/v2_DepthDuration_HTML.html#218,218,1093,614,1366,768,9-3-2022,9-8-39,126,depth_duration_stimuli/001066_2014-06-08_22-03-20_260595134347_rgbf000066-resize_4/001066_2014-06-08_22-03-20_260595134347_rgbf000066-resize_4-target.png,125,4.2330000000000005,6.0,3018,122,feet,jsons/VE125_randls_8_rotated.json,736499,1796514,66,Woman
126,559550,DepthScenes,duration_manipulation_targetAtFixation,jsons/VE125_randls_8_rotated.json,http://54.235.29.9/FacialAge/BNav_EC2/DepthDuration/v2_depth_duration_MTurk/v2_DepthDuration_HTML.html#218,218,1093,614,1366,768,9-3-2022,9-8-39,127,depth_duration_stimuli/000457_2014-06-08_16-52-43_260595134347_rgbf000199-resize_1/000457_2014-06-08_16-52-43_260595134347_rgbf000199-resize_1-target.png,125,3.6489999999999996,6.0,3668,123,feet,jsons/VE125_randls_8_rotated.json,736499,1796514,66,Woman
127,559550,DepthScenes,duration_manipulation_targetAtFixation,jsons/VE125_randls_8_rotated.json,http://54.235.29.9/FacialAge/BNav_EC2/DepthDuration/v2_depth_duration_MTurk/v2_DepthDuration_HTML.html#218,218,1093,614,1366,768,9-3-2022,9-8-39,128,depth_duration_stimuli/000929_2014-06-09_16-33-19_260595134347_rgbf000139-resize_0/000929_2014-06-09_16-33-19_260595134347_rgbf000139-resize_0-target.png,125,2.8680000000000003,4.0,3273,123,feet,jsons/VE125_randls_8_rotated.json,736499,1796514,66,Woman
128,559550,DepthScenes,duration_manipulation_targetAtFixation,jsons/VE125_randls_8_rotated.json,http://54.235.29.9/FacialAge/BNav_EC2/DepthDuration/v2_depth_duration_MTurk/v2_DepthDuration_HTML.html#218,218,1093,614,1366,768,9-3-2022,9-8-39,129,depth_duration_stimuli/003081_2014-06-15_15-19-16_094959634447_rgbf000150-resize_1/003081_2014-06-15_15-19-16_094959634447_rgbf000150-resize_1-target.png,125,3.9125,5.0,3199,132,feet,jsons/VE125_randls_8_rotated.json,736499,1796514,66,Woman
129,559550,DepthScenes,duration_manipulation_targetAtFixation,jsons/VE125_randls_8_rotated.json,http://54.235.29.9/FacialAge/BNav_EC2/DepthDuration/v2_depth_duration_MTurk/v2_DepthDuration_HTML.html#218,218,1093,614,1366,768,9-3-2022,9-8-39,130,depth_duration_stimuli/001417_2014-06-19_16-25-36_260595134347_rgbf000115-resize_5/001417_2014-06-19_16-25-36_260595134347_rgbf000115-resize_5-target.png,125,4.6255,6.0,4190,124,feet,jsons/VE125_randls_8_rotated.json,736499,1796514,66,Woman
130,559550,DepthScenes,duration_manipulation_targetAtFixation,jsons/VE125_randls_8_rotated.json,http://54.235.29.9/FacialAge/BNav_EC2/DepthDuration/v2_depth_duration_MTurk/v2_DepthDuration_HTML.html#218,218,1093,614,1366,768,9-3-2022,9-8-39,131,depth_duration_stimuli/003129_2014-05-12_10-48-10_094959634447_rgbf000100-resize_0/003129_2014-05-12_10-48-10_094959634447_rgbf000100-resize_0-target.png,125,4.9305,7.0,3239,123,feet,jsons/VE125_randls_8_rotated.json,736499,1796514,66,Woman
131,559550,DepthScenes,duration_manipulation_targetAtFixation,jsons/VE125_randls_8_rotated.json,http://54.235.29.9/FacialAge/BNav_EC2/DepthDuration/v2_depth_duration_MTurk/v2_DepthDuration_HTML.html#218,218,1093,614,1366,768,9-3-2022,9-8-39,132,depth_duration_stimuli/000414_2014-06-04_19-49-13_260595134347_rgbf000044-resize_0/000414_2014-06-04_19-49-13_260595134347_rgbf000044-resize_0-target.png,125,4.329,9.0,6099,125,feet,jsons/VE125_randls_8_rotated.json,736499,1796514,66,Woman
132,559550,DepthScenes,duration_manipulation_targetAtFixation,jsons/VE125_randls_8_rotated.json,http://54.235.29.9/FacialAge/BNav_EC2/DepthDuration/v2_depth_duration_MTurk/v2_DepthDuration_HTML.html#218,218,1093,614,1366,768,9-3-2022,9-8-39,133,depth_duration_stimuli/001392_2014-06-19_16-07-59_260595134347_rgbf000046-resize_1/001392_2014-06-19_16-07-59_260595134347_rgbf000046-resize_1-target.png,125,4.135,9.0,3282,123,feet,jsons/VE125_randls_8_rotated.json,736499,1796514,66,Woman
133,559550,DepthScenes,duration_manipulation_targetAtFixation,jsons/VE125_randls_8_rotated.json,http://54.235.29.9/FacialAge/BNav_EC2/DepthDuration/v2_depth_duration_MTurk/v2_DepthDuration_HTML.html#218,218,1093,614,1366,768,9-3-2022,9-8-39,134,depth_duration_stimuli/001570_2014-06-20_17-21-09_260595134347_rgbf000135-resize_4/001570_2014-06-20_17-21-09_260595134347_rgbf000135-resize_4-target.png,125,4.467,7.0,3667,127,feet,jsons/VE125_randls_8_rotated.json,736499,1796514,66,Woman
134,559550,DepthScenes,duration_manipulation_targetAtFixation,jsons/VE125_randls_8_rotated.json,http://54.235.29.9/FacialAge/BNav_EC2/DepthDuration/v2_depth_duration_MTurk/v2_DepthDuration_HTML.html#218,218,1093,614,1366,768,9-3-2022,9-8-39,135,depth_duration_stimuli/000375_2014-06-08_11-17-29_260595134347_rgbf000133-resize_2/000375_2014-06-08_11-17-29_260595134347_rgbf000133-resize-original.jpg,125,4.718,0.0,3091,123,feet,jsons/VE125_randls_8_rotated.json,736499,1796514,66,Woman
135,559550,DepthScenes,duration_manipulation_targetAtFixation,jsons/VE125_randls_8_rotated.json,http://54.235.29.9/FacialAge/BNav_EC2/DepthDuration/v2_depth_duration_MTurk/v2_DepthDuration_HTML.html#218,218,1093,614,1366,768,9-3-2022,9-8-39,136,depth_duration_stimuli/002209_2014-06-28_18-36-10_260595134347_rgbf000051-resize_1/002209_2014-06-28_18-36-10_260595134347_rgbf000051-resize_1-target.png,125,2.057,3.0,3249,123,feet,jsons/VE125_randls_8_rotated.json,736499,1796514,66,Woman
136,559550,DepthScenes,duration_manipulation_targetAtFixation,jsons/VE125_randls_8_rotated.json,http://54.235.29.9/FacialAge/BNav_EC2/DepthDuration/v2_depth_duration_MTurk/v2_DepthDuration_HTML.html#218,218,1093,614,1366,768,9-3-2022,9-8-39,137,depth_duration_stimuli/002763_2014-06-22_19-13-10_094959634447_rgbf000075-resize_4/002763_2014-06-22_19-13-10_094959634447_rgbf000075-resize_4-target.png,125,1.68375,5.0,3158,124,feet,jsons/VE125_randls_8_rotated.json,736499,1796514,66,Woman
137,559550,DepthScenes,duration_manipulation_targetAtFixation,jsons/VE125_randls_8_rotated.json,http://54.235.29.9/FacialAge/BNav_EC2/DepthDuration/v2_depth_duration_MTurk/v2_DepthDuration_HTML.html#218,218,1093,614,1366,768,9-3-2022,9-8-39,138,depth_duration_stimuli/003495_2014-05-21_16-01-51_094959634447_rgbf000100-resize_3/003495_2014-05-21_16-01-51_094959634447_rgbf000100-resize_3-target.png,125,1.6255,2.0,3445,123,feet,jsons/VE125_randls_8_rotated.json,736499,1796514,66,Woman
138,559550,DepthScenes,duration_manipulation_targetAtFixation,jsons/VE125_randls_8_rotated.json,http://54.235.29.9/FacialAge/BNav_EC2/DepthDuration/v2_depth_duration_MTurk/v2_DepthDuration_HTML.html#218,218,1093,614,1366,768,9-3-2022,9-8-39,139,depth_duration_stimuli/001244_2014-06-17_16-47-45_260595134347_rgbf000030-resize_4/001244_2014-06-17_16-47-45_260595134347_rgbf000030-resize_4-target.png,125,2.0425,3.0,4474,121,feet,jsons/VE125_randls_8_rotated.json,736499,1796514,66,Woman
139,559550,DepthScenes,duration_manipulation_targetAtFixation,jsons/VE125_randls_8_rotated.json,http://54.235.29.9/FacialAge/BNav_EC2/DepthDuration/v2_depth_duration_MTurk/v2_DepthDuration_HTML.html#218,218,1093,614,1366,768,9-3-2022,9-8-39,140,depth_duration_stimuli/000191_2014-05-12_17-07-38_260595134347_rgbf000199-resize_0/000191_2014-05-12_17-07-38_260595134347_rgbf000199-resize_0-target.png,125,3.7995,6.0,3343,123,feet,jsons/VE125_randls_8_rotated.json,736499,1796514,66,Woman
140,559550,DepthScenes,duration_manipulation_targetAtFixation,jsons/VE125_randls_8_rotated.json,http://54.235.29.9/FacialAge/BNav_EC2/DepthDuration/v2_depth_duration_MTurk/v2_DepthDuration_HTML.html#218,218,1093,614,1366,768,9-3-2022,9-8-39,141,depth_duration_stimuli/000493_2014-06-09_21-01-18_260595134347_rgbf000196-resize_3/000493_2014-06-09_21-01-18_260595134347_rgbf000196-resize_3-target.png,125,3.44,5.0,3490,124,feet,jsons/VE125_randls_8_rotated.json,736499,1796514,66,Woman
141,559550,DepthScenes,duration_manipulation_targetAtFixation,jsons/VE125_randls_8_rotated.json,http://54.235.29.9/FacialAge/BNav_EC2/DepthDuration/v2_depth_duration_MTurk/v2_DepthDuration_HTML.html#218,218,1093,614,1366,768,9-3-2022,9-8-39,142,depth_duration_stimuli/000137_2014-05-20_17-04-49_260595134347_rgbf000120-resize_1/000137_2014-05-20_17-04-49_260595134347_rgbf000120-resize_1-target.png,125,3.786,5.0,3510,123,feet,jsons/VE125_randls_8_rotated.json,736499,1796514,66,Woman
142,559550,DepthScenes,duration_manipulation_targetAtFixation,jsons/VE125_randls_8_rotated.json,http://54.235.29.9/FacialAge/BNav_EC2/DepthDuration/v2_depth_duration_MTurk/v2_DepthDuration_HTML.html#218,218,1093,614,1366,768,9-3-2022,9-8-39,143,depth_duration_stimuli/000736_2014-06-08_18-24-15_260595134347_rgbf000206-resize_3/000736_2014-06-08_18-24-15_260595134347_rgbf000206-resize_3-target.png,125,3.515,4.0,3248,124,feet,jsons/VE125_randls_8_rotated.json,736499,1796514,66,Woman
143,559550,DepthScenes,duration_manipulation_targetAtFixation,jsons/VE125_randls_8_rotated.json,http://54.235.29.9/FacialAge/BNav_EC2/DepthDuration/v2_depth_duration_MTurk/v2_DepthDuration_HTML.html#218,218,1093,614,1366,768,9-3-2022,9-8-39,144,depth_duration_stimuli/001032_2014-06-08_13-23-17_260595134347_rgbf000021-resize_3/001032_2014-06-08_13-23-17_260595134347_rgbf000021-resize_3-target.png,125,3.2725,4.0,3689,123,feet,jsons/VE125_randls_8_rotated.json,736499,1796514,66,Woman
144,559550,DepthScenes,duration_manipulation_targetAtFixation,jsons/VE125_randls_8_rotated.json,http://54.235.29.9/FacialAge/BNav_EC2/DepthDuration/v2_depth_duration_MTurk/v2_DepthDuration_HTML.html#218,218,1093,614,1366,768,9-3-2022,9-8-39,145,depth_duration_stimuli/001059_2014-06-08_21-53-27_260595134347_rgbf000061-resize_4/001059_2014-06-08_21-53-27_260595134347_rgbf000061-resize_4-target.png,125,2.4185,3.0,3226,109,feet,jsons/VE125_randls_8_rotated.json,736499,1796514,66,Woman
145,559550,DepthScenes,duration_manipulation_targetAtFixation,jsons/VE125_randls_8_rotated.json,http://54.235.29.9/FacialAge/BNav_EC2/DepthDuration/v2_depth_duration_MTurk/v2_DepthDuration_HTML.html#218,218,1093,614,1366,768,9-3-2022,9-8-39,146,depth_duration_stimuli/001132_2014-06-17_14-48-54_260595134347_rgbf000100-resize_2/001132_2014-06-17_14-48-54_260595134347_rgbf000100-resize_2-target.png,125,3.753,5.0,3293,131,feet,jsons/VE125_randls_8_rotated.json,736499,1796514,66,Woman
146,559550,DepthScenes,duration_manipulation_targetAtFixation,jsons/VE125_randls_8_rotated.json,http://54.235.29.9/FacialAge/BNav_EC2/DepthDuration/v2_depth_duration_MTurk/v2_DepthDuration_HTML.html#218,218,1093,614,1366,768,9-3-2022,9-8-39,147,depth_duration_stimuli/001133_2014-06-17_14-49-16_260595134347_rgbf000100-resize_0/001133_2014-06-17_14-49-16_260595134347_rgbf000100-resize_0-target.png,125,4.2115,7.0,4532,124,feet,jsons/VE125_randls_8_rotated.json,736499,1796514,66,Woman
147,559550,DepthScenes,duration_manipulation_targetAtFixation,jsons/VE125_randls_8_rotated.json,http://54.235.29.9/FacialAge/BNav_EC2/DepthDuration/v2_depth_duration_MTurk/v2_DepthDuration_HTML.html#218,218,1093,614,1366,768,9-3-2022,9-8-39,148,depth_duration_stimuli/002758_2014-06-22_19-11-20_094959634447_rgbf000128-resize_1/002758_2014-06-22_19-11-20_094959634447_rgbf000128-resize_1-target.png,125,2.555,5.0,3525,123,feet,jsons/VE125_randls_8_rotated.json,736499,1796514,66,Woman
148,559550,DepthScenes,duration_manipulation_targetAtFixation,jsons/VE125_randls_8_rotated.json,http://54.235.29.9/FacialAge/BNav_EC2/DepthDuration/v2_depth_duration_MTurk/v2_DepthDuration_HTML.html#218,218,1093,614,1366,768,9-3-2022,9-8-39,149,depth_duration_stimuli/002630_2014-06-24_14-47-50_094959634447_rgbf000055-resize_1/002630_2014-06-24_14-47-50_094959634447_rgbf000055-resize_1-target.png,125,3.0095,7.0,3394,125,feet,jsons/VE125_randls_8_rotated.json,736499,1796514,66,Woman
149,559550,DepthScenes,duration_manipulation_targetAtFixation,jsons/VE125_randls_8_rotated.json,http://54.235.29.9/FacialAge/BNav_EC2/DepthDuration/v2_depth_duration_MTurk/v2_DepthDuration_HTML.html#218,218,1093,614,1366,768,9-3-2022,9-8-39,150,depth_duration_stimuli/001650_2014-06-20_12-09-00_260595134347_rgbf000087-resize_3/001650_2014-06-20_12-09-00_260595134347_rgbf000087-resize_3-target.png,125,1.9505,2.0,3409,124,feet,jsons/VE125_randls_8_rotated.json,736499,1796514,66,Woman
150,559550,DepthScenes,duration_manipulation_targetAtFixation,jsons/VE125_randls_8_rotated.json,http://54.235.29.9/FacialAge/BNav_EC2/DepthDuration/v2_depth_duration_MTurk/v2_DepthDuration_HTML.html#218,218,1093,614,1366,768,9-3-2022,9-8-39,151,depth_duration_stimuli/000682_2014-06-08_23-14-58_260595134347_rgbf000041-resize_5/000682_2014-06-08_23-14-58_260595134347_rgbf000041-resize_5-target.png,125,2.7239999999999998,4.0,3166,123,feet,jsons/VE125_randls_8_rotated.json,736499,1796514,66,Woman
151,559550,DepthScenes,duration_manipulation_targetAtFixation,jsons/VE125_randls_8_rotated.json,http://54.235.29.9/FacialAge/BNav_EC2/DepthDuration/v2_depth_duration_MTurk/v2_DepthDuration_HTML.html#218,218,1093,614,1366,768,9-3-2022,9-8-39,152,depth_duration_stimuli/000569_2014-06-09_22-51-47_260595134347_rgbf000141-resize_3/000569_2014-06-09_22-51-47_260595134347_rgbf000141-resize-original.jpg,125,4.512,0.0,3060,122,feet,jsons/VE125_randls_8_rotated.json,736499,1796514,66,Woman
152,559550,DepthScenes,duration_manipulation_targetAtFixation,jsons/VE125_randls_8_rotated.json,http://54.235.29.9/FacialAge/BNav_EC2/DepthDuration/v2_depth_duration_MTurk/v2_DepthDuration_HTML.html#218,218,1093,614,1366,768,9-3-2022,9-8-39,153,depth_duration_stimuli/003010_2014-06-15_12-54-35_094959634447_rgbf000112-resize_0/003010_2014-06-15_12-54-35_094959634447_rgbf000112-resize_0-target.png,125,3.1185,8.0,12365,123,feet,jsons/VE125_randls_8_rotated.json,736499,1796514,66,Woman
153,559550,DepthScenes,duration_manipulation_targetAtFixation,jsons/VE125_randls_8_rotated.json,http://54.235.29.9/FacialAge/BNav_EC2/DepthDuration/v2_depth_duration_MTurk/v2_DepthDuration_HTML.html#218,218,1093,614,1366,768,9-3-2022,9-8-39,154,depth_duration_stimuli/001810_2014-06-26_20-51-35_260595134347_rgbf000040-resize_3/001810_2014-06-26_20-51-35_260595134347_rgbf000040-resize_3-target.png,125,2.2525,3.0,3262,124,feet,jsons/VE125_randls_8_rotated.json,736499,1796514,66,Woman
154,559550,DepthScenes,duration_manipulation_targetAtFixation,jsons/VE125_randls_8_rotated.json,http://54.235.29.9/FacialAge/BNav_EC2/DepthDuration/v2_depth_duration_MTurk/v2_DepthDuration_HTML.html#218,218,1093,614,1366,768,9-3-2022,9-8-39,155,depth_duration_stimuli/000483_2014-06-09_20-41-45_260595134347_rgbf000116-resize_4/000483_2014-06-09_20-41-45_260595134347_rgbf000116-resize_4-target.png,125,1.337,3.0,3114,124,feet,jsons/VE125_randls_8_rotated.json,736499,1796514,66,Woman
155,559550,DepthScenes,duration_manipulation_targetAtFixation,jsons/VE125_randls_8_rotated.json,http://54.235.29.9/FacialAge/BNav_EC2/DepthDuration/v2_depth_duration_MTurk/v2_DepthDuration_HTML.html#218,218,1093,614,1366,768,9-3-2022,9-8-39,156,depth_duration_stimuli/000469_2014-06-09_19-42-10_260595134347_rgbf000081-resize_1/000469_2014-06-09_19-42-10_260595134347_rgbf000081-resize_1-target.png,125,1.652,3.0,3254,123,feet,jsons/VE125_randls_8_rotated.json,736499,1796514,66,Woman
156,559550,DepthScenes,duration_manipulation_targetAtFixation,jsons/VE125_randls_8_rotated.json,http://54.235.29.9/FacialAge/BNav_EC2/DepthDuration/v2_depth_duration_MTurk/v2_DepthDuration_HTML.html#218,218,1093,614,1366,768,9-3-2022,9-8-39,157,depth_duration_stimuli/000943_2014-06-09_19-31-07_260595134347_rgbf000128-resize_1/000943_2014-06-09_19-31-07_260595134347_rgbf000128-resize_1-target.png,125,1.9765,4.0,3131,127,feet,jsons/VE125_randls_8_rotated.json,736499,1796514,66,Woman
157,559550,DepthScenes,duration_manipulation_targetAtFixation,jsons/VE125_randls_8_rotated.json,http://54.235.29.9/FacialAge/BNav_EC2/DepthDuration/v2_depth_duration_MTurk/v2_DepthDuration_HTML.html#218,218,1093,614,1366,768,9-3-2022,9-8-39,158,depth_duration_stimuli/003070_2014-06-15_14-58-27_094959634447_rgbf000150-resize_3/003070_2014-06-15_14-58-27_094959634447_rgbf000150-resize_3-target.png,125,2.9415,6.0,3096,123,feet,jsons/VE125_randls_8_rotated.json,736499,1796514,66,Woman
158,559550,DepthScenes,duration_manipulation_targetAtFixation,jsons/VE125_randls_8_rotated.json,http://54.235.29.9/FacialAge/BNav_EC2/DepthDuration/v2_depth_duration_MTurk/v2_DepthDuration_HTML.html#218,218,1093,614,1366,768,9-3-2022,9-8-39,159,depth_duration_stimuli/001214_2014-06-17_16-13-55_260595134347_rgbf000111-resize_0/001214_2014-06-17_16-13-55_260595134347_rgbf000111-resize_0-target.png,125,2.6505,4.0,3396,125,feet,jsons/VE125_randls_8_rotated.json,736499,1796514,66,Woman
159,559550,DepthScenes,duration_manipulation_targetAtFixation,jsons/VE125_randls_8_rotated.json,http://54.235.29.9/FacialAge/BNav_EC2/DepthDuration/v2_depth_duration_MTurk/v2_DepthDuration_HTML.html#218,218,1093,614,1366,768,9-3-2022,9-8-39,160,depth_duration_stimuli/000810_2014-06-08_17-20-01_260595134347_rgbf000105-resize_0/000810_2014-06-08_17-20-01_260595134347_rgbf000105-resize_0-target.png,125,1.4865,4.0,3418,124,feet,jsons/VE125_randls_8_rotated.json,736499,1796514,66,Woman
160,559550,DepthScenes,duration_manipulation_targetAtFixation,jsons/VE125_randls_8_rotated.json,http://54.235.29.9/FacialAge/BNav_EC2/DepthDuration/v2_depth_duration_MTurk/v2_DepthDuration_HTML.html#218,218,1093,614,1366,768,9-3-2022,9-8-39,161,depth_duration_stimuli/003490_2014-05-21_15-50-11_094959634447_rgbf000101-resize_3/003490_2014-05-21_15-50-11_094959634447_rgbf000101-resize_3-target.png,125,3.6445,6.0,3362,125,feet,jsons/VE125_randls_8_rotated.json,736499,1796514,66,Woman
161,559550,DepthScenes,duration_manipulation_targetAtFixation,jsons/VE125_randls_8_rotated.json,http://54.235.29.9/FacialAge/BNav_EC2/DepthDuration/v2_depth_duration_MTurk/v2_DepthDuration_HTML.html#218,218,1093,614,1366,768,9-3-2022,9-8-39,162,depth_duration_stimuli/001175_2014-06-17_15-45-55_260595134347_rgbf000129-resize_4/001175_2014-06-17_15-45-55_260595134347_rgbf000129-resize_4-target.png,125,4.255,9.0,3336,123,feet,jsons/VE125_randls_8_rotated.json,736499,1796514,66,Woman
162,559550,DepthScenes,duration_manipulation_targetAtFixation,jsons/VE125_randls_8_rotated.json,http://54.235.29.9/FacialAge/BNav_EC2/DepthDuration/v2_depth_duration_MTurk/v2_DepthDuration_HTML.html#218,218,1093,614,1366,768,9-3-2022,9-8-39,163,depth_duration_stimuli/001235_2014-06-17_16-37-36_260595134347_rgbf000084-resize_4/001235_2014-06-17_16-37-36_260595134347_rgbf000084-resize_4-target.png,125,3.6605,6.0,3361,127,feet,jsons/VE125_randls_8_rotated.json,736499,1796514,66,Woman
163,559550,DepthScenes,duration_manipulation_targetAtFixation,jsons/VE125_randls_8_rotated.json,http://54.235.29.9/FacialAge/BNav_EC2/DepthDuration/v2_depth_duration_MTurk/v2_DepthDuration_HTML.html#218,218,1093,614,1366,768,9-3-2022,9-8-39,164,depth_duration_stimuli/000788_2014-06-08_22-34-36_260595134347_rgbf000131-resize_1/000788_2014-06-08_22-34-36_260595134347_rgbf000131-resize_1-target.png,125,3.359,5.0,3386,123,feet,jsons/VE125_randls_8_rotated.json,736499,1796514,66,Woman
