,subjID,experimentName,versionName,sequenceName,url,selected_row,windowWidth,windowHeight,screenWidth,screenHeight,startDate,startTime,trial,stimulus,duration,actual_depth,depth_estimate,trial_RT,log_sceneDuration,unitSelection,seq_filepath,experimentTime,totalTime,age,gender
0,561067,DepthScenes,duration_manipulation_targetAtFixation,jsons/VE125_randls_43_rotated.json,http://54.235.29.9/FacialAge/BNav_EC2/DepthDuration/v2_depth_duration_MTurk/v2_DepthDuration_HTML.html#127,127,1366,625,1366,768,8-21-2022,10-10-50,1,depth_duration_stimuli/002467_2014-06-28_20-38-07_260595134347_rgbf000026-resize_2/002467_2014-06-28_20-38-07_260595134347_rgbf000026-resize_2-target.png,125,4.742,10,4179,124,meters,jsons/VE125_randls_43_rotated.json,812280,938924,32,Man
1,561067,DepthScenes,duration_manipulation_targetAtFixation,jsons/VE125_randls_43_rotated.json,http://54.235.29.9/FacialAge/BNav_EC2/DepthDuration/v2_depth_duration_MTurk/v2_DepthDuration_HTML.html#127,127,1366,625,1366,768,8-21-2022,10-10-50,2,depth_duration_stimuli/002570_2014-06-24_13-59-54_094959634447_rgbf000059-resize_0/002570_2014-06-24_13-59-54_094959634447_rgbf000059-resize_0-target.png,125,4.037,10,3876,111,meters,jsons/VE125_randls_43_rotated.json,812280,938924,32,Man
2,561067,DepthScenes,duration_manipulation_targetAtFixation,jsons/VE125_randls_43_rotated.json,http://54.235.29.9/FacialAge/BNav_EC2/DepthDuration/v2_depth_duration_MTurk/v2_DepthDuration_HTML.html#127,127,1366,625,1366,768,8-21-2022,10-10-50,3,depth_duration_stimuli/000137_2014-05-20_17-04-49_260595134347_rgbf000120-resize_1/000137_2014-05-20_17-04-49_260595134347_rgbf000120-resize_1-target.png,125,3.786,12,4456,120,meters,jsons/VE125_randls_43_rotated.json,812280,938924,32,Man
3,561067,DepthScenes,duration_manipulation_targetAtFixation,jsons/VE125_randls_43_rotated.json,http://54.235.29.9/FacialAge/BNav_EC2/DepthDuration/v2_depth_duration_MTurk/v2_DepthDuration_HTML.html#127,127,1366,625,1366,768,8-21-2022,10-10-50,4,depth_duration_stimuli/000736_2014-06-08_18-24-15_260595134347_rgbf000206-resize_3/000736_2014-06-08_18-24-15_260595134347_rgbf000206-resize_3-target.png,125,3.515,15,4079,125,meters,jsons/VE125_randls_43_rotated.json,812280,938924,32,Man
4,561067,DepthScenes,duration_manipulation_targetAtFixation,jsons/VE125_randls_43_rotated.json,http://54.235.29.9/FacialAge/BNav_EC2/DepthDuration/v2_depth_duration_MTurk/v2_DepthDuration_HTML.html#127,127,1366,625,1366,768,8-21-2022,10-10-50,5,depth_duration_stimuli/002103_2014-06-25_20-00-40_260595134347_rgbf000049-resize_0/002103_2014-06-25_20-00-40_260595134347_rgbf000049-resize_0-target.png,125,4.105,10,4825,124,meters,jsons/VE125_randls_43_rotated.json,812280,938924,32,Man
5,561067,DepthScenes,duration_manipulation_targetAtFixation,jsons/VE125_randls_43_rotated.json,http://54.235.29.9/FacialAge/BNav_EC2/DepthDuration/v2_depth_duration_MTurk/v2_DepthDuration_HTML.html#127,127,1366,625,1366,768,8-21-2022,10-10-50,6,depth_duration_stimuli/002039_2014-06-24_20-22-38_260595134347_rgbf000084-resize_1/002039_2014-06-24_20-22-38_260595134347_rgbf000084-resize_1-target.png,125,4.408,12,3287,155,meters,jsons/VE125_randls_43_rotated.json,812280,938924,32,Man
6,561067,DepthScenes,duration_manipulation_targetAtFixation,jsons/VE125_randls_43_rotated.json,http://54.235.29.9/FacialAge/BNav_EC2/DepthDuration/v2_depth_duration_MTurk/v2_DepthDuration_HTML.html#127,127,1366,625,1366,768,8-21-2022,10-10-50,7,depth_duration_stimuli/002758_2014-06-22_19-11-20_094959634447_rgbf000128-resize_1/002758_2014-06-22_19-11-20_094959634447_rgbf000128-resize_1-target.png,125,2.555,15,4208,123,meters,jsons/VE125_randls_43_rotated.json,812280,938924,32,Man
7,561067,DepthScenes,duration_manipulation_targetAtFixation,jsons/VE125_randls_43_rotated.json,http://54.235.29.9/FacialAge/BNav_EC2/DepthDuration/v2_depth_duration_MTurk/v2_DepthDuration_HTML.html#127,127,1366,625,1366,768,8-21-2022,10-10-50,8,depth_duration_stimuli/002630_2014-06-24_14-47-50_094959634447_rgbf000055-resize_1/002630_2014-06-24_14-47-50_094959634447_rgbf000055-resize_1-target.png,125,3.0095,15,4039,111,meters,jsons/VE125_randls_43_rotated.json,812280,938924,32,Man
8,561067,DepthScenes,duration_manipulation_targetAtFixation,jsons/VE125_randls_43_rotated.json,http://54.235.29.9/FacialAge/BNav_EC2/DepthDuration/v2_depth_duration_MTurk/v2_DepthDuration_HTML.html#127,127,1366,625,1366,768,8-21-2022,10-10-50,9,depth_duration_stimuli/002136_2014-06-25_21-18-03_260595134347_rgbf000109-resize_3/002136_2014-06-25_21-18-03_260595134347_rgbf000109-resize_3-target.png,125,1.9569999999999999,12,2925,122,meters,jsons/VE125_randls_43_rotated.json,812280,938924,32,Man
9,561067,DepthScenes,duration_manipulation_targetAtFixation,jsons/VE125_randls_43_rotated.json,http://54.235.29.9/FacialAge/BNav_EC2/DepthDuration/v2_depth_duration_MTurk/v2_DepthDuration_HTML.html#127,127,1366,625,1366,768,8-21-2022,10-10-50,10,depth_duration_stimuli/002964_2014-06-08_17-46-11_094959634447_rgbf000091-resize_4/002964_2014-06-08_17-46-11_094959634447_rgbf000091-resize_4-target.png,125,1.6909999999999998,15,3045,115,meters,jsons/VE125_randls_43_rotated.json,812280,938924,32,Man
10,561067,DepthScenes,duration_manipulation_targetAtFixation,jsons/VE125_randls_43_rotated.json,http://54.235.29.9/FacialAge/BNav_EC2/DepthDuration/v2_depth_duration_MTurk/v2_DepthDuration_HTML.html#127,127,1366,625,1366,768,8-21-2022,10-10-50,11,depth_duration_stimuli/000103_2014-05-14_22-01-17_260595134347_rgbf000152-resize_5/000103_2014-05-14_22-01-17_260595134347_rgbf000152-resize_5-target.png,125,1.993,12,3162,124,meters,jsons/VE125_randls_43_rotated.json,812280,938924,32,Man
11,561067,DepthScenes,duration_manipulation_targetAtFixation,jsons/VE125_randls_43_rotated.json,http://54.235.29.9/FacialAge/BNav_EC2/DepthDuration/v2_depth_duration_MTurk/v2_DepthDuration_HTML.html#127,127,1366,625,1366,768,8-21-2022,10-10-50,12,depth_duration_stimuli/001555_2014-06-20_17-12-10_260595134347_rgbf000065-resize_4/001555_2014-06-20_17-12-10_260595134347_rgbf000065-resize_4-target.png,125,1.633,10,5186,125,meters,jsons/VE125_randls_43_rotated.json,812280,938924,32,Man
12,561067,DepthScenes,duration_manipulation_targetAtFixation,jsons/VE125_randls_43_rotated.json,http://54.235.29.9/FacialAge/BNav_EC2/DepthDuration/v2_depth_duration_MTurk/v2_DepthDuration_HTML.html#127,127,1366,625,1366,768,8-21-2022,10-10-50,13,depth_duration_stimuli/001032_2014-06-08_13-23-17_260595134347_rgbf000021-resize_3/001032_2014-06-08_13-23-17_260595134347_rgbf000021-resize_3-target.png,125,3.2725,15,3560,138,meters,jsons/VE125_randls_43_rotated.json,812280,938924,32,Man
13,561067,DepthScenes,duration_manipulation_targetAtFixation,jsons/VE125_randls_43_rotated.json,http://54.235.29.9/FacialAge/BNav_EC2/DepthDuration/v2_depth_duration_MTurk/v2_DepthDuration_HTML.html#127,127,1366,625,1366,768,8-21-2022,10-10-50,14,depth_duration_stimuli/001059_2014-06-08_21-53-27_260595134347_rgbf000061-resize_4/001059_2014-06-08_21-53-27_260595134347_rgbf000061-resize_4-target.png,125,2.4185,12,2805,134,meters,jsons/VE125_randls_43_rotated.json,812280,938924,32,Man
14,561067,DepthScenes,duration_manipulation_targetAtFixation,jsons/VE125_randls_43_rotated.json,http://54.235.29.9/FacialAge/BNav_EC2/DepthDuration/v2_depth_duration_MTurk/v2_DepthDuration_HTML.html#127,127,1366,625,1366,768,8-21-2022,10-10-50,15,depth_duration_stimuli/001617_2014-06-20_11-35-32_260595134347_rgbf000066-resize_1/001617_2014-06-20_11-35-32_260595134347_rgbf000066-resize_1-target.png,125,3.7910000000000004,15,2972,110,meters,jsons/VE125_randls_43_rotated.json,812280,938924,32,Man
15,561067,DepthScenes,duration_manipulation_targetAtFixation,jsons/VE125_randls_43_rotated.json,http://54.235.29.9/FacialAge/BNav_EC2/DepthDuration/v2_depth_duration_MTurk/v2_DepthDuration_HTML.html#127,127,1366,625,1366,768,8-21-2022,10-10-50,16,depth_duration_stimuli/001806_2014-06-26_20-50-20_260595134347_rgbf000091-resize_1/001806_2014-06-26_20-50-20_260595134347_rgbf000091-resize_1-target.png,125,2.7305,10,3019,123,meters,jsons/VE125_randls_43_rotated.json,812280,938924,32,Man
16,561067,DepthScenes,duration_manipulation_targetAtFixation,jsons/VE125_randls_43_rotated.json,http://54.235.29.9/FacialAge/BNav_EC2/DepthDuration/v2_depth_duration_MTurk/v2_DepthDuration_HTML.html#127,127,1366,625,1366,768,8-21-2022,10-10-50,17,depth_duration_stimuli/002637_2014-06-24_14-51-13_094959634447_rgbf000066-resize_4/002637_2014-06-24_14-51-13_094959634447_rgbf000066-resize_4-target.png,125,1.9955,15,2572,111,meters,jsons/VE125_randls_43_rotated.json,812280,938924,32,Man
17,561067,DepthScenes,duration_manipulation_targetAtFixation,jsons/VE125_randls_43_rotated.json,http://54.235.29.9/FacialAge/BNav_EC2/DepthDuration/v2_depth_duration_MTurk/v2_DepthDuration_HTML.html#127,127,1366,625,1366,768,8-21-2022,10-10-50,18,depth_duration_stimuli/003534_2014-05-22_15-06-10_094959634447_rgbf000102-resize_4/003534_2014-05-22_15-06-10_094959634447_rgbf000102-resize_4-target.png,125,1.426,12,2780,131,meters,jsons/VE125_randls_43_rotated.json,812280,938924,32,Man
18,561067,DepthScenes,duration_manipulation_targetAtFixation,jsons/VE125_randls_43_rotated.json,http://54.235.29.9/FacialAge/BNav_EC2/DepthDuration/v2_depth_duration_MTurk/v2_DepthDuration_HTML.html#127,127,1366,625,1366,768,8-21-2022,10-10-50,19,depth_duration_stimuli/001498_2014-06-19_17-45-14_260595134347_rgbf000129-resize_4/001498_2014-06-19_17-45-14_260595134347_rgbf000129-resize-original.jpg,125,1.4075,15,2804,124,meters,jsons/VE125_randls_43_rotated.json,812280,938924,32,Man
19,561067,DepthScenes,duration_manipulation_targetAtFixation,jsons/VE125_randls_43_rotated.json,http://54.235.29.9/FacialAge/BNav_EC2/DepthDuration/v2_depth_duration_MTurk/v2_DepthDuration_HTML.html#127,127,1366,625,1366,768,8-21-2022,10-10-50,20,depth_duration_stimuli/001094_2014-06-15_17-36-00_260595134347_rgbf000205-resize_0/001094_2014-06-15_17-36-00_260595134347_rgbf000205-resize_0-target.png,125,4.2175,12,4011,103,meters,jsons/VE125_randls_43_rotated.json,812280,938924,32,Man
20,561067,DepthScenes,duration_manipulation_targetAtFixation,jsons/VE125_randls_43_rotated.json,http://54.235.29.9/FacialAge/BNav_EC2/DepthDuration/v2_depth_duration_MTurk/v2_DepthDuration_HTML.html#127,127,1366,625,1366,768,8-21-2022,10-10-50,21,depth_duration_stimuli/000692_2014-06-08_13-09-42_260595134347_rgbf000199-resize_2/000692_2014-06-08_13-09-42_260595134347_rgbf000199-resize_2-target.png,125,3.661,12,2584,119,meters,jsons/VE125_randls_43_rotated.json,812280,938924,32,Man
21,561067,DepthScenes,duration_manipulation_targetAtFixation,jsons/VE125_randls_43_rotated.json,http://54.235.29.9/FacialAge/BNav_EC2/DepthDuration/v2_depth_duration_MTurk/v2_DepthDuration_HTML.html#127,127,1366,625,1366,768,8-21-2022,10-10-50,22,depth_duration_stimuli/000502_2014-06-08_23-02-32_260595134347_rgbf000063-resize_4/000502_2014-06-08_23-02-32_260595134347_rgbf000063-resize_4-target.png,125,2.431,15,2588,124,meters,jsons/VE125_randls_43_rotated.json,812280,938924,32,Man
22,561067,DepthScenes,duration_manipulation_targetAtFixation,jsons/VE125_randls_43_rotated.json,http://54.235.29.9/FacialAge/BNav_EC2/DepthDuration/v2_depth_duration_MTurk/v2_DepthDuration_HTML.html#127,127,1366,625,1366,768,8-21-2022,10-10-50,23,depth_duration_stimuli/001199_2014-06-17_16-03-48_260595134347_rgbf000077-resize_0/001199_2014-06-17_16-03-48_260595134347_rgbf000077-resize_0-target.png,125,3.4375,10,5046,119,meters,jsons/VE125_randls_43_rotated.json,812280,938924,32,Man
23,561067,DepthScenes,duration_manipulation_targetAtFixation,jsons/VE125_randls_43_rotated.json,http://54.235.29.9/FacialAge/BNav_EC2/DepthDuration/v2_depth_duration_MTurk/v2_DepthDuration_HTML.html#127,127,1366,625,1366,768,8-21-2022,10-10-50,24,depth_duration_stimuli/002657_2014-06-13_15-29-54_094959634447_rgbf000150-resize_1/002657_2014-06-13_15-29-54_094959634447_rgbf000150-resize_1-target.png,125,4.919,15,2995,139,meters,jsons/VE125_randls_43_rotated.json,812280,938924,32,Man
24,561067,DepthScenes,duration_manipulation_targetAtFixation,jsons/VE125_randls_43_rotated.json,http://54.235.29.9/FacialAge/BNav_EC2/DepthDuration/v2_depth_duration_MTurk/v2_DepthDuration_HTML.html#127,127,1366,625,1366,768,8-21-2022,10-10-50,25,depth_duration_stimuli/002375_2014-06-28_20-13-44_260595134347_rgbf000032-resize_1/002375_2014-06-28_20-13-44_260595134347_rgbf000032-resize_1-target.png,125,4.0175,12,2599,125,meters,jsons/VE125_randls_43_rotated.json,812280,938924,32,Man
25,561067,DepthScenes,duration_manipulation_targetAtFixation,jsons/VE125_randls_43_rotated.json,http://54.235.29.9/FacialAge/BNav_EC2/DepthDuration/v2_depth_duration_MTurk/v2_DepthDuration_HTML.html#127,127,1366,625,1366,768,8-21-2022,10-10-50,26,depth_duration_stimuli/002340_2014-06-28_20-05-46_260595134347_rgbf000113-resize_0/002340_2014-06-28_20-05-46_260595134347_rgbf000113-resize_0-target.png,125,2.4735,10,2680,115,meters,jsons/VE125_randls_43_rotated.json,812280,938924,32,Man
26,561067,DepthScenes,duration_manipulation_targetAtFixation,jsons/VE125_randls_43_rotated.json,http://54.235.29.9/FacialAge/BNav_EC2/DepthDuration/v2_depth_duration_MTurk/v2_DepthDuration_HTML.html#127,127,1366,625,1366,768,8-21-2022,10-10-50,27,depth_duration_stimuli/001016_2014-06-09_16-16-10_260595134347_rgbf000112-resize_5/001016_2014-06-09_16-16-10_260595134347_rgbf000112-resize_5-target.png,125,1.6565,8,2750,81,meters,jsons/VE125_randls_43_rotated.json,812280,938924,32,Man
27,561067,DepthScenes,duration_manipulation_targetAtFixation,jsons/VE125_randls_43_rotated.json,http://54.235.29.9/FacialAge/BNav_EC2/DepthDuration/v2_depth_duration_MTurk/v2_DepthDuration_HTML.html#127,127,1366,625,1366,768,8-21-2022,10-10-50,28,depth_duration_stimuli/002344_2014-06-28_20-06-29_260595134347_rgbf000030-resize_1/002344_2014-06-28_20-06-29_260595134347_rgbf000030-resize_1-target.png,125,1.5795,9,2325,124,meters,jsons/VE125_randls_43_rotated.json,812280,938924,32,Man
28,561067,DepthScenes,duration_manipulation_targetAtFixation,jsons/VE125_randls_43_rotated.json,http://54.235.29.9/FacialAge/BNav_EC2/DepthDuration/v2_depth_duration_MTurk/v2_DepthDuration_HTML.html#127,127,1366,625,1366,768,8-21-2022,10-10-50,29,depth_duration_stimuli/002725_2014-06-22_11-47-51_094959634447_rgbf000070-resize_1/002725_2014-06-22_11-47-51_094959634447_rgbf000070-resize_1-target.png,125,2.195,8,3018,136,meters,jsons/VE125_randls_43_rotated.json,812280,938924,32,Man
29,561067,DepthScenes,duration_manipulation_targetAtFixation,jsons/VE125_randls_43_rotated.json,http://54.235.29.9/FacialAge/BNav_EC2/DepthDuration/v2_depth_duration_MTurk/v2_DepthDuration_HTML.html#127,127,1366,625,1366,768,8-21-2022,10-10-50,30,depth_duration_stimuli/002072_2014-06-24_21-48-06_260595134347_rgbf000115-resize_0/002072_2014-06-24_21-48-06_260595134347_rgbf000115-resize-original.jpg,125,4.702,9,2663,123,meters,jsons/VE125_randls_43_rotated.json,812280,938924,32,Man
30,561067,DepthScenes,duration_manipulation_targetAtFixation,jsons/VE125_randls_43_rotated.json,http://54.235.29.9/FacialAge/BNav_EC2/DepthDuration/v2_depth_duration_MTurk/v2_DepthDuration_HTML.html#127,127,1366,625,1366,768,8-21-2022,10-10-50,31,depth_duration_stimuli/000854_2014-06-09_19-43-13_260595134347_rgbf000066-resize_0/000854_2014-06-09_19-43-13_260595134347_rgbf000066-resize_0-target.png,125,3.068,5,2931,123,meters,jsons/VE125_randls_43_rotated.json,812280,938924,32,Man
31,561067,DepthScenes,duration_manipulation_targetAtFixation,jsons/VE125_randls_43_rotated.json,http://54.235.29.9/FacialAge/BNav_EC2/DepthDuration/v2_depth_duration_MTurk/v2_DepthDuration_HTML.html#127,127,1366,625,1366,768,8-21-2022,10-10-50,32,depth_duration_stimuli/000758_2014-06-08_22-05-08_260595134347_rgbf000085-resize_0/000758_2014-06-08_22-05-08_260595134347_rgbf000085-resize_0-target.png,125,3.3810000000000002,9,2794,108,meters,jsons/VE125_randls_43_rotated.json,812280,938924,32,Man
32,561067,DepthScenes,duration_manipulation_targetAtFixation,jsons/VE125_randls_43_rotated.json,http://54.235.29.9/FacialAge/BNav_EC2/DepthDuration/v2_depth_duration_MTurk/v2_DepthDuration_HTML.html#127,127,1366,625,1366,768,8-21-2022,10-10-50,33,depth_duration_stimuli/000749_2014-06-08_21-55-06_260595134347_rgbf000070-resize_2/000749_2014-06-08_21-55-06_260595134347_rgbf000070-resize_2-target.png,125,2.331,8,3414,125,meters,jsons/VE125_randls_43_rotated.json,812280,938924,32,Man
33,561067,DepthScenes,duration_manipulation_targetAtFixation,jsons/VE125_randls_43_rotated.json,http://54.235.29.9/FacialAge/BNav_EC2/DepthDuration/v2_depth_duration_MTurk/v2_DepthDuration_HTML.html#127,127,1366,625,1366,768,8-21-2022,10-10-50,34,depth_duration_stimuli/002788_2014-06-22_19-36-03_094959634447_rgbf000088-resize_2/002788_2014-06-22_19-36-03_094959634447_rgbf000088-resize_2-target.png,125,1.6465,9,3130,101,meters,jsons/VE125_randls_43_rotated.json,812280,938924,32,Man
34,561067,DepthScenes,duration_manipulation_targetAtFixation,jsons/VE125_randls_43_rotated.json,http://54.235.29.9/FacialAge/BNav_EC2/DepthDuration/v2_depth_duration_MTurk/v2_DepthDuration_HTML.html#127,127,1366,625,1366,768,8-21-2022,10-10-50,35,depth_duration_stimuli/001132_2014-06-17_14-48-54_260595134347_rgbf000100-resize_2/001132_2014-06-17_14-48-54_260595134347_rgbf000100-resize_2-target.png,125,3.753,8,2963,116,meters,jsons/VE125_randls_43_rotated.json,812280,938924,32,Man
35,561067,DepthScenes,duration_manipulation_targetAtFixation,jsons/VE125_randls_43_rotated.json,http://54.235.29.9/FacialAge/BNav_EC2/DepthDuration/v2_depth_duration_MTurk/v2_DepthDuration_HTML.html#127,127,1366,625,1366,768,8-21-2022,10-10-50,36,depth_duration_stimuli/001133_2014-06-17_14-49-16_260595134347_rgbf000100-resize_0/001133_2014-06-17_14-49-16_260595134347_rgbf000100-resize_0-target.png,125,4.2115,9,2598,123,meters,jsons/VE125_randls_43_rotated.json,812280,938924,32,Man
36,561067,DepthScenes,duration_manipulation_targetAtFixation,jsons/VE125_randls_43_rotated.json,http://54.235.29.9/FacialAge/BNav_EC2/DepthDuration/v2_depth_duration_MTurk/v2_DepthDuration_HTML.html#127,127,1366,625,1366,768,8-21-2022,10-10-50,37,depth_duration_stimuli/003048_2014-06-15_13-49-43_094959634447_rgbf000150-resize_1/003048_2014-06-15_13-49-43_094959634447_rgbf000150-resize_1-target.png,125,4.0035,10,3074,115,meters,jsons/VE125_randls_43_rotated.json,812280,938924,32,Man
37,561067,DepthScenes,duration_manipulation_targetAtFixation,jsons/VE125_randls_43_rotated.json,http://54.235.29.9/FacialAge/BNav_EC2/DepthDuration/v2_depth_duration_MTurk/v2_DepthDuration_HTML.html#127,127,1366,625,1366,768,8-21-2022,10-10-50,38,depth_duration_stimuli/002043_2014-06-24_20-29-38_260595134347_rgbf000039-resize_4/002043_2014-06-24_20-29-38_260595134347_rgbf000039-resize_4-target.png,125,2.8435,15,2857,118,meters,jsons/VE125_randls_43_rotated.json,812280,938924,32,Man
38,561067,DepthScenes,duration_manipulation_targetAtFixation,jsons/VE125_randls_43_rotated.json,http://54.235.29.9/FacialAge/BNav_EC2/DepthDuration/v2_depth_duration_MTurk/v2_DepthDuration_HTML.html#127,127,1366,625,1366,768,8-21-2022,10-10-50,39,depth_duration_stimuli/002949_2014-06-26_15-57-42_094959634447_rgbf000079-resize_1/002949_2014-06-26_15-57-42_094959634447_rgbf000079-resize_1-target.png,125,1.8915,5,3504,112,meters,jsons/VE125_randls_43_rotated.json,812280,938924,32,Man
39,561067,DepthScenes,duration_manipulation_targetAtFixation,jsons/VE125_randls_43_rotated.json,http://54.235.29.9/FacialAge/BNav_EC2/DepthDuration/v2_depth_duration_MTurk/v2_DepthDuration_HTML.html#127,127,1366,625,1366,768,8-21-2022,10-10-50,40,depth_duration_stimuli/000522_2014-06-08_13-35-06_260595134347_rgbf000244-resize_1/000522_2014-06-08_13-35-06_260595134347_rgbf000244-resize_1-target.png,125,2.3715,10,2599,124,meters,jsons/VE125_randls_43_rotated.json,812280,938924,32,Man
40,561067,DepthScenes,duration_manipulation_targetAtFixation,jsons/VE125_randls_43_rotated.json,http://54.235.29.9/FacialAge/BNav_EC2/DepthDuration/v2_depth_duration_MTurk/v2_DepthDuration_HTML.html#127,127,1366,625,1366,768,8-21-2022,10-10-50,41,depth_duration_stimuli/001828_2014-06-26_21-40-03_260595134347_rgbf000024-resize_0/001828_2014-06-26_21-40-03_260595134347_rgbf000024-resize_0-target.png,125,4.8260000000000005,12,2587,124,meters,jsons/VE125_randls_43_rotated.json,812280,938924,32,Man
41,561067,DepthScenes,duration_manipulation_targetAtFixation,jsons/VE125_randls_43_rotated.json,http://54.235.29.9/FacialAge/BNav_EC2/DepthDuration/v2_depth_duration_MTurk/v2_DepthDuration_HTML.html#127,127,1366,625,1366,768,8-21-2022,10-10-50,42,depth_duration_stimuli/000009_2014-05-26_14-32-05_260595134347_rgbf000034-resize_3/000009_2014-05-26_14-32-05_260595134347_rgbf000034-resize_3-target.png,125,3.8715,15,4469,48,meters,jsons/VE125_randls_43_rotated.json,812280,938924,32,Man
42,561067,DepthScenes,duration_manipulation_targetAtFixation,jsons/VE125_randls_43_rotated.json,http://54.235.29.9/FacialAge/BNav_EC2/DepthDuration/v2_depth_duration_MTurk/v2_DepthDuration_HTML.html#127,127,1366,625,1366,768,8-21-2022,10-10-50,43,depth_duration_stimuli/003495_2014-05-21_16-01-51_094959634447_rgbf000100-resize_3/003495_2014-05-21_16-01-51_094959634447_rgbf000100-resize_3-target.png,125,1.6255,9,2676,109,meters,jsons/VE125_randls_43_rotated.json,812280,938924,32,Man
43,561067,DepthScenes,duration_manipulation_targetAtFixation,jsons/VE125_randls_43_rotated.json,http://54.235.29.9/FacialAge/BNav_EC2/DepthDuration/v2_depth_duration_MTurk/v2_DepthDuration_HTML.html#127,127,1366,625,1366,768,8-21-2022,10-10-50,44,depth_duration_stimuli/001244_2014-06-17_16-47-45_260595134347_rgbf000030-resize_4/001244_2014-06-17_16-47-45_260595134347_rgbf000030-resize_4-target.png,125,2.0425,10,2939,124,meters,jsons/VE125_randls_43_rotated.json,812280,938924,32,Man
44,561067,DepthScenes,duration_manipulation_targetAtFixation,jsons/VE125_randls_43_rotated.json,http://54.235.29.9/FacialAge/BNav_EC2/DepthDuration/v2_depth_duration_MTurk/v2_DepthDuration_HTML.html#127,127,1366,625,1366,768,8-21-2022,10-10-50,45,depth_duration_stimuli/001450_2014-06-19_17-02-03_260595134347_rgbf000203-resize_4/001450_2014-06-19_17-02-03_260595134347_rgbf000203-resize_4-target.png,125,4.0106666666667,12,2680,133,meters,jsons/VE125_randls_43_rotated.json,812280,938924,32,Man
45,561067,DepthScenes,duration_manipulation_targetAtFixation,jsons/VE125_randls_43_rotated.json,http://54.235.29.9/FacialAge/BNav_EC2/DepthDuration/v2_depth_duration_MTurk/v2_DepthDuration_HTML.html#127,127,1366,625,1366,768,8-21-2022,10-10-50,46,depth_duration_stimuli/001449_2014-06-19_17-01-27_260595134347_rgbf000116-resize_2/001449_2014-06-19_17-01-27_260595134347_rgbf000116-resize_2-target.png,125,3.452,15,2602,133,meters,jsons/VE125_randls_43_rotated.json,812280,938924,32,Man
46,561067,DepthScenes,duration_manipulation_targetAtFixation,jsons/VE125_randls_43_rotated.json,http://54.235.29.9/FacialAge/BNav_EC2/DepthDuration/v2_depth_duration_MTurk/v2_DepthDuration_HTML.html#127,127,1366,625,1366,768,8-21-2022,10-10-50,47,depth_duration_stimuli/000483_2014-06-09_20-41-45_260595134347_rgbf000116-resize_4/000483_2014-06-09_20-41-45_260595134347_rgbf000116-resize_4-target.png,125,1.337,12,4912,122,meters,jsons/VE125_randls_43_rotated.json,812280,938924,32,Man
47,561067,DepthScenes,duration_manipulation_targetAtFixation,jsons/VE125_randls_43_rotated.json,http://54.235.29.9/FacialAge/BNav_EC2/DepthDuration/v2_depth_duration_MTurk/v2_DepthDuration_HTML.html#127,127,1366,625,1366,768,8-21-2022,10-10-50,48,depth_duration_stimuli/000469_2014-06-09_19-42-10_260595134347_rgbf000081-resize_1/000469_2014-06-09_19-42-10_260595134347_rgbf000081-resize_1-target.png,125,1.652,15,5424,140,meters,jsons/VE125_randls_43_rotated.json,812280,938924,32,Man
48,561067,DepthScenes,duration_manipulation_targetAtFixation,jsons/VE125_randls_43_rotated.json,http://54.235.29.9/FacialAge/BNav_EC2/DepthDuration/v2_depth_duration_MTurk/v2_DepthDuration_HTML.html#127,127,1366,625,1366,768,8-21-2022,10-10-50,49,depth_duration_stimuli/001170_2014-06-17_15-43-44_260595134347_rgbf000096-resize_6/001170_2014-06-17_15-43-44_260595134347_rgbf000096-resize-original.jpg,125,1.1909999999999998,15,3333,123,meters,jsons/VE125_randls_43_rotated.json,812280,938924,32,Man
49,561067,DepthScenes,duration_manipulation_targetAtFixation,jsons/VE125_randls_43_rotated.json,http://54.235.29.9/FacialAge/BNav_EC2/DepthDuration/v2_depth_duration_MTurk/v2_DepthDuration_HTML.html#127,127,1366,625,1366,768,8-21-2022,10-10-50,50,depth_duration_stimuli/003083_2014-06-15_15-21-03_094959634447_rgbf000063-resize_1/003083_2014-06-15_15-21-03_094959634447_rgbf000063-resize_1-target.png,125,4.1405,9,36027,125,meters,jsons/VE125_randls_43_rotated.json,812280,938924,32,Man
50,561067,DepthScenes,duration_manipulation_targetAtFixation,jsons/VE125_randls_43_rotated.json,http://54.235.29.9/FacialAge/BNav_EC2/DepthDuration/v2_depth_duration_MTurk/v2_DepthDuration_HTML.html#127,127,1366,625,1366,768,8-21-2022,10-10-50,51,depth_duration_stimuli/000486_2014-06-09_20-47-20_260595134347_rgbf000143-resize_2/000486_2014-06-09_20-47-20_260595134347_rgbf000143-resize_2-target.png,125,4.8325,10,5242,120,meters,jsons/VE125_randls_43_rotated.json,812280,938924,32,Man
51,561067,DepthScenes,duration_manipulation_targetAtFixation,jsons/VE125_randls_43_rotated.json,http://54.235.29.9/FacialAge/BNav_EC2/DepthDuration/v2_depth_duration_MTurk/v2_DepthDuration_HTML.html#127,127,1366,625,1366,768,8-21-2022,10-10-50,52,depth_duration_stimuli/000191_2014-05-12_17-07-38_260595134347_rgbf000199-resize_0/000191_2014-05-12_17-07-38_260595134347_rgbf000199-resize_0-target.png,125,3.7995,15,4441,149,meters,jsons/VE125_randls_43_rotated.json,812280,938924,32,Man
52,561067,DepthScenes,duration_manipulation_targetAtFixation,jsons/VE125_randls_43_rotated.json,http://54.235.29.9/FacialAge/BNav_EC2/DepthDuration/v2_depth_duration_MTurk/v2_DepthDuration_HTML.html#127,127,1366,625,1366,768,8-21-2022,10-10-50,53,depth_duration_stimuli/000493_2014-06-09_21-01-18_260595134347_rgbf000196-resize_3/000493_2014-06-09_21-01-18_260595134347_rgbf000196-resize_3-target.png,125,3.44,12,2960,124,meters,jsons/VE125_randls_43_rotated.json,812280,938924,32,Man
53,561067,DepthScenes,duration_manipulation_targetAtFixation,jsons/VE125_randls_43_rotated.json,http://54.235.29.9/FacialAge/BNav_EC2/DepthDuration/v2_depth_duration_MTurk/v2_DepthDuration_HTML.html#127,127,1366,625,1366,768,8-21-2022,10-10-50,54,depth_duration_stimuli/003079_2014-06-15_15-18-20_094959634447_rgbf000152-resize_8/003079_2014-06-15_15-18-20_094959634447_rgbf000152-resize_8-target.png,125,2.8775,9,2970,133,meters,jsons/VE125_randls_43_rotated.json,812280,938924,32,Man
54,561067,DepthScenes,duration_manipulation_targetAtFixation,jsons/VE125_randls_43_rotated.json,http://54.235.29.9/FacialAge/BNav_EC2/DepthDuration/v2_depth_duration_MTurk/v2_DepthDuration_HTML.html#127,127,1366,625,1366,768,8-21-2022,10-10-50,55,depth_duration_stimuli/000506_2014-06-08_23-21-00_260595134347_rgbf000070-resize_7/000506_2014-06-08_23-21-00_260595134347_rgbf000070-resize_7-target.png,125,4.0585,9,4166,115,meters,jsons/VE125_randls_43_rotated.json,812280,938924,32,Man
55,561067,DepthScenes,duration_manipulation_targetAtFixation,jsons/VE125_randls_43_rotated.json,http://54.235.29.9/FacialAge/BNav_EC2/DepthDuration/v2_depth_duration_MTurk/v2_DepthDuration_HTML.html#127,127,1366,625,1366,768,8-21-2022,10-10-50,56,depth_duration_stimuli/001136_2014-06-17_15-19-41_260595134347_rgbf000076-resize_3/001136_2014-06-17_15-19-41_260595134347_rgbf000076-resize_3-target.png,125,1.8655,9,13440,118,meters,jsons/VE125_randls_43_rotated.json,812280,938924,32,Man
56,561067,DepthScenes,duration_manipulation_targetAtFixation,jsons/VE125_randls_43_rotated.json,http://54.235.29.9/FacialAge/BNav_EC2/DepthDuration/v2_depth_duration_MTurk/v2_DepthDuration_HTML.html#127,127,1366,625,1366,768,8-21-2022,10-10-50,57,depth_duration_stimuli/001164_2014-06-17_15-35-46_260595134347_rgbf000085-resize_3/001164_2014-06-17_15-35-46_260595134347_rgbf000085-resize_3-target.png,125,2.354,8,2949,147,meters,jsons/VE125_randls_43_rotated.json,812280,938924,32,Man
57,561067,DepthScenes,duration_manipulation_targetAtFixation,jsons/VE125_randls_43_rotated.json,http://54.235.29.9/FacialAge/BNav_EC2/DepthDuration/v2_depth_duration_MTurk/v2_DepthDuration_HTML.html#127,127,1366,625,1366,768,8-21-2022,10-10-50,58,depth_duration_stimuli/002568_2014-06-24_13-59-21_094959634447_rgbf000062-resize_4/002568_2014-06-24_13-59-21_094959634447_rgbf000062-resize_4-target.png,125,3.015,9,3211,114,meters,jsons/VE125_randls_43_rotated.json,812280,938924,32,Man
58,561067,DepthScenes,duration_manipulation_targetAtFixation,jsons/VE125_randls_43_rotated.json,http://54.235.29.9/FacialAge/BNav_EC2/DepthDuration/v2_depth_duration_MTurk/v2_DepthDuration_HTML.html#127,127,1366,625,1366,768,8-21-2022,10-10-50,59,depth_duration_stimuli/003492_2014-05-21_15-50-55_094959634447_rgbf000828-resize_1/003492_2014-05-21_15-50-55_094959634447_rgbf000828-resize_1-target.png,125,4.06875,9,2600,131,meters,jsons/VE125_randls_43_rotated.json,812280,938924,32,Man
59,561067,DepthScenes,duration_manipulation_targetAtFixation,jsons/VE125_randls_43_rotated.json,http://54.235.29.9/FacialAge/BNav_EC2/DepthDuration/v2_depth_duration_MTurk/v2_DepthDuration_HTML.html#127,127,1366,625,1366,768,8-21-2022,10-10-50,60,depth_duration_stimuli/002875_2014-06-01_15-19-00_094959634447_rgbf000151-resize_1/002875_2014-06-01_15-19-00_094959634447_rgbf000151-resize_1-target.png,125,1.9675,8,7500,122,meters,jsons/VE125_randls_43_rotated.json,812280,938924,32,Man
60,561067,DepthScenes,duration_manipulation_targetAtFixation,jsons/VE125_randls_43_rotated.json,http://54.235.29.9/FacialAge/BNav_EC2/DepthDuration/v2_depth_duration_MTurk/v2_DepthDuration_HTML.html#127,127,1366,625,1366,768,8-21-2022,10-10-50,61,depth_duration_stimuli/001011_2014-06-08_23-18-54_260595134347_rgbf000044-resize_4/001011_2014-06-08_23-18-54_260595134347_rgbf000044-resize_4-target.png,125,2.4730000000000003,9,4334,125,meters,jsons/VE125_randls_43_rotated.json,812280,938924,32,Man
61,561067,DepthScenes,duration_manipulation_targetAtFixation,jsons/VE125_randls_43_rotated.json,http://54.235.29.9/FacialAge/BNav_EC2/DepthDuration/v2_depth_duration_MTurk/v2_DepthDuration_HTML.html#127,127,1366,625,1366,768,8-21-2022,10-10-50,62,depth_duration_stimuli/002444_2014-06-28_20-32-08_260595134347_rgbf000027-resize_0/002444_2014-06-28_20-32-08_260595134347_rgbf000027-resize_0-target.png,125,4.388999999999999,8,10145,116,meters,jsons/VE125_randls_43_rotated.json,812280,938924,32,Man
62,561067,DepthScenes,duration_manipulation_targetAtFixation,jsons/VE125_randls_43_rotated.json,http://54.235.29.9/FacialAge/BNav_EC2/DepthDuration/v2_depth_duration_MTurk/v2_DepthDuration_HTML.html#127,127,1366,625,1366,768,8-21-2022,10-10-50,63,depth_duration_stimuli/000436_2014-06-09_22-25-11_260595134347_rgbf000137-resize_1/000436_2014-06-09_22-25-11_260595134347_rgbf000137-resize_1-target.png,125,4.0705,9,3865,115,meters,jsons/VE125_randls_43_rotated.json,812280,938924,32,Man
63,561067,DepthScenes,duration_manipulation_targetAtFixation,jsons/VE125_randls_43_rotated.json,http://54.235.29.9/FacialAge/BNav_EC2/DepthDuration/v2_depth_duration_MTurk/v2_DepthDuration_HTML.html#127,127,1366,625,1366,768,8-21-2022,10-10-50,64,depth_duration_stimuli/000556_2014-06-09_22-42-56_260595134347_rgbf000214-resize_1/000556_2014-06-09_22-42-56_260595134347_rgbf000214-resize_1-target.png,125,4.8415,8,2829,139,meters,jsons/VE125_randls_43_rotated.json,812280,938924,32,Man
64,561067,DepthScenes,duration_manipulation_targetAtFixation,jsons/VE125_randls_43_rotated.json,http://54.235.29.9/FacialAge/BNav_EC2/DepthDuration/v2_depth_duration_MTurk/v2_DepthDuration_HTML.html#127,127,1366,625,1366,768,8-21-2022,10-10-50,65,depth_duration_stimuli/001158_2014-06-17_15-32-16_260595134347_rgbf000138-resize_2/001158_2014-06-17_15-32-16_260595134347_rgbf000138-resize_2-target.png,125,4.5315,9,2897,111,meters,jsons/VE125_randls_43_rotated.json,812280,938924,32,Man
65,561067,DepthScenes,duration_manipulation_targetAtFixation,jsons/VE125_randls_43_rotated.json,http://54.235.29.9/FacialAge/BNav_EC2/DepthDuration/v2_depth_duration_MTurk/v2_DepthDuration_HTML.html#127,127,1366,625,1366,768,8-21-2022,10-10-50,66,depth_duration_stimuli/001540_2014-06-20_17-01-05_260595134347_rgbf000086-resize_2/001540_2014-06-20_17-01-05_260595134347_rgbf000086-resize-original.jpg,125,1.459,9,3174,123,meters,jsons/VE125_randls_43_rotated.json,812280,938924,32,Man
66,561067,DepthScenes,duration_manipulation_targetAtFixation,jsons/VE125_randls_43_rotated.json,http://54.235.29.9/FacialAge/BNav_EC2/DepthDuration/v2_depth_duration_MTurk/v2_DepthDuration_HTML.html#127,127,1366,625,1366,768,8-21-2022,10-10-50,67,depth_duration_stimuli/002323_2014-06-28_20-01-54_260595134347_rgbf000051-resize_4/002323_2014-06-28_20-01-54_260595134347_rgbf000051-resize_4-target.png,125,3.7310000000000003,8,2780,110,meters,jsons/VE125_randls_43_rotated.json,812280,938924,32,Man
67,561067,DepthScenes,duration_manipulation_targetAtFixation,jsons/VE125_randls_43_rotated.json,http://54.235.29.9/FacialAge/BNav_EC2/DepthDuration/v2_depth_duration_MTurk/v2_DepthDuration_HTML.html#127,127,1366,625,1366,768,8-21-2022,10-10-50,68,depth_duration_stimuli/000917_2014-06-09_22-45-29_260595134347_rgbf000149-resize_3/000917_2014-06-09_22-45-29_260595134347_rgbf000149-resize_3-target.png,125,4.1865,9,2897,123,meters,jsons/VE125_randls_43_rotated.json,812280,938924,32,Man
68,561067,DepthScenes,duration_manipulation_targetAtFixation,jsons/VE125_randls_43_rotated.json,http://54.235.29.9/FacialAge/BNav_EC2/DepthDuration/v2_depth_duration_MTurk/v2_DepthDuration_HTML.html#127,127,1366,625,1366,768,8-21-2022,10-10-50,69,depth_duration_stimuli/003228_2014-05-14_13-42-35_094959634447_rgbf000101-resize_1/003228_2014-05-14_13-42-35_094959634447_rgbf000101-resize_1-target.png,125,1.9680000000000002,9,3128,111,meters,jsons/VE125_randls_43_rotated.json,812280,938924,32,Man
69,561067,DepthScenes,duration_manipulation_targetAtFixation,jsons/VE125_randls_43_rotated.json,http://54.235.29.9/FacialAge/BNav_EC2/DepthDuration/v2_depth_duration_MTurk/v2_DepthDuration_HTML.html#127,127,1366,625,1366,768,8-21-2022,10-10-50,70,depth_duration_stimuli/002600_2014-06-24_14-27-04_094959634447_rgbf000074-resize_2/002600_2014-06-24_14-27-04_094959634447_rgbf000074-resize_2-target.png,125,2.7575,9,3277,120,meters,jsons/VE125_randls_43_rotated.json,812280,938924,32,Man
70,561067,DepthScenes,duration_manipulation_targetAtFixation,jsons/VE125_randls_43_rotated.json,http://54.235.29.9/FacialAge/BNav_EC2/DepthDuration/v2_depth_duration_MTurk/v2_DepthDuration_HTML.html#127,127,1366,625,1366,768,8-21-2022,10-10-50,71,depth_duration_stimuli/000927_2014-06-09_16-32-30_260595134347_rgbf000123-resize_3/000927_2014-06-09_16-32-30_260595134347_rgbf000123-resize_3-target.png,125,2.6785,8,6530,122,meters,jsons/VE125_randls_43_rotated.json,812280,938924,32,Man
71,561067,DepthScenes,duration_manipulation_targetAtFixation,jsons/VE125_randls_43_rotated.json,http://54.235.29.9/FacialAge/BNav_EC2/DepthDuration/v2_depth_duration_MTurk/v2_DepthDuration_HTML.html#127,127,1366,625,1366,768,8-21-2022,10-10-50,72,depth_duration_stimuli/001110_2014-06-15_17-25-28_260595134347_rgbf000150-resize_1/001110_2014-06-15_17-25-28_260595134347_rgbf000150-resize_1-target.png,125,1.7115,9,3935,124,meters,jsons/VE125_randls_43_rotated.json,812280,938924,32,Man
72,561067,DepthScenes,duration_manipulation_targetAtFixation,jsons/VE125_randls_43_rotated.json,http://54.235.29.9/FacialAge/BNav_EC2/DepthDuration/v2_depth_duration_MTurk/v2_DepthDuration_HTML.html#127,127,1366,625,1366,768,8-21-2022,10-10-50,73,depth_duration_stimuli/000635_2014-06-08_16-38-42_260595134347_rgbf000106-resize_1/000635_2014-06-08_16-38-42_260595134347_rgbf000106-resize_1-target.png,125,2.074,9,6753,126,meters,jsons/VE125_randls_43_rotated.json,812280,938924,32,Man
73,561067,DepthScenes,duration_manipulation_targetAtFixation,jsons/VE125_randls_43_rotated.json,http://54.235.29.9/FacialAge/BNav_EC2/DepthDuration/v2_depth_duration_MTurk/v2_DepthDuration_HTML.html#127,127,1366,625,1366,768,8-21-2022,10-10-50,74,depth_duration_stimuli/002279_2014-06-28_18-55-32_260595134347_rgbf000040-resize_5/002279_2014-06-28_18-55-32_260595134347_rgbf000040-resize_5-target.png,125,1.5043333333333,10,3010,125,meters,jsons/VE125_randls_43_rotated.json,812280,938924,32,Man
74,561067,DepthScenes,duration_manipulation_targetAtFixation,jsons/VE125_randls_43_rotated.json,http://54.235.29.9/FacialAge/BNav_EC2/DepthDuration/v2_depth_duration_MTurk/v2_DepthDuration_HTML.html#127,127,1366,625,1366,768,8-21-2022,10-10-50,75,depth_duration_stimuli/001214_2014-06-17_16-13-55_260595134347_rgbf000111-resize_0/001214_2014-06-17_16-13-55_260595134347_rgbf000111-resize_0-target.png,125,2.6505,15,3023,126,meters,jsons/VE125_randls_43_rotated.json,812280,938924,32,Man
75,561067,DepthScenes,duration_manipulation_targetAtFixation,jsons/VE125_randls_43_rotated.json,http://54.235.29.9/FacialAge/BNav_EC2/DepthDuration/v2_depth_duration_MTurk/v2_DepthDuration_HTML.html#127,127,1366,625,1366,768,8-21-2022,10-10-50,76,depth_duration_stimuli/000810_2014-06-08_17-20-01_260595134347_rgbf000105-resize_0/000810_2014-06-08_17-20-01_260595134347_rgbf000105-resize_0-target.png,125,1.4865,15,7756,125,meters,jsons/VE125_randls_43_rotated.json,812280,938924,32,Man
76,561067,DepthScenes,duration_manipulation_targetAtFixation,jsons/VE125_randls_43_rotated.json,http://54.235.29.9/FacialAge/BNav_EC2/DepthDuration/v2_depth_duration_MTurk/v2_DepthDuration_HTML.html#127,127,1366,625,1366,768,8-21-2022,10-10-50,77,depth_duration_stimuli/001235_2014-06-17_16-37-36_260595134347_rgbf000084-resize_4/001235_2014-06-17_16-37-36_260595134347_rgbf000084-resize_4-target.png,125,3.6605,5,4359,123,meters,jsons/VE125_randls_43_rotated.json,812280,938924,32,Man
77,561067,DepthScenes,duration_manipulation_targetAtFixation,jsons/VE125_randls_43_rotated.json,http://54.235.29.9/FacialAge/BNav_EC2/DepthDuration/v2_depth_duration_MTurk/v2_DepthDuration_HTML.html#127,127,1366,625,1366,768,8-21-2022,10-10-50,78,depth_duration_stimuli/000788_2014-06-08_22-34-36_260595134347_rgbf000131-resize_1/000788_2014-06-08_22-34-36_260595134347_rgbf000131-resize_1-target.png,125,3.359,10,6559,125,meters,jsons/VE125_randls_43_rotated.json,812280,938924,32,Man
78,561067,DepthScenes,duration_manipulation_targetAtFixation,jsons/VE125_randls_43_rotated.json,http://54.235.29.9/FacialAge/BNav_EC2/DepthDuration/v2_depth_duration_MTurk/v2_DepthDuration_HTML.html#127,127,1366,625,1366,768,8-21-2022,10-10-50,79,depth_duration_stimuli/003490_2014-05-21_15-50-11_094959634447_rgbf000101-resize_3/003490_2014-05-21_15-50-11_094959634447_rgbf000101-resize_3-target.png,125,3.6445,9,13295,140,meters,jsons/VE125_randls_43_rotated.json,812280,938924,32,Man
79,561067,DepthScenes,duration_manipulation_targetAtFixation,jsons/VE125_randls_43_rotated.json,http://54.235.29.9/FacialAge/BNav_EC2/DepthDuration/v2_depth_duration_MTurk/v2_DepthDuration_HTML.html#127,127,1366,625,1366,768,8-21-2022,10-10-50,80,depth_duration_stimuli/001175_2014-06-17_15-45-55_260595134347_rgbf000129-resize_4/001175_2014-06-17_15-45-55_260595134347_rgbf000129-resize_4-target.png,125,4.255,9,10171,124,meters,jsons/VE125_randls_43_rotated.json,812280,938924,32,Man
80,561067,DepthScenes,duration_manipulation_targetAtFixation,jsons/VE125_randls_43_rotated.json,http://54.235.29.9/FacialAge/BNav_EC2/DepthDuration/v2_depth_duration_MTurk/v2_DepthDuration_HTML.html#127,127,1366,625,1366,768,8-21-2022,10-10-50,81,depth_duration_stimuli/003081_2014-06-15_15-19-16_094959634447_rgbf000150-resize_1/003081_2014-06-15_15-19-16_094959634447_rgbf000150-resize_1-target.png,125,3.9125,9,6698,138,meters,jsons/VE125_randls_43_rotated.json,812280,938924,32,Man
81,561067,DepthScenes,duration_manipulation_targetAtFixation,jsons/VE125_randls_43_rotated.json,http://54.235.29.9/FacialAge/BNav_EC2/DepthDuration/v2_depth_duration_MTurk/v2_DepthDuration_HTML.html#127,127,1366,625,1366,768,8-21-2022,10-10-50,82,depth_duration_stimuli/001417_2014-06-19_16-25-36_260595134347_rgbf000115-resize_5/001417_2014-06-19_16-25-36_260595134347_rgbf000115-resize_5-target.png,125,4.6255,9,3657,121,meters,jsons/VE125_randls_43_rotated.json,812280,938924,32,Man
82,561067,DepthScenes,duration_manipulation_targetAtFixation,jsons/VE125_randls_43_rotated.json,http://54.235.29.9/FacialAge/BNav_EC2/DepthDuration/v2_depth_duration_MTurk/v2_DepthDuration_HTML.html#127,127,1366,625,1366,768,8-21-2022,10-10-50,83,depth_duration_stimuli/000866_2014-06-09_20-45-42_260595134347_rgbf000139-resize_1/000866_2014-06-09_20-45-42_260595134347_rgbf000139-resize_1-target.png,125,3.2155,1,3621,109,meters,jsons/VE125_randls_43_rotated.json,812280,938924,32,Man
83,561067,DepthScenes,duration_manipulation_targetAtFixation,jsons/VE125_randls_43_rotated.json,http://54.235.29.9/FacialAge/BNav_EC2/DepthDuration/v2_depth_duration_MTurk/v2_DepthDuration_HTML.html#127,127,1366,625,1366,768,8-21-2022,10-10-50,84,depth_duration_stimuli/002989_2014-06-15_12-25-03_094959634447_rgbf000150-resize_3/002989_2014-06-15_12-25-03_094959634447_rgbf000150-resize_3-target.png,125,4.1975,10,3961,123,meters,jsons/VE125_randls_43_rotated.json,812280,938924,32,Man
84,561067,DepthScenes,duration_manipulation_targetAtFixation,jsons/VE125_randls_43_rotated.json,http://54.235.29.9/FacialAge/BNav_EC2/DepthDuration/v2_depth_duration_MTurk/v2_DepthDuration_HTML.html#127,127,1366,625,1366,768,8-21-2022,10-10-50,85,depth_duration_stimuli/000742_2014-06-08_18-48-09_260595134347_rgbf000164-resize_4/000742_2014-06-08_18-48-09_260595134347_rgbf000164-resize_4-target.png,125,4.632,10,2995,103,meters,jsons/VE125_randls_43_rotated.json,812280,938924,32,Man
85,561067,DepthScenes,duration_manipulation_targetAtFixation,jsons/VE125_randls_43_rotated.json,http://54.235.29.9/FacialAge/BNav_EC2/DepthDuration/v2_depth_duration_MTurk/v2_DepthDuration_HTML.html#127,127,1366,625,1366,768,8-21-2022,10-10-50,86,depth_duration_stimuli/001066_2014-06-08_22-03-20_260595134347_rgbf000066-resize_4/001066_2014-06-08_22-03-20_260595134347_rgbf000066-resize_4-target.png,125,4.2330000000000005,10,15687,119,meters,jsons/VE125_randls_43_rotated.json,812280,938924,32,Man
86,561067,DepthScenes,duration_manipulation_targetAtFixation,jsons/VE125_randls_43_rotated.json,http://54.235.29.9/FacialAge/BNav_EC2/DepthDuration/v2_depth_duration_MTurk/v2_DepthDuration_HTML.html#127,127,1366,625,1366,768,8-21-2022,10-10-50,87,depth_duration_stimuli/001650_2014-06-20_12-09-00_260595134347_rgbf000087-resize_3/001650_2014-06-20_12-09-00_260595134347_rgbf000087-resize_3-target.png,125,1.9505,10,4557,114,meters,jsons/VE125_randls_43_rotated.json,812280,938924,32,Man
87,561067,DepthScenes,duration_manipulation_targetAtFixation,jsons/VE125_randls_43_rotated.json,http://54.235.29.9/FacialAge/BNav_EC2/DepthDuration/v2_depth_duration_MTurk/v2_DepthDuration_HTML.html#127,127,1366,625,1366,768,8-21-2022,10-10-50,88,depth_duration_stimuli/000682_2014-06-08_23-14-58_260595134347_rgbf000041-resize_5/000682_2014-06-08_23-14-58_260595134347_rgbf000041-resize_5-target.png,125,2.7239999999999998,2,17696,124,meters,jsons/VE125_randls_43_rotated.json,812280,938924,32,Man
88,561067,DepthScenes,duration_manipulation_targetAtFixation,jsons/VE125_randls_43_rotated.json,http://54.235.29.9/FacialAge/BNav_EC2/DepthDuration/v2_depth_duration_MTurk/v2_DepthDuration_HTML.html#127,127,1366,625,1366,768,8-21-2022,10-10-50,89,depth_duration_stimuli/003338_2014-05-20_11-01-23_094959634447_rgbf000051-resize_6/003338_2014-05-20_11-01-23_094959634447_rgbf000051-resize_6-target.png,125,1.693,10,6763,121,meters,jsons/VE125_randls_43_rotated.json,812280,938924,32,Man
89,561067,DepthScenes,duration_manipulation_targetAtFixation,jsons/VE125_randls_43_rotated.json,http://54.235.29.9/FacialAge/BNav_EC2/DepthDuration/v2_depth_duration_MTurk/v2_DepthDuration_HTML.html#127,127,1366,625,1366,768,8-21-2022,10-10-50,90,depth_duration_stimuli/002509_2014-06-24_13-19-22_094959634447_rgbf000077-resize_0/002509_2014-06-24_13-19-22_094959634447_rgbf000077-resize_0-target.png,125,1.3065,10,3076,127,meters,jsons/VE125_randls_43_rotated.json,812280,938924,32,Man
90,561067,DepthScenes,duration_manipulation_targetAtFixation,jsons/VE125_randls_43_rotated.json,http://54.235.29.9/FacialAge/BNav_EC2/DepthDuration/v2_depth_duration_MTurk/v2_DepthDuration_HTML.html#127,127,1366,625,1366,768,8-21-2022,10-10-50,91,depth_duration_stimuli/001392_2014-06-19_16-07-59_260595134347_rgbf000046-resize_1/001392_2014-06-19_16-07-59_260595134347_rgbf000046-resize_1-target.png,125,4.135,10,7418,117,meters,jsons/VE125_randls_43_rotated.json,812280,938924,32,Man
91,561067,DepthScenes,duration_manipulation_targetAtFixation,jsons/VE125_randls_43_rotated.json,http://54.235.29.9/FacialAge/BNav_EC2/DepthDuration/v2_depth_duration_MTurk/v2_DepthDuration_HTML.html#127,127,1366,625,1366,768,8-21-2022,10-10-50,92,depth_duration_stimuli/001570_2014-06-20_17-21-09_260595134347_rgbf000135-resize_4/001570_2014-06-20_17-21-09_260595134347_rgbf000135-resize_4-target.png,125,4.467,10,3230,116,meters,jsons/VE125_randls_43_rotated.json,812280,938924,32,Man
92,561067,DepthScenes,duration_manipulation_targetAtFixation,jsons/VE125_randls_43_rotated.json,http://54.235.29.9/FacialAge/BNav_EC2/DepthDuration/v2_depth_duration_MTurk/v2_DepthDuration_HTML.html#127,127,1366,625,1366,768,8-21-2022,10-10-50,93,depth_duration_stimuli/002209_2014-06-28_18-36-10_260595134347_rgbf000051-resize_1/002209_2014-06-28_18-36-10_260595134347_rgbf000051-resize_1-target.png,125,2.057,12,2935,122,meters,jsons/VE125_randls_43_rotated.json,812280,938924,32,Man
93,561067,DepthScenes,duration_manipulation_targetAtFixation,jsons/VE125_randls_43_rotated.json,http://54.235.29.9/FacialAge/BNav_EC2/DepthDuration/v2_depth_duration_MTurk/v2_DepthDuration_HTML.html#127,127,1366,625,1366,768,8-21-2022,10-10-50,94,depth_duration_stimuli/002763_2014-06-22_19-13-10_094959634447_rgbf000075-resize_4/002763_2014-06-22_19-13-10_094959634447_rgbf000075-resize_4-target.png,125,1.68375,10,3029,126,meters,jsons/VE125_randls_43_rotated.json,812280,938924,32,Man
94,561067,DepthScenes,duration_manipulation_targetAtFixation,jsons/VE125_randls_43_rotated.json,http://54.235.29.9/FacialAge/BNav_EC2/DepthDuration/v2_depth_duration_MTurk/v2_DepthDuration_HTML.html#127,127,1366,625,1366,768,8-21-2022,10-10-50,95,depth_duration_stimuli/001516_2014-06-20_16-25-09_260595134347_rgbf000076-resize_2/001516_2014-06-20_16-25-09_260595134347_rgbf000076-resize_2-target.png,125,1.7445,10,2856,140,meters,jsons/VE125_randls_43_rotated.json,812280,938924,32,Man
95,561067,DepthScenes,duration_manipulation_targetAtFixation,jsons/VE125_randls_43_rotated.json,http://54.235.29.9/FacialAge/BNav_EC2/DepthDuration/v2_depth_duration_MTurk/v2_DepthDuration_HTML.html#127,127,1366,625,1366,768,8-21-2022,10-10-50,96,depth_duration_stimuli/002118_2014-06-25_20-32-08_260595134347_rgbf000078-resize_1/002118_2014-06-25_20-32-08_260595134347_rgbf000078-resize_1-target.png,125,2.6460000000000004,10,2902,124,meters,jsons/VE125_randls_43_rotated.json,812280,938924,32,Man
96,561067,DepthScenes,duration_manipulation_targetAtFixation,jsons/VE125_randls_43_rotated.json,http://54.235.29.9/FacialAge/BNav_EC2/DepthDuration/v2_depth_duration_MTurk/v2_DepthDuration_HTML.html#127,127,1366,625,1366,768,8-21-2022,10-10-50,97,depth_duration_stimuli/001571_2014-06-20_17-21-32_260595134347_rgbf000089-resize_1/001571_2014-06-20_17-21-32_260595134347_rgbf000089-resize_1-target.png,125,1.86,10,3818,127,meters,jsons/VE125_randls_43_rotated.json,812280,938924,32,Man
97,561067,DepthScenes,duration_manipulation_targetAtFixation,jsons/VE125_randls_43_rotated.json,http://54.235.29.9/FacialAge/BNav_EC2/DepthDuration/v2_depth_duration_MTurk/v2_DepthDuration_HTML.html#127,127,1366,625,1366,768,8-21-2022,10-10-50,98,depth_duration_stimuli/002272_2014-06-28_18-53-56_260595134347_rgbf000067-resize_2/002272_2014-06-28_18-53-56_260595134347_rgbf000067-resize_2-target.png,125,1.138,15,2658,123,meters,jsons/VE125_randls_43_rotated.json,812280,938924,32,Man
98,561067,DepthScenes,duration_manipulation_targetAtFixation,jsons/VE125_randls_43_rotated.json,http://54.235.29.9/FacialAge/BNav_EC2/DepthDuration/v2_depth_duration_MTurk/v2_DepthDuration_HTML.html#127,127,1366,625,1366,768,8-21-2022,10-10-50,99,depth_duration_stimuli/001222_2014-06-17_16-24-06_260595134347_rgbf000073-resize_0/001222_2014-06-17_16-24-06_260595134347_rgbf000073-resize-original.jpg,125,1.4385,10,2685,156,meters,jsons/VE125_randls_43_rotated.json,812280,938924,32,Man
99,561067,DepthScenes,duration_manipulation_targetAtFixation,jsons/VE125_randls_43_rotated.json,http://54.235.29.9/FacialAge/BNav_EC2/DepthDuration/v2_depth_duration_MTurk/v2_DepthDuration_HTML.html#127,127,1366,625,1366,768,8-21-2022,10-10-50,100,depth_duration_stimuli/003423_2014-05-21_10-23-26_094959634447_rgbf002665-resize_2/003423_2014-05-21_10-23-26_094959634447_rgbf002665-resize_2-target.png,125,3.2575,12,2619,123,meters,jsons/VE125_randls_43_rotated.json,812280,938924,32,Man
100,561067,DepthScenes,duration_manipulation_targetAtFixation,jsons/VE125_randls_43_rotated.json,http://54.235.29.9/FacialAge/BNav_EC2/DepthDuration/v2_depth_duration_MTurk/v2_DepthDuration_HTML.html#127,127,1366,625,1366,768,8-21-2022,10-10-50,101,depth_duration_stimuli/002905_2014-06-03_18-04-43_094959634447_rgbf000151-resize_2/002905_2014-06-03_18-04-43_094959634447_rgbf000151-resize_2-target.png,125,2.0295,12,2562,145,meters,jsons/VE125_randls_43_rotated.json,812280,938924,32,Man
101,561067,DepthScenes,duration_manipulation_targetAtFixation,jsons/VE125_randls_43_rotated.json,http://54.235.29.9/FacialAge/BNav_EC2/DepthDuration/v2_depth_duration_MTurk/v2_DepthDuration_HTML.html#127,127,1366,625,1366,768,8-21-2022,10-10-50,102,depth_duration_stimuli/003129_2014-05-12_10-48-10_094959634447_rgbf000100-resize_0/003129_2014-05-12_10-48-10_094959634447_rgbf000100-resize_0-target.png,125,4.9305,12,5208,104,meters,jsons/VE125_randls_43_rotated.json,812280,938924,32,Man
102,561067,DepthScenes,duration_manipulation_targetAtFixation,jsons/VE125_randls_43_rotated.json,http://54.235.29.9/FacialAge/BNav_EC2/DepthDuration/v2_depth_duration_MTurk/v2_DepthDuration_HTML.html#127,127,1366,625,1366,768,8-21-2022,10-10-50,103,depth_duration_stimuli/000414_2014-06-04_19-49-13_260595134347_rgbf000044-resize_0/000414_2014-06-04_19-49-13_260595134347_rgbf000044-resize_0-target.png,125,4.329,10,3382,147,meters,jsons/VE125_randls_43_rotated.json,812280,938924,32,Man
103,561067,DepthScenes,duration_manipulation_targetAtFixation,jsons/VE125_randls_43_rotated.json,http://54.235.29.9/FacialAge/BNav_EC2/DepthDuration/v2_depth_duration_MTurk/v2_DepthDuration_HTML.html#127,127,1366,625,1366,768,8-21-2022,10-10-50,104,depth_duration_stimuli/000691_2014-06-08_13-08-50_260595134347_rgbf000132-resize_3/000691_2014-06-08_13-08-50_260595134347_rgbf000132-resize_3-target.png,125,4.1530000000000005,10,2853,123,meters,jsons/VE125_randls_43_rotated.json,812280,938924,32,Man
104,561067,DepthScenes,duration_manipulation_targetAtFixation,jsons/VE125_randls_43_rotated.json,http://54.235.29.9/FacialAge/BNav_EC2/DepthDuration/v2_depth_duration_MTurk/v2_DepthDuration_HTML.html#127,127,1366,625,1366,768,8-21-2022,10-10-50,105,depth_duration_stimuli/002213_2014-06-28_18-37-58_260595134347_rgbf000055-resize_1/002213_2014-06-28_18-37-58_260595134347_rgbf000055-resize_1-target.png,125,3.62,12,2685,125,meters,jsons/VE125_randls_43_rotated.json,812280,938924,32,Man
105,561067,DepthScenes,duration_manipulation_targetAtFixation,jsons/VE125_randls_43_rotated.json,http://54.235.29.9/FacialAge/BNav_EC2/DepthDuration/v2_depth_duration_MTurk/v2_DepthDuration_HTML.html#127,127,1366,625,1366,768,8-21-2022,10-10-50,106,depth_duration_stimuli/001100_2014-06-15_17-46-26_260595134347_rgbf000225-resize_2/001100_2014-06-15_17-46-26_260595134347_rgbf000225-resize_2-target.png,125,2.24,10,2739,124,meters,jsons/VE125_randls_43_rotated.json,812280,938924,32,Man
106,561067,DepthScenes,duration_manipulation_targetAtFixation,jsons/VE125_randls_43_rotated.json,http://54.235.29.9/FacialAge/BNav_EC2/DepthDuration/v2_depth_duration_MTurk/v2_DepthDuration_HTML.html#127,127,1366,625,1366,768,8-21-2022,10-10-50,107,depth_duration_stimuli/002784_2014-06-22_19-26-30_094959634447_rgbf000083-resize_3/002784_2014-06-22_19-26-30_094959634447_rgbf000083-resize_3-target.png,125,1.8046666666667,10,3010,110,meters,jsons/VE125_randls_43_rotated.json,812280,938924,32,Man
107,561067,DepthScenes,duration_manipulation_targetAtFixation,jsons/VE125_randls_43_rotated.json,http://54.235.29.9/FacialAge/BNav_EC2/DepthDuration/v2_depth_duration_MTurk/v2_DepthDuration_HTML.html#127,127,1366,625,1366,768,8-21-2022,10-10-50,108,depth_duration_stimuli/002199_2014-06-28_18-33-56_260595134347_rgbf000074-resize_0/002199_2014-06-28_18-33-56_260595134347_rgbf000074-resize_0-target.png,125,1.996,15,2750,125,meters,jsons/VE125_randls_43_rotated.json,812280,938924,32,Man
108,561067,DepthScenes,duration_manipulation_targetAtFixation,jsons/VE125_randls_43_rotated.json,http://54.235.29.9/FacialAge/BNav_EC2/DepthDuration/v2_depth_duration_MTurk/v2_DepthDuration_HTML.html#127,127,1366,625,1366,768,8-21-2022,10-10-50,109,depth_duration_stimuli/001056_2014-06-08_18-46-44_260595134347_rgbf000068-resize_0/001056_2014-06-08_18-46-44_260595134347_rgbf000068-resize_0-target.png,125,2.6625,10,2926,139,meters,jsons/VE125_randls_43_rotated.json,812280,938924,32,Man
109,561067,DepthScenes,duration_manipulation_targetAtFixation,jsons/VE125_randls_43_rotated.json,http://54.235.29.9/FacialAge/BNav_EC2/DepthDuration/v2_depth_duration_MTurk/v2_DepthDuration_HTML.html#127,127,1366,625,1366,768,8-21-2022,10-10-50,110,depth_duration_stimuli/000665_2014-06-09_20-42-35_260595134347_rgbf000110-resize_1/000665_2014-06-09_20-42-35_260595134347_rgbf000110-resize_1-target.png,125,3.057,10,3727,123,meters,jsons/VE125_randls_43_rotated.json,812280,938924,32,Man
110,561067,DepthScenes,duration_manipulation_targetAtFixation,jsons/VE125_randls_43_rotated.json,http://54.235.29.9/FacialAge/BNav_EC2/DepthDuration/v2_depth_duration_MTurk/v2_DepthDuration_HTML.html#127,127,1366,625,1366,768,8-21-2022,10-10-50,111,depth_duration_stimuli/001150_2014-06-17_15-27-34_260595134347_rgbf000108-resize_2/001150_2014-06-17_15-27-34_260595134347_rgbf000108-resize_2-target.png,125,4.0325,12,4493,120,meters,jsons/VE125_randls_43_rotated.json,812280,938924,32,Man
111,561067,DepthScenes,duration_manipulation_targetAtFixation,jsons/VE125_randls_43_rotated.json,http://54.235.29.9/FacialAge/BNav_EC2/DepthDuration/v2_depth_duration_MTurk/v2_DepthDuration_HTML.html#127,127,1366,625,1366,768,8-21-2022,10-10-50,112,depth_duration_stimuli/002660_2014-06-13_15-44-18_094959634447_rgbf001878-resize_2/002660_2014-06-13_15-44-18_094959634447_rgbf001878-resize_2-target.png,125,3.576,10,3058,131,meters,jsons/VE125_randls_43_rotated.json,812280,938924,32,Man
112,561067,DepthScenes,duration_manipulation_targetAtFixation,jsons/VE125_randls_43_rotated.json,http://54.235.29.9/FacialAge/BNav_EC2/DepthDuration/v2_depth_duration_MTurk/v2_DepthDuration_HTML.html#127,127,1366,625,1366,768,8-21-2022,10-10-50,113,depth_duration_stimuli/002153_2014-06-25_21-27-18_260595134347_rgbf000038-resize_5/002153_2014-06-25_21-27-18_260595134347_rgbf000038-resize_5-target.png,125,2.505,10,4035,123,meters,jsons/VE125_randls_43_rotated.json,812280,938924,32,Man
113,561067,DepthScenes,duration_manipulation_targetAtFixation,jsons/VE125_randls_43_rotated.json,http://54.235.29.9/FacialAge/BNav_EC2/DepthDuration/v2_depth_duration_MTurk/v2_DepthDuration_HTML.html#127,127,1366,625,1366,768,8-21-2022,10-10-50,114,depth_duration_stimuli/001052_2014-06-08_18-24-54_260595134347_rgbf000130-resize_1/001052_2014-06-08_18-24-54_260595134347_rgbf000130-resize_1-target.png,125,4.1045,10,4303,128,meters,jsons/VE125_randls_43_rotated.json,812280,938924,32,Man
114,561067,DepthScenes,duration_manipulation_targetAtFixation,jsons/VE125_randls_43_rotated.json,http://54.235.29.9/FacialAge/BNav_EC2/DepthDuration/v2_depth_duration_MTurk/v2_DepthDuration_HTML.html#127,127,1366,625,1366,768,8-21-2022,10-10-50,115,depth_duration_stimuli/002988_2014-06-15_12-24-20_094959634447_rgbf000150-resize_1/002988_2014-06-15_12-24-20_094959634447_rgbf000150-resize_1-target.png,125,4.7669999999999995,15,6770,108,meters,jsons/VE125_randls_43_rotated.json,812280,938924,32,Man
115,561067,DepthScenes,duration_manipulation_targetAtFixation,jsons/VE125_randls_43_rotated.json,http://54.235.29.9/FacialAge/BNav_EC2/DepthDuration/v2_depth_duration_MTurk/v2_DepthDuration_HTML.html#127,127,1366,625,1366,768,8-21-2022,10-10-50,116,depth_duration_stimuli/001447_2014-06-19_17-00-32_260595134347_rgbf000082-resize_5/001447_2014-06-19_17-00-32_260595134347_rgbf000082-resize_5-target.png,125,4.13775,15,6164,139,meters,jsons/VE125_randls_43_rotated.json,812280,938924,32,Man
116,561067,DepthScenes,duration_manipulation_targetAtFixation,jsons/VE125_randls_43_rotated.json,http://54.235.29.9/FacialAge/BNav_EC2/DepthDuration/v2_depth_duration_MTurk/v2_DepthDuration_HTML.html#127,127,1366,625,1366,768,8-21-2022,10-10-50,117,depth_duration_stimuli/000447_2014-06-08_16-15-46_260595134347_rgbf000130-resize_1/000447_2014-06-08_16-15-46_260595134347_rgbf000130-resize_1-target.png,125,4.479,12,3860,114,meters,jsons/VE125_randls_43_rotated.json,812280,938924,32,Man
117,561067,DepthScenes,duration_manipulation_targetAtFixation,jsons/VE125_randls_43_rotated.json,http://54.235.29.9/FacialAge/BNav_EC2/DepthDuration/v2_depth_duration_MTurk/v2_DepthDuration_HTML.html#127,127,1366,625,1366,768,8-21-2022,10-10-50,118,depth_duration_stimuli/000709_2014-06-08_13-51-55_260595134347_rgbf000068-resize_3/000709_2014-06-08_13-51-55_260595134347_rgbf000068-resize_3-target.png,125,1.8030000000000002,154,3234,115,meters,jsons/VE125_randls_43_rotated.json,812280,938924,32,Man
118,561067,DepthScenes,duration_manipulation_targetAtFixation,jsons/VE125_randls_43_rotated.json,http://54.235.29.9/FacialAge/BNav_EC2/DepthDuration/v2_depth_duration_MTurk/v2_DepthDuration_HTML.html#127,127,1366,625,1366,768,8-21-2022,10-10-50,119,depth_duration_stimuli/002057_2014-06-24_21-00-13_260595134347_rgbf000120-resize_1/002057_2014-06-24_21-00-13_260595134347_rgbf000120-resize_1-target.png,125,2.967,15,3296,111,meters,jsons/VE125_randls_43_rotated.json,812280,938924,32,Man
119,561067,DepthScenes,duration_manipulation_targetAtFixation,jsons/VE125_randls_43_rotated.json,http://54.235.29.9/FacialAge/BNav_EC2/DepthDuration/v2_depth_duration_MTurk/v2_DepthDuration_HTML.html#127,127,1366,625,1366,768,8-21-2022,10-10-50,120,depth_duration_stimuli/000787_2014-06-08_22-33-53_260595134347_rgbf000175-resize_1/000787_2014-06-08_22-33-53_260595134347_rgbf000175-resize-original.jpg,125,4.784,10,2920,125,meters,jsons/VE125_randls_43_rotated.json,812280,938924,32,Man
120,561067,DepthScenes,duration_manipulation_targetAtFixation,jsons/VE125_randls_43_rotated.json,http://54.235.29.9/FacialAge/BNav_EC2/DepthDuration/v2_depth_duration_MTurk/v2_DepthDuration_HTML.html#127,127,1366,625,1366,768,8-21-2022,10-10-50,121,depth_duration_stimuli/000780_2014-06-08_22-28-29_260595134347_rgbf000126-resize_1/000780_2014-06-08_22-28-29_260595134347_rgbf000126-resize_1-target.png,125,3.3825,10,2753,124,meters,jsons/VE125_randls_43_rotated.json,812280,938924,32,Man
121,561067,DepthScenes,duration_manipulation_targetAtFixation,jsons/VE125_randls_43_rotated.json,http://54.235.29.9/FacialAge/BNav_EC2/DepthDuration/v2_depth_duration_MTurk/v2_DepthDuration_HTML.html#127,127,1366,625,1366,768,8-21-2022,10-10-50,122,depth_duration_stimuli/002445_2014-06-28_20-32-16_260595134347_rgbf000029-resize_4/002445_2014-06-28_20-32-16_260595134347_rgbf000029-resize_4-target.png,125,2.5315,10,3913,123,meters,jsons/VE125_randls_43_rotated.json,812280,938924,32,Man
122,561067,DepthScenes,duration_manipulation_targetAtFixation,jsons/VE125_randls_43_rotated.json,http://54.235.29.9/FacialAge/BNav_EC2/DepthDuration/v2_depth_duration_MTurk/v2_DepthDuration_HTML.html#127,127,1366,625,1366,768,8-21-2022,10-10-50,123,depth_duration_stimuli/002425_2014-06-28_20-27-29_260595134347_rgbf000031-resize_8/002425_2014-06-28_20-27-29_260595134347_rgbf000031-resize_8-target.png,125,3.8960000000000004,10,4036,115,meters,jsons/VE125_randls_43_rotated.json,812280,938924,32,Man
123,561067,DepthScenes,duration_manipulation_targetAtFixation,jsons/VE125_randls_43_rotated.json,http://54.235.29.9/FacialAge/BNav_EC2/DepthDuration/v2_depth_duration_MTurk/v2_DepthDuration_HTML.html#127,127,1366,625,1366,768,8-21-2022,10-10-50,124,depth_duration_stimuli/000642_2014-06-08_16-59-25_260595134347_rgbf000098-resize_2/000642_2014-06-08_16-59-25_260595134347_rgbf000098-resize_2-target.png,125,2.8815,12,4640,124,meters,jsons/VE125_randls_43_rotated.json,812280,938924,32,Man
124,561067,DepthScenes,duration_manipulation_targetAtFixation,jsons/VE125_randls_43_rotated.json,http://54.235.29.9/FacialAge/BNav_EC2/DepthDuration/v2_depth_duration_MTurk/v2_DepthDuration_HTML.html#127,127,1366,625,1366,768,8-21-2022,10-10-50,125,depth_duration_stimuli/002805_2014-06-22_19-54-03_094959634447_rgbf000079-resize_1/002805_2014-06-22_19-54-03_094959634447_rgbf000079-resize_1-target.png,125,3.1439999999999997,12,13094,120,meters,jsons/VE125_randls_43_rotated.json,812280,938924,32,Man
125,561067,DepthScenes,duration_manipulation_targetAtFixation,jsons/VE125_randls_43_rotated.json,http://54.235.29.9/FacialAge/BNav_EC2/DepthDuration/v2_depth_duration_MTurk/v2_DepthDuration_HTML.html#127,127,1366,625,1366,768,8-21-2022,10-10-50,126,depth_duration_stimuli/000906_2014-06-08_13-35-43_260595134347_rgbf000155-resize_1/000906_2014-06-08_13-35-43_260595134347_rgbf000155-resize_1-target.png,125,2.8489999999999998,12,4402,141,meters,jsons/VE125_randls_43_rotated.json,812280,938924,32,Man
126,561067,DepthScenes,duration_manipulation_targetAtFixation,jsons/VE125_randls_43_rotated.json,http://54.235.29.9/FacialAge/BNav_EC2/DepthDuration/v2_depth_duration_MTurk/v2_DepthDuration_HTML.html#127,127,1366,625,1366,768,8-21-2022,10-10-50,127,depth_duration_stimuli/002750_2014-06-22_19-08-03_094959634447_rgbf000094-resize_4/002750_2014-06-22_19-08-03_094959634447_rgbf000094-resize_4-target.png,125,2.354,12,3664,124,meters,jsons/VE125_randls_43_rotated.json,812280,938924,32,Man
127,561067,DepthScenes,duration_manipulation_targetAtFixation,jsons/VE125_randls_43_rotated.json,http://54.235.29.9/FacialAge/BNav_EC2/DepthDuration/v2_depth_duration_MTurk/v2_DepthDuration_HTML.html#127,127,1366,625,1366,768,8-21-2022,10-10-50,128,depth_duration_stimuli/002549_2014-06-24_13-41-39_094959634447_rgbf000022-resize_3/002549_2014-06-24_13-41-39_094959634447_rgbf000022-resize_3-target.png,125,1.476,15,3148,132,meters,jsons/VE125_randls_43_rotated.json,812280,938924,32,Man
128,561067,DepthScenes,duration_manipulation_targetAtFixation,jsons/VE125_randls_43_rotated.json,http://54.235.29.9/FacialAge/BNav_EC2/DepthDuration/v2_depth_duration_MTurk/v2_DepthDuration_HTML.html#127,127,1366,625,1366,768,8-21-2022,10-10-50,129,depth_duration_stimuli/000457_2014-06-08_16-52-43_260595134347_rgbf000199-resize_1/000457_2014-06-08_16-52-43_260595134347_rgbf000199-resize_1-target.png,125,3.6489999999999996,12,4228,119,meters,jsons/VE125_randls_43_rotated.json,812280,938924,32,Man
129,561067,DepthScenes,duration_manipulation_targetAtFixation,jsons/VE125_randls_43_rotated.json,http://54.235.29.9/FacialAge/BNav_EC2/DepthDuration/v2_depth_duration_MTurk/v2_DepthDuration_HTML.html#127,127,1366,625,1366,768,8-21-2022,10-10-50,130,depth_duration_stimuli/000929_2014-06-09_16-33-19_260595134347_rgbf000139-resize_0/000929_2014-06-09_16-33-19_260595134347_rgbf000139-resize_0-target.png,125,2.8680000000000003,15,2927,108,meters,jsons/VE125_randls_43_rotated.json,812280,938924,32,Man
130,561067,DepthScenes,duration_manipulation_targetAtFixation,jsons/VE125_randls_43_rotated.json,http://54.235.29.9/FacialAge/BNav_EC2/DepthDuration/v2_depth_duration_MTurk/v2_DepthDuration_HTML.html#127,127,1366,625,1366,768,8-21-2022,10-10-50,131,depth_duration_stimuli/000409_2014-06-04_19-23-33_260595134347_rgbf000067-resize_0/000409_2014-06-04_19-23-33_260595134347_rgbf000067-resize_0-target.png,125,3.7335,15,2840,124,meters,jsons/VE125_randls_43_rotated.json,812280,938924,32,Man
131,561067,DepthScenes,duration_manipulation_targetAtFixation,jsons/VE125_randls_43_rotated.json,http://54.235.29.9/FacialAge/BNav_EC2/DepthDuration/v2_depth_duration_MTurk/v2_DepthDuration_HTML.html#127,127,1366,625,1366,768,8-21-2022,10-10-50,132,depth_duration_stimuli/002663_2014-06-13_15-50-26_094959634447_rgbf000075-resize_1/002663_2014-06-13_15-50-26_094959634447_rgbf000075-resize_1-target.png,125,4.7495,15,4107,122,meters,jsons/VE125_randls_43_rotated.json,812280,938924,32,Man
132,561067,DepthScenes,duration_manipulation_targetAtFixation,jsons/VE125_randls_43_rotated.json,http://54.235.29.9/FacialAge/BNav_EC2/DepthDuration/v2_depth_duration_MTurk/v2_DepthDuration_HTML.html#127,127,1366,625,1366,768,8-21-2022,10-10-50,133,depth_duration_stimuli/002953_2014-06-08_17-32-18_094959634447_rgbf000059-resize_5/002953_2014-06-08_17-32-18_094959634447_rgbf000059-resize_5-target.png,125,1.551,14,2879,124,meters,jsons/VE125_randls_43_rotated.json,812280,938924,32,Man
133,561067,DepthScenes,duration_manipulation_targetAtFixation,jsons/VE125_randls_43_rotated.json,http://54.235.29.9/FacialAge/BNav_EC2/DepthDuration/v2_depth_duration_MTurk/v2_DepthDuration_HTML.html#127,127,1366,625,1366,768,8-21-2022,10-10-50,134,depth_duration_stimuli/000878_2014-06-08_22-52-45_260595134347_rgbf000045-resize_2/000878_2014-06-08_22-52-45_260595134347_rgbf000045-resize_2-target.png,125,2.092,15,3319,113,meters,jsons/VE125_randls_43_rotated.json,812280,938924,32,Man
134,561067,DepthScenes,duration_manipulation_targetAtFixation,jsons/VE125_randls_43_rotated.json,http://54.235.29.9/FacialAge/BNav_EC2/DepthDuration/v2_depth_duration_MTurk/v2_DepthDuration_HTML.html#127,127,1366,625,1366,768,8-21-2022,10-10-50,135,depth_duration_stimuli/000375_2014-06-08_11-17-29_260595134347_rgbf000133-resize_2/000375_2014-06-08_11-17-29_260595134347_rgbf000133-resize-original.jpg,125,4.718,15,2717,143,meters,jsons/VE125_randls_43_rotated.json,812280,938924,32,Man
135,561067,DepthScenes,duration_manipulation_targetAtFixation,jsons/VE125_randls_43_rotated.json,http://54.235.29.9/FacialAge/BNav_EC2/DepthDuration/v2_depth_duration_MTurk/v2_DepthDuration_HTML.html#127,127,1366,625,1366,768,8-21-2022,10-10-50,136,depth_duration_stimuli/000677_2014-06-08_23-10-32_260595134347_rgbf000158-resize_6/000677_2014-06-08_23-10-32_260595134347_rgbf000158-resize_6-target.png,125,3.556,12,3057,123,meters,jsons/VE125_randls_43_rotated.json,812280,938924,32,Man
136,561067,DepthScenes,duration_manipulation_targetAtFixation,jsons/VE125_randls_43_rotated.json,http://54.235.29.9/FacialAge/BNav_EC2/DepthDuration/v2_depth_duration_MTurk/v2_DepthDuration_HTML.html#127,127,1366,625,1366,768,8-21-2022,10-10-50,137,depth_duration_stimuli/001029_2014-06-08_13-17-57_260595134347_rgbf000065-resize_1/001029_2014-06-08_13-17-57_260595134347_rgbf000065-resize_1-target.png,125,3.0835,10,3368,140,meters,jsons/VE125_randls_43_rotated.json,812280,938924,32,Man
137,561067,DepthScenes,duration_manipulation_targetAtFixation,jsons/VE125_randls_43_rotated.json,http://54.235.29.9/FacialAge/BNav_EC2/DepthDuration/v2_depth_duration_MTurk/v2_DepthDuration_HTML.html#127,127,1366,625,1366,768,8-21-2022,10-10-50,138,depth_duration_stimuli/000943_2014-06-09_19-31-07_260595134347_rgbf000128-resize_1/000943_2014-06-09_19-31-07_260595134347_rgbf000128-resize_1-target.png,125,1.9765,10,4268,125,meters,jsons/VE125_randls_43_rotated.json,812280,938924,32,Man
138,561067,DepthScenes,duration_manipulation_targetAtFixation,jsons/VE125_randls_43_rotated.json,http://54.235.29.9/FacialAge/BNav_EC2/DepthDuration/v2_depth_duration_MTurk/v2_DepthDuration_HTML.html#127,127,1366,625,1366,768,8-21-2022,10-10-50,139,depth_duration_stimuli/003070_2014-06-15_14-58-27_094959634447_rgbf000150-resize_3/003070_2014-06-15_14-58-27_094959634447_rgbf000150-resize_3-target.png,125,2.9415,10,5014,123,meters,jsons/VE125_randls_43_rotated.json,812280,938924,32,Man
139,561067,DepthScenes,duration_manipulation_targetAtFixation,jsons/VE125_randls_43_rotated.json,http://54.235.29.9/FacialAge/BNav_EC2/DepthDuration/v2_depth_duration_MTurk/v2_DepthDuration_HTML.html#127,127,1366,625,1366,768,8-21-2022,10-10-50,140,depth_duration_stimuli/001584_2014-06-20_11-07-43_260595134347_rgbf000002-resize_1/001584_2014-06-20_11-07-43_260595134347_rgbf000002-resize_1-target.png,125,3.53,10,11238,124,meters,jsons/VE125_randls_43_rotated.json,812280,938924,32,Man
140,561067,DepthScenes,duration_manipulation_targetAtFixation,jsons/VE125_randls_43_rotated.json,http://54.235.29.9/FacialAge/BNav_EC2/DepthDuration/v2_depth_duration_MTurk/v2_DepthDuration_HTML.html#127,127,1366,625,1366,768,8-21-2022,10-10-50,141,depth_duration_stimuli/003621_2014-05-23_18-06-08_094959634447_rgbf000101-resize_1/003621_2014-05-23_18-06-08_094959634447_rgbf000101-resize_1-target.png,125,3.9835,12,3319,141,meters,jsons/VE125_randls_43_rotated.json,812280,938924,32,Man
141,561067,DepthScenes,duration_manipulation_targetAtFixation,jsons/VE125_randls_43_rotated.json,http://54.235.29.9/FacialAge/BNav_EC2/DepthDuration/v2_depth_duration_MTurk/v2_DepthDuration_HTML.html#127,127,1366,625,1366,768,8-21-2022,10-10-50,142,depth_duration_stimuli/000734_2014-06-08_17-39-11_260595134347_rgbf000128-resize_2/000734_2014-06-08_17-39-11_260595134347_rgbf000128-resize_2-target.png,125,4.098,12,4038,118,meters,jsons/VE125_randls_43_rotated.json,812280,938924,32,Man
142,561067,DepthScenes,duration_manipulation_targetAtFixation,jsons/VE125_randls_43_rotated.json,http://54.235.29.9/FacialAge/BNav_EC2/DepthDuration/v2_depth_duration_MTurk/v2_DepthDuration_HTML.html#127,127,1366,625,1366,768,8-21-2022,10-10-50,143,depth_duration_stimuli/000739_2014-06-08_18-45-58_260595134347_rgbf000068-resize_1/000739_2014-06-08_18-45-58_260595134347_rgbf000068-resize_1-target.png,125,3.534,10,4838,137,meters,jsons/VE125_randls_43_rotated.json,812280,938924,32,Man
143,561067,DepthScenes,duration_manipulation_targetAtFixation,jsons/VE125_randls_43_rotated.json,http://54.235.29.9/FacialAge/BNav_EC2/DepthDuration/v2_depth_duration_MTurk/v2_DepthDuration_HTML.html#127,127,1366,625,1366,768,8-21-2022,10-10-50,144,depth_duration_stimuli/001815_2014-06-26_20-52-55_260595134347_rgbf000020-resize_0/001815_2014-06-26_20-52-55_260595134347_rgbf000020-resize_0-target.png,125,3.3865,12,3743,140,meters,jsons/VE125_randls_43_rotated.json,812280,938924,32,Man
144,561067,DepthScenes,duration_manipulation_targetAtFixation,jsons/VE125_randls_43_rotated.json,http://54.235.29.9/FacialAge/BNav_EC2/DepthDuration/v2_depth_duration_MTurk/v2_DepthDuration_HTML.html#127,127,1366,625,1366,768,8-21-2022,10-10-50,145,depth_duration_stimuli/001808_2014-06-26_20-50-58_260595134347_rgbf000029-resize_1/001808_2014-06-26_20-50-58_260595134347_rgbf000029-resize_1-target.png,125,4.249,10,3510,121,meters,jsons/VE125_randls_43_rotated.json,812280,938924,32,Man
145,561067,DepthScenes,duration_manipulation_targetAtFixation,jsons/VE125_randls_43_rotated.json,http://54.235.29.9/FacialAge/BNav_EC2/DepthDuration/v2_depth_duration_MTurk/v2_DepthDuration_HTML.html#127,127,1366,625,1366,768,8-21-2022,10-10-50,146,depth_duration_stimuli/003010_2014-06-15_12-54-35_094959634447_rgbf000112-resize_0/003010_2014-06-15_12-54-35_094959634447_rgbf000112-resize_0-target.png,125,3.1185,10,2768,104,meters,jsons/VE125_randls_43_rotated.json,812280,938924,32,Man
146,561067,DepthScenes,duration_manipulation_targetAtFixation,jsons/VE125_randls_43_rotated.json,http://54.235.29.9/FacialAge/BNav_EC2/DepthDuration/v2_depth_duration_MTurk/v2_DepthDuration_HTML.html#127,127,1366,625,1366,768,8-21-2022,10-10-50,147,depth_duration_stimuli/001810_2014-06-26_20-51-35_260595134347_rgbf000040-resize_3/001810_2014-06-26_20-51-35_260595134347_rgbf000040-resize_3-target.png,125,2.2525,12,2746,137,meters,jsons/VE125_randls_43_rotated.json,812280,938924,32,Man
147,561067,DepthScenes,duration_manipulation_targetAtFixation,jsons/VE125_randls_43_rotated.json,http://54.235.29.9/FacialAge/BNav_EC2/DepthDuration/v2_depth_duration_MTurk/v2_DepthDuration_HTML.html#127,127,1366,625,1366,768,8-21-2022,10-10-50,148,depth_duration_stimuli/000109_2014-05-14_23-41-52_260595134347_rgbf000035-resize_9/000109_2014-05-14_23-41-52_260595134347_rgbf000035-resize_9-target.png,125,1.3545,10,2677,121,meters,jsons/VE125_randls_43_rotated.json,812280,938924,32,Man
148,561067,DepthScenes,duration_manipulation_targetAtFixation,jsons/VE125_randls_43_rotated.json,http://54.235.29.9/FacialAge/BNav_EC2/DepthDuration/v2_depth_duration_MTurk/v2_DepthDuration_HTML.html#127,127,1366,625,1366,768,8-21-2022,10-10-50,149,depth_duration_stimuli/000470_2014-06-09_19-42-40_260595134347_rgbf000094-resize_1/000470_2014-06-09_19-42-40_260595134347_rgbf000094-resize_1-target.png,125,1.831,12,2838,139,meters,jsons/VE125_randls_43_rotated.json,812280,938924,32,Man
149,561067,DepthScenes,duration_manipulation_targetAtFixation,jsons/VE125_randls_43_rotated.json,http://54.235.29.9/FacialAge/BNav_EC2/DepthDuration/v2_depth_duration_MTurk/v2_DepthDuration_HTML.html#127,127,1366,625,1366,768,8-21-2022,10-10-50,150,depth_duration_stimuli/002995_2014-06-15_12-31-26_094959634447_rgbf000150-resize_1/002995_2014-06-15_12-31-26_094959634447_rgbf000150-resize_1-target.png,125,3.8360000000000003,20,6125,117,meters,jsons/VE125_randls_43_rotated.json,812280,938924,32,Man
150,561067,DepthScenes,duration_manipulation_targetAtFixation,jsons/VE125_randls_43_rotated.json,http://54.235.29.9/FacialAge/BNav_EC2/DepthDuration/v2_depth_duration_MTurk/v2_DepthDuration_HTML.html#127,127,1366,625,1366,768,8-21-2022,10-10-50,151,depth_duration_stimuli/002748_2014-06-22_19-07-22_094959634447_rgbf000078-resize_1/002748_2014-06-22_19-07-22_094959634447_rgbf000078-resize_1-target.png,125,4.6705,10,6429,124,meters,jsons/VE125_randls_43_rotated.json,812280,938924,32,Man
151,561067,DepthScenes,duration_manipulation_targetAtFixation,jsons/VE125_randls_43_rotated.json,http://54.235.29.9/FacialAge/BNav_EC2/DepthDuration/v2_depth_duration_MTurk/v2_DepthDuration_HTML.html#127,127,1366,625,1366,768,8-21-2022,10-10-50,152,depth_duration_stimuli/000569_2014-06-09_22-51-47_260595134347_rgbf000141-resize_3/000569_2014-06-09_22-51-47_260595134347_rgbf000141-resize-original.jpg,125,4.512,10,2757,141,meters,jsons/VE125_randls_43_rotated.json,812280,938924,32,Man
152,561067,DepthScenes,duration_manipulation_targetAtFixation,jsons/VE125_randls_43_rotated.json,http://54.235.29.9/FacialAge/BNav_EC2/DepthDuration/v2_depth_duration_MTurk/v2_DepthDuration_HTML.html#127,127,1366,625,1366,768,8-21-2022,10-10-50,153,depth_duration_stimuli/003587_2014-05-23_16-48-02_094959634447_rgbf002384-resize_2/003587_2014-05-23_16-48-02_094959634447_rgbf002384-resize_2-target.png,125,1.357,15,2964,134,meters,jsons/VE125_randls_43_rotated.json,812280,938924,32,Man
153,561067,DepthScenes,duration_manipulation_targetAtFixation,jsons/VE125_randls_43_rotated.json,http://54.235.29.9/FacialAge/BNav_EC2/DepthDuration/v2_depth_duration_MTurk/v2_DepthDuration_HTML.html#127,127,1366,625,1366,768,8-21-2022,10-10-50,154,depth_duration_stimuli/001167_2014-06-17_15-38-07_260595134347_rgbf000108-resize_0/001167_2014-06-17_15-38-07_260595134347_rgbf000108-resize_0-target.png,125,1.8505,12,4451,138,meters,jsons/VE125_randls_43_rotated.json,812280,938924,32,Man
154,561067,DepthScenes,duration_manipulation_targetAtFixation,jsons/VE125_randls_43_rotated.json,http://54.235.29.9/FacialAge/BNav_EC2/DepthDuration/v2_depth_duration_MTurk/v2_DepthDuration_HTML.html#127,127,1366,625,1366,768,8-21-2022,10-10-50,155,depth_duration_stimuli/002639_2014-06-24_14-51-37_094959634447_rgbf000074-resize_4/002639_2014-06-24_14-51-37_094959634447_rgbf000074-resize_4-target.png,125,4.0375,10,3055,124,meters,jsons/VE125_randls_43_rotated.json,812280,938924,32,Man
155,561067,DepthScenes,duration_manipulation_targetAtFixation,jsons/VE125_randls_43_rotated.json,http://54.235.29.9/FacialAge/BNav_EC2/DepthDuration/v2_depth_duration_MTurk/v2_DepthDuration_HTML.html#127,127,1366,625,1366,768,8-21-2022,10-10-50,156,depth_duration_stimuli/003292_2014-05-14_21-53-49_094959634447_rgbf000100-resize_2/003292_2014-05-14_21-53-49_094959634447_rgbf000100-resize_2-target.png,125,3.4815,12,2609,132,meters,jsons/VE125_randls_43_rotated.json,812280,938924,32,Man
156,561067,DepthScenes,duration_manipulation_targetAtFixation,jsons/VE125_randls_43_rotated.json,http://54.235.29.9/FacialAge/BNav_EC2/DepthDuration/v2_depth_duration_MTurk/v2_DepthDuration_HTML.html#127,127,1366,625,1366,768,8-21-2022,10-10-50,157,depth_duration_stimuli/002414_2014-06-28_20-24-58_260595134347_rgbf000067-resize_4/002414_2014-06-28_20-24-58_260595134347_rgbf000067-resize_4-target.png,125,4.363,12,4600,119,meters,jsons/VE125_randls_43_rotated.json,812280,938924,32,Man
157,561067,DepthScenes,duration_manipulation_targetAtFixation,jsons/VE125_randls_43_rotated.json,http://54.235.29.9/FacialAge/BNav_EC2/DepthDuration/v2_depth_duration_MTurk/v2_DepthDuration_HTML.html#127,127,1366,625,1366,768,8-21-2022,10-10-50,158,depth_duration_stimuli/000773_2014-06-08_22-24-54_260595134347_rgbf000093-resize_1/000773_2014-06-08_22-24-54_260595134347_rgbf000093-resize_1-target.png,125,4.973,12,11113,124,meters,jsons/VE125_randls_43_rotated.json,812280,938924,32,Man
158,561067,DepthScenes,duration_manipulation_targetAtFixation,jsons/VE125_randls_43_rotated.json,http://54.235.29.9/FacialAge/BNav_EC2/DepthDuration/v2_depth_duration_MTurk/v2_DepthDuration_HTML.html#127,127,1366,625,1366,768,8-21-2022,10-10-50,159,depth_duration_stimuli/000549_2014-06-08_22-10-24_260595134347_rgbf000247-resize_3/000549_2014-06-08_22-10-24_260595134347_rgbf000247-resize_3-target.png,125,1.841,10,6952,140,meters,jsons/VE125_randls_43_rotated.json,812280,938924,32,Man
159,561067,DepthScenes,duration_manipulation_targetAtFixation,jsons/VE125_randls_43_rotated.json,http://54.235.29.9/FacialAge/BNav_EC2/DepthDuration/v2_depth_duration_MTurk/v2_DepthDuration_HTML.html#127,127,1366,625,1366,768,8-21-2022,10-10-50,160,depth_duration_stimuli/001055_2014-06-08_18-45-35_260595134347_rgbf000111-resize_4/001055_2014-06-08_18-45-35_260595134347_rgbf000111-resize_4-target.png,125,2.4290000000000003,12,4331,122,meters,jsons/VE125_randls_43_rotated.json,812280,938924,32,Man
160,561067,DepthScenes,duration_manipulation_targetAtFixation,jsons/VE125_randls_43_rotated.json,http://54.235.29.9/FacialAge/BNav_EC2/DepthDuration/v2_depth_duration_MTurk/v2_DepthDuration_HTML.html#127,127,1366,625,1366,768,8-21-2022,10-10-50,161,depth_duration_stimuli/002678_2014-06-13_16-15-32_094959634447_rgbf000151-resize_6/002678_2014-06-13_16-15-32_094959634447_rgbf000151-resize_6-target.png,125,2.1830000000000003,15,9216,115,meters,jsons/VE125_randls_43_rotated.json,812280,938924,32,Man
161,561067,DepthScenes,duration_manipulation_targetAtFixation,jsons/VE125_randls_43_rotated.json,http://54.235.29.9/FacialAge/BNav_EC2/DepthDuration/v2_depth_duration_MTurk/v2_DepthDuration_HTML.html#127,127,1366,625,1366,768,8-21-2022,10-10-50,162,depth_duration_stimuli/000368_2014-06-09_15-53-01_260595134347_rgbf000155-resize_2/000368_2014-06-09_15-53-01_260595134347_rgbf000155-resize_2-target.png,125,2.4859999999999998,15,5041,122,meters,jsons/VE125_randls_43_rotated.json,812280,938924,32,Man
162,561067,DepthScenes,duration_manipulation_targetAtFixation,jsons/VE125_randls_43_rotated.json,http://54.235.29.9/FacialAge/BNav_EC2/DepthDuration/v2_depth_duration_MTurk/v2_DepthDuration_HTML.html#127,127,1366,625,1366,768,8-21-2022,10-10-50,163,depth_duration_stimuli/002545_2014-06-24_13-38-53_094959634447_rgbf000080-resize_4/002545_2014-06-24_13-38-53_094959634447_rgbf000080-resize_4-target.png,125,1.9205,15,6578,125,meters,jsons/VE125_randls_43_rotated.json,812280,938924,32,Man
163,561067,DepthScenes,duration_manipulation_targetAtFixation,jsons/VE125_randls_43_rotated.json,http://54.235.29.9/FacialAge/BNav_EC2/DepthDuration/v2_depth_duration_MTurk/v2_DepthDuration_HTML.html#127,127,1366,625,1366,768,8-21-2022,10-10-50,164,depth_duration_stimuli/001092_2014-06-15_17-34-58_260595134347_rgbf000171-resize_3/001092_2014-06-15_17-34-58_260595134347_rgbf000171-resize_3-target.png,125,2.6935,12,2887,123,meters,jsons/VE125_randls_43_rotated.json,812280,938924,32,Man
