,subjID,experimentName,versionName,sequenceName,url,selected_row,windowWidth,windowHeight,screenWidth,screenHeight,startDate,startTime,trial,stimulus,duration,actual_depth,depth_estimate,trial_RT,log_sceneDuration,unitSelection,seq_filepath,experimentTime,totalTime,age,gender
0,561433,DepthScenes,duration_manipulation_targetAtFixation,jsons/v1_VE1000_randls_73.json,http://54.235.29.9/FacialAge/BNav_EC2/DepthDuration/v2_depth_duration_MTurk/v2_DepthDuration_HTML.html#121,121,1280,657,1280,800,8-22-2022,5-9-38,1,depth_duration_stimuli/001011_2014-06-08_23-18-54_260595134347_rgbf000044-resize_4/001011_2014-06-08_23-18-54_260595134347_rgbf000044-resize_4-target.png,1000,2.4730000000000003,4,6226,1008,meters,jsons/v1_VE1000_randls_73.json,1377407,2236218,1987,Woman
1,561433,DepthScenes,duration_manipulation_targetAtFixation,jsons/v1_VE1000_randls_73.json,http://54.235.29.9/FacialAge/BNav_EC2/DepthDuration/v2_depth_duration_MTurk/v2_DepthDuration_HTML.html#121,121,1280,657,1280,800,8-22-2022,5-9-38,2,depth_duration_stimuli/002875_2014-06-01_15-19-00_094959634447_rgbf000151-resize_1/002875_2014-06-01_15-19-00_094959634447_rgbf000151-resize_1-target.png,1000,1.9675,4,14714,1002,meters,jsons/v1_VE1000_randls_73.json,1377407,2236218,1987,Woman
2,561433,DepthScenes,duration_manipulation_targetAtFixation,jsons/v1_VE1000_randls_73.json,http://54.235.29.9/FacialAge/BNav_EC2/DepthDuration/v2_depth_duration_MTurk/v2_DepthDuration_HTML.html#121,121,1280,657,1280,800,8-22-2022,5-9-38,3,depth_duration_stimuli/000810_2014-06-08_17-20-01_260595134347_rgbf000105-resize_0/000810_2014-06-08_17-20-01_260595134347_rgbf000105-resize_0-target.png,1000,1.4865,10,10789,999,meters,jsons/v1_VE1000_randls_73.json,1377407,2236218,1987,Woman
3,561433,DepthScenes,duration_manipulation_targetAtFixation,jsons/v1_VE1000_randls_73.json,http://54.235.29.9/FacialAge/BNav_EC2/DepthDuration/v2_depth_duration_MTurk/v2_DepthDuration_HTML.html#121,121,1280,657,1280,800,8-22-2022,5-9-38,4,depth_duration_stimuli/001214_2014-06-17_16-13-55_260595134347_rgbf000111-resize_0/001214_2014-06-17_16-13-55_260595134347_rgbf000111-resize_0-target.png,1000,2.6505,6,11504,1002,meters,jsons/v1_VE1000_randls_73.json,1377407,2236218,1987,Woman
4,561433,DepthScenes,duration_manipulation_targetAtFixation,jsons/v1_VE1000_randls_73.json,http://54.235.29.9/FacialAge/BNav_EC2/DepthDuration/v2_depth_duration_MTurk/v2_DepthDuration_HTML.html#121,121,1280,657,1280,800,8-22-2022,5-9-38,5,depth_duration_stimuli/003292_2014-05-14_21-53-49_094959634447_rgbf000100-resize_2/003292_2014-05-14_21-53-49_094959634447_rgbf000100-resize_2-target.png,1000,3.4815,2,33486,906,meters,jsons/v1_VE1000_randls_73.json,1377407,2236218,1987,Woman
5,561433,DepthScenes,duration_manipulation_targetAtFixation,jsons/v1_VE1000_randls_73.json,http://54.235.29.9/FacialAge/BNav_EC2/DepthDuration/v2_depth_duration_MTurk/v2_DepthDuration_HTML.html#121,121,1280,657,1280,800,8-22-2022,5-9-38,6,depth_duration_stimuli/002639_2014-06-24_14-51-37_094959634447_rgbf000074-resize_4/002639_2014-06-24_14-51-37_094959634447_rgbf000074-resize_4-target.png,1000,4.0375,2,6243,999,meters,jsons/v1_VE1000_randls_73.json,1377407,2236218,1987,Woman
6,561433,DepthScenes,duration_manipulation_targetAtFixation,jsons/v1_VE1000_randls_73.json,http://54.235.29.9/FacialAge/BNav_EC2/DepthDuration/v2_depth_duration_MTurk/v2_DepthDuration_HTML.html#121,121,1280,657,1280,800,8-22-2022,5-9-38,7,depth_duration_stimuli/001066_2014-06-08_22-03-20_260595134347_rgbf000066-resize_4/001066_2014-06-08_22-03-20_260595134347_rgbf000066-resize_4-target.png,1000,4.2330000000000005,3,11035,1000,meters,jsons/v1_VE1000_randls_73.json,1377407,2236218,1987,Woman
7,561433,DepthScenes,duration_manipulation_targetAtFixation,jsons/v1_VE1000_randls_73.json,http://54.235.29.9/FacialAge/BNav_EC2/DepthDuration/v2_depth_duration_MTurk/v2_DepthDuration_HTML.html#121,121,1280,657,1280,800,8-22-2022,5-9-38,8,depth_duration_stimuli/000742_2014-06-08_18-48-09_260595134347_rgbf000164-resize_4/000742_2014-06-08_18-48-09_260595134347_rgbf000164-resize_4-target.png,1000,4.632,2,8711,1008,meters,jsons/v1_VE1000_randls_73.json,1377407,2236218,1987,Woman
8,561433,DepthScenes,duration_manipulation_targetAtFixation,jsons/v1_VE1000_randls_73.json,http://54.235.29.9/FacialAge/BNav_EC2/DepthDuration/v2_depth_duration_MTurk/v2_DepthDuration_HTML.html#121,121,1280,657,1280,800,8-22-2022,5-9-38,9,depth_duration_stimuli/001555_2014-06-20_17-12-10_260595134347_rgbf000065-resize_4/001555_2014-06-20_17-12-10_260595134347_rgbf000065-resize_4-target.png,1000,1.633,2,8001,1076,meters,jsons/v1_VE1000_randls_73.json,1377407,2236218,1987,Woman
9,561433,DepthScenes,duration_manipulation_targetAtFixation,jsons/v1_VE1000_randls_73.json,http://54.235.29.9/FacialAge/BNav_EC2/DepthDuration/v2_depth_duration_MTurk/v2_DepthDuration_HTML.html#121,121,1280,657,1280,800,8-22-2022,5-9-38,10,depth_duration_stimuli/000103_2014-05-14_22-01-17_260595134347_rgbf000152-resize_5/000103_2014-05-14_22-01-17_260595134347_rgbf000152-resize_5-target.png,1000,1.993,2,3464,999,meters,jsons/v1_VE1000_randls_73.json,1377407,2236218,1987,Woman
10,561433,DepthScenes,duration_manipulation_targetAtFixation,jsons/v1_VE1000_randls_73.json,http://54.235.29.9/FacialAge/BNav_EC2/DepthDuration/v2_depth_duration_MTurk/v2_DepthDuration_HTML.html#121,121,1280,657,1280,800,8-22-2022,5-9-38,11,depth_duration_stimuli/000682_2014-06-08_23-14-58_260595134347_rgbf000041-resize_5/000682_2014-06-08_23-14-58_260595134347_rgbf000041-resize_5-target.png,1000,2.7239999999999998,2,7257,924,meters,jsons/v1_VE1000_randls_73.json,1377407,2236218,1987,Woman
11,561433,DepthScenes,duration_manipulation_targetAtFixation,jsons/v1_VE1000_randls_73.json,http://54.235.29.9/FacialAge/BNav_EC2/DepthDuration/v2_depth_duration_MTurk/v2_DepthDuration_HTML.html#121,121,1280,657,1280,800,8-22-2022,5-9-38,12,depth_duration_stimuli/001650_2014-06-20_12-09-00_260595134347_rgbf000087-resize_3/001650_2014-06-20_12-09-00_260595134347_rgbf000087-resize_3-target.png,1000,1.9505,2,7553,999,meters,jsons/v1_VE1000_randls_73.json,1377407,2236218,1987,Woman
12,561433,DepthScenes,duration_manipulation_targetAtFixation,jsons/v1_VE1000_randls_73.json,http://54.235.29.9/FacialAge/BNav_EC2/DepthDuration/v2_depth_duration_MTurk/v2_DepthDuration_HTML.html#121,121,1280,657,1280,800,8-22-2022,5-9-38,13,depth_duration_stimuli/000569_2014-06-09_22-51-47_260595134347_rgbf000141-resize_3/000569_2014-06-09_22-51-47_260595134347_rgbf000141-resize-original.jpg,1000,4.512,2,9759,992,meters,jsons/v1_VE1000_randls_73.json,1377407,2236218,1987,Woman
13,561433,DepthScenes,duration_manipulation_targetAtFixation,jsons/v1_VE1000_randls_73.json,http://54.235.29.9/FacialAge/BNav_EC2/DepthDuration/v2_depth_duration_MTurk/v2_DepthDuration_HTML.html#121,121,1280,657,1280,800,8-22-2022,5-9-38,14,depth_duration_stimuli/000368_2014-06-09_15-53-01_260595134347_rgbf000155-resize_2/000368_2014-06-09_15-53-01_260595134347_rgbf000155-resize_2-target.png,1000,2.4859999999999998,2,8167,999,meters,jsons/v1_VE1000_randls_73.json,1377407,2236218,1987,Woman
14,561433,DepthScenes,duration_manipulation_targetAtFixation,jsons/v1_VE1000_randls_73.json,http://54.235.29.9/FacialAge/BNav_EC2/DepthDuration/v2_depth_duration_MTurk/v2_DepthDuration_HTML.html#121,121,1280,657,1280,800,8-22-2022,5-9-38,15,depth_duration_stimuli/002678_2014-06-13_16-15-32_094959634447_rgbf000151-resize_6/002678_2014-06-13_16-15-32_094959634447_rgbf000151-resize_6-target.png,1000,2.1830000000000003,2,3915,998,meters,jsons/v1_VE1000_randls_73.json,1377407,2236218,1987,Woman
15,561433,DepthScenes,duration_manipulation_targetAtFixation,jsons/v1_VE1000_randls_73.json,http://54.235.29.9/FacialAge/BNav_EC2/DepthDuration/v2_depth_duration_MTurk/v2_DepthDuration_HTML.html#121,121,1280,657,1280,800,8-22-2022,5-9-38,16,depth_duration_stimuli/000009_2014-05-26_14-32-05_260595134347_rgbf000034-resize_3/000009_2014-05-26_14-32-05_260595134347_rgbf000034-resize_3-target.png,1000,3.8715,2,5455,1018,meters,jsons/v1_VE1000_randls_73.json,1377407,2236218,1987,Woman
16,561433,DepthScenes,duration_manipulation_targetAtFixation,jsons/v1_VE1000_randls_73.json,http://54.235.29.9/FacialAge/BNav_EC2/DepthDuration/v2_depth_duration_MTurk/v2_DepthDuration_HTML.html#121,121,1280,657,1280,800,8-22-2022,5-9-38,17,depth_duration_stimuli/001828_2014-06-26_21-40-03_260595134347_rgbf000024-resize_0/001828_2014-06-26_21-40-03_260595134347_rgbf000024-resize_0-target.png,1000,4.8260000000000005,2,3205,999,meters,jsons/v1_VE1000_randls_73.json,1377407,2236218,1987,Woman
17,561433,DepthScenes,duration_manipulation_targetAtFixation,jsons/v1_VE1000_randls_73.json,http://54.235.29.9/FacialAge/BNav_EC2/DepthDuration/v2_depth_duration_MTurk/v2_DepthDuration_HTML.html#121,121,1280,657,1280,800,8-22-2022,5-9-38,18,depth_duration_stimuli/002663_2014-06-13_15-50-26_094959634447_rgbf000075-resize_1/002663_2014-06-13_15-50-26_094959634447_rgbf000075-resize_1-target.png,1000,4.7495,2,5696,1077,meters,jsons/v1_VE1000_randls_73.json,1377407,2236218,1987,Woman
18,561433,DepthScenes,duration_manipulation_targetAtFixation,jsons/v1_VE1000_randls_73.json,http://54.235.29.9/FacialAge/BNav_EC2/DepthDuration/v2_depth_duration_MTurk/v2_DepthDuration_HTML.html#121,121,1280,657,1280,800,8-22-2022,5-9-38,19,depth_duration_stimuli/000409_2014-06-04_19-23-33_260595134347_rgbf000067-resize_0/000409_2014-06-04_19-23-33_260595134347_rgbf000067-resize_0-target.png,1000,3.7335,2,5350,998,meters,jsons/v1_VE1000_randls_73.json,1377407,2236218,1987,Woman
19,561433,DepthScenes,duration_manipulation_targetAtFixation,jsons/v1_VE1000_randls_73.json,http://54.235.29.9/FacialAge/BNav_EC2/DepthDuration/v2_depth_duration_MTurk/v2_DepthDuration_HTML.html#121,121,1280,657,1280,800,8-22-2022,5-9-38,20,depth_duration_stimuli/000736_2014-06-08_18-24-15_260595134347_rgbf000206-resize_3/000736_2014-06-08_18-24-15_260595134347_rgbf000206-resize_3-target.png,1000,3.515,2,8647,982,meters,jsons/v1_VE1000_randls_73.json,1377407,2236218,1987,Woman
20,561433,DepthScenes,duration_manipulation_targetAtFixation,jsons/v1_VE1000_randls_73.json,http://54.235.29.9/FacialAge/BNav_EC2/DepthDuration/v2_depth_duration_MTurk/v2_DepthDuration_HTML.html#121,121,1280,657,1280,800,8-22-2022,5-9-38,21,depth_duration_stimuli/000137_2014-05-20_17-04-49_260595134347_rgbf000120-resize_1/000137_2014-05-20_17-04-49_260595134347_rgbf000120-resize_1-target.png,1000,3.786,2,9502,1001,meters,jsons/v1_VE1000_randls_73.json,1377407,2236218,1987,Woman
21,561433,DepthScenes,duration_manipulation_targetAtFixation,jsons/v1_VE1000_randls_73.json,http://54.235.29.9/FacialAge/BNav_EC2/DepthDuration/v2_depth_duration_MTurk/v2_DepthDuration_HTML.html#121,121,1280,657,1280,800,8-22-2022,5-9-38,22,depth_duration_stimuli/000447_2014-06-08_16-15-46_260595134347_rgbf000130-resize_1/000447_2014-06-08_16-15-46_260595134347_rgbf000130-resize_1-target.png,1000,4.479,2,7725,999,meters,jsons/v1_VE1000_randls_73.json,1377407,2236218,1987,Woman
22,561433,DepthScenes,duration_manipulation_targetAtFixation,jsons/v1_VE1000_randls_73.json,http://54.235.29.9/FacialAge/BNav_EC2/DepthDuration/v2_depth_duration_MTurk/v2_DepthDuration_HTML.html#121,121,1280,657,1280,800,8-22-2022,5-9-38,23,depth_duration_stimuli/001447_2014-06-19_17-00-32_260595134347_rgbf000082-resize_5/001447_2014-06-19_17-00-32_260595134347_rgbf000082-resize_5-target.png,1000,4.13775,2,3429,957,meters,jsons/v1_VE1000_randls_73.json,1377407,2236218,1987,Woman
23,561433,DepthScenes,duration_manipulation_targetAtFixation,jsons/v1_VE1000_randls_73.json,http://54.235.29.9/FacialAge/BNav_EC2/DepthDuration/v2_depth_duration_MTurk/v2_DepthDuration_HTML.html#121,121,1280,657,1280,800,8-22-2022,5-9-38,24,depth_duration_stimuli/002279_2014-06-28_18-55-32_260595134347_rgbf000040-resize_5/002279_2014-06-28_18-55-32_260595134347_rgbf000040-resize_5-target.png,1000,1.5043333333333,2,5703,858,meters,jsons/v1_VE1000_randls_73.json,1377407,2236218,1987,Woman
24,561433,DepthScenes,duration_manipulation_targetAtFixation,jsons/v1_VE1000_randls_73.json,http://54.235.29.9/FacialAge/BNav_EC2/DepthDuration/v2_depth_duration_MTurk/v2_DepthDuration_HTML.html#121,121,1280,657,1280,800,8-22-2022,5-9-38,25,depth_duration_stimuli/000635_2014-06-08_16-38-42_260595134347_rgbf000106-resize_1/000635_2014-06-08_16-38-42_260595134347_rgbf000106-resize_1-target.png,1000,2.074,2,3615,1001,meters,jsons/v1_VE1000_randls_73.json,1377407,2236218,1987,Woman
25,561433,DepthScenes,duration_manipulation_targetAtFixation,jsons/v1_VE1000_randls_73.json,http://54.235.29.9/FacialAge/BNav_EC2/DepthDuration/v2_depth_duration_MTurk/v2_DepthDuration_HTML.html#121,121,1280,657,1280,800,8-22-2022,5-9-38,26,depth_duration_stimuli/000906_2014-06-08_13-35-43_260595134347_rgbf000155-resize_1/000906_2014-06-08_13-35-43_260595134347_rgbf000155-resize_1-target.png,1000,2.8489999999999998,2,5353,999,meters,jsons/v1_VE1000_randls_73.json,1377407,2236218,1987,Woman
26,561433,DepthScenes,duration_manipulation_targetAtFixation,jsons/v1_VE1000_randls_73.json,http://54.235.29.9/FacialAge/BNav_EC2/DepthDuration/v2_depth_duration_MTurk/v2_DepthDuration_HTML.html#121,121,1280,657,1280,800,8-22-2022,5-9-38,27,depth_duration_stimuli/002805_2014-06-22_19-54-03_094959634447_rgbf000079-resize_1/002805_2014-06-22_19-54-03_094959634447_rgbf000079-resize_1-target.png,1000,3.1439999999999997,2,3166,975,meters,jsons/v1_VE1000_randls_73.json,1377407,2236218,1987,Woman
27,561433,DepthScenes,duration_manipulation_targetAtFixation,jsons/v1_VE1000_randls_73.json,http://54.235.29.9/FacialAge/BNav_EC2/DepthDuration/v2_depth_duration_MTurk/v2_DepthDuration_HTML.html#121,121,1280,657,1280,800,8-22-2022,5-9-38,28,depth_duration_stimuli/000436_2014-06-09_22-25-11_260595134347_rgbf000137-resize_1/000436_2014-06-09_22-25-11_260595134347_rgbf000137-resize_1-target.png,1000,4.0705,2,6874,1000,meters,jsons/v1_VE1000_randls_73.json,1377407,2236218,1987,Woman
28,561433,DepthScenes,duration_manipulation_targetAtFixation,jsons/v1_VE1000_randls_73.json,http://54.235.29.9/FacialAge/BNav_EC2/DepthDuration/v2_depth_duration_MTurk/v2_DepthDuration_HTML.html#121,121,1280,657,1280,800,8-22-2022,5-9-38,29,depth_duration_stimuli/002444_2014-06-28_20-32-08_260595134347_rgbf000027-resize_0/002444_2014-06-28_20-32-08_260595134347_rgbf000027-resize_0-target.png,1000,4.388999999999999,2,4865,988,meters,jsons/v1_VE1000_randls_73.json,1377407,2236218,1987,Woman
29,561433,DepthScenes,duration_manipulation_targetAtFixation,jsons/v1_VE1000_randls_73.json,http://54.235.29.9/FacialAge/BNav_EC2/DepthDuration/v2_depth_duration_MTurk/v2_DepthDuration_HTML.html#121,121,1280,657,1280,800,8-22-2022,5-9-38,30,depth_duration_stimuli/000375_2014-06-08_11-17-29_260595134347_rgbf000133-resize_2/000375_2014-06-08_11-17-29_260595134347_rgbf000133-resize-original.jpg,1000,4.718,1,6389,998,meters,jsons/v1_VE1000_randls_73.json,1377407,2236218,1987,Woman
30,561433,DepthScenes,duration_manipulation_targetAtFixation,jsons/v1_VE1000_randls_73.json,http://54.235.29.9/FacialAge/BNav_EC2/DepthDuration/v2_depth_duration_MTurk/v2_DepthDuration_HTML.html#121,121,1280,657,1280,800,8-22-2022,5-9-38,31,depth_duration_stimuli/000493_2014-06-09_21-01-18_260595134347_rgbf000196-resize_3/000493_2014-06-09_21-01-18_260595134347_rgbf000196-resize_3-target.png,1000,3.44,2,5729,998,meters,jsons/v1_VE1000_randls_73.json,1377407,2236218,1987,Woman
31,561433,DepthScenes,duration_manipulation_targetAtFixation,jsons/v1_VE1000_randls_73.json,http://54.235.29.9/FacialAge/BNav_EC2/DepthDuration/v2_depth_duration_MTurk/v2_DepthDuration_HTML.html#121,121,1280,657,1280,800,8-22-2022,5-9-38,32,depth_duration_stimuli/000191_2014-05-12_17-07-38_260595134347_rgbf000199-resize_0/000191_2014-05-12_17-07-38_260595134347_rgbf000199-resize_0-target.png,1000,3.7995,2,5696,995,meters,jsons/v1_VE1000_randls_73.json,1377407,2236218,1987,Woman
32,561433,DepthScenes,duration_manipulation_targetAtFixation,jsons/v1_VE1000_randls_73.json,http://54.235.29.9/FacialAge/BNav_EC2/DepthDuration/v2_depth_duration_MTurk/v2_DepthDuration_HTML.html#121,121,1280,657,1280,800,8-22-2022,5-9-38,33,depth_duration_stimuli/000917_2014-06-09_22-45-29_260595134347_rgbf000149-resize_3/000917_2014-06-09_22-45-29_260595134347_rgbf000149-resize_3-target.png,1000,4.1865,2,7201,1017,meters,jsons/v1_VE1000_randls_73.json,1377407,2236218,1987,Woman
33,561433,DepthScenes,duration_manipulation_targetAtFixation,jsons/v1_VE1000_randls_73.json,http://54.235.29.9/FacialAge/BNav_EC2/DepthDuration/v2_depth_duration_MTurk/v2_DepthDuration_HTML.html#121,121,1280,657,1280,800,8-22-2022,5-9-38,34,depth_duration_stimuli/002323_2014-06-28_20-01-54_260595134347_rgbf000051-resize_4/002323_2014-06-28_20-01-54_260595134347_rgbf000051-resize_4-target.png,1000,3.7310000000000003,2,5099,955,meters,jsons/v1_VE1000_randls_73.json,1377407,2236218,1987,Woman
34,561433,DepthScenes,duration_manipulation_targetAtFixation,jsons/v1_VE1000_randls_73.json,http://54.235.29.9/FacialAge/BNav_EC2/DepthDuration/v2_depth_duration_MTurk/v2_DepthDuration_HTML.html#121,121,1280,657,1280,800,8-22-2022,5-9-38,35,depth_duration_stimuli/000878_2014-06-08_22-52-45_260595134347_rgbf000045-resize_2/000878_2014-06-08_22-52-45_260595134347_rgbf000045-resize_2-target.png,1000,2.092,1,9051,999,meters,jsons/v1_VE1000_randls_73.json,1377407,2236218,1987,Woman
35,561433,DepthScenes,duration_manipulation_targetAtFixation,jsons/v1_VE1000_randls_73.json,http://54.235.29.9/FacialAge/BNav_EC2/DepthDuration/v2_depth_duration_MTurk/v2_DepthDuration_HTML.html#121,121,1280,657,1280,800,8-22-2022,5-9-38,36,depth_duration_stimuli/002953_2014-06-08_17-32-18_094959634447_rgbf000059-resize_5/002953_2014-06-08_17-32-18_094959634447_rgbf000059-resize_5-target.png,1000,1.551,1,5133,999,meters,jsons/v1_VE1000_randls_73.json,1377407,2236218,1987,Woman
36,561433,DepthScenes,duration_manipulation_targetAtFixation,jsons/v1_VE1000_randls_73.json,http://54.235.29.9/FacialAge/BNav_EC2/DepthDuration/v2_depth_duration_MTurk/v2_DepthDuration_HTML.html#121,121,1280,657,1280,800,8-22-2022,5-9-38,37,depth_duration_stimuli/000758_2014-06-08_22-05-08_260595134347_rgbf000085-resize_0/000758_2014-06-08_22-05-08_260595134347_rgbf000085-resize_0-target.png,1000,3.3810000000000002,2,9279,1019,meters,jsons/v1_VE1000_randls_73.json,1377407,2236218,1987,Woman
37,561433,DepthScenes,duration_manipulation_targetAtFixation,jsons/v1_VE1000_randls_73.json,http://54.235.29.9/FacialAge/BNav_EC2/DepthDuration/v2_depth_duration_MTurk/v2_DepthDuration_HTML.html#121,121,1280,657,1280,800,8-22-2022,5-9-38,38,depth_duration_stimuli/000854_2014-06-09_19-43-13_260595134347_rgbf000066-resize_0/000854_2014-06-09_19-43-13_260595134347_rgbf000066-resize_0-target.png,1000,3.068,2,4282,1011,meters,jsons/v1_VE1000_randls_73.json,1377407,2236218,1987,Woman
38,561433,DepthScenes,duration_manipulation_targetAtFixation,jsons/v1_VE1000_randls_73.json,http://54.235.29.9/FacialAge/BNav_EC2/DepthDuration/v2_depth_duration_MTurk/v2_DepthDuration_HTML.html#121,121,1280,657,1280,800,8-22-2022,5-9-38,39,depth_duration_stimuli/002153_2014-06-25_21-27-18_260595134347_rgbf000038-resize_5/002153_2014-06-25_21-27-18_260595134347_rgbf000038-resize_5-target.png,1000,2.505,2,6135,999,meters,jsons/v1_VE1000_randls_73.json,1377407,2236218,1987,Woman
39,561433,DepthScenes,duration_manipulation_targetAtFixation,jsons/v1_VE1000_randls_73.json,http://54.235.29.9/FacialAge/BNav_EC2/DepthDuration/v2_depth_duration_MTurk/v2_DepthDuration_HTML.html#121,121,1280,657,1280,800,8-22-2022,5-9-38,40,depth_duration_stimuli/002660_2014-06-13_15-44-18_094959634447_rgbf001878-resize_2/002660_2014-06-13_15-44-18_094959634447_rgbf001878-resize_2-target.png,1000,3.576,2,4171,998,meters,jsons/v1_VE1000_randls_73.json,1377407,2236218,1987,Woman
40,561433,DepthScenes,duration_manipulation_targetAtFixation,jsons/v1_VE1000_randls_73.json,http://54.235.29.9/FacialAge/BNav_EC2/DepthDuration/v2_depth_duration_MTurk/v2_DepthDuration_HTML.html#121,121,1280,657,1280,800,8-22-2022,5-9-38,41,depth_duration_stimuli/001055_2014-06-08_18-45-35_260595134347_rgbf000111-resize_4/001055_2014-06-08_18-45-35_260595134347_rgbf000111-resize_4-target.png,1000,2.4290000000000003,2,5952,1001,meters,jsons/v1_VE1000_randls_73.json,1377407,2236218,1987,Woman
41,561433,DepthScenes,duration_manipulation_targetAtFixation,jsons/v1_VE1000_randls_73.json,http://54.235.29.9/FacialAge/BNav_EC2/DepthDuration/v2_depth_duration_MTurk/v2_DepthDuration_HTML.html#121,121,1280,657,1280,800,8-22-2022,5-9-38,42,depth_duration_stimuli/000549_2014-06-08_22-10-24_260595134347_rgbf000247-resize_3/000549_2014-06-08_22-10-24_260595134347_rgbf000247-resize_3-target.png,1000,1.841,2,6779,875,meters,jsons/v1_VE1000_randls_73.json,1377407,2236218,1987,Woman
42,561433,DepthScenes,duration_manipulation_targetAtFixation,jsons/v1_VE1000_randls_73.json,http://54.235.29.9/FacialAge/BNav_EC2/DepthDuration/v2_depth_duration_MTurk/v2_DepthDuration_HTML.html#121,121,1280,657,1280,800,8-22-2022,5-9-38,43,depth_duration_stimuli/002725_2014-06-22_11-47-51_094959634447_rgbf000070-resize_1/002725_2014-06-22_11-47-51_094959634447_rgbf000070-resize_1-target.png,1000,2.195,2,7586,1000,meters,jsons/v1_VE1000_randls_73.json,1377407,2236218,1987,Woman
43,561433,DepthScenes,duration_manipulation_targetAtFixation,jsons/v1_VE1000_randls_73.json,http://54.235.29.9/FacialAge/BNav_EC2/DepthDuration/v2_depth_duration_MTurk/v2_DepthDuration_HTML.html#121,121,1280,657,1280,800,8-22-2022,5-9-38,44,depth_duration_stimuli/002344_2014-06-28_20-06-29_260595134347_rgbf000030-resize_1/002344_2014-06-28_20-06-29_260595134347_rgbf000030-resize_1-target.png,1000,1.5795,2,6288,931,meters,jsons/v1_VE1000_randls_73.json,1377407,2236218,1987,Woman
44,561433,DepthScenes,duration_manipulation_targetAtFixation,jsons/v1_VE1000_randls_73.json,http://54.235.29.9/FacialAge/BNav_EC2/DepthDuration/v2_depth_duration_MTurk/v2_DepthDuration_HTML.html#121,121,1280,657,1280,800,8-22-2022,5-9-38,45,depth_duration_stimuli/000787_2014-06-08_22-33-53_260595134347_rgbf000175-resize_1/000787_2014-06-08_22-33-53_260595134347_rgbf000175-resize-original.jpg,1000,4.784,3,37506,1042,meters,jsons/v1_VE1000_randls_73.json,1377407,2236218,1987,Woman
45,561433,DepthScenes,duration_manipulation_targetAtFixation,jsons/v1_VE1000_randls_73.json,http://54.235.29.9/FacialAge/BNav_EC2/DepthDuration/v2_depth_duration_MTurk/v2_DepthDuration_HTML.html#121,121,1280,657,1280,800,8-22-2022,5-9-38,46,depth_duration_stimuli/002784_2014-06-22_19-26-30_094959634447_rgbf000083-resize_3/002784_2014-06-22_19-26-30_094959634447_rgbf000083-resize_3-target.png,1000,1.8046666666667,2,7127,951,meters,jsons/v1_VE1000_randls_73.json,1377407,2236218,1987,Woman
46,561433,DepthScenes,duration_manipulation_targetAtFixation,jsons/v1_VE1000_randls_73.json,http://54.235.29.9/FacialAge/BNav_EC2/DepthDuration/v2_depth_duration_MTurk/v2_DepthDuration_HTML.html#121,121,1280,657,1280,800,8-22-2022,5-9-38,47,depth_duration_stimuli/001100_2014-06-15_17-46-26_260595134347_rgbf000225-resize_2/001100_2014-06-15_17-46-26_260595134347_rgbf000225-resize_2-target.png,1000,2.24,3,18180,974,meters,jsons/v1_VE1000_randls_73.json,1377407,2236218,1987,Woman
47,561433,DepthScenes,duration_manipulation_targetAtFixation,jsons/v1_VE1000_randls_73.json,http://54.235.29.9/FacialAge/BNav_EC2/DepthDuration/v2_depth_duration_MTurk/v2_DepthDuration_HTML.html#121,121,1280,657,1280,800,8-22-2022,5-9-38,48,depth_duration_stimuli/001016_2014-06-09_16-16-10_260595134347_rgbf000112-resize_5/001016_2014-06-09_16-16-10_260595134347_rgbf000112-resize_5-target.png,1000,1.6565,2,9425,1027,meters,jsons/v1_VE1000_randls_73.json,1377407,2236218,1987,Woman
48,561433,DepthScenes,duration_manipulation_targetAtFixation,jsons/v1_VE1000_randls_73.json,http://54.235.29.9/FacialAge/BNav_EC2/DepthDuration/v2_depth_duration_MTurk/v2_DepthDuration_HTML.html#121,121,1280,657,1280,800,8-22-2022,5-9-38,49,depth_duration_stimuli/002340_2014-06-28_20-05-46_260595134347_rgbf000113-resize_0/002340_2014-06-28_20-05-46_260595134347_rgbf000113-resize_0-target.png,1000,2.4735,2,3395,993,meters,jsons/v1_VE1000_randls_73.json,1377407,2236218,1987,Woman
49,561433,DepthScenes,duration_manipulation_targetAtFixation,jsons/v1_VE1000_randls_73.json,http://54.235.29.9/FacialAge/BNav_EC2/DepthDuration/v2_depth_duration_MTurk/v2_DepthDuration_HTML.html#121,121,1280,657,1280,800,8-22-2022,5-9-38,50,depth_duration_stimuli/003621_2014-05-23_18-06-08_094959634447_rgbf000101-resize_1/003621_2014-05-23_18-06-08_094959634447_rgbf000101-resize_1-target.png,1000,3.9835,2,12254,1202,meters,jsons/v1_VE1000_randls_73.json,1377407,2236218,1987,Woman
50,561433,DepthScenes,duration_manipulation_targetAtFixation,jsons/v1_VE1000_randls_73.json,http://54.235.29.9/FacialAge/BNav_EC2/DepthDuration/v2_depth_duration_MTurk/v2_DepthDuration_HTML.html#121,121,1280,657,1280,800,8-22-2022,5-9-38,51,depth_duration_stimuli/001584_2014-06-20_11-07-43_260595134347_rgbf000002-resize_1/001584_2014-06-20_11-07-43_260595134347_rgbf000002-resize_1-target.png,1000,3.53,2,5035,955,meters,jsons/v1_VE1000_randls_73.json,1377407,2236218,1987,Woman
51,561433,DepthScenes,duration_manipulation_targetAtFixation,jsons/v1_VE1000_randls_73.json,http://54.235.29.9/FacialAge/BNav_EC2/DepthDuration/v2_depth_duration_MTurk/v2_DepthDuration_HTML.html#121,121,1280,657,1280,800,8-22-2022,5-9-38,52,depth_duration_stimuli/002549_2014-06-24_13-41-39_094959634447_rgbf000022-resize_3/002549_2014-06-24_13-41-39_094959634447_rgbf000022-resize_3-target.png,1000,1.476,2,12118,962,meters,jsons/v1_VE1000_randls_73.json,1377407,2236218,1987,Woman
52,561433,DepthScenes,duration_manipulation_targetAtFixation,jsons/v1_VE1000_randls_73.json,http://54.235.29.9/FacialAge/BNav_EC2/DepthDuration/v2_depth_duration_MTurk/v2_DepthDuration_HTML.html#121,121,1280,657,1280,800,8-22-2022,5-9-38,53,depth_duration_stimuli/002750_2014-06-22_19-08-03_094959634447_rgbf000094-resize_4/002750_2014-06-22_19-08-03_094959634447_rgbf000094-resize_4-target.png,1000,2.354,2,3922,803,meters,jsons/v1_VE1000_randls_73.json,1377407,2236218,1987,Woman
53,561433,DepthScenes,duration_manipulation_targetAtFixation,jsons/v1_VE1000_randls_73.json,http://54.235.29.9/FacialAge/BNav_EC2/DepthDuration/v2_depth_duration_MTurk/v2_DepthDuration_HTML.html#121,121,1280,657,1280,800,8-22-2022,5-9-38,54,depth_duration_stimuli/002570_2014-06-24_13-59-54_094959634447_rgbf000059-resize_0/002570_2014-06-24_13-59-54_094959634447_rgbf000059-resize_0-target.png,1000,4.037,2,5847,1147,meters,jsons/v1_VE1000_randls_73.json,1377407,2236218,1987,Woman
54,561433,DepthScenes,duration_manipulation_targetAtFixation,jsons/v1_VE1000_randls_73.json,http://54.235.29.9/FacialAge/BNav_EC2/DepthDuration/v2_depth_duration_MTurk/v2_DepthDuration_HTML.html#121,121,1280,657,1280,800,8-22-2022,5-9-38,55,depth_duration_stimuli/002467_2014-06-28_20-38-07_260595134347_rgbf000026-resize_2/002467_2014-06-28_20-38-07_260595134347_rgbf000026-resize_2-target.png,1000,4.742,2,3382,999,meters,jsons/v1_VE1000_randls_73.json,1377407,2236218,1987,Woman
55,561433,DepthScenes,duration_manipulation_targetAtFixation,jsons/v1_VE1000_randls_73.json,http://54.235.29.9/FacialAge/BNav_EC2/DepthDuration/v2_depth_duration_MTurk/v2_DepthDuration_HTML.html#121,121,1280,657,1280,800,8-22-2022,5-9-38,56,depth_duration_stimuli/001029_2014-06-08_13-17-57_260595134347_rgbf000065-resize_1/001029_2014-06-08_13-17-57_260595134347_rgbf000065-resize_1-target.png,1000,3.0835,2,10477,878,meters,jsons/v1_VE1000_randls_73.json,1377407,2236218,1987,Woman
56,561433,DepthScenes,duration_manipulation_targetAtFixation,jsons/v1_VE1000_randls_73.json,http://54.235.29.9/FacialAge/BNav_EC2/DepthDuration/v2_depth_duration_MTurk/v2_DepthDuration_HTML.html#121,121,1280,657,1280,800,8-22-2022,5-9-38,57,depth_duration_stimuli/000677_2014-06-08_23-10-32_260595134347_rgbf000158-resize_6/000677_2014-06-08_23-10-32_260595134347_rgbf000158-resize_6-target.png,1000,3.556,3,6803,999,meters,jsons/v1_VE1000_randls_73.json,1377407,2236218,1987,Woman
57,561433,DepthScenes,duration_manipulation_targetAtFixation,jsons/v1_VE1000_randls_73.json,http://54.235.29.9/FacialAge/BNav_EC2/DepthDuration/v2_depth_duration_MTurk/v2_DepthDuration_HTML.html#121,121,1280,657,1280,800,8-22-2022,5-9-38,58,depth_duration_stimuli/001808_2014-06-26_20-50-58_260595134347_rgbf000029-resize_1/001808_2014-06-26_20-50-58_260595134347_rgbf000029-resize_1-target.png,1000,4.249,2,9871,998,meters,jsons/v1_VE1000_randls_73.json,1377407,2236218,1987,Woman
58,561433,DepthScenes,duration_manipulation_targetAtFixation,jsons/v1_VE1000_randls_73.json,http://54.235.29.9/FacialAge/BNav_EC2/DepthDuration/v2_depth_duration_MTurk/v2_DepthDuration_HTML.html#121,121,1280,657,1280,800,8-22-2022,5-9-38,59,depth_duration_stimuli/001815_2014-06-26_20-52-55_260595134347_rgbf000020-resize_0/001815_2014-06-26_20-52-55_260595134347_rgbf000020-resize_0-target.png,1000,3.3865,2,5663,876,meters,jsons/v1_VE1000_randls_73.json,1377407,2236218,1987,Woman
59,561433,DepthScenes,duration_manipulation_targetAtFixation,jsons/v1_VE1000_randls_73.json,http://54.235.29.9/FacialAge/BNav_EC2/DepthDuration/v2_depth_duration_MTurk/v2_DepthDuration_HTML.html#121,121,1280,657,1280,800,8-22-2022,5-9-38,60,depth_duration_stimuli/001806_2014-06-26_20-50-20_260595134347_rgbf000091-resize_1/001806_2014-06-26_20-50-20_260595134347_rgbf000091-resize_1-target.png,1000,2.7305,2,8962,1003,meters,jsons/v1_VE1000_randls_73.json,1377407,2236218,1987,Woman
60,561433,DepthScenes,duration_manipulation_targetAtFixation,jsons/v1_VE1000_randls_73.json,http://54.235.29.9/FacialAge/BNav_EC2/DepthDuration/v2_depth_duration_MTurk/v2_DepthDuration_HTML.html#121,121,1280,657,1280,800,8-22-2022,5-9-38,61,depth_duration_stimuli/001617_2014-06-20_11-35-32_260595134347_rgbf000066-resize_1/001617_2014-06-20_11-35-32_260595134347_rgbf000066-resize_1-target.png,1000,3.7910000000000004,2,3423,900,meters,jsons/v1_VE1000_randls_73.json,1377407,2236218,1987,Woman
61,561433,DepthScenes,duration_manipulation_targetAtFixation,jsons/v1_VE1000_randls_73.json,http://54.235.29.9/FacialAge/BNav_EC2/DepthDuration/v2_depth_duration_MTurk/v2_DepthDuration_HTML.html#121,121,1280,657,1280,800,8-22-2022,5-9-38,62,depth_duration_stimuli/001158_2014-06-17_15-32-16_260595134347_rgbf000138-resize_2/001158_2014-06-17_15-32-16_260595134347_rgbf000138-resize_2-target.png,1000,4.5315,3,40397,992,meters,jsons/v1_VE1000_randls_73.json,1377407,2236218,1987,Woman
62,561433,DepthScenes,duration_manipulation_targetAtFixation,jsons/v1_VE1000_randls_73.json,http://54.235.29.9/FacialAge/BNav_EC2/DepthDuration/v2_depth_duration_MTurk/v2_DepthDuration_HTML.html#121,121,1280,657,1280,800,8-22-2022,5-9-38,63,depth_duration_stimuli/000556_2014-06-09_22-42-56_260595134347_rgbf000214-resize_1/000556_2014-06-09_22-42-56_260595134347_rgbf000214-resize_1-target.png,1000,4.8415,3,12951,894,meters,jsons/v1_VE1000_randls_73.json,1377407,2236218,1987,Woman
63,561433,DepthScenes,duration_manipulation_targetAtFixation,jsons/v1_VE1000_randls_73.json,http://54.235.29.9/FacialAge/BNav_EC2/DepthDuration/v2_depth_duration_MTurk/v2_DepthDuration_HTML.html#121,121,1280,657,1280,800,8-22-2022,5-9-38,64,depth_duration_stimuli/002039_2014-06-24_20-22-38_260595134347_rgbf000084-resize_1/002039_2014-06-24_20-22-38_260595134347_rgbf000084-resize_1-target.png,1000,4.408,3,11595,1000,meters,jsons/v1_VE1000_randls_73.json,1377407,2236218,1987,Woman
64,561433,DepthScenes,duration_manipulation_targetAtFixation,jsons/v1_VE1000_randls_73.json,http://54.235.29.9/FacialAge/BNav_EC2/DepthDuration/v2_depth_duration_MTurk/v2_DepthDuration_HTML.html#121,121,1280,657,1280,800,8-22-2022,5-9-38,65,depth_duration_stimuli/002103_2014-06-25_20-00-40_260595134347_rgbf000049-resize_0/002103_2014-06-25_20-00-40_260595134347_rgbf000049-resize_0-target.png,1000,4.105,2,3998,1000,meters,jsons/v1_VE1000_randls_73.json,1377407,2236218,1987,Woman
65,561433,DepthScenes,duration_manipulation_targetAtFixation,jsons/v1_VE1000_randls_73.json,http://54.235.29.9/FacialAge/BNav_EC2/DepthDuration/v2_depth_duration_MTurk/v2_DepthDuration_HTML.html#121,121,1280,657,1280,800,8-22-2022,5-9-38,66,depth_duration_stimuli/001222_2014-06-17_16-24-06_260595134347_rgbf000073-resize_0/001222_2014-06-17_16-24-06_260595134347_rgbf000073-resize-original.jpg,1000,1.4385,2,5614,957,meters,jsons/v1_VE1000_randls_73.json,1377407,2236218,1987,Woman
66,561433,DepthScenes,duration_manipulation_targetAtFixation,jsons/v1_VE1000_randls_73.json,http://54.235.29.9/FacialAge/BNav_EC2/DepthDuration/v2_depth_duration_MTurk/v2_DepthDuration_HTML.html#121,121,1280,657,1280,800,8-22-2022,5-9-38,67,depth_duration_stimuli/001449_2014-06-19_17-01-27_260595134347_rgbf000116-resize_2/001449_2014-06-19_17-01-27_260595134347_rgbf000116-resize_2-target.png,1000,3.452,2,11297,1006,meters,jsons/v1_VE1000_randls_73.json,1377407,2236218,1987,Woman
67,561433,DepthScenes,duration_manipulation_targetAtFixation,jsons/v1_VE1000_randls_73.json,http://54.235.29.9/FacialAge/BNav_EC2/DepthDuration/v2_depth_duration_MTurk/v2_DepthDuration_HTML.html#121,121,1280,657,1280,800,8-22-2022,5-9-38,68,depth_duration_stimuli/001450_2014-06-19_17-02-03_260595134347_rgbf000203-resize_4/001450_2014-06-19_17-02-03_260595134347_rgbf000203-resize_4-target.png,1000,4.0106666666667,2,6026,1000,meters,jsons/v1_VE1000_randls_73.json,1377407,2236218,1987,Woman
68,561433,DepthScenes,duration_manipulation_targetAtFixation,jsons/v1_VE1000_randls_73.json,http://54.235.29.9/FacialAge/BNav_EC2/DepthDuration/v2_depth_duration_MTurk/v2_DepthDuration_HTML.html#121,121,1280,657,1280,800,8-22-2022,5-9-38,69,depth_duration_stimuli/001199_2014-06-17_16-03-48_260595134347_rgbf000077-resize_0/001199_2014-06-17_16-03-48_260595134347_rgbf000077-resize_0-target.png,1000,3.4375,7,8704,978,meters,jsons/v1_VE1000_randls_73.json,1377407,2236218,1987,Woman
69,561433,DepthScenes,duration_manipulation_targetAtFixation,jsons/v1_VE1000_randls_73.json,http://54.235.29.9/FacialAge/BNav_EC2/DepthDuration/v2_depth_duration_MTurk/v2_DepthDuration_HTML.html#121,121,1280,657,1280,800,8-22-2022,5-9-38,70,depth_duration_stimuli/000502_2014-06-08_23-02-32_260595134347_rgbf000063-resize_4/000502_2014-06-08_23-02-32_260595134347_rgbf000063-resize_4-target.png,1000,2.431,7,7025,1005,meters,jsons/v1_VE1000_randls_73.json,1377407,2236218,1987,Woman
70,561433,DepthScenes,duration_manipulation_targetAtFixation,jsons/v1_VE1000_randls_73.json,http://54.235.29.9/FacialAge/BNav_EC2/DepthDuration/v2_depth_duration_MTurk/v2_DepthDuration_HTML.html#121,121,1280,657,1280,800,8-22-2022,5-9-38,71,depth_duration_stimuli/000469_2014-06-09_19-42-10_260595134347_rgbf000081-resize_1/000469_2014-06-09_19-42-10_260595134347_rgbf000081-resize_1-target.png,1000,1.652,4,24526,1001,meters,jsons/v1_VE1000_randls_73.json,1377407,2236218,1987,Woman
71,561433,DepthScenes,duration_manipulation_targetAtFixation,jsons/v1_VE1000_randls_73.json,http://54.235.29.9/FacialAge/BNav_EC2/DepthDuration/v2_depth_duration_MTurk/v2_DepthDuration_HTML.html#121,121,1280,657,1280,800,8-22-2022,5-9-38,72,depth_duration_stimuli/000483_2014-06-09_20-41-45_260595134347_rgbf000116-resize_4/000483_2014-06-09_20-41-45_260595134347_rgbf000116-resize_4-target.png,1000,1.337,5,38471,1200,meters,jsons/v1_VE1000_randls_73.json,1377407,2236218,1987,Woman
72,561433,DepthScenes,duration_manipulation_targetAtFixation,jsons/v1_VE1000_randls_73.json,http://54.235.29.9/FacialAge/BNav_EC2/DepthDuration/v2_depth_duration_MTurk/v2_DepthDuration_HTML.html#121,121,1280,657,1280,800,8-22-2022,5-9-38,73,depth_duration_stimuli/002964_2014-06-08_17-46-11_094959634447_rgbf000091-resize_4/002964_2014-06-08_17-46-11_094959634447_rgbf000091-resize_4-target.png,1000,1.6909999999999998,4,6644,994,meters,jsons/v1_VE1000_randls_73.json,1377407,2236218,1987,Woman
73,561433,DepthScenes,duration_manipulation_targetAtFixation,jsons/v1_VE1000_randls_73.json,http://54.235.29.9/FacialAge/BNav_EC2/DepthDuration/v2_depth_duration_MTurk/v2_DepthDuration_HTML.html#121,121,1280,657,1280,800,8-22-2022,5-9-38,74,depth_duration_stimuli/002136_2014-06-25_21-18-03_260595134347_rgbf000109-resize_3/002136_2014-06-25_21-18-03_260595134347_rgbf000109-resize_3-target.png,1000,1.9569999999999999,9,6495,998,meters,jsons/v1_VE1000_randls_73.json,1377407,2236218,1987,Woman
74,561433,DepthScenes,duration_manipulation_targetAtFixation,jsons/v1_VE1000_randls_73.json,http://54.235.29.9/FacialAge/BNav_EC2/DepthDuration/v2_depth_duration_MTurk/v2_DepthDuration_HTML.html#121,121,1280,657,1280,800,8-22-2022,5-9-38,75,depth_duration_stimuli/001150_2014-06-17_15-27-34_260595134347_rgbf000108-resize_2/001150_2014-06-17_15-27-34_260595134347_rgbf000108-resize_2-target.png,1000,4.0325,9,7827,998,meters,jsons/v1_VE1000_randls_73.json,1377407,2236218,1987,Woman
75,561433,DepthScenes,duration_manipulation_targetAtFixation,jsons/v1_VE1000_randls_73.json,http://54.235.29.9/FacialAge/BNav_EC2/DepthDuration/v2_depth_duration_MTurk/v2_DepthDuration_HTML.html#121,121,1280,657,1280,800,8-22-2022,5-9-38,76,depth_duration_stimuli/000665_2014-06-09_20-42-35_260595134347_rgbf000110-resize_1/000665_2014-06-09_20-42-35_260595134347_rgbf000110-resize_1-target.png,1000,3.057,7,6426,1019,meters,jsons/v1_VE1000_randls_73.json,1377407,2236218,1987,Woman
76,561433,DepthScenes,duration_manipulation_targetAtFixation,jsons/v1_VE1000_randls_73.json,http://54.235.29.9/FacialAge/BNav_EC2/DepthDuration/v2_depth_duration_MTurk/v2_DepthDuration_HTML.html#121,121,1280,657,1280,800,8-22-2022,5-9-38,77,depth_duration_stimuli/000414_2014-06-04_19-49-13_260595134347_rgbf000044-resize_0/000414_2014-06-04_19-49-13_260595134347_rgbf000044-resize_0-target.png,1000,4.329,9,18516,999,meters,jsons/v1_VE1000_randls_73.json,1377407,2236218,1987,Woman
77,561433,DepthScenes,duration_manipulation_targetAtFixation,jsons/v1_VE1000_randls_73.json,http://54.235.29.9/FacialAge/BNav_EC2/DepthDuration/v2_depth_duration_MTurk/v2_DepthDuration_HTML.html#121,121,1280,657,1280,800,8-22-2022,5-9-38,78,depth_duration_stimuli/003129_2014-05-12_10-48-10_094959634447_rgbf000100-resize_0/003129_2014-05-12_10-48-10_094959634447_rgbf000100-resize_0-target.png,1000,4.9305,10,7399,931,meters,jsons/v1_VE1000_randls_73.json,1377407,2236218,1987,Woman
78,561433,DepthScenes,duration_manipulation_targetAtFixation,jsons/v1_VE1000_randls_73.json,http://54.235.29.9/FacialAge/BNav_EC2/DepthDuration/v2_depth_duration_MTurk/v2_DepthDuration_HTML.html#121,121,1280,657,1280,800,8-22-2022,5-9-38,79,depth_duration_stimuli/000773_2014-06-08_22-24-54_260595134347_rgbf000093-resize_1/000773_2014-06-08_22-24-54_260595134347_rgbf000093-resize_1-target.png,1000,4.973,2,18881,978,meters,jsons/v1_VE1000_randls_73.json,1377407,2236218,1987,Woman
79,561433,DepthScenes,duration_manipulation_targetAtFixation,jsons/v1_VE1000_randls_73.json,http://54.235.29.9/FacialAge/BNav_EC2/DepthDuration/v2_depth_duration_MTurk/v2_DepthDuration_HTML.html#121,121,1280,657,1280,800,8-22-2022,5-9-38,80,depth_duration_stimuli/002414_2014-06-28_20-24-58_260595134347_rgbf000067-resize_4/002414_2014-06-28_20-24-58_260595134347_rgbf000067-resize_4-target.png,1000,4.363,2,9058,1023,meters,jsons/v1_VE1000_randls_73.json,1377407,2236218,1987,Woman
80,561433,DepthScenes,duration_manipulation_targetAtFixation,jsons/v1_VE1000_randls_73.json,http://54.235.29.9/FacialAge/BNav_EC2/DepthDuration/v2_depth_duration_MTurk/v2_DepthDuration_HTML.html#121,121,1280,657,1280,800,8-22-2022,5-9-38,81,depth_duration_stimuli/002057_2014-06-24_21-00-13_260595134347_rgbf000120-resize_1/002057_2014-06-24_21-00-13_260595134347_rgbf000120-resize_1-target.png,1000,2.967,3,11469,979,meters,jsons/v1_VE1000_randls_73.json,1377407,2236218,1987,Woman
81,561433,DepthScenes,duration_manipulation_targetAtFixation,jsons/v1_VE1000_randls_73.json,http://54.235.29.9/FacialAge/BNav_EC2/DepthDuration/v2_depth_duration_MTurk/v2_DepthDuration_HTML.html#121,121,1280,657,1280,800,8-22-2022,5-9-38,82,depth_duration_stimuli/000709_2014-06-08_13-51-55_260595134347_rgbf000068-resize_3/000709_2014-06-08_13-51-55_260595134347_rgbf000068-resize_3-target.png,1000,1.8030000000000002,2,5742,1002,meters,jsons/v1_VE1000_randls_73.json,1377407,2236218,1987,Woman
82,561433,DepthScenes,duration_manipulation_targetAtFixation,jsons/v1_VE1000_randls_73.json,http://54.235.29.9/FacialAge/BNav_EC2/DepthDuration/v2_depth_duration_MTurk/v2_DepthDuration_HTML.html#121,121,1280,657,1280,800,8-22-2022,5-9-38,83,depth_duration_stimuli/002600_2014-06-24_14-27-04_094959634447_rgbf000074-resize_2/002600_2014-06-24_14-27-04_094959634447_rgbf000074-resize_2-target.png,1000,2.7575,2,7072,1000,meters,jsons/v1_VE1000_randls_73.json,1377407,2236218,1987,Woman
83,561433,DepthScenes,duration_manipulation_targetAtFixation,jsons/v1_VE1000_randls_73.json,http://54.235.29.9/FacialAge/BNav_EC2/DepthDuration/v2_depth_duration_MTurk/v2_DepthDuration_HTML.html#121,121,1280,657,1280,800,8-22-2022,5-9-38,84,depth_duration_stimuli/003228_2014-05-14_13-42-35_094959634447_rgbf000101-resize_1/003228_2014-05-14_13-42-35_094959634447_rgbf000101-resize_1-target.png,1000,1.9680000000000002,2,5161,1001,meters,jsons/v1_VE1000_randls_73.json,1377407,2236218,1987,Woman
84,561433,DepthScenes,duration_manipulation_targetAtFixation,jsons/v1_VE1000_randls_73.json,http://54.235.29.9/FacialAge/BNav_EC2/DepthDuration/v2_depth_duration_MTurk/v2_DepthDuration_HTML.html#121,121,1280,657,1280,800,8-22-2022,5-9-38,85,depth_duration_stimuli/002213_2014-06-28_18-37-58_260595134347_rgbf000055-resize_1/002213_2014-06-28_18-37-58_260595134347_rgbf000055-resize_1-target.png,1000,3.62,2,7285,995,meters,jsons/v1_VE1000_randls_73.json,1377407,2236218,1987,Woman
85,561433,DepthScenes,duration_manipulation_targetAtFixation,jsons/v1_VE1000_randls_73.json,http://54.235.29.9/FacialAge/BNav_EC2/DepthDuration/v2_depth_duration_MTurk/v2_DepthDuration_HTML.html#121,121,1280,657,1280,800,8-22-2022,5-9-38,86,depth_duration_stimuli/000691_2014-06-08_13-08-50_260595134347_rgbf000132-resize_3/000691_2014-06-08_13-08-50_260595134347_rgbf000132-resize_3-target.png,1000,4.1530000000000005,2,3458,998,meters,jsons/v1_VE1000_randls_73.json,1377407,2236218,1987,Woman
86,561433,DepthScenes,duration_manipulation_targetAtFixation,jsons/v1_VE1000_randls_73.json,http://54.235.29.9/FacialAge/BNav_EC2/DepthDuration/v2_depth_duration_MTurk/v2_DepthDuration_HTML.html#121,121,1280,657,1280,800,8-22-2022,5-9-38,87,depth_duration_stimuli/002763_2014-06-22_19-13-10_094959634447_rgbf000075-resize_4/002763_2014-06-22_19-13-10_094959634447_rgbf000075-resize_4-target.png,1000,1.68375,2,7171,1000,meters,jsons/v1_VE1000_randls_73.json,1377407,2236218,1987,Woman
87,561433,DepthScenes,duration_manipulation_targetAtFixation,jsons/v1_VE1000_randls_73.json,http://54.235.29.9/FacialAge/BNav_EC2/DepthDuration/v2_depth_duration_MTurk/v2_DepthDuration_HTML.html#121,121,1280,657,1280,800,8-22-2022,5-9-38,88,depth_duration_stimuli/002209_2014-06-28_18-36-10_260595134347_rgbf000051-resize_1/002209_2014-06-28_18-36-10_260595134347_rgbf000051-resize_1-target.png,1000,2.057,2,3390,997,meters,jsons/v1_VE1000_randls_73.json,1377407,2236218,1987,Woman
88,561433,DepthScenes,duration_manipulation_targetAtFixation,jsons/v1_VE1000_randls_73.json,http://54.235.29.9/FacialAge/BNav_EC2/DepthDuration/v2_depth_duration_MTurk/v2_DepthDuration_HTML.html#121,121,1280,657,1280,800,8-22-2022,5-9-38,89,depth_duration_stimuli/000486_2014-06-09_20-47-20_260595134347_rgbf000143-resize_2/000486_2014-06-09_20-47-20_260595134347_rgbf000143-resize_2-target.png,1000,4.8325,2,6905,998,meters,jsons/v1_VE1000_randls_73.json,1377407,2236218,1987,Woman
89,561433,DepthScenes,duration_manipulation_targetAtFixation,jsons/v1_VE1000_randls_73.json,http://54.235.29.9/FacialAge/BNav_EC2/DepthDuration/v2_depth_duration_MTurk/v2_DepthDuration_HTML.html#121,121,1280,657,1280,800,8-22-2022,5-9-38,90,depth_duration_stimuli/003083_2014-06-15_15-21-03_094959634447_rgbf000063-resize_1/003083_2014-06-15_15-21-03_094959634447_rgbf000063-resize_1-target.png,1000,4.1405,2,5779,1000,meters,jsons/v1_VE1000_randls_73.json,1377407,2236218,1987,Woman
90,561433,DepthScenes,duration_manipulation_targetAtFixation,jsons/v1_VE1000_randls_73.json,http://54.235.29.9/FacialAge/BNav_EC2/DepthDuration/v2_depth_duration_MTurk/v2_DepthDuration_HTML.html#121,121,1280,657,1280,800,8-22-2022,5-9-38,91,depth_duration_stimuli/001110_2014-06-15_17-25-28_260595134347_rgbf000150-resize_1/001110_2014-06-15_17-25-28_260595134347_rgbf000150-resize_1-target.png,1000,1.7115,2,9259,999,meters,jsons/v1_VE1000_randls_73.json,1377407,2236218,1987,Woman
91,561433,DepthScenes,duration_manipulation_targetAtFixation,jsons/v1_VE1000_randls_73.json,http://54.235.29.9/FacialAge/BNav_EC2/DepthDuration/v2_depth_duration_MTurk/v2_DepthDuration_HTML.html#121,121,1280,657,1280,800,8-22-2022,5-9-38,92,depth_duration_stimuli/000927_2014-06-09_16-32-30_260595134347_rgbf000123-resize_3/000927_2014-06-09_16-32-30_260595134347_rgbf000123-resize_3-target.png,1000,2.6785,2,3718,1000,meters,jsons/v1_VE1000_randls_73.json,1377407,2236218,1987,Woman
92,561433,DepthScenes,duration_manipulation_targetAtFixation,jsons/v1_VE1000_randls_73.json,http://54.235.29.9/FacialAge/BNav_EC2/DepthDuration/v2_depth_duration_MTurk/v2_DepthDuration_HTML.html#121,121,1280,657,1280,800,8-22-2022,5-9-38,93,depth_duration_stimuli/003070_2014-06-15_14-58-27_094959634447_rgbf000150-resize_3/003070_2014-06-15_14-58-27_094959634447_rgbf000150-resize_3-target.png,1000,2.9415,2,11379,995,meters,jsons/v1_VE1000_randls_73.json,1377407,2236218,1987,Woman
93,561433,DepthScenes,duration_manipulation_targetAtFixation,jsons/v1_VE1000_randls_73.json,http://54.235.29.9/FacialAge/BNav_EC2/DepthDuration/v2_depth_duration_MTurk/v2_DepthDuration_HTML.html#121,121,1280,657,1280,800,8-22-2022,5-9-38,94,depth_duration_stimuli/000943_2014-06-09_19-31-07_260595134347_rgbf000128-resize_1/000943_2014-06-09_19-31-07_260595134347_rgbf000128-resize_1-target.png,1000,1.9765,2,6486,1000,meters,jsons/v1_VE1000_randls_73.json,1377407,2236218,1987,Woman
94,561433,DepthScenes,duration_manipulation_targetAtFixation,jsons/v1_VE1000_randls_73.json,http://54.235.29.9/FacialAge/BNav_EC2/DepthDuration/v2_depth_duration_MTurk/v2_DepthDuration_HTML.html#121,121,1280,657,1280,800,8-22-2022,5-9-38,95,depth_duration_stimuli/001059_2014-06-08_21-53-27_260595134347_rgbf000061-resize_4/001059_2014-06-08_21-53-27_260595134347_rgbf000061-resize_4-target.png,1000,2.4185,2,11210,1001,meters,jsons/v1_VE1000_randls_73.json,1377407,2236218,1987,Woman
95,561433,DepthScenes,duration_manipulation_targetAtFixation,jsons/v1_VE1000_randls_73.json,http://54.235.29.9/FacialAge/BNav_EC2/DepthDuration/v2_depth_duration_MTurk/v2_DepthDuration_HTML.html#121,121,1280,657,1280,800,8-22-2022,5-9-38,96,depth_duration_stimuli/001032_2014-06-08_13-23-17_260595134347_rgbf000021-resize_3/001032_2014-06-08_13-23-17_260595134347_rgbf000021-resize_3-target.png,1000,3.2725,2,6078,981,meters,jsons/v1_VE1000_randls_73.json,1377407,2236218,1987,Woman
96,561433,DepthScenes,duration_manipulation_targetAtFixation,jsons/v1_VE1000_randls_73.json,http://54.235.29.9/FacialAge/BNav_EC2/DepthDuration/v2_depth_duration_MTurk/v2_DepthDuration_HTML.html#121,121,1280,657,1280,800,8-22-2022,5-9-38,97,depth_duration_stimuli/002748_2014-06-22_19-07-22_094959634447_rgbf000078-resize_1/002748_2014-06-22_19-07-22_094959634447_rgbf000078-resize_1-target.png,1000,4.6705,2,9365,999,meters,jsons/v1_VE1000_randls_73.json,1377407,2236218,1987,Woman
97,561433,DepthScenes,duration_manipulation_targetAtFixation,jsons/v1_VE1000_randls_73.json,http://54.235.29.9/FacialAge/BNav_EC2/DepthDuration/v2_depth_duration_MTurk/v2_DepthDuration_HTML.html#121,121,1280,657,1280,800,8-22-2022,5-9-38,98,depth_duration_stimuli/002995_2014-06-15_12-31-26_094959634447_rgbf000150-resize_1/002995_2014-06-15_12-31-26_094959634447_rgbf000150-resize_1-target.png,1000,3.8360000000000003,2,3928,1009,meters,jsons/v1_VE1000_randls_73.json,1377407,2236218,1987,Woman
98,561433,DepthScenes,duration_manipulation_targetAtFixation,jsons/v1_VE1000_randls_73.json,http://54.235.29.9/FacialAge/BNav_EC2/DepthDuration/v2_depth_duration_MTurk/v2_DepthDuration_HTML.html#121,121,1280,657,1280,800,8-22-2022,5-9-38,99,depth_duration_stimuli/001540_2014-06-20_17-01-05_260595134347_rgbf000086-resize_2/001540_2014-06-20_17-01-05_260595134347_rgbf000086-resize-original.jpg,1000,1.459,2,7987,1029,meters,jsons/v1_VE1000_randls_73.json,1377407,2236218,1987,Woman
99,561433,DepthScenes,duration_manipulation_targetAtFixation,jsons/v1_VE1000_randls_73.json,http://54.235.29.9/FacialAge/BNav_EC2/DepthDuration/v2_depth_duration_MTurk/v2_DepthDuration_HTML.html#121,121,1280,657,1280,800,8-22-2022,5-9-38,100,depth_duration_stimuli/002445_2014-06-28_20-32-16_260595134347_rgbf000029-resize_4/002445_2014-06-28_20-32-16_260595134347_rgbf000029-resize_4-target.png,1000,2.5315,2,5784,999,meters,jsons/v1_VE1000_randls_73.json,1377407,2236218,1987,Woman
100,561433,DepthScenes,duration_manipulation_targetAtFixation,jsons/v1_VE1000_randls_73.json,http://54.235.29.9/FacialAge/BNav_EC2/DepthDuration/v2_depth_duration_MTurk/v2_DepthDuration_HTML.html#121,121,1280,657,1280,800,8-22-2022,5-9-38,101,depth_duration_stimuli/000780_2014-06-08_22-28-29_260595134347_rgbf000126-resize_1/000780_2014-06-08_22-28-29_260595134347_rgbf000126-resize_1-target.png,1000,3.3825,2,8794,1074,meters,jsons/v1_VE1000_randls_73.json,1377407,2236218,1987,Woman
101,561433,DepthScenes,duration_manipulation_targetAtFixation,jsons/v1_VE1000_randls_73.json,http://54.235.29.9/FacialAge/BNav_EC2/DepthDuration/v2_depth_duration_MTurk/v2_DepthDuration_HTML.html#121,121,1280,657,1280,800,8-22-2022,5-9-38,102,depth_duration_stimuli/000692_2014-06-08_13-09-42_260595134347_rgbf000199-resize_2/000692_2014-06-08_13-09-42_260595134347_rgbf000199-resize_2-target.png,1000,3.661,2,12526,1001,meters,jsons/v1_VE1000_randls_73.json,1377407,2236218,1987,Woman
102,561433,DepthScenes,duration_manipulation_targetAtFixation,jsons/v1_VE1000_randls_73.json,http://54.235.29.9/FacialAge/BNav_EC2/DepthDuration/v2_depth_duration_MTurk/v2_DepthDuration_HTML.html#121,121,1280,657,1280,800,8-22-2022,5-9-38,103,depth_duration_stimuli/001094_2014-06-15_17-36-00_260595134347_rgbf000205-resize_0/001094_2014-06-15_17-36-00_260595134347_rgbf000205-resize_0-target.png,1000,4.2175,2,8134,1000,meters,jsons/v1_VE1000_randls_73.json,1377407,2236218,1987,Woman
103,561433,DepthScenes,duration_manipulation_targetAtFixation,jsons/v1_VE1000_randls_73.json,http://54.235.29.9/FacialAge/BNav_EC2/DepthDuration/v2_depth_duration_MTurk/v2_DepthDuration_HTML.html#121,121,1280,657,1280,800,8-22-2022,5-9-38,104,depth_duration_stimuli/002043_2014-06-24_20-29-38_260595134347_rgbf000039-resize_4/002043_2014-06-24_20-29-38_260595134347_rgbf000039-resize_4-target.png,1000,2.8435,2,6595,1020,meters,jsons/v1_VE1000_randls_73.json,1377407,2236218,1987,Woman
104,561433,DepthScenes,duration_manipulation_targetAtFixation,jsons/v1_VE1000_randls_73.json,http://54.235.29.9/FacialAge/BNav_EC2/DepthDuration/v2_depth_duration_MTurk/v2_DepthDuration_HTML.html#121,121,1280,657,1280,800,8-22-2022,5-9-38,105,depth_duration_stimuli/003048_2014-06-15_13-49-43_094959634447_rgbf000150-resize_1/003048_2014-06-15_13-49-43_094959634447_rgbf000150-resize_1-target.png,1000,4.0035,2,7806,941,meters,jsons/v1_VE1000_randls_73.json,1377407,2236218,1987,Woman
105,561433,DepthScenes,duration_manipulation_targetAtFixation,jsons/v1_VE1000_randls_73.json,http://54.235.29.9/FacialAge/BNav_EC2/DepthDuration/v2_depth_duration_MTurk/v2_DepthDuration_HTML.html#121,121,1280,657,1280,800,8-22-2022,5-9-38,106,depth_duration_stimuli/001244_2014-06-17_16-47-45_260595134347_rgbf000030-resize_4/001244_2014-06-17_16-47-45_260595134347_rgbf000030-resize_4-target.png,1000,2.0425,2,6821,999,meters,jsons/v1_VE1000_randls_73.json,1377407,2236218,1987,Woman
106,561433,DepthScenes,duration_manipulation_targetAtFixation,jsons/v1_VE1000_randls_73.json,http://54.235.29.9/FacialAge/BNav_EC2/DepthDuration/v2_depth_duration_MTurk/v2_DepthDuration_HTML.html#121,121,1280,657,1280,800,8-22-2022,5-9-38,107,depth_duration_stimuli/003495_2014-05-21_16-01-51_094959634447_rgbf000100-resize_3/003495_2014-05-21_16-01-51_094959634447_rgbf000100-resize_3-target.png,1000,1.6255,2,4008,1001,meters,jsons/v1_VE1000_randls_73.json,1377407,2236218,1987,Woman
107,561433,DepthScenes,duration_manipulation_targetAtFixation,jsons/v1_VE1000_randls_73.json,http://54.235.29.9/FacialAge/BNav_EC2/DepthDuration/v2_depth_duration_MTurk/v2_DepthDuration_HTML.html#121,121,1280,657,1280,800,8-22-2022,5-9-38,108,depth_duration_stimuli/002988_2014-06-15_12-24-20_094959634447_rgbf000150-resize_1/002988_2014-06-15_12-24-20_094959634447_rgbf000150-resize_1-target.png,1000,4.7669999999999995,2,5946,1000,meters,jsons/v1_VE1000_randls_73.json,1377407,2236218,1987,Woman
108,561433,DepthScenes,duration_manipulation_targetAtFixation,jsons/v1_VE1000_randls_73.json,http://54.235.29.9/FacialAge/BNav_EC2/DepthDuration/v2_depth_duration_MTurk/v2_DepthDuration_HTML.html#121,121,1280,657,1280,800,8-22-2022,5-9-38,109,depth_duration_stimuli/001052_2014-06-08_18-24-54_260595134347_rgbf000130-resize_1/001052_2014-06-08_18-24-54_260595134347_rgbf000130-resize_1-target.png,1000,4.1045,2,3574,999,meters,jsons/v1_VE1000_randls_73.json,1377407,2236218,1987,Woman
109,561433,DepthScenes,duration_manipulation_targetAtFixation,jsons/v1_VE1000_randls_73.json,http://54.235.29.9/FacialAge/BNav_EC2/DepthDuration/v2_depth_duration_MTurk/v2_DepthDuration_HTML.html#121,121,1280,657,1280,800,8-22-2022,5-9-38,110,depth_duration_stimuli/000642_2014-06-08_16-59-25_260595134347_rgbf000098-resize_2/000642_2014-06-08_16-59-25_260595134347_rgbf000098-resize_2-target.png,1000,2.8815,2,5726,999,meters,jsons/v1_VE1000_randls_73.json,1377407,2236218,1987,Woman
110,561433,DepthScenes,duration_manipulation_targetAtFixation,jsons/v1_VE1000_randls_73.json,http://54.235.29.9/FacialAge/BNav_EC2/DepthDuration/v2_depth_duration_MTurk/v2_DepthDuration_HTML.html#121,121,1280,657,1280,800,8-22-2022,5-9-38,111,depth_duration_stimuli/002425_2014-06-28_20-27-29_260595134347_rgbf000031-resize_8/002425_2014-06-28_20-27-29_260595134347_rgbf000031-resize_8-target.png,1000,3.8960000000000004,2,5054,1047,meters,jsons/v1_VE1000_randls_73.json,1377407,2236218,1987,Woman
111,561433,DepthScenes,duration_manipulation_targetAtFixation,jsons/v1_VE1000_randls_73.json,http://54.235.29.9/FacialAge/BNav_EC2/DepthDuration/v2_depth_duration_MTurk/v2_DepthDuration_HTML.html#121,121,1280,657,1280,800,8-22-2022,5-9-38,112,depth_duration_stimuli/003534_2014-05-22_15-06-10_094959634447_rgbf000102-resize_4/003534_2014-05-22_15-06-10_094959634447_rgbf000102-resize_4-target.png,1000,1.426,2,6565,999,meters,jsons/v1_VE1000_randls_73.json,1377407,2236218,1987,Woman
112,561433,DepthScenes,duration_manipulation_targetAtFixation,jsons/v1_VE1000_randls_73.json,http://54.235.29.9/FacialAge/BNav_EC2/DepthDuration/v2_depth_duration_MTurk/v2_DepthDuration_HTML.html#121,121,1280,657,1280,800,8-22-2022,5-9-38,113,depth_duration_stimuli/002637_2014-06-24_14-51-13_094959634447_rgbf000066-resize_4/002637_2014-06-24_14-51-13_094959634447_rgbf000066-resize_4-target.png,1000,1.9955,2,6932,999,meters,jsons/v1_VE1000_randls_73.json,1377407,2236218,1987,Woman
113,561433,DepthScenes,duration_manipulation_targetAtFixation,jsons/v1_VE1000_randls_73.json,http://54.235.29.9/FacialAge/BNav_EC2/DepthDuration/v2_depth_duration_MTurk/v2_DepthDuration_HTML.html#121,121,1280,657,1280,800,8-22-2022,5-9-38,114,depth_duration_stimuli/002272_2014-06-28_18-53-56_260595134347_rgbf000067-resize_2/002272_2014-06-28_18-53-56_260595134347_rgbf000067-resize_2-target.png,1000,1.138,2,6270,997,meters,jsons/v1_VE1000_randls_73.json,1377407,2236218,1987,Woman
114,561433,DepthScenes,duration_manipulation_targetAtFixation,jsons/v1_VE1000_randls_73.json,http://54.235.29.9/FacialAge/BNav_EC2/DepthDuration/v2_depth_duration_MTurk/v2_DepthDuration_HTML.html#121,121,1280,657,1280,800,8-22-2022,5-9-38,115,depth_duration_stimuli/001571_2014-06-20_17-21-32_260595134347_rgbf000089-resize_1/001571_2014-06-20_17-21-32_260595134347_rgbf000089-resize_1-target.png,1000,1.86,2,3258,958,meters,jsons/v1_VE1000_randls_73.json,1377407,2236218,1987,Woman
115,561433,DepthScenes,duration_manipulation_targetAtFixation,jsons/v1_VE1000_randls_73.json,http://54.235.29.9/FacialAge/BNav_EC2/DepthDuration/v2_depth_duration_MTurk/v2_DepthDuration_HTML.html#121,121,1280,657,1280,800,8-22-2022,5-9-38,116,depth_duration_stimuli/001170_2014-06-17_15-43-44_260595134347_rgbf000096-resize_6/001170_2014-06-17_15-43-44_260595134347_rgbf000096-resize-original.jpg,1000,1.1909999999999998,2,12366,1001,meters,jsons/v1_VE1000_randls_73.json,1377407,2236218,1987,Woman
116,561433,DepthScenes,duration_manipulation_targetAtFixation,jsons/v1_VE1000_randls_73.json,http://54.235.29.9/FacialAge/BNav_EC2/DepthDuration/v2_depth_duration_MTurk/v2_DepthDuration_HTML.html#121,121,1280,657,1280,800,8-22-2022,5-9-38,117,depth_duration_stimuli/002989_2014-06-15_12-25-03_094959634447_rgbf000150-resize_3/002989_2014-06-15_12-25-03_094959634447_rgbf000150-resize_3-target.png,1000,4.1975,2,6094,1023,meters,jsons/v1_VE1000_randls_73.json,1377407,2236218,1987,Woman
117,561433,DepthScenes,duration_manipulation_targetAtFixation,jsons/v1_VE1000_randls_73.json,http://54.235.29.9/FacialAge/BNav_EC2/DepthDuration/v2_depth_duration_MTurk/v2_DepthDuration_HTML.html#121,121,1280,657,1280,800,8-22-2022,5-9-38,118,depth_duration_stimuli/000866_2014-06-09_20-45-42_260595134347_rgbf000139-resize_1/000866_2014-06-09_20-45-42_260595134347_rgbf000139-resize_1-target.png,1000,3.2155,2,8643,998,meters,jsons/v1_VE1000_randls_73.json,1377407,2236218,1987,Woman
118,561433,DepthScenes,duration_manipulation_targetAtFixation,jsons/v1_VE1000_randls_73.json,http://54.235.29.9/FacialAge/BNav_EC2/DepthDuration/v2_depth_duration_MTurk/v2_DepthDuration_HTML.html#121,121,1280,657,1280,800,8-22-2022,5-9-38,119,depth_duration_stimuli/001810_2014-06-26_20-51-35_260595134347_rgbf000040-resize_3/001810_2014-06-26_20-51-35_260595134347_rgbf000040-resize_3-target.png,1000,2.2525,2,10519,1022,meters,jsons/v1_VE1000_randls_73.json,1377407,2236218,1987,Woman
119,561433,DepthScenes,duration_manipulation_targetAtFixation,jsons/v1_VE1000_randls_73.json,http://54.235.29.9/FacialAge/BNav_EC2/DepthDuration/v2_depth_duration_MTurk/v2_DepthDuration_HTML.html#121,121,1280,657,1280,800,8-22-2022,5-9-38,120,depth_duration_stimuli/003010_2014-06-15_12-54-35_094959634447_rgbf000112-resize_0/003010_2014-06-15_12-54-35_094959634447_rgbf000112-resize_0-target.png,1000,3.1185,2,6385,1000,meters,jsons/v1_VE1000_randls_73.json,1377407,2236218,1987,Woman
120,561433,DepthScenes,duration_manipulation_targetAtFixation,jsons/v1_VE1000_randls_73.json,http://54.235.29.9/FacialAge/BNav_EC2/DepthDuration/v2_depth_duration_MTurk/v2_DepthDuration_HTML.html#121,121,1280,657,1280,800,8-22-2022,5-9-38,121,depth_duration_stimuli/000739_2014-06-08_18-45-58_260595134347_rgbf000068-resize_1/000739_2014-06-08_18-45-58_260595134347_rgbf000068-resize_1-target.png,1000,3.534,2,7442,1003,meters,jsons/v1_VE1000_randls_73.json,1377407,2236218,1987,Woman
121,561433,DepthScenes,duration_manipulation_targetAtFixation,jsons/v1_VE1000_randls_73.json,http://54.235.29.9/FacialAge/BNav_EC2/DepthDuration/v2_depth_duration_MTurk/v2_DepthDuration_HTML.html#121,121,1280,657,1280,800,8-22-2022,5-9-38,122,depth_duration_stimuli/000734_2014-06-08_17-39-11_260595134347_rgbf000128-resize_2/000734_2014-06-08_17-39-11_260595134347_rgbf000128-resize_2-target.png,1000,4.098,2,8260,1001,meters,jsons/v1_VE1000_randls_73.json,1377407,2236218,1987,Woman
122,561433,DepthScenes,duration_manipulation_targetAtFixation,jsons/v1_VE1000_randls_73.json,http://54.235.29.9/FacialAge/BNav_EC2/DepthDuration/v2_depth_duration_MTurk/v2_DepthDuration_HTML.html#121,121,1280,657,1280,800,8-22-2022,5-9-38,123,depth_duration_stimuli/000470_2014-06-09_19-42-40_260595134347_rgbf000094-resize_1/000470_2014-06-09_19-42-40_260595134347_rgbf000094-resize_1-target.png,1000,1.831,2,6633,1014,meters,jsons/v1_VE1000_randls_73.json,1377407,2236218,1987,Woman
123,561433,DepthScenes,duration_manipulation_targetAtFixation,jsons/v1_VE1000_randls_73.json,http://54.235.29.9/FacialAge/BNav_EC2/DepthDuration/v2_depth_duration_MTurk/v2_DepthDuration_HTML.html#121,121,1280,657,1280,800,8-22-2022,5-9-38,124,depth_duration_stimuli/000109_2014-05-14_23-41-52_260595134347_rgbf000035-resize_9/000109_2014-05-14_23-41-52_260595134347_rgbf000035-resize_9-target.png,1000,1.3545,2,3706,999,meters,jsons/v1_VE1000_randls_73.json,1377407,2236218,1987,Woman
124,561433,DepthScenes,duration_manipulation_targetAtFixation,jsons/v1_VE1000_randls_73.json,http://54.235.29.9/FacialAge/BNav_EC2/DepthDuration/v2_depth_duration_MTurk/v2_DepthDuration_HTML.html#121,121,1280,657,1280,800,8-22-2022,5-9-38,125,depth_duration_stimuli/002905_2014-06-03_18-04-43_094959634447_rgbf000151-resize_2/002905_2014-06-03_18-04-43_094959634447_rgbf000151-resize_2-target.png,1000,2.0295,2,6954,999,meters,jsons/v1_VE1000_randls_73.json,1377407,2236218,1987,Woman
125,561433,DepthScenes,duration_manipulation_targetAtFixation,jsons/v1_VE1000_randls_73.json,http://54.235.29.9/FacialAge/BNav_EC2/DepthDuration/v2_depth_duration_MTurk/v2_DepthDuration_HTML.html#121,121,1280,657,1280,800,8-22-2022,5-9-38,126,depth_duration_stimuli/003423_2014-05-21_10-23-26_094959634447_rgbf002665-resize_2/003423_2014-05-21_10-23-26_094959634447_rgbf002665-resize_2-target.png,1000,3.2575,2,3451,1000,meters,jsons/v1_VE1000_randls_73.json,1377407,2236218,1987,Woman
126,561433,DepthScenes,duration_manipulation_targetAtFixation,jsons/v1_VE1000_randls_73.json,http://54.235.29.9/FacialAge/BNav_EC2/DepthDuration/v2_depth_duration_MTurk/v2_DepthDuration_HTML.html#121,121,1280,657,1280,800,8-22-2022,5-9-38,127,depth_duration_stimuli/001570_2014-06-20_17-21-09_260595134347_rgbf000135-resize_4/001570_2014-06-20_17-21-09_260595134347_rgbf000135-resize_4-target.png,1000,4.467,2,4571,1359,meters,jsons/v1_VE1000_randls_73.json,1377407,2236218,1987,Woman
127,561433,DepthScenes,duration_manipulation_targetAtFixation,jsons/v1_VE1000_randls_73.json,http://54.235.29.9/FacialAge/BNav_EC2/DepthDuration/v2_depth_duration_MTurk/v2_DepthDuration_HTML.html#121,121,1280,657,1280,800,8-22-2022,5-9-38,128,depth_duration_stimuli/001392_2014-06-19_16-07-59_260595134347_rgbf000046-resize_1/001392_2014-06-19_16-07-59_260595134347_rgbf000046-resize_1-target.png,1000,4.135,2,7199,997,meters,jsons/v1_VE1000_randls_73.json,1377407,2236218,1987,Woman
128,561433,DepthScenes,duration_manipulation_targetAtFixation,jsons/v1_VE1000_randls_73.json,http://54.235.29.9/FacialAge/BNav_EC2/DepthDuration/v2_depth_duration_MTurk/v2_DepthDuration_HTML.html#121,121,1280,657,1280,800,8-22-2022,5-9-38,129,depth_duration_stimuli/002509_2014-06-24_13-19-22_094959634447_rgbf000077-resize_0/002509_2014-06-24_13-19-22_094959634447_rgbf000077-resize_0-target.png,1000,1.3065,2,6413,1006,meters,jsons/v1_VE1000_randls_73.json,1377407,2236218,1987,Woman
129,561433,DepthScenes,duration_manipulation_targetAtFixation,jsons/v1_VE1000_randls_73.json,http://54.235.29.9/FacialAge/BNav_EC2/DepthDuration/v2_depth_duration_MTurk/v2_DepthDuration_HTML.html#121,121,1280,657,1280,800,8-22-2022,5-9-38,130,depth_duration_stimuli/003338_2014-05-20_11-01-23_094959634447_rgbf000051-resize_6/003338_2014-05-20_11-01-23_094959634447_rgbf000051-resize_6-target.png,1000,1.693,2,4424,1032,meters,jsons/v1_VE1000_randls_73.json,1377407,2236218,1987,Woman
130,561433,DepthScenes,duration_manipulation_targetAtFixation,jsons/v1_VE1000_randls_73.json,http://54.235.29.9/FacialAge/BNav_EC2/DepthDuration/v2_depth_duration_MTurk/v2_DepthDuration_HTML.html#121,121,1280,657,1280,800,8-22-2022,5-9-38,131,depth_duration_stimuli/000506_2014-06-08_23-21-00_260595134347_rgbf000070-resize_7/000506_2014-06-08_23-21-00_260595134347_rgbf000070-resize_7-target.png,1000,4.0585,2,6474,988,meters,jsons/v1_VE1000_randls_73.json,1377407,2236218,1987,Woman
131,561433,DepthScenes,duration_manipulation_targetAtFixation,jsons/v1_VE1000_randls_73.json,http://54.235.29.9/FacialAge/BNav_EC2/DepthDuration/v2_depth_duration_MTurk/v2_DepthDuration_HTML.html#121,121,1280,657,1280,800,8-22-2022,5-9-38,132,depth_duration_stimuli/003079_2014-06-15_15-18-20_094959634447_rgbf000152-resize_8/003079_2014-06-15_15-18-20_094959634447_rgbf000152-resize_8-target.png,1000,2.8775,2,4529,1003,meters,jsons/v1_VE1000_randls_73.json,1377407,2236218,1987,Woman
132,561433,DepthScenes,duration_manipulation_targetAtFixation,jsons/v1_VE1000_randls_73.json,http://54.235.29.9/FacialAge/BNav_EC2/DepthDuration/v2_depth_duration_MTurk/v2_DepthDuration_HTML.html#121,121,1280,657,1280,800,8-22-2022,5-9-38,133,depth_duration_stimuli/001164_2014-06-17_15-35-46_260595134347_rgbf000085-resize_3/001164_2014-06-17_15-35-46_260595134347_rgbf000085-resize_3-target.png,1000,2.354,2,6191,1013,meters,jsons/v1_VE1000_randls_73.json,1377407,2236218,1987,Woman
133,561433,DepthScenes,duration_manipulation_targetAtFixation,jsons/v1_VE1000_randls_73.json,http://54.235.29.9/FacialAge/BNav_EC2/DepthDuration/v2_depth_duration_MTurk/v2_DepthDuration_HTML.html#121,121,1280,657,1280,800,8-22-2022,5-9-38,134,depth_duration_stimuli/001136_2014-06-17_15-19-41_260595134347_rgbf000076-resize_3/001136_2014-06-17_15-19-41_260595134347_rgbf000076-resize_3-target.png,1000,1.8655,2,6277,951,meters,jsons/v1_VE1000_randls_73.json,1377407,2236218,1987,Woman
134,561433,DepthScenes,duration_manipulation_targetAtFixation,jsons/v1_VE1000_randls_73.json,http://54.235.29.9/FacialAge/BNav_EC2/DepthDuration/v2_depth_duration_MTurk/v2_DepthDuration_HTML.html#121,121,1280,657,1280,800,8-22-2022,5-9-38,135,depth_duration_stimuli/002072_2014-06-24_21-48-06_260595134347_rgbf000115-resize_0/002072_2014-06-24_21-48-06_260595134347_rgbf000115-resize-original.jpg,1000,4.702,2,10017,994,meters,jsons/v1_VE1000_randls_73.json,1377407,2236218,1987,Woman
135,561433,DepthScenes,duration_manipulation_targetAtFixation,jsons/v1_VE1000_randls_73.json,http://54.235.29.9/FacialAge/BNav_EC2/DepthDuration/v2_depth_duration_MTurk/v2_DepthDuration_HTML.html#121,121,1280,657,1280,800,8-22-2022,5-9-38,136,depth_duration_stimuli/000788_2014-06-08_22-34-36_260595134347_rgbf000131-resize_1/000788_2014-06-08_22-34-36_260595134347_rgbf000131-resize_1-target.png,1000,3.359,2,7321,989,meters,jsons/v1_VE1000_randls_73.json,1377407,2236218,1987,Woman
136,561433,DepthScenes,duration_manipulation_targetAtFixation,jsons/v1_VE1000_randls_73.json,http://54.235.29.9/FacialAge/BNav_EC2/DepthDuration/v2_depth_duration_MTurk/v2_DepthDuration_HTML.html#121,121,1280,657,1280,800,8-22-2022,5-9-38,137,depth_duration_stimuli/001235_2014-06-17_16-37-36_260595134347_rgbf000084-resize_4/001235_2014-06-17_16-37-36_260595134347_rgbf000084-resize_4-target.png,1000,3.6605,2,4459,1000,meters,jsons/v1_VE1000_randls_73.json,1377407,2236218,1987,Woman
137,561433,DepthScenes,duration_manipulation_targetAtFixation,jsons/v1_VE1000_randls_73.json,http://54.235.29.9/FacialAge/BNav_EC2/DepthDuration/v2_depth_duration_MTurk/v2_DepthDuration_HTML.html#121,121,1280,657,1280,800,8-22-2022,5-9-38,138,depth_duration_stimuli/000522_2014-06-08_13-35-06_260595134347_rgbf000244-resize_1/000522_2014-06-08_13-35-06_260595134347_rgbf000244-resize_1-target.png,1000,2.3715,2,13658,1000,meters,jsons/v1_VE1000_randls_73.json,1377407,2236218,1987,Woman
138,561433,DepthScenes,duration_manipulation_targetAtFixation,jsons/v1_VE1000_randls_73.json,http://54.235.29.9/FacialAge/BNav_EC2/DepthDuration/v2_depth_duration_MTurk/v2_DepthDuration_HTML.html#121,121,1280,657,1280,800,8-22-2022,5-9-38,139,depth_duration_stimuli/002949_2014-06-26_15-57-42_094959634447_rgbf000079-resize_1/002949_2014-06-26_15-57-42_094959634447_rgbf000079-resize_1-target.png,1000,1.8915,2,4517,988,meters,jsons/v1_VE1000_randls_73.json,1377407,2236218,1987,Woman
139,561433,DepthScenes,duration_manipulation_targetAtFixation,jsons/v1_VE1000_randls_73.json,http://54.235.29.9/FacialAge/BNav_EC2/DepthDuration/v2_depth_duration_MTurk/v2_DepthDuration_HTML.html#121,121,1280,657,1280,800,8-22-2022,5-9-38,140,depth_duration_stimuli/001092_2014-06-15_17-34-58_260595134347_rgbf000171-resize_3/001092_2014-06-15_17-34-58_260595134347_rgbf000171-resize_3-target.png,1000,2.6935,2,6447,947,meters,jsons/v1_VE1000_randls_73.json,1377407,2236218,1987,Woman
140,561433,DepthScenes,duration_manipulation_targetAtFixation,jsons/v1_VE1000_randls_73.json,http://54.235.29.9/FacialAge/BNav_EC2/DepthDuration/v2_depth_duration_MTurk/v2_DepthDuration_HTML.html#121,121,1280,657,1280,800,8-22-2022,5-9-38,141,depth_duration_stimuli/002545_2014-06-24_13-38-53_094959634447_rgbf000080-resize_4/002545_2014-06-24_13-38-53_094959634447_rgbf000080-resize_4-target.png,1000,1.9205,2,3537,999,meters,jsons/v1_VE1000_randls_73.json,1377407,2236218,1987,Woman
141,561433,DepthScenes,duration_manipulation_targetAtFixation,jsons/v1_VE1000_randls_73.json,http://54.235.29.9/FacialAge/BNav_EC2/DepthDuration/v2_depth_duration_MTurk/v2_DepthDuration_HTML.html#121,121,1280,657,1280,800,8-22-2022,5-9-38,142,depth_duration_stimuli/001167_2014-06-17_15-38-07_260595134347_rgbf000108-resize_0/001167_2014-06-17_15-38-07_260595134347_rgbf000108-resize_0-target.png,1000,1.8505,2,6503,1002,meters,jsons/v1_VE1000_randls_73.json,1377407,2236218,1987,Woman
142,561433,DepthScenes,duration_manipulation_targetAtFixation,jsons/v1_VE1000_randls_73.json,http://54.235.29.9/FacialAge/BNav_EC2/DepthDuration/v2_depth_duration_MTurk/v2_DepthDuration_HTML.html#121,121,1280,657,1280,800,8-22-2022,5-9-38,143,depth_duration_stimuli/003587_2014-05-23_16-48-02_094959634447_rgbf002384-resize_2/003587_2014-05-23_16-48-02_094959634447_rgbf002384-resize_2-target.png,1000,1.357,2,4047,1001,meters,jsons/v1_VE1000_randls_73.json,1377407,2236218,1987,Woman
143,561433,DepthScenes,duration_manipulation_targetAtFixation,jsons/v1_VE1000_randls_73.json,http://54.235.29.9/FacialAge/BNav_EC2/DepthDuration/v2_depth_duration_MTurk/v2_DepthDuration_HTML.html#121,121,1280,657,1280,800,8-22-2022,5-9-38,144,depth_duration_stimuli/001417_2014-06-19_16-25-36_260595134347_rgbf000115-resize_5/001417_2014-06-19_16-25-36_260595134347_rgbf000115-resize_5-target.png,1000,4.6255,2,5602,1000,meters,jsons/v1_VE1000_randls_73.json,1377407,2236218,1987,Woman
144,561433,DepthScenes,duration_manipulation_targetAtFixation,jsons/v1_VE1000_randls_73.json,http://54.235.29.9/FacialAge/BNav_EC2/DepthDuration/v2_depth_duration_MTurk/v2_DepthDuration_HTML.html#121,121,1280,657,1280,800,8-22-2022,5-9-38,145,depth_duration_stimuli/003081_2014-06-15_15-19-16_094959634447_rgbf000150-resize_1/003081_2014-06-15_15-19-16_094959634447_rgbf000150-resize_1-target.png,1000,3.9125,2,8721,999,meters,jsons/v1_VE1000_randls_73.json,1377407,2236218,1987,Woman
145,561433,DepthScenes,duration_manipulation_targetAtFixation,jsons/v1_VE1000_randls_73.json,http://54.235.29.9/FacialAge/BNav_EC2/DepthDuration/v2_depth_duration_MTurk/v2_DepthDuration_HTML.html#121,121,1280,657,1280,800,8-22-2022,5-9-38,146,depth_duration_stimuli/001498_2014-06-19_17-45-14_260595134347_rgbf000129-resize_4/001498_2014-06-19_17-45-14_260595134347_rgbf000129-resize-original.jpg,1000,1.4075,2,6264,1000,meters,jsons/v1_VE1000_randls_73.json,1377407,2236218,1987,Woman
146,561433,DepthScenes,duration_manipulation_targetAtFixation,jsons/v1_VE1000_randls_73.json,http://54.235.29.9/FacialAge/BNav_EC2/DepthDuration/v2_depth_duration_MTurk/v2_DepthDuration_HTML.html#121,121,1280,657,1280,800,8-22-2022,5-9-38,147,depth_duration_stimuli/001056_2014-06-08_18-46-44_260595134347_rgbf000068-resize_0/001056_2014-06-08_18-46-44_260595134347_rgbf000068-resize_0-target.png,1000,2.6625,2,5019,991,meters,jsons/v1_VE1000_randls_73.json,1377407,2236218,1987,Woman
147,561433,DepthScenes,duration_manipulation_targetAtFixation,jsons/v1_VE1000_randls_73.json,http://54.235.29.9/FacialAge/BNav_EC2/DepthDuration/v2_depth_duration_MTurk/v2_DepthDuration_HTML.html#121,121,1280,657,1280,800,8-22-2022,5-9-38,148,depth_duration_stimuli/002199_2014-06-28_18-33-56_260595134347_rgbf000074-resize_0/002199_2014-06-28_18-33-56_260595134347_rgbf000074-resize_0-target.png,1000,1.996,2,5749,1020,meters,jsons/v1_VE1000_randls_73.json,1377407,2236218,1987,Woman
148,561433,DepthScenes,duration_manipulation_targetAtFixation,jsons/v1_VE1000_randls_73.json,http://54.235.29.9/FacialAge/BNav_EC2/DepthDuration/v2_depth_duration_MTurk/v2_DepthDuration_HTML.html#121,121,1280,657,1280,800,8-22-2022,5-9-38,149,depth_duration_stimuli/001175_2014-06-17_15-45-55_260595134347_rgbf000129-resize_4/001175_2014-06-17_15-45-55_260595134347_rgbf000129-resize_4-target.png,1000,4.255,2,6704,1003,meters,jsons/v1_VE1000_randls_73.json,1377407,2236218,1987,Woman
149,561433,DepthScenes,duration_manipulation_targetAtFixation,jsons/v1_VE1000_randls_73.json,http://54.235.29.9/FacialAge/BNav_EC2/DepthDuration/v2_depth_duration_MTurk/v2_DepthDuration_HTML.html#121,121,1280,657,1280,800,8-22-2022,5-9-38,150,depth_duration_stimuli/003490_2014-05-21_15-50-11_094959634447_rgbf000101-resize_3/003490_2014-05-21_15-50-11_094959634447_rgbf000101-resize_3-target.png,1000,3.6445,2,4851,997,meters,jsons/v1_VE1000_randls_73.json,1377407,2236218,1987,Woman
150,561433,DepthScenes,duration_manipulation_targetAtFixation,jsons/v1_VE1000_randls_73.json,http://54.235.29.9/FacialAge/BNav_EC2/DepthDuration/v2_depth_duration_MTurk/v2_DepthDuration_HTML.html#121,121,1280,657,1280,800,8-22-2022,5-9-38,151,depth_duration_stimuli/002375_2014-06-28_20-13-44_260595134347_rgbf000032-resize_1/002375_2014-06-28_20-13-44_260595134347_rgbf000032-resize_1-target.png,1000,4.0175,2,6392,1000,meters,jsons/v1_VE1000_randls_73.json,1377407,2236218,1987,Woman
151,561433,DepthScenes,duration_manipulation_targetAtFixation,jsons/v1_VE1000_randls_73.json,http://54.235.29.9/FacialAge/BNav_EC2/DepthDuration/v2_depth_duration_MTurk/v2_DepthDuration_HTML.html#121,121,1280,657,1280,800,8-22-2022,5-9-38,152,depth_duration_stimuli/002657_2014-06-13_15-29-54_094959634447_rgbf000150-resize_1/002657_2014-06-13_15-29-54_094959634447_rgbf000150-resize_1-target.png,1000,4.919,2,3283,1003,meters,jsons/v1_VE1000_randls_73.json,1377407,2236218,1987,Woman
152,561433,DepthScenes,duration_manipulation_targetAtFixation,jsons/v1_VE1000_randls_73.json,http://54.235.29.9/FacialAge/BNav_EC2/DepthDuration/v2_depth_duration_MTurk/v2_DepthDuration_HTML.html#121,121,1280,657,1280,800,8-22-2022,5-9-38,153,depth_duration_stimuli/002118_2014-06-25_20-32-08_260595134347_rgbf000078-resize_1/002118_2014-06-25_20-32-08_260595134347_rgbf000078-resize_1-target.png,1000,2.6460000000000004,2,7894,934,meters,jsons/v1_VE1000_randls_73.json,1377407,2236218,1987,Woman
153,561433,DepthScenes,duration_manipulation_targetAtFixation,jsons/v1_VE1000_randls_73.json,http://54.235.29.9/FacialAge/BNav_EC2/DepthDuration/v2_depth_duration_MTurk/v2_DepthDuration_HTML.html#121,121,1280,657,1280,800,8-22-2022,5-9-38,154,depth_duration_stimuli/001516_2014-06-20_16-25-09_260595134347_rgbf000076-resize_2/001516_2014-06-20_16-25-09_260595134347_rgbf000076-resize_2-target.png,1000,1.7445,2,3403,999,meters,jsons/v1_VE1000_randls_73.json,1377407,2236218,1987,Woman
154,561433,DepthScenes,duration_manipulation_targetAtFixation,jsons/v1_VE1000_randls_73.json,http://54.235.29.9/FacialAge/BNav_EC2/DepthDuration/v2_depth_duration_MTurk/v2_DepthDuration_HTML.html#121,121,1280,657,1280,800,8-22-2022,5-9-38,155,depth_duration_stimuli/000929_2014-06-09_16-33-19_260595134347_rgbf000139-resize_0/000929_2014-06-09_16-33-19_260595134347_rgbf000139-resize_0-target.png,1000,2.8680000000000003,2,5223,1002,meters,jsons/v1_VE1000_randls_73.json,1377407,2236218,1987,Woman
155,561433,DepthScenes,duration_manipulation_targetAtFixation,jsons/v1_VE1000_randls_73.json,http://54.235.29.9/FacialAge/BNav_EC2/DepthDuration/v2_depth_duration_MTurk/v2_DepthDuration_HTML.html#121,121,1280,657,1280,800,8-22-2022,5-9-38,156,depth_duration_stimuli/000457_2014-06-08_16-52-43_260595134347_rgbf000199-resize_1/000457_2014-06-08_16-52-43_260595134347_rgbf000199-resize_1-target.png,1000,3.6489999999999996,2,3356,1003,meters,jsons/v1_VE1000_randls_73.json,1377407,2236218,1987,Woman
156,561433,DepthScenes,duration_manipulation_targetAtFixation,jsons/v1_VE1000_randls_73.json,http://54.235.29.9/FacialAge/BNav_EC2/DepthDuration/v2_depth_duration_MTurk/v2_DepthDuration_HTML.html#121,121,1280,657,1280,800,8-22-2022,5-9-38,157,depth_duration_stimuli/001133_2014-06-17_14-49-16_260595134347_rgbf000100-resize_0/001133_2014-06-17_14-49-16_260595134347_rgbf000100-resize_0-target.png,1000,4.2115,2,6054,1000,meters,jsons/v1_VE1000_randls_73.json,1377407,2236218,1987,Woman
157,561433,DepthScenes,duration_manipulation_targetAtFixation,jsons/v1_VE1000_randls_73.json,http://54.235.29.9/FacialAge/BNav_EC2/DepthDuration/v2_depth_duration_MTurk/v2_DepthDuration_HTML.html#121,121,1280,657,1280,800,8-22-2022,5-9-38,158,depth_duration_stimuli/001132_2014-06-17_14-48-54_260595134347_rgbf000100-resize_2/001132_2014-06-17_14-48-54_260595134347_rgbf000100-resize_2-target.png,1000,3.753,2,9192,1015,meters,jsons/v1_VE1000_randls_73.json,1377407,2236218,1987,Woman
158,561433,DepthScenes,duration_manipulation_targetAtFixation,jsons/v1_VE1000_randls_73.json,http://54.235.29.9/FacialAge/BNav_EC2/DepthDuration/v2_depth_duration_MTurk/v2_DepthDuration_HTML.html#121,121,1280,657,1280,800,8-22-2022,5-9-38,159,depth_duration_stimuli/003492_2014-05-21_15-50-55_094959634447_rgbf000828-resize_1/003492_2014-05-21_15-50-55_094959634447_rgbf000828-resize_1-target.png,1000,4.06875,2,12362,978,meters,jsons/v1_VE1000_randls_73.json,1377407,2236218,1987,Woman
159,561433,DepthScenes,duration_manipulation_targetAtFixation,jsons/v1_VE1000_randls_73.json,http://54.235.29.9/FacialAge/BNav_EC2/DepthDuration/v2_depth_duration_MTurk/v2_DepthDuration_HTML.html#121,121,1280,657,1280,800,8-22-2022,5-9-38,160,depth_duration_stimuli/002568_2014-06-24_13-59-21_094959634447_rgbf000062-resize_4/002568_2014-06-24_13-59-21_094959634447_rgbf000062-resize_4-target.png,1000,3.015,2,3888,1081,meters,jsons/v1_VE1000_randls_73.json,1377407,2236218,1987,Woman
160,561433,DepthScenes,duration_manipulation_targetAtFixation,jsons/v1_VE1000_randls_73.json,http://54.235.29.9/FacialAge/BNav_EC2/DepthDuration/v2_depth_duration_MTurk/v2_DepthDuration_HTML.html#121,121,1280,657,1280,800,8-22-2022,5-9-38,161,depth_duration_stimuli/002630_2014-06-24_14-47-50_094959634447_rgbf000055-resize_1/002630_2014-06-24_14-47-50_094959634447_rgbf000055-resize_1-target.png,1000,3.0095,2,6638,1003,meters,jsons/v1_VE1000_randls_73.json,1377407,2236218,1987,Woman
161,561433,DepthScenes,duration_manipulation_targetAtFixation,jsons/v1_VE1000_randls_73.json,http://54.235.29.9/FacialAge/BNav_EC2/DepthDuration/v2_depth_duration_MTurk/v2_DepthDuration_HTML.html#121,121,1280,657,1280,800,8-22-2022,5-9-38,162,depth_duration_stimuli/002758_2014-06-22_19-11-20_094959634447_rgbf000128-resize_1/002758_2014-06-22_19-11-20_094959634447_rgbf000128-resize_1-target.png,1000,2.555,2,6522,988,meters,jsons/v1_VE1000_randls_73.json,1377407,2236218,1987,Woman
162,561433,DepthScenes,duration_manipulation_targetAtFixation,jsons/v1_VE1000_randls_73.json,http://54.235.29.9/FacialAge/BNav_EC2/DepthDuration/v2_depth_duration_MTurk/v2_DepthDuration_HTML.html#121,121,1280,657,1280,800,8-22-2022,5-9-38,163,depth_duration_stimuli/002788_2014-06-22_19-36-03_094959634447_rgbf000088-resize_2/002788_2014-06-22_19-36-03_094959634447_rgbf000088-resize_2-target.png,1000,1.6465,2,7736,992,meters,jsons/v1_VE1000_randls_73.json,1377407,2236218,1987,Woman
163,561433,DepthScenes,duration_manipulation_targetAtFixation,jsons/v1_VE1000_randls_73.json,http://54.235.29.9/FacialAge/BNav_EC2/DepthDuration/v2_depth_duration_MTurk/v2_DepthDuration_HTML.html#121,121,1280,657,1280,800,8-22-2022,5-9-38,164,depth_duration_stimuli/000749_2014-06-08_21-55-06_260595134347_rgbf000070-resize_2/000749_2014-06-08_21-55-06_260595134347_rgbf000070-resize_2-target.png,1000,2.331,2,4669,1056,meters,jsons/v1_VE1000_randls_73.json,1377407,2236218,1987,Woman
