,subjID,experimentName,versionName,sequenceName,url,selected_row,windowWidth,windowHeight,screenWidth,screenHeight,startDate,startTime,trial,stimulus,duration,actual_depth,depth_estimate,trial_RT,log_sceneDuration,unitSelection,seq_filepath,experimentTime,totalTime,age,gender
0,561501,DepthScenes,duration_manipulation_targetAtFixation,jsons/v1_VE1000_randls_20_rotated.json,http://54.235.29.9/FacialAge/BNav_EC2/DepthDuration/v2_depth_duration_MTurk/v2_DepthDuration_HTML.html#309,309,980,933,360,640,8-29-2022,14-58-46,1,depth_duration_stimuli/001584_2014-06-20_11-07-43_260595134347_rgbf000002-resize_1/001584_2014-06-20_11-07-43_260595134347_rgbf000002-resize_1-target.png,1000,3.53,4.0,5022,988,feet,jsons/v1_VE1000_randls_20_rotated.json,1276862,1618268,27,Man
1,561501,DepthScenes,duration_manipulation_targetAtFixation,jsons/v1_VE1000_randls_20_rotated.json,http://54.235.29.9/FacialAge/BNav_EC2/DepthDuration/v2_depth_duration_MTurk/v2_DepthDuration_HTML.html#309,309,980,933,360,640,8-29-2022,14-58-46,2,depth_duration_stimuli/003621_2014-05-23_18-06-08_094959634447_rgbf000101-resize_1/003621_2014-05-23_18-06-08_094959634447_rgbf000101-resize_1-target.png,1000,3.9835,0.5,5288,996,feet,jsons/v1_VE1000_randls_20_rotated.json,1276862,1618268,27,Man
2,561501,DepthScenes,duration_manipulation_targetAtFixation,jsons/v1_VE1000_randls_20_rotated.json,http://54.235.29.9/FacialAge/BNav_EC2/DepthDuration/v2_depth_duration_MTurk/v2_DepthDuration_HTML.html#309,309,980,933,360,640,8-29-2022,14-58-46,3,depth_duration_stimuli/001052_2014-06-08_18-24-54_260595134347_rgbf000130-resize_1/001052_2014-06-08_18-24-54_260595134347_rgbf000130-resize_1-target.png,1000,4.1045,3.0,5957,998,feet,jsons/v1_VE1000_randls_20_rotated.json,1276862,1618268,27,Man
3,561501,DepthScenes,duration_manipulation_targetAtFixation,jsons/v1_VE1000_randls_20_rotated.json,http://54.235.29.9/FacialAge/BNav_EC2/DepthDuration/v2_depth_duration_MTurk/v2_DepthDuration_HTML.html#309,309,980,933,360,640,8-29-2022,14-58-46,4,depth_duration_stimuli/002988_2014-06-15_12-24-20_094959634447_rgbf000150-resize_1/002988_2014-06-15_12-24-20_094959634447_rgbf000150-resize_1-target.png,1000,4.7669999999999995,5.0,5972,997,feet,jsons/v1_VE1000_randls_20_rotated.json,1276862,1618268,27,Man
4,561501,DepthScenes,duration_manipulation_targetAtFixation,jsons/v1_VE1000_randls_20_rotated.json,http://54.235.29.9/FacialAge/BNav_EC2/DepthDuration/v2_depth_duration_MTurk/v2_DepthDuration_HTML.html#309,309,980,933,360,640,8-29-2022,14-58-46,5,depth_duration_stimuli/002323_2014-06-28_20-01-54_260595134347_rgbf000051-resize_4/002323_2014-06-28_20-01-54_260595134347_rgbf000051-resize_4-target.png,1000,3.7310000000000003,4.0,4920,997,feet,jsons/v1_VE1000_randls_20_rotated.json,1276862,1618268,27,Man
5,561501,DepthScenes,duration_manipulation_targetAtFixation,jsons/v1_VE1000_randls_20_rotated.json,http://54.235.29.9/FacialAge/BNav_EC2/DepthDuration/v2_depth_duration_MTurk/v2_DepthDuration_HTML.html#309,309,980,933,360,640,8-29-2022,14-58-46,6,depth_duration_stimuli/000917_2014-06-09_22-45-29_260595134347_rgbf000149-resize_3/000917_2014-06-09_22-45-29_260595134347_rgbf000149-resize_3-target.png,1000,4.1865,6.0,5387,992,feet,jsons/v1_VE1000_randls_20_rotated.json,1276862,1618268,27,Man
6,561501,DepthScenes,duration_manipulation_targetAtFixation,jsons/v1_VE1000_randls_20_rotated.json,http://54.235.29.9/FacialAge/BNav_EC2/DepthDuration/v2_depth_duration_MTurk/v2_DepthDuration_HTML.html#309,309,980,933,360,640,8-29-2022,14-58-46,7,depth_duration_stimuli/002425_2014-06-28_20-27-29_260595134347_rgbf000031-resize_8/002425_2014-06-28_20-27-29_260595134347_rgbf000031-resize_8-target.png,1000,3.8960000000000004,4.0,4281,993,feet,jsons/v1_VE1000_randls_20_rotated.json,1276862,1618268,27,Man
7,561501,DepthScenes,duration_manipulation_targetAtFixation,jsons/v1_VE1000_randls_20_rotated.json,http://54.235.29.9/FacialAge/BNav_EC2/DepthDuration/v2_depth_duration_MTurk/v2_DepthDuration_HTML.html#309,309,980,933,360,640,8-29-2022,14-58-46,8,depth_duration_stimuli/000642_2014-06-08_16-59-25_260595134347_rgbf000098-resize_2/000642_2014-06-08_16-59-25_260595134347_rgbf000098-resize_2-target.png,1000,2.8815,5.0,5104,993,feet,jsons/v1_VE1000_randls_20_rotated.json,1276862,1618268,27,Man
8,561501,DepthScenes,duration_manipulation_targetAtFixation,jsons/v1_VE1000_randls_20_rotated.json,http://54.235.29.9/FacialAge/BNav_EC2/DepthDuration/v2_depth_duration_MTurk/v2_DepthDuration_HTML.html#309,309,980,933,360,640,8-29-2022,14-58-46,9,depth_duration_stimuli/003081_2014-06-15_15-19-16_094959634447_rgbf000150-resize_1/003081_2014-06-15_15-19-16_094959634447_rgbf000150-resize_1-target.png,1000,3.9125,5.0,7786,994,feet,jsons/v1_VE1000_randls_20_rotated.json,1276862,1618268,27,Man
9,561501,DepthScenes,duration_manipulation_targetAtFixation,jsons/v1_VE1000_randls_20_rotated.json,http://54.235.29.9/FacialAge/BNav_EC2/DepthDuration/v2_depth_duration_MTurk/v2_DepthDuration_HTML.html#309,309,980,933,360,640,8-29-2022,14-58-46,10,depth_duration_stimuli/001417_2014-06-19_16-25-36_260595134347_rgbf000115-resize_5/001417_2014-06-19_16-25-36_260595134347_rgbf000115-resize_5-target.png,1000,4.6255,6.0,4650,995,feet,jsons/v1_VE1000_randls_20_rotated.json,1276862,1618268,27,Man
10,561501,DepthScenes,duration_manipulation_targetAtFixation,jsons/v1_VE1000_randls_20_rotated.json,http://54.235.29.9/FacialAge/BNav_EC2/DepthDuration/v2_depth_duration_MTurk/v2_DepthDuration_HTML.html#309,309,980,933,360,640,8-29-2022,14-58-46,11,depth_duration_stimuli/001235_2014-06-17_16-37-36_260595134347_rgbf000084-resize_4/001235_2014-06-17_16-37-36_260595134347_rgbf000084-resize_4-target.png,1000,3.6605,4.5,6062,997,feet,jsons/v1_VE1000_randls_20_rotated.json,1276862,1618268,27,Man
11,561501,DepthScenes,duration_manipulation_targetAtFixation,jsons/v1_VE1000_randls_20_rotated.json,http://54.235.29.9/FacialAge/BNav_EC2/DepthDuration/v2_depth_duration_MTurk/v2_DepthDuration_HTML.html#309,309,980,933,360,640,8-29-2022,14-58-46,12,depth_duration_stimuli/000788_2014-06-08_22-34-36_260595134347_rgbf000131-resize_1/000788_2014-06-08_22-34-36_260595134347_rgbf000131-resize_1-target.png,1000,3.359,3.5,5324,998,feet,jsons/v1_VE1000_randls_20_rotated.json,1276862,1618268,27,Man
12,561501,DepthScenes,duration_manipulation_targetAtFixation,jsons/v1_VE1000_randls_20_rotated.json,http://54.235.29.9/FacialAge/BNav_EC2/DepthDuration/v2_depth_duration_MTurk/v2_DepthDuration_HTML.html#309,309,980,933,360,640,8-29-2022,14-58-46,13,depth_duration_stimuli/001392_2014-06-19_16-07-59_260595134347_rgbf000046-resize_1/001392_2014-06-19_16-07-59_260595134347_rgbf000046-resize_1-target.png,1000,4.135,4.5,6585,989,feet,jsons/v1_VE1000_randls_20_rotated.json,1276862,1618268,27,Man
13,561501,DepthScenes,duration_manipulation_targetAtFixation,jsons/v1_VE1000_randls_20_rotated.json,http://54.235.29.9/FacialAge/BNav_EC2/DepthDuration/v2_depth_duration_MTurk/v2_DepthDuration_HTML.html#309,309,980,933,360,640,8-29-2022,14-58-46,14,depth_duration_stimuli/001570_2014-06-20_17-21-09_260595134347_rgbf000135-resize_4/001570_2014-06-20_17-21-09_260595134347_rgbf000135-resize_4-target.png,1000,4.467,5.0,5982,992,feet,jsons/v1_VE1000_randls_20_rotated.json,1276862,1618268,27,Man
14,561501,DepthScenes,duration_manipulation_targetAtFixation,jsons/v1_VE1000_randls_20_rotated.json,http://54.235.29.9/FacialAge/BNav_EC2/DepthDuration/v2_depth_duration_MTurk/v2_DepthDuration_HTML.html#309,309,980,933,360,640,8-29-2022,14-58-46,15,depth_duration_stimuli/002467_2014-06-28_20-38-07_260595134347_rgbf000026-resize_2/002467_2014-06-28_20-38-07_260595134347_rgbf000026-resize_2-target.png,1000,4.742,5.0,6909,993,feet,jsons/v1_VE1000_randls_20_rotated.json,1276862,1618268,27,Man
15,561501,DepthScenes,duration_manipulation_targetAtFixation,jsons/v1_VE1000_randls_20_rotated.json,http://54.235.29.9/FacialAge/BNav_EC2/DepthDuration/v2_depth_duration_MTurk/v2_DepthDuration_HTML.html#309,309,980,933,360,640,8-29-2022,14-58-46,16,depth_duration_stimuli/002570_2014-06-24_13-59-54_094959634447_rgbf000059-resize_0/002570_2014-06-24_13-59-54_094959634447_rgbf000059-resize_0-target.png,1000,4.037,4.0,5060,993,feet,jsons/v1_VE1000_randls_20_rotated.json,1276862,1618268,27,Man
16,561501,DepthScenes,duration_manipulation_targetAtFixation,jsons/v1_VE1000_randls_20_rotated.json,http://54.235.29.9/FacialAge/BNav_EC2/DepthDuration/v2_depth_duration_MTurk/v2_DepthDuration_HTML.html#309,309,980,626,360,640,8-29-2022,14-58-46,17,depth_duration_stimuli/002344_2014-06-28_20-06-29_260595134347_rgbf000030-resize_1/002344_2014-06-28_20-06-29_260595134347_rgbf000030-resize_1-target.png,1000,1.5795,3.5,31640,995,feet,jsons/v1_VE1000_randls_20_rotated.json,1276862,1618268,27,Man
17,561501,DepthScenes,duration_manipulation_targetAtFixation,jsons/v1_VE1000_randls_20_rotated.json,http://54.235.29.9/FacialAge/BNav_EC2/DepthDuration/v2_depth_duration_MTurk/v2_DepthDuration_HTML.html#309,309,980,868,360,640,8-29-2022,14-58-46,18,depth_duration_stimuli/002725_2014-06-22_11-47-51_094959634447_rgbf000070-resize_1/002725_2014-06-22_11-47-51_094959634447_rgbf000070-resize_1-target.png,1000,2.195,8.0,19835,993,feet,jsons/v1_VE1000_randls_20_rotated.json,1276862,1618268,27,Man
18,561501,DepthScenes,duration_manipulation_targetAtFixation,jsons/v1_VE1000_randls_20_rotated.json,http://54.235.29.9/FacialAge/BNav_EC2/DepthDuration/v2_depth_duration_MTurk/v2_DepthDuration_HTML.html#309,309,980,197,640,360,8-29-2022,14-58-46,19,depth_duration_stimuli/001498_2014-06-19_17-45-14_260595134347_rgbf000129-resize_4/001498_2014-06-19_17-45-14_260595134347_rgbf000129-resize-original.jpg,1000,1.4075,6.5,13393,995,feet,jsons/v1_VE1000_randls_20_rotated.json,1276862,1618268,27,Man
19,561501,DepthScenes,duration_manipulation_targetAtFixation,jsons/v1_VE1000_randls_20_rotated.json,http://54.235.29.9/FacialAge/BNav_EC2/DepthDuration/v2_depth_duration_MTurk/v2_DepthDuration_HTML.html#309,309,980,197,640,360,8-29-2022,14-58-46,20,depth_duration_stimuli/000556_2014-06-09_22-42-56_260595134347_rgbf000214-resize_1/000556_2014-06-09_22-42-56_260595134347_rgbf000214-resize_1-target.png,1000,4.8415,10.5,7094,965,feet,jsons/v1_VE1000_randls_20_rotated.json,1276862,1618268,27,Man
20,561501,DepthScenes,duration_manipulation_targetAtFixation,jsons/v1_VE1000_randls_20_rotated.json,http://54.235.29.9/FacialAge/BNav_EC2/DepthDuration/v2_depth_duration_MTurk/v2_DepthDuration_HTML.html#309,309,980,197,640,360,8-29-2022,14-58-46,21,depth_duration_stimuli/001158_2014-06-17_15-32-16_260595134347_rgbf000138-resize_2/001158_2014-06-17_15-32-16_260595134347_rgbf000138-resize_2-target.png,1000,4.5315,12.5,6869,997,feet,jsons/v1_VE1000_randls_20_rotated.json,1276862,1618268,27,Man
21,561501,DepthScenes,duration_manipulation_targetAtFixation,jsons/v1_VE1000_randls_20_rotated.json,http://54.235.29.9/FacialAge/BNav_EC2/DepthDuration/v2_depth_duration_MTurk/v2_DepthDuration_HTML.html#309,309,980,197,640,360,8-29-2022,14-58-46,22,depth_duration_stimuli/003490_2014-05-21_15-50-11_094959634447_rgbf000101-resize_3/003490_2014-05-21_15-50-11_094959634447_rgbf000101-resize_3-target.png,1000,3.6445,11.0,4993,982,feet,jsons/v1_VE1000_randls_20_rotated.json,1276862,1618268,27,Man
22,561501,DepthScenes,duration_manipulation_targetAtFixation,jsons/v1_VE1000_randls_20_rotated.json,http://54.235.29.9/FacialAge/BNav_EC2/DepthDuration/v2_depth_duration_MTurk/v2_DepthDuration_HTML.html#309,309,980,197,640,360,8-29-2022,14-58-46,23,depth_duration_stimuli/001175_2014-06-17_15-45-55_260595134347_rgbf000129-resize_4/001175_2014-06-17_15-45-55_260595134347_rgbf000129-resize_4-target.png,1000,4.255,9.0,8392,994,feet,jsons/v1_VE1000_randls_20_rotated.json,1276862,1618268,27,Man
23,561501,DepthScenes,duration_manipulation_targetAtFixation,jsons/v1_VE1000_randls_20_rotated.json,http://54.235.29.9/FacialAge/BNav_EC2/DepthDuration/v2_depth_duration_MTurk/v2_DepthDuration_HTML.html#309,309,980,197,640,360,8-29-2022,14-58-46,24,depth_duration_stimuli/002678_2014-06-13_16-15-32_094959634447_rgbf000151-resize_6/002678_2014-06-13_16-15-32_094959634447_rgbf000151-resize_6-target.png,1000,2.1830000000000003,11.0,6591,989,feet,jsons/v1_VE1000_randls_20_rotated.json,1276862,1618268,27,Man
24,561501,DepthScenes,duration_manipulation_targetAtFixation,jsons/v1_VE1000_randls_20_rotated.json,http://54.235.29.9/FacialAge/BNav_EC2/DepthDuration/v2_depth_duration_MTurk/v2_DepthDuration_HTML.html#309,309,980,197,640,360,8-29-2022,14-58-46,25,depth_duration_stimuli/000368_2014-06-09_15-53-01_260595134347_rgbf000155-resize_2/000368_2014-06-09_15-53-01_260595134347_rgbf000155-resize_2-target.png,1000,2.4859999999999998,4.5,6846,986,feet,jsons/v1_VE1000_randls_20_rotated.json,1276862,1618268,27,Man
25,561501,DepthScenes,duration_manipulation_targetAtFixation,jsons/v1_VE1000_randls_20_rotated.json,http://54.235.29.9/FacialAge/BNav_EC2/DepthDuration/v2_depth_duration_MTurk/v2_DepthDuration_HTML.html#309,309,980,197,640,360,8-29-2022,14-58-46,26,depth_duration_stimuli/001828_2014-06-26_21-40-03_260595134347_rgbf000024-resize_0/001828_2014-06-26_21-40-03_260595134347_rgbf000024-resize_0-target.png,1000,4.8260000000000005,8.5,6850,992,feet,jsons/v1_VE1000_randls_20_rotated.json,1276862,1618268,27,Man
26,561501,DepthScenes,duration_manipulation_targetAtFixation,jsons/v1_VE1000_randls_20_rotated.json,http://54.235.29.9/FacialAge/BNav_EC2/DepthDuration/v2_depth_duration_MTurk/v2_DepthDuration_HTML.html#309,309,980,197,640,360,8-29-2022,14-58-46,27,depth_duration_stimuli/000009_2014-05-26_14-32-05_260595134347_rgbf000034-resize_3/000009_2014-05-26_14-32-05_260595134347_rgbf000034-resize_3-target.png,1000,3.8715,10.0,6382,991,feet,jsons/v1_VE1000_randls_20_rotated.json,1276862,1618268,27,Man
27,561501,DepthScenes,duration_manipulation_targetAtFixation,jsons/v1_VE1000_randls_20_rotated.json,http://54.235.29.9/FacialAge/BNav_EC2/DepthDuration/v2_depth_duration_MTurk/v2_DepthDuration_HTML.html#309,309,980,197,640,360,8-29-2022,14-58-46,28,depth_duration_stimuli/001447_2014-06-19_17-00-32_260595134347_rgbf000082-resize_5/001447_2014-06-19_17-00-32_260595134347_rgbf000082-resize_5-target.png,1000,4.13775,7.5,5876,998,feet,jsons/v1_VE1000_randls_20_rotated.json,1276862,1618268,27,Man
28,561501,DepthScenes,duration_manipulation_targetAtFixation,jsons/v1_VE1000_randls_20_rotated.json,http://54.235.29.9/FacialAge/BNav_EC2/DepthDuration/v2_depth_duration_MTurk/v2_DepthDuration_HTML.html#309,309,980,197,640,360,8-29-2022,14-58-46,29,depth_duration_stimuli/000447_2014-06-08_16-15-46_260595134347_rgbf000130-resize_1/000447_2014-06-08_16-15-46_260595134347_rgbf000130-resize_1-target.png,1000,4.479,14.0,6483,996,feet,jsons/v1_VE1000_randls_20_rotated.json,1276862,1618268,27,Man
29,561501,DepthScenes,duration_manipulation_targetAtFixation,jsons/v1_VE1000_randls_20_rotated.json,http://54.235.29.9/FacialAge/BNav_EC2/DepthDuration/v2_depth_duration_MTurk/v2_DepthDuration_HTML.html#309,309,980,197,640,360,8-29-2022,14-58-46,30,depth_duration_stimuli/002072_2014-06-24_21-48-06_260595134347_rgbf000115-resize_0/002072_2014-06-24_21-48-06_260595134347_rgbf000115-resize-original.jpg,1000,4.702,0.0,5166,980,feet,jsons/v1_VE1000_randls_20_rotated.json,1276862,1618268,27,Man
30,561501,DepthScenes,duration_manipulation_targetAtFixation,jsons/v1_VE1000_randls_20_rotated.json,http://54.235.29.9/FacialAge/BNav_EC2/DepthDuration/v2_depth_duration_MTurk/v2_DepthDuration_HTML.html#309,309,980,197,640,360,8-29-2022,14-58-46,31,depth_duration_stimuli/001571_2014-06-20_17-21-32_260595134347_rgbf000089-resize_1/001571_2014-06-20_17-21-32_260595134347_rgbf000089-resize_1-target.png,1000,1.86,4.0,5686,996,feet,jsons/v1_VE1000_randls_20_rotated.json,1276862,1618268,27,Man
31,561501,DepthScenes,duration_manipulation_targetAtFixation,jsons/v1_VE1000_randls_20_rotated.json,http://54.235.29.9/FacialAge/BNav_EC2/DepthDuration/v2_depth_duration_MTurk/v2_DepthDuration_HTML.html#309,309,980,197,640,360,8-29-2022,14-58-46,32,depth_duration_stimuli/002272_2014-06-28_18-53-56_260595134347_rgbf000067-resize_2/002272_2014-06-28_18-53-56_260595134347_rgbf000067-resize_2-target.png,1000,1.138,4.0,5380,987,feet,jsons/v1_VE1000_randls_20_rotated.json,1276862,1618268,27,Man
32,561501,DepthScenes,duration_manipulation_targetAtFixation,jsons/v1_VE1000_randls_20_rotated.json,http://54.235.29.9/FacialAge/BNav_EC2/DepthDuration/v2_depth_duration_MTurk/v2_DepthDuration_HTML.html#309,309,980,197,640,360,8-29-2022,14-58-46,33,depth_duration_stimuli/003338_2014-05-20_11-01-23_094959634447_rgbf000051-resize_6/003338_2014-05-20_11-01-23_094959634447_rgbf000051-resize_6-target.png,1000,1.693,3.5,7668,998,feet,jsons/v1_VE1000_randls_20_rotated.json,1276862,1618268,27,Man
33,561501,DepthScenes,duration_manipulation_targetAtFixation,jsons/v1_VE1000_randls_20_rotated.json,http://54.235.29.9/FacialAge/BNav_EC2/DepthDuration/v2_depth_duration_MTurk/v2_DepthDuration_HTML.html#309,309,980,197,640,360,8-29-2022,14-58-46,34,depth_duration_stimuli/002509_2014-06-24_13-19-22_094959634447_rgbf000077-resize_0/002509_2014-06-24_13-19-22_094959634447_rgbf000077-resize_0-target.png,1000,1.3065,3.0,4555,992,feet,jsons/v1_VE1000_randls_20_rotated.json,1276862,1618268,27,Man
34,561501,DepthScenes,duration_manipulation_targetAtFixation,jsons/v1_VE1000_randls_20_rotated.json,http://54.235.29.9/FacialAge/BNav_EC2/DepthDuration/v2_depth_duration_MTurk/v2_DepthDuration_HTML.html#309,309,980,197,640,360,8-29-2022,14-58-46,35,depth_duration_stimuli/000780_2014-06-08_22-28-29_260595134347_rgbf000126-resize_1/000780_2014-06-08_22-28-29_260595134347_rgbf000126-resize_1-target.png,1000,3.3825,11.0,5161,991,feet,jsons/v1_VE1000_randls_20_rotated.json,1276862,1618268,27,Man
35,561501,DepthScenes,duration_manipulation_targetAtFixation,jsons/v1_VE1000_randls_20_rotated.json,http://54.235.29.9/FacialAge/BNav_EC2/DepthDuration/v2_depth_duration_MTurk/v2_DepthDuration_HTML.html#309,309,980,197,640,360,8-29-2022,14-58-46,36,depth_duration_stimuli/002445_2014-06-28_20-32-16_260595134347_rgbf000029-resize_4/002445_2014-06-28_20-32-16_260595134347_rgbf000029-resize_4-target.png,1000,2.5315,4.5,9098,993,feet,jsons/v1_VE1000_randls_20_rotated.json,1276862,1618268,27,Man
36,561501,DepthScenes,duration_manipulation_targetAtFixation,jsons/v1_VE1000_randls_20_rotated.json,http://54.235.29.9/FacialAge/BNav_EC2/DepthDuration/v2_depth_duration_MTurk/v2_DepthDuration_HTML.html#309,309,980,197,640,360,8-29-2022,14-58-46,37,depth_duration_stimuli/002340_2014-06-28_20-05-46_260595134347_rgbf000113-resize_0/002340_2014-06-28_20-05-46_260595134347_rgbf000113-resize_0-target.png,1000,2.4735,9.0,5815,991,feet,jsons/v1_VE1000_randls_20_rotated.json,1276862,1618268,27,Man
37,561501,DepthScenes,duration_manipulation_targetAtFixation,jsons/v1_VE1000_randls_20_rotated.json,http://54.235.29.9/FacialAge/BNav_EC2/DepthDuration/v2_depth_duration_MTurk/v2_DepthDuration_HTML.html#309,309,980,197,640,360,8-29-2022,14-58-46,38,depth_duration_stimuli/001016_2014-06-09_16-16-10_260595134347_rgbf000112-resize_5/001016_2014-06-09_16-16-10_260595134347_rgbf000112-resize_5-target.png,1000,1.6565,4.0,6763,989,feet,jsons/v1_VE1000_randls_20_rotated.json,1276862,1618268,27,Man
38,561501,DepthScenes,duration_manipulation_targetAtFixation,jsons/v1_VE1000_randls_20_rotated.json,http://54.235.29.9/FacialAge/BNav_EC2/DepthDuration/v2_depth_duration_MTurk/v2_DepthDuration_HTML.html#309,309,980,197,640,360,8-29-2022,14-58-46,39,depth_duration_stimuli/000854_2014-06-09_19-43-13_260595134347_rgbf000066-resize_0/000854_2014-06-09_19-43-13_260595134347_rgbf000066-resize_0-target.png,1000,3.068,3.5,5843,993,feet,jsons/v1_VE1000_randls_20_rotated.json,1276862,1618268,27,Man
39,561501,DepthScenes,duration_manipulation_targetAtFixation,jsons/v1_VE1000_randls_20_rotated.json,http://54.235.29.9/FacialAge/BNav_EC2/DepthDuration/v2_depth_duration_MTurk/v2_DepthDuration_HTML.html#309,309,980,197,640,360,8-29-2022,14-58-46,40,depth_duration_stimuli/000758_2014-06-08_22-05-08_260595134347_rgbf000085-resize_0/000758_2014-06-08_22-05-08_260595134347_rgbf000085-resize_0-target.png,1000,3.3810000000000002,10.0,6329,992,feet,jsons/v1_VE1000_randls_20_rotated.json,1276862,1618268,27,Man
40,561501,DepthScenes,duration_manipulation_targetAtFixation,jsons/v1_VE1000_randls_20_rotated.json,http://54.235.29.9/FacialAge/BNav_EC2/DepthDuration/v2_depth_duration_MTurk/v2_DepthDuration_HTML.html#309,309,980,197,640,360,8-29-2022,14-58-46,41,depth_duration_stimuli/001132_2014-06-17_14-48-54_260595134347_rgbf000100-resize_2/001132_2014-06-17_14-48-54_260595134347_rgbf000100-resize_2-target.png,1000,3.753,5.0,8629,993,feet,jsons/v1_VE1000_randls_20_rotated.json,1276862,1618268,27,Man
41,561501,DepthScenes,duration_manipulation_targetAtFixation,jsons/v1_VE1000_randls_20_rotated.json,http://54.235.29.9/FacialAge/BNav_EC2/DepthDuration/v2_depth_duration_MTurk/v2_DepthDuration_HTML.html#309,309,980,197,640,360,8-29-2022,14-58-46,42,depth_duration_stimuli/001133_2014-06-17_14-49-16_260595134347_rgbf000100-resize_0/001133_2014-06-17_14-49-16_260595134347_rgbf000100-resize_0-target.png,1000,4.2115,9.0,5034,991,feet,jsons/v1_VE1000_randls_20_rotated.json,1276862,1618268,27,Man
42,561501,DepthScenes,duration_manipulation_targetAtFixation,jsons/v1_VE1000_randls_20_rotated.json,http://54.235.29.9/FacialAge/BNav_EC2/DepthDuration/v2_depth_duration_MTurk/v2_DepthDuration_HTML.html#309,309,980,197,640,360,8-29-2022,14-58-46,43,depth_duration_stimuli/003423_2014-05-21_10-23-26_094959634447_rgbf002665-resize_2/003423_2014-05-21_10-23-26_094959634447_rgbf002665-resize_2-target.png,1000,3.2575,9.5,5477,992,feet,jsons/v1_VE1000_randls_20_rotated.json,1276862,1618268,27,Man
43,561501,DepthScenes,duration_manipulation_targetAtFixation,jsons/v1_VE1000_randls_20_rotated.json,http://54.235.29.9/FacialAge/BNav_EC2/DepthDuration/v2_depth_duration_MTurk/v2_DepthDuration_HTML.html#309,309,980,197,640,360,8-29-2022,14-58-46,44,depth_duration_stimuli/002905_2014-06-03_18-04-43_094959634447_rgbf000151-resize_2/002905_2014-06-03_18-04-43_094959634447_rgbf000151-resize_2-target.png,1000,2.0295,3.5,5602,994,feet,jsons/v1_VE1000_randls_20_rotated.json,1276862,1618268,27,Man
44,561501,DepthScenes,duration_manipulation_targetAtFixation,jsons/v1_VE1000_randls_20_rotated.json,http://54.235.29.9/FacialAge/BNav_EC2/DepthDuration/v2_depth_duration_MTurk/v2_DepthDuration_HTML.html#309,309,980,197,640,360,8-29-2022,14-58-46,45,depth_duration_stimuli/003495_2014-05-21_16-01-51_094959634447_rgbf000100-resize_3/003495_2014-05-21_16-01-51_094959634447_rgbf000100-resize_3-target.png,1000,1.6255,3.0,5162,993,feet,jsons/v1_VE1000_randls_20_rotated.json,1276862,1618268,27,Man
45,561501,DepthScenes,duration_manipulation_targetAtFixation,jsons/v1_VE1000_randls_20_rotated.json,http://54.235.29.9/FacialAge/BNav_EC2/DepthDuration/v2_depth_duration_MTurk/v2_DepthDuration_HTML.html#309,309,980,197,640,360,8-29-2022,14-58-46,46,depth_duration_stimuli/001244_2014-06-17_16-47-45_260595134347_rgbf000030-resize_4/001244_2014-06-17_16-47-45_260595134347_rgbf000030-resize_4-target.png,1000,2.0425,3.5,5526,994,feet,jsons/v1_VE1000_randls_20_rotated.json,1276862,1618268,27,Man
46,561501,DepthScenes,duration_manipulation_targetAtFixation,jsons/v1_VE1000_randls_20_rotated.json,http://54.235.29.9/FacialAge/BNav_EC2/DepthDuration/v2_depth_duration_MTurk/v2_DepthDuration_HTML.html#309,309,980,197,640,360,8-29-2022,14-58-46,47,depth_duration_stimuli/002444_2014-06-28_20-32-08_260595134347_rgbf000027-resize_0/002444_2014-06-28_20-32-08_260595134347_rgbf000027-resize_0-target.png,1000,4.388999999999999,7.5,6882,992,feet,jsons/v1_VE1000_randls_20_rotated.json,1276862,1618268,27,Man
47,561501,DepthScenes,duration_manipulation_targetAtFixation,jsons/v1_VE1000_randls_20_rotated.json,http://54.235.29.9/FacialAge/BNav_EC2/DepthDuration/v2_depth_duration_MTurk/v2_DepthDuration_HTML.html#309,309,980,197,640,360,8-29-2022,14-58-46,48,depth_duration_stimuli/000436_2014-06-09_22-25-11_260595134347_rgbf000137-resize_1/000436_2014-06-09_22-25-11_260595134347_rgbf000137-resize_1-target.png,1000,4.0705,14.0,6273,996,feet,jsons/v1_VE1000_randls_20_rotated.json,1276862,1618268,27,Man
48,561501,DepthScenes,duration_manipulation_targetAtFixation,jsons/v1_VE1000_randls_20_rotated.json,http://54.235.29.9/FacialAge/BNav_EC2/DepthDuration/v2_depth_duration_MTurk/v2_DepthDuration_HTML.html#309,309,980,197,640,360,8-29-2022,14-58-46,49,depth_duration_stimuli/001170_2014-06-17_15-43-44_260595134347_rgbf000096-resize_6/001170_2014-06-17_15-43-44_260595134347_rgbf000096-resize-original.jpg,1000,1.1909999999999998,0.0,5082,997,feet,jsons/v1_VE1000_randls_20_rotated.json,1276862,1618268,27,Man
49,561501,DepthScenes,duration_manipulation_targetAtFixation,jsons/v1_VE1000_randls_20_rotated.json,http://54.235.29.9/FacialAge/BNav_EC2/DepthDuration/v2_depth_duration_MTurk/v2_DepthDuration_HTML.html#309,309,980,197,640,360,8-29-2022,14-58-46,50,depth_duration_stimuli/000457_2014-06-08_16-52-43_260595134347_rgbf000199-resize_1/000457_2014-06-08_16-52-43_260595134347_rgbf000199-resize_1-target.png,1000,3.6489999999999996,4.5,6872,987,feet,jsons/v1_VE1000_randls_20_rotated.json,1276862,1618268,27,Man
50,561501,DepthScenes,duration_manipulation_targetAtFixation,jsons/v1_VE1000_randls_20_rotated.json,http://54.235.29.9/FacialAge/BNav_EC2/DepthDuration/v2_depth_duration_MTurk/v2_DepthDuration_HTML.html#309,309,980,197,640,360,8-29-2022,14-58-46,51,depth_duration_stimuli/000929_2014-06-09_16-33-19_260595134347_rgbf000139-resize_0/000929_2014-06-09_16-33-19_260595134347_rgbf000139-resize_0-target.png,1000,2.8680000000000003,4.5,5960,988,feet,jsons/v1_VE1000_randls_20_rotated.json,1276862,1618268,27,Man
51,561501,DepthScenes,duration_manipulation_targetAtFixation,jsons/v1_VE1000_randls_20_rotated.json,http://54.235.29.9/FacialAge/BNav_EC2/DepthDuration/v2_depth_duration_MTurk/v2_DepthDuration_HTML.html#309,309,980,197,640,360,8-29-2022,14-58-46,52,depth_duration_stimuli/002639_2014-06-24_14-51-37_094959634447_rgbf000074-resize_4/002639_2014-06-24_14-51-37_094959634447_rgbf000074-resize_4-target.png,1000,4.0375,10.5,7548,983,feet,jsons/v1_VE1000_randls_20_rotated.json,1276862,1618268,27,Man
52,561501,DepthScenes,duration_manipulation_targetAtFixation,jsons/v1_VE1000_randls_20_rotated.json,http://54.235.29.9/FacialAge/BNav_EC2/DepthDuration/v2_depth_duration_MTurk/v2_DepthDuration_HTML.html#309,309,980,197,640,360,8-29-2022,14-58-46,53,depth_duration_stimuli/003292_2014-05-14_21-53-49_094959634447_rgbf000100-resize_2/003292_2014-05-14_21-53-49_094959634447_rgbf000100-resize_2-target.png,1000,3.4815,5.0,4525,985,feet,jsons/v1_VE1000_randls_20_rotated.json,1276862,1618268,27,Man
53,561501,DepthScenes,duration_manipulation_targetAtFixation,jsons/v1_VE1000_randls_20_rotated.json,http://54.235.29.9/FacialAge/BNav_EC2/DepthDuration/v2_depth_duration_MTurk/v2_DepthDuration_HTML.html#309,309,980,197,640,360,8-29-2022,14-58-46,54,depth_duration_stimuli/000409_2014-06-04_19-23-33_260595134347_rgbf000067-resize_0/000409_2014-06-04_19-23-33_260595134347_rgbf000067-resize_0-target.png,1000,3.7335,7.0,4816,989,feet,jsons/v1_VE1000_randls_20_rotated.json,1276862,1618268,27,Man
54,561501,DepthScenes,duration_manipulation_targetAtFixation,jsons/v1_VE1000_randls_20_rotated.json,http://54.235.29.9/FacialAge/BNav_EC2/DepthDuration/v2_depth_duration_MTurk/v2_DepthDuration_HTML.html#309,309,980,197,640,360,8-29-2022,14-58-46,55,depth_duration_stimuli/002663_2014-06-13_15-50-26_094959634447_rgbf000075-resize_1/002663_2014-06-13_15-50-26_094959634447_rgbf000075-resize_1-target.png,1000,4.7495,12.0,5453,993,feet,jsons/v1_VE1000_randls_20_rotated.json,1276862,1618268,27,Man
55,561501,DepthScenes,duration_manipulation_targetAtFixation,jsons/v1_VE1000_randls_20_rotated.json,http://54.235.29.9/FacialAge/BNav_EC2/DepthDuration/v2_depth_duration_MTurk/v2_DepthDuration_HTML.html#309,309,980,197,640,360,8-29-2022,14-58-46,56,depth_duration_stimuli/002568_2014-06-24_13-59-21_094959634447_rgbf000062-resize_4/002568_2014-06-24_13-59-21_094959634447_rgbf000062-resize_4-target.png,1000,3.015,4.5,8402,993,feet,jsons/v1_VE1000_randls_20_rotated.json,1276862,1618268,27,Man
56,561501,DepthScenes,duration_manipulation_targetAtFixation,jsons/v1_VE1000_randls_20_rotated.json,http://54.235.29.9/FacialAge/BNav_EC2/DepthDuration/v2_depth_duration_MTurk/v2_DepthDuration_HTML.html#309,309,980,197,640,360,8-29-2022,14-58-46,57,depth_duration_stimuli/003492_2014-05-21_15-50-55_094959634447_rgbf000828-resize_1/003492_2014-05-21_15-50-55_094959634447_rgbf000828-resize_1-target.png,1000,4.06875,7.5,7989,992,feet,jsons/v1_VE1000_randls_20_rotated.json,1276862,1618268,27,Man
57,561501,DepthScenes,duration_manipulation_targetAtFixation,jsons/v1_VE1000_randls_20_rotated.json,http://54.235.29.9/FacialAge/BNav_EC2/DepthDuration/v2_depth_duration_MTurk/v2_DepthDuration_HTML.html#309,309,980,197,640,360,8-29-2022,14-58-46,58,depth_duration_stimuli/002209_2014-06-28_18-36-10_260595134347_rgbf000051-resize_1/002209_2014-06-28_18-36-10_260595134347_rgbf000051-resize_1-target.png,1000,2.057,4.0,4933,992,feet,jsons/v1_VE1000_randls_20_rotated.json,1276862,1618268,27,Man
58,561501,DepthScenes,duration_manipulation_targetAtFixation,jsons/v1_VE1000_randls_20_rotated.json,http://54.235.29.9/FacialAge/BNav_EC2/DepthDuration/v2_depth_duration_MTurk/v2_DepthDuration_HTML.html#309,309,980,197,640,360,8-29-2022,14-58-46,59,depth_duration_stimuli/002763_2014-06-22_19-13-10_094959634447_rgbf000075-resize_4/002763_2014-06-22_19-13-10_094959634447_rgbf000075-resize_4-target.png,1000,1.68375,3.5,6516,993,feet,jsons/v1_VE1000_randls_20_rotated.json,1276862,1618268,27,Man
59,561501,DepthScenes,duration_manipulation_targetAtFixation,jsons/v1_VE1000_randls_20_rotated.json,http://54.235.29.9/FacialAge/BNav_EC2/DepthDuration/v2_depth_duration_MTurk/v2_DepthDuration_HTML.html#309,309,980,197,640,360,8-29-2022,14-58-46,60,depth_duration_stimuli/000665_2014-06-09_20-42-35_260595134347_rgbf000110-resize_1/000665_2014-06-09_20-42-35_260595134347_rgbf000110-resize_1-target.png,1000,3.057,5.0,4875,992,feet,jsons/v1_VE1000_randls_20_rotated.json,1276862,1618268,27,Man
60,561501,DepthScenes,duration_manipulation_targetAtFixation,jsons/v1_VE1000_randls_20_rotated.json,http://54.235.29.9/FacialAge/BNav_EC2/DepthDuration/v2_depth_duration_MTurk/v2_DepthDuration_HTML.html#309,309,980,197,640,360,8-29-2022,14-58-46,61,depth_duration_stimuli/001150_2014-06-17_15-27-34_260595134347_rgbf000108-resize_2/001150_2014-06-17_15-27-34_260595134347_rgbf000108-resize_2-target.png,1000,4.0325,6.0,4353,994,feet,jsons/v1_VE1000_randls_20_rotated.json,1276862,1618268,27,Man
61,561501,DepthScenes,duration_manipulation_targetAtFixation,jsons/v1_VE1000_randls_20_rotated.json,http://54.235.29.9/FacialAge/BNav_EC2/DepthDuration/v2_depth_duration_MTurk/v2_DepthDuration_HTML.html#309,309,980,197,640,360,8-29-2022,14-58-46,62,depth_duration_stimuli/002953_2014-06-08_17-32-18_094959634447_rgbf000059-resize_5/002953_2014-06-08_17-32-18_094959634447_rgbf000059-resize_5-target.png,1000,1.551,4.5,17554,988,feet,jsons/v1_VE1000_randls_20_rotated.json,1276862,1618268,27,Man
62,561501,DepthScenes,duration_manipulation_targetAtFixation,jsons/v1_VE1000_randls_20_rotated.json,http://54.235.29.9/FacialAge/BNav_EC2/DepthDuration/v2_depth_duration_MTurk/v2_DepthDuration_HTML.html#309,309,980,197,640,360,8-29-2022,14-58-46,63,depth_duration_stimuli/000878_2014-06-08_22-52-45_260595134347_rgbf000045-resize_2/000878_2014-06-08_22-52-45_260595134347_rgbf000045-resize_2-target.png,1000,2.092,4.5,6147,993,feet,jsons/v1_VE1000_randls_20_rotated.json,1276862,1618268,27,Man
63,561501,DepthScenes,duration_manipulation_targetAtFixation,jsons/v1_VE1000_randls_20_rotated.json,http://54.235.29.9/FacialAge/BNav_EC2/DepthDuration/v2_depth_duration_MTurk/v2_DepthDuration_HTML.html#309,309,980,197,640,360,8-29-2022,14-58-46,64,depth_duration_stimuli/000927_2014-06-09_16-32-30_260595134347_rgbf000123-resize_3/000927_2014-06-09_16-32-30_260595134347_rgbf000123-resize_3-target.png,1000,2.6785,5.0,4456,994,feet,jsons/v1_VE1000_randls_20_rotated.json,1276862,1618268,27,Man
64,561501,DepthScenes,duration_manipulation_targetAtFixation,jsons/v1_VE1000_randls_20_rotated.json,http://54.235.29.9/FacialAge/BNav_EC2/DepthDuration/v2_depth_duration_MTurk/v2_DepthDuration_HTML.html#309,309,980,197,640,360,8-29-2022,14-58-46,65,depth_duration_stimuli/001110_2014-06-15_17-25-28_260595134347_rgbf000150-resize_1/001110_2014-06-15_17-25-28_260595134347_rgbf000150-resize_1-target.png,1000,1.7115,3.5,5682,994,feet,jsons/v1_VE1000_randls_20_rotated.json,1276862,1618268,27,Man
65,561501,DepthScenes,duration_manipulation_targetAtFixation,jsons/v1_VE1000_randls_20_rotated.json,http://54.235.29.9/FacialAge/BNav_EC2/DepthDuration/v2_depth_duration_MTurk/v2_DepthDuration_HTML.html#309,309,980,197,640,360,8-29-2022,14-58-46,66,depth_duration_stimuli/001540_2014-06-20_17-01-05_260595134347_rgbf000086-resize_2/001540_2014-06-20_17-01-05_260595134347_rgbf000086-resize-original.jpg,1000,1.459,0.0,8450,993,feet,jsons/v1_VE1000_randls_20_rotated.json,1276862,1618268,27,Man
66,561501,DepthScenes,duration_manipulation_targetAtFixation,jsons/v1_VE1000_randls_20_rotated.json,http://54.235.29.9/FacialAge/BNav_EC2/DepthDuration/v2_depth_duration_MTurk/v2_DepthDuration_HTML.html#309,309,980,197,640,360,8-29-2022,14-58-46,67,depth_duration_stimuli/000109_2014-05-14_23-41-52_260595134347_rgbf000035-resize_9/000109_2014-05-14_23-41-52_260595134347_rgbf000035-resize_9-target.png,1000,1.3545,2.5,6767,993,feet,jsons/v1_VE1000_randls_20_rotated.json,1276862,1618268,27,Man
67,561501,DepthScenes,duration_manipulation_targetAtFixation,jsons/v1_VE1000_randls_20_rotated.json,http://54.235.29.9/FacialAge/BNav_EC2/DepthDuration/v2_depth_duration_MTurk/v2_DepthDuration_HTML.html#309,309,980,197,640,360,8-29-2022,14-58-46,68,depth_duration_stimuli/000470_2014-06-09_19-42-40_260595134347_rgbf000094-resize_1/000470_2014-06-09_19-42-40_260595134347_rgbf000094-resize_1-target.png,1000,1.831,3.0,6278,993,feet,jsons/v1_VE1000_randls_20_rotated.json,1276862,1618268,27,Man
68,561501,DepthScenes,duration_manipulation_targetAtFixation,jsons/v1_VE1000_randls_20_rotated.json,http://54.235.29.9/FacialAge/BNav_EC2/DepthDuration/v2_depth_duration_MTurk/v2_DepthDuration_HTML.html#309,309,980,197,640,360,8-29-2022,14-58-46,69,depth_duration_stimuli/002805_2014-06-22_19-54-03_094959634447_rgbf000079-resize_1/002805_2014-06-22_19-54-03_094959634447_rgbf000079-resize_1-target.png,1000,3.1439999999999997,5.5,6203,989,feet,jsons/v1_VE1000_randls_20_rotated.json,1276862,1618268,27,Man
69,561501,DepthScenes,duration_manipulation_targetAtFixation,jsons/v1_VE1000_randls_20_rotated.json,http://54.235.29.9/FacialAge/BNav_EC2/DepthDuration/v2_depth_duration_MTurk/v2_DepthDuration_HTML.html#309,309,980,197,640,360,8-29-2022,14-58-46,70,depth_duration_stimuli/000906_2014-06-08_13-35-43_260595134347_rgbf000155-resize_1/000906_2014-06-08_13-35-43_260595134347_rgbf000155-resize_1-target.png,1000,2.8489999999999998,7.0,4485,990,feet,jsons/v1_VE1000_randls_20_rotated.json,1276862,1618268,27,Man
70,561501,DepthScenes,duration_manipulation_targetAtFixation,jsons/v1_VE1000_randls_20_rotated.json,http://54.235.29.9/FacialAge/BNav_EC2/DepthDuration/v2_depth_duration_MTurk/v2_DepthDuration_HTML.html#309,309,980,197,640,360,8-29-2022,14-58-46,71,depth_duration_stimuli/002414_2014-06-28_20-24-58_260595134347_rgbf000067-resize_4/002414_2014-06-28_20-24-58_260595134347_rgbf000067-resize_4-target.png,1000,4.363,8.0,4732,990,feet,jsons/v1_VE1000_randls_20_rotated.json,1276862,1618268,27,Man
71,561501,DepthScenes,duration_manipulation_targetAtFixation,jsons/v1_VE1000_randls_20_rotated.json,http://54.235.29.9/FacialAge/BNav_EC2/DepthDuration/v2_depth_duration_MTurk/v2_DepthDuration_HTML.html#309,309,980,197,640,360,8-29-2022,14-58-46,72,depth_duration_stimuli/000773_2014-06-08_22-24-54_260595134347_rgbf000093-resize_1/000773_2014-06-08_22-24-54_260595134347_rgbf000093-resize_1-target.png,1000,4.973,9.5,7232,993,feet,jsons/v1_VE1000_randls_20_rotated.json,1276862,1618268,27,Man
72,561501,DepthScenes,duration_manipulation_targetAtFixation,jsons/v1_VE1000_randls_20_rotated.json,http://54.235.29.9/FacialAge/BNav_EC2/DepthDuration/v2_depth_duration_MTurk/v2_DepthDuration_HTML.html#309,309,980,197,640,360,8-29-2022,14-58-46,73,depth_duration_stimuli/003083_2014-06-15_15-21-03_094959634447_rgbf000063-resize_1/003083_2014-06-15_15-21-03_094959634447_rgbf000063-resize_1-target.png,1000,4.1405,14.0,4771,988,feet,jsons/v1_VE1000_randls_20_rotated.json,1276862,1618268,27,Man
73,561501,DepthScenes,duration_manipulation_targetAtFixation,jsons/v1_VE1000_randls_20_rotated.json,http://54.235.29.9/FacialAge/BNav_EC2/DepthDuration/v2_depth_duration_MTurk/v2_DepthDuration_HTML.html#309,309,980,197,640,360,8-29-2022,14-58-46,74,depth_duration_stimuli/000486_2014-06-09_20-47-20_260595134347_rgbf000143-resize_2/000486_2014-06-09_20-47-20_260595134347_rgbf000143-resize_2-target.png,1000,4.8325,9.5,5819,993,feet,jsons/v1_VE1000_randls_20_rotated.json,1276862,1618268,27,Man
74,561501,DepthScenes,duration_manipulation_targetAtFixation,jsons/v1_VE1000_randls_20_rotated.json,http://54.235.29.9/FacialAge/BNav_EC2/DepthDuration/v2_depth_duration_MTurk/v2_DepthDuration_HTML.html#309,309,980,197,640,360,8-29-2022,14-58-46,75,depth_duration_stimuli/003129_2014-05-12_10-48-10_094959634447_rgbf000100-resize_0/003129_2014-05-12_10-48-10_094959634447_rgbf000100-resize_0-target.png,1000,4.9305,12.5,6562,993,feet,jsons/v1_VE1000_randls_20_rotated.json,1276862,1618268,27,Man
75,561501,DepthScenes,duration_manipulation_targetAtFixation,jsons/v1_VE1000_randls_20_rotated.json,http://54.235.29.9/FacialAge/BNav_EC2/DepthDuration/v2_depth_duration_MTurk/v2_DepthDuration_HTML.html#309,309,980,197,640,360,8-29-2022,14-58-46,76,depth_duration_stimuli/000414_2014-06-04_19-49-13_260595134347_rgbf000044-resize_0/000414_2014-06-04_19-49-13_260595134347_rgbf000044-resize_0-target.png,1000,4.329,11.0,7322,991,feet,jsons/v1_VE1000_randls_20_rotated.json,1276862,1618268,27,Man
76,561501,DepthScenes,duration_manipulation_targetAtFixation,jsons/v1_VE1000_randls_20_rotated.json,http://54.235.29.9/FacialAge/BNav_EC2/DepthDuration/v2_depth_duration_MTurk/v2_DepthDuration_HTML.html#309,309,980,197,640,360,8-29-2022,14-58-46,77,depth_duration_stimuli/002136_2014-06-25_21-18-03_260595134347_rgbf000109-resize_3/002136_2014-06-25_21-18-03_260595134347_rgbf000109-resize_3-target.png,1000,1.9569999999999999,5.0,4642,993,feet,jsons/v1_VE1000_randls_20_rotated.json,1276862,1618268,27,Man
77,561501,DepthScenes,duration_manipulation_targetAtFixation,jsons/v1_VE1000_randls_20_rotated.json,http://54.235.29.9/FacialAge/BNav_EC2/DepthDuration/v2_depth_duration_MTurk/v2_DepthDuration_HTML.html#309,309,980,197,640,360,8-29-2022,14-58-46,78,depth_duration_stimuli/002964_2014-06-08_17-46-11_094959634447_rgbf000091-resize_4/002964_2014-06-08_17-46-11_094959634447_rgbf000091-resize_4-target.png,1000,1.6909999999999998,4.0,5746,992,feet,jsons/v1_VE1000_randls_20_rotated.json,1276862,1618268,27,Man
78,561501,DepthScenes,duration_manipulation_targetAtFixation,jsons/v1_VE1000_randls_20_rotated.json,http://54.235.29.9/FacialAge/BNav_EC2/DepthDuration/v2_depth_duration_MTurk/v2_DepthDuration_HTML.html#309,309,980,197,640,360,8-29-2022,14-58-46,79,depth_duration_stimuli/000742_2014-06-08_18-48-09_260595134347_rgbf000164-resize_4/000742_2014-06-08_18-48-09_260595134347_rgbf000164-resize_4-target.png,1000,4.632,4.5,6473,992,feet,jsons/v1_VE1000_randls_20_rotated.json,1276862,1618268,27,Man
79,561501,DepthScenes,duration_manipulation_targetAtFixation,jsons/v1_VE1000_randls_20_rotated.json,http://54.235.29.9/FacialAge/BNav_EC2/DepthDuration/v2_depth_duration_MTurk/v2_DepthDuration_HTML.html#309,309,980,197,640,360,8-29-2022,14-58-46,80,depth_duration_stimuli/001066_2014-06-08_22-03-20_260595134347_rgbf000066-resize_4/001066_2014-06-08_22-03-20_260595134347_rgbf000066-resize_4-target.png,1000,4.2330000000000005,5.5,6878,992,feet,jsons/v1_VE1000_randls_20_rotated.json,1276862,1618268,27,Man
80,561501,DepthScenes,duration_manipulation_targetAtFixation,jsons/v1_VE1000_randls_20_rotated.json,http://54.235.29.9/FacialAge/BNav_EC2/DepthDuration/v2_depth_duration_MTurk/v2_DepthDuration_HTML.html#309,309,980,197,640,360,8-29-2022,14-58-46,81,depth_duration_stimuli/000749_2014-06-08_21-55-06_260595134347_rgbf000070-resize_2/000749_2014-06-08_21-55-06_260595134347_rgbf000070-resize_2-target.png,1000,2.331,4.5,5958,988,feet,jsons/v1_VE1000_randls_20_rotated.json,1276862,1618268,27,Man
81,561501,DepthScenes,duration_manipulation_targetAtFixation,jsons/v1_VE1000_randls_20_rotated.json,http://54.235.29.9/FacialAge/BNav_EC2/DepthDuration/v2_depth_duration_MTurk/v2_DepthDuration_HTML.html#309,309,980,197,640,360,8-29-2022,14-58-46,82,depth_duration_stimuli/002788_2014-06-22_19-36-03_094959634447_rgbf000088-resize_2/002788_2014-06-22_19-36-03_094959634447_rgbf000088-resize_2-target.png,1000,1.6465,5.0,4874,993,feet,jsons/v1_VE1000_randls_20_rotated.json,1276862,1618268,27,Man
82,561501,DepthScenes,duration_manipulation_targetAtFixation,jsons/v1_VE1000_randls_20_rotated.json,http://54.235.29.9/FacialAge/BNav_EC2/DepthDuration/v2_depth_duration_MTurk/v2_DepthDuration_HTML.html#309,309,980,197,640,360,8-29-2022,14-58-46,83,depth_duration_stimuli/000677_2014-06-08_23-10-32_260595134347_rgbf000158-resize_6/000677_2014-06-08_23-10-32_260595134347_rgbf000158-resize_6-target.png,1000,3.556,6.0,4786,997,feet,jsons/v1_VE1000_randls_20_rotated.json,1276862,1618268,27,Man
83,561501,DepthScenes,duration_manipulation_targetAtFixation,jsons/v1_VE1000_randls_20_rotated.json,http://54.235.29.9/FacialAge/BNav_EC2/DepthDuration/v2_depth_duration_MTurk/v2_DepthDuration_HTML.html#309,309,980,197,640,360,8-29-2022,14-58-46,84,depth_duration_stimuli/001029_2014-06-08_13-17-57_260595134347_rgbf000065-resize_1/001029_2014-06-08_13-17-57_260595134347_rgbf000065-resize_1-target.png,1000,3.0835,6.0,5359,993,feet,jsons/v1_VE1000_randls_20_rotated.json,1276862,1618268,27,Man
84,561501,DepthScenes,duration_manipulation_targetAtFixation,jsons/v1_VE1000_randls_20_rotated.json,http://54.235.29.9/FacialAge/BNav_EC2/DepthDuration/v2_depth_duration_MTurk/v2_DepthDuration_HTML.html#309,309,980,197,640,360,8-29-2022,14-58-46,85,depth_duration_stimuli/001815_2014-06-26_20-52-55_260595134347_rgbf000020-resize_0/001815_2014-06-26_20-52-55_260595134347_rgbf000020-resize_0-target.png,1000,3.3865,8.5,5618,989,feet,jsons/v1_VE1000_randls_20_rotated.json,1276862,1618268,27,Man
85,561501,DepthScenes,duration_manipulation_targetAtFixation,jsons/v1_VE1000_randls_20_rotated.json,http://54.235.29.9/FacialAge/BNav_EC2/DepthDuration/v2_depth_duration_MTurk/v2_DepthDuration_HTML.html#309,309,980,197,640,360,8-29-2022,14-58-46,86,depth_duration_stimuli/001808_2014-06-26_20-50-58_260595134347_rgbf000029-resize_1/001808_2014-06-26_20-50-58_260595134347_rgbf000029-resize_1-target.png,1000,4.249,7.5,6381,993,feet,jsons/v1_VE1000_randls_20_rotated.json,1276862,1618268,27,Man
86,561501,DepthScenes,duration_manipulation_targetAtFixation,jsons/v1_VE1000_randls_20_rotated.json,http://54.235.29.9/FacialAge/BNav_EC2/DepthDuration/v2_depth_duration_MTurk/v2_DepthDuration_HTML.html#309,309,980,197,640,360,8-29-2022,14-58-46,87,depth_duration_stimuli/001214_2014-06-17_16-13-55_260595134347_rgbf000111-resize_0/001214_2014-06-17_16-13-55_260595134347_rgbf000111-resize_0-target.png,1000,2.6505,4.0,5637,993,feet,jsons/v1_VE1000_randls_20_rotated.json,1276862,1618268,27,Man
87,561501,DepthScenes,duration_manipulation_targetAtFixation,jsons/v1_VE1000_randls_20_rotated.json,http://54.235.29.9/FacialAge/BNav_EC2/DepthDuration/v2_depth_duration_MTurk/v2_DepthDuration_HTML.html#309,309,980,197,640,360,8-29-2022,14-58-46,88,depth_duration_stimuli/000810_2014-06-08_17-20-01_260595134347_rgbf000105-resize_0/000810_2014-06-08_17-20-01_260595134347_rgbf000105-resize_0-target.png,1000,1.4865,6.0,4859,992,feet,jsons/v1_VE1000_randls_20_rotated.json,1276862,1618268,27,Man
88,561501,DepthScenes,duration_manipulation_targetAtFixation,jsons/v1_VE1000_randls_20_rotated.json,http://54.235.29.9/FacialAge/BNav_EC2/DepthDuration/v2_depth_duration_MTurk/v2_DepthDuration_HTML.html#309,309,980,197,640,360,8-29-2022,14-58-46,89,depth_duration_stimuli/000943_2014-06-09_19-31-07_260595134347_rgbf000128-resize_1/000943_2014-06-09_19-31-07_260595134347_rgbf000128-resize_1-target.png,1000,1.9765,5.5,5566,993,feet,jsons/v1_VE1000_randls_20_rotated.json,1276862,1618268,27,Man
89,561501,DepthScenes,duration_manipulation_targetAtFixation,jsons/v1_VE1000_randls_20_rotated.json,http://54.235.29.9/FacialAge/BNav_EC2/DepthDuration/v2_depth_duration_MTurk/v2_DepthDuration_HTML.html#309,309,980,197,640,360,8-29-2022,14-58-46,90,depth_duration_stimuli/003070_2014-06-15_14-58-27_094959634447_rgbf000150-resize_3/003070_2014-06-15_14-58-27_094959634447_rgbf000150-resize_3-target.png,1000,2.9415,6.5,6157,993,feet,jsons/v1_VE1000_randls_20_rotated.json,1276862,1618268,27,Man
90,561501,DepthScenes,duration_manipulation_targetAtFixation,jsons/v1_VE1000_randls_20_rotated.json,http://54.235.29.9/FacialAge/BNav_EC2/DepthDuration/v2_depth_duration_MTurk/v2_DepthDuration_HTML.html#309,309,980,197,640,360,8-29-2022,14-58-46,91,depth_duration_stimuli/001617_2014-06-20_11-35-32_260595134347_rgbf000066-resize_1/001617_2014-06-20_11-35-32_260595134347_rgbf000066-resize_1-target.png,1000,3.7910000000000004,0.0,6781,991,feet,jsons/v1_VE1000_randls_20_rotated.json,1276862,1618268,27,Man
91,561501,DepthScenes,duration_manipulation_targetAtFixation,jsons/v1_VE1000_randls_20_rotated.json,http://54.235.29.9/FacialAge/BNav_EC2/DepthDuration/v2_depth_duration_MTurk/v2_DepthDuration_HTML.html#309,309,980,197,640,360,8-29-2022,14-58-46,92,depth_duration_stimuli/001806_2014-06-26_20-50-20_260595134347_rgbf000091-resize_1/001806_2014-06-26_20-50-20_260595134347_rgbf000091-resize_1-target.png,1000,2.7305,4.5,5663,993,feet,jsons/v1_VE1000_randls_20_rotated.json,1276862,1618268,27,Man
92,561501,DepthScenes,duration_manipulation_targetAtFixation,jsons/v1_VE1000_randls_20_rotated.json,http://54.235.29.9/FacialAge/BNav_EC2/DepthDuration/v2_depth_duration_MTurk/v2_DepthDuration_HTML.html#309,309,980,197,640,360,8-29-2022,14-58-46,93,depth_duration_stimuli/002995_2014-06-15_12-31-26_094959634447_rgbf000150-resize_1/002995_2014-06-15_12-31-26_094959634447_rgbf000150-resize_1-target.png,1000,3.8360000000000003,7.0,5033,994,feet,jsons/v1_VE1000_randls_20_rotated.json,1276862,1618268,27,Man
93,561501,DepthScenes,duration_manipulation_targetAtFixation,jsons/v1_VE1000_randls_20_rotated.json,http://54.235.29.9/FacialAge/BNav_EC2/DepthDuration/v2_depth_duration_MTurk/v2_DepthDuration_HTML.html#309,309,980,197,640,360,8-29-2022,14-58-46,94,depth_duration_stimuli/002748_2014-06-22_19-07-22_094959634447_rgbf000078-resize_1/002748_2014-06-22_19-07-22_094959634447_rgbf000078-resize_1-target.png,1000,4.6705,10.0,6049,991,feet,jsons/v1_VE1000_randls_20_rotated.json,1276862,1618268,27,Man
94,561501,DepthScenes,duration_manipulation_targetAtFixation,jsons/v1_VE1000_randls_20_rotated.json,http://54.235.29.9/FacialAge/BNav_EC2/DepthDuration/v2_depth_duration_MTurk/v2_DepthDuration_HTML.html#309,309,980,197,640,360,8-29-2022,14-58-46,95,depth_duration_stimuli/000191_2014-05-12_17-07-38_260595134347_rgbf000199-resize_0/000191_2014-05-12_17-07-38_260595134347_rgbf000199-resize_0-target.png,1000,3.7995,11.0,6653,993,feet,jsons/v1_VE1000_randls_20_rotated.json,1276862,1618268,27,Man
95,561501,DepthScenes,duration_manipulation_targetAtFixation,jsons/v1_VE1000_randls_20_rotated.json,http://54.235.29.9/FacialAge/BNav_EC2/DepthDuration/v2_depth_duration_MTurk/v2_DepthDuration_HTML.html#309,309,980,197,640,360,8-29-2022,14-58-46,96,depth_duration_stimuli/000493_2014-06-09_21-01-18_260595134347_rgbf000196-resize_3/000493_2014-06-09_21-01-18_260595134347_rgbf000196-resize_3-target.png,1000,3.44,7.5,7653,993,feet,jsons/v1_VE1000_randls_20_rotated.json,1276862,1618268,27,Man
96,561501,DepthScenes,duration_manipulation_targetAtFixation,jsons/v1_VE1000_randls_20_rotated.json,http://54.235.29.9/FacialAge/BNav_EC2/DepthDuration/v2_depth_duration_MTurk/v2_DepthDuration_HTML.html#309,309,980,197,640,360,8-29-2022,14-58-46,97,depth_duration_stimuli/001650_2014-06-20_12-09-00_260595134347_rgbf000087-resize_3/001650_2014-06-20_12-09-00_260595134347_rgbf000087-resize_3-target.png,1000,1.9505,2.0,6325,993,feet,jsons/v1_VE1000_randls_20_rotated.json,1276862,1618268,27,Man
97,561501,DepthScenes,duration_manipulation_targetAtFixation,jsons/v1_VE1000_randls_20_rotated.json,http://54.235.29.9/FacialAge/BNav_EC2/DepthDuration/v2_depth_duration_MTurk/v2_DepthDuration_HTML.html#309,309,980,197,640,360,8-29-2022,14-58-46,98,depth_duration_stimuli/000682_2014-06-08_23-14-58_260595134347_rgbf000041-resize_5/000682_2014-06-08_23-14-58_260595134347_rgbf000041-resize_5-target.png,1000,2.7239999999999998,4.0,6459,992,feet,jsons/v1_VE1000_randls_20_rotated.json,1276862,1618268,27,Man
98,561501,DepthScenes,duration_manipulation_targetAtFixation,jsons/v1_VE1000_randls_20_rotated.json,http://54.235.29.9/FacialAge/BNav_EC2/DepthDuration/v2_depth_duration_MTurk/v2_DepthDuration_HTML.html#309,309,980,197,640,360,8-29-2022,14-58-46,99,depth_duration_stimuli/001222_2014-06-17_16-24-06_260595134347_rgbf000073-resize_0/001222_2014-06-17_16-24-06_260595134347_rgbf000073-resize-original.jpg,1000,1.4385,0.0,4908,993,feet,jsons/v1_VE1000_randls_20_rotated.json,1276862,1618268,27,Man
99,561501,DepthScenes,duration_manipulation_targetAtFixation,jsons/v1_VE1000_randls_20_rotated.json,http://54.235.29.9/FacialAge/BNav_EC2/DepthDuration/v2_depth_duration_MTurk/v2_DepthDuration_HTML.html#309,309,980,197,640,360,8-29-2022,14-58-46,100,depth_duration_stimuli/000709_2014-06-08_13-51-55_260595134347_rgbf000068-resize_3/000709_2014-06-08_13-51-55_260595134347_rgbf000068-resize_3-target.png,1000,1.8030000000000002,4.5,6481,993,feet,jsons/v1_VE1000_randls_20_rotated.json,1276862,1618268,27,Man
100,561501,DepthScenes,duration_manipulation_targetAtFixation,jsons/v1_VE1000_randls_20_rotated.json,http://54.235.29.9/FacialAge/BNav_EC2/DepthDuration/v2_depth_duration_MTurk/v2_DepthDuration_HTML.html#309,309,980,197,640,360,8-29-2022,14-58-46,101,depth_duration_stimuli/002057_2014-06-24_21-00-13_260595134347_rgbf000120-resize_1/002057_2014-06-24_21-00-13_260595134347_rgbf000120-resize_1-target.png,1000,2.967,9.5,7140,989,feet,jsons/v1_VE1000_randls_20_rotated.json,1276862,1618268,27,Man
101,561501,DepthScenes,duration_manipulation_targetAtFixation,jsons/v1_VE1000_randls_20_rotated.json,http://54.235.29.9/FacialAge/BNav_EC2/DepthDuration/v2_depth_duration_MTurk/v2_DepthDuration_HTML.html#309,309,980,197,640,360,8-29-2022,14-58-46,102,depth_duration_stimuli/002660_2014-06-13_15-44-18_094959634447_rgbf001878-resize_2/002660_2014-06-13_15-44-18_094959634447_rgbf001878-resize_2-target.png,1000,3.576,6.5,6214,992,feet,jsons/v1_VE1000_randls_20_rotated.json,1276862,1618268,27,Man
102,561501,DepthScenes,duration_manipulation_targetAtFixation,jsons/v1_VE1000_randls_20_rotated.json,http://54.235.29.9/FacialAge/BNav_EC2/DepthDuration/v2_depth_duration_MTurk/v2_DepthDuration_HTML.html#309,309,980,197,640,360,8-29-2022,14-58-46,103,depth_duration_stimuli/002153_2014-06-25_21-27-18_260595134347_rgbf000038-resize_5/002153_2014-06-25_21-27-18_260595134347_rgbf000038-resize_5-target.png,1000,2.505,5.0,4955,992,feet,jsons/v1_VE1000_randls_20_rotated.json,1276862,1618268,27,Man
103,561501,DepthScenes,duration_manipulation_targetAtFixation,jsons/v1_VE1000_randls_20_rotated.json,http://54.235.29.9/FacialAge/BNav_EC2/DepthDuration/v2_depth_duration_MTurk/v2_DepthDuration_HTML.html#309,309,980,197,640,360,8-29-2022,14-58-46,104,depth_duration_stimuli/003228_2014-05-14_13-42-35_094959634447_rgbf000101-resize_1/003228_2014-05-14_13-42-35_094959634447_rgbf000101-resize_1-target.png,1000,1.9680000000000002,3.5,5830,990,feet,jsons/v1_VE1000_randls_20_rotated.json,1276862,1618268,27,Man
104,561501,DepthScenes,duration_manipulation_targetAtFixation,jsons/v1_VE1000_randls_20_rotated.json,http://54.235.29.9/FacialAge/BNav_EC2/DepthDuration/v2_depth_duration_MTurk/v2_DepthDuration_HTML.html#309,309,980,197,640,360,8-29-2022,14-58-46,105,depth_duration_stimuli/002600_2014-06-24_14-27-04_094959634447_rgbf000074-resize_2/002600_2014-06-24_14-27-04_094959634447_rgbf000074-resize_2-target.png,1000,2.7575,6.0,4846,988,feet,jsons/v1_VE1000_randls_20_rotated.json,1276862,1618268,27,Man
105,561501,DepthScenes,duration_manipulation_targetAtFixation,jsons/v1_VE1000_randls_20_rotated.json,http://54.235.29.9/FacialAge/BNav_EC2/DepthDuration/v2_depth_duration_MTurk/v2_DepthDuration_HTML.html#309,309,980,197,640,360,8-29-2022,14-58-46,106,depth_duration_stimuli/002750_2014-06-22_19-08-03_094959634447_rgbf000094-resize_4/002750_2014-06-22_19-08-03_094959634447_rgbf000094-resize_4-target.png,1000,2.354,6.5,7205,996,feet,jsons/v1_VE1000_randls_20_rotated.json,1276862,1618268,27,Man
106,561501,DepthScenes,duration_manipulation_targetAtFixation,jsons/v1_VE1000_randls_20_rotated.json,http://54.235.29.9/FacialAge/BNav_EC2/DepthDuration/v2_depth_duration_MTurk/v2_DepthDuration_HTML.html#309,309,980,197,640,360,8-29-2022,14-58-46,107,depth_duration_stimuli/002549_2014-06-24_13-41-39_094959634447_rgbf000022-resize_3/002549_2014-06-24_13-41-39_094959634447_rgbf000022-resize_3-target.png,1000,1.476,3.0,4984,993,feet,jsons/v1_VE1000_randls_20_rotated.json,1276862,1618268,27,Man
107,561501,DepthScenes,duration_manipulation_targetAtFixation,jsons/v1_VE1000_randls_20_rotated.json,http://54.235.29.9/FacialAge/BNav_EC2/DepthDuration/v2_depth_duration_MTurk/v2_DepthDuration_HTML.html#309,309,980,197,640,360,8-29-2022,14-58-46,108,depth_duration_stimuli/000635_2014-06-08_16-38-42_260595134347_rgbf000106-resize_1/000635_2014-06-08_16-38-42_260595134347_rgbf000106-resize_1-target.png,1000,2.074,4.0,4978,991,feet,jsons/v1_VE1000_randls_20_rotated.json,1276862,1618268,27,Man
108,561501,DepthScenes,duration_manipulation_targetAtFixation,jsons/v1_VE1000_randls_20_rotated.json,http://54.235.29.9/FacialAge/BNav_EC2/DepthDuration/v2_depth_duration_MTurk/v2_DepthDuration_HTML.html#309,309,980,197,640,360,8-29-2022,14-58-46,109,depth_duration_stimuli/002279_2014-06-28_18-55-32_260595134347_rgbf000040-resize_5/002279_2014-06-28_18-55-32_260595134347_rgbf000040-resize_5-target.png,1000,1.5043333333333,2.5,5173,992,feet,jsons/v1_VE1000_randls_20_rotated.json,1276862,1618268,27,Man
109,561501,DepthScenes,duration_manipulation_targetAtFixation,jsons/v1_VE1000_randls_20_rotated.json,http://54.235.29.9/FacialAge/BNav_EC2/DepthDuration/v2_depth_duration_MTurk/v2_DepthDuration_HTML.html#309,309,980,197,640,360,8-29-2022,14-58-46,110,depth_duration_stimuli/000866_2014-06-09_20-45-42_260595134347_rgbf000139-resize_1/000866_2014-06-09_20-45-42_260595134347_rgbf000139-resize_1-target.png,1000,3.2155,4.0,5094,997,feet,jsons/v1_VE1000_randls_20_rotated.json,1276862,1618268,27,Man
110,561501,DepthScenes,duration_manipulation_targetAtFixation,jsons/v1_VE1000_randls_20_rotated.json,http://54.235.29.9/FacialAge/BNav_EC2/DepthDuration/v2_depth_duration_MTurk/v2_DepthDuration_HTML.html#309,309,980,197,640,360,8-29-2022,14-58-46,111,depth_duration_stimuli/002989_2014-06-15_12-25-03_094959634447_rgbf000150-resize_3/002989_2014-06-15_12-25-03_094959634447_rgbf000150-resize_3-target.png,1000,4.1975,13.0,5327,994,feet,jsons/v1_VE1000_randls_20_rotated.json,1276862,1618268,27,Man
111,561501,DepthScenes,duration_manipulation_targetAtFixation,jsons/v1_VE1000_randls_20_rotated.json,http://54.235.29.9/FacialAge/BNav_EC2/DepthDuration/v2_depth_duration_MTurk/v2_DepthDuration_HTML.html#309,309,980,197,640,360,8-29-2022,14-58-46,112,depth_duration_stimuli/002103_2014-06-25_20-00-40_260595134347_rgbf000049-resize_0/002103_2014-06-25_20-00-40_260595134347_rgbf000049-resize_0-target.png,1000,4.105,4.5,5504,988,feet,jsons/v1_VE1000_randls_20_rotated.json,1276862,1618268,27,Man
112,561501,DepthScenes,duration_manipulation_targetAtFixation,jsons/v1_VE1000_randls_20_rotated.json,http://54.235.29.9/FacialAge/BNav_EC2/DepthDuration/v2_depth_duration_MTurk/v2_DepthDuration_HTML.html#309,309,980,197,640,360,8-29-2022,14-58-46,113,depth_duration_stimuli/002039_2014-06-24_20-22-38_260595134347_rgbf000084-resize_1/002039_2014-06-24_20-22-38_260595134347_rgbf000084-resize_1-target.png,1000,4.408,13.0,5256,992,feet,jsons/v1_VE1000_randls_20_rotated.json,1276862,1618268,27,Man
113,561501,DepthScenes,duration_manipulation_targetAtFixation,jsons/v1_VE1000_randls_20_rotated.json,http://54.235.29.9/FacialAge/BNav_EC2/DepthDuration/v2_depth_duration_MTurk/v2_DepthDuration_HTML.html#309,309,980,197,640,360,8-29-2022,14-58-46,114,depth_duration_stimuli/002875_2014-06-01_15-19-00_094959634447_rgbf000151-resize_1/002875_2014-06-01_15-19-00_094959634447_rgbf000151-resize_1-target.png,1000,1.9675,4.0,4411,990,feet,jsons/v1_VE1000_randls_20_rotated.json,1276862,1618268,27,Man
114,561501,DepthScenes,duration_manipulation_targetAtFixation,jsons/v1_VE1000_randls_20_rotated.json,http://54.235.29.9/FacialAge/BNav_EC2/DepthDuration/v2_depth_duration_MTurk/v2_DepthDuration_HTML.html#309,309,980,197,640,360,8-29-2022,14-58-46,115,depth_duration_stimuli/001011_2014-06-08_23-18-54_260595134347_rgbf000044-resize_4/001011_2014-06-08_23-18-54_260595134347_rgbf000044-resize_4-target.png,1000,2.4730000000000003,5.5,7215,993,feet,jsons/v1_VE1000_randls_20_rotated.json,1276862,1618268,27,Man
115,561501,DepthScenes,duration_manipulation_targetAtFixation,jsons/v1_VE1000_randls_20_rotated.json,http://54.235.29.9/FacialAge/BNav_EC2/DepthDuration/v2_depth_duration_MTurk/v2_DepthDuration_HTML.html#309,309,980,197,640,360,8-29-2022,14-58-46,116,depth_duration_stimuli/001450_2014-06-19_17-02-03_260595134347_rgbf000203-resize_4/001450_2014-06-19_17-02-03_260595134347_rgbf000203-resize_4-target.png,1000,4.0106666666667,4.5,6058,997,feet,jsons/v1_VE1000_randls_20_rotated.json,1276862,1618268,27,Man
116,561501,DepthScenes,duration_manipulation_targetAtFixation,jsons/v1_VE1000_randls_20_rotated.json,http://54.235.29.9/FacialAge/BNav_EC2/DepthDuration/v2_depth_duration_MTurk/v2_DepthDuration_HTML.html#309,309,980,197,640,360,8-29-2022,14-58-46,117,depth_duration_stimuli/001449_2014-06-19_17-01-27_260595134347_rgbf000116-resize_2/001449_2014-06-19_17-01-27_260595134347_rgbf000116-resize_2-target.png,1000,3.452,7.5,5352,993,feet,jsons/v1_VE1000_randls_20_rotated.json,1276862,1618268,27,Man
117,561501,DepthScenes,duration_manipulation_targetAtFixation,jsons/v1_VE1000_randls_20_rotated.json,http://54.235.29.9/FacialAge/BNav_EC2/DepthDuration/v2_depth_duration_MTurk/v2_DepthDuration_HTML.html#309,309,980,197,640,360,8-29-2022,14-58-46,118,depth_duration_stimuli/000691_2014-06-08_13-08-50_260595134347_rgbf000132-resize_3/000691_2014-06-08_13-08-50_260595134347_rgbf000132-resize_3-target.png,1000,4.1530000000000005,11.5,5288,993,feet,jsons/v1_VE1000_randls_20_rotated.json,1276862,1618268,27,Man
118,561501,DepthScenes,duration_manipulation_targetAtFixation,jsons/v1_VE1000_randls_20_rotated.json,http://54.235.29.9/FacialAge/BNav_EC2/DepthDuration/v2_depth_duration_MTurk/v2_DepthDuration_HTML.html#309,309,980,197,640,360,8-29-2022,14-58-46,119,depth_duration_stimuli/002213_2014-06-28_18-37-58_260595134347_rgbf000055-resize_1/002213_2014-06-28_18-37-58_260595134347_rgbf000055-resize_1-target.png,1000,3.62,15.5,5639,993,feet,jsons/v1_VE1000_randls_20_rotated.json,1276862,1618268,27,Man
119,561501,DepthScenes,duration_manipulation_targetAtFixation,jsons/v1_VE1000_randls_20_rotated.json,http://54.235.29.9/FacialAge/BNav_EC2/DepthDuration/v2_depth_duration_MTurk/v2_DepthDuration_HTML.html#309,309,980,197,640,360,8-29-2022,14-58-46,120,depth_duration_stimuli/000787_2014-06-08_22-33-53_260595134347_rgbf000175-resize_1/000787_2014-06-08_22-33-53_260595134347_rgbf000175-resize-original.jpg,1000,4.784,0.0,4994,993,feet,jsons/v1_VE1000_randls_20_rotated.json,1276862,1618268,27,Man
120,561501,DepthScenes,duration_manipulation_targetAtFixation,jsons/v1_VE1000_randls_20_rotated.json,http://54.235.29.9/FacialAge/BNav_EC2/DepthDuration/v2_depth_duration_MTurk/v2_DepthDuration_HTML.html#309,309,980,197,640,360,8-29-2022,14-58-46,121,depth_duration_stimuli/000103_2014-05-14_22-01-17_260595134347_rgbf000152-resize_5/000103_2014-05-14_22-01-17_260595134347_rgbf000152-resize_5-target.png,1000,1.993,6.0,5085,993,feet,jsons/v1_VE1000_randls_20_rotated.json,1276862,1618268,27,Man
121,561501,DepthScenes,duration_manipulation_targetAtFixation,jsons/v1_VE1000_randls_20_rotated.json,http://54.235.29.9/FacialAge/BNav_EC2/DepthDuration/v2_depth_duration_MTurk/v2_DepthDuration_HTML.html#309,309,980,197,640,360,8-29-2022,14-58-46,122,depth_duration_stimuli/001555_2014-06-20_17-12-10_260595134347_rgbf000065-resize_4/001555_2014-06-20_17-12-10_260595134347_rgbf000065-resize_4-target.png,1000,1.633,3.5,6371,998,feet,jsons/v1_VE1000_randls_20_rotated.json,1276862,1618268,27,Man
122,561501,DepthScenes,duration_manipulation_targetAtFixation,jsons/v1_VE1000_randls_20_rotated.json,http://54.235.29.9/FacialAge/BNav_EC2/DepthDuration/v2_depth_duration_MTurk/v2_DepthDuration_HTML.html#309,309,980,197,640,360,8-29-2022,14-58-46,123,depth_duration_stimuli/002657_2014-06-13_15-29-54_094959634447_rgbf000150-resize_1/002657_2014-06-13_15-29-54_094959634447_rgbf000150-resize_1-target.png,1000,4.919,7.0,4949,993,feet,jsons/v1_VE1000_randls_20_rotated.json,1276862,1618268,27,Man
123,561501,DepthScenes,duration_manipulation_targetAtFixation,jsons/v1_VE1000_randls_20_rotated.json,http://54.235.29.9/FacialAge/BNav_EC2/DepthDuration/v2_depth_duration_MTurk/v2_DepthDuration_HTML.html#309,309,980,197,640,360,8-29-2022,14-58-46,124,depth_duration_stimuli/002375_2014-06-28_20-13-44_260595134347_rgbf000032-resize_1/002375_2014-06-28_20-13-44_260595134347_rgbf000032-resize_1-target.png,1000,4.0175,6.0,4811,994,feet,jsons/v1_VE1000_randls_20_rotated.json,1276862,1618268,27,Man
124,561501,DepthScenes,duration_manipulation_targetAtFixation,jsons/v1_VE1000_randls_20_rotated.json,http://54.235.29.9/FacialAge/BNav_EC2/DepthDuration/v2_depth_duration_MTurk/v2_DepthDuration_HTML.html#309,309,980,197,640,360,8-29-2022,14-58-46,125,depth_duration_stimuli/002637_2014-06-24_14-51-13_094959634447_rgbf000066-resize_4/002637_2014-06-24_14-51-13_094959634447_rgbf000066-resize_4-target.png,1000,1.9955,6.5,6714,992,feet,jsons/v1_VE1000_randls_20_rotated.json,1276862,1618268,27,Man
125,561501,DepthScenes,duration_manipulation_targetAtFixation,jsons/v1_VE1000_randls_20_rotated.json,http://54.235.29.9/FacialAge/BNav_EC2/DepthDuration/v2_depth_duration_MTurk/v2_DepthDuration_HTML.html#309,309,980,197,640,360,8-29-2022,14-58-46,126,depth_duration_stimuli/003534_2014-05-22_15-06-10_094959634447_rgbf000102-resize_4/003534_2014-05-22_15-06-10_094959634447_rgbf000102-resize_4-target.png,1000,1.426,2.0,4545,986,feet,jsons/v1_VE1000_randls_20_rotated.json,1276862,1618268,27,Man
126,561501,DepthScenes,duration_manipulation_targetAtFixation,jsons/v1_VE1000_randls_20_rotated.json,http://54.235.29.9/FacialAge/BNav_EC2/DepthDuration/v2_depth_duration_MTurk/v2_DepthDuration_HTML.html#309,309,980,197,640,360,8-29-2022,14-58-46,127,depth_duration_stimuli/000137_2014-05-20_17-04-49_260595134347_rgbf000120-resize_1/000137_2014-05-20_17-04-49_260595134347_rgbf000120-resize_1-target.png,1000,3.786,8.5,7384,993,feet,jsons/v1_VE1000_randls_20_rotated.json,1276862,1618268,27,Man
127,561501,DepthScenes,duration_manipulation_targetAtFixation,jsons/v1_VE1000_randls_20_rotated.json,http://54.235.29.9/FacialAge/BNav_EC2/DepthDuration/v2_depth_duration_MTurk/v2_DepthDuration_HTML.html#309,309,980,197,640,360,8-29-2022,14-58-46,128,depth_duration_stimuli/000736_2014-06-08_18-24-15_260595134347_rgbf000206-resize_3/000736_2014-06-08_18-24-15_260595134347_rgbf000206-resize_3-target.png,1000,3.515,6.5,10405,993,feet,jsons/v1_VE1000_randls_20_rotated.json,1276862,1618268,27,Man
128,561501,DepthScenes,duration_manipulation_targetAtFixation,jsons/v1_VE1000_randls_20_rotated.json,http://54.235.29.9/FacialAge/BNav_EC2/DepthDuration/v2_depth_duration_MTurk/v2_DepthDuration_HTML.html#309,309,980,197,640,360,8-29-2022,14-58-46,129,depth_duration_stimuli/000734_2014-06-08_17-39-11_260595134347_rgbf000128-resize_2/000734_2014-06-08_17-39-11_260595134347_rgbf000128-resize_2-target.png,1000,4.098,6.5,7521,994,feet,jsons/v1_VE1000_randls_20_rotated.json,1276862,1618268,27,Man
129,561501,DepthScenes,duration_manipulation_targetAtFixation,jsons/v1_VE1000_randls_20_rotated.json,http://54.235.29.9/FacialAge/BNav_EC2/DepthDuration/v2_depth_duration_MTurk/v2_DepthDuration_HTML.html#309,309,980,197,640,360,8-29-2022,14-58-46,130,depth_duration_stimuli/000739_2014-06-08_18-45-58_260595134347_rgbf000068-resize_1/000739_2014-06-08_18-45-58_260595134347_rgbf000068-resize_1-target.png,1000,3.534,10.0,5335,987,feet,jsons/v1_VE1000_randls_20_rotated.json,1276862,1618268,27,Man
130,561501,DepthScenes,duration_manipulation_targetAtFixation,jsons/v1_VE1000_randls_20_rotated.json,http://54.235.29.9/FacialAge/BNav_EC2/DepthDuration/v2_depth_duration_MTurk/v2_DepthDuration_HTML.html#309,309,980,197,640,360,8-29-2022,14-58-46,131,depth_duration_stimuli/003010_2014-06-15_12-54-35_094959634447_rgbf000112-resize_0/003010_2014-06-15_12-54-35_094959634447_rgbf000112-resize_0-target.png,1000,3.1185,16.0,7613,992,feet,jsons/v1_VE1000_randls_20_rotated.json,1276862,1618268,27,Man
131,561501,DepthScenes,duration_manipulation_targetAtFixation,jsons/v1_VE1000_randls_20_rotated.json,http://54.235.29.9/FacialAge/BNav_EC2/DepthDuration/v2_depth_duration_MTurk/v2_DepthDuration_HTML.html#309,309,980,197,640,360,8-29-2022,14-58-46,132,depth_duration_stimuli/001810_2014-06-26_20-51-35_260595134347_rgbf000040-resize_3/001810_2014-06-26_20-51-35_260595134347_rgbf000040-resize_3-target.png,1000,2.2525,4.0,4565,993,feet,jsons/v1_VE1000_randls_20_rotated.json,1276862,1618268,27,Man
132,561501,DepthScenes,duration_manipulation_targetAtFixation,jsons/v1_VE1000_randls_20_rotated.json,http://54.235.29.9/FacialAge/BNav_EC2/DepthDuration/v2_depth_duration_MTurk/v2_DepthDuration_HTML.html#309,309,980,197,640,360,8-29-2022,14-58-46,133,depth_duration_stimuli/000483_2014-06-09_20-41-45_260595134347_rgbf000116-resize_4/000483_2014-06-09_20-41-45_260595134347_rgbf000116-resize_4-target.png,1000,1.337,4.0,4668,988,feet,jsons/v1_VE1000_randls_20_rotated.json,1276862,1618268,27,Man
133,561501,DepthScenes,duration_manipulation_targetAtFixation,jsons/v1_VE1000_randls_20_rotated.json,http://54.235.29.9/FacialAge/BNav_EC2/DepthDuration/v2_depth_duration_MTurk/v2_DepthDuration_HTML.html#309,309,980,197,640,360,8-29-2022,14-58-46,134,depth_duration_stimuli/000469_2014-06-09_19-42-10_260595134347_rgbf000081-resize_1/000469_2014-06-09_19-42-10_260595134347_rgbf000081-resize_1-target.png,1000,1.652,4.0,4766,993,feet,jsons/v1_VE1000_randls_20_rotated.json,1276862,1618268,27,Man
134,561501,DepthScenes,duration_manipulation_targetAtFixation,jsons/v1_VE1000_randls_20_rotated.json,http://54.235.29.9/FacialAge/BNav_EC2/DepthDuration/v2_depth_duration_MTurk/v2_DepthDuration_HTML.html#309,309,980,197,640,360,8-29-2022,14-58-46,135,depth_duration_stimuli/000375_2014-06-08_11-17-29_260595134347_rgbf000133-resize_2/000375_2014-06-08_11-17-29_260595134347_rgbf000133-resize-original.jpg,1000,4.718,0.0,4761,993,feet,jsons/v1_VE1000_randls_20_rotated.json,1276862,1618268,27,Man
135,561501,DepthScenes,duration_manipulation_targetAtFixation,jsons/v1_VE1000_randls_20_rotated.json,http://54.235.29.9/FacialAge/BNav_EC2/DepthDuration/v2_depth_duration_MTurk/v2_DepthDuration_HTML.html#309,309,980,197,640,360,8-29-2022,14-58-46,136,depth_duration_stimuli/003079_2014-06-15_15-18-20_094959634447_rgbf000152-resize_8/003079_2014-06-15_15-18-20_094959634447_rgbf000152-resize_8-target.png,1000,2.8775,10.0,4779,988,feet,jsons/v1_VE1000_randls_20_rotated.json,1276862,1618268,27,Man
136,561501,DepthScenes,duration_manipulation_targetAtFixation,jsons/v1_VE1000_randls_20_rotated.json,http://54.235.29.9/FacialAge/BNav_EC2/DepthDuration/v2_depth_duration_MTurk/v2_DepthDuration_HTML.html#309,309,980,197,640,360,8-29-2022,14-58-46,137,depth_duration_stimuli/000506_2014-06-08_23-21-00_260595134347_rgbf000070-resize_7/000506_2014-06-08_23-21-00_260595134347_rgbf000070-resize_7-target.png,1000,4.0585,8.5,6597,993,feet,jsons/v1_VE1000_randls_20_rotated.json,1276862,1618268,27,Man
137,561501,DepthScenes,duration_manipulation_targetAtFixation,jsons/v1_VE1000_randls_20_rotated.json,http://54.235.29.9/FacialAge/BNav_EC2/DepthDuration/v2_depth_duration_MTurk/v2_DepthDuration_HTML.html#309,309,980,197,640,360,8-29-2022,14-58-46,138,depth_duration_stimuli/001094_2014-06-15_17-36-00_260595134347_rgbf000205-resize_0/001094_2014-06-15_17-36-00_260595134347_rgbf000205-resize_0-target.png,1000,4.2175,7.0,43112,993,feet,jsons/v1_VE1000_randls_20_rotated.json,1276862,1618268,27,Man
138,561501,DepthScenes,duration_manipulation_targetAtFixation,jsons/v1_VE1000_randls_20_rotated.json,http://54.235.29.9/FacialAge/BNav_EC2/DepthDuration/v2_depth_duration_MTurk/v2_DepthDuration_HTML.html#309,309,980,197,640,360,8-29-2022,14-58-46,139,depth_duration_stimuli/000692_2014-06-08_13-09-42_260595134347_rgbf000199-resize_2/000692_2014-06-08_13-09-42_260595134347_rgbf000199-resize_2-target.png,1000,3.661,17.0,5284,993,feet,jsons/v1_VE1000_randls_20_rotated.json,1276862,1618268,27,Man
139,561501,DepthScenes,duration_manipulation_targetAtFixation,jsons/v1_VE1000_randls_20_rotated.json,http://54.235.29.9/FacialAge/BNav_EC2/DepthDuration/v2_depth_duration_MTurk/v2_DepthDuration_HTML.html#309,309,980,197,640,360,8-29-2022,14-58-46,140,depth_duration_stimuli/000549_2014-06-08_22-10-24_260595134347_rgbf000247-resize_3/000549_2014-06-08_22-10-24_260595134347_rgbf000247-resize_3-target.png,1000,1.841,2.5,6660,993,feet,jsons/v1_VE1000_randls_20_rotated.json,1276862,1618268,27,Man
140,561501,DepthScenes,duration_manipulation_targetAtFixation,jsons/v1_VE1000_randls_20_rotated.json,http://54.235.29.9/FacialAge/BNav_EC2/DepthDuration/v2_depth_duration_MTurk/v2_DepthDuration_HTML.html#309,309,980,197,640,360,8-29-2022,14-58-46,141,depth_duration_stimuli/001055_2014-06-08_18-45-35_260595134347_rgbf000111-resize_4/001055_2014-06-08_18-45-35_260595134347_rgbf000111-resize_4-target.png,1000,2.4290000000000003,10.0,5554,992,feet,jsons/v1_VE1000_randls_20_rotated.json,1276862,1618268,27,Man
141,561501,DepthScenes,duration_manipulation_targetAtFixation,jsons/v1_VE1000_randls_20_rotated.json,http://54.235.29.9/FacialAge/BNav_EC2/DepthDuration/v2_depth_duration_MTurk/v2_DepthDuration_HTML.html#309,309,980,197,640,360,8-29-2022,14-58-46,142,depth_duration_stimuli/002545_2014-06-24_13-38-53_094959634447_rgbf000080-resize_4/002545_2014-06-24_13-38-53_094959634447_rgbf000080-resize_4-target.png,1000,1.9205,5.0,5939,991,feet,jsons/v1_VE1000_randls_20_rotated.json,1276862,1618268,27,Man
142,561501,DepthScenes,duration_manipulation_targetAtFixation,jsons/v1_VE1000_randls_20_rotated.json,http://54.235.29.9/FacialAge/BNav_EC2/DepthDuration/v2_depth_duration_MTurk/v2_DepthDuration_HTML.html#309,309,980,197,640,360,8-29-2022,14-58-46,143,depth_duration_stimuli/001092_2014-06-15_17-34-58_260595134347_rgbf000171-resize_3/001092_2014-06-15_17-34-58_260595134347_rgbf000171-resize_3-target.png,1000,2.6935,4.5,11897,993,feet,jsons/v1_VE1000_randls_20_rotated.json,1276862,1618268,27,Man
143,561501,DepthScenes,duration_manipulation_targetAtFixation,jsons/v1_VE1000_randls_20_rotated.json,http://54.235.29.9/FacialAge/BNav_EC2/DepthDuration/v2_depth_duration_MTurk/v2_DepthDuration_HTML.html#309,309,980,197,640,360,8-29-2022,14-58-46,144,depth_duration_stimuli/002199_2014-06-28_18-33-56_260595134347_rgbf000074-resize_0/002199_2014-06-28_18-33-56_260595134347_rgbf000074-resize_0-target.png,1000,1.996,3.5,5445,993,feet,jsons/v1_VE1000_randls_20_rotated.json,1276862,1618268,27,Man
144,561501,DepthScenes,duration_manipulation_targetAtFixation,jsons/v1_VE1000_randls_20_rotated.json,http://54.235.29.9/FacialAge/BNav_EC2/DepthDuration/v2_depth_duration_MTurk/v2_DepthDuration_HTML.html#309,309,980,197,640,360,8-29-2022,14-58-46,145,depth_duration_stimuli/001056_2014-06-08_18-46-44_260595134347_rgbf000068-resize_0/001056_2014-06-08_18-46-44_260595134347_rgbf000068-resize_0-target.png,1000,2.6625,5.5,5337,992,feet,jsons/v1_VE1000_randls_20_rotated.json,1276862,1618268,27,Man
145,561501,DepthScenes,duration_manipulation_targetAtFixation,jsons/v1_VE1000_randls_20_rotated.json,http://54.235.29.9/FacialAge/BNav_EC2/DepthDuration/v2_depth_duration_MTurk/v2_DepthDuration_HTML.html#309,309,980,197,640,360,8-29-2022,14-58-46,146,depth_duration_stimuli/001032_2014-06-08_13-23-17_260595134347_rgbf000021-resize_3/001032_2014-06-08_13-23-17_260595134347_rgbf000021-resize_3-target.png,1000,3.2725,6.0,34981,997,feet,jsons/v1_VE1000_randls_20_rotated.json,1276862,1618268,27,Man
146,561501,DepthScenes,duration_manipulation_targetAtFixation,jsons/v1_VE1000_randls_20_rotated.json,http://54.235.29.9/FacialAge/BNav_EC2/DepthDuration/v2_depth_duration_MTurk/v2_DepthDuration_HTML.html#309,309,980,197,640,360,8-29-2022,14-58-46,147,depth_duration_stimuli/001059_2014-06-08_21-53-27_260595134347_rgbf000061-resize_4/001059_2014-06-08_21-53-27_260595134347_rgbf000061-resize_4-target.png,1000,2.4185,7.0,15299,992,feet,jsons/v1_VE1000_randls_20_rotated.json,1276862,1618268,27,Man
147,561501,DepthScenes,duration_manipulation_targetAtFixation,jsons/v1_VE1000_randls_20_rotated.json,http://54.235.29.9/FacialAge/BNav_EC2/DepthDuration/v2_depth_duration_MTurk/v2_DepthDuration_HTML.html#309,309,980,197,640,360,8-29-2022,14-58-46,148,depth_duration_stimuli/000502_2014-06-08_23-02-32_260595134347_rgbf000063-resize_4/000502_2014-06-08_23-02-32_260595134347_rgbf000063-resize_4-target.png,1000,2.431,5.5,7042,993,feet,jsons/v1_VE1000_randls_20_rotated.json,1276862,1618268,27,Man
148,561501,DepthScenes,duration_manipulation_targetAtFixation,jsons/v1_VE1000_randls_20_rotated.json,http://54.235.29.9/FacialAge/BNav_EC2/DepthDuration/v2_depth_duration_MTurk/v2_DepthDuration_HTML.html#309,309,980,197,640,360,8-29-2022,14-58-46,149,depth_duration_stimuli/001199_2014-06-17_16-03-48_260595134347_rgbf000077-resize_0/001199_2014-06-17_16-03-48_260595134347_rgbf000077-resize_0-target.png,1000,3.4375,5.5,7425,993,feet,jsons/v1_VE1000_randls_20_rotated.json,1276862,1618268,27,Man
149,561501,DepthScenes,duration_manipulation_targetAtFixation,jsons/v1_VE1000_randls_20_rotated.json,http://54.235.29.9/FacialAge/BNav_EC2/DepthDuration/v2_depth_duration_MTurk/v2_DepthDuration_HTML.html#309,309,980,197,640,360,8-29-2022,14-58-46,150,depth_duration_stimuli/001516_2014-06-20_16-25-09_260595134347_rgbf000076-resize_2/001516_2014-06-20_16-25-09_260595134347_rgbf000076-resize_2-target.png,1000,1.7445,7.0,8667,997,feet,jsons/v1_VE1000_randls_20_rotated.json,1276862,1618268,27,Man
150,561501,DepthScenes,duration_manipulation_targetAtFixation,jsons/v1_VE1000_randls_20_rotated.json,http://54.235.29.9/FacialAge/BNav_EC2/DepthDuration/v2_depth_duration_MTurk/v2_DepthDuration_HTML.html#309,309,980,197,640,360,8-29-2022,14-58-46,151,depth_duration_stimuli/002118_2014-06-25_20-32-08_260595134347_rgbf000078-resize_1/002118_2014-06-25_20-32-08_260595134347_rgbf000078-resize_1-target.png,1000,2.6460000000000004,5.5,16908,994,feet,jsons/v1_VE1000_randls_20_rotated.json,1276862,1618268,27,Man
151,561501,DepthScenes,duration_manipulation_targetAtFixation,jsons/v1_VE1000_randls_20_rotated.json,http://54.235.29.9/FacialAge/BNav_EC2/DepthDuration/v2_depth_duration_MTurk/v2_DepthDuration_HTML.html#309,309,980,197,640,360,8-29-2022,14-58-46,152,depth_duration_stimuli/000569_2014-06-09_22-51-47_260595134347_rgbf000141-resize_3/000569_2014-06-09_22-51-47_260595134347_rgbf000141-resize-original.jpg,1000,4.512,6.5,8776,991,feet,jsons/v1_VE1000_randls_20_rotated.json,1276862,1618268,27,Man
152,561501,DepthScenes,duration_manipulation_targetAtFixation,jsons/v1_VE1000_randls_20_rotated.json,http://54.235.29.9/FacialAge/BNav_EC2/DepthDuration/v2_depth_duration_MTurk/v2_DepthDuration_HTML.html#309,309,980,197,640,360,8-29-2022,14-58-46,153,depth_duration_stimuli/001100_2014-06-15_17-46-26_260595134347_rgbf000225-resize_2/001100_2014-06-15_17-46-26_260595134347_rgbf000225-resize_2-target.png,1000,2.24,4.5,8486,993,feet,jsons/v1_VE1000_randls_20_rotated.json,1276862,1618268,27,Man
153,561501,DepthScenes,duration_manipulation_targetAtFixation,jsons/v1_VE1000_randls_20_rotated.json,http://54.235.29.9/FacialAge/BNav_EC2/DepthDuration/v2_depth_duration_MTurk/v2_DepthDuration_HTML.html#309,309,980,197,640,360,8-29-2022,14-58-46,154,depth_duration_stimuli/002784_2014-06-22_19-26-30_094959634447_rgbf000083-resize_3/002784_2014-06-22_19-26-30_094959634447_rgbf000083-resize_3-target.png,1000,1.8046666666667,6.0,7061,992,feet,jsons/v1_VE1000_randls_20_rotated.json,1276862,1618268,27,Man
154,561501,DepthScenes,duration_manipulation_targetAtFixation,jsons/v1_VE1000_randls_20_rotated.json,http://54.235.29.9/FacialAge/BNav_EC2/DepthDuration/v2_depth_duration_MTurk/v2_DepthDuration_HTML.html#309,309,980,197,640,360,8-29-2022,14-58-46,155,depth_duration_stimuli/003587_2014-05-23_16-48-02_094959634447_rgbf002384-resize_2/003587_2014-05-23_16-48-02_094959634447_rgbf002384-resize_2-target.png,1000,1.357,3.5,11834,993,feet,jsons/v1_VE1000_randls_20_rotated.json,1276862,1618268,27,Man
155,561501,DepthScenes,duration_manipulation_targetAtFixation,jsons/v1_VE1000_randls_20_rotated.json,http://54.235.29.9/FacialAge/BNav_EC2/DepthDuration/v2_depth_duration_MTurk/v2_DepthDuration_HTML.html#309,309,980,197,640,360,8-29-2022,14-58-46,156,depth_duration_stimuli/001167_2014-06-17_15-38-07_260595134347_rgbf000108-resize_0/001167_2014-06-17_15-38-07_260595134347_rgbf000108-resize_0-target.png,1000,1.8505,4.0,4716,993,feet,jsons/v1_VE1000_randls_20_rotated.json,1276862,1618268,27,Man
156,561501,DepthScenes,duration_manipulation_targetAtFixation,jsons/v1_VE1000_randls_20_rotated.json,http://54.235.29.9/FacialAge/BNav_EC2/DepthDuration/v2_depth_duration_MTurk/v2_DepthDuration_HTML.html#309,309,980,197,640,360,8-29-2022,14-58-46,157,depth_duration_stimuli/002949_2014-06-26_15-57-42_094959634447_rgbf000079-resize_1/002949_2014-06-26_15-57-42_094959634447_rgbf000079-resize_1-target.png,1000,1.8915,5.0,23895,994,feet,jsons/v1_VE1000_randls_20_rotated.json,1276862,1618268,27,Man
157,561501,DepthScenes,duration_manipulation_targetAtFixation,jsons/v1_VE1000_randls_20_rotated.json,http://54.235.29.9/FacialAge/BNav_EC2/DepthDuration/v2_depth_duration_MTurk/v2_DepthDuration_HTML.html#309,309,980,197,640,360,8-29-2022,14-58-46,158,depth_duration_stimuli/000522_2014-06-08_13-35-06_260595134347_rgbf000244-resize_1/000522_2014-06-08_13-35-06_260595134347_rgbf000244-resize_1-target.png,1000,2.3715,6.0,8831,993,feet,jsons/v1_VE1000_randls_20_rotated.json,1276862,1618268,27,Man
158,561501,DepthScenes,duration_manipulation_targetAtFixation,jsons/v1_VE1000_randls_20_rotated.json,http://54.235.29.9/FacialAge/BNav_EC2/DepthDuration/v2_depth_duration_MTurk/v2_DepthDuration_HTML.html#309,309,980,197,640,360,8-29-2022,14-58-46,159,depth_duration_stimuli/002758_2014-06-22_19-11-20_094959634447_rgbf000128-resize_1/002758_2014-06-22_19-11-20_094959634447_rgbf000128-resize_1-target.png,1000,2.555,6.0,42547,993,feet,jsons/v1_VE1000_randls_20_rotated.json,1276862,1618268,27,Man
159,561501,DepthScenes,duration_manipulation_targetAtFixation,jsons/v1_VE1000_randls_20_rotated.json,http://54.235.29.9/FacialAge/BNav_EC2/DepthDuration/v2_depth_duration_MTurk/v2_DepthDuration_HTML.html#309,309,980,197,640,360,8-29-2022,14-58-46,160,depth_duration_stimuli/002630_2014-06-24_14-47-50_094959634447_rgbf000055-resize_1/002630_2014-06-24_14-47-50_094959634447_rgbf000055-resize_1-target.png,1000,3.0095,12.0,6113,995,feet,jsons/v1_VE1000_randls_20_rotated.json,1276862,1618268,27,Man
160,561501,DepthScenes,duration_manipulation_targetAtFixation,jsons/v1_VE1000_randls_20_rotated.json,http://54.235.29.9/FacialAge/BNav_EC2/DepthDuration/v2_depth_duration_MTurk/v2_DepthDuration_HTML.html#309,309,980,197,640,360,8-29-2022,14-58-46,161,depth_duration_stimuli/003048_2014-06-15_13-49-43_094959634447_rgbf000150-resize_1/003048_2014-06-15_13-49-43_094959634447_rgbf000150-resize_1-target.png,1000,4.0035,13.0,4887,994,feet,jsons/v1_VE1000_randls_20_rotated.json,1276862,1618268,27,Man
161,561501,DepthScenes,duration_manipulation_targetAtFixation,jsons/v1_VE1000_randls_20_rotated.json,http://54.235.29.9/FacialAge/BNav_EC2/DepthDuration/v2_depth_duration_MTurk/v2_DepthDuration_HTML.html#309,309,980,197,640,360,8-29-2022,14-58-46,162,depth_duration_stimuli/002043_2014-06-24_20-29-38_260595134347_rgbf000039-resize_4/002043_2014-06-24_20-29-38_260595134347_rgbf000039-resize_4-target.png,1000,2.8435,14.0,5372,993,feet,jsons/v1_VE1000_randls_20_rotated.json,1276862,1618268,27,Man
162,561501,DepthScenes,duration_manipulation_targetAtFixation,jsons/v1_VE1000_randls_20_rotated.json,http://54.235.29.9/FacialAge/BNav_EC2/DepthDuration/v2_depth_duration_MTurk/v2_DepthDuration_HTML.html#309,309,980,197,640,360,8-29-2022,14-58-46,163,depth_duration_stimuli/001136_2014-06-17_15-19-41_260595134347_rgbf000076-resize_3/001136_2014-06-17_15-19-41_260595134347_rgbf000076-resize_3-target.png,1000,1.8655,6.0,4658,993,feet,jsons/v1_VE1000_randls_20_rotated.json,1276862,1618268,27,Man
163,561501,DepthScenes,duration_manipulation_targetAtFixation,jsons/v1_VE1000_randls_20_rotated.json,http://54.235.29.9/FacialAge/BNav_EC2/DepthDuration/v2_depth_duration_MTurk/v2_DepthDuration_HTML.html#309,309,980,197,640,360,8-29-2022,14-58-46,164,depth_duration_stimuli/001164_2014-06-17_15-35-46_260595134347_rgbf000085-resize_3/001164_2014-06-17_15-35-46_260595134347_rgbf000085-resize_3-target.png,1000,2.354,6.5,6290,987,feet,jsons/v1_VE1000_randls_20_rotated.json,1276862,1618268,27,Man
