,subjID,experimentName,versionName,sequenceName,url,selected_row,windowWidth,windowHeight,screenWidth,screenHeight,startDate,startTime,trial,stimulus,duration,actual_depth,depth_estimate,trial_RT,log_sceneDuration,unitSelection,seq_filepath,experimentTime,totalTime,age,gender
0,562953,DepthScenes,duration_manipulation_targetAtFixation,jsons/v1_VE1000_randls_13_rotated.json,http://54.235.29.9/FacialAge/BNav_EC2/DepthDuration/v2_depth_duration_MTurk/v2_DepthDuration_HTML.html#49,49,1280,720,1280,720,8-22-2022,5-8-28,1,depth_duration_stimuli/003587_2014-05-23_16-48-02_094959634447_rgbf002384-resize_2/003587_2014-05-23_16-48-02_094959634447_rgbf002384-resize_2-target.png,1000,1.357,1.5,5269,1010,feet,jsons/v1_VE1000_randls_13_rotated.json,694643,930353,37,Man
1,562953,DepthScenes,duration_manipulation_targetAtFixation,jsons/v1_VE1000_randls_13_rotated.json,http://54.235.29.9/FacialAge/BNav_EC2/DepthDuration/v2_depth_duration_MTurk/v2_DepthDuration_HTML.html#49,49,1280,720,1280,720,8-22-2022,5-8-28,2,depth_duration_stimuli/001167_2014-06-17_15-38-07_260595134347_rgbf000108-resize_0/001167_2014-06-17_15-38-07_260595134347_rgbf000108-resize_0-target.png,1000,1.8505,2.0,4384,997,feet,jsons/v1_VE1000_randls_13_rotated.json,694643,930353,37,Man
2,562953,DepthScenes,duration_manipulation_targetAtFixation,jsons/v1_VE1000_randls_13_rotated.json,http://54.235.29.9/FacialAge/BNav_EC2/DepthDuration/v2_depth_duration_MTurk/v2_DepthDuration_HTML.html#49,49,1280,720,1280,720,8-22-2022,5-8-28,3,depth_duration_stimuli/002545_2014-06-24_13-38-53_094959634447_rgbf000080-resize_4/002545_2014-06-24_13-38-53_094959634447_rgbf000080-resize_4-target.png,1000,1.9205,3.0,8923,1001,feet,jsons/v1_VE1000_randls_13_rotated.json,694643,930353,37,Man
3,562953,DepthScenes,duration_manipulation_targetAtFixation,jsons/v1_VE1000_randls_13_rotated.json,http://54.235.29.9/FacialAge/BNav_EC2/DepthDuration/v2_depth_duration_MTurk/v2_DepthDuration_HTML.html#49,49,1280,720,1280,720,8-22-2022,5-8-28,4,depth_duration_stimuli/001092_2014-06-15_17-34-58_260595134347_rgbf000171-resize_3/001092_2014-06-15_17-34-58_260595134347_rgbf000171-resize_3-target.png,1000,2.6935,2.5,5333,1000,feet,jsons/v1_VE1000_randls_13_rotated.json,694643,930353,37,Man
4,562953,DepthScenes,duration_manipulation_targetAtFixation,jsons/v1_VE1000_randls_13_rotated.json,http://54.235.29.9/FacialAge/BNav_EC2/DepthDuration/v2_depth_duration_MTurk/v2_DepthDuration_HTML.html#49,49,1280,720,1280,720,8-22-2022,5-8-28,5,depth_duration_stimuli/002875_2014-06-01_15-19-00_094959634447_rgbf000151-resize_1/002875_2014-06-01_15-19-00_094959634447_rgbf000151-resize_1-target.png,1000,1.9675,3.0,4011,989,feet,jsons/v1_VE1000_randls_13_rotated.json,694643,930353,37,Man
5,562953,DepthScenes,duration_manipulation_targetAtFixation,jsons/v1_VE1000_randls_13_rotated.json,http://54.235.29.9/FacialAge/BNav_EC2/DepthDuration/v2_depth_duration_MTurk/v2_DepthDuration_HTML.html#49,49,1280,720,1280,720,8-22-2022,5-8-28,6,depth_duration_stimuli/001011_2014-06-08_23-18-54_260595134347_rgbf000044-resize_4/001011_2014-06-08_23-18-54_260595134347_rgbf000044-resize_4-target.png,1000,2.4730000000000003,5.0,4234,997,feet,jsons/v1_VE1000_randls_13_rotated.json,694643,930353,37,Man
6,562953,DepthScenes,duration_manipulation_targetAtFixation,jsons/v1_VE1000_randls_13_rotated.json,http://54.235.29.9/FacialAge/BNav_EC2/DepthDuration/v2_depth_duration_MTurk/v2_DepthDuration_HTML.html#49,49,1280,720,1280,720,8-22-2022,5-8-28,7,depth_duration_stimuli/000409_2014-06-04_19-23-33_260595134347_rgbf000067-resize_0/000409_2014-06-04_19-23-33_260595134347_rgbf000067-resize_0-target.png,1000,3.7335,5.0,4551,995,feet,jsons/v1_VE1000_randls_13_rotated.json,694643,930353,37,Man
7,562953,DepthScenes,duration_manipulation_targetAtFixation,jsons/v1_VE1000_randls_13_rotated.json,http://54.235.29.9/FacialAge/BNav_EC2/DepthDuration/v2_depth_duration_MTurk/v2_DepthDuration_HTML.html#49,49,1280,720,1280,720,8-22-2022,5-8-28,8,depth_duration_stimuli/002663_2014-06-13_15-50-26_094959634447_rgbf000075-resize_1/002663_2014-06-13_15-50-26_094959634447_rgbf000075-resize_1-target.png,1000,4.7495,8.0,4962,1005,feet,jsons/v1_VE1000_randls_13_rotated.json,694643,930353,37,Man
8,562953,DepthScenes,duration_manipulation_targetAtFixation,jsons/v1_VE1000_randls_13_rotated.json,http://54.235.29.9/FacialAge/BNav_EC2/DepthDuration/v2_depth_duration_MTurk/v2_DepthDuration_HTML.html#49,49,1280,720,1280,720,8-22-2022,5-8-28,9,depth_duration_stimuli/003010_2014-06-15_12-54-35_094959634447_rgbf000112-resize_0/003010_2014-06-15_12-54-35_094959634447_rgbf000112-resize_0-target.png,1000,3.1185,8.0,5500,994,feet,jsons/v1_VE1000_randls_13_rotated.json,694643,930353,37,Man
9,562953,DepthScenes,duration_manipulation_targetAtFixation,jsons/v1_VE1000_randls_13_rotated.json,http://54.235.29.9/FacialAge/BNav_EC2/DepthDuration/v2_depth_duration_MTurk/v2_DepthDuration_HTML.html#49,49,1280,720,1280,720,8-22-2022,5-8-28,10,depth_duration_stimuli/001810_2014-06-26_20-51-35_260595134347_rgbf000040-resize_3/001810_2014-06-26_20-51-35_260595134347_rgbf000040-resize_3-target.png,1000,2.2525,3.0,3757,1000,feet,jsons/v1_VE1000_randls_13_rotated.json,694643,930353,37,Man
10,562953,DepthScenes,duration_manipulation_targetAtFixation,jsons/v1_VE1000_randls_13_rotated.json,http://54.235.29.9/FacialAge/BNav_EC2/DepthDuration/v2_depth_duration_MTurk/v2_DepthDuration_HTML.html#49,49,1280,720,1280,720,8-22-2022,5-8-28,11,depth_duration_stimuli/002467_2014-06-28_20-38-07_260595134347_rgbf000026-resize_2/002467_2014-06-28_20-38-07_260595134347_rgbf000026-resize_2-target.png,1000,4.742,10.0,4843,990,feet,jsons/v1_VE1000_randls_13_rotated.json,694643,930353,37,Man
11,562953,DepthScenes,duration_manipulation_targetAtFixation,jsons/v1_VE1000_randls_13_rotated.json,http://54.235.29.9/FacialAge/BNav_EC2/DepthDuration/v2_depth_duration_MTurk/v2_DepthDuration_HTML.html#49,49,1280,720,1280,720,8-22-2022,5-8-28,12,depth_duration_stimuli/002570_2014-06-24_13-59-54_094959634447_rgbf000059-resize_0/002570_2014-06-24_13-59-54_094959634447_rgbf000059-resize_0-target.png,1000,4.037,6.0,4148,999,feet,jsons/v1_VE1000_randls_13_rotated.json,694643,930353,37,Man
12,562953,DepthScenes,duration_manipulation_targetAtFixation,jsons/v1_VE1000_randls_13_rotated.json,http://54.235.29.9/FacialAge/BNav_EC2/DepthDuration/v2_depth_duration_MTurk/v2_DepthDuration_HTML.html#49,49,1280,720,1280,720,8-22-2022,5-8-28,13,depth_duration_stimuli/000927_2014-06-09_16-32-30_260595134347_rgbf000123-resize_3/000927_2014-06-09_16-32-30_260595134347_rgbf000123-resize_3-target.png,1000,2.6785,5.0,4249,1004,feet,jsons/v1_VE1000_randls_13_rotated.json,694643,930353,37,Man
13,562953,DepthScenes,duration_manipulation_targetAtFixation,jsons/v1_VE1000_randls_13_rotated.json,http://54.235.29.9/FacialAge/BNav_EC2/DepthDuration/v2_depth_duration_MTurk/v2_DepthDuration_HTML.html#49,49,1280,720,1280,720,8-22-2022,5-8-28,14,depth_duration_stimuli/001110_2014-06-15_17-25-28_260595134347_rgbf000150-resize_1/001110_2014-06-15_17-25-28_260595134347_rgbf000150-resize_1-target.png,1000,1.7115,3.5,5792,1006,feet,jsons/v1_VE1000_randls_13_rotated.json,694643,930353,37,Man
14,562953,DepthScenes,duration_manipulation_targetAtFixation,jsons/v1_VE1000_randls_13_rotated.json,http://54.235.29.9/FacialAge/BNav_EC2/DepthDuration/v2_depth_duration_MTurk/v2_DepthDuration_HTML.html#49,49,1280,720,1280,720,8-22-2022,5-8-28,15,depth_duration_stimuli/002805_2014-06-22_19-54-03_094959634447_rgbf000079-resize_1/002805_2014-06-22_19-54-03_094959634447_rgbf000079-resize_1-target.png,1000,3.1439999999999997,8.0,4293,1010,feet,jsons/v1_VE1000_randls_13_rotated.json,694643,930353,37,Man
15,562953,DepthScenes,duration_manipulation_targetAtFixation,jsons/v1_VE1000_randls_13_rotated.json,http://54.235.29.9/FacialAge/BNav_EC2/DepthDuration/v2_depth_duration_MTurk/v2_DepthDuration_HTML.html#49,49,1280,720,1280,720,8-22-2022,5-8-28,16,depth_duration_stimuli/000906_2014-06-08_13-35-43_260595134347_rgbf000155-resize_1/000906_2014-06-08_13-35-43_260595134347_rgbf000155-resize_1-target.png,1000,2.8489999999999998,8.0,5006,996,feet,jsons/v1_VE1000_randls_13_rotated.json,694643,930353,37,Man
16,562953,DepthScenes,duration_manipulation_targetAtFixation,jsons/v1_VE1000_randls_13_rotated.json,http://54.235.29.9/FacialAge/BNav_EC2/DepthDuration/v2_depth_duration_MTurk/v2_DepthDuration_HTML.html#49,49,1280,720,1280,720,8-22-2022,5-8-28,17,depth_duration_stimuli/001828_2014-06-26_21-40-03_260595134347_rgbf000024-resize_0/001828_2014-06-26_21-40-03_260595134347_rgbf000024-resize_0-target.png,1000,4.8260000000000005,10.0,6958,993,feet,jsons/v1_VE1000_randls_13_rotated.json,694643,930353,37,Man
17,562953,DepthScenes,duration_manipulation_targetAtFixation,jsons/v1_VE1000_randls_13_rotated.json,http://54.235.29.9/FacialAge/BNav_EC2/DepthDuration/v2_depth_duration_MTurk/v2_DepthDuration_HTML.html#49,49,1280,720,1280,720,8-22-2022,5-8-28,18,depth_duration_stimuli/000009_2014-05-26_14-32-05_260595134347_rgbf000034-resize_3/000009_2014-05-26_14-32-05_260595134347_rgbf000034-resize_3-target.png,1000,3.8715,9.0,5189,987,feet,jsons/v1_VE1000_randls_13_rotated.json,694643,930353,37,Man
18,562953,DepthScenes,duration_manipulation_targetAtFixation,jsons/v1_VE1000_randls_13_rotated.json,http://54.235.29.9/FacialAge/BNav_EC2/DepthDuration/v2_depth_duration_MTurk/v2_DepthDuration_HTML.html#49,49,1280,720,1280,720,8-22-2022,5-8-28,19,depth_duration_stimuli/001498_2014-06-19_17-45-14_260595134347_rgbf000129-resize_4/001498_2014-06-19_17-45-14_260595134347_rgbf000129-resize-original.jpg,1000,1.4075,0.0,3439,1006,feet,jsons/v1_VE1000_randls_13_rotated.json,694643,930353,37,Man
19,562953,DepthScenes,duration_manipulation_targetAtFixation,jsons/v1_VE1000_randls_13_rotated.json,http://54.235.29.9/FacialAge/BNav_EC2/DepthDuration/v2_depth_duration_MTurk/v2_DepthDuration_HTML.html#49,49,1280,720,1280,720,8-22-2022,5-8-28,20,depth_duration_stimuli/002209_2014-06-28_18-36-10_260595134347_rgbf000051-resize_1/002209_2014-06-28_18-36-10_260595134347_rgbf000051-resize_1-target.png,1000,2.057,3.5,4063,995,feet,jsons/v1_VE1000_randls_13_rotated.json,694643,930353,37,Man
20,562953,DepthScenes,duration_manipulation_targetAtFixation,jsons/v1_VE1000_randls_13_rotated.json,http://54.235.29.9/FacialAge/BNav_EC2/DepthDuration/v2_depth_duration_MTurk/v2_DepthDuration_HTML.html#49,49,1280,720,1280,720,8-22-2022,5-8-28,21,depth_duration_stimuli/002763_2014-06-22_19-13-10_094959634447_rgbf000075-resize_4/002763_2014-06-22_19-13-10_094959634447_rgbf000075-resize_4-target.png,1000,1.68375,2.5,3973,1001,feet,jsons/v1_VE1000_randls_13_rotated.json,694643,930353,37,Man
21,562953,DepthScenes,duration_manipulation_targetAtFixation,jsons/v1_VE1000_randls_13_rotated.json,http://54.235.29.9/FacialAge/BNav_EC2/DepthDuration/v2_depth_duration_MTurk/v2_DepthDuration_HTML.html#49,49,1280,720,1280,720,8-22-2022,5-8-28,22,depth_duration_stimuli/002678_2014-06-13_16-15-32_094959634447_rgbf000151-resize_6/002678_2014-06-13_16-15-32_094959634447_rgbf000151-resize_6-target.png,1000,2.1830000000000003,5.0,3855,998,feet,jsons/v1_VE1000_randls_13_rotated.json,694643,930353,37,Man
22,562953,DepthScenes,duration_manipulation_targetAtFixation,jsons/v1_VE1000_randls_13_rotated.json,http://54.235.29.9/FacialAge/BNav_EC2/DepthDuration/v2_depth_duration_MTurk/v2_DepthDuration_HTML.html#49,49,1280,720,1280,720,8-22-2022,5-8-28,23,depth_duration_stimuli/000368_2014-06-09_15-53-01_260595134347_rgbf000155-resize_2/000368_2014-06-09_15-53-01_260595134347_rgbf000155-resize_2-target.png,1000,2.4859999999999998,4.5,5171,996,feet,jsons/v1_VE1000_randls_13_rotated.json,694643,930353,37,Man
23,562953,DepthScenes,duration_manipulation_targetAtFixation,jsons/v1_VE1000_randls_13_rotated.json,http://54.235.29.9/FacialAge/BNav_EC2/DepthDuration/v2_depth_duration_MTurk/v2_DepthDuration_HTML.html#49,49,1280,720,1280,720,8-22-2022,5-8-28,24,depth_duration_stimuli/003228_2014-05-14_13-42-35_094959634447_rgbf000101-resize_1/003228_2014-05-14_13-42-35_094959634447_rgbf000101-resize_1-target.png,1000,1.9680000000000002,3.0,3808,988,feet,jsons/v1_VE1000_randls_13_rotated.json,694643,930353,37,Man
24,562953,DepthScenes,duration_manipulation_targetAtFixation,jsons/v1_VE1000_randls_13_rotated.json,http://54.235.29.9/FacialAge/BNav_EC2/DepthDuration/v2_depth_duration_MTurk/v2_DepthDuration_HTML.html#49,49,1280,720,1280,720,8-22-2022,5-8-28,25,depth_duration_stimuli/002600_2014-06-24_14-27-04_094959634447_rgbf000074-resize_2/002600_2014-06-24_14-27-04_094959634447_rgbf000074-resize_2-target.png,1000,2.7575,6.0,4724,1002,feet,jsons/v1_VE1000_randls_13_rotated.json,694643,930353,37,Man
25,562953,DepthScenes,duration_manipulation_targetAtFixation,jsons/v1_VE1000_randls_13_rotated.json,http://54.235.29.9/FacialAge/BNav_EC2/DepthDuration/v2_depth_duration_MTurk/v2_DepthDuration_HTML.html#49,49,1280,720,1280,720,8-22-2022,5-8-28,26,depth_duration_stimuli/001450_2014-06-19_17-02-03_260595134347_rgbf000203-resize_4/001450_2014-06-19_17-02-03_260595134347_rgbf000203-resize_4-target.png,1000,4.0106666666667,8.0,6297,1004,feet,jsons/v1_VE1000_randls_13_rotated.json,694643,930353,37,Man
26,562953,DepthScenes,duration_manipulation_targetAtFixation,jsons/v1_VE1000_randls_13_rotated.json,http://54.235.29.9/FacialAge/BNav_EC2/DepthDuration/v2_depth_duration_MTurk/v2_DepthDuration_HTML.html#49,49,1280,720,1280,720,8-22-2022,5-8-28,27,depth_duration_stimuli/001449_2014-06-19_17-01-27_260595134347_rgbf000116-resize_2/001449_2014-06-19_17-01-27_260595134347_rgbf000116-resize_2-target.png,1000,3.452,6.0,5759,1001,feet,jsons/v1_VE1000_randls_13_rotated.json,694643,930353,37,Man
27,562953,DepthScenes,duration_manipulation_targetAtFixation,jsons/v1_VE1000_randls_13_rotated.json,http://54.235.29.9/FacialAge/BNav_EC2/DepthDuration/v2_depth_duration_MTurk/v2_DepthDuration_HTML.html#49,49,1280,720,1280,720,8-22-2022,5-8-28,28,depth_duration_stimuli/003079_2014-06-15_15-18-20_094959634447_rgbf000152-resize_8/003079_2014-06-15_15-18-20_094959634447_rgbf000152-resize_8-target.png,1000,2.8775,6.0,3418,999,feet,jsons/v1_VE1000_randls_13_rotated.json,694643,930353,37,Man
28,562953,DepthScenes,duration_manipulation_targetAtFixation,jsons/v1_VE1000_randls_13_rotated.json,http://54.235.29.9/FacialAge/BNav_EC2/DepthDuration/v2_depth_duration_MTurk/v2_DepthDuration_HTML.html#49,49,1280,720,1280,720,8-22-2022,5-8-28,29,depth_duration_stimuli/000506_2014-06-08_23-21-00_260595134347_rgbf000070-resize_7/000506_2014-06-08_23-21-00_260595134347_rgbf000070-resize_7-target.png,1000,4.0585,7.0,4038,1000,feet,jsons/v1_VE1000_randls_13_rotated.json,694643,930353,37,Man
29,562953,DepthScenes,duration_manipulation_targetAtFixation,jsons/v1_VE1000_randls_13_rotated.json,http://54.235.29.9/FacialAge/BNav_EC2/DepthDuration/v2_depth_duration_MTurk/v2_DepthDuration_HTML.html#49,49,1280,720,1280,720,8-22-2022,5-8-28,30,depth_duration_stimuli/002072_2014-06-24_21-48-06_260595134347_rgbf000115-resize_0/002072_2014-06-24_21-48-06_260595134347_rgbf000115-resize-original.jpg,1000,4.702,0.0,2689,1002,feet,jsons/v1_VE1000_randls_13_rotated.json,694643,930353,37,Man
30,562953,DepthScenes,duration_manipulation_targetAtFixation,jsons/v1_VE1000_randls_13_rotated.json,http://54.235.29.9/FacialAge/BNav_EC2/DepthDuration/v2_depth_duration_MTurk/v2_DepthDuration_HTML.html#49,49,1280,720,1280,720,8-22-2022,5-8-28,31,depth_duration_stimuli/000191_2014-05-12_17-07-38_260595134347_rgbf000199-resize_0/000191_2014-05-12_17-07-38_260595134347_rgbf000199-resize_0-target.png,1000,3.7995,9.0,3297,992,feet,jsons/v1_VE1000_randls_13_rotated.json,694643,930353,37,Man
31,562953,DepthScenes,duration_manipulation_targetAtFixation,jsons/v1_VE1000_randls_13_rotated.json,http://54.235.29.9/FacialAge/BNav_EC2/DepthDuration/v2_depth_duration_MTurk/v2_DepthDuration_HTML.html#49,49,1280,720,1280,720,8-22-2022,5-8-28,32,depth_duration_stimuli/000493_2014-06-09_21-01-18_260595134347_rgbf000196-resize_3/000493_2014-06-09_21-01-18_260595134347_rgbf000196-resize_3-target.png,1000,3.44,7.0,2889,978,feet,jsons/v1_VE1000_randls_13_rotated.json,694643,930353,37,Man
32,562953,DepthScenes,duration_manipulation_targetAtFixation,jsons/v1_VE1000_randls_13_rotated.json,http://54.235.29.9/FacialAge/BNav_EC2/DepthDuration/v2_depth_duration_MTurk/v2_DepthDuration_HTML.html#49,49,1280,720,1280,720,8-22-2022,5-8-28,33,depth_duration_stimuli/001617_2014-06-20_11-35-32_260595134347_rgbf000066-resize_1/001617_2014-06-20_11-35-32_260595134347_rgbf000066-resize_1-target.png,1000,3.7910000000000004,9.0,2931,999,feet,jsons/v1_VE1000_randls_13_rotated.json,694643,930353,37,Man
33,562953,DepthScenes,duration_manipulation_targetAtFixation,jsons/v1_VE1000_randls_13_rotated.json,http://54.235.29.9/FacialAge/BNav_EC2/DepthDuration/v2_depth_duration_MTurk/v2_DepthDuration_HTML.html#49,49,1280,720,1280,720,8-22-2022,5-8-28,34,depth_duration_stimuli/001806_2014-06-26_20-50-20_260595134347_rgbf000091-resize_1/001806_2014-06-26_20-50-20_260595134347_rgbf000091-resize_1-target.png,1000,2.7305,3.0,2824,992,feet,jsons/v1_VE1000_randls_13_rotated.json,694643,930353,37,Man
34,562953,DepthScenes,duration_manipulation_targetAtFixation,jsons/v1_VE1000_randls_13_rotated.json,http://54.235.29.9/FacialAge/BNav_EC2/DepthDuration/v2_depth_duration_MTurk/v2_DepthDuration_HTML.html#49,49,1280,720,1280,720,8-22-2022,5-8-28,35,depth_duration_stimuli/003083_2014-06-15_15-21-03_094959634447_rgbf000063-resize_1/003083_2014-06-15_15-21-03_094959634447_rgbf000063-resize_1-target.png,1000,4.1405,10.0,4087,997,feet,jsons/v1_VE1000_randls_13_rotated.json,694643,930353,37,Man
35,562953,DepthScenes,duration_manipulation_targetAtFixation,jsons/v1_VE1000_randls_13_rotated.json,http://54.235.29.9/FacialAge/BNav_EC2/DepthDuration/v2_depth_duration_MTurk/v2_DepthDuration_HTML.html#49,49,1280,720,1280,720,8-22-2022,5-8-28,36,depth_duration_stimuli/000486_2014-06-09_20-47-20_260595134347_rgbf000143-resize_2/000486_2014-06-09_20-47-20_260595134347_rgbf000143-resize_2-target.png,1000,4.8325,12.0,3390,1000,feet,jsons/v1_VE1000_randls_13_rotated.json,694643,930353,37,Man
36,562953,DepthScenes,duration_manipulation_targetAtFixation,jsons/v1_VE1000_randls_13_rotated.json,http://54.235.29.9/FacialAge/BNav_EC2/DepthDuration/v2_depth_duration_MTurk/v2_DepthDuration_HTML.html#49,49,1280,720,1280,720,8-22-2022,5-8-28,37,depth_duration_stimuli/000502_2014-06-08_23-02-32_260595134347_rgbf000063-resize_4/000502_2014-06-08_23-02-32_260595134347_rgbf000063-resize_4-target.png,1000,2.431,5.0,3741,1006,feet,jsons/v1_VE1000_randls_13_rotated.json,694643,930353,37,Man
37,562953,DepthScenes,duration_manipulation_targetAtFixation,jsons/v1_VE1000_randls_13_rotated.json,http://54.235.29.9/FacialAge/BNav_EC2/DepthDuration/v2_depth_duration_MTurk/v2_DepthDuration_HTML.html#49,49,1280,720,1280,720,8-22-2022,5-8-28,38,depth_duration_stimuli/001199_2014-06-17_16-03-48_260595134347_rgbf000077-resize_0/001199_2014-06-17_16-03-48_260595134347_rgbf000077-resize_0-target.png,1000,3.4375,8.0,5692,1001,feet,jsons/v1_VE1000_randls_13_rotated.json,694643,930353,37,Man
38,562953,DepthScenes,duration_manipulation_targetAtFixation,jsons/v1_VE1000_randls_13_rotated.json,http://54.235.29.9/FacialAge/BNav_EC2/DepthDuration/v2_depth_duration_MTurk/v2_DepthDuration_HTML.html#49,49,1280,720,1280,720,8-22-2022,5-8-28,39,depth_duration_stimuli/002750_2014-06-22_19-08-03_094959634447_rgbf000094-resize_4/002750_2014-06-22_19-08-03_094959634447_rgbf000094-resize_4-target.png,1000,2.354,4.5,6482,998,feet,jsons/v1_VE1000_randls_13_rotated.json,694643,930353,37,Man
39,562953,DepthScenes,duration_manipulation_targetAtFixation,jsons/v1_VE1000_randls_13_rotated.json,http://54.235.29.9/FacialAge/BNav_EC2/DepthDuration/v2_depth_duration_MTurk/v2_DepthDuration_HTML.html#49,49,1280,720,1280,720,8-22-2022,5-8-28,40,depth_duration_stimuli/002549_2014-06-24_13-41-39_094959634447_rgbf000022-resize_3/002549_2014-06-24_13-41-39_094959634447_rgbf000022-resize_3-target.png,1000,1.476,2.0,3589,999,feet,jsons/v1_VE1000_randls_13_rotated.json,694643,930353,37,Man
40,562953,DepthScenes,duration_manipulation_targetAtFixation,jsons/v1_VE1000_randls_13_rotated.json,http://54.235.29.9/FacialAge/BNav_EC2/DepthDuration/v2_depth_duration_MTurk/v2_DepthDuration_HTML.html#49,49,1280,720,1280,720,8-22-2022,5-8-28,41,depth_duration_stimuli/002758_2014-06-22_19-11-20_094959634447_rgbf000128-resize_1/002758_2014-06-22_19-11-20_094959634447_rgbf000128-resize_1-target.png,1000,2.555,4.0,2894,1002,feet,jsons/v1_VE1000_randls_13_rotated.json,694643,930353,37,Man
41,562953,DepthScenes,duration_manipulation_targetAtFixation,jsons/v1_VE1000_randls_13_rotated.json,http://54.235.29.9/FacialAge/BNav_EC2/DepthDuration/v2_depth_duration_MTurk/v2_DepthDuration_HTML.html#49,49,1280,720,1280,720,8-22-2022,5-8-28,42,depth_duration_stimuli/002630_2014-06-24_14-47-50_094959634447_rgbf000055-resize_1/002630_2014-06-24_14-47-50_094959634447_rgbf000055-resize_1-target.png,1000,3.0095,8.0,2990,989,feet,jsons/v1_VE1000_randls_13_rotated.json,694643,930353,37,Man
42,562953,DepthScenes,duration_manipulation_targetAtFixation,jsons/v1_VE1000_randls_13_rotated.json,http://54.235.29.9/FacialAge/BNav_EC2/DepthDuration/v2_depth_duration_MTurk/v2_DepthDuration_HTML.html#49,49,1280,720,1280,720,8-22-2022,5-8-28,43,depth_duration_stimuli/000742_2014-06-08_18-48-09_260595134347_rgbf000164-resize_4/000742_2014-06-08_18-48-09_260595134347_rgbf000164-resize_4-target.png,1000,4.632,7.0,3343,993,feet,jsons/v1_VE1000_randls_13_rotated.json,694643,930353,37,Man
43,562953,DepthScenes,duration_manipulation_targetAtFixation,jsons/v1_VE1000_randls_13_rotated.json,http://54.235.29.9/FacialAge/BNav_EC2/DepthDuration/v2_depth_duration_MTurk/v2_DepthDuration_HTML.html#49,49,1280,720,1280,720,8-22-2022,5-8-28,44,depth_duration_stimuli/001066_2014-06-08_22-03-20_260595134347_rgbf000066-resize_4/001066_2014-06-08_22-03-20_260595134347_rgbf000066-resize_4-target.png,1000,4.2330000000000005,10.0,3369,1001,feet,jsons/v1_VE1000_randls_13_rotated.json,694643,930353,37,Man
44,562953,DepthScenes,duration_manipulation_targetAtFixation,jsons/v1_VE1000_randls_13_rotated.json,http://54.235.29.9/FacialAge/BNav_EC2/DepthDuration/v2_depth_duration_MTurk/v2_DepthDuration_HTML.html#49,49,1280,720,1280,720,8-22-2022,5-8-28,45,depth_duration_stimuli/001447_2014-06-19_17-00-32_260595134347_rgbf000082-resize_5/001447_2014-06-19_17-00-32_260595134347_rgbf000082-resize_5-target.png,1000,4.13775,4.5,3927,997,feet,jsons/v1_VE1000_randls_13_rotated.json,694643,930353,37,Man
45,562953,DepthScenes,duration_manipulation_targetAtFixation,jsons/v1_VE1000_randls_13_rotated.json,http://54.235.29.9/FacialAge/BNav_EC2/DepthDuration/v2_depth_duration_MTurk/v2_DepthDuration_HTML.html#49,49,1280,720,1280,720,8-22-2022,5-8-28,46,depth_duration_stimuli/000447_2014-06-08_16-15-46_260595134347_rgbf000130-resize_1/000447_2014-06-08_16-15-46_260595134347_rgbf000130-resize_1-target.png,1000,4.479,11.0,2706,1012,feet,jsons/v1_VE1000_randls_13_rotated.json,694643,930353,37,Man
46,562953,DepthScenes,duration_manipulation_targetAtFixation,jsons/v1_VE1000_randls_13_rotated.json,http://54.235.29.9/FacialAge/BNav_EC2/DepthDuration/v2_depth_duration_MTurk/v2_DepthDuration_HTML.html#49,49,1280,720,1280,720,8-22-2022,5-8-28,47,depth_duration_stimuli/001392_2014-06-19_16-07-59_260595134347_rgbf000046-resize_1/001392_2014-06-19_16-07-59_260595134347_rgbf000046-resize_1-target.png,1000,4.135,10.0,4778,1015,feet,jsons/v1_VE1000_randls_13_rotated.json,694643,930353,37,Man
47,562953,DepthScenes,duration_manipulation_targetAtFixation,jsons/v1_VE1000_randls_13_rotated.json,http://54.235.29.9/FacialAge/BNav_EC2/DepthDuration/v2_depth_duration_MTurk/v2_DepthDuration_HTML.html#49,49,1280,720,1280,720,8-22-2022,5-8-28,48,depth_duration_stimuli/001570_2014-06-20_17-21-09_260595134347_rgbf000135-resize_4/001570_2014-06-20_17-21-09_260595134347_rgbf000135-resize_4-target.png,1000,4.467,9.5,5235,992,feet,jsons/v1_VE1000_randls_13_rotated.json,694643,930353,37,Man
48,562953,DepthScenes,duration_manipulation_targetAtFixation,jsons/v1_VE1000_randls_13_rotated.json,http://54.235.29.9/FacialAge/BNav_EC2/DepthDuration/v2_depth_duration_MTurk/v2_DepthDuration_HTML.html#49,49,1280,720,1280,720,8-22-2022,5-8-28,49,depth_duration_stimuli/001170_2014-06-17_15-43-44_260595134347_rgbf000096-resize_6/001170_2014-06-17_15-43-44_260595134347_rgbf000096-resize-original.jpg,1000,1.1909999999999998,0.0,2966,1000,feet,jsons/v1_VE1000_randls_13_rotated.json,694643,930353,37,Man
49,562953,DepthScenes,duration_manipulation_targetAtFixation,jsons/v1_VE1000_randls_13_rotated.json,http://54.235.29.9/FacialAge/BNav_EC2/DepthDuration/v2_depth_duration_MTurk/v2_DepthDuration_HTML.html#49,49,1280,720,1280,720,8-22-2022,5-8-28,50,depth_duration_stimuli/002639_2014-06-24_14-51-37_094959634447_rgbf000074-resize_4/002639_2014-06-24_14-51-37_094959634447_rgbf000074-resize_4-target.png,1000,4.0375,6.0,3040,997,feet,jsons/v1_VE1000_randls_13_rotated.json,694643,930353,37,Man
50,562953,DepthScenes,duration_manipulation_targetAtFixation,jsons/v1_VE1000_randls_13_rotated.json,http://54.235.29.9/FacialAge/BNav_EC2/DepthDuration/v2_depth_duration_MTurk/v2_DepthDuration_HTML.html#49,49,1280,720,1280,720,8-22-2022,5-8-28,51,depth_duration_stimuli/003292_2014-05-14_21-53-49_094959634447_rgbf000100-resize_2/003292_2014-05-14_21-53-49_094959634447_rgbf000100-resize_2-target.png,1000,3.4815,4.5,3901,999,feet,jsons/v1_VE1000_randls_13_rotated.json,694643,930353,37,Man
51,562953,DepthScenes,duration_manipulation_targetAtFixation,jsons/v1_VE1000_randls_13_rotated.json,http://54.235.29.9/FacialAge/BNav_EC2/DepthDuration/v2_depth_duration_MTurk/v2_DepthDuration_HTML.html#49,49,1280,720,1280,720,8-22-2022,5-8-28,52,depth_duration_stimuli/001032_2014-06-08_13-23-17_260595134347_rgbf000021-resize_3/001032_2014-06-08_13-23-17_260595134347_rgbf000021-resize_3-target.png,1000,3.2725,5.0,3928,1003,feet,jsons/v1_VE1000_randls_13_rotated.json,694643,930353,37,Man
52,562953,DepthScenes,duration_manipulation_targetAtFixation,jsons/v1_VE1000_randls_13_rotated.json,http://54.235.29.9/FacialAge/BNav_EC2/DepthDuration/v2_depth_duration_MTurk/v2_DepthDuration_HTML.html#49,49,1280,720,1280,720,8-22-2022,5-8-28,53,depth_duration_stimuli/001059_2014-06-08_21-53-27_260595134347_rgbf000061-resize_4/001059_2014-06-08_21-53-27_260595134347_rgbf000061-resize_4-target.png,1000,2.4185,4.0,3054,997,feet,jsons/v1_VE1000_randls_13_rotated.json,694643,930353,37,Man
53,562953,DepthScenes,duration_manipulation_targetAtFixation,jsons/v1_VE1000_randls_13_rotated.json,http://54.235.29.9/FacialAge/BNav_EC2/DepthDuration/v2_depth_duration_MTurk/v2_DepthDuration_HTML.html#49,49,1280,720,1280,720,8-22-2022,5-8-28,54,depth_duration_stimuli/002414_2014-06-28_20-24-58_260595134347_rgbf000067-resize_4/002414_2014-06-28_20-24-58_260595134347_rgbf000067-resize_4-target.png,1000,4.363,8.0,3869,1009,feet,jsons/v1_VE1000_randls_13_rotated.json,694643,930353,37,Man
54,562953,DepthScenes,duration_manipulation_targetAtFixation,jsons/v1_VE1000_randls_13_rotated.json,http://54.235.29.9/FacialAge/BNav_EC2/DepthDuration/v2_depth_duration_MTurk/v2_DepthDuration_HTML.html#49,49,1280,720,1280,720,8-22-2022,5-8-28,55,depth_duration_stimuli/000773_2014-06-08_22-24-54_260595134347_rgbf000093-resize_1/000773_2014-06-08_22-24-54_260595134347_rgbf000093-resize_1-target.png,1000,4.973,7.0,3095,1014,feet,jsons/v1_VE1000_randls_13_rotated.json,694643,930353,37,Man
55,562953,DepthScenes,duration_manipulation_targetAtFixation,jsons/v1_VE1000_randls_13_rotated.json,http://54.235.29.9/FacialAge/BNav_EC2/DepthDuration/v2_depth_duration_MTurk/v2_DepthDuration_HTML.html#49,49,1280,720,1280,720,8-22-2022,5-8-28,56,depth_duration_stimuli/002340_2014-06-28_20-05-46_260595134347_rgbf000113-resize_0/002340_2014-06-28_20-05-46_260595134347_rgbf000113-resize_0-target.png,1000,2.4735,5.5,3789,1003,feet,jsons/v1_VE1000_randls_13_rotated.json,694643,930353,37,Man
56,562953,DepthScenes,duration_manipulation_targetAtFixation,jsons/v1_VE1000_randls_13_rotated.json,http://54.235.29.9/FacialAge/BNav_EC2/DepthDuration/v2_depth_duration_MTurk/v2_DepthDuration_HTML.html#49,49,1280,720,1280,720,8-22-2022,5-8-28,57,depth_duration_stimuli/001016_2014-06-09_16-16-10_260595134347_rgbf000112-resize_5/001016_2014-06-09_16-16-10_260595134347_rgbf000112-resize_5-target.png,1000,1.6565,4.0,4647,999,feet,jsons/v1_VE1000_randls_13_rotated.json,694643,930353,37,Man
57,562953,DepthScenes,duration_manipulation_targetAtFixation,jsons/v1_VE1000_randls_13_rotated.json,http://54.235.29.9/FacialAge/BNav_EC2/DepthDuration/v2_depth_duration_MTurk/v2_DepthDuration_HTML.html#49,49,1280,720,1280,720,8-22-2022,5-8-28,58,depth_duration_stimuli/002637_2014-06-24_14-51-13_094959634447_rgbf000066-resize_4/002637_2014-06-24_14-51-13_094959634447_rgbf000066-resize_4-target.png,1000,1.9955,4.0,4760,990,feet,jsons/v1_VE1000_randls_13_rotated.json,694643,930353,37,Man
58,562953,DepthScenes,duration_manipulation_targetAtFixation,jsons/v1_VE1000_randls_13_rotated.json,http://54.235.29.9/FacialAge/BNav_EC2/DepthDuration/v2_depth_duration_MTurk/v2_DepthDuration_HTML.html#49,49,1280,720,1280,720,8-22-2022,5-8-28,59,depth_duration_stimuli/003534_2014-05-22_15-06-10_094959634447_rgbf000102-resize_4/003534_2014-05-22_15-06-10_094959634447_rgbf000102-resize_4-target.png,1000,1.426,2.0,2551,995,feet,jsons/v1_VE1000_randls_13_rotated.json,694643,930353,37,Man
59,562953,DepthScenes,duration_manipulation_targetAtFixation,jsons/v1_VE1000_randls_13_rotated.json,http://54.235.29.9/FacialAge/BNav_EC2/DepthDuration/v2_depth_duration_MTurk/v2_DepthDuration_HTML.html#49,49,1280,720,1280,720,8-22-2022,5-8-28,60,depth_duration_stimuli/000103_2014-05-14_22-01-17_260595134347_rgbf000152-resize_5/000103_2014-05-14_22-01-17_260595134347_rgbf000152-resize_5-target.png,1000,1.993,5.0,2916,995,feet,jsons/v1_VE1000_randls_13_rotated.json,694643,930353,37,Man
60,562953,DepthScenes,duration_manipulation_targetAtFixation,jsons/v1_VE1000_randls_13_rotated.json,http://54.235.29.9/FacialAge/BNav_EC2/DepthDuration/v2_depth_duration_MTurk/v2_DepthDuration_HTML.html#49,49,1280,720,1280,720,8-22-2022,5-8-28,61,depth_duration_stimuli/001555_2014-06-20_17-12-10_260595134347_rgbf000065-resize_4/001555_2014-06-20_17-12-10_260595134347_rgbf000065-resize_4-target.png,1000,1.633,3.0,2804,1001,feet,jsons/v1_VE1000_randls_13_rotated.json,694643,930353,37,Man
61,562953,DepthScenes,duration_manipulation_targetAtFixation,jsons/v1_VE1000_randls_13_rotated.json,http://54.235.29.9/FacialAge/BNav_EC2/DepthDuration/v2_depth_duration_MTurk/v2_DepthDuration_HTML.html#49,49,1280,720,1280,720,8-22-2022,5-8-28,62,depth_duration_stimuli/000866_2014-06-09_20-45-42_260595134347_rgbf000139-resize_1/000866_2014-06-09_20-45-42_260595134347_rgbf000139-resize_1-target.png,1000,3.2155,6.0,2998,1007,feet,jsons/v1_VE1000_randls_13_rotated.json,694643,930353,37,Man
62,562953,DepthScenes,duration_manipulation_targetAtFixation,jsons/v1_VE1000_randls_13_rotated.json,http://54.235.29.9/FacialAge/BNav_EC2/DepthDuration/v2_depth_duration_MTurk/v2_DepthDuration_HTML.html#49,49,1280,720,1280,720,8-22-2022,5-8-28,63,depth_duration_stimuli/002989_2014-06-15_12-25-03_094959634447_rgbf000150-resize_3/002989_2014-06-15_12-25-03_094959634447_rgbf000150-resize_3-target.png,1000,4.1975,10.0,4072,990,feet,jsons/v1_VE1000_randls_13_rotated.json,694643,930353,37,Man
63,562953,DepthScenes,duration_manipulation_targetAtFixation,jsons/v1_VE1000_randls_13_rotated.json,http://54.235.29.9/FacialAge/BNav_EC2/DepthDuration/v2_depth_duration_MTurk/v2_DepthDuration_HTML.html#49,49,1280,720,1280,720,8-22-2022,5-8-28,64,depth_duration_stimuli/002949_2014-06-26_15-57-42_094959634447_rgbf000079-resize_1/002949_2014-06-26_15-57-42_094959634447_rgbf000079-resize_1-target.png,1000,1.8915,4.0,2946,1002,feet,jsons/v1_VE1000_randls_13_rotated.json,694643,930353,37,Man
64,562953,DepthScenes,duration_manipulation_targetAtFixation,jsons/v1_VE1000_randls_13_rotated.json,http://54.235.29.9/FacialAge/BNav_EC2/DepthDuration/v2_depth_duration_MTurk/v2_DepthDuration_HTML.html#49,49,1280,720,1280,720,8-22-2022,5-8-28,65,depth_duration_stimuli/000522_2014-06-08_13-35-06_260595134347_rgbf000244-resize_1/000522_2014-06-08_13-35-06_260595134347_rgbf000244-resize_1-target.png,1000,2.3715,2.0,2848,1007,feet,jsons/v1_VE1000_randls_13_rotated.json,694643,930353,37,Man
65,562953,DepthScenes,duration_manipulation_targetAtFixation,jsons/v1_VE1000_randls_13_rotated.json,http://54.235.29.9/FacialAge/BNav_EC2/DepthDuration/v2_depth_duration_MTurk/v2_DepthDuration_HTML.html#49,49,1280,720,1280,720,8-22-2022,5-8-28,66,depth_duration_stimuli/001540_2014-06-20_17-01-05_260595134347_rgbf000086-resize_2/001540_2014-06-20_17-01-05_260595134347_rgbf000086-resize-original.jpg,1000,1.459,0.0,3555,999,feet,jsons/v1_VE1000_randls_13_rotated.json,694643,930353,37,Man
66,562953,DepthScenes,duration_manipulation_targetAtFixation,jsons/v1_VE1000_randls_13_rotated.json,http://54.235.29.9/FacialAge/BNav_EC2/DepthDuration/v2_depth_duration_MTurk/v2_DepthDuration_HTML.html#49,49,1280,720,1280,720,8-22-2022,5-8-28,67,depth_duration_stimuli/000734_2014-06-08_17-39-11_260595134347_rgbf000128-resize_2/000734_2014-06-08_17-39-11_260595134347_rgbf000128-resize_2-target.png,1000,4.098,4.0,3517,1003,feet,jsons/v1_VE1000_randls_13_rotated.json,694643,930353,37,Man
67,562953,DepthScenes,duration_manipulation_targetAtFixation,jsons/v1_VE1000_randls_13_rotated.json,http://54.235.29.9/FacialAge/BNav_EC2/DepthDuration/v2_depth_duration_MTurk/v2_DepthDuration_HTML.html#49,49,1280,720,1280,720,8-22-2022,5-8-28,68,depth_duration_stimuli/000739_2014-06-08_18-45-58_260595134347_rgbf000068-resize_1/000739_2014-06-08_18-45-58_260595134347_rgbf000068-resize_1-target.png,1000,3.534,7.0,2836,999,feet,jsons/v1_VE1000_randls_13_rotated.json,694643,930353,37,Man
68,562953,DepthScenes,duration_manipulation_targetAtFixation,jsons/v1_VE1000_randls_13_rotated.json,http://54.235.29.9/FacialAge/BNav_EC2/DepthDuration/v2_depth_duration_MTurk/v2_DepthDuration_HTML.html#49,49,1280,720,1280,720,8-22-2022,5-8-28,69,depth_duration_stimuli/002660_2014-06-13_15-44-18_094959634447_rgbf001878-resize_2/002660_2014-06-13_15-44-18_094959634447_rgbf001878-resize_2-target.png,1000,3.576,6.0,3016,986,feet,jsons/v1_VE1000_randls_13_rotated.json,694643,930353,37,Man
69,562953,DepthScenes,duration_manipulation_targetAtFixation,jsons/v1_VE1000_randls_13_rotated.json,http://54.235.29.9/FacialAge/BNav_EC2/DepthDuration/v2_depth_duration_MTurk/v2_DepthDuration_HTML.html#49,49,1280,720,1280,720,8-22-2022,5-8-28,70,depth_duration_stimuli/002153_2014-06-25_21-27-18_260595134347_rgbf000038-resize_5/002153_2014-06-25_21-27-18_260595134347_rgbf000038-resize_5-target.png,1000,2.505,3.5,4618,983,feet,jsons/v1_VE1000_randls_13_rotated.json,694643,930353,37,Man
70,562953,DepthScenes,duration_manipulation_targetAtFixation,jsons/v1_VE1000_randls_13_rotated.json,http://54.235.29.9/FacialAge/BNav_EC2/DepthDuration/v2_depth_duration_MTurk/v2_DepthDuration_HTML.html#49,49,1280,720,1280,720,8-22-2022,5-8-28,71,depth_duration_stimuli/001136_2014-06-17_15-19-41_260595134347_rgbf000076-resize_3/001136_2014-06-17_15-19-41_260595134347_rgbf000076-resize_3-target.png,1000,1.8655,3.0,2639,1012,feet,jsons/v1_VE1000_randls_13_rotated.json,694643,930353,37,Man
71,562953,DepthScenes,duration_manipulation_targetAtFixation,jsons/v1_VE1000_randls_13_rotated.json,http://54.235.29.9/FacialAge/BNav_EC2/DepthDuration/v2_depth_duration_MTurk/v2_DepthDuration_HTML.html#49,49,1280,720,1280,720,8-22-2022,5-8-28,72,depth_duration_stimuli/001164_2014-06-17_15-35-46_260595134347_rgbf000085-resize_3/001164_2014-06-17_15-35-46_260595134347_rgbf000085-resize_3-target.png,1000,2.354,4.5,3816,1001,feet,jsons/v1_VE1000_randls_13_rotated.json,694643,930353,37,Man
72,562953,DepthScenes,duration_manipulation_targetAtFixation,jsons/v1_VE1000_randls_13_rotated.json,http://54.235.29.9/FacialAge/BNav_EC2/DepthDuration/v2_depth_duration_MTurk/v2_DepthDuration_HTML.html#49,49,1280,720,1280,720,8-22-2022,5-8-28,73,depth_duration_stimuli/000854_2014-06-09_19-43-13_260595134347_rgbf000066-resize_0/000854_2014-06-09_19-43-13_260595134347_rgbf000066-resize_0-target.png,1000,3.068,4.0,4038,996,feet,jsons/v1_VE1000_randls_13_rotated.json,694643,930353,37,Man
73,562953,DepthScenes,duration_manipulation_targetAtFixation,jsons/v1_VE1000_randls_13_rotated.json,http://54.235.29.9/FacialAge/BNav_EC2/DepthDuration/v2_depth_duration_MTurk/v2_DepthDuration_HTML.html#49,49,1280,720,1280,720,8-22-2022,5-8-28,74,depth_duration_stimuli/000758_2014-06-08_22-05-08_260595134347_rgbf000085-resize_0/000758_2014-06-08_22-05-08_260595134347_rgbf000085-resize_0-target.png,1000,3.3810000000000002,7.0,2961,998,feet,jsons/v1_VE1000_randls_13_rotated.json,694643,930353,37,Man
74,562953,DepthScenes,duration_manipulation_targetAtFixation,jsons/v1_VE1000_randls_13_rotated.json,http://54.235.29.9/FacialAge/BNav_EC2/DepthDuration/v2_depth_duration_MTurk/v2_DepthDuration_HTML.html#49,49,1280,720,1280,720,8-22-2022,5-8-28,75,depth_duration_stimuli/000709_2014-06-08_13-51-55_260595134347_rgbf000068-resize_3/000709_2014-06-08_13-51-55_260595134347_rgbf000068-resize_3-target.png,1000,1.8030000000000002,3.0,3018,1016,feet,jsons/v1_VE1000_randls_13_rotated.json,694643,930353,37,Man
75,562953,DepthScenes,duration_manipulation_targetAtFixation,jsons/v1_VE1000_randls_13_rotated.json,http://54.235.29.9/FacialAge/BNav_EC2/DepthDuration/v2_depth_duration_MTurk/v2_DepthDuration_HTML.html#49,49,1280,720,1280,720,8-22-2022,5-8-28,76,depth_duration_stimuli/002057_2014-06-24_21-00-13_260595134347_rgbf000120-resize_1/002057_2014-06-24_21-00-13_260595134347_rgbf000120-resize_1-target.png,1000,2.967,5.0,3101,985,feet,jsons/v1_VE1000_randls_13_rotated.json,694643,930353,37,Man
76,562953,DepthScenes,duration_manipulation_targetAtFixation,jsons/v1_VE1000_randls_13_rotated.json,http://54.235.29.9/FacialAge/BNav_EC2/DepthDuration/v2_depth_duration_MTurk/v2_DepthDuration_HTML.html#49,49,1280,720,1280,720,8-22-2022,5-8-28,77,depth_duration_stimuli/000943_2014-06-09_19-31-07_260595134347_rgbf000128-resize_1/000943_2014-06-09_19-31-07_260595134347_rgbf000128-resize_1-target.png,1000,1.9765,3.0,3157,1002,feet,jsons/v1_VE1000_randls_13_rotated.json,694643,930353,37,Man
77,562953,DepthScenes,duration_manipulation_targetAtFixation,jsons/v1_VE1000_randls_13_rotated.json,http://54.235.29.9/FacialAge/BNav_EC2/DepthDuration/v2_depth_duration_MTurk/v2_DepthDuration_HTML.html#49,49,1280,720,1280,720,8-22-2022,5-8-28,78,depth_duration_stimuli/003070_2014-06-15_14-58-27_094959634447_rgbf000150-resize_3/003070_2014-06-15_14-58-27_094959634447_rgbf000150-resize_3-target.png,1000,2.9415,7.0,2936,995,feet,jsons/v1_VE1000_randls_13_rotated.json,694643,930353,37,Man
78,562953,DepthScenes,duration_manipulation_targetAtFixation,jsons/v1_VE1000_randls_13_rotated.json,http://54.235.29.9/FacialAge/BNav_EC2/DepthDuration/v2_depth_duration_MTurk/v2_DepthDuration_HTML.html#49,49,1280,720,1280,720,8-22-2022,5-8-28,79,depth_duration_stimuli/001132_2014-06-17_14-48-54_260595134347_rgbf000100-resize_2/001132_2014-06-17_14-48-54_260595134347_rgbf000100-resize_2-target.png,1000,3.753,8.0,3726,1006,feet,jsons/v1_VE1000_randls_13_rotated.json,694643,930353,37,Man
79,562953,DepthScenes,duration_manipulation_targetAtFixation,jsons/v1_VE1000_randls_13_rotated.json,http://54.235.29.9/FacialAge/BNav_EC2/DepthDuration/v2_depth_duration_MTurk/v2_DepthDuration_HTML.html#49,49,1280,720,1280,720,8-22-2022,5-8-28,80,depth_duration_stimuli/001133_2014-06-17_14-49-16_260595134347_rgbf000100-resize_0/001133_2014-06-17_14-49-16_260595134347_rgbf000100-resize_0-target.png,1000,4.2115,10.0,3230,1008,feet,jsons/v1_VE1000_randls_13_rotated.json,694643,930353,37,Man
80,562953,DepthScenes,duration_manipulation_targetAtFixation,jsons/v1_VE1000_randls_13_rotated.json,http://54.235.29.9/FacialAge/BNav_EC2/DepthDuration/v2_depth_duration_MTurk/v2_DepthDuration_HTML.html#49,49,1280,720,1280,720,8-22-2022,5-8-28,81,depth_duration_stimuli/002444_2014-06-28_20-32-08_260595134347_rgbf000027-resize_0/002444_2014-06-28_20-32-08_260595134347_rgbf000027-resize_0-target.png,1000,4.388999999999999,9.0,3194,996,feet,jsons/v1_VE1000_randls_13_rotated.json,694643,930353,37,Man
81,562953,DepthScenes,duration_manipulation_targetAtFixation,jsons/v1_VE1000_randls_13_rotated.json,http://54.235.29.9/FacialAge/BNav_EC2/DepthDuration/v2_depth_duration_MTurk/v2_DepthDuration_HTML.html#49,49,1280,720,1280,720,8-22-2022,5-8-28,82,depth_duration_stimuli/000436_2014-06-09_22-25-11_260595134347_rgbf000137-resize_1/000436_2014-06-09_22-25-11_260595134347_rgbf000137-resize_1-target.png,1000,4.0705,11.0,4022,1017,feet,jsons/v1_VE1000_randls_13_rotated.json,694643,930353,37,Man
82,562953,DepthScenes,duration_manipulation_targetAtFixation,jsons/v1_VE1000_randls_13_rotated.json,http://54.235.29.9/FacialAge/BNav_EC2/DepthDuration/v2_depth_duration_MTurk/v2_DepthDuration_HTML.html#49,49,1280,720,1280,720,8-22-2022,5-8-28,83,depth_duration_stimuli/002995_2014-06-15_12-31-26_094959634447_rgbf000150-resize_1/002995_2014-06-15_12-31-26_094959634447_rgbf000150-resize_1-target.png,1000,3.8360000000000003,11.0,4330,997,feet,jsons/v1_VE1000_randls_13_rotated.json,694643,930353,37,Man
83,562953,DepthScenes,duration_manipulation_targetAtFixation,jsons/v1_VE1000_randls_13_rotated.json,http://54.235.29.9/FacialAge/BNav_EC2/DepthDuration/v2_depth_duration_MTurk/v2_DepthDuration_HTML.html#49,49,1280,720,1280,720,8-22-2022,5-8-28,84,depth_duration_stimuli/002748_2014-06-22_19-07-22_094959634447_rgbf000078-resize_1/002748_2014-06-22_19-07-22_094959634447_rgbf000078-resize_1-target.png,1000,4.6705,12.0,2983,993,feet,jsons/v1_VE1000_randls_13_rotated.json,694643,930353,37,Man
84,562953,DepthScenes,duration_manipulation_targetAtFixation,jsons/v1_VE1000_randls_13_rotated.json,http://54.235.29.9/FacialAge/BNav_EC2/DepthDuration/v2_depth_duration_MTurk/v2_DepthDuration_HTML.html#49,49,1280,720,1280,720,8-22-2022,5-8-28,85,depth_duration_stimuli/000749_2014-06-08_21-55-06_260595134347_rgbf000070-resize_2/000749_2014-06-08_21-55-06_260595134347_rgbf000070-resize_2-target.png,1000,2.331,4.0,4242,1002,feet,jsons/v1_VE1000_randls_13_rotated.json,694643,930353,37,Man
85,562953,DepthScenes,duration_manipulation_targetAtFixation,jsons/v1_VE1000_randls_13_rotated.json,http://54.235.29.9/FacialAge/BNav_EC2/DepthDuration/v2_depth_duration_MTurk/v2_DepthDuration_HTML.html#49,49,1280,720,1280,720,8-22-2022,5-8-28,86,depth_duration_stimuli/002788_2014-06-22_19-36-03_094959634447_rgbf000088-resize_2/002788_2014-06-22_19-36-03_094959634447_rgbf000088-resize_2-target.png,1000,1.6465,4.0,3169,1005,feet,jsons/v1_VE1000_randls_13_rotated.json,694643,930353,37,Man
86,562953,DepthScenes,duration_manipulation_targetAtFixation,jsons/v1_VE1000_randls_13_rotated.json,http://54.235.29.9/FacialAge/BNav_EC2/DepthDuration/v2_depth_duration_MTurk/v2_DepthDuration_HTML.html#49,49,1280,720,1280,720,8-22-2022,5-8-28,87,depth_duration_stimuli/001571_2014-06-20_17-21-32_260595134347_rgbf000089-resize_1/001571_2014-06-20_17-21-32_260595134347_rgbf000089-resize_1-target.png,1000,1.86,3.0,2374,1004,feet,jsons/v1_VE1000_randls_13_rotated.json,694643,930353,37,Man
87,562953,DepthScenes,duration_manipulation_targetAtFixation,jsons/v1_VE1000_randls_13_rotated.json,http://54.235.29.9/FacialAge/BNav_EC2/DepthDuration/v2_depth_duration_MTurk/v2_DepthDuration_HTML.html#49,49,1280,720,1280,720,8-22-2022,5-8-28,88,depth_duration_stimuli/002272_2014-06-28_18-53-56_260595134347_rgbf000067-resize_2/002272_2014-06-28_18-53-56_260595134347_rgbf000067-resize_2-target.png,1000,1.138,2.5,3881,1002,feet,jsons/v1_VE1000_randls_13_rotated.json,694643,930353,37,Man
88,562953,DepthScenes,duration_manipulation_targetAtFixation,jsons/v1_VE1000_randls_13_rotated.json,http://54.235.29.9/FacialAge/BNav_EC2/DepthDuration/v2_depth_duration_MTurk/v2_DepthDuration_HTML.html#49,49,1280,720,1280,720,8-22-2022,5-8-28,89,depth_duration_stimuli/001214_2014-06-17_16-13-55_260595134347_rgbf000111-resize_0/001214_2014-06-17_16-13-55_260595134347_rgbf000111-resize_0-target.png,1000,2.6505,3.5,4271,1001,feet,jsons/v1_VE1000_randls_13_rotated.json,694643,930353,37,Man
89,562953,DepthScenes,duration_manipulation_targetAtFixation,jsons/v1_VE1000_randls_13_rotated.json,http://54.235.29.9/FacialAge/BNav_EC2/DepthDuration/v2_depth_duration_MTurk/v2_DepthDuration_HTML.html#49,49,1280,720,1280,720,8-22-2022,5-8-28,90,depth_duration_stimuli/000810_2014-06-08_17-20-01_260595134347_rgbf000105-resize_0/000810_2014-06-08_17-20-01_260595134347_rgbf000105-resize_0-target.png,1000,1.4865,4.0,2908,1001,feet,jsons/v1_VE1000_randls_13_rotated.json,694643,930353,37,Man
90,562953,DepthScenes,duration_manipulation_targetAtFixation,jsons/v1_VE1000_randls_13_rotated.json,http://54.235.29.9/FacialAge/BNav_EC2/DepthDuration/v2_depth_duration_MTurk/v2_DepthDuration_HTML.html#49,49,1280,720,1280,720,8-22-2022,5-8-28,91,depth_duration_stimuli/001052_2014-06-08_18-24-54_260595134347_rgbf000130-resize_1/001052_2014-06-08_18-24-54_260595134347_rgbf000130-resize_1-target.png,1000,4.1045,8.0,3630,998,feet,jsons/v1_VE1000_randls_13_rotated.json,694643,930353,37,Man
91,562953,DepthScenes,duration_manipulation_targetAtFixation,jsons/v1_VE1000_randls_13_rotated.json,http://54.235.29.9/FacialAge/BNav_EC2/DepthDuration/v2_depth_duration_MTurk/v2_DepthDuration_HTML.html#49,49,1280,720,1280,720,8-22-2022,5-8-28,92,depth_duration_stimuli/002988_2014-06-15_12-24-20_094959634447_rgbf000150-resize_1/002988_2014-06-15_12-24-20_094959634447_rgbf000150-resize_1-target.png,1000,4.7669999999999995,7.0,4025,997,feet,jsons/v1_VE1000_randls_13_rotated.json,694643,930353,37,Man
92,562953,DepthScenes,duration_manipulation_targetAtFixation,jsons/v1_VE1000_randls_13_rotated.json,http://54.235.29.9/FacialAge/BNav_EC2/DepthDuration/v2_depth_duration_MTurk/v2_DepthDuration_HTML.html#49,49,1280,720,1280,720,8-22-2022,5-8-28,93,depth_duration_stimuli/003129_2014-05-12_10-48-10_094959634447_rgbf000100-resize_0/003129_2014-05-12_10-48-10_094959634447_rgbf000100-resize_0-target.png,1000,4.9305,9.0,3262,1004,feet,jsons/v1_VE1000_randls_13_rotated.json,694643,930353,37,Man
93,562953,DepthScenes,duration_manipulation_targetAtFixation,jsons/v1_VE1000_randls_13_rotated.json,http://54.235.29.9/FacialAge/BNav_EC2/DepthDuration/v2_depth_duration_MTurk/v2_DepthDuration_HTML.html#49,49,1280,720,1280,720,8-22-2022,5-8-28,94,depth_duration_stimuli/000414_2014-06-04_19-49-13_260595134347_rgbf000044-resize_0/000414_2014-06-04_19-49-13_260595134347_rgbf000044-resize_0-target.png,1000,4.329,10.0,3255,1000,feet,jsons/v1_VE1000_randls_13_rotated.json,694643,930353,37,Man
94,562953,DepthScenes,duration_manipulation_targetAtFixation,jsons/v1_VE1000_randls_13_rotated.json,http://54.235.29.9/FacialAge/BNav_EC2/DepthDuration/v2_depth_duration_MTurk/v2_DepthDuration_HTML.html#49,49,1280,720,1280,720,8-22-2022,5-8-28,95,depth_duration_stimuli/003423_2014-05-21_10-23-26_094959634447_rgbf002665-resize_2/003423_2014-05-21_10-23-26_094959634447_rgbf002665-resize_2-target.png,1000,3.2575,9.0,2998,996,feet,jsons/v1_VE1000_randls_13_rotated.json,694643,930353,37,Man
95,562953,DepthScenes,duration_manipulation_targetAtFixation,jsons/v1_VE1000_randls_13_rotated.json,http://54.235.29.9/FacialAge/BNav_EC2/DepthDuration/v2_depth_duration_MTurk/v2_DepthDuration_HTML.html#49,49,1280,720,1280,720,8-22-2022,5-8-28,96,depth_duration_stimuli/002905_2014-06-03_18-04-43_094959634447_rgbf000151-resize_2/002905_2014-06-03_18-04-43_094959634447_rgbf000151-resize_2-target.png,1000,2.0295,3.0,2614,995,feet,jsons/v1_VE1000_randls_13_rotated.json,694643,930353,37,Man
96,562953,DepthScenes,duration_manipulation_targetAtFixation,jsons/v1_VE1000_randls_13_rotated.json,http://54.235.29.9/FacialAge/BNav_EC2/DepthDuration/v2_depth_duration_MTurk/v2_DepthDuration_HTML.html#49,49,1280,720,1280,720,8-22-2022,5-8-28,97,depth_duration_stimuli/002953_2014-06-08_17-32-18_094959634447_rgbf000059-resize_5/002953_2014-06-08_17-32-18_094959634447_rgbf000059-resize_5-target.png,1000,1.551,2.0,2671,994,feet,jsons/v1_VE1000_randls_13_rotated.json,694643,930353,37,Man
97,562953,DepthScenes,duration_manipulation_targetAtFixation,jsons/v1_VE1000_randls_13_rotated.json,http://54.235.29.9/FacialAge/BNav_EC2/DepthDuration/v2_depth_duration_MTurk/v2_DepthDuration_HTML.html#49,49,1280,720,1280,720,8-22-2022,5-8-28,98,depth_duration_stimuli/000878_2014-06-08_22-52-45_260595134347_rgbf000045-resize_2/000878_2014-06-08_22-52-45_260595134347_rgbf000045-resize_2-target.png,1000,2.092,4.0,3071,1003,feet,jsons/v1_VE1000_randls_13_rotated.json,694643,930353,37,Man
98,562953,DepthScenes,duration_manipulation_targetAtFixation,jsons/v1_VE1000_randls_13_rotated.json,http://54.235.29.9/FacialAge/BNav_EC2/DepthDuration/v2_depth_duration_MTurk/v2_DepthDuration_HTML.html#49,49,1280,720,1280,720,8-22-2022,5-8-28,99,depth_duration_stimuli/001222_2014-06-17_16-24-06_260595134347_rgbf000073-resize_0/001222_2014-06-17_16-24-06_260595134347_rgbf000073-resize-original.jpg,1000,1.4385,0.0,3477,987,feet,jsons/v1_VE1000_randls_13_rotated.json,694643,930353,37,Man
99,562953,DepthScenes,duration_manipulation_targetAtFixation,jsons/v1_VE1000_randls_13_rotated.json,http://54.235.29.9/FacialAge/BNav_EC2/DepthDuration/v2_depth_duration_MTurk/v2_DepthDuration_HTML.html#49,49,1280,720,1280,720,8-22-2022,5-8-28,100,depth_duration_stimuli/002323_2014-06-28_20-01-54_260595134347_rgbf000051-resize_4/002323_2014-06-28_20-01-54_260595134347_rgbf000051-resize_4-target.png,1000,3.7310000000000003,7.0,3606,990,feet,jsons/v1_VE1000_randls_13_rotated.json,694643,930353,37,Man
100,562953,DepthScenes,duration_manipulation_targetAtFixation,jsons/v1_VE1000_randls_13_rotated.json,http://54.235.29.9/FacialAge/BNav_EC2/DepthDuration/v2_depth_duration_MTurk/v2_DepthDuration_HTML.html#49,49,1280,720,1280,720,8-22-2022,5-8-28,101,depth_duration_stimuli/000917_2014-06-09_22-45-29_260595134347_rgbf000149-resize_3/000917_2014-06-09_22-45-29_260595134347_rgbf000149-resize_3-target.png,1000,4.1865,9.0,2878,993,feet,jsons/v1_VE1000_randls_13_rotated.json,694643,930353,37,Man
101,562953,DepthScenes,duration_manipulation_targetAtFixation,jsons/v1_VE1000_randls_13_rotated.json,http://54.235.29.9/FacialAge/BNav_EC2/DepthDuration/v2_depth_duration_MTurk/v2_DepthDuration_HTML.html#49,49,1280,720,1280,720,8-22-2022,5-8-28,102,depth_duration_stimuli/002199_2014-06-28_18-33-56_260595134347_rgbf000074-resize_0/002199_2014-06-28_18-33-56_260595134347_rgbf000074-resize_0-target.png,1000,1.996,2.0,2377,999,feet,jsons/v1_VE1000_randls_13_rotated.json,694643,930353,37,Man
102,562953,DepthScenes,duration_manipulation_targetAtFixation,jsons/v1_VE1000_randls_13_rotated.json,http://54.235.29.9/FacialAge/BNav_EC2/DepthDuration/v2_depth_duration_MTurk/v2_DepthDuration_HTML.html#49,49,1280,720,1280,720,8-22-2022,5-8-28,103,depth_duration_stimuli/001056_2014-06-08_18-46-44_260595134347_rgbf000068-resize_0/001056_2014-06-08_18-46-44_260595134347_rgbf000068-resize_0-target.png,1000,2.6625,5.0,3144,984,feet,jsons/v1_VE1000_randls_13_rotated.json,694643,930353,37,Man
103,562953,DepthScenes,duration_manipulation_targetAtFixation,jsons/v1_VE1000_randls_13_rotated.json,http://54.235.29.9/FacialAge/BNav_EC2/DepthDuration/v2_depth_duration_MTurk/v2_DepthDuration_HTML.html#49,49,1280,720,1280,720,8-22-2022,5-8-28,104,depth_duration_stimuli/002425_2014-06-28_20-27-29_260595134347_rgbf000031-resize_8/002425_2014-06-28_20-27-29_260595134347_rgbf000031-resize_8-target.png,1000,3.8960000000000004,5.0,3661,988,feet,jsons/v1_VE1000_randls_13_rotated.json,694643,930353,37,Man
104,562953,DepthScenes,duration_manipulation_targetAtFixation,jsons/v1_VE1000_randls_13_rotated.json,http://54.235.29.9/FacialAge/BNav_EC2/DepthDuration/v2_depth_duration_MTurk/v2_DepthDuration_HTML.html#49,49,1280,720,1280,720,8-22-2022,5-8-28,105,depth_duration_stimuli/000642_2014-06-08_16-59-25_260595134347_rgbf000098-resize_2/000642_2014-06-08_16-59-25_260595134347_rgbf000098-resize_2-target.png,1000,2.8815,5.0,3999,1010,feet,jsons/v1_VE1000_randls_13_rotated.json,694643,930353,37,Man
105,562953,DepthScenes,duration_manipulation_targetAtFixation,jsons/v1_VE1000_randls_13_rotated.json,http://54.235.29.9/FacialAge/BNav_EC2/DepthDuration/v2_depth_duration_MTurk/v2_DepthDuration_HTML.html#49,49,1280,720,1280,720,8-22-2022,5-8-28,106,depth_duration_stimuli/000137_2014-05-20_17-04-49_260595134347_rgbf000120-resize_1/000137_2014-05-20_17-04-49_260595134347_rgbf000120-resize_1-target.png,1000,3.786,7.0,2842,1009,feet,jsons/v1_VE1000_randls_13_rotated.json,694643,930353,37,Man
106,562953,DepthScenes,duration_manipulation_targetAtFixation,jsons/v1_VE1000_randls_13_rotated.json,http://54.235.29.9/FacialAge/BNav_EC2/DepthDuration/v2_depth_duration_MTurk/v2_DepthDuration_HTML.html#49,49,1280,720,1280,720,8-22-2022,5-8-28,107,depth_duration_stimuli/000736_2014-06-08_18-24-15_260595134347_rgbf000206-resize_3/000736_2014-06-08_18-24-15_260595134347_rgbf000206-resize_3-target.png,1000,3.515,5.0,3013,1008,feet,jsons/v1_VE1000_randls_13_rotated.json,694643,930353,37,Man
107,562953,DepthScenes,duration_manipulation_targetAtFixation,jsons/v1_VE1000_randls_13_rotated.json,http://54.235.29.9/FacialAge/BNav_EC2/DepthDuration/v2_depth_duration_MTurk/v2_DepthDuration_HTML.html#49,49,1280,720,1280,720,8-22-2022,5-8-28,108,depth_duration_stimuli/000549_2014-06-08_22-10-24_260595134347_rgbf000247-resize_3/000549_2014-06-08_22-10-24_260595134347_rgbf000247-resize_3-target.png,1000,1.841,2.5,4839,1006,feet,jsons/v1_VE1000_randls_13_rotated.json,694643,930353,37,Man
108,562953,DepthScenes,duration_manipulation_targetAtFixation,jsons/v1_VE1000_randls_13_rotated.json,http://54.235.29.9/FacialAge/BNav_EC2/DepthDuration/v2_depth_duration_MTurk/v2_DepthDuration_HTML.html#49,49,1280,720,1280,720,8-22-2022,5-8-28,109,depth_duration_stimuli/001055_2014-06-08_18-45-35_260595134347_rgbf000111-resize_4/001055_2014-06-08_18-45-35_260595134347_rgbf000111-resize_4-target.png,1000,2.4290000000000003,4.0,3254,988,feet,jsons/v1_VE1000_randls_13_rotated.json,694643,930353,37,Man
109,562953,DepthScenes,duration_manipulation_targetAtFixation,jsons/v1_VE1000_randls_13_rotated.json,http://54.235.29.9/FacialAge/BNav_EC2/DepthDuration/v2_depth_duration_MTurk/v2_DepthDuration_HTML.html#49,49,1280,720,1280,720,8-22-2022,5-8-28,110,depth_duration_stimuli/002344_2014-06-28_20-06-29_260595134347_rgbf000030-resize_1/002344_2014-06-28_20-06-29_260595134347_rgbf000030-resize_1-target.png,1000,1.5795,2.0,2992,1005,feet,jsons/v1_VE1000_randls_13_rotated.json,694643,930353,37,Man
110,562953,DepthScenes,duration_manipulation_targetAtFixation,jsons/v1_VE1000_randls_13_rotated.json,http://54.235.29.9/FacialAge/BNav_EC2/DepthDuration/v2_depth_duration_MTurk/v2_DepthDuration_HTML.html#49,49,1280,720,1280,720,8-22-2022,5-8-28,111,depth_duration_stimuli/002725_2014-06-22_11-47-51_094959634447_rgbf000070-resize_1/002725_2014-06-22_11-47-51_094959634447_rgbf000070-resize_1-target.png,1000,2.195,5.0,3215,996,feet,jsons/v1_VE1000_randls_13_rotated.json,694643,930353,37,Man
111,562953,DepthScenes,duration_manipulation_targetAtFixation,jsons/v1_VE1000_randls_13_rotated.json,http://54.235.29.9/FacialAge/BNav_EC2/DepthDuration/v2_depth_duration_MTurk/v2_DepthDuration_HTML.html#49,49,1280,720,1280,720,8-22-2022,5-8-28,112,depth_duration_stimuli/003048_2014-06-15_13-49-43_094959634447_rgbf000150-resize_1/003048_2014-06-15_13-49-43_094959634447_rgbf000150-resize_1-target.png,1000,4.0035,7.0,2976,1011,feet,jsons/v1_VE1000_randls_13_rotated.json,694643,930353,37,Man
112,562953,DepthScenes,duration_manipulation_targetAtFixation,jsons/v1_VE1000_randls_13_rotated.json,http://54.235.29.9/FacialAge/BNav_EC2/DepthDuration/v2_depth_duration_MTurk/v2_DepthDuration_HTML.html#49,49,1280,720,1280,720,8-22-2022,5-8-28,113,depth_duration_stimuli/002043_2014-06-24_20-29-38_260595134347_rgbf000039-resize_4/002043_2014-06-24_20-29-38_260595134347_rgbf000039-resize_4-target.png,1000,2.8435,6.0,4396,998,feet,jsons/v1_VE1000_randls_13_rotated.json,694643,930353,37,Man
113,562953,DepthScenes,duration_manipulation_targetAtFixation,jsons/v1_VE1000_randls_13_rotated.json,http://54.235.29.9/FacialAge/BNav_EC2/DepthDuration/v2_depth_duration_MTurk/v2_DepthDuration_HTML.html#49,49,1280,720,1280,720,8-22-2022,5-8-28,114,depth_duration_stimuli/000635_2014-06-08_16-38-42_260595134347_rgbf000106-resize_1/000635_2014-06-08_16-38-42_260595134347_rgbf000106-resize_1-target.png,1000,2.074,5.0,2712,1008,feet,jsons/v1_VE1000_randls_13_rotated.json,694643,930353,37,Man
114,562953,DepthScenes,duration_manipulation_targetAtFixation,jsons/v1_VE1000_randls_13_rotated.json,http://54.235.29.9/FacialAge/BNav_EC2/DepthDuration/v2_depth_duration_MTurk/v2_DepthDuration_HTML.html#49,49,1280,720,1280,720,8-22-2022,5-8-28,115,depth_duration_stimuli/002279_2014-06-28_18-55-32_260595134347_rgbf000040-resize_5/002279_2014-06-28_18-55-32_260595134347_rgbf000040-resize_5-target.png,1000,1.5043333333333,2.5,3960,1008,feet,jsons/v1_VE1000_randls_13_rotated.json,694643,930353,37,Man
115,562953,DepthScenes,duration_manipulation_targetAtFixation,jsons/v1_VE1000_randls_13_rotated.json,http://54.235.29.9/FacialAge/BNav_EC2/DepthDuration/v2_depth_duration_MTurk/v2_DepthDuration_HTML.html#49,49,1280,720,1280,720,8-22-2022,5-8-28,116,depth_duration_stimuli/003490_2014-05-21_15-50-11_094959634447_rgbf000101-resize_3/003490_2014-05-21_15-50-11_094959634447_rgbf000101-resize_3-target.png,1000,3.6445,5.0,3568,997,feet,jsons/v1_VE1000_randls_13_rotated.json,694643,930353,37,Man
116,562953,DepthScenes,duration_manipulation_targetAtFixation,jsons/v1_VE1000_randls_13_rotated.json,http://54.235.29.9/FacialAge/BNav_EC2/DepthDuration/v2_depth_duration_MTurk/v2_DepthDuration_HTML.html#49,49,1280,720,1280,720,8-22-2022,5-8-28,117,depth_duration_stimuli/001175_2014-06-17_15-45-55_260595134347_rgbf000129-resize_4/001175_2014-06-17_15-45-55_260595134347_rgbf000129-resize_4-target.png,1000,4.255,8.0,3789,1010,feet,jsons/v1_VE1000_randls_13_rotated.json,694643,930353,37,Man
117,562953,DepthScenes,duration_manipulation_targetAtFixation,jsons/v1_VE1000_randls_13_rotated.json,http://54.235.29.9/FacialAge/BNav_EC2/DepthDuration/v2_depth_duration_MTurk/v2_DepthDuration_HTML.html#49,49,1280,720,1280,720,8-22-2022,5-8-28,118,depth_duration_stimuli/001584_2014-06-20_11-07-43_260595134347_rgbf000002-resize_1/001584_2014-06-20_11-07-43_260595134347_rgbf000002-resize_1-target.png,1000,3.53,8.0,3012,1004,feet,jsons/v1_VE1000_randls_13_rotated.json,694643,930353,37,Man
118,562953,DepthScenes,duration_manipulation_targetAtFixation,jsons/v1_VE1000_randls_13_rotated.json,http://54.235.29.9/FacialAge/BNav_EC2/DepthDuration/v2_depth_duration_MTurk/v2_DepthDuration_HTML.html#49,49,1280,720,1280,720,8-22-2022,5-8-28,119,depth_duration_stimuli/003621_2014-05-23_18-06-08_094959634447_rgbf000101-resize_1/003621_2014-05-23_18-06-08_094959634447_rgbf000101-resize_1-target.png,1000,3.9835,10.0,3665,991,feet,jsons/v1_VE1000_randls_13_rotated.json,694643,930353,37,Man
119,562953,DepthScenes,duration_manipulation_targetAtFixation,jsons/v1_VE1000_randls_13_rotated.json,http://54.235.29.9/FacialAge/BNav_EC2/DepthDuration/v2_depth_duration_MTurk/v2_DepthDuration_HTML.html#49,49,1280,720,1280,720,8-22-2022,5-8-28,120,depth_duration_stimuli/000787_2014-06-08_22-33-53_260595134347_rgbf000175-resize_1/000787_2014-06-08_22-33-53_260595134347_rgbf000175-resize-original.jpg,1000,4.784,0.0,3031,1001,feet,jsons/v1_VE1000_randls_13_rotated.json,694643,930353,37,Man
120,562953,DepthScenes,duration_manipulation_targetAtFixation,jsons/v1_VE1000_randls_13_rotated.json,http://54.235.29.9/FacialAge/BNav_EC2/DepthDuration/v2_depth_duration_MTurk/v2_DepthDuration_HTML.html#49,49,1280,720,1280,720,8-22-2022,5-8-28,121,depth_duration_stimuli/000457_2014-06-08_16-52-43_260595134347_rgbf000199-resize_1/000457_2014-06-08_16-52-43_260595134347_rgbf000199-resize_1-target.png,1000,3.6489999999999996,6.0,3127,993,feet,jsons/v1_VE1000_randls_13_rotated.json,694643,930353,37,Man
121,562953,DepthScenes,duration_manipulation_targetAtFixation,jsons/v1_VE1000_randls_13_rotated.json,http://54.235.29.9/FacialAge/BNav_EC2/DepthDuration/v2_depth_duration_MTurk/v2_DepthDuration_HTML.html#49,49,1280,720,1280,720,8-22-2022,5-8-28,122,depth_duration_stimuli/000929_2014-06-09_16-33-19_260595134347_rgbf000139-resize_0/000929_2014-06-09_16-33-19_260595134347_rgbf000139-resize_0-target.png,1000,2.8680000000000003,4.0,3435,1003,feet,jsons/v1_VE1000_randls_13_rotated.json,694643,930353,37,Man
122,562953,DepthScenes,duration_manipulation_targetAtFixation,jsons/v1_VE1000_randls_13_rotated.json,http://54.235.29.9/FacialAge/BNav_EC2/DepthDuration/v2_depth_duration_MTurk/v2_DepthDuration_HTML.html#49,49,1280,720,1280,720,8-22-2022,5-8-28,123,depth_duration_stimuli/000691_2014-06-08_13-08-50_260595134347_rgbf000132-resize_3/000691_2014-06-08_13-08-50_260595134347_rgbf000132-resize_3-target.png,1000,4.1530000000000005,6.0,3689,1013,feet,jsons/v1_VE1000_randls_13_rotated.json,694643,930353,37,Man
123,562953,DepthScenes,duration_manipulation_targetAtFixation,jsons/v1_VE1000_randls_13_rotated.json,http://54.235.29.9/FacialAge/BNav_EC2/DepthDuration/v2_depth_duration_MTurk/v2_DepthDuration_HTML.html#49,49,1280,720,1280,720,8-22-2022,5-8-28,124,depth_duration_stimuli/002213_2014-06-28_18-37-58_260595134347_rgbf000055-resize_1/002213_2014-06-28_18-37-58_260595134347_rgbf000055-resize_1-target.png,1000,3.62,8.0,4623,996,feet,jsons/v1_VE1000_randls_13_rotated.json,694643,930353,37,Man
124,562953,DepthScenes,duration_manipulation_targetAtFixation,jsons/v1_VE1000_randls_13_rotated.json,http://54.235.29.9/FacialAge/BNav_EC2/DepthDuration/v2_depth_duration_MTurk/v2_DepthDuration_HTML.html#49,49,1280,720,1280,720,8-22-2022,5-8-28,125,depth_duration_stimuli/002103_2014-06-25_20-00-40_260595134347_rgbf000049-resize_0/002103_2014-06-25_20-00-40_260595134347_rgbf000049-resize_0-target.png,1000,4.105,6.0,3034,993,feet,jsons/v1_VE1000_randls_13_rotated.json,694643,930353,37,Man
125,562953,DepthScenes,duration_manipulation_targetAtFixation,jsons/v1_VE1000_randls_13_rotated.json,http://54.235.29.9/FacialAge/BNav_EC2/DepthDuration/v2_depth_duration_MTurk/v2_DepthDuration_HTML.html#49,49,1280,720,1280,720,8-22-2022,5-8-28,126,depth_duration_stimuli/002039_2014-06-24_20-22-38_260595134347_rgbf000084-resize_1/002039_2014-06-24_20-22-38_260595134347_rgbf000084-resize_1-target.png,1000,4.408,12.0,2872,1003,feet,jsons/v1_VE1000_randls_13_rotated.json,694643,930353,37,Man
126,562953,DepthScenes,duration_manipulation_targetAtFixation,jsons/v1_VE1000_randls_13_rotated.json,http://54.235.29.9/FacialAge/BNav_EC2/DepthDuration/v2_depth_duration_MTurk/v2_DepthDuration_HTML.html#49,49,1280,720,1280,720,8-22-2022,5-8-28,127,depth_duration_stimuli/002136_2014-06-25_21-18-03_260595134347_rgbf000109-resize_3/002136_2014-06-25_21-18-03_260595134347_rgbf000109-resize_3-target.png,1000,1.9569999999999999,3.5,3720,996,feet,jsons/v1_VE1000_randls_13_rotated.json,694643,930353,37,Man
127,562953,DepthScenes,duration_manipulation_targetAtFixation,jsons/v1_VE1000_randls_13_rotated.json,http://54.235.29.9/FacialAge/BNav_EC2/DepthDuration/v2_depth_duration_MTurk/v2_DepthDuration_HTML.html#49,49,1280,720,1280,720,8-22-2022,5-8-28,128,depth_duration_stimuli/002964_2014-06-08_17-46-11_094959634447_rgbf000091-resize_4/002964_2014-06-08_17-46-11_094959634447_rgbf000091-resize_4-target.png,1000,1.6909999999999998,3.0,2454,994,feet,jsons/v1_VE1000_randls_13_rotated.json,694643,930353,37,Man
128,562953,DepthScenes,duration_manipulation_targetAtFixation,jsons/v1_VE1000_randls_13_rotated.json,http://54.235.29.9/FacialAge/BNav_EC2/DepthDuration/v2_depth_duration_MTurk/v2_DepthDuration_HTML.html#49,49,1280,720,1280,720,8-22-2022,5-8-28,129,depth_duration_stimuli/000483_2014-06-09_20-41-45_260595134347_rgbf000116-resize_4/000483_2014-06-09_20-41-45_260595134347_rgbf000116-resize_4-target.png,1000,1.337,3.0,4048,1001,feet,jsons/v1_VE1000_randls_13_rotated.json,694643,930353,37,Man
129,562953,DepthScenes,duration_manipulation_targetAtFixation,jsons/v1_VE1000_randls_13_rotated.json,http://54.235.29.9/FacialAge/BNav_EC2/DepthDuration/v2_depth_duration_MTurk/v2_DepthDuration_HTML.html#49,49,1280,720,1280,720,8-22-2022,5-8-28,130,depth_duration_stimuli/000469_2014-06-09_19-42-10_260595134347_rgbf000081-resize_1/000469_2014-06-09_19-42-10_260595134347_rgbf000081-resize_1-target.png,1000,1.652,3.0,3302,1011,feet,jsons/v1_VE1000_randls_13_rotated.json,694643,930353,37,Man
130,562953,DepthScenes,duration_manipulation_targetAtFixation,jsons/v1_VE1000_randls_13_rotated.json,http://54.235.29.9/FacialAge/BNav_EC2/DepthDuration/v2_depth_duration_MTurk/v2_DepthDuration_HTML.html#49,49,1280,720,1280,720,8-22-2022,5-8-28,131,depth_duration_stimuli/001100_2014-06-15_17-46-26_260595134347_rgbf000225-resize_2/001100_2014-06-15_17-46-26_260595134347_rgbf000225-resize_2-target.png,1000,2.24,2.5,4205,1004,feet,jsons/v1_VE1000_randls_13_rotated.json,694643,930353,37,Man
131,562953,DepthScenes,duration_manipulation_targetAtFixation,jsons/v1_VE1000_randls_13_rotated.json,http://54.235.29.9/FacialAge/BNav_EC2/DepthDuration/v2_depth_duration_MTurk/v2_DepthDuration_HTML.html#49,49,1280,720,1280,720,8-22-2022,5-8-28,132,depth_duration_stimuli/002784_2014-06-22_19-26-30_094959634447_rgbf000083-resize_3/002784_2014-06-22_19-26-30_094959634447_rgbf000083-resize_3-target.png,1000,1.8046666666667,3.0,3202,996,feet,jsons/v1_VE1000_randls_13_rotated.json,694643,930353,37,Man
132,562953,DepthScenes,duration_manipulation_targetAtFixation,jsons/v1_VE1000_randls_13_rotated.json,http://54.235.29.9/FacialAge/BNav_EC2/DepthDuration/v2_depth_duration_MTurk/v2_DepthDuration_HTML.html#49,49,1280,720,1280,720,8-22-2022,5-8-28,133,depth_duration_stimuli/003338_2014-05-20_11-01-23_094959634447_rgbf000051-resize_6/003338_2014-05-20_11-01-23_094959634447_rgbf000051-resize_6-target.png,1000,1.693,2.5,3709,1004,feet,jsons/v1_VE1000_randls_13_rotated.json,694643,930353,37,Man
133,562953,DepthScenes,duration_manipulation_targetAtFixation,jsons/v1_VE1000_randls_13_rotated.json,http://54.235.29.9/FacialAge/BNav_EC2/DepthDuration/v2_depth_duration_MTurk/v2_DepthDuration_HTML.html#49,49,1280,720,1280,720,8-22-2022,5-8-28,134,depth_duration_stimuli/002509_2014-06-24_13-19-22_094959634447_rgbf000077-resize_0/002509_2014-06-24_13-19-22_094959634447_rgbf000077-resize_0-target.png,1000,1.3065,2.0,2911,1007,feet,jsons/v1_VE1000_randls_13_rotated.json,694643,930353,37,Man
134,562953,DepthScenes,duration_manipulation_targetAtFixation,jsons/v1_VE1000_randls_13_rotated.json,http://54.235.29.9/FacialAge/BNav_EC2/DepthDuration/v2_depth_duration_MTurk/v2_DepthDuration_HTML.html#49,49,1280,720,1280,720,8-22-2022,5-8-28,135,depth_duration_stimuli/000375_2014-06-08_11-17-29_260595134347_rgbf000133-resize_2/000375_2014-06-08_11-17-29_260595134347_rgbf000133-resize-original.jpg,1000,4.718,0.0,3009,995,feet,jsons/v1_VE1000_randls_13_rotated.json,694643,930353,37,Man
135,562953,DepthScenes,duration_manipulation_targetAtFixation,jsons/v1_VE1000_randls_13_rotated.json,http://54.235.29.9/FacialAge/BNav_EC2/DepthDuration/v2_depth_duration_MTurk/v2_DepthDuration_HTML.html#49,49,1280,720,1280,720,8-22-2022,5-8-28,136,depth_duration_stimuli/000109_2014-05-14_23-41-52_260595134347_rgbf000035-resize_9/000109_2014-05-14_23-41-52_260595134347_rgbf000035-resize_9-target.png,1000,1.3545,2.5,4037,1001,feet,jsons/v1_VE1000_randls_13_rotated.json,694643,930353,37,Man
136,562953,DepthScenes,duration_manipulation_targetAtFixation,jsons/v1_VE1000_randls_13_rotated.json,http://54.235.29.9/FacialAge/BNav_EC2/DepthDuration/v2_depth_duration_MTurk/v2_DepthDuration_HTML.html#49,49,1280,720,1280,720,8-22-2022,5-8-28,137,depth_duration_stimuli/000470_2014-06-09_19-42-40_260595134347_rgbf000094-resize_1/000470_2014-06-09_19-42-40_260595134347_rgbf000094-resize_1-target.png,1000,1.831,4.0,3378,998,feet,jsons/v1_VE1000_randls_13_rotated.json,694643,930353,37,Man
137,562953,DepthScenes,duration_manipulation_targetAtFixation,jsons/v1_VE1000_randls_13_rotated.json,http://54.235.29.9/FacialAge/BNav_EC2/DepthDuration/v2_depth_duration_MTurk/v2_DepthDuration_HTML.html#49,49,1280,720,1280,720,8-22-2022,5-8-28,138,depth_duration_stimuli/000780_2014-06-08_22-28-29_260595134347_rgbf000126-resize_1/000780_2014-06-08_22-28-29_260595134347_rgbf000126-resize_1-target.png,1000,3.3825,6.0,4352,988,feet,jsons/v1_VE1000_randls_13_rotated.json,694643,930353,37,Man
138,562953,DepthScenes,duration_manipulation_targetAtFixation,jsons/v1_VE1000_randls_13_rotated.json,http://54.235.29.9/FacialAge/BNav_EC2/DepthDuration/v2_depth_duration_MTurk/v2_DepthDuration_HTML.html#49,49,1280,720,1280,720,8-22-2022,5-8-28,139,depth_duration_stimuli/002445_2014-06-28_20-32-16_260595134347_rgbf000029-resize_4/002445_2014-06-28_20-32-16_260595134347_rgbf000029-resize_4-target.png,1000,2.5315,4.0,2625,1007,feet,jsons/v1_VE1000_randls_13_rotated.json,694643,930353,37,Man
139,562953,DepthScenes,duration_manipulation_targetAtFixation,jsons/v1_VE1000_randls_13_rotated.json,http://54.235.29.9/FacialAge/BNav_EC2/DepthDuration/v2_depth_duration_MTurk/v2_DepthDuration_HTML.html#49,49,1280,720,1280,720,8-22-2022,5-8-28,140,depth_duration_stimuli/001094_2014-06-15_17-36-00_260595134347_rgbf000205-resize_0/001094_2014-06-15_17-36-00_260595134347_rgbf000205-resize_0-target.png,1000,4.2175,10.0,3800,993,feet,jsons/v1_VE1000_randls_13_rotated.json,694643,930353,37,Man
140,562953,DepthScenes,duration_manipulation_targetAtFixation,jsons/v1_VE1000_randls_13_rotated.json,http://54.235.29.9/FacialAge/BNav_EC2/DepthDuration/v2_depth_duration_MTurk/v2_DepthDuration_HTML.html#49,49,1280,720,1280,720,8-22-2022,5-8-28,141,depth_duration_stimuli/000692_2014-06-08_13-09-42_260595134347_rgbf000199-resize_2/000692_2014-06-08_13-09-42_260595134347_rgbf000199-resize_2-target.png,1000,3.661,12.0,4298,1013,feet,jsons/v1_VE1000_randls_13_rotated.json,694643,930353,37,Man
141,562953,DepthScenes,duration_manipulation_targetAtFixation,jsons/v1_VE1000_randls_13_rotated.json,http://54.235.29.9/FacialAge/BNav_EC2/DepthDuration/v2_depth_duration_MTurk/v2_DepthDuration_HTML.html#49,49,1280,720,1280,720,8-22-2022,5-8-28,142,depth_duration_stimuli/001235_2014-06-17_16-37-36_260595134347_rgbf000084-resize_4/001235_2014-06-17_16-37-36_260595134347_rgbf000084-resize_4-target.png,1000,3.6605,7.0,3234,1009,feet,jsons/v1_VE1000_randls_13_rotated.json,694643,930353,37,Man
142,562953,DepthScenes,duration_manipulation_targetAtFixation,jsons/v1_VE1000_randls_13_rotated.json,http://54.235.29.9/FacialAge/BNav_EC2/DepthDuration/v2_depth_duration_MTurk/v2_DepthDuration_HTML.html#49,49,1280,720,1280,720,8-22-2022,5-8-28,143,depth_duration_stimuli/000788_2014-06-08_22-34-36_260595134347_rgbf000131-resize_1/000788_2014-06-08_22-34-36_260595134347_rgbf000131-resize_1-target.png,1000,3.359,6.0,2633,996,feet,jsons/v1_VE1000_randls_13_rotated.json,694643,930353,37,Man
143,562953,DepthScenes,duration_manipulation_targetAtFixation,jsons/v1_VE1000_randls_13_rotated.json,http://54.235.29.9/FacialAge/BNav_EC2/DepthDuration/v2_depth_duration_MTurk/v2_DepthDuration_HTML.html#49,49,1280,720,1280,720,8-22-2022,5-8-28,144,depth_duration_stimuli/002568_2014-06-24_13-59-21_094959634447_rgbf000062-resize_4/002568_2014-06-24_13-59-21_094959634447_rgbf000062-resize_4-target.png,1000,3.015,6.0,3982,1003,feet,jsons/v1_VE1000_randls_13_rotated.json,694643,930353,37,Man
144,562953,DepthScenes,duration_manipulation_targetAtFixation,jsons/v1_VE1000_randls_13_rotated.json,http://54.235.29.9/FacialAge/BNav_EC2/DepthDuration/v2_depth_duration_MTurk/v2_DepthDuration_HTML.html#49,49,1280,720,1280,720,8-22-2022,5-8-28,145,depth_duration_stimuli/003492_2014-05-21_15-50-55_094959634447_rgbf000828-resize_1/003492_2014-05-21_15-50-55_094959634447_rgbf000828-resize_1-target.png,1000,4.06875,10.0,4030,1011,feet,jsons/v1_VE1000_randls_13_rotated.json,694643,930353,37,Man
145,562953,DepthScenes,duration_manipulation_targetAtFixation,jsons/v1_VE1000_randls_13_rotated.json,http://54.235.29.9/FacialAge/BNav_EC2/DepthDuration/v2_depth_duration_MTurk/v2_DepthDuration_HTML.html#49,49,1280,720,1280,720,8-22-2022,5-8-28,146,depth_duration_stimuli/002657_2014-06-13_15-29-54_094959634447_rgbf000150-resize_1/002657_2014-06-13_15-29-54_094959634447_rgbf000150-resize_1-target.png,1000,4.919,12.0,2983,1012,feet,jsons/v1_VE1000_randls_13_rotated.json,694643,930353,37,Man
146,562953,DepthScenes,duration_manipulation_targetAtFixation,jsons/v1_VE1000_randls_13_rotated.json,http://54.235.29.9/FacialAge/BNav_EC2/DepthDuration/v2_depth_duration_MTurk/v2_DepthDuration_HTML.html#49,49,1280,720,1280,720,8-22-2022,5-8-28,147,depth_duration_stimuli/002375_2014-06-28_20-13-44_260595134347_rgbf000032-resize_1/002375_2014-06-28_20-13-44_260595134347_rgbf000032-resize_1-target.png,1000,4.0175,7.0,3524,1003,feet,jsons/v1_VE1000_randls_13_rotated.json,694643,930353,37,Man
147,562953,DepthScenes,duration_manipulation_targetAtFixation,jsons/v1_VE1000_randls_13_rotated.json,http://54.235.29.9/FacialAge/BNav_EC2/DepthDuration/v2_depth_duration_MTurk/v2_DepthDuration_HTML.html#49,49,1280,720,1280,720,8-22-2022,5-8-28,148,depth_duration_stimuli/000665_2014-06-09_20-42-35_260595134347_rgbf000110-resize_1/000665_2014-06-09_20-42-35_260595134347_rgbf000110-resize_1-target.png,1000,3.057,5.0,2436,1010,feet,jsons/v1_VE1000_randls_13_rotated.json,694643,930353,37,Man
148,562953,DepthScenes,duration_manipulation_targetAtFixation,jsons/v1_VE1000_randls_13_rotated.json,http://54.235.29.9/FacialAge/BNav_EC2/DepthDuration/v2_depth_duration_MTurk/v2_DepthDuration_HTML.html#49,49,1280,720,1280,720,8-22-2022,5-8-28,149,depth_duration_stimuli/001150_2014-06-17_15-27-34_260595134347_rgbf000108-resize_2/001150_2014-06-17_15-27-34_260595134347_rgbf000108-resize_2-target.png,1000,4.0325,7.0,2963,1009,feet,jsons/v1_VE1000_randls_13_rotated.json,694643,930353,37,Man
149,562953,DepthScenes,duration_manipulation_targetAtFixation,jsons/v1_VE1000_randls_13_rotated.json,http://54.235.29.9/FacialAge/BNav_EC2/DepthDuration/v2_depth_duration_MTurk/v2_DepthDuration_HTML.html#49,49,1280,720,1280,720,8-22-2022,5-8-28,150,depth_duration_stimuli/000556_2014-06-09_22-42-56_260595134347_rgbf000214-resize_1/000556_2014-06-09_22-42-56_260595134347_rgbf000214-resize_1-target.png,1000,4.8415,8.0,3379,1002,feet,jsons/v1_VE1000_randls_13_rotated.json,694643,930353,37,Man
150,562953,DepthScenes,duration_manipulation_targetAtFixation,jsons/v1_VE1000_randls_13_rotated.json,http://54.235.29.9/FacialAge/BNav_EC2/DepthDuration/v2_depth_duration_MTurk/v2_DepthDuration_HTML.html#49,49,1280,720,1280,720,8-22-2022,5-8-28,151,depth_duration_stimuli/001158_2014-06-17_15-32-16_260595134347_rgbf000138-resize_2/001158_2014-06-17_15-32-16_260595134347_rgbf000138-resize_2-target.png,1000,4.5315,7.0,3382,995,feet,jsons/v1_VE1000_randls_13_rotated.json,694643,930353,37,Man
151,562953,DepthScenes,duration_manipulation_targetAtFixation,jsons/v1_VE1000_randls_13_rotated.json,http://54.235.29.9/FacialAge/BNav_EC2/DepthDuration/v2_depth_duration_MTurk/v2_DepthDuration_HTML.html#49,49,1280,720,1280,720,8-22-2022,5-8-28,152,depth_duration_stimuli/000569_2014-06-09_22-51-47_260595134347_rgbf000141-resize_3/000569_2014-06-09_22-51-47_260595134347_rgbf000141-resize-original.jpg,1000,4.512,0.0,3056,1007,feet,jsons/v1_VE1000_randls_13_rotated.json,694643,930353,37,Man
152,562953,DepthScenes,duration_manipulation_targetAtFixation,jsons/v1_VE1000_randls_13_rotated.json,http://54.235.29.9/FacialAge/BNav_EC2/DepthDuration/v2_depth_duration_MTurk/v2_DepthDuration_HTML.html#49,49,1280,720,1280,720,8-22-2022,5-8-28,153,depth_duration_stimuli/003495_2014-05-21_16-01-51_094959634447_rgbf000100-resize_3/003495_2014-05-21_16-01-51_094959634447_rgbf000100-resize_3-target.png,1000,1.6255,2.0,2812,993,feet,jsons/v1_VE1000_randls_13_rotated.json,694643,930353,37,Man
153,562953,DepthScenes,duration_manipulation_targetAtFixation,jsons/v1_VE1000_randls_13_rotated.json,http://54.235.29.9/FacialAge/BNav_EC2/DepthDuration/v2_depth_duration_MTurk/v2_DepthDuration_HTML.html#49,49,1280,720,1280,720,8-22-2022,5-8-28,154,depth_duration_stimuli/001244_2014-06-17_16-47-45_260595134347_rgbf000030-resize_4/001244_2014-06-17_16-47-45_260595134347_rgbf000030-resize_4-target.png,1000,2.0425,4.0,2876,1001,feet,jsons/v1_VE1000_randls_13_rotated.json,694643,930353,37,Man
154,562953,DepthScenes,duration_manipulation_targetAtFixation,jsons/v1_VE1000_randls_13_rotated.json,http://54.235.29.9/FacialAge/BNav_EC2/DepthDuration/v2_depth_duration_MTurk/v2_DepthDuration_HTML.html#49,49,1280,720,1280,720,8-22-2022,5-8-28,155,depth_duration_stimuli/001650_2014-06-20_12-09-00_260595134347_rgbf000087-resize_3/001650_2014-06-20_12-09-00_260595134347_rgbf000087-resize_3-target.png,1000,1.9505,1.5,3896,989,feet,jsons/v1_VE1000_randls_13_rotated.json,694643,930353,37,Man
155,562953,DepthScenes,duration_manipulation_targetAtFixation,jsons/v1_VE1000_randls_13_rotated.json,http://54.235.29.9/FacialAge/BNav_EC2/DepthDuration/v2_depth_duration_MTurk/v2_DepthDuration_HTML.html#49,49,1280,720,1280,720,8-22-2022,5-8-28,156,depth_duration_stimuli/000682_2014-06-08_23-14-58_260595134347_rgbf000041-resize_5/000682_2014-06-08_23-14-58_260595134347_rgbf000041-resize_5-target.png,1000,2.7239999999999998,4.0,3216,998,feet,jsons/v1_VE1000_randls_13_rotated.json,694643,930353,37,Man
156,562953,DepthScenes,duration_manipulation_targetAtFixation,jsons/v1_VE1000_randls_13_rotated.json,http://54.235.29.9/FacialAge/BNav_EC2/DepthDuration/v2_depth_duration_MTurk/v2_DepthDuration_HTML.html#49,49,1280,720,1280,720,8-22-2022,5-8-28,157,depth_duration_stimuli/003081_2014-06-15_15-19-16_094959634447_rgbf000150-resize_1/003081_2014-06-15_15-19-16_094959634447_rgbf000150-resize_1-target.png,1000,3.9125,8.0,2719,1009,feet,jsons/v1_VE1000_randls_13_rotated.json,694643,930353,37,Man
157,562953,DepthScenes,duration_manipulation_targetAtFixation,jsons/v1_VE1000_randls_13_rotated.json,http://54.235.29.9/FacialAge/BNav_EC2/DepthDuration/v2_depth_duration_MTurk/v2_DepthDuration_HTML.html#49,49,1280,720,1280,720,8-22-2022,5-8-28,158,depth_duration_stimuli/001417_2014-06-19_16-25-36_260595134347_rgbf000115-resize_5/001417_2014-06-19_16-25-36_260595134347_rgbf000115-resize_5-target.png,1000,4.6255,6.0,9347,1006,feet,jsons/v1_VE1000_randls_13_rotated.json,694643,930353,37,Man
158,562953,DepthScenes,duration_manipulation_targetAtFixation,jsons/v1_VE1000_randls_13_rotated.json,http://54.235.29.9/FacialAge/BNav_EC2/DepthDuration/v2_depth_duration_MTurk/v2_DepthDuration_HTML.html#49,49,1280,720,1280,720,8-22-2022,5-8-28,159,depth_duration_stimuli/001516_2014-06-20_16-25-09_260595134347_rgbf000076-resize_2/001516_2014-06-20_16-25-09_260595134347_rgbf000076-resize_2-target.png,1000,1.7445,4.0,2554,1004,feet,jsons/v1_VE1000_randls_13_rotated.json,694643,930353,37,Man
159,562953,DepthScenes,duration_manipulation_targetAtFixation,jsons/v1_VE1000_randls_13_rotated.json,http://54.235.29.9/FacialAge/BNav_EC2/DepthDuration/v2_depth_duration_MTurk/v2_DepthDuration_HTML.html#49,49,1280,720,1280,720,8-22-2022,5-8-28,160,depth_duration_stimuli/002118_2014-06-25_20-32-08_260595134347_rgbf000078-resize_1/002118_2014-06-25_20-32-08_260595134347_rgbf000078-resize_1-target.png,1000,2.6460000000000004,6.0,2996,986,feet,jsons/v1_VE1000_randls_13_rotated.json,694643,930353,37,Man
160,562953,DepthScenes,duration_manipulation_targetAtFixation,jsons/v1_VE1000_randls_13_rotated.json,http://54.235.29.9/FacialAge/BNav_EC2/DepthDuration/v2_depth_duration_MTurk/v2_DepthDuration_HTML.html#49,49,1280,720,1280,720,8-22-2022,5-8-28,161,depth_duration_stimuli/000677_2014-06-08_23-10-32_260595134347_rgbf000158-resize_6/000677_2014-06-08_23-10-32_260595134347_rgbf000158-resize_6-target.png,1000,3.556,5.0,3239,995,feet,jsons/v1_VE1000_randls_13_rotated.json,694643,930353,37,Man
161,562953,DepthScenes,duration_manipulation_targetAtFixation,jsons/v1_VE1000_randls_13_rotated.json,http://54.235.29.9/FacialAge/BNav_EC2/DepthDuration/v2_depth_duration_MTurk/v2_DepthDuration_HTML.html#49,49,1280,720,1280,720,8-22-2022,5-8-28,162,depth_duration_stimuli/001029_2014-06-08_13-17-57_260595134347_rgbf000065-resize_1/001029_2014-06-08_13-17-57_260595134347_rgbf000065-resize_1-target.png,1000,3.0835,5.0,3570,999,feet,jsons/v1_VE1000_randls_13_rotated.json,694643,930353,37,Man
162,562953,DepthScenes,duration_manipulation_targetAtFixation,jsons/v1_VE1000_randls_13_rotated.json,http://54.235.29.9/FacialAge/BNav_EC2/DepthDuration/v2_depth_duration_MTurk/v2_DepthDuration_HTML.html#49,49,1280,720,1280,720,8-22-2022,5-8-28,163,depth_duration_stimuli/001815_2014-06-26_20-52-55_260595134347_rgbf000020-resize_0/001815_2014-06-26_20-52-55_260595134347_rgbf000020-resize_0-target.png,1000,3.3865,5.0,5139,995,feet,jsons/v1_VE1000_randls_13_rotated.json,694643,930353,37,Man
163,562953,DepthScenes,duration_manipulation_targetAtFixation,jsons/v1_VE1000_randls_13_rotated.json,http://54.235.29.9/FacialAge/BNav_EC2/DepthDuration/v2_depth_duration_MTurk/v2_DepthDuration_HTML.html#49,49,1280,720,1280,720,8-22-2022,5-8-28,164,depth_duration_stimuli/001808_2014-06-26_20-50-58_260595134347_rgbf000029-resize_1/001808_2014-06-26_20-50-58_260595134347_rgbf000029-resize_1-target.png,1000,4.249,8.0,5035,1002,feet,jsons/v1_VE1000_randls_13_rotated.json,694643,930353,37,Man
