,subjID,experimentName,versionName,sequenceName,url,selected_row,windowWidth,windowHeight,screenWidth,screenHeight,startDate,startTime,trial,stimulus,duration,actual_depth,depth_estimate,trial_RT,log_sceneDuration,unitSelection,seq_filepath,experimentTime,totalTime,age,gender
0,563676,DepthScenes,duration_manipulation_targetAtFixation,jsons/VE125_randls_25.json,http://54.235.29.9/FacialAge/BNav_EC2/DepthDuration/v2_depth_duration_MTurk/v2_DepthDuration_HTML.html#133,133,1462,738,1536,864,8-30-2022,10-1-27,1,depth_duration_stimuli/001059_2014-06-08_21-53-27_260595134347_rgbf000061-resize_4/001059_2014-06-08_21-53-27_260595134347_rgbf000061-resize_4-target.png,125,2.4185,0,4885,129,feet,jsons/VE125_randls_25.json,549032,1311250,62,Woman
1,563676,DepthScenes,duration_manipulation_targetAtFixation,jsons/VE125_randls_25.json,http://54.235.29.9/FacialAge/BNav_EC2/DepthDuration/v2_depth_duration_MTurk/v2_DepthDuration_HTML.html#133,133,1462,738,1536,864,8-30-2022,10-1-27,2,depth_duration_stimuli/001032_2014-06-08_13-23-17_260595134347_rgbf000021-resize_3/001032_2014-06-08_13-23-17_260595134347_rgbf000021-resize_3-target.png,125,3.2725,3,3356,124,feet,jsons/VE125_randls_25.json,549032,1311250,62,Woman
2,563676,DepthScenes,duration_manipulation_targetAtFixation,jsons/VE125_randls_25.json,http://54.235.29.9/FacialAge/BNav_EC2/DepthDuration/v2_depth_duration_MTurk/v2_DepthDuration_HTML.html#133,133,1462,738,1536,864,8-30-2022,10-1-27,3,depth_duration_stimuli/001066_2014-06-08_22-03-20_260595134347_rgbf000066-resize_4/001066_2014-06-08_22-03-20_260595134347_rgbf000066-resize_4-target.png,125,4.2330000000000005,4,2797,118,feet,jsons/VE125_randls_25.json,549032,1311250,62,Woman
3,563676,DepthScenes,duration_manipulation_targetAtFixation,jsons/VE125_randls_25.json,http://54.235.29.9/FacialAge/BNav_EC2/DepthDuration/v2_depth_duration_MTurk/v2_DepthDuration_HTML.html#133,133,1462,738,1536,864,8-30-2022,10-1-27,4,depth_duration_stimuli/000742_2014-06-08_18-48-09_260595134347_rgbf000164-resize_4/000742_2014-06-08_18-48-09_260595134347_rgbf000164-resize_4-target.png,125,4.632,4,3043,140,feet,jsons/VE125_randls_25.json,549032,1311250,62,Woman
4,563676,DepthScenes,duration_manipulation_targetAtFixation,jsons/VE125_randls_25.json,http://54.235.29.9/FacialAge/BNav_EC2/DepthDuration/v2_depth_duration_MTurk/v2_DepthDuration_HTML.html#133,133,1462,738,1536,864,8-30-2022,10-1-27,5,depth_duration_stimuli/002663_2014-06-13_15-50-26_094959634447_rgbf000075-resize_1/002663_2014-06-13_15-50-26_094959634447_rgbf000075-resize_1-target.png,125,4.7495,5,2741,110,feet,jsons/VE125_randls_25.json,549032,1311250,62,Woman
5,563676,DepthScenes,duration_manipulation_targetAtFixation,jsons/VE125_randls_25.json,http://54.235.29.9/FacialAge/BNav_EC2/DepthDuration/v2_depth_duration_MTurk/v2_DepthDuration_HTML.html#133,133,1462,738,1536,864,8-30-2022,10-1-27,6,depth_duration_stimuli/000409_2014-06-04_19-23-33_260595134347_rgbf000067-resize_0/000409_2014-06-04_19-23-33_260595134347_rgbf000067-resize_0-target.png,125,3.7335,5,2747,125,feet,jsons/VE125_randls_25.json,549032,1311250,62,Woman
6,563676,DepthScenes,duration_manipulation_targetAtFixation,jsons/VE125_randls_25.json,http://54.235.29.9/FacialAge/BNav_EC2/DepthDuration/v2_depth_duration_MTurk/v2_DepthDuration_HTML.html#133,133,1462,738,1536,864,8-30-2022,10-1-27,7,depth_duration_stimuli/000642_2014-06-08_16-59-25_260595134347_rgbf000098-resize_2/000642_2014-06-08_16-59-25_260595134347_rgbf000098-resize_2-target.png,125,2.8815,4,2598,129,feet,jsons/VE125_randls_25.json,549032,1311250,62,Woman
7,563676,DepthScenes,duration_manipulation_targetAtFixation,jsons/VE125_randls_25.json,http://54.235.29.9/FacialAge/BNav_EC2/DepthDuration/v2_depth_duration_MTurk/v2_DepthDuration_HTML.html#133,133,1462,738,1536,864,8-30-2022,10-1-27,8,depth_duration_stimuli/002425_2014-06-28_20-27-29_260595134347_rgbf000031-resize_8/002425_2014-06-28_20-27-29_260595134347_rgbf000031-resize_8-target.png,125,3.8960000000000004,5,2622,116,feet,jsons/VE125_randls_25.json,549032,1311250,62,Woman
8,563676,DepthScenes,duration_manipulation_targetAtFixation,jsons/VE125_randls_25.json,http://54.235.29.9/FacialAge/BNav_EC2/DepthDuration/v2_depth_duration_MTurk/v2_DepthDuration_HTML.html#133,133,1462,738,1536,864,8-30-2022,10-1-27,9,depth_duration_stimuli/001810_2014-06-26_20-51-35_260595134347_rgbf000040-resize_3/001810_2014-06-26_20-51-35_260595134347_rgbf000040-resize_3-target.png,125,2.2525,4,3003,124,feet,jsons/VE125_randls_25.json,549032,1311250,62,Woman
9,563676,DepthScenes,duration_manipulation_targetAtFixation,jsons/VE125_randls_25.json,http://54.235.29.9/FacialAge/BNav_EC2/DepthDuration/v2_depth_duration_MTurk/v2_DepthDuration_HTML.html#133,133,1462,738,1536,864,8-30-2022,10-1-27,10,depth_duration_stimuli/003010_2014-06-15_12-54-35_094959634447_rgbf000112-resize_0/003010_2014-06-15_12-54-35_094959634447_rgbf000112-resize_0-target.png,125,3.1185,5,2999,124,feet,jsons/VE125_randls_25.json,549032,1311250,62,Woman
10,563676,DepthScenes,duration_manipulation_targetAtFixation,jsons/VE125_randls_25.json,http://54.235.29.9/FacialAge/BNav_EC2/DepthDuration/v2_depth_duration_MTurk/v2_DepthDuration_HTML.html#133,133,1462,738,1536,864,8-30-2022,10-1-27,11,depth_duration_stimuli/002445_2014-06-28_20-32-16_260595134347_rgbf000029-resize_4/002445_2014-06-28_20-32-16_260595134347_rgbf000029-resize_4-target.png,125,2.5315,4,2733,109,feet,jsons/VE125_randls_25.json,549032,1311250,62,Woman
11,563676,DepthScenes,duration_manipulation_targetAtFixation,jsons/VE125_randls_25.json,http://54.235.29.9/FacialAge/BNav_EC2/DepthDuration/v2_depth_duration_MTurk/v2_DepthDuration_HTML.html#133,133,1462,738,1536,864,8-30-2022,10-1-27,12,depth_duration_stimuli/000780_2014-06-08_22-28-29_260595134347_rgbf000126-resize_1/000780_2014-06-08_22-28-29_260595134347_rgbf000126-resize_1-target.png,125,3.3825,5,2720,121,feet,jsons/VE125_randls_25.json,549032,1311250,62,Woman
12,563676,DepthScenes,duration_manipulation_targetAtFixation,jsons/VE125_randls_25.json,http://54.235.29.9/FacialAge/BNav_EC2/DepthDuration/v2_depth_duration_MTurk/v2_DepthDuration_HTML.html#133,133,1462,738,1536,864,8-30-2022,10-1-27,13,depth_duration_stimuli/000569_2014-06-09_22-51-47_260595134347_rgbf000141-resize_3/000569_2014-06-09_22-51-47_260595134347_rgbf000141-resize-original.jpg,125,4.512,5,4744,121,feet,jsons/VE125_randls_25.json,549032,1311250,62,Woman
13,563676,DepthScenes,duration_manipulation_targetAtFixation,jsons/VE125_randls_25.json,http://54.235.29.9/FacialAge/BNav_EC2/DepthDuration/v2_depth_duration_MTurk/v2_DepthDuration_HTML.html#133,133,1462,738,1536,864,8-30-2022,10-1-27,14,depth_duration_stimuli/001244_2014-06-17_16-47-45_260595134347_rgbf000030-resize_4/001244_2014-06-17_16-47-45_260595134347_rgbf000030-resize_4-target.png,125,2.0425,5,4642,125,feet,jsons/VE125_randls_25.json,549032,1311250,62,Woman
14,563676,DepthScenes,duration_manipulation_targetAtFixation,jsons/VE125_randls_25.json,http://54.235.29.9/FacialAge/BNav_EC2/DepthDuration/v2_depth_duration_MTurk/v2_DepthDuration_HTML.html#133,133,1462,738,1536,864,8-30-2022,10-1-27,15,depth_duration_stimuli/003495_2014-05-21_16-01-51_094959634447_rgbf000100-resize_3/003495_2014-05-21_16-01-51_094959634447_rgbf000100-resize_3-target.png,125,1.6255,3,2790,125,feet,jsons/VE125_randls_25.json,549032,1311250,62,Woman
15,563676,DepthScenes,duration_manipulation_targetAtFixation,jsons/VE125_randls_25.json,http://54.235.29.9/FacialAge/BNav_EC2/DepthDuration/v2_depth_duration_MTurk/v2_DepthDuration_HTML.html#133,133,1462,738,1536,864,8-30-2022,10-1-27,16,depth_duration_stimuli/003292_2014-05-14_21-53-49_094959634447_rgbf000100-resize_2/003292_2014-05-14_21-53-49_094959634447_rgbf000100-resize_2-target.png,125,3.4815,3,2679,130,feet,jsons/VE125_randls_25.json,549032,1311250,62,Woman
16,563676,DepthScenes,duration_manipulation_targetAtFixation,jsons/VE125_randls_25.json,http://54.235.29.9/FacialAge/BNav_EC2/DepthDuration/v2_depth_duration_MTurk/v2_DepthDuration_HTML.html#133,133,1462,738,1536,864,8-30-2022,10-1-27,17,depth_duration_stimuli/002639_2014-06-24_14-51-37_094959634447_rgbf000074-resize_4/002639_2014-06-24_14-51-37_094959634447_rgbf000074-resize_4-target.png,125,4.0375,4,2591,120,feet,jsons/VE125_randls_25.json,549032,1311250,62,Woman
17,563676,DepthScenes,duration_manipulation_targetAtFixation,jsons/VE125_randls_25.json,http://54.235.29.9/FacialAge/BNav_EC2/DepthDuration/v2_depth_duration_MTurk/v2_DepthDuration_HTML.html#133,133,1462,738,1536,864,8-30-2022,10-1-27,18,depth_duration_stimuli/000368_2014-06-09_15-53-01_260595134347_rgbf000155-resize_2/000368_2014-06-09_15-53-01_260595134347_rgbf000155-resize_2-target.png,125,2.4859999999999998,5,2725,120,feet,jsons/VE125_randls_25.json,549032,1311250,62,Woman
18,563676,DepthScenes,duration_manipulation_targetAtFixation,jsons/VE125_randls_25.json,http://54.235.29.9/FacialAge/BNav_EC2/DepthDuration/v2_depth_duration_MTurk/v2_DepthDuration_HTML.html#133,133,1462,738,1536,864,8-30-2022,10-1-27,19,depth_duration_stimuli/002678_2014-06-13_16-15-32_094959634447_rgbf000151-resize_6/002678_2014-06-13_16-15-32_094959634447_rgbf000151-resize_6-target.png,125,2.1830000000000003,5,2607,123,feet,jsons/VE125_randls_25.json,549032,1311250,62,Woman
19,563676,DepthScenes,duration_manipulation_targetAtFixation,jsons/VE125_randls_25.json,http://54.235.29.9/FacialAge/BNav_EC2/DepthDuration/v2_depth_duration_MTurk/v2_DepthDuration_HTML.html#133,133,1462,738,1536,864,8-30-2022,10-1-27,20,depth_duration_stimuli/002784_2014-06-22_19-26-30_094959634447_rgbf000083-resize_3/002784_2014-06-22_19-26-30_094959634447_rgbf000083-resize_3-target.png,125,1.8046666666667,4,2812,124,feet,jsons/VE125_randls_25.json,549032,1311250,62,Woman
20,563676,DepthScenes,duration_manipulation_targetAtFixation,jsons/VE125_randls_25.json,http://54.235.29.9/FacialAge/BNav_EC2/DepthDuration/v2_depth_duration_MTurk/v2_DepthDuration_HTML.html#133,133,1462,738,1536,864,8-30-2022,10-1-27,21,depth_duration_stimuli/001100_2014-06-15_17-46-26_260595134347_rgbf000225-resize_2/001100_2014-06-15_17-46-26_260595134347_rgbf000225-resize_2-target.png,125,2.24,4,2307,116,feet,jsons/VE125_randls_25.json,549032,1311250,62,Woman
21,563676,DepthScenes,duration_manipulation_targetAtFixation,jsons/VE125_randls_25.json,http://54.235.29.9/FacialAge/BNav_EC2/DepthDuration/v2_depth_duration_MTurk/v2_DepthDuration_HTML.html#133,133,1462,738,1536,864,8-30-2022,10-1-27,22,depth_duration_stimuli/002630_2014-06-24_14-47-50_094959634447_rgbf000055-resize_1/002630_2014-06-24_14-47-50_094959634447_rgbf000055-resize_1-target.png,125,3.0095,4,2737,115,feet,jsons/VE125_randls_25.json,549032,1311250,62,Woman
22,563676,DepthScenes,duration_manipulation_targetAtFixation,jsons/VE125_randls_25.json,http://54.235.29.9/FacialAge/BNav_EC2/DepthDuration/v2_depth_duration_MTurk/v2_DepthDuration_HTML.html#133,133,1462,738,1536,864,8-30-2022,10-1-27,23,depth_duration_stimuli/002758_2014-06-22_19-11-20_094959634447_rgbf000128-resize_1/002758_2014-06-22_19-11-20_094959634447_rgbf000128-resize_1-target.png,125,2.555,5,2570,116,feet,jsons/VE125_randls_25.json,549032,1311250,62,Woman
23,563676,DepthScenes,duration_manipulation_targetAtFixation,jsons/VE125_randls_25.json,http://54.235.29.9/FacialAge/BNav_EC2/DepthDuration/v2_depth_duration_MTurk/v2_DepthDuration_HTML.html#133,133,1462,738,1536,864,8-30-2022,10-1-27,24,depth_duration_stimuli/001449_2014-06-19_17-01-27_260595134347_rgbf000116-resize_2/001449_2014-06-19_17-01-27_260595134347_rgbf000116-resize_2-target.png,125,3.452,5,2238,116,feet,jsons/VE125_randls_25.json,549032,1311250,62,Woman
24,563676,DepthScenes,duration_manipulation_targetAtFixation,jsons/VE125_randls_25.json,http://54.235.29.9/FacialAge/BNav_EC2/DepthDuration/v2_depth_duration_MTurk/v2_DepthDuration_HTML.html#133,133,1462,738,1536,864,8-30-2022,10-1-27,25,depth_duration_stimuli/001450_2014-06-19_17-02-03_260595134347_rgbf000203-resize_4/001450_2014-06-19_17-02-03_260595134347_rgbf000203-resize_4-target.png,125,4.0106666666667,5,2290,118,feet,jsons/VE125_randls_25.json,549032,1311250,62,Woman
25,563676,DepthScenes,duration_manipulation_targetAtFixation,jsons/VE125_randls_25.json,http://54.235.29.9/FacialAge/BNav_EC2/DepthDuration/v2_depth_duration_MTurk/v2_DepthDuration_HTML.html#133,133,1462,738,1536,864,8-30-2022,10-1-27,26,depth_duration_stimuli/002905_2014-06-03_18-04-43_094959634447_rgbf000151-resize_2/002905_2014-06-03_18-04-43_094959634447_rgbf000151-resize_2-target.png,125,2.0295,4,2958,121,feet,jsons/VE125_randls_25.json,549032,1311250,62,Woman
26,563676,DepthScenes,duration_manipulation_targetAtFixation,jsons/VE125_randls_25.json,http://54.235.29.9/FacialAge/BNav_EC2/DepthDuration/v2_depth_duration_MTurk/v2_DepthDuration_HTML.html#133,133,1462,738,1536,864,8-30-2022,10-1-27,27,depth_duration_stimuli/003423_2014-05-21_10-23-26_094959634447_rgbf002665-resize_2/003423_2014-05-21_10-23-26_094959634447_rgbf002665-resize_2-target.png,125,3.2575,4,2540,127,feet,jsons/VE125_randls_25.json,549032,1311250,62,Woman
27,563676,DepthScenes,duration_manipulation_targetAtFixation,jsons/VE125_randls_25.json,http://54.235.29.9/FacialAge/BNav_EC2/DepthDuration/v2_depth_duration_MTurk/v2_DepthDuration_HTML.html#133,133,1462,738,1536,864,8-30-2022,10-1-27,28,depth_duration_stimuli/000788_2014-06-08_22-34-36_260595134347_rgbf000131-resize_1/000788_2014-06-08_22-34-36_260595134347_rgbf000131-resize_1-target.png,125,3.359,4,2732,134,feet,jsons/VE125_randls_25.json,549032,1311250,62,Woman
28,563676,DepthScenes,duration_manipulation_targetAtFixation,jsons/VE125_randls_25.json,http://54.235.29.9/FacialAge/BNav_EC2/DepthDuration/v2_depth_duration_MTurk/v2_DepthDuration_HTML.html#133,133,1462,738,1536,864,8-30-2022,10-1-27,29,depth_duration_stimuli/001235_2014-06-17_16-37-36_260595134347_rgbf000084-resize_4/001235_2014-06-17_16-37-36_260595134347_rgbf000084-resize_4-target.png,125,3.6605,5,2787,135,feet,jsons/VE125_randls_25.json,549032,1311250,62,Woman
29,563676,DepthScenes,duration_manipulation_targetAtFixation,jsons/VE125_randls_25.json,http://54.235.29.9/FacialAge/BNav_EC2/DepthDuration/v2_depth_duration_MTurk/v2_DepthDuration_HTML.html#133,133,1462,738,1536,864,8-30-2022,10-1-27,30,depth_duration_stimuli/000375_2014-06-08_11-17-29_260595134347_rgbf000133-resize_2/000375_2014-06-08_11-17-29_260595134347_rgbf000133-resize-original.jpg,125,4.718,5,2226,120,feet,jsons/VE125_randls_25.json,549032,1311250,62,Woman
30,563676,DepthScenes,duration_manipulation_targetAtFixation,jsons/VE125_randls_25.json,http://54.235.29.9/FacialAge/BNav_EC2/DepthDuration/v2_depth_duration_MTurk/v2_DepthDuration_HTML.html#133,133,1462,738,1536,864,8-30-2022,10-1-27,31,depth_duration_stimuli/000447_2014-06-08_16-15-46_260595134347_rgbf000130-resize_1/000447_2014-06-08_16-15-46_260595134347_rgbf000130-resize_1-target.png,125,4.479,6,2294,113,feet,jsons/VE125_randls_25.json,549032,1311250,62,Woman
31,563676,DepthScenes,duration_manipulation_targetAtFixation,jsons/VE125_randls_25.json,http://54.235.29.9/FacialAge/BNav_EC2/DepthDuration/v2_depth_duration_MTurk/v2_DepthDuration_HTML.html#133,133,1462,738,1536,864,8-30-2022,10-1-27,32,depth_duration_stimuli/001447_2014-06-19_17-00-32_260595134347_rgbf000082-resize_5/001447_2014-06-19_17-00-32_260595134347_rgbf000082-resize_5-target.png,125,4.13775,5,2603,136,feet,jsons/VE125_randls_25.json,549032,1311250,62,Woman
32,563676,DepthScenes,duration_manipulation_targetAtFixation,jsons/VE125_randls_25.json,http://54.235.29.9/FacialAge/BNav_EC2/DepthDuration/v2_depth_duration_MTurk/v2_DepthDuration_HTML.html#133,133,1462,738,1536,864,8-30-2022,10-1-27,33,depth_duration_stimuli/000906_2014-06-08_13-35-43_260595134347_rgbf000155-resize_1/000906_2014-06-08_13-35-43_260595134347_rgbf000155-resize_1-target.png,125,2.8489999999999998,5,2565,123,feet,jsons/VE125_randls_25.json,549032,1311250,62,Woman
33,563676,DepthScenes,duration_manipulation_targetAtFixation,jsons/VE125_randls_25.json,http://54.235.29.9/FacialAge/BNav_EC2/DepthDuration/v2_depth_duration_MTurk/v2_DepthDuration_HTML.html#133,133,1462,738,1536,864,8-30-2022,10-1-27,34,depth_duration_stimuli/002805_2014-06-22_19-54-03_094959634447_rgbf000079-resize_1/002805_2014-06-22_19-54-03_094959634447_rgbf000079-resize_1-target.png,125,3.1439999999999997,5,2868,130,feet,jsons/VE125_randls_25.json,549032,1311250,62,Woman
34,563676,DepthScenes,duration_manipulation_targetAtFixation,jsons/VE125_randls_25.json,http://54.235.29.9/FacialAge/BNav_EC2/DepthDuration/v2_depth_duration_MTurk/v2_DepthDuration_HTML.html#133,133,1462,738,1536,864,8-30-2022,10-1-27,35,depth_duration_stimuli/002043_2014-06-24_20-29-38_260595134347_rgbf000039-resize_4/002043_2014-06-24_20-29-38_260595134347_rgbf000039-resize_4-target.png,125,2.8435,6,5821,123,feet,jsons/VE125_randls_25.json,549032,1311250,62,Woman
35,563676,DepthScenes,duration_manipulation_targetAtFixation,jsons/VE125_randls_25.json,http://54.235.29.9/FacialAge/BNav_EC2/DepthDuration/v2_depth_duration_MTurk/v2_DepthDuration_HTML.html#133,133,1462,738,1536,864,8-30-2022,10-1-27,36,depth_duration_stimuli/003048_2014-06-15_13-49-43_094959634447_rgbf000150-resize_1/003048_2014-06-15_13-49-43_094959634447_rgbf000150-resize_1-target.png,125,4.0035,6,4587,124,feet,jsons/VE125_randls_25.json,549032,1311250,62,Woman
36,563676,DepthScenes,duration_manipulation_targetAtFixation,jsons/VE125_randls_25.json,http://54.235.29.9/FacialAge/BNav_EC2/DepthDuration/v2_depth_duration_MTurk/v2_DepthDuration_HTML.html#133,133,1462,738,1536,864,8-30-2022,10-1-27,37,depth_duration_stimuli/002725_2014-06-22_11-47-51_094959634447_rgbf000070-resize_1/002725_2014-06-22_11-47-51_094959634447_rgbf000070-resize_1-target.png,125,2.195,5,3305,131,feet,jsons/VE125_randls_25.json,549032,1311250,62,Woman
37,563676,DepthScenes,duration_manipulation_targetAtFixation,jsons/VE125_randls_25.json,http://54.235.29.9/FacialAge/BNav_EC2/DepthDuration/v2_depth_duration_MTurk/v2_DepthDuration_HTML.html#133,133,1462,738,1536,864,8-30-2022,10-1-27,38,depth_duration_stimuli/002344_2014-06-28_20-06-29_260595134347_rgbf000030-resize_1/002344_2014-06-28_20-06-29_260595134347_rgbf000030-resize_1-target.png,125,1.5795,0,3548,118,feet,jsons/VE125_randls_25.json,549032,1311250,62,Woman
38,563676,DepthScenes,duration_manipulation_targetAtFixation,jsons/VE125_randls_25.json,http://54.235.29.9/FacialAge/BNav_EC2/DepthDuration/v2_depth_duration_MTurk/v2_DepthDuration_HTML.html#133,133,1462,738,1536,864,8-30-2022,10-1-27,39,depth_duration_stimuli/001158_2014-06-17_15-32-16_260595134347_rgbf000138-resize_2/001158_2014-06-17_15-32-16_260595134347_rgbf000138-resize_2-target.png,125,4.5315,6,2486,123,feet,jsons/VE125_randls_25.json,549032,1311250,62,Woman
39,563676,DepthScenes,duration_manipulation_targetAtFixation,jsons/VE125_randls_25.json,http://54.235.29.9/FacialAge/BNav_EC2/DepthDuration/v2_depth_duration_MTurk/v2_DepthDuration_HTML.html#133,133,1462,738,1536,864,8-30-2022,10-1-27,40,depth_duration_stimuli/000556_2014-06-09_22-42-56_260595134347_rgbf000214-resize_1/000556_2014-06-09_22-42-56_260595134347_rgbf000214-resize_1-target.png,125,4.8415,5,2749,128,feet,jsons/VE125_randls_25.json,549032,1311250,62,Woman
40,563676,DepthScenes,duration_manipulation_targetAtFixation,jsons/VE125_randls_25.json,http://54.235.29.9/FacialAge/BNav_EC2/DepthDuration/v2_depth_duration_MTurk/v2_DepthDuration_HTML.html#133,133,1462,738,1536,864,8-30-2022,10-1-27,41,depth_duration_stimuli/003534_2014-05-22_15-06-10_094959634447_rgbf000102-resize_4/003534_2014-05-22_15-06-10_094959634447_rgbf000102-resize_4-target.png,125,1.426,3,2728,128,feet,jsons/VE125_randls_25.json,549032,1311250,62,Woman
41,563676,DepthScenes,duration_manipulation_targetAtFixation,jsons/VE125_randls_25.json,http://54.235.29.9/FacialAge/BNav_EC2/DepthDuration/v2_depth_duration_MTurk/v2_DepthDuration_HTML.html#133,133,1462,738,1536,864,8-30-2022,10-1-27,42,depth_duration_stimuli/002637_2014-06-24_14-51-13_094959634447_rgbf000066-resize_4/002637_2014-06-24_14-51-13_094959634447_rgbf000066-resize_4-target.png,125,1.9955,4,2543,115,feet,jsons/VE125_randls_25.json,549032,1311250,62,Woman
42,563676,DepthScenes,duration_manipulation_targetAtFixation,jsons/VE125_randls_25.json,http://54.235.29.9/FacialAge/BNav_EC2/DepthDuration/v2_depth_duration_MTurk/v2_DepthDuration_HTML.html#133,133,1462,738,1536,864,8-30-2022,10-1-27,43,depth_duration_stimuli/000522_2014-06-08_13-35-06_260595134347_rgbf000244-resize_1/000522_2014-06-08_13-35-06_260595134347_rgbf000244-resize_1-target.png,125,2.3715,3,2625,125,feet,jsons/VE125_randls_25.json,549032,1311250,62,Woman
43,563676,DepthScenes,duration_manipulation_targetAtFixation,jsons/VE125_randls_25.json,http://54.235.29.9/FacialAge/BNav_EC2/DepthDuration/v2_depth_duration_MTurk/v2_DepthDuration_HTML.html#133,133,1462,738,1536,864,8-30-2022,10-1-27,44,depth_duration_stimuli/002949_2014-06-26_15-57-42_094959634447_rgbf000079-resize_1/002949_2014-06-26_15-57-42_094959634447_rgbf000079-resize_1-target.png,125,1.8915,3,1987,124,feet,jsons/VE125_randls_25.json,549032,1311250,62,Woman
44,563676,DepthScenes,duration_manipulation_targetAtFixation,jsons/VE125_randls_25.json,http://54.235.29.9/FacialAge/BNav_EC2/DepthDuration/v2_depth_duration_MTurk/v2_DepthDuration_HTML.html#133,133,1462,738,1536,864,8-30-2022,10-1-27,45,depth_duration_stimuli/000787_2014-06-08_22-33-53_260595134347_rgbf000175-resize_1/000787_2014-06-08_22-33-53_260595134347_rgbf000175-resize-original.jpg,125,4.784,4,5817,133,feet,jsons/VE125_randls_25.json,549032,1311250,62,Woman
45,563676,DepthScenes,duration_manipulation_targetAtFixation,jsons/VE125_randls_25.json,http://54.235.29.9/FacialAge/BNav_EC2/DepthDuration/v2_depth_duration_MTurk/v2_DepthDuration_HTML.html#133,133,1462,738,1536,864,8-30-2022,10-1-27,46,depth_duration_stimuli/000810_2014-06-08_17-20-01_260595134347_rgbf000105-resize_0/000810_2014-06-08_17-20-01_260595134347_rgbf000105-resize_0-target.png,125,1.4865,3,2980,122,feet,jsons/VE125_randls_25.json,549032,1311250,62,Woman
46,563676,DepthScenes,duration_manipulation_targetAtFixation,jsons/VE125_randls_25.json,http://54.235.29.9/FacialAge/BNav_EC2/DepthDuration/v2_depth_duration_MTurk/v2_DepthDuration_HTML.html#133,133,1462,738,1536,864,8-30-2022,10-1-27,47,depth_duration_stimuli/001214_2014-06-17_16-13-55_260595134347_rgbf000111-resize_0/001214_2014-06-17_16-13-55_260595134347_rgbf000111-resize_0-target.png,125,2.6505,3,2738,117,feet,jsons/VE125_randls_25.json,549032,1311250,62,Woman
47,563676,DepthScenes,duration_manipulation_targetAtFixation,jsons/VE125_randls_25.json,http://54.235.29.9/FacialAge/BNav_EC2/DepthDuration/v2_depth_duration_MTurk/v2_DepthDuration_HTML.html#133,133,1462,738,1536,864,8-30-2022,10-1-27,48,depth_duration_stimuli/000758_2014-06-08_22-05-08_260595134347_rgbf000085-resize_0/000758_2014-06-08_22-05-08_260595134347_rgbf000085-resize_0-target.png,125,3.3810000000000002,5,2536,121,feet,jsons/VE125_randls_25.json,549032,1311250,62,Woman
48,563676,DepthScenes,duration_manipulation_targetAtFixation,jsons/VE125_randls_25.json,http://54.235.29.9/FacialAge/BNav_EC2/DepthDuration/v2_depth_duration_MTurk/v2_DepthDuration_HTML.html#133,133,1462,738,1536,864,8-30-2022,10-1-27,49,depth_duration_stimuli/000854_2014-06-09_19-43-13_260595134347_rgbf000066-resize_0/000854_2014-06-09_19-43-13_260595134347_rgbf000066-resize_0-target.png,125,3.068,4,4642,124,feet,jsons/VE125_randls_25.json,549032,1311250,62,Woman
49,563676,DepthScenes,duration_manipulation_targetAtFixation,jsons/VE125_randls_25.json,http://54.235.29.9/FacialAge/BNav_EC2/DepthDuration/v2_depth_duration_MTurk/v2_DepthDuration_HTML.html#133,133,1462,738,1536,864,8-30-2022,10-1-27,50,depth_duration_stimuli/000692_2014-06-08_13-09-42_260595134347_rgbf000199-resize_2/000692_2014-06-08_13-09-42_260595134347_rgbf000199-resize_2-target.png,125,3.661,6,2832,131,feet,jsons/VE125_randls_25.json,549032,1311250,62,Woman
50,563676,DepthScenes,duration_manipulation_targetAtFixation,jsons/VE125_randls_25.json,http://54.235.29.9/FacialAge/BNav_EC2/DepthDuration/v2_depth_duration_MTurk/v2_DepthDuration_HTML.html#133,133,1462,738,1536,864,8-30-2022,10-1-27,51,depth_duration_stimuli/001094_2014-06-15_17-36-00_260595134347_rgbf000205-resize_0/001094_2014-06-15_17-36-00_260595134347_rgbf000205-resize_0-target.png,125,4.2175,6,2328,125,feet,jsons/VE125_randls_25.json,549032,1311250,62,Woman
51,563676,DepthScenes,duration_manipulation_targetAtFixation,jsons/VE125_randls_25.json,http://54.235.29.9/FacialAge/BNav_EC2/DepthDuration/v2_depth_duration_MTurk/v2_DepthDuration_HTML.html#133,133,1462,738,1536,864,8-30-2022,10-1-27,52,depth_duration_stimuli/001133_2014-06-17_14-49-16_260595134347_rgbf000100-resize_0/001133_2014-06-17_14-49-16_260595134347_rgbf000100-resize_0-target.png,125,4.2115,6,2103,115,feet,jsons/VE125_randls_25.json,549032,1311250,62,Woman
52,563676,DepthScenes,duration_manipulation_targetAtFixation,jsons/VE125_randls_25.json,http://54.235.29.9/FacialAge/BNav_EC2/DepthDuration/v2_depth_duration_MTurk/v2_DepthDuration_HTML.html#133,133,1462,738,1536,864,8-30-2022,10-1-27,53,depth_duration_stimuli/001132_2014-06-17_14-48-54_260595134347_rgbf000100-resize_2/001132_2014-06-17_14-48-54_260595134347_rgbf000100-resize_2-target.png,125,3.753,5,2452,120,feet,jsons/VE125_randls_25.json,549032,1311250,62,Woman
53,563676,DepthScenes,duration_manipulation_targetAtFixation,jsons/VE125_randls_25.json,http://54.235.29.9/FacialAge/BNav_EC2/DepthDuration/v2_depth_duration_MTurk/v2_DepthDuration_HTML.html#133,133,1462,738,1536,864,8-30-2022,10-1-27,54,depth_duration_stimuli/001555_2014-06-20_17-12-10_260595134347_rgbf000065-resize_4/001555_2014-06-20_17-12-10_260595134347_rgbf000065-resize_4-target.png,125,1.633,4,2181,118,feet,jsons/VE125_randls_25.json,549032,1311250,62,Woman
54,563676,DepthScenes,duration_manipulation_targetAtFixation,jsons/VE125_randls_25.json,http://54.235.29.9/FacialAge/BNav_EC2/DepthDuration/v2_depth_duration_MTurk/v2_DepthDuration_HTML.html#133,133,1462,738,1536,864,8-30-2022,10-1-27,55,depth_duration_stimuli/000103_2014-05-14_22-01-17_260595134347_rgbf000152-resize_5/000103_2014-05-14_22-01-17_260595134347_rgbf000152-resize_5-target.png,125,1.993,7,2427,134,feet,jsons/VE125_randls_25.json,549032,1311250,62,Woman
55,563676,DepthScenes,duration_manipulation_targetAtFixation,jsons/VE125_randls_25.json,http://54.235.29.9/FacialAge/BNav_EC2/DepthDuration/v2_depth_duration_MTurk/v2_DepthDuration_HTML.html#133,133,1462,738,1536,864,8-30-2022,10-1-27,56,depth_duration_stimuli/002570_2014-06-24_13-59-54_094959634447_rgbf000059-resize_0/002570_2014-06-24_13-59-54_094959634447_rgbf000059-resize_0-target.png,125,4.037,6,2582,126,feet,jsons/VE125_randls_25.json,549032,1311250,62,Woman
56,563676,DepthScenes,duration_manipulation_targetAtFixation,jsons/VE125_randls_25.json,http://54.235.29.9/FacialAge/BNav_EC2/DepthDuration/v2_depth_duration_MTurk/v2_DepthDuration_HTML.html#133,133,1462,738,1536,864,8-30-2022,10-1-27,57,depth_duration_stimuli/002467_2014-06-28_20-38-07_260595134347_rgbf000026-resize_2/002467_2014-06-28_20-38-07_260595134347_rgbf000026-resize_2-target.png,125,4.742,5,3298,117,feet,jsons/VE125_randls_25.json,549032,1311250,62,Woman
57,563676,DepthScenes,duration_manipulation_targetAtFixation,jsons/VE125_randls_25.json,http://54.235.29.9/FacialAge/BNav_EC2/DepthDuration/v2_depth_duration_MTurk/v2_DepthDuration_HTML.html#133,133,1462,738,1536,864,8-30-2022,10-1-27,58,depth_duration_stimuli/001570_2014-06-20_17-21-09_260595134347_rgbf000135-resize_4/001570_2014-06-20_17-21-09_260595134347_rgbf000135-resize_4-target.png,125,4.467,5,2604,119,feet,jsons/VE125_randls_25.json,549032,1311250,62,Woman
58,563676,DepthScenes,duration_manipulation_targetAtFixation,jsons/VE125_randls_25.json,http://54.235.29.9/FacialAge/BNav_EC2/DepthDuration/v2_depth_duration_MTurk/v2_DepthDuration_HTML.html#133,133,1462,738,1536,864,8-30-2022,10-1-27,59,depth_duration_stimuli/001392_2014-06-19_16-07-59_260595134347_rgbf000046-resize_1/001392_2014-06-19_16-07-59_260595134347_rgbf000046-resize_1-target.png,125,4.135,6,3188,123,feet,jsons/VE125_randls_25.json,549032,1311250,62,Woman
59,563676,DepthScenes,duration_manipulation_targetAtFixation,jsons/VE125_randls_25.json,http://54.235.29.9/FacialAge/BNav_EC2/DepthDuration/v2_depth_duration_MTurk/v2_DepthDuration_HTML.html#133,133,1462,738,1536,864,8-30-2022,10-1-27,60,depth_duration_stimuli/002549_2014-06-24_13-41-39_094959634447_rgbf000022-resize_3/002549_2014-06-24_13-41-39_094959634447_rgbf000022-resize_3-target.png,125,1.476,33,3284,135,feet,jsons/VE125_randls_25.json,549032,1311250,62,Woman
60,563676,DepthScenes,duration_manipulation_targetAtFixation,jsons/VE125_randls_25.json,http://54.235.29.9/FacialAge/BNav_EC2/DepthDuration/v2_depth_duration_MTurk/v2_DepthDuration_HTML.html#133,133,1462,738,1536,864,8-30-2022,10-1-27,61,depth_duration_stimuli/002750_2014-06-22_19-08-03_094959634447_rgbf000094-resize_4/002750_2014-06-22_19-08-03_094959634447_rgbf000094-resize_4-target.png,125,2.354,3,3734,124,feet,jsons/VE125_randls_25.json,549032,1311250,62,Woman
61,563676,DepthScenes,duration_manipulation_targetAtFixation,jsons/VE125_randls_25.json,http://54.235.29.9/FacialAge/BNav_EC2/DepthDuration/v2_depth_duration_MTurk/v2_DepthDuration_HTML.html#133,133,1462,738,1536,864,8-30-2022,10-1-27,62,depth_duration_stimuli/001110_2014-06-15_17-25-28_260595134347_rgbf000150-resize_1/001110_2014-06-15_17-25-28_260595134347_rgbf000150-resize_1-target.png,125,1.7115,4,3198,125,feet,jsons/VE125_randls_25.json,549032,1311250,62,Woman
62,563676,DepthScenes,duration_manipulation_targetAtFixation,jsons/VE125_randls_25.json,http://54.235.29.9/FacialAge/BNav_EC2/DepthDuration/v2_depth_duration_MTurk/v2_DepthDuration_HTML.html#133,133,1462,738,1536,864,8-30-2022,10-1-27,63,depth_duration_stimuli/000927_2014-06-09_16-32-30_260595134347_rgbf000123-resize_3/000927_2014-06-09_16-32-30_260595134347_rgbf000123-resize_3-target.png,125,2.6785,5,2587,124,feet,jsons/VE125_randls_25.json,549032,1311250,62,Woman
63,563676,DepthScenes,duration_manipulation_targetAtFixation,jsons/VE125_randls_25.json,http://54.235.29.9/FacialAge/BNav_EC2/DepthDuration/v2_depth_duration_MTurk/v2_DepthDuration_HTML.html#133,133,1462,738,1536,864,8-30-2022,10-1-27,64,depth_duration_stimuli/002763_2014-06-22_19-13-10_094959634447_rgbf000075-resize_4/002763_2014-06-22_19-13-10_094959634447_rgbf000075-resize_4-target.png,125,1.68375,4,3308,128,feet,jsons/VE125_randls_25.json,549032,1311250,62,Woman
64,563676,DepthScenes,duration_manipulation_targetAtFixation,jsons/VE125_randls_25.json,http://54.235.29.9/FacialAge/BNav_EC2/DepthDuration/v2_depth_duration_MTurk/v2_DepthDuration_HTML.html#133,133,1462,738,1536,864,8-30-2022,10-1-27,65,depth_duration_stimuli/002209_2014-06-28_18-36-10_260595134347_rgbf000051-resize_1/002209_2014-06-28_18-36-10_260595134347_rgbf000051-resize_1-target.png,125,2.057,4,3153,133,feet,jsons/VE125_randls_25.json,549032,1311250,62,Woman
65,563676,DepthScenes,duration_manipulation_targetAtFixation,jsons/VE125_randls_25.json,http://54.235.29.9/FacialAge/BNav_EC2/DepthDuration/v2_depth_duration_MTurk/v2_DepthDuration_HTML.html#133,133,1462,738,1536,864,8-30-2022,10-1-27,66,depth_duration_stimuli/001222_2014-06-17_16-24-06_260595134347_rgbf000073-resize_0/001222_2014-06-17_16-24-06_260595134347_rgbf000073-resize-original.jpg,125,1.4385,0,3137,122,feet,jsons/VE125_randls_25.json,549032,1311250,62,Woman
66,563676,DepthScenes,duration_manipulation_targetAtFixation,jsons/VE125_randls_25.json,http://54.235.29.9/FacialAge/BNav_EC2/DepthDuration/v2_depth_duration_MTurk/v2_DepthDuration_HTML.html#133,133,1462,738,1536,864,8-30-2022,10-1-27,67,depth_duration_stimuli/000436_2014-06-09_22-25-11_260595134347_rgbf000137-resize_1/000436_2014-06-09_22-25-11_260595134347_rgbf000137-resize_1-target.png,125,4.0705,6,4649,127,feet,jsons/VE125_randls_25.json,549032,1311250,62,Woman
67,563676,DepthScenes,duration_manipulation_targetAtFixation,jsons/VE125_randls_25.json,http://54.235.29.9/FacialAge/BNav_EC2/DepthDuration/v2_depth_duration_MTurk/v2_DepthDuration_HTML.html#133,133,1462,738,1536,864,8-30-2022,10-1-27,68,depth_duration_stimuli/002444_2014-06-28_20-32-08_260595134347_rgbf000027-resize_0/002444_2014-06-28_20-32-08_260595134347_rgbf000027-resize_0-target.png,125,4.388999999999999,6,2796,110,feet,jsons/VE125_randls_25.json,549032,1311250,62,Woman
68,563676,DepthScenes,duration_manipulation_targetAtFixation,jsons/VE125_randls_25.json,http://54.235.29.9/FacialAge/BNav_EC2/DepthDuration/v2_depth_duration_MTurk/v2_DepthDuration_HTML.html#133,133,1462,738,1536,864,8-30-2022,10-1-27,69,depth_duration_stimuli/002988_2014-06-15_12-24-20_094959634447_rgbf000150-resize_1/002988_2014-06-15_12-24-20_094959634447_rgbf000150-resize_1-target.png,125,4.7669999999999995,7,2644,122,feet,jsons/VE125_randls_25.json,549032,1311250,62,Woman
69,563676,DepthScenes,duration_manipulation_targetAtFixation,jsons/VE125_randls_25.json,http://54.235.29.9/FacialAge/BNav_EC2/DepthDuration/v2_depth_duration_MTurk/v2_DepthDuration_HTML.html#133,133,1462,738,1536,864,8-30-2022,10-1-27,70,depth_duration_stimuli/001052_2014-06-08_18-24-54_260595134347_rgbf000130-resize_1/001052_2014-06-08_18-24-54_260595134347_rgbf000130-resize_1-target.png,125,4.1045,7,2134,121,feet,jsons/VE125_randls_25.json,549032,1311250,62,Woman
70,563676,DepthScenes,duration_manipulation_targetAtFixation,jsons/VE125_randls_25.json,http://54.235.29.9/FacialAge/BNav_EC2/DepthDuration/v2_depth_duration_MTurk/v2_DepthDuration_HTML.html#133,133,1462,738,1536,864,8-30-2022,10-1-27,71,depth_duration_stimuli/001150_2014-06-17_15-27-34_260595134347_rgbf000108-resize_2/001150_2014-06-17_15-27-34_260595134347_rgbf000108-resize_2-target.png,125,4.0325,7,2179,126,feet,jsons/VE125_randls_25.json,549032,1311250,62,Woman
71,563676,DepthScenes,duration_manipulation_targetAtFixation,jsons/VE125_randls_25.json,http://54.235.29.9/FacialAge/BNav_EC2/DepthDuration/v2_depth_duration_MTurk/v2_DepthDuration_HTML.html#133,133,1462,738,1536,864,8-30-2022,10-1-27,72,depth_duration_stimuli/000665_2014-06-09_20-42-35_260595134347_rgbf000110-resize_1/000665_2014-06-09_20-42-35_260595134347_rgbf000110-resize_1-target.png,125,3.057,6,2635,126,feet,jsons/VE125_randls_25.json,549032,1311250,62,Woman
72,563676,DepthScenes,duration_manipulation_targetAtFixation,jsons/VE125_randls_25.json,http://54.235.29.9/FacialAge/BNav_EC2/DepthDuration/v2_depth_duration_MTurk/v2_DepthDuration_HTML.html#133,133,1462,738,1536,864,8-30-2022,10-1-27,73,depth_duration_stimuli/001055_2014-06-08_18-45-35_260595134347_rgbf000111-resize_4/001055_2014-06-08_18-45-35_260595134347_rgbf000111-resize_4-target.png,125,2.4290000000000003,8,2771,140,feet,jsons/VE125_randls_25.json,549032,1311250,62,Woman
73,563676,DepthScenes,duration_manipulation_targetAtFixation,jsons/VE125_randls_25.json,http://54.235.29.9/FacialAge/BNav_EC2/DepthDuration/v2_depth_duration_MTurk/v2_DepthDuration_HTML.html#133,133,1462,738,1536,864,8-30-2022,10-1-27,74,depth_duration_stimuli/000549_2014-06-08_22-10-24_260595134347_rgbf000247-resize_3/000549_2014-06-08_22-10-24_260595134347_rgbf000247-resize_3-target.png,125,1.841,2,2834,137,feet,jsons/VE125_randls_25.json,549032,1311250,62,Woman
74,563676,DepthScenes,duration_manipulation_targetAtFixation,jsons/VE125_randls_25.json,http://54.235.29.9/FacialAge/BNav_EC2/DepthDuration/v2_depth_duration_MTurk/v2_DepthDuration_HTML.html#133,133,1462,738,1536,864,8-30-2022,10-1-27,75,depth_duration_stimuli/000917_2014-06-09_22-45-29_260595134347_rgbf000149-resize_3/000917_2014-06-09_22-45-29_260595134347_rgbf000149-resize_3-target.png,125,4.1865,4,2653,117,feet,jsons/VE125_randls_25.json,549032,1311250,62,Woman
75,563676,DepthScenes,duration_manipulation_targetAtFixation,jsons/VE125_randls_25.json,http://54.235.29.9/FacialAge/BNav_EC2/DepthDuration/v2_depth_duration_MTurk/v2_DepthDuration_HTML.html#133,133,1462,738,1536,864,8-30-2022,10-1-27,76,depth_duration_stimuli/002323_2014-06-28_20-01-54_260595134347_rgbf000051-resize_4/002323_2014-06-28_20-01-54_260595134347_rgbf000051-resize_4-target.png,125,3.7310000000000003,5,2680,119,feet,jsons/VE125_randls_25.json,549032,1311250,62,Woman
76,563676,DepthScenes,duration_manipulation_targetAtFixation,jsons/VE125_randls_25.json,http://54.235.29.9/FacialAge/BNav_EC2/DepthDuration/v2_depth_duration_MTurk/v2_DepthDuration_HTML.html#133,133,1462,738,1536,864,8-30-2022,10-1-27,77,depth_duration_stimuli/003621_2014-05-23_18-06-08_094959634447_rgbf000101-resize_1/003621_2014-05-23_18-06-08_094959634447_rgbf000101-resize_1-target.png,125,3.9835,6,2883,135,feet,jsons/VE125_randls_25.json,549032,1311250,62,Woman
77,563676,DepthScenes,duration_manipulation_targetAtFixation,jsons/VE125_randls_25.json,http://54.235.29.9/FacialAge/BNav_EC2/DepthDuration/v2_depth_duration_MTurk/v2_DepthDuration_HTML.html#133,133,1462,738,1536,864,8-30-2022,10-1-27,78,depth_duration_stimuli/001584_2014-06-20_11-07-43_260595134347_rgbf000002-resize_1/001584_2014-06-20_11-07-43_260595134347_rgbf000002-resize_1-target.png,125,3.53,6,3013,129,feet,jsons/VE125_randls_25.json,549032,1311250,62,Woman
78,563676,DepthScenes,duration_manipulation_targetAtFixation,jsons/VE125_randls_25.json,http://54.235.29.9/FacialAge/BNav_EC2/DepthDuration/v2_depth_duration_MTurk/v2_DepthDuration_HTML.html#133,133,1462,738,1536,864,8-30-2022,10-1-27,79,depth_duration_stimuli/001417_2014-06-19_16-25-36_260595134347_rgbf000115-resize_5/001417_2014-06-19_16-25-36_260595134347_rgbf000115-resize_5-target.png,125,4.6255,6,2019,132,feet,jsons/VE125_randls_25.json,549032,1311250,62,Woman
79,563676,DepthScenes,duration_manipulation_targetAtFixation,jsons/VE125_randls_25.json,http://54.235.29.9/FacialAge/BNav_EC2/DepthDuration/v2_depth_duration_MTurk/v2_DepthDuration_HTML.html#133,133,1462,738,1536,864,8-30-2022,10-1-27,80,depth_duration_stimuli/003081_2014-06-15_15-19-16_094959634447_rgbf000150-resize_1/003081_2014-06-15_15-19-16_094959634447_rgbf000150-resize_1-target.png,125,3.9125,6,2037,119,feet,jsons/VE125_randls_25.json,549032,1311250,62,Woman
80,563676,DepthScenes,duration_manipulation_targetAtFixation,jsons/VE125_randls_25.json,http://54.235.29.9/FacialAge/BNav_EC2/DepthDuration/v2_depth_duration_MTurk/v2_DepthDuration_HTML.html#133,133,1462,738,1536,864,8-30-2022,10-1-27,81,depth_duration_stimuli/001011_2014-06-08_23-18-54_260595134347_rgbf000044-resize_4/001011_2014-06-08_23-18-54_260595134347_rgbf000044-resize_4-target.png,125,2.4730000000000003,7,2676,116,feet,jsons/VE125_randls_25.json,549032,1311250,62,Woman
81,563676,DepthScenes,duration_manipulation_targetAtFixation,jsons/VE125_randls_25.json,http://54.235.29.9/FacialAge/BNav_EC2/DepthDuration/v2_depth_duration_MTurk/v2_DepthDuration_HTML.html#133,133,1462,738,1536,864,8-30-2022,10-1-27,82,depth_duration_stimuli/002875_2014-06-01_15-19-00_094959634447_rgbf000151-resize_1/002875_2014-06-01_15-19-00_094959634447_rgbf000151-resize_1-target.png,125,1.9675,5,2427,128,feet,jsons/VE125_randls_25.json,549032,1311250,62,Woman
82,563676,DepthScenes,duration_manipulation_targetAtFixation,jsons/VE125_randls_25.json,http://54.235.29.9/FacialAge/BNav_EC2/DepthDuration/v2_depth_duration_MTurk/v2_DepthDuration_HTML.html#133,133,1462,738,1536,864,8-30-2022,10-1-27,83,depth_duration_stimuli/001199_2014-06-17_16-03-48_260595134347_rgbf000077-resize_0/001199_2014-06-17_16-03-48_260595134347_rgbf000077-resize_0-target.png,125,3.4375,5,2355,124,feet,jsons/VE125_randls_25.json,549032,1311250,62,Woman
83,563676,DepthScenes,duration_manipulation_targetAtFixation,jsons/VE125_randls_25.json,http://54.235.29.9/FacialAge/BNav_EC2/DepthDuration/v2_depth_duration_MTurk/v2_DepthDuration_HTML.html#133,133,1462,738,1536,864,8-30-2022,10-1-27,84,depth_duration_stimuli/000502_2014-06-08_23-02-32_260595134347_rgbf000063-resize_4/000502_2014-06-08_23-02-32_260595134347_rgbf000063-resize_4-target.png,125,2.431,5,2318,123,feet,jsons/VE125_randls_25.json,549032,1311250,62,Woman
84,563676,DepthScenes,duration_manipulation_targetAtFixation,jsons/VE125_randls_25.json,http://54.235.29.9/FacialAge/BNav_EC2/DepthDuration/v2_depth_duration_MTurk/v2_DepthDuration_HTML.html#133,133,1462,738,1536,864,8-30-2022,10-1-27,85,depth_duration_stimuli/000506_2014-06-08_23-21-00_260595134347_rgbf000070-resize_7/000506_2014-06-08_23-21-00_260595134347_rgbf000070-resize_7-target.png,125,4.0585,6,2405,110,feet,jsons/VE125_randls_25.json,549032,1311250,62,Woman
85,563676,DepthScenes,duration_manipulation_targetAtFixation,jsons/VE125_randls_25.json,http://54.235.29.9/FacialAge/BNav_EC2/DepthDuration/v2_depth_duration_MTurk/v2_DepthDuration_HTML.html#133,133,1462,738,1536,864,8-30-2022,10-1-27,86,depth_duration_stimuli/003079_2014-06-15_15-18-20_094959634447_rgbf000152-resize_8/003079_2014-06-15_15-18-20_094959634447_rgbf000152-resize_8-target.png,125,2.8775,6,3453,119,feet,jsons/VE125_randls_25.json,549032,1311250,62,Woman
86,563676,DepthScenes,duration_manipulation_targetAtFixation,jsons/VE125_randls_25.json,http://54.235.29.9/FacialAge/BNav_EC2/DepthDuration/v2_depth_duration_MTurk/v2_DepthDuration_HTML.html#133,133,1462,738,1536,864,8-30-2022,10-1-27,87,depth_duration_stimuli/003492_2014-05-21_15-50-55_094959634447_rgbf000828-resize_1/003492_2014-05-21_15-50-55_094959634447_rgbf000828-resize_1-target.png,125,4.06875,7,2392,118,feet,jsons/VE125_randls_25.json,549032,1311250,62,Woman
87,563676,DepthScenes,duration_manipulation_targetAtFixation,jsons/VE125_randls_25.json,http://54.235.29.9/FacialAge/BNav_EC2/DepthDuration/v2_depth_duration_MTurk/v2_DepthDuration_HTML.html#133,133,1462,738,1536,864,8-30-2022,10-1-27,88,depth_duration_stimuli/002568_2014-06-24_13-59-21_094959634447_rgbf000062-resize_4/002568_2014-06-24_13-59-21_094959634447_rgbf000062-resize_4-target.png,125,3.015,6,3059,127,feet,jsons/VE125_randls_25.json,549032,1311250,62,Woman
88,563676,DepthScenes,duration_manipulation_targetAtFixation,jsons/VE125_randls_25.json,http://54.235.29.9/FacialAge/BNav_EC2/DepthDuration/v2_depth_duration_MTurk/v2_DepthDuration_HTML.html#133,133,1462,738,1536,864,8-30-2022,10-1-27,89,depth_duration_stimuli/001806_2014-06-26_20-50-20_260595134347_rgbf000091-resize_1/001806_2014-06-26_20-50-20_260595134347_rgbf000091-resize_1-target.png,125,2.7305,5,2271,125,feet,jsons/VE125_randls_25.json,549032,1311250,62,Woman
89,563676,DepthScenes,duration_manipulation_targetAtFixation,jsons/VE125_randls_25.json,http://54.235.29.9/FacialAge/BNav_EC2/DepthDuration/v2_depth_duration_MTurk/v2_DepthDuration_HTML.html#133,133,1462,738,1536,864,8-30-2022,10-1-27,90,depth_duration_stimuli/001617_2014-06-20_11-35-32_260595134347_rgbf000066-resize_1/001617_2014-06-20_11-35-32_260595134347_rgbf000066-resize_1-target.png,125,3.7910000000000004,7,3033,132,feet,jsons/VE125_randls_25.json,549032,1311250,62,Woman
90,563676,DepthScenes,duration_manipulation_targetAtFixation,jsons/VE125_randls_25.json,http://54.235.29.9/FacialAge/BNav_EC2/DepthDuration/v2_depth_duration_MTurk/v2_DepthDuration_HTML.html#133,133,1462,738,1536,864,8-30-2022,10-1-27,91,depth_duration_stimuli/000493_2014-06-09_21-01-18_260595134347_rgbf000196-resize_3/000493_2014-06-09_21-01-18_260595134347_rgbf000196-resize_3-target.png,125,3.44,6,2704,127,feet,jsons/VE125_randls_25.json,549032,1311250,62,Woman
91,563676,DepthScenes,duration_manipulation_targetAtFixation,jsons/VE125_randls_25.json,http://54.235.29.9/FacialAge/BNav_EC2/DepthDuration/v2_depth_duration_MTurk/v2_DepthDuration_HTML.html#133,133,1462,738,1536,864,8-30-2022,10-1-27,92,depth_duration_stimuli/000191_2014-05-12_17-07-38_260595134347_rgbf000199-resize_0/000191_2014-05-12_17-07-38_260595134347_rgbf000199-resize_0-target.png,125,3.7995,7,3142,133,feet,jsons/VE125_randls_25.json,549032,1311250,62,Woman
92,563676,DepthScenes,duration_manipulation_targetAtFixation,jsons/VE125_randls_25.json,http://54.235.29.9/FacialAge/BNav_EC2/DepthDuration/v2_depth_duration_MTurk/v2_DepthDuration_HTML.html#133,133,1462,738,1536,864,8-30-2022,10-1-27,93,depth_duration_stimuli/002039_2014-06-24_20-22-38_260595134347_rgbf000084-resize_1/002039_2014-06-24_20-22-38_260595134347_rgbf000084-resize_1-target.png,125,4.408,7,2197,126,feet,jsons/VE125_randls_25.json,549032,1311250,62,Woman
93,563676,DepthScenes,duration_manipulation_targetAtFixation,jsons/VE125_randls_25.json,http://54.235.29.9/FacialAge/BNav_EC2/DepthDuration/v2_depth_duration_MTurk/v2_DepthDuration_HTML.html#133,133,1462,738,1536,864,8-30-2022,10-1-27,94,depth_duration_stimuli/002103_2014-06-25_20-00-40_260595134347_rgbf000049-resize_0/002103_2014-06-25_20-00-40_260595134347_rgbf000049-resize_0-target.png,125,4.105,7,2195,119,feet,jsons/VE125_randls_25.json,549032,1311250,62,Woman
94,563676,DepthScenes,duration_manipulation_targetAtFixation,jsons/VE125_randls_25.json,http://54.235.29.9/FacialAge/BNav_EC2/DepthDuration/v2_depth_duration_MTurk/v2_DepthDuration_HTML.html#133,133,1462,738,1536,864,8-30-2022,10-1-27,95,depth_duration_stimuli/002989_2014-06-15_12-25-03_094959634447_rgbf000150-resize_3/002989_2014-06-15_12-25-03_094959634447_rgbf000150-resize_3-target.png,125,4.1975,7,2169,137,feet,jsons/VE125_randls_25.json,549032,1311250,62,Woman
95,563676,DepthScenes,duration_manipulation_targetAtFixation,jsons/VE125_randls_25.json,http://54.235.29.9/FacialAge/BNav_EC2/DepthDuration/v2_depth_duration_MTurk/v2_DepthDuration_HTML.html#133,133,1462,738,1536,864,8-30-2022,10-1-27,96,depth_duration_stimuli/000866_2014-06-09_20-45-42_260595134347_rgbf000139-resize_1/000866_2014-06-09_20-45-42_260595134347_rgbf000139-resize_1-target.png,125,3.2155,7,2343,127,feet,jsons/VE125_randls_25.json,549032,1311250,62,Woman
96,563676,DepthScenes,duration_manipulation_targetAtFixation,jsons/VE125_randls_25.json,http://54.235.29.9/FacialAge/BNav_EC2/DepthDuration/v2_depth_duration_MTurk/v2_DepthDuration_HTML.html#133,133,1462,738,1536,864,8-30-2022,10-1-27,97,depth_duration_stimuli/001164_2014-06-17_15-35-46_260595134347_rgbf000085-resize_3/001164_2014-06-17_15-35-46_260595134347_rgbf000085-resize_3-target.png,125,2.354,6,2413,120,feet,jsons/VE125_randls_25.json,549032,1311250,62,Woman
97,563676,DepthScenes,duration_manipulation_targetAtFixation,jsons/VE125_randls_25.json,http://54.235.29.9/FacialAge/BNav_EC2/DepthDuration/v2_depth_duration_MTurk/v2_DepthDuration_HTML.html#133,133,1462,738,1536,864,8-30-2022,10-1-27,98,depth_duration_stimuli/001136_2014-06-17_15-19-41_260595134347_rgbf000076-resize_3/001136_2014-06-17_15-19-41_260595134347_rgbf000076-resize_3-target.png,125,1.8655,6,2331,138,feet,jsons/VE125_randls_25.json,549032,1311250,62,Woman
98,563676,DepthScenes,duration_manipulation_targetAtFixation,jsons/VE125_randls_25.json,http://54.235.29.9/FacialAge/BNav_EC2/DepthDuration/v2_depth_duration_MTurk/v2_DepthDuration_HTML.html#133,133,1462,738,1536,864,8-30-2022,10-1-27,99,depth_duration_stimuli/001540_2014-06-20_17-01-05_260595134347_rgbf000086-resize_2/001540_2014-06-20_17-01-05_260595134347_rgbf000086-resize-original.jpg,125,1.459,0,3245,124,feet,jsons/VE125_randls_25.json,549032,1311250,62,Woman
99,563676,DepthScenes,duration_manipulation_targetAtFixation,jsons/VE125_randls_25.json,http://54.235.29.9/FacialAge/BNav_EC2/DepthDuration/v2_depth_duration_MTurk/v2_DepthDuration_HTML.html#133,133,1462,738,1536,864,8-30-2022,10-1-27,100,depth_duration_stimuli/002118_2014-06-25_20-32-08_260595134347_rgbf000078-resize_1/002118_2014-06-25_20-32-08_260595134347_rgbf000078-resize_1-target.png,125,2.6460000000000004,6,2888,123,feet,jsons/VE125_randls_25.json,549032,1311250,62,Woman
100,563676,DepthScenes,duration_manipulation_targetAtFixation,jsons/VE125_randls_25.json,http://54.235.29.9/FacialAge/BNav_EC2/DepthDuration/v2_depth_duration_MTurk/v2_DepthDuration_HTML.html#133,133,1462,738,1536,864,8-30-2022,10-1-27,101,depth_duration_stimuli/001516_2014-06-20_16-25-09_260595134347_rgbf000076-resize_2/001516_2014-06-20_16-25-09_260595134347_rgbf000076-resize_2-target.png,125,1.7445,5,2741,112,feet,jsons/VE125_randls_25.json,549032,1311250,62,Woman
101,563676,DepthScenes,duration_manipulation_targetAtFixation,jsons/VE125_randls_25.json,http://54.235.29.9/FacialAge/BNav_EC2/DepthDuration/v2_depth_duration_MTurk/v2_DepthDuration_HTML.html#133,133,1462,738,1536,864,8-30-2022,10-1-27,102,depth_duration_stimuli/002788_2014-06-22_19-36-03_094959634447_rgbf000088-resize_2/002788_2014-06-22_19-36-03_094959634447_rgbf000088-resize_2-target.png,125,1.6465,6,4450,126,feet,jsons/VE125_randls_25.json,549032,1311250,62,Woman
102,563676,DepthScenes,duration_manipulation_targetAtFixation,jsons/VE125_randls_25.json,http://54.235.29.9/FacialAge/BNav_EC2/DepthDuration/v2_depth_duration_MTurk/v2_DepthDuration_HTML.html#133,133,1462,738,1536,864,8-30-2022,10-1-27,103,depth_duration_stimuli/000749_2014-06-08_21-55-06_260595134347_rgbf000070-resize_2/000749_2014-06-08_21-55-06_260595134347_rgbf000070-resize_2-target.png,125,2.331,4,2995,126,feet,jsons/VE125_randls_25.json,549032,1311250,62,Woman
103,563676,DepthScenes,duration_manipulation_targetAtFixation,jsons/VE125_randls_25.json,http://54.235.29.9/FacialAge/BNav_EC2/DepthDuration/v2_depth_duration_MTurk/v2_DepthDuration_HTML.html#133,133,1462,738,1536,864,8-30-2022,10-1-27,104,depth_duration_stimuli/001016_2014-06-09_16-16-10_260595134347_rgbf000112-resize_5/001016_2014-06-09_16-16-10_260595134347_rgbf000112-resize_5-target.png,125,1.6565,4,2056,125,feet,jsons/VE125_randls_25.json,549032,1311250,62,Woman
104,563676,DepthScenes,duration_manipulation_targetAtFixation,jsons/VE125_randls_25.json,http://54.235.29.9/FacialAge/BNav_EC2/DepthDuration/v2_depth_duration_MTurk/v2_DepthDuration_HTML.html#133,133,1462,738,1536,864,8-30-2022,10-1-27,105,depth_duration_stimuli/002340_2014-06-28_20-05-46_260595134347_rgbf000113-resize_0/002340_2014-06-28_20-05-46_260595134347_rgbf000113-resize_0-target.png,125,2.4735,5,2712,128,feet,jsons/VE125_randls_25.json,549032,1311250,62,Woman
105,563676,DepthScenes,duration_manipulation_targetAtFixation,jsons/VE125_randls_25.json,http://54.235.29.9/FacialAge/BNav_EC2/DepthDuration/v2_depth_duration_MTurk/v2_DepthDuration_HTML.html#133,133,1462,738,1536,864,8-30-2022,10-1-27,106,depth_duration_stimuli/000009_2014-05-26_14-32-05_260595134347_rgbf000034-resize_3/000009_2014-05-26_14-32-05_260595134347_rgbf000034-resize_3-target.png,125,3.8715,7,3019,132,feet,jsons/VE125_randls_25.json,549032,1311250,62,Woman
106,563676,DepthScenes,duration_manipulation_targetAtFixation,jsons/VE125_randls_25.json,http://54.235.29.9/FacialAge/BNav_EC2/DepthDuration/v2_depth_duration_MTurk/v2_DepthDuration_HTML.html#133,133,1462,738,1536,864,8-30-2022,10-1-27,107,depth_duration_stimuli/001828_2014-06-26_21-40-03_260595134347_rgbf000024-resize_0/001828_2014-06-26_21-40-03_260595134347_rgbf000024-resize_0-target.png,125,4.8260000000000005,6,2865,124,feet,jsons/VE125_randls_25.json,549032,1311250,62,Woman
107,563676,DepthScenes,duration_manipulation_targetAtFixation,jsons/VE125_randls_25.json,http://54.235.29.9/FacialAge/BNav_EC2/DepthDuration/v2_depth_duration_MTurk/v2_DepthDuration_HTML.html#133,133,1462,738,1536,864,8-30-2022,10-1-27,108,depth_duration_stimuli/002153_2014-06-25_21-27-18_260595134347_rgbf000038-resize_5/002153_2014-06-25_21-27-18_260595134347_rgbf000038-resize_5-target.png,125,2.505,5,2623,115,feet,jsons/VE125_randls_25.json,549032,1311250,62,Woman
108,563676,DepthScenes,duration_manipulation_targetAtFixation,jsons/VE125_randls_25.json,http://54.235.29.9/FacialAge/BNav_EC2/DepthDuration/v2_depth_duration_MTurk/v2_DepthDuration_HTML.html#133,133,1462,738,1536,864,8-30-2022,10-1-27,109,depth_duration_stimuli/002660_2014-06-13_15-44-18_094959634447_rgbf001878-resize_2/002660_2014-06-13_15-44-18_094959634447_rgbf001878-resize_2-target.png,125,3.576,8,2823,134,feet,jsons/VE125_randls_25.json,549032,1311250,62,Woman
109,563676,DepthScenes,duration_manipulation_targetAtFixation,jsons/VE125_randls_25.json,http://54.235.29.9/FacialAge/BNav_EC2/DepthDuration/v2_depth_duration_MTurk/v2_DepthDuration_HTML.html#133,133,1462,738,1536,864,8-30-2022,10-1-27,110,depth_duration_stimuli/000469_2014-06-09_19-42-10_260595134347_rgbf000081-resize_1/000469_2014-06-09_19-42-10_260595134347_rgbf000081-resize_1-target.png,125,1.652,4,3226,124,feet,jsons/VE125_randls_25.json,549032,1311250,62,Woman
110,563676,DepthScenes,duration_manipulation_targetAtFixation,jsons/VE125_randls_25.json,http://54.235.29.9/FacialAge/BNav_EC2/DepthDuration/v2_depth_duration_MTurk/v2_DepthDuration_HTML.html#133,133,1462,738,1536,864,8-30-2022,10-1-27,111,depth_duration_stimuli/000483_2014-06-09_20-41-45_260595134347_rgbf000116-resize_4/000483_2014-06-09_20-41-45_260595134347_rgbf000116-resize_4-target.png,125,1.337,3,3090,122,feet,jsons/VE125_randls_25.json,549032,1311250,62,Woman
111,563676,DepthScenes,duration_manipulation_targetAtFixation,jsons/VE125_randls_25.json,http://54.235.29.9/FacialAge/BNav_EC2/DepthDuration/v2_depth_duration_MTurk/v2_DepthDuration_HTML.html#133,133,1462,738,1536,864,8-30-2022,10-1-27,112,depth_duration_stimuli/001056_2014-06-08_18-46-44_260595134347_rgbf000068-resize_0/001056_2014-06-08_18-46-44_260595134347_rgbf000068-resize_0-target.png,125,2.6625,6,2414,116,feet,jsons/VE125_randls_25.json,549032,1311250,62,Woman
112,563676,DepthScenes,duration_manipulation_targetAtFixation,jsons/VE125_randls_25.json,http://54.235.29.9/FacialAge/BNav_EC2/DepthDuration/v2_depth_duration_MTurk/v2_DepthDuration_HTML.html#133,133,1462,738,1536,864,8-30-2022,10-1-27,113,depth_duration_stimuli/002199_2014-06-28_18-33-56_260595134347_rgbf000074-resize_0/002199_2014-06-28_18-33-56_260595134347_rgbf000074-resize_0-target.png,125,1.996,4,2524,125,feet,jsons/VE125_randls_25.json,549032,1311250,62,Woman
113,563676,DepthScenes,duration_manipulation_targetAtFixation,jsons/VE125_randls_25.json,http://54.235.29.9/FacialAge/BNav_EC2/DepthDuration/v2_depth_duration_MTurk/v2_DepthDuration_HTML.html#133,133,1462,738,1536,864,8-30-2022,10-1-27,114,depth_duration_stimuli/001092_2014-06-15_17-34-58_260595134347_rgbf000171-resize_3/001092_2014-06-15_17-34-58_260595134347_rgbf000171-resize_3-target.png,125,2.6935,5,2379,126,feet,jsons/VE125_randls_25.json,549032,1311250,62,Woman
114,563676,DepthScenes,duration_manipulation_targetAtFixation,jsons/VE125_randls_25.json,http://54.235.29.9/FacialAge/BNav_EC2/DepthDuration/v2_depth_duration_MTurk/v2_DepthDuration_HTML.html#133,133,1462,738,1536,864,8-30-2022,10-1-27,115,depth_duration_stimuli/002545_2014-06-24_13-38-53_094959634447_rgbf000080-resize_4/002545_2014-06-24_13-38-53_094959634447_rgbf000080-resize_4-target.png,125,1.9205,5,2209,118,feet,jsons/VE125_randls_25.json,549032,1311250,62,Woman
115,563676,DepthScenes,duration_manipulation_targetAtFixation,jsons/VE125_randls_25.json,http://54.235.29.9/FacialAge/BNav_EC2/DepthDuration/v2_depth_duration_MTurk/v2_DepthDuration_HTML.html#133,133,1462,738,1536,864,8-30-2022,10-1-27,116,depth_duration_stimuli/001170_2014-06-17_15-43-44_260595134347_rgbf000096-resize_6/001170_2014-06-17_15-43-44_260595134347_rgbf000096-resize-original.jpg,125,1.1909999999999998,0,3237,124,feet,jsons/VE125_randls_25.json,549032,1311250,62,Woman
116,563676,DepthScenes,duration_manipulation_targetAtFixation,jsons/VE125_randls_25.json,http://54.235.29.9/FacialAge/BNav_EC2/DepthDuration/v2_depth_duration_MTurk/v2_DepthDuration_HTML.html#133,133,1462,738,1536,864,8-30-2022,10-1-27,117,depth_duration_stimuli/000878_2014-06-08_22-52-45_260595134347_rgbf000045-resize_2/000878_2014-06-08_22-52-45_260595134347_rgbf000045-resize_2-target.png,125,2.092,6,3287,131,feet,jsons/VE125_randls_25.json,549032,1311250,62,Woman
117,563676,DepthScenes,duration_manipulation_targetAtFixation,jsons/VE125_randls_25.json,http://54.235.29.9/FacialAge/BNav_EC2/DepthDuration/v2_depth_duration_MTurk/v2_DepthDuration_HTML.html#133,133,1462,738,1536,864,8-30-2022,10-1-27,118,depth_duration_stimuli/002953_2014-06-08_17-32-18_094959634447_rgbf000059-resize_5/002953_2014-06-08_17-32-18_094959634447_rgbf000059-resize_5-target.png,125,1.551,4,2460,114,feet,jsons/VE125_randls_25.json,549032,1311250,62,Woman
118,563676,DepthScenes,duration_manipulation_targetAtFixation,jsons/VE125_randls_25.json,http://54.235.29.9/FacialAge/BNav_EC2/DepthDuration/v2_depth_duration_MTurk/v2_DepthDuration_HTML.html#133,133,1462,738,1536,864,8-30-2022,10-1-27,119,depth_duration_stimuli/002600_2014-06-24_14-27-04_094959634447_rgbf000074-resize_2/002600_2014-06-24_14-27-04_094959634447_rgbf000074-resize_2-target.png,125,2.7575,6,2476,118,feet,jsons/VE125_randls_25.json,549032,1311250,62,Woman
119,563676,DepthScenes,duration_manipulation_targetAtFixation,jsons/VE125_randls_25.json,http://54.235.29.9/FacialAge/BNav_EC2/DepthDuration/v2_depth_duration_MTurk/v2_DepthDuration_HTML.html#133,133,1462,738,1536,864,8-30-2022,10-1-27,120,depth_duration_stimuli/003228_2014-05-14_13-42-35_094959634447_rgbf000101-resize_1/003228_2014-05-14_13-42-35_094959634447_rgbf000101-resize_1-target.png,125,1.9680000000000002,4,2477,118,feet,jsons/VE125_randls_25.json,549032,1311250,62,Woman
120,563676,DepthScenes,duration_manipulation_targetAtFixation,jsons/VE125_randls_25.json,http://54.235.29.9/FacialAge/BNav_EC2/DepthDuration/v2_depth_duration_MTurk/v2_DepthDuration_HTML.html#133,133,1462,738,1536,864,8-30-2022,10-1-27,121,depth_duration_stimuli/002375_2014-06-28_20-13-44_260595134347_rgbf000032-resize_1/002375_2014-06-28_20-13-44_260595134347_rgbf000032-resize_1-target.png,125,4.0175,6,2511,126,feet,jsons/VE125_randls_25.json,549032,1311250,62,Woman
121,563676,DepthScenes,duration_manipulation_targetAtFixation,jsons/VE125_randls_25.json,http://54.235.29.9/FacialAge/BNav_EC2/DepthDuration/v2_depth_duration_MTurk/v2_DepthDuration_HTML.html#133,133,1462,738,1536,864,8-30-2022,10-1-27,122,depth_duration_stimuli/002657_2014-06-13_15-29-54_094959634447_rgbf000150-resize_1/002657_2014-06-13_15-29-54_094959634447_rgbf000150-resize_1-target.png,125,4.919,6,2656,126,feet,jsons/VE125_randls_25.json,549032,1311250,62,Woman
122,563676,DepthScenes,duration_manipulation_targetAtFixation,jsons/VE125_randls_25.json,http://54.235.29.9/FacialAge/BNav_EC2/DepthDuration/v2_depth_duration_MTurk/v2_DepthDuration_HTML.html#133,133,1462,738,1536,864,8-30-2022,10-1-27,123,depth_duration_stimuli/002509_2014-06-24_13-19-22_094959634447_rgbf000077-resize_0/002509_2014-06-24_13-19-22_094959634447_rgbf000077-resize_0-target.png,125,1.3065,4,2209,126,feet,jsons/VE125_randls_25.json,549032,1311250,62,Woman
123,563676,DepthScenes,duration_manipulation_targetAtFixation,jsons/VE125_randls_25.json,http://54.235.29.9/FacialAge/BNav_EC2/DepthDuration/v2_depth_duration_MTurk/v2_DepthDuration_HTML.html#133,133,1462,738,1536,864,8-30-2022,10-1-27,124,depth_duration_stimuli/003338_2014-05-20_11-01-23_094959634447_rgbf000051-resize_6/003338_2014-05-20_11-01-23_094959634447_rgbf000051-resize_6-target.png,125,1.693,4,2380,124,feet,jsons/VE125_randls_25.json,549032,1311250,62,Woman
124,563676,DepthScenes,duration_manipulation_targetAtFixation,jsons/VE125_randls_25.json,http://54.235.29.9/FacialAge/BNav_EC2/DepthDuration/v2_depth_duration_MTurk/v2_DepthDuration_HTML.html#133,133,1462,738,1536,864,8-30-2022,10-1-27,125,depth_duration_stimuli/000470_2014-06-09_19-42-40_260595134347_rgbf000094-resize_1/000470_2014-06-09_19-42-40_260595134347_rgbf000094-resize_1-target.png,125,1.831,4,2683,124,feet,jsons/VE125_randls_25.json,549032,1311250,62,Woman
125,563676,DepthScenes,duration_manipulation_targetAtFixation,jsons/VE125_randls_25.json,http://54.235.29.9/FacialAge/BNav_EC2/DepthDuration/v2_depth_duration_MTurk/v2_DepthDuration_HTML.html#133,133,1462,738,1536,864,8-30-2022,10-1-27,126,depth_duration_stimuli/000109_2014-05-14_23-41-52_260595134347_rgbf000035-resize_9/000109_2014-05-14_23-41-52_260595134347_rgbf000035-resize_9-target.png,125,1.3545,3,3532,125,feet,jsons/VE125_randls_25.json,549032,1311250,62,Woman
126,563676,DepthScenes,duration_manipulation_targetAtFixation,jsons/VE125_randls_25.json,http://54.235.29.9/FacialAge/BNav_EC2/DepthDuration/v2_depth_duration_MTurk/v2_DepthDuration_HTML.html#133,133,1462,738,1536,864,8-30-2022,10-1-27,127,depth_duration_stimuli/001175_2014-06-17_15-45-55_260595134347_rgbf000129-resize_4/001175_2014-06-17_15-45-55_260595134347_rgbf000129-resize_4-target.png,125,4.255,7,3642,116,feet,jsons/VE125_randls_25.json,549032,1311250,62,Woman
127,563676,DepthScenes,duration_manipulation_targetAtFixation,jsons/VE125_randls_25.json,http://54.235.29.9/FacialAge/BNav_EC2/DepthDuration/v2_depth_duration_MTurk/v2_DepthDuration_HTML.html#133,133,1462,738,1536,864,8-30-2022,10-1-27,128,depth_duration_stimuli/003490_2014-05-21_15-50-11_094959634447_rgbf000101-resize_3/003490_2014-05-21_15-50-11_094959634447_rgbf000101-resize_3-target.png,125,3.6445,7,2091,113,feet,jsons/VE125_randls_25.json,549032,1311250,62,Woman
128,563676,DepthScenes,duration_manipulation_targetAtFixation,jsons/VE125_randls_25.json,http://54.235.29.9/FacialAge/BNav_EC2/DepthDuration/v2_depth_duration_MTurk/v2_DepthDuration_HTML.html#133,133,1462,738,1536,864,8-30-2022,10-1-27,129,depth_duration_stimuli/002057_2014-06-24_21-00-13_260595134347_rgbf000120-resize_1/002057_2014-06-24_21-00-13_260595134347_rgbf000120-resize_1-target.png,125,2.967,7,2056,133,feet,jsons/VE125_randls_25.json,549032,1311250,62,Woman
129,563676,DepthScenes,duration_manipulation_targetAtFixation,jsons/VE125_randls_25.json,http://54.235.29.9/FacialAge/BNav_EC2/DepthDuration/v2_depth_duration_MTurk/v2_DepthDuration_HTML.html#133,133,1462,738,1536,864,8-30-2022,10-1-27,130,depth_duration_stimuli/000709_2014-06-08_13-51-55_260595134347_rgbf000068-resize_3/000709_2014-06-08_13-51-55_260595134347_rgbf000068-resize_3-target.png,125,1.8030000000000002,4,2566,115,feet,jsons/VE125_randls_25.json,549032,1311250,62,Woman
130,563676,DepthScenes,duration_manipulation_targetAtFixation,jsons/VE125_randls_25.json,http://54.235.29.9/FacialAge/BNav_EC2/DepthDuration/v2_depth_duration_MTurk/v2_DepthDuration_HTML.html#133,133,1462,738,1536,864,8-30-2022,10-1-27,131,depth_duration_stimuli/002748_2014-06-22_19-07-22_094959634447_rgbf000078-resize_1/002748_2014-06-22_19-07-22_094959634447_rgbf000078-resize_1-target.png,125,4.6705,8,2567,117,feet,jsons/VE125_randls_25.json,549032,1311250,62,Woman
131,563676,DepthScenes,duration_manipulation_targetAtFixation,jsons/VE125_randls_25.json,http://54.235.29.9/FacialAge/BNav_EC2/DepthDuration/v2_depth_duration_MTurk/v2_DepthDuration_HTML.html#133,133,1462,738,1536,864,8-30-2022,10-1-27,132,depth_duration_stimuli/002995_2014-06-15_12-31-26_094959634447_rgbf000150-resize_1/002995_2014-06-15_12-31-26_094959634447_rgbf000150-resize_1-target.png,125,3.8360000000000003,8,2748,124,feet,jsons/VE125_randls_25.json,549032,1311250,62,Woman
132,563676,DepthScenes,duration_manipulation_targetAtFixation,jsons/VE125_randls_25.json,http://54.235.29.9/FacialAge/BNav_EC2/DepthDuration/v2_depth_duration_MTurk/v2_DepthDuration_HTML.html#133,133,1462,738,1536,864,8-30-2022,10-1-27,133,depth_duration_stimuli/000736_2014-06-08_18-24-15_260595134347_rgbf000206-resize_3/000736_2014-06-08_18-24-15_260595134347_rgbf000206-resize_3-target.png,125,3.515,5,2500,110,feet,jsons/VE125_randls_25.json,549032,1311250,62,Woman
133,563676,DepthScenes,duration_manipulation_targetAtFixation,jsons/VE125_randls_25.json,http://54.235.29.9/FacialAge/BNav_EC2/DepthDuration/v2_depth_duration_MTurk/v2_DepthDuration_HTML.html#133,133,1462,738,1536,864,8-30-2022,10-1-27,134,depth_duration_stimuli/000137_2014-05-20_17-04-49_260595134347_rgbf000120-resize_1/000137_2014-05-20_17-04-49_260595134347_rgbf000120-resize_1-target.png,125,3.786,7,4120,113,feet,jsons/VE125_randls_25.json,549032,1311250,62,Woman
134,563676,DepthScenes,duration_manipulation_targetAtFixation,jsons/VE125_randls_25.json,http://54.235.29.9/FacialAge/BNav_EC2/DepthDuration/v2_depth_duration_MTurk/v2_DepthDuration_HTML.html#133,133,1462,738,1536,864,8-30-2022,10-1-27,135,depth_duration_stimuli/002072_2014-06-24_21-48-06_260595134347_rgbf000115-resize_0/002072_2014-06-24_21-48-06_260595134347_rgbf000115-resize-original.jpg,125,4.702,0,2886,112,feet,jsons/VE125_randls_25.json,549032,1311250,62,Woman
135,563676,DepthScenes,duration_manipulation_targetAtFixation,jsons/VE125_randls_25.json,http://54.235.29.9/FacialAge/BNav_EC2/DepthDuration/v2_depth_duration_MTurk/v2_DepthDuration_HTML.html#133,133,1462,738,1536,864,8-30-2022,10-1-27,136,depth_duration_stimuli/002279_2014-06-28_18-55-32_260595134347_rgbf000040-resize_5/002279_2014-06-28_18-55-32_260595134347_rgbf000040-resize_5-target.png,125,1.5043333333333,3,2592,137,feet,jsons/VE125_randls_25.json,549032,1311250,62,Woman
136,563676,DepthScenes,duration_manipulation_targetAtFixation,jsons/VE125_randls_25.json,http://54.235.29.9/FacialAge/BNav_EC2/DepthDuration/v2_depth_duration_MTurk/v2_DepthDuration_HTML.html#133,133,1462,738,1536,864,8-30-2022,10-1-27,137,depth_duration_stimuli/000635_2014-06-08_16-38-42_260595134347_rgbf000106-resize_1/000635_2014-06-08_16-38-42_260595134347_rgbf000106-resize_1-target.png,125,2.074,4,2394,140,feet,jsons/VE125_randls_25.json,549032,1311250,62,Woman
137,563676,DepthScenes,duration_manipulation_targetAtFixation,jsons/VE125_randls_25.json,http://54.235.29.9/FacialAge/BNav_EC2/DepthDuration/v2_depth_duration_MTurk/v2_DepthDuration_HTML.html#133,133,1462,738,1536,864,8-30-2022,10-1-27,138,depth_duration_stimuli/000414_2014-06-04_19-49-13_260595134347_rgbf000044-resize_0/000414_2014-06-04_19-49-13_260595134347_rgbf000044-resize_0-target.png,125,4.329,7,2536,125,feet,jsons/VE125_randls_25.json,549032,1311250,62,Woman
138,563676,DepthScenes,duration_manipulation_targetAtFixation,jsons/VE125_randls_25.json,http://54.235.29.9/FacialAge/BNav_EC2/DepthDuration/v2_depth_duration_MTurk/v2_DepthDuration_HTML.html#133,133,1462,738,1536,864,8-30-2022,10-1-27,139,depth_duration_stimuli/003129_2014-05-12_10-48-10_094959634447_rgbf000100-resize_0/003129_2014-05-12_10-48-10_094959634447_rgbf000100-resize_0-target.png,125,4.9305,7,2575,127,feet,jsons/VE125_randls_25.json,549032,1311250,62,Woman
139,563676,DepthScenes,duration_manipulation_targetAtFixation,jsons/VE125_randls_25.json,http://54.235.29.9/FacialAge/BNav_EC2/DepthDuration/v2_depth_duration_MTurk/v2_DepthDuration_HTML.html#133,133,1462,738,1536,864,8-30-2022,10-1-27,140,depth_duration_stimuli/001808_2014-06-26_20-50-58_260595134347_rgbf000029-resize_1/001808_2014-06-26_20-50-58_260595134347_rgbf000029-resize_1-target.png,125,4.249,7,2269,117,feet,jsons/VE125_randls_25.json,549032,1311250,62,Woman
140,563676,DepthScenes,duration_manipulation_targetAtFixation,jsons/VE125_randls_25.json,http://54.235.29.9/FacialAge/BNav_EC2/DepthDuration/v2_depth_duration_MTurk/v2_DepthDuration_HTML.html#133,133,1462,738,1536,864,8-30-2022,10-1-27,141,depth_duration_stimuli/001815_2014-06-26_20-52-55_260595134347_rgbf000020-resize_0/001815_2014-06-26_20-52-55_260595134347_rgbf000020-resize_0-target.png,125,3.3865,7,1902,127,feet,jsons/VE125_randls_25.json,549032,1311250,62,Woman
141,563676,DepthScenes,duration_manipulation_targetAtFixation,jsons/VE125_randls_25.json,http://54.235.29.9/FacialAge/BNav_EC2/DepthDuration/v2_depth_duration_MTurk/v2_DepthDuration_HTML.html#133,133,1462,738,1536,864,8-30-2022,10-1-27,142,depth_duration_stimuli/000486_2014-06-09_20-47-20_260595134347_rgbf000143-resize_2/000486_2014-06-09_20-47-20_260595134347_rgbf000143-resize_2-target.png,125,4.8325,5,2842,140,feet,jsons/VE125_randls_25.json,549032,1311250,62,Woman
142,563676,DepthScenes,duration_manipulation_targetAtFixation,jsons/VE125_randls_25.json,http://54.235.29.9/FacialAge/BNav_EC2/DepthDuration/v2_depth_duration_MTurk/v2_DepthDuration_HTML.html#133,133,1462,738,1536,864,8-30-2022,10-1-27,143,depth_duration_stimuli/003083_2014-06-15_15-21-03_094959634447_rgbf000063-resize_1/003083_2014-06-15_15-21-03_094959634447_rgbf000063-resize_1-target.png,125,4.1405,7,3040,115,feet,jsons/VE125_randls_25.json,549032,1311250,62,Woman
143,563676,DepthScenes,duration_manipulation_targetAtFixation,jsons/VE125_randls_25.json,http://54.235.29.9/FacialAge/BNav_EC2/DepthDuration/v2_depth_duration_MTurk/v2_DepthDuration_HTML.html#133,133,1462,738,1536,864,8-30-2022,10-1-27,144,depth_duration_stimuli/002213_2014-06-28_18-37-58_260595134347_rgbf000055-resize_1/002213_2014-06-28_18-37-58_260595134347_rgbf000055-resize_1-target.png,125,3.62,7,2373,134,feet,jsons/VE125_randls_25.json,549032,1311250,62,Woman
144,563676,DepthScenes,duration_manipulation_targetAtFixation,jsons/VE125_randls_25.json,http://54.235.29.9/FacialAge/BNav_EC2/DepthDuration/v2_depth_duration_MTurk/v2_DepthDuration_HTML.html#133,133,1462,738,1536,864,8-30-2022,10-1-27,145,depth_duration_stimuli/000691_2014-06-08_13-08-50_260595134347_rgbf000132-resize_3/000691_2014-06-08_13-08-50_260595134347_rgbf000132-resize_3-target.png,125,4.1530000000000005,7,2195,125,feet,jsons/VE125_randls_25.json,549032,1311250,62,Woman
145,563676,DepthScenes,duration_manipulation_targetAtFixation,jsons/VE125_randls_25.json,http://54.235.29.9/FacialAge/BNav_EC2/DepthDuration/v2_depth_duration_MTurk/v2_DepthDuration_HTML.html#133,133,1462,738,1536,864,8-30-2022,10-1-27,146,depth_duration_stimuli/001498_2014-06-19_17-45-14_260595134347_rgbf000129-resize_4/001498_2014-06-19_17-45-14_260595134347_rgbf000129-resize-original.jpg,125,1.4075,4,3325,118,feet,jsons/VE125_randls_25.json,549032,1311250,62,Woman
146,563676,DepthScenes,duration_manipulation_targetAtFixation,jsons/VE125_randls_25.json,http://54.235.29.9/FacialAge/BNav_EC2/DepthDuration/v2_depth_duration_MTurk/v2_DepthDuration_HTML.html#133,133,1462,738,1536,864,8-30-2022,10-1-27,147,depth_duration_stimuli/000739_2014-06-08_18-45-58_260595134347_rgbf000068-resize_1/000739_2014-06-08_18-45-58_260595134347_rgbf000068-resize_1-target.png,125,3.534,4,2875,114,feet,jsons/VE125_randls_25.json,549032,1311250,62,Woman
147,563676,DepthScenes,duration_manipulation_targetAtFixation,jsons/VE125_randls_25.json,http://54.235.29.9/FacialAge/BNav_EC2/DepthDuration/v2_depth_duration_MTurk/v2_DepthDuration_HTML.html#133,133,1462,738,1536,864,8-30-2022,10-1-27,148,depth_duration_stimuli/000734_2014-06-08_17-39-11_260595134347_rgbf000128-resize_2/000734_2014-06-08_17-39-11_260595134347_rgbf000128-resize_2-target.png,125,4.098,5,2485,128,feet,jsons/VE125_randls_25.json,549032,1311250,62,Woman
148,563676,DepthScenes,duration_manipulation_targetAtFixation,jsons/VE125_randls_25.json,http://54.235.29.9/FacialAge/BNav_EC2/DepthDuration/v2_depth_duration_MTurk/v2_DepthDuration_HTML.html#133,133,1462,738,1536,864,8-30-2022,10-1-27,149,depth_duration_stimuli/002964_2014-06-08_17-46-11_094959634447_rgbf000091-resize_4/002964_2014-06-08_17-46-11_094959634447_rgbf000091-resize_4-target.png,125,1.6909999999999998,3,3222,121,feet,jsons/VE125_randls_25.json,549032,1311250,62,Woman
149,563676,DepthScenes,duration_manipulation_targetAtFixation,jsons/VE125_randls_25.json,http://54.235.29.9/FacialAge/BNav_EC2/DepthDuration/v2_depth_duration_MTurk/v2_DepthDuration_HTML.html#133,133,1462,738,1536,864,8-30-2022,10-1-27,150,depth_duration_stimuli/002136_2014-06-25_21-18-03_260595134347_rgbf000109-resize_3/002136_2014-06-25_21-18-03_260595134347_rgbf000109-resize_3-target.png,125,1.9569999999999999,4,2468,116,feet,jsons/VE125_randls_25.json,549032,1311250,62,Woman
150,563676,DepthScenes,duration_manipulation_targetAtFixation,jsons/VE125_randls_25.json,http://54.235.29.9/FacialAge/BNav_EC2/DepthDuration/v2_depth_duration_MTurk/v2_DepthDuration_HTML.html#133,133,1462,738,1536,864,8-30-2022,10-1-27,151,depth_duration_stimuli/000929_2014-06-09_16-33-19_260595134347_rgbf000139-resize_0/000929_2014-06-09_16-33-19_260595134347_rgbf000139-resize_0-target.png,125,2.8680000000000003,5,2863,118,feet,jsons/VE125_randls_25.json,549032,1311250,62,Woman
151,563676,DepthScenes,duration_manipulation_targetAtFixation,jsons/VE125_randls_25.json,http://54.235.29.9/FacialAge/BNav_EC2/DepthDuration/v2_depth_duration_MTurk/v2_DepthDuration_HTML.html#133,133,1462,738,1536,864,8-30-2022,10-1-27,152,depth_duration_stimuli/000457_2014-06-08_16-52-43_260595134347_rgbf000199-resize_1/000457_2014-06-08_16-52-43_260595134347_rgbf000199-resize_1-target.png,125,3.6489999999999996,4,8746,123,feet,jsons/VE125_randls_25.json,549032,1311250,62,Woman
152,563676,DepthScenes,duration_manipulation_targetAtFixation,jsons/VE125_randls_25.json,http://54.235.29.9/FacialAge/BNav_EC2/DepthDuration/v2_depth_duration_MTurk/v2_DepthDuration_HTML.html#133,133,1462,738,1536,864,8-30-2022,10-1-27,153,depth_duration_stimuli/001029_2014-06-08_13-17-57_260595134347_rgbf000065-resize_1/001029_2014-06-08_13-17-57_260595134347_rgbf000065-resize_1-target.png,125,3.0835,6,2320,114,feet,jsons/VE125_randls_25.json,549032,1311250,62,Woman
153,563676,DepthScenes,duration_manipulation_targetAtFixation,jsons/VE125_randls_25.json,http://54.235.29.9/FacialAge/BNav_EC2/DepthDuration/v2_depth_duration_MTurk/v2_DepthDuration_HTML.html#133,133,1462,738,1536,864,8-30-2022,10-1-27,154,depth_duration_stimuli/000677_2014-06-08_23-10-32_260595134347_rgbf000158-resize_6/000677_2014-06-08_23-10-32_260595134347_rgbf000158-resize_6-target.png,125,3.556,5,2332,125,feet,jsons/VE125_randls_25.json,549032,1311250,62,Woman
154,563676,DepthScenes,duration_manipulation_targetAtFixation,jsons/VE125_randls_25.json,http://54.235.29.9/FacialAge/BNav_EC2/DepthDuration/v2_depth_duration_MTurk/v2_DepthDuration_HTML.html#133,133,1462,738,1536,864,8-30-2022,10-1-27,155,depth_duration_stimuli/001167_2014-06-17_15-38-07_260595134347_rgbf000108-resize_0/001167_2014-06-17_15-38-07_260595134347_rgbf000108-resize_0-target.png,125,1.8505,4,2409,123,feet,jsons/VE125_randls_25.json,549032,1311250,62,Woman
155,563676,DepthScenes,duration_manipulation_targetAtFixation,jsons/VE125_randls_25.json,http://54.235.29.9/FacialAge/BNav_EC2/DepthDuration/v2_depth_duration_MTurk/v2_DepthDuration_HTML.html#133,133,1462,738,1536,864,8-30-2022,10-1-27,156,depth_duration_stimuli/003587_2014-05-23_16-48-02_094959634447_rgbf002384-resize_2/003587_2014-05-23_16-48-02_094959634447_rgbf002384-resize_2-target.png,125,1.357,3,2613,122,feet,jsons/VE125_randls_25.json,549032,1311250,62,Woman
156,563676,DepthScenes,duration_manipulation_targetAtFixation,jsons/VE125_randls_25.json,http://54.235.29.9/FacialAge/BNav_EC2/DepthDuration/v2_depth_duration_MTurk/v2_DepthDuration_HTML.html#133,133,1462,738,1536,864,8-30-2022,10-1-27,157,depth_duration_stimuli/003070_2014-06-15_14-58-27_094959634447_rgbf000150-resize_3/003070_2014-06-15_14-58-27_094959634447_rgbf000150-resize_3-target.png,125,2.9415,5,2255,115,feet,jsons/VE125_randls_25.json,549032,1311250,62,Woman
157,563676,DepthScenes,duration_manipulation_targetAtFixation,jsons/VE125_randls_25.json,http://54.235.29.9/FacialAge/BNav_EC2/DepthDuration/v2_depth_duration_MTurk/v2_DepthDuration_HTML.html#133,133,1462,738,1536,864,8-30-2022,10-1-27,158,depth_duration_stimuli/000943_2014-06-09_19-31-07_260595134347_rgbf000128-resize_1/000943_2014-06-09_19-31-07_260595134347_rgbf000128-resize_1-target.png,125,1.9765,4,2821,133,feet,jsons/VE125_randls_25.json,549032,1311250,62,Woman
158,563676,DepthScenes,duration_manipulation_targetAtFixation,jsons/VE125_randls_25.json,http://54.235.29.9/FacialAge/BNav_EC2/DepthDuration/v2_depth_duration_MTurk/v2_DepthDuration_HTML.html#133,133,1462,738,1536,864,8-30-2022,10-1-27,159,depth_duration_stimuli/000773_2014-06-08_22-24-54_260595134347_rgbf000093-resize_1/000773_2014-06-08_22-24-54_260595134347_rgbf000093-resize_1-target.png,125,4.973,5,3206,123,feet,jsons/VE125_randls_25.json,549032,1311250,62,Woman
159,563676,DepthScenes,duration_manipulation_targetAtFixation,jsons/VE125_randls_25.json,http://54.235.29.9/FacialAge/BNav_EC2/DepthDuration/v2_depth_duration_MTurk/v2_DepthDuration_HTML.html#133,133,1462,738,1536,864,8-30-2022,10-1-27,160,depth_duration_stimuli/002414_2014-06-28_20-24-58_260595134347_rgbf000067-resize_4/002414_2014-06-28_20-24-58_260595134347_rgbf000067-resize_4-target.png,125,4.363,5,2246,124,feet,jsons/VE125_randls_25.json,549032,1311250,62,Woman
160,563676,DepthScenes,duration_manipulation_targetAtFixation,jsons/VE125_randls_25.json,http://54.235.29.9/FacialAge/BNav_EC2/DepthDuration/v2_depth_duration_MTurk/v2_DepthDuration_HTML.html#133,133,1462,738,1536,864,8-30-2022,10-1-27,161,depth_duration_stimuli/000682_2014-06-08_23-14-58_260595134347_rgbf000041-resize_5/000682_2014-06-08_23-14-58_260595134347_rgbf000041-resize_5-target.png,125,2.7239999999999998,4,2145,136,feet,jsons/VE125_randls_25.json,549032,1311250,62,Woman
161,563676,DepthScenes,duration_manipulation_targetAtFixation,jsons/VE125_randls_25.json,http://54.235.29.9/FacialAge/BNav_EC2/DepthDuration/v2_depth_duration_MTurk/v2_DepthDuration_HTML.html#133,133,1462,738,1536,864,8-30-2022,10-1-27,162,depth_duration_stimuli/001650_2014-06-20_12-09-00_260595134347_rgbf000087-resize_3/001650_2014-06-20_12-09-00_260595134347_rgbf000087-resize_3-target.png,125,1.9505,2,2756,117,feet,jsons/VE125_randls_25.json,549032,1311250,62,Woman
162,563676,DepthScenes,duration_manipulation_targetAtFixation,jsons/VE125_randls_25.json,http://54.235.29.9/FacialAge/BNav_EC2/DepthDuration/v2_depth_duration_MTurk/v2_DepthDuration_HTML.html#133,133,1462,738,1536,864,8-30-2022,10-1-27,163,depth_duration_stimuli/002272_2014-06-28_18-53-56_260595134347_rgbf000067-resize_2/002272_2014-06-28_18-53-56_260595134347_rgbf000067-resize_2-target.png,125,1.138,0,3169,136,feet,jsons/VE125_randls_25.json,549032,1311250,62,Woman
163,563676,DepthScenes,duration_manipulation_targetAtFixation,jsons/VE125_randls_25.json,http://54.235.29.9/FacialAge/BNav_EC2/DepthDuration/v2_depth_duration_MTurk/v2_DepthDuration_HTML.html#133,133,1462,738,1536,864,8-30-2022,10-1-27,164,depth_duration_stimuli/001571_2014-06-20_17-21-32_260595134347_rgbf000089-resize_1/001571_2014-06-20_17-21-32_260595134347_rgbf000089-resize_1-target.png,125,1.86,3,2509,125,feet,jsons/VE125_randls_25.json,549032,1311250,62,Woman
