,subjID,experimentName,versionName,sequenceName,url,selected_row,windowWidth,windowHeight,screenWidth,screenHeight,startDate,startTime,trial,stimulus,duration,actual_depth,depth_estimate,trial_RT,log_sceneDuration,unitSelection,seq_filepath,experimentTime,totalTime,age,gender
0,564366,DepthScenes,duration_manipulation_targetAtFixation,jsons/VE125_randls_43.json,http://54.235.29.9/FacialAge/BNav_EC2/DepthDuration/v2_depth_duration_MTurk/v2_DepthDuration_HTML.html#87,87,1435,648,1291,727,9-4-2022,11-27-35,1,depth_duration_stimuli/001092_2014-06-15_17-34-58_260595134347_rgbf000171-resize_3/001092_2014-06-15_17-34-58_260595134347_rgbf000171-resize_3-target.png,125,2.6935,3,5162,135,feet,jsons/VE125_randls_43.json,535155,700944,46,Woman
1,564366,DepthScenes,duration_manipulation_targetAtFixation,jsons/VE125_randls_43.json,http://54.235.29.9/FacialAge/BNav_EC2/DepthDuration/v2_depth_duration_MTurk/v2_DepthDuration_HTML.html#87,87,1435,648,1291,727,9-4-2022,11-27-35,2,depth_duration_stimuli/002545_2014-06-24_13-38-53_094959634447_rgbf000080-resize_4/002545_2014-06-24_13-38-53_094959634447_rgbf000080-resize_4-target.png,125,1.9205,2,5767,133,feet,jsons/VE125_randls_43.json,535155,700944,46,Woman
2,564366,DepthScenes,duration_manipulation_targetAtFixation,jsons/VE125_randls_43.json,http://54.235.29.9/FacialAge/BNav_EC2/DepthDuration/v2_depth_duration_MTurk/v2_DepthDuration_HTML.html#87,87,1435,648,1291,727,9-4-2022,11-27-35,3,depth_duration_stimuli/000368_2014-06-09_15-53-01_260595134347_rgbf000155-resize_2/000368_2014-06-09_15-53-01_260595134347_rgbf000155-resize_2-target.png,125,2.4859999999999998,2,6109,124,feet,jsons/VE125_randls_43.json,535155,700944,46,Woman
3,564366,DepthScenes,duration_manipulation_targetAtFixation,jsons/VE125_randls_43.json,http://54.235.29.9/FacialAge/BNav_EC2/DepthDuration/v2_depth_duration_MTurk/v2_DepthDuration_HTML.html#87,87,1435,648,1291,727,9-4-2022,11-27-35,4,depth_duration_stimuli/002678_2014-06-13_16-15-32_094959634447_rgbf000151-resize_6/002678_2014-06-13_16-15-32_094959634447_rgbf000151-resize_6-target.png,125,2.1830000000000003,3,5486,118,feet,jsons/VE125_randls_43.json,535155,700944,46,Woman
4,564366,DepthScenes,duration_manipulation_targetAtFixation,jsons/VE125_randls_43.json,http://54.235.29.9/FacialAge/BNav_EC2/DepthDuration/v2_depth_duration_MTurk/v2_DepthDuration_HTML.html#87,87,1435,648,1291,727,9-4-2022,11-27-35,5,depth_duration_stimuli/001055_2014-06-08_18-45-35_260595134347_rgbf000111-resize_4/001055_2014-06-08_18-45-35_260595134347_rgbf000111-resize_4-target.png,125,2.4290000000000003,5,4026,123,feet,jsons/VE125_randls_43.json,535155,700944,46,Woman
5,564366,DepthScenes,duration_manipulation_targetAtFixation,jsons/VE125_randls_43.json,http://54.235.29.9/FacialAge/BNav_EC2/DepthDuration/v2_depth_duration_MTurk/v2_DepthDuration_HTML.html#87,87,1435,648,1291,727,9-4-2022,11-27-35,6,depth_duration_stimuli/000549_2014-06-08_22-10-24_260595134347_rgbf000247-resize_3/000549_2014-06-08_22-10-24_260595134347_rgbf000247-resize_3-target.png,125,1.841,2,2803,114,feet,jsons/VE125_randls_43.json,535155,700944,46,Woman
6,564366,DepthScenes,duration_manipulation_targetAtFixation,jsons/VE125_randls_43.json,http://54.235.29.9/FacialAge/BNav_EC2/DepthDuration/v2_depth_duration_MTurk/v2_DepthDuration_HTML.html#87,87,1435,648,1291,727,9-4-2022,11-27-35,7,depth_duration_stimuli/000773_2014-06-08_22-24-54_260595134347_rgbf000093-resize_1/000773_2014-06-08_22-24-54_260595134347_rgbf000093-resize_1-target.png,125,4.973,3,3098,115,feet,jsons/VE125_randls_43.json,535155,700944,46,Woman
7,564366,DepthScenes,duration_manipulation_targetAtFixation,jsons/VE125_randls_43.json,http://54.235.29.9/FacialAge/BNav_EC2/DepthDuration/v2_depth_duration_MTurk/v2_DepthDuration_HTML.html#87,87,1435,648,1291,727,9-4-2022,11-27-35,8,depth_duration_stimuli/002414_2014-06-28_20-24-58_260595134347_rgbf000067-resize_4/002414_2014-06-28_20-24-58_260595134347_rgbf000067-resize_4-target.png,125,4.363,3,3790,123,feet,jsons/VE125_randls_43.json,535155,700944,46,Woman
8,564366,DepthScenes,duration_manipulation_targetAtFixation,jsons/VE125_randls_43.json,http://54.235.29.9/FacialAge/BNav_EC2/DepthDuration/v2_depth_duration_MTurk/v2_DepthDuration_HTML.html#87,87,1435,648,1291,727,9-4-2022,11-27-35,9,depth_duration_stimuli/003292_2014-05-14_21-53-49_094959634447_rgbf000100-resize_2/003292_2014-05-14_21-53-49_094959634447_rgbf000100-resize_2-target.png,125,3.4815,2,3390,119,feet,jsons/VE125_randls_43.json,535155,700944,46,Woman
9,564366,DepthScenes,duration_manipulation_targetAtFixation,jsons/VE125_randls_43.json,http://54.235.29.9/FacialAge/BNav_EC2/DepthDuration/v2_depth_duration_MTurk/v2_DepthDuration_HTML.html#87,87,1435,648,1291,727,9-4-2022,11-27-35,10,depth_duration_stimuli/002639_2014-06-24_14-51-37_094959634447_rgbf000074-resize_4/002639_2014-06-24_14-51-37_094959634447_rgbf000074-resize_4-target.png,125,4.0375,3,3070,118,feet,jsons/VE125_randls_43.json,535155,700944,46,Woman
10,564366,DepthScenes,duration_manipulation_targetAtFixation,jsons/VE125_randls_43.json,http://54.235.29.9/FacialAge/BNav_EC2/DepthDuration/v2_depth_duration_MTurk/v2_DepthDuration_HTML.html#87,87,1435,648,1291,727,9-4-2022,11-27-35,11,depth_duration_stimuli/001167_2014-06-17_15-38-07_260595134347_rgbf000108-resize_0/001167_2014-06-17_15-38-07_260595134347_rgbf000108-resize_0-target.png,125,1.8505,2,2318,115,feet,jsons/VE125_randls_43.json,535155,700944,46,Woman
11,564366,DepthScenes,duration_manipulation_targetAtFixation,jsons/VE125_randls_43.json,http://54.235.29.9/FacialAge/BNav_EC2/DepthDuration/v2_depth_duration_MTurk/v2_DepthDuration_HTML.html#87,87,1435,648,1291,727,9-4-2022,11-27-35,12,depth_duration_stimuli/003587_2014-05-23_16-48-02_094959634447_rgbf002384-resize_2/003587_2014-05-23_16-48-02_094959634447_rgbf002384-resize_2-target.png,125,1.357,1,2592,121,feet,jsons/VE125_randls_43.json,535155,700944,46,Woman
12,564366,DepthScenes,duration_manipulation_targetAtFixation,jsons/VE125_randls_43.json,http://54.235.29.9/FacialAge/BNav_EC2/DepthDuration/v2_depth_duration_MTurk/v2_DepthDuration_HTML.html#87,87,1435,648,1291,727,9-4-2022,11-27-35,13,depth_duration_stimuli/000569_2014-06-09_22-51-47_260595134347_rgbf000141-resize_3/000569_2014-06-09_22-51-47_260595134347_rgbf000141-resize-original.jpg,125,4.512,0,3270,118,feet,jsons/VE125_randls_43.json,535155,700944,46,Woman
13,564366,DepthScenes,duration_manipulation_targetAtFixation,jsons/VE125_randls_43.json,http://54.235.29.9/FacialAge/BNav_EC2/DepthDuration/v2_depth_duration_MTurk/v2_DepthDuration_HTML.html#87,87,1435,648,1291,727,9-4-2022,11-27-35,14,depth_duration_stimuli/002748_2014-06-22_19-07-22_094959634447_rgbf000078-resize_1/002748_2014-06-22_19-07-22_094959634447_rgbf000078-resize_1-target.png,125,4.6705,5,2688,130,feet,jsons/VE125_randls_43.json,535155,700944,46,Woman
14,564366,DepthScenes,duration_manipulation_targetAtFixation,jsons/VE125_randls_43.json,http://54.235.29.9/FacialAge/BNav_EC2/DepthDuration/v2_depth_duration_MTurk/v2_DepthDuration_HTML.html#87,87,1435,648,1291,727,9-4-2022,11-27-35,15,depth_duration_stimuli/002995_2014-06-15_12-31-26_094959634447_rgbf000150-resize_1/002995_2014-06-15_12-31-26_094959634447_rgbf000150-resize_1-target.png,125,3.8360000000000003,4,2816,129,feet,jsons/VE125_randls_43.json,535155,700944,46,Woman
15,564366,DepthScenes,duration_manipulation_targetAtFixation,jsons/VE125_randls_43.json,http://54.235.29.9/FacialAge/BNav_EC2/DepthDuration/v2_depth_duration_MTurk/v2_DepthDuration_HTML.html#87,87,1435,648,1291,727,9-4-2022,11-27-35,16,depth_duration_stimuli/000470_2014-06-09_19-42-40_260595134347_rgbf000094-resize_1/000470_2014-06-09_19-42-40_260595134347_rgbf000094-resize_1-target.png,125,1.831,3,3113,122,feet,jsons/VE125_randls_43.json,535155,700944,46,Woman
16,564366,DepthScenes,duration_manipulation_targetAtFixation,jsons/VE125_randls_43.json,http://54.235.29.9/FacialAge/BNav_EC2/DepthDuration/v2_depth_duration_MTurk/v2_DepthDuration_HTML.html#87,87,1435,648,1291,727,9-4-2022,11-27-35,17,depth_duration_stimuli/000109_2014-05-14_23-41-52_260595134347_rgbf000035-resize_9/000109_2014-05-14_23-41-52_260595134347_rgbf000035-resize_9-target.png,125,1.3545,2,2973,120,feet,jsons/VE125_randls_43.json,535155,700944,46,Woman
17,564366,DepthScenes,duration_manipulation_targetAtFixation,jsons/VE125_randls_43.json,http://54.235.29.9/FacialAge/BNav_EC2/DepthDuration/v2_depth_duration_MTurk/v2_DepthDuration_HTML.html#87,87,1435,648,1291,727,9-4-2022,11-27-35,18,depth_duration_stimuli/001810_2014-06-26_20-51-35_260595134347_rgbf000040-resize_3/001810_2014-06-26_20-51-35_260595134347_rgbf000040-resize_3-target.png,125,2.2525,2,2404,131,feet,jsons/VE125_randls_43.json,535155,700944,46,Woman
18,564366,DepthScenes,duration_manipulation_targetAtFixation,jsons/VE125_randls_43.json,http://54.235.29.9/FacialAge/BNav_EC2/DepthDuration/v2_depth_duration_MTurk/v2_DepthDuration_HTML.html#87,87,1435,648,1291,727,9-4-2022,11-27-35,19,depth_duration_stimuli/003010_2014-06-15_12-54-35_094959634447_rgbf000112-resize_0/003010_2014-06-15_12-54-35_094959634447_rgbf000112-resize_0-target.png,125,3.1185,4,2563,118,feet,jsons/VE125_randls_43.json,535155,700944,46,Woman
19,564366,DepthScenes,duration_manipulation_targetAtFixation,jsons/VE125_randls_43.json,http://54.235.29.9/FacialAge/BNav_EC2/DepthDuration/v2_depth_duration_MTurk/v2_DepthDuration_HTML.html#87,87,1435,648,1291,727,9-4-2022,11-27-35,20,depth_duration_stimuli/001808_2014-06-26_20-50-58_260595134347_rgbf000029-resize_1/001808_2014-06-26_20-50-58_260595134347_rgbf000029-resize_1-target.png,125,4.249,4,2021,120,feet,jsons/VE125_randls_43.json,535155,700944,46,Woman
20,564366,DepthScenes,duration_manipulation_targetAtFixation,jsons/VE125_randls_43.json,http://54.235.29.9/FacialAge/BNav_EC2/DepthDuration/v2_depth_duration_MTurk/v2_DepthDuration_HTML.html#87,87,1435,648,1291,727,9-4-2022,11-27-35,21,depth_duration_stimuli/001815_2014-06-26_20-52-55_260595134347_rgbf000020-resize_0/001815_2014-06-26_20-52-55_260595134347_rgbf000020-resize_0-target.png,125,3.3865,3,2487,119,feet,jsons/VE125_randls_43.json,535155,700944,46,Woman
21,564366,DepthScenes,duration_manipulation_targetAtFixation,jsons/VE125_randls_43.json,http://54.235.29.9/FacialAge/BNav_EC2/DepthDuration/v2_depth_duration_MTurk/v2_DepthDuration_HTML.html#87,87,1435,648,1291,727,9-4-2022,11-27-35,22,depth_duration_stimuli/000739_2014-06-08_18-45-58_260595134347_rgbf000068-resize_1/000739_2014-06-08_18-45-58_260595134347_rgbf000068-resize_1-target.png,125,3.534,3,2017,120,feet,jsons/VE125_randls_43.json,535155,700944,46,Woman
22,564366,DepthScenes,duration_manipulation_targetAtFixation,jsons/VE125_randls_43.json,http://54.235.29.9/FacialAge/BNav_EC2/DepthDuration/v2_depth_duration_MTurk/v2_DepthDuration_HTML.html#87,87,1435,648,1291,727,9-4-2022,11-27-35,23,depth_duration_stimuli/000734_2014-06-08_17-39-11_260595134347_rgbf000128-resize_2/000734_2014-06-08_17-39-11_260595134347_rgbf000128-resize_2-target.png,125,4.098,3,2550,124,feet,jsons/VE125_randls_43.json,535155,700944,46,Woman
23,564366,DepthScenes,duration_manipulation_targetAtFixation,jsons/VE125_randls_43.json,http://54.235.29.9/FacialAge/BNav_EC2/DepthDuration/v2_depth_duration_MTurk/v2_DepthDuration_HTML.html#87,87,1435,648,1291,727,9-4-2022,11-27-35,24,depth_duration_stimuli/003621_2014-05-23_18-06-08_094959634447_rgbf000101-resize_1/003621_2014-05-23_18-06-08_094959634447_rgbf000101-resize_1-target.png,125,3.9835,2,2381,131,feet,jsons/VE125_randls_43.json,535155,700944,46,Woman
24,564366,DepthScenes,duration_manipulation_targetAtFixation,jsons/VE125_randls_43.json,http://54.235.29.9/FacialAge/BNav_EC2/DepthDuration/v2_depth_duration_MTurk/v2_DepthDuration_HTML.html#87,87,1435,648,1291,727,9-4-2022,11-27-35,25,depth_duration_stimuli/001584_2014-06-20_11-07-43_260595134347_rgbf000002-resize_1/001584_2014-06-20_11-07-43_260595134347_rgbf000002-resize_1-target.png,125,3.53,3,2157,120,feet,jsons/VE125_randls_43.json,535155,700944,46,Woman
25,564366,DepthScenes,duration_manipulation_targetAtFixation,jsons/VE125_randls_43.json,http://54.235.29.9/FacialAge/BNav_EC2/DepthDuration/v2_depth_duration_MTurk/v2_DepthDuration_HTML.html#87,87,1435,648,1291,727,9-4-2022,11-27-35,26,depth_duration_stimuli/003070_2014-06-15_14-58-27_094959634447_rgbf000150-resize_3/003070_2014-06-15_14-58-27_094959634447_rgbf000150-resize_3-target.png,125,2.9415,3,2371,119,feet,jsons/VE125_randls_43.json,535155,700944,46,Woman
26,564366,DepthScenes,duration_manipulation_targetAtFixation,jsons/VE125_randls_43.json,http://54.235.29.9/FacialAge/BNav_EC2/DepthDuration/v2_depth_duration_MTurk/v2_DepthDuration_HTML.html#87,87,1435,648,1291,727,9-4-2022,11-27-35,27,depth_duration_stimuli/000943_2014-06-09_19-31-07_260595134347_rgbf000128-resize_1/000943_2014-06-09_19-31-07_260595134347_rgbf000128-resize_1-target.png,125,1.9765,3,2254,121,feet,jsons/VE125_randls_43.json,535155,700944,46,Woman
27,564366,DepthScenes,duration_manipulation_targetAtFixation,jsons/VE125_randls_43.json,http://54.235.29.9/FacialAge/BNav_EC2/DepthDuration/v2_depth_duration_MTurk/v2_DepthDuration_HTML.html#87,87,1435,648,1291,727,9-4-2022,11-27-35,28,depth_duration_stimuli/001029_2014-06-08_13-17-57_260595134347_rgbf000065-resize_1/001029_2014-06-08_13-17-57_260595134347_rgbf000065-resize_1-target.png,125,3.0835,2,2127,133,feet,jsons/VE125_randls_43.json,535155,700944,46,Woman
28,564366,DepthScenes,duration_manipulation_targetAtFixation,jsons/VE125_randls_43.json,http://54.235.29.9/FacialAge/BNav_EC2/DepthDuration/v2_depth_duration_MTurk/v2_DepthDuration_HTML.html#87,87,1435,648,1291,727,9-4-2022,11-27-35,29,depth_duration_stimuli/000677_2014-06-08_23-10-32_260595134347_rgbf000158-resize_6/000677_2014-06-08_23-10-32_260595134347_rgbf000158-resize_6-target.png,125,3.556,3,2236,134,feet,jsons/VE125_randls_43.json,535155,700944,46,Woman
29,564366,DepthScenes,duration_manipulation_targetAtFixation,jsons/VE125_randls_43.json,http://54.235.29.9/FacialAge/BNav_EC2/DepthDuration/v2_depth_duration_MTurk/v2_DepthDuration_HTML.html#87,87,1435,648,1291,727,9-4-2022,11-27-35,30,depth_duration_stimuli/000375_2014-06-08_11-17-29_260595134347_rgbf000133-resize_2/000375_2014-06-08_11-17-29_260595134347_rgbf000133-resize-original.jpg,125,4.718,0,2890,115,feet,jsons/VE125_randls_43.json,535155,700944,46,Woman
30,564366,DepthScenes,duration_manipulation_targetAtFixation,jsons/VE125_randls_43.json,http://54.235.29.9/FacialAge/BNav_EC2/DepthDuration/v2_depth_duration_MTurk/v2_DepthDuration_HTML.html#87,87,1435,648,1291,727,9-4-2022,11-27-35,31,depth_duration_stimuli/000878_2014-06-08_22-52-45_260595134347_rgbf000045-resize_2/000878_2014-06-08_22-52-45_260595134347_rgbf000045-resize_2-target.png,125,2.092,3,2683,120,feet,jsons/VE125_randls_43.json,535155,700944,46,Woman
31,564366,DepthScenes,duration_manipulation_targetAtFixation,jsons/VE125_randls_43.json,http://54.235.29.9/FacialAge/BNav_EC2/DepthDuration/v2_depth_duration_MTurk/v2_DepthDuration_HTML.html#87,87,1435,648,1291,727,9-4-2022,11-27-35,32,depth_duration_stimuli/002953_2014-06-08_17-32-18_094959634447_rgbf000059-resize_5/002953_2014-06-08_17-32-18_094959634447_rgbf000059-resize_5-target.png,125,1.551,2,2535,129,feet,jsons/VE125_randls_43.json,535155,700944,46,Woman
32,564366,DepthScenes,duration_manipulation_targetAtFixation,jsons/VE125_randls_43.json,http://54.235.29.9/FacialAge/BNav_EC2/DepthDuration/v2_depth_duration_MTurk/v2_DepthDuration_HTML.html#87,87,1435,648,1291,727,9-4-2022,11-27-35,33,depth_duration_stimuli/002663_2014-06-13_15-50-26_094959634447_rgbf000075-resize_1/002663_2014-06-13_15-50-26_094959634447_rgbf000075-resize_1-target.png,125,4.7495,3,2098,120,feet,jsons/VE125_randls_43.json,535155,700944,46,Woman
33,564366,DepthScenes,duration_manipulation_targetAtFixation,jsons/VE125_randls_43.json,http://54.235.29.9/FacialAge/BNav_EC2/DepthDuration/v2_depth_duration_MTurk/v2_DepthDuration_HTML.html#87,87,1435,648,1291,727,9-4-2022,11-27-35,34,depth_duration_stimuli/000409_2014-06-04_19-23-33_260595134347_rgbf000067-resize_0/000409_2014-06-04_19-23-33_260595134347_rgbf000067-resize_0-target.png,125,3.7335,4,2485,112,feet,jsons/VE125_randls_43.json,535155,700944,46,Woman
34,564366,DepthScenes,duration_manipulation_targetAtFixation,jsons/VE125_randls_43.json,http://54.235.29.9/FacialAge/BNav_EC2/DepthDuration/v2_depth_duration_MTurk/v2_DepthDuration_HTML.html#87,87,1435,648,1291,727,9-4-2022,11-27-35,35,depth_duration_stimuli/000929_2014-06-09_16-33-19_260595134347_rgbf000139-resize_0/000929_2014-06-09_16-33-19_260595134347_rgbf000139-resize_0-target.png,125,2.8680000000000003,3,2689,125,feet,jsons/VE125_randls_43.json,535155,700944,46,Woman
35,564366,DepthScenes,duration_manipulation_targetAtFixation,jsons/VE125_randls_43.json,http://54.235.29.9/FacialAge/BNav_EC2/DepthDuration/v2_depth_duration_MTurk/v2_DepthDuration_HTML.html#87,87,1435,648,1291,727,9-4-2022,11-27-35,36,depth_duration_stimuli/000457_2014-06-08_16-52-43_260595134347_rgbf000199-resize_1/000457_2014-06-08_16-52-43_260595134347_rgbf000199-resize_1-target.png,125,3.6489999999999996,3,2391,124,feet,jsons/VE125_randls_43.json,535155,700944,46,Woman
36,564366,DepthScenes,duration_manipulation_targetAtFixation,jsons/VE125_randls_43.json,http://54.235.29.9/FacialAge/BNav_EC2/DepthDuration/v2_depth_duration_MTurk/v2_DepthDuration_HTML.html#87,87,1435,648,1291,727,9-4-2022,11-27-35,37,depth_duration_stimuli/002549_2014-06-24_13-41-39_094959634447_rgbf000022-resize_3/002549_2014-06-24_13-41-39_094959634447_rgbf000022-resize_3-target.png,125,1.476,2,2576,130,feet,jsons/VE125_randls_43.json,535155,700944,46,Woman
37,564366,DepthScenes,duration_manipulation_targetAtFixation,jsons/VE125_randls_43.json,http://54.235.29.9/FacialAge/BNav_EC2/DepthDuration/v2_depth_duration_MTurk/v2_DepthDuration_HTML.html#87,87,1435,648,1291,727,9-4-2022,11-27-35,38,depth_duration_stimuli/002750_2014-06-22_19-08-03_094959634447_rgbf000094-resize_4/002750_2014-06-22_19-08-03_094959634447_rgbf000094-resize_4-target.png,125,2.354,3,2017,130,feet,jsons/VE125_randls_43.json,535155,700944,46,Woman
38,564366,DepthScenes,duration_manipulation_targetAtFixation,jsons/VE125_randls_43.json,http://54.235.29.9/FacialAge/BNav_EC2/DepthDuration/v2_depth_duration_MTurk/v2_DepthDuration_HTML.html#87,87,1435,648,1291,727,9-4-2022,11-27-35,39,depth_duration_stimuli/000906_2014-06-08_13-35-43_260595134347_rgbf000155-resize_1/000906_2014-06-08_13-35-43_260595134347_rgbf000155-resize_1-target.png,125,2.8489999999999998,3,2135,126,feet,jsons/VE125_randls_43.json,535155,700944,46,Woman
39,564366,DepthScenes,duration_manipulation_targetAtFixation,jsons/VE125_randls_43.json,http://54.235.29.9/FacialAge/BNav_EC2/DepthDuration/v2_depth_duration_MTurk/v2_DepthDuration_HTML.html#87,87,1435,648,1291,727,9-4-2022,11-27-35,40,depth_duration_stimuli/002805_2014-06-22_19-54-03_094959634447_rgbf000079-resize_1/002805_2014-06-22_19-54-03_094959634447_rgbf000079-resize_1-target.png,125,3.1439999999999997,3,3148,121,feet,jsons/VE125_randls_43.json,535155,700944,46,Woman
40,564366,DepthScenes,duration_manipulation_targetAtFixation,jsons/VE125_randls_43.json,http://54.235.29.9/FacialAge/BNav_EC2/DepthDuration/v2_depth_duration_MTurk/v2_DepthDuration_HTML.html#87,87,1435,648,1291,727,9-4-2022,11-27-35,41,depth_duration_stimuli/000642_2014-06-08_16-59-25_260595134347_rgbf000098-resize_2/000642_2014-06-08_16-59-25_260595134347_rgbf000098-resize_2-target.png,125,2.8815,3,2107,126,feet,jsons/VE125_randls_43.json,535155,700944,46,Woman
41,564366,DepthScenes,duration_manipulation_targetAtFixation,jsons/VE125_randls_43.json,http://54.235.29.9/FacialAge/BNav_EC2/DepthDuration/v2_depth_duration_MTurk/v2_DepthDuration_HTML.html#87,87,1435,648,1291,727,9-4-2022,11-27-35,42,depth_duration_stimuli/002425_2014-06-28_20-27-29_260595134347_rgbf000031-resize_8/002425_2014-06-28_20-27-29_260595134347_rgbf000031-resize_8-target.png,125,3.8960000000000004,3,2360,120,feet,jsons/VE125_randls_43.json,535155,700944,46,Woman
42,564366,DepthScenes,duration_manipulation_targetAtFixation,jsons/VE125_randls_43.json,http://54.235.29.9/FacialAge/BNav_EC2/DepthDuration/v2_depth_duration_MTurk/v2_DepthDuration_HTML.html#87,87,1435,648,1291,727,9-4-2022,11-27-35,43,depth_duration_stimuli/002445_2014-06-28_20-32-16_260595134347_rgbf000029-resize_4/002445_2014-06-28_20-32-16_260595134347_rgbf000029-resize_4-target.png,125,2.5315,3,2881,114,feet,jsons/VE125_randls_43.json,535155,700944,46,Woman
43,564366,DepthScenes,duration_manipulation_targetAtFixation,jsons/VE125_randls_43.json,http://54.235.29.9/FacialAge/BNav_EC2/DepthDuration/v2_depth_duration_MTurk/v2_DepthDuration_HTML.html#87,87,1435,648,1291,727,9-4-2022,11-27-35,44,depth_duration_stimuli/000780_2014-06-08_22-28-29_260595134347_rgbf000126-resize_1/000780_2014-06-08_22-28-29_260595134347_rgbf000126-resize_1-target.png,125,3.3825,3,2221,121,feet,jsons/VE125_randls_43.json,535155,700944,46,Woman
44,564366,DepthScenes,duration_manipulation_targetAtFixation,jsons/VE125_randls_43.json,http://54.235.29.9/FacialAge/BNav_EC2/DepthDuration/v2_depth_duration_MTurk/v2_DepthDuration_HTML.html#87,87,1435,648,1291,727,9-4-2022,11-27-35,45,depth_duration_stimuli/000787_2014-06-08_22-33-53_260595134347_rgbf000175-resize_1/000787_2014-06-08_22-33-53_260595134347_rgbf000175-resize-original.jpg,125,4.784,0,2978,127,feet,jsons/VE125_randls_43.json,535155,700944,46,Woman
45,564366,DepthScenes,duration_manipulation_targetAtFixation,jsons/VE125_randls_43.json,http://54.235.29.9/FacialAge/BNav_EC2/DepthDuration/v2_depth_duration_MTurk/v2_DepthDuration_HTML.html#87,87,1435,648,1291,727,9-4-2022,11-27-35,46,depth_duration_stimuli/002057_2014-06-24_21-00-13_260595134347_rgbf000120-resize_1/002057_2014-06-24_21-00-13_260595134347_rgbf000120-resize_1-target.png,125,2.967,2,2660,125,feet,jsons/VE125_randls_43.json,535155,700944,46,Woman
46,564366,DepthScenes,duration_manipulation_targetAtFixation,jsons/VE125_randls_43.json,http://54.235.29.9/FacialAge/BNav_EC2/DepthDuration/v2_depth_duration_MTurk/v2_DepthDuration_HTML.html#87,87,1435,648,1291,727,9-4-2022,11-27-35,47,depth_duration_stimuli/000709_2014-06-08_13-51-55_260595134347_rgbf000068-resize_3/000709_2014-06-08_13-51-55_260595134347_rgbf000068-resize_3-target.png,125,1.8030000000000002,0,2702,138,feet,jsons/VE125_randls_43.json,535155,700944,46,Woman
47,564366,DepthScenes,duration_manipulation_targetAtFixation,jsons/VE125_randls_43.json,http://54.235.29.9/FacialAge/BNav_EC2/DepthDuration/v2_depth_duration_MTurk/v2_DepthDuration_HTML.html#87,87,1435,648,1291,727,9-4-2022,11-27-35,48,depth_duration_stimuli/000447_2014-06-08_16-15-46_260595134347_rgbf000130-resize_1/000447_2014-06-08_16-15-46_260595134347_rgbf000130-resize_1-target.png,125,4.479,4,3748,133,feet,jsons/VE125_randls_43.json,535155,700944,46,Woman
48,564366,DepthScenes,duration_manipulation_targetAtFixation,jsons/VE125_randls_43.json,http://54.235.29.9/FacialAge/BNav_EC2/DepthDuration/v2_depth_duration_MTurk/v2_DepthDuration_HTML.html#87,87,1435,648,1291,727,9-4-2022,11-27-35,49,depth_duration_stimuli/001447_2014-06-19_17-00-32_260595134347_rgbf000082-resize_5/001447_2014-06-19_17-00-32_260595134347_rgbf000082-resize_5-target.png,125,4.13775,2,3140,130,feet,jsons/VE125_randls_43.json,535155,700944,46,Woman
49,564366,DepthScenes,duration_manipulation_targetAtFixation,jsons/VE125_randls_43.json,http://54.235.29.9/FacialAge/BNav_EC2/DepthDuration/v2_depth_duration_MTurk/v2_DepthDuration_HTML.html#87,87,1435,648,1291,727,9-4-2022,11-27-35,50,depth_duration_stimuli/002988_2014-06-15_12-24-20_094959634447_rgbf000150-resize_1/002988_2014-06-15_12-24-20_094959634447_rgbf000150-resize_1-target.png,125,4.7669999999999995,3,2209,117,feet,jsons/VE125_randls_43.json,535155,700944,46,Woman
50,564366,DepthScenes,duration_manipulation_targetAtFixation,jsons/VE125_randls_43.json,http://54.235.29.9/FacialAge/BNav_EC2/DepthDuration/v2_depth_duration_MTurk/v2_DepthDuration_HTML.html#87,87,1435,648,1291,727,9-4-2022,11-27-35,51,depth_duration_stimuli/001052_2014-06-08_18-24-54_260595134347_rgbf000130-resize_1/001052_2014-06-08_18-24-54_260595134347_rgbf000130-resize_1-target.png,125,4.1045,3,2154,111,feet,jsons/VE125_randls_43.json,535155,700944,46,Woman
51,564366,DepthScenes,duration_manipulation_targetAtFixation,jsons/VE125_randls_43.json,http://54.235.29.9/FacialAge/BNav_EC2/DepthDuration/v2_depth_duration_MTurk/v2_DepthDuration_HTML.html#87,87,1435,648,1291,727,9-4-2022,11-27-35,52,depth_duration_stimuli/002153_2014-06-25_21-27-18_260595134347_rgbf000038-resize_5/002153_2014-06-25_21-27-18_260595134347_rgbf000038-resize_5-target.png,125,2.505,2,2369,137,feet,jsons/VE125_randls_43.json,535155,700944,46,Woman
52,564366,DepthScenes,duration_manipulation_targetAtFixation,jsons/VE125_randls_43.json,http://54.235.29.9/FacialAge/BNav_EC2/DepthDuration/v2_depth_duration_MTurk/v2_DepthDuration_HTML.html#87,87,1435,648,1291,727,9-4-2022,11-27-35,53,depth_duration_stimuli/002660_2014-06-13_15-44-18_094959634447_rgbf001878-resize_2/002660_2014-06-13_15-44-18_094959634447_rgbf001878-resize_2-target.png,125,3.576,3,2051,123,feet,jsons/VE125_randls_43.json,535155,700944,46,Woman
53,564366,DepthScenes,duration_manipulation_targetAtFixation,jsons/VE125_randls_43.json,http://54.235.29.9/FacialAge/BNav_EC2/DepthDuration/v2_depth_duration_MTurk/v2_DepthDuration_HTML.html#87,87,1435,648,1291,727,9-4-2022,11-27-35,54,depth_duration_stimuli/001150_2014-06-17_15-27-34_260595134347_rgbf000108-resize_2/001150_2014-06-17_15-27-34_260595134347_rgbf000108-resize_2-target.png,125,4.0325,3,1853,123,feet,jsons/VE125_randls_43.json,535155,700944,46,Woman
54,564366,DepthScenes,duration_manipulation_targetAtFixation,jsons/VE125_randls_43.json,http://54.235.29.9/FacialAge/BNav_EC2/DepthDuration/v2_depth_duration_MTurk/v2_DepthDuration_HTML.html#87,87,1435,648,1291,727,9-4-2022,11-27-35,55,depth_duration_stimuli/000665_2014-06-09_20-42-35_260595134347_rgbf000110-resize_1/000665_2014-06-09_20-42-35_260595134347_rgbf000110-resize_1-target.png,125,3.057,2,2387,122,feet,jsons/VE125_randls_43.json,535155,700944,46,Woman
55,564366,DepthScenes,duration_manipulation_targetAtFixation,jsons/VE125_randls_43.json,http://54.235.29.9/FacialAge/BNav_EC2/DepthDuration/v2_depth_duration_MTurk/v2_DepthDuration_HTML.html#87,87,1435,648,1291,727,9-4-2022,11-27-35,56,depth_duration_stimuli/001056_2014-06-08_18-46-44_260595134347_rgbf000068-resize_0/001056_2014-06-08_18-46-44_260595134347_rgbf000068-resize_0-target.png,125,2.6625,3,1979,132,feet,jsons/VE125_randls_43.json,535155,700944,46,Woman
56,564366,DepthScenes,duration_manipulation_targetAtFixation,jsons/VE125_randls_43.json,http://54.235.29.9/FacialAge/BNav_EC2/DepthDuration/v2_depth_duration_MTurk/v2_DepthDuration_HTML.html#87,87,1435,648,1291,727,9-4-2022,11-27-35,57,depth_duration_stimuli/002199_2014-06-28_18-33-56_260595134347_rgbf000074-resize_0/002199_2014-06-28_18-33-56_260595134347_rgbf000074-resize_0-target.png,125,1.996,1,2609,131,feet,jsons/VE125_randls_43.json,535155,700944,46,Woman
57,564366,DepthScenes,duration_manipulation_targetAtFixation,jsons/VE125_randls_43.json,http://54.235.29.9/FacialAge/BNav_EC2/DepthDuration/v2_depth_duration_MTurk/v2_DepthDuration_HTML.html#87,87,1435,648,1291,727,9-4-2022,11-27-35,58,depth_duration_stimuli/002784_2014-06-22_19-26-30_094959634447_rgbf000083-resize_3/002784_2014-06-22_19-26-30_094959634447_rgbf000083-resize_3-target.png,125,1.8046666666667,3,2441,116,feet,jsons/VE125_randls_43.json,535155,700944,46,Woman
58,564366,DepthScenes,duration_manipulation_targetAtFixation,jsons/VE125_randls_43.json,http://54.235.29.9/FacialAge/BNav_EC2/DepthDuration/v2_depth_duration_MTurk/v2_DepthDuration_HTML.html#87,87,1435,648,1291,727,9-4-2022,11-27-35,59,depth_duration_stimuli/001100_2014-06-15_17-46-26_260595134347_rgbf000225-resize_2/001100_2014-06-15_17-46-26_260595134347_rgbf000225-resize_2-target.png,125,2.24,2,2274,113,feet,jsons/VE125_randls_43.json,535155,700944,46,Woman
59,564366,DepthScenes,duration_manipulation_targetAtFixation,jsons/VE125_randls_43.json,http://54.235.29.9/FacialAge/BNav_EC2/DepthDuration/v2_depth_duration_MTurk/v2_DepthDuration_HTML.html#87,87,1435,648,1291,727,9-4-2022,11-27-35,60,depth_duration_stimuli/002213_2014-06-28_18-37-58_260595134347_rgbf000055-resize_1/002213_2014-06-28_18-37-58_260595134347_rgbf000055-resize_1-target.png,125,3.62,4,3023,134,feet,jsons/VE125_randls_43.json,535155,700944,46,Woman
60,564366,DepthScenes,duration_manipulation_targetAtFixation,jsons/VE125_randls_43.json,http://54.235.29.9/FacialAge/BNav_EC2/DepthDuration/v2_depth_duration_MTurk/v2_DepthDuration_HTML.html#87,87,1435,648,1291,727,9-4-2022,11-27-35,61,depth_duration_stimuli/000691_2014-06-08_13-08-50_260595134347_rgbf000132-resize_3/000691_2014-06-08_13-08-50_260595134347_rgbf000132-resize_3-target.png,125,4.1530000000000005,3,2672,131,feet,jsons/VE125_randls_43.json,535155,700944,46,Woman
61,564366,DepthScenes,duration_manipulation_targetAtFixation,jsons/VE125_randls_43.json,http://54.235.29.9/FacialAge/BNav_EC2/DepthDuration/v2_depth_duration_MTurk/v2_DepthDuration_HTML.html#87,87,1435,648,1291,727,9-4-2022,11-27-35,62,depth_duration_stimuli/000414_2014-06-04_19-49-13_260595134347_rgbf000044-resize_0/000414_2014-06-04_19-49-13_260595134347_rgbf000044-resize_0-target.png,125,4.329,3,2239,127,feet,jsons/VE125_randls_43.json,535155,700944,46,Woman
62,564366,DepthScenes,duration_manipulation_targetAtFixation,jsons/VE125_randls_43.json,http://54.235.29.9/FacialAge/BNav_EC2/DepthDuration/v2_depth_duration_MTurk/v2_DepthDuration_HTML.html#87,87,1435,648,1291,727,9-4-2022,11-27-35,63,depth_duration_stimuli/003129_2014-05-12_10-48-10_094959634447_rgbf000100-resize_0/003129_2014-05-12_10-48-10_094959634447_rgbf000100-resize_0-target.png,125,4.9305,3,2585,121,feet,jsons/VE125_randls_43.json,535155,700944,46,Woman
63,564366,DepthScenes,duration_manipulation_targetAtFixation,jsons/VE125_randls_43.json,http://54.235.29.9/FacialAge/BNav_EC2/DepthDuration/v2_depth_duration_MTurk/v2_DepthDuration_HTML.html#87,87,1435,648,1291,727,9-4-2022,11-27-35,64,depth_duration_stimuli/002905_2014-06-03_18-04-43_094959634447_rgbf000151-resize_2/002905_2014-06-03_18-04-43_094959634447_rgbf000151-resize_2-target.png,125,2.0295,3,2281,124,feet,jsons/VE125_randls_43.json,535155,700944,46,Woman
64,564366,DepthScenes,duration_manipulation_targetAtFixation,jsons/VE125_randls_43.json,http://54.235.29.9/FacialAge/BNav_EC2/DepthDuration/v2_depth_duration_MTurk/v2_DepthDuration_HTML.html#87,87,1435,648,1291,727,9-4-2022,11-27-35,65,depth_duration_stimuli/003423_2014-05-21_10-23-26_094959634447_rgbf002665-resize_2/003423_2014-05-21_10-23-26_094959634447_rgbf002665-resize_2-target.png,125,3.2575,3,3095,123,feet,jsons/VE125_randls_43.json,535155,700944,46,Woman
65,564366,DepthScenes,duration_manipulation_targetAtFixation,jsons/VE125_randls_43.json,http://54.235.29.9/FacialAge/BNav_EC2/DepthDuration/v2_depth_duration_MTurk/v2_DepthDuration_HTML.html#87,87,1435,648,1291,727,9-4-2022,11-27-35,66,depth_duration_stimuli/001222_2014-06-17_16-24-06_260595134347_rgbf000073-resize_0/001222_2014-06-17_16-24-06_260595134347_rgbf000073-resize-original.jpg,125,1.4385,0,3369,122,feet,jsons/VE125_randls_43.json,535155,700944,46,Woman
66,564366,DepthScenes,duration_manipulation_targetAtFixation,jsons/VE125_randls_43.json,http://54.235.29.9/FacialAge/BNav_EC2/DepthDuration/v2_depth_duration_MTurk/v2_DepthDuration_HTML.html#87,87,1435,648,1291,727,9-4-2022,11-27-35,67,depth_duration_stimuli/002272_2014-06-28_18-53-56_260595134347_rgbf000067-resize_2/002272_2014-06-28_18-53-56_260595134347_rgbf000067-resize_2-target.png,125,1.138,3,2750,114,feet,jsons/VE125_randls_43.json,535155,700944,46,Woman
67,564366,DepthScenes,duration_manipulation_targetAtFixation,jsons/VE125_randls_43.json,http://54.235.29.9/FacialAge/BNav_EC2/DepthDuration/v2_depth_duration_MTurk/v2_DepthDuration_HTML.html#87,87,1435,648,1291,727,9-4-2022,11-27-35,68,depth_duration_stimuli/001571_2014-06-20_17-21-32_260595134347_rgbf000089-resize_1/001571_2014-06-20_17-21-32_260595134347_rgbf000089-resize_1-target.png,125,1.86,2,2258,120,feet,jsons/VE125_randls_43.json,535155,700944,46,Woman
68,564366,DepthScenes,duration_manipulation_targetAtFixation,jsons/VE125_randls_43.json,http://54.235.29.9/FacialAge/BNav_EC2/DepthDuration/v2_depth_duration_MTurk/v2_DepthDuration_HTML.html#87,87,1435,648,1291,727,9-4-2022,11-27-35,69,depth_duration_stimuli/002118_2014-06-25_20-32-08_260595134347_rgbf000078-resize_1/002118_2014-06-25_20-32-08_260595134347_rgbf000078-resize_1-target.png,125,2.6460000000000004,2,3415,117,feet,jsons/VE125_randls_43.json,535155,700944,46,Woman
69,564366,DepthScenes,duration_manipulation_targetAtFixation,jsons/VE125_randls_43.json,http://54.235.29.9/FacialAge/BNav_EC2/DepthDuration/v2_depth_duration_MTurk/v2_DepthDuration_HTML.html#87,87,1435,648,1291,727,9-4-2022,11-27-35,70,depth_duration_stimuli/001516_2014-06-20_16-25-09_260595134347_rgbf000076-resize_2/001516_2014-06-20_16-25-09_260595134347_rgbf000076-resize_2-target.png,125,1.7445,2,12349,135,feet,jsons/VE125_randls_43.json,535155,700944,46,Woman
70,564366,DepthScenes,duration_manipulation_targetAtFixation,jsons/VE125_randls_43.json,http://54.235.29.9/FacialAge/BNav_EC2/DepthDuration/v2_depth_duration_MTurk/v2_DepthDuration_HTML.html#87,87,1435,648,1291,727,9-4-2022,11-27-35,71,depth_duration_stimuli/002763_2014-06-22_19-13-10_094959634447_rgbf000075-resize_4/002763_2014-06-22_19-13-10_094959634447_rgbf000075-resize_4-target.png,125,1.68375,2,2888,133,feet,jsons/VE125_randls_43.json,535155,700944,46,Woman
71,564366,DepthScenes,duration_manipulation_targetAtFixation,jsons/VE125_randls_43.json,http://54.235.29.9/FacialAge/BNav_EC2/DepthDuration/v2_depth_duration_MTurk/v2_DepthDuration_HTML.html#87,87,1435,648,1291,727,9-4-2022,11-27-35,72,depth_duration_stimuli/002209_2014-06-28_18-36-10_260595134347_rgbf000051-resize_1/002209_2014-06-28_18-36-10_260595134347_rgbf000051-resize_1-target.png,125,2.057,2,2223,120,feet,jsons/VE125_randls_43.json,535155,700944,46,Woman
72,564366,DepthScenes,duration_manipulation_targetAtFixation,jsons/VE125_randls_43.json,http://54.235.29.9/FacialAge/BNav_EC2/DepthDuration/v2_depth_duration_MTurk/v2_DepthDuration_HTML.html#87,87,1435,648,1291,727,9-4-2022,11-27-35,73,depth_duration_stimuli/001570_2014-06-20_17-21-09_260595134347_rgbf000135-resize_4/001570_2014-06-20_17-21-09_260595134347_rgbf000135-resize_4-target.png,125,4.467,3,2756,117,feet,jsons/VE125_randls_43.json,535155,700944,46,Woman
73,564366,DepthScenes,duration_manipulation_targetAtFixation,jsons/VE125_randls_43.json,http://54.235.29.9/FacialAge/BNav_EC2/DepthDuration/v2_depth_duration_MTurk/v2_DepthDuration_HTML.html#87,87,1435,648,1291,727,9-4-2022,11-27-35,74,depth_duration_stimuli/001392_2014-06-19_16-07-59_260595134347_rgbf000046-resize_1/001392_2014-06-19_16-07-59_260595134347_rgbf000046-resize_1-target.png,125,4.135,5,3112,112,feet,jsons/VE125_randls_43.json,535155,700944,46,Woman
74,564366,DepthScenes,duration_manipulation_targetAtFixation,jsons/VE125_randls_43.json,http://54.235.29.9/FacialAge/BNav_EC2/DepthDuration/v2_depth_duration_MTurk/v2_DepthDuration_HTML.html#87,87,1435,648,1291,727,9-4-2022,11-27-35,75,depth_duration_stimuli/002509_2014-06-24_13-19-22_094959634447_rgbf000077-resize_0/002509_2014-06-24_13-19-22_094959634447_rgbf000077-resize_0-target.png,125,1.3065,3,3043,134,feet,jsons/VE125_randls_43.json,535155,700944,46,Woman
75,564366,DepthScenes,duration_manipulation_targetAtFixation,jsons/VE125_randls_43.json,http://54.235.29.9/FacialAge/BNav_EC2/DepthDuration/v2_depth_duration_MTurk/v2_DepthDuration_HTML.html#87,87,1435,648,1291,727,9-4-2022,11-27-35,76,depth_duration_stimuli/003338_2014-05-20_11-01-23_094959634447_rgbf000051-resize_6/003338_2014-05-20_11-01-23_094959634447_rgbf000051-resize_6-target.png,125,1.693,2,2459,117,feet,jsons/VE125_randls_43.json,535155,700944,46,Woman
76,564366,DepthScenes,duration_manipulation_targetAtFixation,jsons/VE125_randls_43.json,http://54.235.29.9/FacialAge/BNav_EC2/DepthDuration/v2_depth_duration_MTurk/v2_DepthDuration_HTML.html#87,87,1435,648,1291,727,9-4-2022,11-27-35,77,depth_duration_stimuli/000682_2014-06-08_23-14-58_260595134347_rgbf000041-resize_5/000682_2014-06-08_23-14-58_260595134347_rgbf000041-resize_5-target.png,125,2.7239999999999998,3,2334,113,feet,jsons/VE125_randls_43.json,535155,700944,46,Woman
77,564366,DepthScenes,duration_manipulation_targetAtFixation,jsons/VE125_randls_43.json,http://54.235.29.9/FacialAge/BNav_EC2/DepthDuration/v2_depth_duration_MTurk/v2_DepthDuration_HTML.html#87,87,1435,648,1291,727,9-4-2022,11-27-35,78,depth_duration_stimuli/001650_2014-06-20_12-09-00_260595134347_rgbf000087-resize_3/001650_2014-06-20_12-09-00_260595134347_rgbf000087-resize_3-target.png,125,1.9505,3,2619,116,feet,jsons/VE125_randls_43.json,535155,700944,46,Woman
78,564366,DepthScenes,duration_manipulation_targetAtFixation,jsons/VE125_randls_43.json,http://54.235.29.9/FacialAge/BNav_EC2/DepthDuration/v2_depth_duration_MTurk/v2_DepthDuration_HTML.html#87,87,1435,648,1291,727,9-4-2022,11-27-35,79,depth_duration_stimuli/001066_2014-06-08_22-03-20_260595134347_rgbf000066-resize_4/001066_2014-06-08_22-03-20_260595134347_rgbf000066-resize_4-target.png,125,4.2330000000000005,5,3143,117,feet,jsons/VE125_randls_43.json,535155,700944,46,Woman
79,564366,DepthScenes,duration_manipulation_targetAtFixation,jsons/VE125_randls_43.json,http://54.235.29.9/FacialAge/BNav_EC2/DepthDuration/v2_depth_duration_MTurk/v2_DepthDuration_HTML.html#87,87,1435,648,1291,727,9-4-2022,11-27-35,80,depth_duration_stimuli/000742_2014-06-08_18-48-09_260595134347_rgbf000164-resize_4/000742_2014-06-08_18-48-09_260595134347_rgbf000164-resize_4-target.png,125,4.632,4,2589,125,feet,jsons/VE125_randls_43.json,535155,700944,46,Woman
80,564366,DepthScenes,duration_manipulation_targetAtFixation,jsons/VE125_randls_43.json,http://54.235.29.9/FacialAge/BNav_EC2/DepthDuration/v2_depth_duration_MTurk/v2_DepthDuration_HTML.html#87,87,1435,648,1291,727,9-4-2022,11-27-35,81,depth_duration_stimuli/002989_2014-06-15_12-25-03_094959634447_rgbf000150-resize_3/002989_2014-06-15_12-25-03_094959634447_rgbf000150-resize_3-target.png,125,4.1975,3,2696,111,feet,jsons/VE125_randls_43.json,535155,700944,46,Woman
81,564366,DepthScenes,duration_manipulation_targetAtFixation,jsons/VE125_randls_43.json,http://54.235.29.9/FacialAge/BNav_EC2/DepthDuration/v2_depth_duration_MTurk/v2_DepthDuration_HTML.html#87,87,1435,648,1291,727,9-4-2022,11-27-35,82,depth_duration_stimuli/000866_2014-06-09_20-45-42_260595134347_rgbf000139-resize_1/000866_2014-06-09_20-45-42_260595134347_rgbf000139-resize_1-target.png,125,3.2155,2,3268,115,feet,jsons/VE125_randls_43.json,535155,700944,46,Woman
82,564366,DepthScenes,duration_manipulation_targetAtFixation,jsons/VE125_randls_43.json,http://54.235.29.9/FacialAge/BNav_EC2/DepthDuration/v2_depth_duration_MTurk/v2_DepthDuration_HTML.html#87,87,1435,648,1291,727,9-4-2022,11-27-35,83,depth_duration_stimuli/001417_2014-06-19_16-25-36_260595134347_rgbf000115-resize_5/001417_2014-06-19_16-25-36_260595134347_rgbf000115-resize_5-target.png,125,4.6255,5,2627,117,feet,jsons/VE125_randls_43.json,535155,700944,46,Woman
83,564366,DepthScenes,duration_manipulation_targetAtFixation,jsons/VE125_randls_43.json,http://54.235.29.9/FacialAge/BNav_EC2/DepthDuration/v2_depth_duration_MTurk/v2_DepthDuration_HTML.html#87,87,1435,648,1291,727,9-4-2022,11-27-35,84,depth_duration_stimuli/003081_2014-06-15_15-19-16_094959634447_rgbf000150-resize_1/003081_2014-06-15_15-19-16_094959634447_rgbf000150-resize_1-target.png,125,3.9125,5,3102,134,feet,jsons/VE125_randls_43.json,535155,700944,46,Woman
84,564366,DepthScenes,duration_manipulation_targetAtFixation,jsons/VE125_randls_43.json,http://54.235.29.9/FacialAge/BNav_EC2/DepthDuration/v2_depth_duration_MTurk/v2_DepthDuration_HTML.html#87,87,1435,648,1291,727,9-4-2022,11-27-35,85,depth_duration_stimuli/001175_2014-06-17_15-45-55_260595134347_rgbf000129-resize_4/001175_2014-06-17_15-45-55_260595134347_rgbf000129-resize_4-target.png,125,4.255,6,2812,120,feet,jsons/VE125_randls_43.json,535155,700944,46,Woman
85,564366,DepthScenes,duration_manipulation_targetAtFixation,jsons/VE125_randls_43.json,http://54.235.29.9/FacialAge/BNav_EC2/DepthDuration/v2_depth_duration_MTurk/v2_DepthDuration_HTML.html#87,87,1435,648,1291,727,9-4-2022,11-27-35,86,depth_duration_stimuli/003490_2014-05-21_15-50-11_094959634447_rgbf000101-resize_3/003490_2014-05-21_15-50-11_094959634447_rgbf000101-resize_3-target.png,125,3.6445,5,2547,124,feet,jsons/VE125_randls_43.json,535155,700944,46,Woman
86,564366,DepthScenes,duration_manipulation_targetAtFixation,jsons/VE125_randls_43.json,http://54.235.29.9/FacialAge/BNav_EC2/DepthDuration/v2_depth_duration_MTurk/v2_DepthDuration_HTML.html#87,87,1435,648,1291,727,9-4-2022,11-27-35,87,depth_duration_stimuli/000788_2014-06-08_22-34-36_260595134347_rgbf000131-resize_1/000788_2014-06-08_22-34-36_260595134347_rgbf000131-resize_1-target.png,125,3.359,4,2422,124,feet,jsons/VE125_randls_43.json,535155,700944,46,Woman
87,564366,DepthScenes,duration_manipulation_targetAtFixation,jsons/VE125_randls_43.json,http://54.235.29.9/FacialAge/BNav_EC2/DepthDuration/v2_depth_duration_MTurk/v2_DepthDuration_HTML.html#87,87,1435,648,1291,727,9-4-2022,11-27-35,88,depth_duration_stimuli/001235_2014-06-17_16-37-36_260595134347_rgbf000084-resize_4/001235_2014-06-17_16-37-36_260595134347_rgbf000084-resize_4-target.png,125,3.6605,5,2909,118,feet,jsons/VE125_randls_43.json,535155,700944,46,Woman
88,564366,DepthScenes,duration_manipulation_targetAtFixation,jsons/VE125_randls_43.json,http://54.235.29.9/FacialAge/BNav_EC2/DepthDuration/v2_depth_duration_MTurk/v2_DepthDuration_HTML.html#87,87,1435,648,1291,727,9-4-2022,11-27-35,89,depth_duration_stimuli/000810_2014-06-08_17-20-01_260595134347_rgbf000105-resize_0/000810_2014-06-08_17-20-01_260595134347_rgbf000105-resize_0-target.png,125,1.4865,3,3428,116,feet,jsons/VE125_randls_43.json,535155,700944,46,Woman
89,564366,DepthScenes,duration_manipulation_targetAtFixation,jsons/VE125_randls_43.json,http://54.235.29.9/FacialAge/BNav_EC2/DepthDuration/v2_depth_duration_MTurk/v2_DepthDuration_HTML.html#87,87,1435,648,1291,727,9-4-2022,11-27-35,90,depth_duration_stimuli/001214_2014-06-17_16-13-55_260595134347_rgbf000111-resize_0/001214_2014-06-17_16-13-55_260595134347_rgbf000111-resize_0-target.png,125,2.6505,4,2251,128,feet,jsons/VE125_randls_43.json,535155,700944,46,Woman
90,564366,DepthScenes,duration_manipulation_targetAtFixation,jsons/VE125_randls_43.json,http://54.235.29.9/FacialAge/BNav_EC2/DepthDuration/v2_depth_duration_MTurk/v2_DepthDuration_HTML.html#87,87,1435,648,1291,727,9-4-2022,11-27-35,91,depth_duration_stimuli/002279_2014-06-28_18-55-32_260595134347_rgbf000040-resize_5/002279_2014-06-28_18-55-32_260595134347_rgbf000040-resize_5-target.png,125,1.5043333333333,3,2486,117,feet,jsons/VE125_randls_43.json,535155,700944,46,Woman
91,564366,DepthScenes,duration_manipulation_targetAtFixation,jsons/VE125_randls_43.json,http://54.235.29.9/FacialAge/BNav_EC2/DepthDuration/v2_depth_duration_MTurk/v2_DepthDuration_HTML.html#87,87,1435,648,1291,727,9-4-2022,11-27-35,92,depth_duration_stimuli/000635_2014-06-08_16-38-42_260595134347_rgbf000106-resize_1/000635_2014-06-08_16-38-42_260595134347_rgbf000106-resize_1-target.png,125,2.074,4,1996,118,feet,jsons/VE125_randls_43.json,535155,700944,46,Woman
92,564366,DepthScenes,duration_manipulation_targetAtFixation,jsons/VE125_randls_43.json,http://54.235.29.9/FacialAge/BNav_EC2/DepthDuration/v2_depth_duration_MTurk/v2_DepthDuration_HTML.html#87,87,1435,648,1291,727,9-4-2022,11-27-35,93,depth_duration_stimuli/001110_2014-06-15_17-25-28_260595134347_rgbf000150-resize_1/001110_2014-06-15_17-25-28_260595134347_rgbf000150-resize_1-target.png,125,1.7115,4,2095,125,feet,jsons/VE125_randls_43.json,535155,700944,46,Woman
93,564366,DepthScenes,duration_manipulation_targetAtFixation,jsons/VE125_randls_43.json,http://54.235.29.9/FacialAge/BNav_EC2/DepthDuration/v2_depth_duration_MTurk/v2_DepthDuration_HTML.html#87,87,1435,648,1291,727,9-4-2022,11-27-35,94,depth_duration_stimuli/000927_2014-06-09_16-32-30_260595134347_rgbf000123-resize_3/000927_2014-06-09_16-32-30_260595134347_rgbf000123-resize_3-target.png,125,2.6785,4,2075,119,feet,jsons/VE125_randls_43.json,535155,700944,46,Woman
94,564366,DepthScenes,duration_manipulation_targetAtFixation,jsons/VE125_randls_43.json,http://54.235.29.9/FacialAge/BNav_EC2/DepthDuration/v2_depth_duration_MTurk/v2_DepthDuration_HTML.html#87,87,1435,648,1291,727,9-4-2022,11-27-35,95,depth_duration_stimuli/002600_2014-06-24_14-27-04_094959634447_rgbf000074-resize_2/002600_2014-06-24_14-27-04_094959634447_rgbf000074-resize_2-target.png,125,2.7575,6,3059,125,feet,jsons/VE125_randls_43.json,535155,700944,46,Woman
95,564366,DepthScenes,duration_manipulation_targetAtFixation,jsons/VE125_randls_43.json,http://54.235.29.9/FacialAge/BNav_EC2/DepthDuration/v2_depth_duration_MTurk/v2_DepthDuration_HTML.html#87,87,1435,648,1291,727,9-4-2022,11-27-35,96,depth_duration_stimuli/003228_2014-05-14_13-42-35_094959634447_rgbf000101-resize_1/003228_2014-05-14_13-42-35_094959634447_rgbf000101-resize_1-target.png,125,1.9680000000000002,4,2379,124,feet,jsons/VE125_randls_43.json,535155,700944,46,Woman
96,564366,DepthScenes,duration_manipulation_targetAtFixation,jsons/VE125_randls_43.json,http://54.235.29.9/FacialAge/BNav_EC2/DepthDuration/v2_depth_duration_MTurk/v2_DepthDuration_HTML.html#87,87,1435,648,1291,727,9-4-2022,11-27-35,97,depth_duration_stimuli/000917_2014-06-09_22-45-29_260595134347_rgbf000149-resize_3/000917_2014-06-09_22-45-29_260595134347_rgbf000149-resize_3-target.png,125,4.1865,0,2945,119,feet,jsons/VE125_randls_43.json,535155,700944,46,Woman
97,564366,DepthScenes,duration_manipulation_targetAtFixation,jsons/VE125_randls_43.json,http://54.235.29.9/FacialAge/BNav_EC2/DepthDuration/v2_depth_duration_MTurk/v2_DepthDuration_HTML.html#87,87,1435,648,1291,727,9-4-2022,11-27-35,98,depth_duration_stimuli/002323_2014-06-28_20-01-54_260595134347_rgbf000051-resize_4/002323_2014-06-28_20-01-54_260595134347_rgbf000051-resize_4-target.png,125,3.7310000000000003,5,2331,117,feet,jsons/VE125_randls_43.json,535155,700944,46,Woman
98,564366,DepthScenes,duration_manipulation_targetAtFixation,jsons/VE125_randls_43.json,http://54.235.29.9/FacialAge/BNav_EC2/DepthDuration/v2_depth_duration_MTurk/v2_DepthDuration_HTML.html#87,87,1435,648,1291,727,9-4-2022,11-27-35,99,depth_duration_stimuli/001540_2014-06-20_17-01-05_260595134347_rgbf000086-resize_2/001540_2014-06-20_17-01-05_260595134347_rgbf000086-resize-original.jpg,125,1.459,0,3339,124,feet,jsons/VE125_randls_43.json,535155,700944,46,Woman
99,564366,DepthScenes,duration_manipulation_targetAtFixation,jsons/VE125_randls_43.json,http://54.235.29.9/FacialAge/BNav_EC2/DepthDuration/v2_depth_duration_MTurk/v2_DepthDuration_HTML.html#87,87,1435,648,1291,727,9-4-2022,11-27-35,100,depth_duration_stimuli/001158_2014-06-17_15-32-16_260595134347_rgbf000138-resize_2/001158_2014-06-17_15-32-16_260595134347_rgbf000138-resize_2-target.png,125,4.5315,5,3066,131,feet,jsons/VE125_randls_43.json,535155,700944,46,Woman
100,564366,DepthScenes,duration_manipulation_targetAtFixation,jsons/VE125_randls_43.json,http://54.235.29.9/FacialAge/BNav_EC2/DepthDuration/v2_depth_duration_MTurk/v2_DepthDuration_HTML.html#87,87,1435,648,1291,727,9-4-2022,11-27-35,101,depth_duration_stimuli/000556_2014-06-09_22-42-56_260595134347_rgbf000214-resize_1/000556_2014-06-09_22-42-56_260595134347_rgbf000214-resize_1-target.png,125,4.8415,6,2044,118,feet,jsons/VE125_randls_43.json,535155,700944,46,Woman
101,564366,DepthScenes,duration_manipulation_targetAtFixation,jsons/VE125_randls_43.json,http://54.235.29.9/FacialAge/BNav_EC2/DepthDuration/v2_depth_duration_MTurk/v2_DepthDuration_HTML.html#87,87,1435,648,1291,727,9-4-2022,11-27-35,102,depth_duration_stimuli/000436_2014-06-09_22-25-11_260595134347_rgbf000137-resize_1/000436_2014-06-09_22-25-11_260595134347_rgbf000137-resize_1-target.png,125,4.0705,5,1882,124,feet,jsons/VE125_randls_43.json,535155,700944,46,Woman
102,564366,DepthScenes,duration_manipulation_targetAtFixation,jsons/VE125_randls_43.json,http://54.235.29.9/FacialAge/BNav_EC2/DepthDuration/v2_depth_duration_MTurk/v2_DepthDuration_HTML.html#87,87,1435,648,1291,727,9-4-2022,11-27-35,103,depth_duration_stimuli/002444_2014-06-28_20-32-08_260595134347_rgbf000027-resize_0/002444_2014-06-28_20-32-08_260595134347_rgbf000027-resize_0-target.png,125,4.388999999999999,4,2005,113,feet,jsons/VE125_randls_43.json,535155,700944,46,Woman
103,564366,DepthScenes,duration_manipulation_targetAtFixation,jsons/VE125_randls_43.json,http://54.235.29.9/FacialAge/BNav_EC2/DepthDuration/v2_depth_duration_MTurk/v2_DepthDuration_HTML.html#87,87,1435,648,1291,727,9-4-2022,11-27-35,104,depth_duration_stimuli/001011_2014-06-08_23-18-54_260595134347_rgbf000044-resize_4/001011_2014-06-08_23-18-54_260595134347_rgbf000044-resize_4-target.png,125,2.4730000000000003,4,2059,124,feet,jsons/VE125_randls_43.json,535155,700944,46,Woman
104,564366,DepthScenes,duration_manipulation_targetAtFixation,jsons/VE125_randls_43.json,http://54.235.29.9/FacialAge/BNav_EC2/DepthDuration/v2_depth_duration_MTurk/v2_DepthDuration_HTML.html#87,87,1435,648,1291,727,9-4-2022,11-27-35,105,depth_duration_stimuli/002875_2014-06-01_15-19-00_094959634447_rgbf000151-resize_1/002875_2014-06-01_15-19-00_094959634447_rgbf000151-resize_1-target.png,125,1.9675,5,2188,113,feet,jsons/VE125_randls_43.json,535155,700944,46,Woman
105,564366,DepthScenes,duration_manipulation_targetAtFixation,jsons/VE125_randls_43.json,http://54.235.29.9/FacialAge/BNav_EC2/DepthDuration/v2_depth_duration_MTurk/v2_DepthDuration_HTML.html#87,87,1435,648,1291,727,9-4-2022,11-27-35,106,depth_duration_stimuli/003492_2014-05-21_15-50-55_094959634447_rgbf000828-resize_1/003492_2014-05-21_15-50-55_094959634447_rgbf000828-resize_1-target.png,125,4.06875,5,2463,139,feet,jsons/VE125_randls_43.json,535155,700944,46,Woman
106,564366,DepthScenes,duration_manipulation_targetAtFixation,jsons/VE125_randls_43.json,http://54.235.29.9/FacialAge/BNav_EC2/DepthDuration/v2_depth_duration_MTurk/v2_DepthDuration_HTML.html#87,87,1435,648,1291,727,9-4-2022,11-27-35,107,depth_duration_stimuli/002568_2014-06-24_13-59-21_094959634447_rgbf000062-resize_4/002568_2014-06-24_13-59-21_094959634447_rgbf000062-resize_4-target.png,125,3.015,5,1979,118,feet,jsons/VE125_randls_43.json,535155,700944,46,Woman
107,564366,DepthScenes,duration_manipulation_targetAtFixation,jsons/VE125_randls_43.json,http://54.235.29.9/FacialAge/BNav_EC2/DepthDuration/v2_depth_duration_MTurk/v2_DepthDuration_HTML.html#87,87,1435,648,1291,727,9-4-2022,11-27-35,108,depth_duration_stimuli/001164_2014-06-17_15-35-46_260595134347_rgbf000085-resize_3/001164_2014-06-17_15-35-46_260595134347_rgbf000085-resize_3-target.png,125,2.354,5,2298,123,feet,jsons/VE125_randls_43.json,535155,700944,46,Woman
108,564366,DepthScenes,duration_manipulation_targetAtFixation,jsons/VE125_randls_43.json,http://54.235.29.9/FacialAge/BNav_EC2/DepthDuration/v2_depth_duration_MTurk/v2_DepthDuration_HTML.html#87,87,1435,648,1291,727,9-4-2022,11-27-35,109,depth_duration_stimuli/001136_2014-06-17_15-19-41_260595134347_rgbf000076-resize_3/001136_2014-06-17_15-19-41_260595134347_rgbf000076-resize_3-target.png,125,1.8655,5,2044,115,feet,jsons/VE125_randls_43.json,535155,700944,46,Woman
109,564366,DepthScenes,duration_manipulation_targetAtFixation,jsons/VE125_randls_43.json,http://54.235.29.9/FacialAge/BNav_EC2/DepthDuration/v2_depth_duration_MTurk/v2_DepthDuration_HTML.html#87,87,1435,648,1291,727,9-4-2022,11-27-35,110,depth_duration_stimuli/000506_2014-06-08_23-21-00_260595134347_rgbf000070-resize_7/000506_2014-06-08_23-21-00_260595134347_rgbf000070-resize_7-target.png,125,4.0585,5,2032,110,feet,jsons/VE125_randls_43.json,535155,700944,46,Woman
110,564366,DepthScenes,duration_manipulation_targetAtFixation,jsons/VE125_randls_43.json,http://54.235.29.9/FacialAge/BNav_EC2/DepthDuration/v2_depth_duration_MTurk/v2_DepthDuration_HTML.html#87,87,1435,648,1291,727,9-4-2022,11-27-35,111,depth_duration_stimuli/003079_2014-06-15_15-18-20_094959634447_rgbf000152-resize_8/003079_2014-06-15_15-18-20_094959634447_rgbf000152-resize_8-target.png,125,2.8775,5,3302,117,feet,jsons/VE125_randls_43.json,535155,700944,46,Woman
111,564366,DepthScenes,duration_manipulation_targetAtFixation,jsons/VE125_randls_43.json,http://54.235.29.9/FacialAge/BNav_EC2/DepthDuration/v2_depth_duration_MTurk/v2_DepthDuration_HTML.html#87,87,1435,648,1291,727,9-4-2022,11-27-35,112,depth_duration_stimuli/000493_2014-06-09_21-01-18_260595134347_rgbf000196-resize_3/000493_2014-06-09_21-01-18_260595134347_rgbf000196-resize_3-target.png,125,3.44,5,2039,123,feet,jsons/VE125_randls_43.json,535155,700944,46,Woman
112,564366,DepthScenes,duration_manipulation_targetAtFixation,jsons/VE125_randls_43.json,http://54.235.29.9/FacialAge/BNav_EC2/DepthDuration/v2_depth_duration_MTurk/v2_DepthDuration_HTML.html#87,87,1435,648,1291,727,9-4-2022,11-27-35,113,depth_duration_stimuli/000191_2014-05-12_17-07-38_260595134347_rgbf000199-resize_0/000191_2014-05-12_17-07-38_260595134347_rgbf000199-resize_0-target.png,125,3.7995,5,2648,112,feet,jsons/VE125_randls_43.json,535155,700944,46,Woman
113,564366,DepthScenes,duration_manipulation_targetAtFixation,jsons/VE125_randls_43.json,http://54.235.29.9/FacialAge/BNav_EC2/DepthDuration/v2_depth_duration_MTurk/v2_DepthDuration_HTML.html#87,87,1435,648,1291,727,9-4-2022,11-27-35,114,depth_duration_stimuli/000486_2014-06-09_20-47-20_260595134347_rgbf000143-resize_2/000486_2014-06-09_20-47-20_260595134347_rgbf000143-resize_2-target.png,125,4.8325,5,2264,115,feet,jsons/VE125_randls_43.json,535155,700944,46,Woman
114,564366,DepthScenes,duration_manipulation_targetAtFixation,jsons/VE125_randls_43.json,http://54.235.29.9/FacialAge/BNav_EC2/DepthDuration/v2_depth_duration_MTurk/v2_DepthDuration_HTML.html#87,87,1435,648,1291,727,9-4-2022,11-27-35,115,depth_duration_stimuli/003083_2014-06-15_15-21-03_094959634447_rgbf000063-resize_1/003083_2014-06-15_15-21-03_094959634447_rgbf000063-resize_1-target.png,125,4.1405,5,2309,121,feet,jsons/VE125_randls_43.json,535155,700944,46,Woman
115,564366,DepthScenes,duration_manipulation_targetAtFixation,jsons/VE125_randls_43.json,http://54.235.29.9/FacialAge/BNav_EC2/DepthDuration/v2_depth_duration_MTurk/v2_DepthDuration_HTML.html#87,87,1435,648,1291,727,9-4-2022,11-27-35,116,depth_duration_stimuli/001170_2014-06-17_15-43-44_260595134347_rgbf000096-resize_6/001170_2014-06-17_15-43-44_260595134347_rgbf000096-resize-original.jpg,125,1.1909999999999998,0,2810,121,feet,jsons/VE125_randls_43.json,535155,700944,46,Woman
116,564366,DepthScenes,duration_manipulation_targetAtFixation,jsons/VE125_randls_43.json,http://54.235.29.9/FacialAge/BNav_EC2/DepthDuration/v2_depth_duration_MTurk/v2_DepthDuration_HTML.html#87,87,1435,648,1291,727,9-4-2022,11-27-35,117,depth_duration_stimuli/000469_2014-06-09_19-42-10_260595134347_rgbf000081-resize_1/000469_2014-06-09_19-42-10_260595134347_rgbf000081-resize_1-target.png,125,1.652,5,2700,121,feet,jsons/VE125_randls_43.json,535155,700944,46,Woman
117,564366,DepthScenes,duration_manipulation_targetAtFixation,jsons/VE125_randls_43.json,http://54.235.29.9/FacialAge/BNav_EC2/DepthDuration/v2_depth_duration_MTurk/v2_DepthDuration_HTML.html#87,87,1435,648,1291,727,9-4-2022,11-27-35,118,depth_duration_stimuli/000483_2014-06-09_20-41-45_260595134347_rgbf000116-resize_4/000483_2014-06-09_20-41-45_260595134347_rgbf000116-resize_4-target.png,125,1.337,4,2319,133,feet,jsons/VE125_randls_43.json,535155,700944,46,Woman
118,564366,DepthScenes,duration_manipulation_targetAtFixation,jsons/VE125_randls_43.json,http://54.235.29.9/FacialAge/BNav_EC2/DepthDuration/v2_depth_duration_MTurk/v2_DepthDuration_HTML.html#87,87,1435,648,1291,727,9-4-2022,11-27-35,119,depth_duration_stimuli/001449_2014-06-19_17-01-27_260595134347_rgbf000116-resize_2/001449_2014-06-19_17-01-27_260595134347_rgbf000116-resize_2-target.png,125,3.452,5,2291,126,feet,jsons/VE125_randls_43.json,535155,700944,46,Woman
119,564366,DepthScenes,duration_manipulation_targetAtFixation,jsons/VE125_randls_43.json,http://54.235.29.9/FacialAge/BNav_EC2/DepthDuration/v2_depth_duration_MTurk/v2_DepthDuration_HTML.html#87,87,1435,648,1291,727,9-4-2022,11-27-35,120,depth_duration_stimuli/001450_2014-06-19_17-02-03_260595134347_rgbf000203-resize_4/001450_2014-06-19_17-02-03_260595134347_rgbf000203-resize_4-target.png,125,4.0106666666667,5,2172,132,feet,jsons/VE125_randls_43.json,535155,700944,46,Woman
120,564366,DepthScenes,duration_manipulation_targetAtFixation,jsons/VE125_randls_43.json,http://54.235.29.9/FacialAge/BNav_EC2/DepthDuration/v2_depth_duration_MTurk/v2_DepthDuration_HTML.html#87,87,1435,648,1291,727,9-4-2022,11-27-35,121,depth_duration_stimuli/001244_2014-06-17_16-47-45_260595134347_rgbf000030-resize_4/001244_2014-06-17_16-47-45_260595134347_rgbf000030-resize_4-target.png,125,2.0425,5,1785,113,feet,jsons/VE125_randls_43.json,535155,700944,46,Woman
121,564366,DepthScenes,duration_manipulation_targetAtFixation,jsons/VE125_randls_43.json,http://54.235.29.9/FacialAge/BNav_EC2/DepthDuration/v2_depth_duration_MTurk/v2_DepthDuration_HTML.html#87,87,1435,648,1291,727,9-4-2022,11-27-35,122,depth_duration_stimuli/003495_2014-05-21_16-01-51_094959634447_rgbf000100-resize_3/003495_2014-05-21_16-01-51_094959634447_rgbf000100-resize_3-target.png,125,1.6255,5,2265,124,feet,jsons/VE125_randls_43.json,535155,700944,46,Woman
122,564366,DepthScenes,duration_manipulation_targetAtFixation,jsons/VE125_randls_43.json,http://54.235.29.9/FacialAge/BNav_EC2/DepthDuration/v2_depth_duration_MTurk/v2_DepthDuration_HTML.html#87,87,1435,648,1291,727,9-4-2022,11-27-35,123,depth_duration_stimuli/000009_2014-05-26_14-32-05_260595134347_rgbf000034-resize_3/000009_2014-05-26_14-32-05_260595134347_rgbf000034-resize_3-target.png,125,3.8715,5,1941,112,feet,jsons/VE125_randls_43.json,535155,700944,46,Woman
123,564366,DepthScenes,duration_manipulation_targetAtFixation,jsons/VE125_randls_43.json,http://54.235.29.9/FacialAge/BNav_EC2/DepthDuration/v2_depth_duration_MTurk/v2_DepthDuration_HTML.html#87,87,1435,648,1291,727,9-4-2022,11-27-35,124,depth_duration_stimuli/001828_2014-06-26_21-40-03_260595134347_rgbf000024-resize_0/001828_2014-06-26_21-40-03_260595134347_rgbf000024-resize_0-target.png,125,4.8260000000000005,5,2233,121,feet,jsons/VE125_randls_43.json,535155,700944,46,Woman
124,564366,DepthScenes,duration_manipulation_targetAtFixation,jsons/VE125_randls_43.json,http://54.235.29.9/FacialAge/BNav_EC2/DepthDuration/v2_depth_duration_MTurk/v2_DepthDuration_HTML.html#87,87,1435,648,1291,727,9-4-2022,11-27-35,125,depth_duration_stimuli/000522_2014-06-08_13-35-06_260595134347_rgbf000244-resize_1/000522_2014-06-08_13-35-06_260595134347_rgbf000244-resize_1-target.png,125,2.3715,4,2859,133,feet,jsons/VE125_randls_43.json,535155,700944,46,Woman
125,564366,DepthScenes,duration_manipulation_targetAtFixation,jsons/VE125_randls_43.json,http://54.235.29.9/FacialAge/BNav_EC2/DepthDuration/v2_depth_duration_MTurk/v2_DepthDuration_HTML.html#87,87,1435,648,1291,727,9-4-2022,11-27-35,126,depth_duration_stimuli/002949_2014-06-26_15-57-42_094959634447_rgbf000079-resize_1/002949_2014-06-26_15-57-42_094959634447_rgbf000079-resize_1-target.png,125,1.8915,4,2435,126,feet,jsons/VE125_randls_43.json,535155,700944,46,Woman
126,564366,DepthScenes,duration_manipulation_targetAtFixation,jsons/VE125_randls_43.json,http://54.235.29.9/FacialAge/BNav_EC2/DepthDuration/v2_depth_duration_MTurk/v2_DepthDuration_HTML.html#87,87,1435,648,1291,727,9-4-2022,11-27-35,127,depth_duration_stimuli/002043_2014-06-24_20-29-38_260595134347_rgbf000039-resize_4/002043_2014-06-24_20-29-38_260595134347_rgbf000039-resize_4-target.png,125,2.8435,5,2268,110,feet,jsons/VE125_randls_43.json,535155,700944,46,Woman
127,564366,DepthScenes,duration_manipulation_targetAtFixation,jsons/VE125_randls_43.json,http://54.235.29.9/FacialAge/BNav_EC2/DepthDuration/v2_depth_duration_MTurk/v2_DepthDuration_HTML.html#87,87,1435,648,1291,727,9-4-2022,11-27-35,128,depth_duration_stimuli/003048_2014-06-15_13-49-43_094959634447_rgbf000150-resize_1/003048_2014-06-15_13-49-43_094959634447_rgbf000150-resize_1-target.png,125,4.0035,5,3003,124,feet,jsons/VE125_randls_43.json,535155,700944,46,Woman
128,564366,DepthScenes,duration_manipulation_targetAtFixation,jsons/VE125_randls_43.json,http://54.235.29.9/FacialAge/BNav_EC2/DepthDuration/v2_depth_duration_MTurk/v2_DepthDuration_HTML.html#87,87,1435,648,1291,727,9-4-2022,11-27-35,129,depth_duration_stimuli/001133_2014-06-17_14-49-16_260595134347_rgbf000100-resize_0/001133_2014-06-17_14-49-16_260595134347_rgbf000100-resize_0-target.png,125,4.2115,5,2116,122,feet,jsons/VE125_randls_43.json,535155,700944,46,Woman
129,564366,DepthScenes,duration_manipulation_targetAtFixation,jsons/VE125_randls_43.json,http://54.235.29.9/FacialAge/BNav_EC2/DepthDuration/v2_depth_duration_MTurk/v2_DepthDuration_HTML.html#87,87,1435,648,1291,727,9-4-2022,11-27-35,130,depth_duration_stimuli/001132_2014-06-17_14-48-54_260595134347_rgbf000100-resize_2/001132_2014-06-17_14-48-54_260595134347_rgbf000100-resize_2-target.png,125,3.753,5,2139,138,feet,jsons/VE125_randls_43.json,535155,700944,46,Woman
130,564366,DepthScenes,duration_manipulation_targetAtFixation,jsons/VE125_randls_43.json,http://54.235.29.9/FacialAge/BNav_EC2/DepthDuration/v2_depth_duration_MTurk/v2_DepthDuration_HTML.html#87,87,1435,648,1291,727,9-4-2022,11-27-35,131,depth_duration_stimuli/002788_2014-06-22_19-36-03_094959634447_rgbf000088-resize_2/002788_2014-06-22_19-36-03_094959634447_rgbf000088-resize_2-target.png,125,1.6465,5,1945,122,feet,jsons/VE125_randls_43.json,535155,700944,46,Woman
131,564366,DepthScenes,duration_manipulation_targetAtFixation,jsons/VE125_randls_43.json,http://54.235.29.9/FacialAge/BNav_EC2/DepthDuration/v2_depth_duration_MTurk/v2_DepthDuration_HTML.html#87,87,1435,648,1291,727,9-4-2022,11-27-35,132,depth_duration_stimuli/000749_2014-06-08_21-55-06_260595134347_rgbf000070-resize_2/000749_2014-06-08_21-55-06_260595134347_rgbf000070-resize_2-target.png,125,2.331,5,2216,115,feet,jsons/VE125_randls_43.json,535155,700944,46,Woman
132,564366,DepthScenes,duration_manipulation_targetAtFixation,jsons/VE125_randls_43.json,http://54.235.29.9/FacialAge/BNav_EC2/DepthDuration/v2_depth_duration_MTurk/v2_DepthDuration_HTML.html#87,87,1435,648,1291,727,9-4-2022,11-27-35,133,depth_duration_stimuli/000758_2014-06-08_22-05-08_260595134347_rgbf000085-resize_0/000758_2014-06-08_22-05-08_260595134347_rgbf000085-resize_0-target.png,125,3.3810000000000002,5,2029,117,feet,jsons/VE125_randls_43.json,535155,700944,46,Woman
133,564366,DepthScenes,duration_manipulation_targetAtFixation,jsons/VE125_randls_43.json,http://54.235.29.9/FacialAge/BNav_EC2/DepthDuration/v2_depth_duration_MTurk/v2_DepthDuration_HTML.html#87,87,1435,648,1291,727,9-4-2022,11-27-35,134,depth_duration_stimuli/000854_2014-06-09_19-43-13_260595134347_rgbf000066-resize_0/000854_2014-06-09_19-43-13_260595134347_rgbf000066-resize_0-target.png,125,3.068,4,2845,131,feet,jsons/VE125_randls_43.json,535155,700944,46,Woman
134,564366,DepthScenes,duration_manipulation_targetAtFixation,jsons/VE125_randls_43.json,http://54.235.29.9/FacialAge/BNav_EC2/DepthDuration/v2_depth_duration_MTurk/v2_DepthDuration_HTML.html#87,87,1435,648,1291,727,9-4-2022,11-27-35,135,depth_duration_stimuli/002072_2014-06-24_21-48-06_260595134347_rgbf000115-resize_0/002072_2014-06-24_21-48-06_260595134347_rgbf000115-resize-original.jpg,125,4.702,0,3136,121,feet,jsons/VE125_randls_43.json,535155,700944,46,Woman
135,564366,DepthScenes,duration_manipulation_targetAtFixation,jsons/VE125_randls_43.json,http://54.235.29.9/FacialAge/BNav_EC2/DepthDuration/v2_depth_duration_MTurk/v2_DepthDuration_HTML.html#87,87,1435,648,1291,727,9-4-2022,11-27-35,136,depth_duration_stimuli/002725_2014-06-22_11-47-51_094959634447_rgbf000070-resize_1/002725_2014-06-22_11-47-51_094959634447_rgbf000070-resize_1-target.png,125,2.195,4,2675,131,feet,jsons/VE125_randls_43.json,535155,700944,46,Woman
136,564366,DepthScenes,duration_manipulation_targetAtFixation,jsons/VE125_randls_43.json,http://54.235.29.9/FacialAge/BNav_EC2/DepthDuration/v2_depth_duration_MTurk/v2_DepthDuration_HTML.html#87,87,1435,648,1291,727,9-4-2022,11-27-35,137,depth_duration_stimuli/002344_2014-06-28_20-06-29_260595134347_rgbf000030-resize_1/002344_2014-06-28_20-06-29_260595134347_rgbf000030-resize_1-target.png,125,1.5795,4,2357,114,feet,jsons/VE125_randls_43.json,535155,700944,46,Woman
137,564366,DepthScenes,duration_manipulation_targetAtFixation,jsons/VE125_randls_43.json,http://54.235.29.9/FacialAge/BNav_EC2/DepthDuration/v2_depth_duration_MTurk/v2_DepthDuration_HTML.html#87,87,1435,648,1291,727,9-4-2022,11-27-35,138,depth_duration_stimuli/001016_2014-06-09_16-16-10_260595134347_rgbf000112-resize_5/001016_2014-06-09_16-16-10_260595134347_rgbf000112-resize_5-target.png,125,1.6565,4,2048,126,feet,jsons/VE125_randls_43.json,535155,700944,46,Woman
138,564366,DepthScenes,duration_manipulation_targetAtFixation,jsons/VE125_randls_43.json,http://54.235.29.9/FacialAge/BNav_EC2/DepthDuration/v2_depth_duration_MTurk/v2_DepthDuration_HTML.html#87,87,1435,648,1291,727,9-4-2022,11-27-35,139,depth_duration_stimuli/002340_2014-06-28_20-05-46_260595134347_rgbf000113-resize_0/002340_2014-06-28_20-05-46_260595134347_rgbf000113-resize_0-target.png,125,2.4735,3,2014,117,feet,jsons/VE125_randls_43.json,535155,700944,46,Woman
139,564366,DepthScenes,duration_manipulation_targetAtFixation,jsons/VE125_randls_43.json,http://54.235.29.9/FacialAge/BNav_EC2/DepthDuration/v2_depth_duration_MTurk/v2_DepthDuration_HTML.html#87,87,1435,648,1291,727,9-4-2022,11-27-35,140,depth_duration_stimuli/002375_2014-06-28_20-13-44_260595134347_rgbf000032-resize_1/002375_2014-06-28_20-13-44_260595134347_rgbf000032-resize_1-target.png,125,4.0175,3,1908,112,feet,jsons/VE125_randls_43.json,535155,700944,46,Woman
140,564366,DepthScenes,duration_manipulation_targetAtFixation,jsons/VE125_randls_43.json,http://54.235.29.9/FacialAge/BNav_EC2/DepthDuration/v2_depth_duration_MTurk/v2_DepthDuration_HTML.html#87,87,1435,648,1291,727,9-4-2022,11-27-35,141,depth_duration_stimuli/002657_2014-06-13_15-29-54_094959634447_rgbf000150-resize_1/002657_2014-06-13_15-29-54_094959634447_rgbf000150-resize_1-target.png,125,4.919,3,1860,117,feet,jsons/VE125_randls_43.json,535155,700944,46,Woman
141,564366,DepthScenes,duration_manipulation_targetAtFixation,jsons/VE125_randls_43.json,http://54.235.29.9/FacialAge/BNav_EC2/DepthDuration/v2_depth_duration_MTurk/v2_DepthDuration_HTML.html#87,87,1435,648,1291,727,9-4-2022,11-27-35,142,depth_duration_stimuli/001199_2014-06-17_16-03-48_260595134347_rgbf000077-resize_0/001199_2014-06-17_16-03-48_260595134347_rgbf000077-resize_0-target.png,125,3.4375,4,2101,131,feet,jsons/VE125_randls_43.json,535155,700944,46,Woman
142,564366,DepthScenes,duration_manipulation_targetAtFixation,jsons/VE125_randls_43.json,http://54.235.29.9/FacialAge/BNav_EC2/DepthDuration/v2_depth_duration_MTurk/v2_DepthDuration_HTML.html#87,87,1435,648,1291,727,9-4-2022,11-27-35,143,depth_duration_stimuli/000502_2014-06-08_23-02-32_260595134347_rgbf000063-resize_4/000502_2014-06-08_23-02-32_260595134347_rgbf000063-resize_4-target.png,125,2.431,4,2107,117,feet,jsons/VE125_randls_43.json,535155,700944,46,Woman
143,564366,DepthScenes,duration_manipulation_targetAtFixation,jsons/VE125_randls_43.json,http://54.235.29.9/FacialAge/BNav_EC2/DepthDuration/v2_depth_duration_MTurk/v2_DepthDuration_HTML.html#87,87,1435,648,1291,727,9-4-2022,11-27-35,144,depth_duration_stimuli/000692_2014-06-08_13-09-42_260595134347_rgbf000199-resize_2/000692_2014-06-08_13-09-42_260595134347_rgbf000199-resize_2-target.png,125,3.661,4,2817,123,feet,jsons/VE125_randls_43.json,535155,700944,46,Woman
144,564366,DepthScenes,duration_manipulation_targetAtFixation,jsons/VE125_randls_43.json,http://54.235.29.9/FacialAge/BNav_EC2/DepthDuration/v2_depth_duration_MTurk/v2_DepthDuration_HTML.html#87,87,1435,648,1291,727,9-4-2022,11-27-35,145,depth_duration_stimuli/001094_2014-06-15_17-36-00_260595134347_rgbf000205-resize_0/001094_2014-06-15_17-36-00_260595134347_rgbf000205-resize_0-target.png,125,4.2175,4,3060,133,feet,jsons/VE125_randls_43.json,535155,700944,46,Woman
145,564366,DepthScenes,duration_manipulation_targetAtFixation,jsons/VE125_randls_43.json,http://54.235.29.9/FacialAge/BNav_EC2/DepthDuration/v2_depth_duration_MTurk/v2_DepthDuration_HTML.html#87,87,1435,648,1291,727,9-4-2022,11-27-35,146,depth_duration_stimuli/001498_2014-06-19_17-45-14_260595134347_rgbf000129-resize_4/001498_2014-06-19_17-45-14_260595134347_rgbf000129-resize-original.jpg,125,1.4075,0,2978,132,feet,jsons/VE125_randls_43.json,535155,700944,46,Woman
146,564366,DepthScenes,duration_manipulation_targetAtFixation,jsons/VE125_randls_43.json,http://54.235.29.9/FacialAge/BNav_EC2/DepthDuration/v2_depth_duration_MTurk/v2_DepthDuration_HTML.html#87,87,1435,648,1291,727,9-4-2022,11-27-35,147,depth_duration_stimuli/003534_2014-05-22_15-06-10_094959634447_rgbf000102-resize_4/003534_2014-05-22_15-06-10_094959634447_rgbf000102-resize_4-target.png,125,1.426,3,3326,110,feet,jsons/VE125_randls_43.json,535155,700944,46,Woman
147,564366,DepthScenes,duration_manipulation_targetAtFixation,jsons/VE125_randls_43.json,http://54.235.29.9/FacialAge/BNav_EC2/DepthDuration/v2_depth_duration_MTurk/v2_DepthDuration_HTML.html#87,87,1435,648,1291,727,9-4-2022,11-27-35,148,depth_duration_stimuli/002637_2014-06-24_14-51-13_094959634447_rgbf000066-resize_4/002637_2014-06-24_14-51-13_094959634447_rgbf000066-resize_4-target.png,125,1.9955,3,3735,119,feet,jsons/VE125_randls_43.json,535155,700944,46,Woman
148,564366,DepthScenes,duration_manipulation_targetAtFixation,jsons/VE125_randls_43.json,http://54.235.29.9/FacialAge/BNav_EC2/DepthDuration/v2_depth_duration_MTurk/v2_DepthDuration_HTML.html#87,87,1435,648,1291,727,9-4-2022,11-27-35,149,depth_duration_stimuli/001806_2014-06-26_20-50-20_260595134347_rgbf000091-resize_1/001806_2014-06-26_20-50-20_260595134347_rgbf000091-resize_1-target.png,125,2.7305,3,2299,134,feet,jsons/VE125_randls_43.json,535155,700944,46,Woman
149,564366,DepthScenes,duration_manipulation_targetAtFixation,jsons/VE125_randls_43.json,http://54.235.29.9/FacialAge/BNav_EC2/DepthDuration/v2_depth_duration_MTurk/v2_DepthDuration_HTML.html#87,87,1435,648,1291,727,9-4-2022,11-27-35,150,depth_duration_stimuli/001617_2014-06-20_11-35-32_260595134347_rgbf000066-resize_1/001617_2014-06-20_11-35-32_260595134347_rgbf000066-resize_1-target.png,125,3.7910000000000004,6,2550,133,feet,jsons/VE125_randls_43.json,535155,700944,46,Woman
150,564366,DepthScenes,duration_manipulation_targetAtFixation,jsons/VE125_randls_43.json,http://54.235.29.9/FacialAge/BNav_EC2/DepthDuration/v2_depth_duration_MTurk/v2_DepthDuration_HTML.html#87,87,1435,648,1291,727,9-4-2022,11-27-35,151,depth_duration_stimuli/001059_2014-06-08_21-53-27_260595134347_rgbf000061-resize_4/001059_2014-06-08_21-53-27_260595134347_rgbf000061-resize_4-target.png,125,2.4185,5,2279,134,feet,jsons/VE125_randls_43.json,535155,700944,46,Woman
151,564366,DepthScenes,duration_manipulation_targetAtFixation,jsons/VE125_randls_43.json,http://54.235.29.9/FacialAge/BNav_EC2/DepthDuration/v2_depth_duration_MTurk/v2_DepthDuration_HTML.html#87,87,1435,648,1291,727,9-4-2022,11-27-35,152,depth_duration_stimuli/001032_2014-06-08_13-23-17_260595134347_rgbf000021-resize_3/001032_2014-06-08_13-23-17_260595134347_rgbf000021-resize_3-target.png,125,3.2725,3,2503,128,feet,jsons/VE125_randls_43.json,535155,700944,46,Woman
152,564366,DepthScenes,duration_manipulation_targetAtFixation,jsons/VE125_randls_43.json,http://54.235.29.9/FacialAge/BNav_EC2/DepthDuration/v2_depth_duration_MTurk/v2_DepthDuration_HTML.html#87,87,1435,648,1291,727,9-4-2022,11-27-35,153,depth_duration_stimuli/001555_2014-06-20_17-12-10_260595134347_rgbf000065-resize_4/001555_2014-06-20_17-12-10_260595134347_rgbf000065-resize_4-target.png,125,1.633,4,2978,116,feet,jsons/VE125_randls_43.json,535155,700944,46,Woman
153,564366,DepthScenes,duration_manipulation_targetAtFixation,jsons/VE125_randls_43.json,http://54.235.29.9/FacialAge/BNav_EC2/DepthDuration/v2_depth_duration_MTurk/v2_DepthDuration_HTML.html#87,87,1435,648,1291,727,9-4-2022,11-27-35,154,depth_duration_stimuli/000103_2014-05-14_22-01-17_260595134347_rgbf000152-resize_5/000103_2014-05-14_22-01-17_260595134347_rgbf000152-resize_5-target.png,125,1.993,4,2206,130,feet,jsons/VE125_randls_43.json,535155,700944,46,Woman
154,564366,DepthScenes,duration_manipulation_targetAtFixation,jsons/VE125_randls_43.json,http://54.235.29.9/FacialAge/BNav_EC2/DepthDuration/v2_depth_duration_MTurk/v2_DepthDuration_HTML.html#87,87,1435,648,1291,727,9-4-2022,11-27-35,155,depth_duration_stimuli/002964_2014-06-08_17-46-11_094959634447_rgbf000091-resize_4/002964_2014-06-08_17-46-11_094959634447_rgbf000091-resize_4-target.png,125,1.6909999999999998,2,2510,135,feet,jsons/VE125_randls_43.json,535155,700944,46,Woman
155,564366,DepthScenes,duration_manipulation_targetAtFixation,jsons/VE125_randls_43.json,http://54.235.29.9/FacialAge/BNav_EC2/DepthDuration/v2_depth_duration_MTurk/v2_DepthDuration_HTML.html#87,87,1435,648,1291,727,9-4-2022,11-27-35,156,depth_duration_stimuli/002136_2014-06-25_21-18-03_260595134347_rgbf000109-resize_3/002136_2014-06-25_21-18-03_260595134347_rgbf000109-resize_3-target.png,125,1.9569999999999999,2,1743,115,feet,jsons/VE125_randls_43.json,535155,700944,46,Woman
156,564366,DepthScenes,duration_manipulation_targetAtFixation,jsons/VE125_randls_43.json,http://54.235.29.9/FacialAge/BNav_EC2/DepthDuration/v2_depth_duration_MTurk/v2_DepthDuration_HTML.html#87,87,1435,648,1291,727,9-4-2022,11-27-35,157,depth_duration_stimuli/002630_2014-06-24_14-47-50_094959634447_rgbf000055-resize_1/002630_2014-06-24_14-47-50_094959634447_rgbf000055-resize_1-target.png,125,3.0095,5,3802,130,feet,jsons/VE125_randls_43.json,535155,700944,46,Woman
157,564366,DepthScenes,duration_manipulation_targetAtFixation,jsons/VE125_randls_43.json,http://54.235.29.9/FacialAge/BNav_EC2/DepthDuration/v2_depth_duration_MTurk/v2_DepthDuration_HTML.html#87,87,1435,648,1291,727,9-4-2022,11-27-35,158,depth_duration_stimuli/002758_2014-06-22_19-11-20_094959634447_rgbf000128-resize_1/002758_2014-06-22_19-11-20_094959634447_rgbf000128-resize_1-target.png,125,2.555,4,2552,118,feet,jsons/VE125_randls_43.json,535155,700944,46,Woman
158,564366,DepthScenes,duration_manipulation_targetAtFixation,jsons/VE125_randls_43.json,http://54.235.29.9/FacialAge/BNav_EC2/DepthDuration/v2_depth_duration_MTurk/v2_DepthDuration_HTML.html#87,87,1435,648,1291,727,9-4-2022,11-27-35,159,depth_duration_stimuli/002039_2014-06-24_20-22-38_260595134347_rgbf000084-resize_1/002039_2014-06-24_20-22-38_260595134347_rgbf000084-resize_1-target.png,125,4.408,3,2147,127,feet,jsons/VE125_randls_43.json,535155,700944,46,Woman
159,564366,DepthScenes,duration_manipulation_targetAtFixation,jsons/VE125_randls_43.json,http://54.235.29.9/FacialAge/BNav_EC2/DepthDuration/v2_depth_duration_MTurk/v2_DepthDuration_HTML.html#87,87,1435,648,1291,727,9-4-2022,11-27-35,160,depth_duration_stimuli/002103_2014-06-25_20-00-40_260595134347_rgbf000049-resize_0/002103_2014-06-25_20-00-40_260595134347_rgbf000049-resize_0-target.png,125,4.105,3,1863,117,feet,jsons/VE125_randls_43.json,535155,700944,46,Woman
160,564366,DepthScenes,duration_manipulation_targetAtFixation,jsons/VE125_randls_43.json,http://54.235.29.9/FacialAge/BNav_EC2/DepthDuration/v2_depth_duration_MTurk/v2_DepthDuration_HTML.html#87,87,1435,648,1291,727,9-4-2022,11-27-35,161,depth_duration_stimuli/000736_2014-06-08_18-24-15_260595134347_rgbf000206-resize_3/000736_2014-06-08_18-24-15_260595134347_rgbf000206-resize_3-target.png,125,3.515,3,1839,133,feet,jsons/VE125_randls_43.json,535155,700944,46,Woman
161,564366,DepthScenes,duration_manipulation_targetAtFixation,jsons/VE125_randls_43.json,http://54.235.29.9/FacialAge/BNav_EC2/DepthDuration/v2_depth_duration_MTurk/v2_DepthDuration_HTML.html#87,87,1435,648,1291,727,9-4-2022,11-27-35,162,depth_duration_stimuli/000137_2014-05-20_17-04-49_260595134347_rgbf000120-resize_1/000137_2014-05-20_17-04-49_260595134347_rgbf000120-resize_1-target.png,125,3.786,4,2007,116,feet,jsons/VE125_randls_43.json,535155,700944,46,Woman
162,564366,DepthScenes,duration_manipulation_targetAtFixation,jsons/VE125_randls_43.json,http://54.235.29.9/FacialAge/BNav_EC2/DepthDuration/v2_depth_duration_MTurk/v2_DepthDuration_HTML.html#87,87,1435,648,1291,727,9-4-2022,11-27-35,163,depth_duration_stimuli/002570_2014-06-24_13-59-54_094959634447_rgbf000059-resize_0/002570_2014-06-24_13-59-54_094959634447_rgbf000059-resize_0-target.png,125,4.037,3,2304,116,feet,jsons/VE125_randls_43.json,535155,700944,46,Woman
163,564366,DepthScenes,duration_manipulation_targetAtFixation,jsons/VE125_randls_43.json,http://54.235.29.9/FacialAge/BNav_EC2/DepthDuration/v2_depth_duration_MTurk/v2_DepthDuration_HTML.html#87,87,1435,648,1291,727,9-4-2022,11-27-35,164,depth_duration_stimuli/002467_2014-06-28_20-38-07_260595134347_rgbf000026-resize_2/002467_2014-06-28_20-38-07_260595134347_rgbf000026-resize_2-target.png,125,4.742,4,16055,124,feet,jsons/VE125_randls_43.json,535155,700944,46,Woman
