,subjID,experimentName,versionName,sequenceName,url,selected_row,windowWidth,windowHeight,screenWidth,screenHeight,startDate,startTime,trial,stimulus,duration,actual_depth,depth_estimate,trial_RT,log_sceneDuration,unitSelection,seq_filepath,experimentTime,totalTime,age,gender
0,565053,DepthScenes,duration_manipulation_targetAtFixation,jsons/v1_VE1000_randls_69_rotated.json,http://54.235.29.9/FacialAge/BNav_EC2/DepthDuration/v2_depth_duration_MTurk/v2_DepthDuration_HTML.html#55,55,1366,768,1366,768,8-30-2022,19-47-18,1,depth_duration_stimuli/000780_2014-06-08_22-28-29_260595134347_rgbf000126-resize_1/000780_2014-06-08_22-28-29_260595134347_rgbf000126-resize_1-target.png,1000,3.3825,2,3570,998,feet,jsons/v1_VE1000_randls_69_rotated.json,741992,1039715,45,Man
1,565053,DepthScenes,duration_manipulation_targetAtFixation,jsons/v1_VE1000_randls_69_rotated.json,http://54.235.29.9/FacialAge/BNav_EC2/DepthDuration/v2_depth_duration_MTurk/v2_DepthDuration_HTML.html#55,55,1366,768,1366,768,8-30-2022,19-47-18,2,depth_duration_stimuli/002445_2014-06-28_20-32-16_260595134347_rgbf000029-resize_4/002445_2014-06-28_20-32-16_260595134347_rgbf000029-resize_4-target.png,1000,2.5315,3,6207,995,feet,jsons/v1_VE1000_randls_69_rotated.json,741992,1039715,45,Man
2,565053,DepthScenes,duration_manipulation_targetAtFixation,jsons/v1_VE1000_randls_69_rotated.json,http://54.235.29.9/FacialAge/BNav_EC2/DepthDuration/v2_depth_duration_MTurk/v2_DepthDuration_HTML.html#55,55,1366,768,1366,768,8-30-2022,19-47-18,3,depth_duration_stimuli/000691_2014-06-08_13-08-50_260595134347_rgbf000132-resize_3/000691_2014-06-08_13-08-50_260595134347_rgbf000132-resize_3-target.png,1000,4.1530000000000005,5,5432,1006,feet,jsons/v1_VE1000_randls_69_rotated.json,741992,1039715,45,Man
3,565053,DepthScenes,duration_manipulation_targetAtFixation,jsons/v1_VE1000_randls_69_rotated.json,http://54.235.29.9/FacialAge/BNav_EC2/DepthDuration/v2_depth_duration_MTurk/v2_DepthDuration_HTML.html#55,55,1366,768,1366,768,8-30-2022,19-47-18,4,depth_duration_stimuli/002213_2014-06-28_18-37-58_260595134347_rgbf000055-resize_1/002213_2014-06-28_18-37-58_260595134347_rgbf000055-resize_1-target.png,1000,3.62,5,3542,997,feet,jsons/v1_VE1000_randls_69_rotated.json,741992,1039715,45,Man
4,565053,DepthScenes,duration_manipulation_targetAtFixation,jsons/v1_VE1000_randls_69_rotated.json,http://54.235.29.9/FacialAge/BNav_EC2/DepthDuration/v2_depth_duration_MTurk/v2_DepthDuration_HTML.html#55,55,1366,768,1366,768,8-30-2022,19-47-18,5,depth_duration_stimuli/001447_2014-06-19_17-00-32_260595134347_rgbf000082-resize_5/001447_2014-06-19_17-00-32_260595134347_rgbf000082-resize_5-target.png,1000,4.13775,4,2837,999,feet,jsons/v1_VE1000_randls_69_rotated.json,741992,1039715,45,Man
5,565053,DepthScenes,duration_manipulation_targetAtFixation,jsons/v1_VE1000_randls_69_rotated.json,http://54.235.29.9/FacialAge/BNav_EC2/DepthDuration/v2_depth_duration_MTurk/v2_DepthDuration_HTML.html#55,55,1366,768,1366,768,8-30-2022,19-47-18,6,depth_duration_stimuli/000447_2014-06-08_16-15-46_260595134347_rgbf000130-resize_1/000447_2014-06-08_16-15-46_260595134347_rgbf000130-resize_1-target.png,1000,4.479,8,2855,989,feet,jsons/v1_VE1000_randls_69_rotated.json,741992,1039715,45,Man
6,565053,DepthScenes,duration_manipulation_targetAtFixation,jsons/v1_VE1000_randls_69_rotated.json,http://54.235.29.9/FacialAge/BNav_EC2/DepthDuration/v2_depth_duration_MTurk/v2_DepthDuration_HTML.html#55,55,1366,768,1366,768,8-30-2022,19-47-18,7,depth_duration_stimuli/000502_2014-06-08_23-02-32_260595134347_rgbf000063-resize_4/000502_2014-06-08_23-02-32_260595134347_rgbf000063-resize_4-target.png,1000,2.431,8,3461,999,feet,jsons/v1_VE1000_randls_69_rotated.json,741992,1039715,45,Man
7,565053,DepthScenes,duration_manipulation_targetAtFixation,jsons/v1_VE1000_randls_69_rotated.json,http://54.235.29.9/FacialAge/BNav_EC2/DepthDuration/v2_depth_duration_MTurk/v2_DepthDuration_HTML.html#55,55,1366,768,1366,768,8-30-2022,19-47-18,8,depth_duration_stimuli/001199_2014-06-17_16-03-48_260595134347_rgbf000077-resize_0/001199_2014-06-17_16-03-48_260595134347_rgbf000077-resize_0-target.png,1000,3.4375,2,4699,999,feet,jsons/v1_VE1000_randls_69_rotated.json,741992,1039715,45,Man
8,565053,DepthScenes,duration_manipulation_targetAtFixation,jsons/v1_VE1000_randls_69_rotated.json,http://54.235.29.9/FacialAge/BNav_EC2/DepthDuration/v2_depth_duration_MTurk/v2_DepthDuration_HTML.html#55,55,1366,768,1366,768,8-30-2022,19-47-18,9,depth_duration_stimuli/003129_2014-05-12_10-48-10_094959634447_rgbf000100-resize_0/003129_2014-05-12_10-48-10_094959634447_rgbf000100-resize_0-target.png,1000,4.9305,5,3201,999,feet,jsons/v1_VE1000_randls_69_rotated.json,741992,1039715,45,Man
9,565053,DepthScenes,duration_manipulation_targetAtFixation,jsons/v1_VE1000_randls_69_rotated.json,http://54.235.29.9/FacialAge/BNav_EC2/DepthDuration/v2_depth_duration_MTurk/v2_DepthDuration_HTML.html#55,55,1366,768,1366,768,8-30-2022,19-47-18,10,depth_duration_stimuli/000414_2014-06-04_19-49-13_260595134347_rgbf000044-resize_0/000414_2014-06-04_19-49-13_260595134347_rgbf000044-resize_0-target.png,1000,4.329,8,2932,1003,feet,jsons/v1_VE1000_randls_69_rotated.json,741992,1039715,45,Man
10,565053,DepthScenes,duration_manipulation_targetAtFixation,jsons/v1_VE1000_randls_69_rotated.json,http://54.235.29.9/FacialAge/BNav_EC2/DepthDuration/v2_depth_duration_MTurk/v2_DepthDuration_HTML.html#55,55,1366,768,1366,768,8-30-2022,19-47-18,11,depth_duration_stimuli/003587_2014-05-23_16-48-02_094959634447_rgbf002384-resize_2/003587_2014-05-23_16-48-02_094959634447_rgbf002384-resize_2-target.png,1000,1.357,3,3548,1001,feet,jsons/v1_VE1000_randls_69_rotated.json,741992,1039715,45,Man
11,565053,DepthScenes,duration_manipulation_targetAtFixation,jsons/v1_VE1000_randls_69_rotated.json,http://54.235.29.9/FacialAge/BNav_EC2/DepthDuration/v2_depth_duration_MTurk/v2_DepthDuration_HTML.html#55,55,1366,768,1366,768,8-30-2022,19-47-18,12,depth_duration_stimuli/001167_2014-06-17_15-38-07_260595134347_rgbf000108-resize_0/001167_2014-06-17_15-38-07_260595134347_rgbf000108-resize_0-target.png,1000,1.8505,4,3648,998,feet,jsons/v1_VE1000_randls_69_rotated.json,741992,1039715,45,Man
12,565053,DepthScenes,duration_manipulation_targetAtFixation,jsons/v1_VE1000_randls_69_rotated.json,http://54.235.29.9/FacialAge/BNav_EC2/DepthDuration/v2_depth_duration_MTurk/v2_DepthDuration_HTML.html#55,55,1366,768,1366,768,8-30-2022,19-47-18,13,depth_duration_stimuli/002637_2014-06-24_14-51-13_094959634447_rgbf000066-resize_4/002637_2014-06-24_14-51-13_094959634447_rgbf000066-resize_4-target.png,1000,1.9955,5,3516,992,feet,jsons/v1_VE1000_randls_69_rotated.json,741992,1039715,45,Man
13,565053,DepthScenes,duration_manipulation_targetAtFixation,jsons/v1_VE1000_randls_69_rotated.json,http://54.235.29.9/FacialAge/BNav_EC2/DepthDuration/v2_depth_duration_MTurk/v2_DepthDuration_HTML.html#55,55,1366,768,1366,768,8-30-2022,19-47-18,14,depth_duration_stimuli/003534_2014-05-22_15-06-10_094959634447_rgbf000102-resize_4/003534_2014-05-22_15-06-10_094959634447_rgbf000102-resize_4-target.png,1000,1.426,1,2887,1001,feet,jsons/v1_VE1000_randls_69_rotated.json,741992,1039715,45,Man
14,565053,DepthScenes,duration_manipulation_targetAtFixation,jsons/v1_VE1000_randls_69_rotated.json,http://54.235.29.9/FacialAge/BNav_EC2/DepthDuration/v2_depth_duration_MTurk/v2_DepthDuration_HTML.html#55,55,1366,768,1366,768,8-30-2022,19-47-18,15,depth_duration_stimuli/000409_2014-06-04_19-23-33_260595134347_rgbf000067-resize_0/000409_2014-06-04_19-23-33_260595134347_rgbf000067-resize_0-target.png,1000,3.7335,3,2934,1000,feet,jsons/v1_VE1000_randls_69_rotated.json,741992,1039715,45,Man
15,565053,DepthScenes,duration_manipulation_targetAtFixation,jsons/v1_VE1000_randls_69_rotated.json,http://54.235.29.9/FacialAge/BNav_EC2/DepthDuration/v2_depth_duration_MTurk/v2_DepthDuration_HTML.html#55,55,1366,768,1366,768,8-30-2022,19-47-18,16,depth_duration_stimuli/002663_2014-06-13_15-50-26_094959634447_rgbf000075-resize_1/002663_2014-06-13_15-50-26_094959634447_rgbf000075-resize_1-target.png,1000,4.7495,4,3142,994,feet,jsons/v1_VE1000_randls_69_rotated.json,741992,1039715,45,Man
16,565053,DepthScenes,duration_manipulation_targetAtFixation,jsons/v1_VE1000_randls_69_rotated.json,http://54.235.29.9/FacialAge/BNav_EC2/DepthDuration/v2_depth_duration_MTurk/v2_DepthDuration_HTML.html#55,55,1366,768,1366,768,8-30-2022,19-47-18,17,depth_duration_stimuli/000749_2014-06-08_21-55-06_260595134347_rgbf000070-resize_2/000749_2014-06-08_21-55-06_260595134347_rgbf000070-resize_2-target.png,1000,2.331,6,3356,1000,feet,jsons/v1_VE1000_randls_69_rotated.json,741992,1039715,45,Man
17,565053,DepthScenes,duration_manipulation_targetAtFixation,jsons/v1_VE1000_randls_69_rotated.json,http://54.235.29.9/FacialAge/BNav_EC2/DepthDuration/v2_depth_duration_MTurk/v2_DepthDuration_HTML.html#55,55,1366,768,1366,768,8-30-2022,19-47-18,18,depth_duration_stimuli/002788_2014-06-22_19-36-03_094959634447_rgbf000088-resize_2/002788_2014-06-22_19-36-03_094959634447_rgbf000088-resize_2-target.png,1000,1.6465,6,3008,1010,feet,jsons/v1_VE1000_randls_69_rotated.json,741992,1039715,45,Man
18,565053,DepthScenes,duration_manipulation_targetAtFixation,jsons/v1_VE1000_randls_69_rotated.json,http://54.235.29.9/FacialAge/BNav_EC2/DepthDuration/v2_depth_duration_MTurk/v2_DepthDuration_HTML.html#55,55,1366,768,1366,768,8-30-2022,19-47-18,19,depth_duration_stimuli/001498_2014-06-19_17-45-14_260595134347_rgbf000129-resize_4/001498_2014-06-19_17-45-14_260595134347_rgbf000129-resize-original.jpg,1000,1.4075,0,3036,999,feet,jsons/v1_VE1000_randls_69_rotated.json,741992,1039715,45,Man
19,565053,DepthScenes,duration_manipulation_targetAtFixation,jsons/v1_VE1000_randls_69_rotated.json,http://54.235.29.9/FacialAge/BNav_EC2/DepthDuration/v2_depth_duration_MTurk/v2_DepthDuration_HTML.html#55,55,1366,768,1366,768,8-30-2022,19-47-18,20,depth_duration_stimuli/003048_2014-06-15_13-49-43_094959634447_rgbf000150-resize_1/003048_2014-06-15_13-49-43_094959634447_rgbf000150-resize_1-target.png,1000,4.0035,8,2872,998,feet,jsons/v1_VE1000_randls_69_rotated.json,741992,1039715,45,Man
20,565053,DepthScenes,duration_manipulation_targetAtFixation,jsons/v1_VE1000_randls_69_rotated.json,http://54.235.29.9/FacialAge/BNav_EC2/DepthDuration/v2_depth_duration_MTurk/v2_DepthDuration_HTML.html#55,55,1366,768,1366,768,8-30-2022,19-47-18,21,depth_duration_stimuli/002043_2014-06-24_20-29-38_260595134347_rgbf000039-resize_4/002043_2014-06-24_20-29-38_260595134347_rgbf000039-resize_4-target.png,1000,2.8435,4,2950,996,feet,jsons/v1_VE1000_randls_69_rotated.json,741992,1039715,45,Man
21,565053,DepthScenes,duration_manipulation_targetAtFixation,jsons/v1_VE1000_randls_69_rotated.json,http://54.235.29.9/FacialAge/BNav_EC2/DepthDuration/v2_depth_duration_MTurk/v2_DepthDuration_HTML.html#55,55,1366,768,1366,768,8-30-2022,19-47-18,22,depth_duration_stimuli/000137_2014-05-20_17-04-49_260595134347_rgbf000120-resize_1/000137_2014-05-20_17-04-49_260595134347_rgbf000120-resize_1-target.png,1000,3.786,7,2771,1014,feet,jsons/v1_VE1000_randls_69_rotated.json,741992,1039715,45,Man
22,565053,DepthScenes,duration_manipulation_targetAtFixation,jsons/v1_VE1000_randls_69_rotated.json,http://54.235.29.9/FacialAge/BNav_EC2/DepthDuration/v2_depth_duration_MTurk/v2_DepthDuration_HTML.html#55,55,1366,768,1366,768,8-30-2022,19-47-18,23,depth_duration_stimuli/000736_2014-06-08_18-24-15_260595134347_rgbf000206-resize_3/000736_2014-06-08_18-24-15_260595134347_rgbf000206-resize_3-target.png,1000,3.515,3,3012,1007,feet,jsons/v1_VE1000_randls_69_rotated.json,741992,1039715,45,Man
23,565053,DepthScenes,duration_manipulation_targetAtFixation,jsons/v1_VE1000_randls_69_rotated.json,http://54.235.29.9/FacialAge/BNav_EC2/DepthDuration/v2_depth_duration_MTurk/v2_DepthDuration_HTML.html#55,55,1366,768,1366,768,8-30-2022,19-47-18,24,depth_duration_stimuli/002639_2014-06-24_14-51-37_094959634447_rgbf000074-resize_4/002639_2014-06-24_14-51-37_094959634447_rgbf000074-resize_4-target.png,1000,4.0375,6,2915,999,feet,jsons/v1_VE1000_randls_69_rotated.json,741992,1039715,45,Man
24,565053,DepthScenes,duration_manipulation_targetAtFixation,jsons/v1_VE1000_randls_69_rotated.json,http://54.235.29.9/FacialAge/BNav_EC2/DepthDuration/v2_depth_duration_MTurk/v2_DepthDuration_HTML.html#55,55,1366,768,1366,768,8-30-2022,19-47-18,25,depth_duration_stimuli/003292_2014-05-14_21-53-49_094959634447_rgbf000100-resize_2/003292_2014-05-14_21-53-49_094959634447_rgbf000100-resize_2-target.png,1000,3.4815,4,3092,1000,feet,jsons/v1_VE1000_randls_69_rotated.json,741992,1039715,45,Man
25,565053,DepthScenes,duration_manipulation_targetAtFixation,jsons/v1_VE1000_randls_69_rotated.json,http://54.235.29.9/FacialAge/BNav_EC2/DepthDuration/v2_depth_duration_MTurk/v2_DepthDuration_HTML.html#55,55,1366,768,1366,768,8-30-2022,19-47-18,26,depth_duration_stimuli/001132_2014-06-17_14-48-54_260595134347_rgbf000100-resize_2/001132_2014-06-17_14-48-54_260595134347_rgbf000100-resize_2-target.png,1000,3.753,7,2861,994,feet,jsons/v1_VE1000_randls_69_rotated.json,741992,1039715,45,Man
26,565053,DepthScenes,duration_manipulation_targetAtFixation,jsons/v1_VE1000_randls_69_rotated.json,http://54.235.29.9/FacialAge/BNav_EC2/DepthDuration/v2_depth_duration_MTurk/v2_DepthDuration_HTML.html#55,55,1366,768,1366,768,8-30-2022,19-47-18,27,depth_duration_stimuli/001133_2014-06-17_14-49-16_260595134347_rgbf000100-resize_0/001133_2014-06-17_14-49-16_260595134347_rgbf000100-resize_0-target.png,1000,4.2115,6,2939,1001,feet,jsons/v1_VE1000_randls_69_rotated.json,741992,1039715,45,Man
27,565053,DepthScenes,duration_manipulation_targetAtFixation,jsons/v1_VE1000_randls_69_rotated.json,http://54.235.29.9/FacialAge/BNav_EC2/DepthDuration/v2_depth_duration_MTurk/v2_DepthDuration_HTML.html#55,55,1366,768,1366,768,8-30-2022,19-47-18,28,depth_duration_stimuli/003081_2014-06-15_15-19-16_094959634447_rgbf000150-resize_1/003081_2014-06-15_15-19-16_094959634447_rgbf000150-resize_1-target.png,1000,3.9125,5,2963,1002,feet,jsons/v1_VE1000_randls_69_rotated.json,741992,1039715,45,Man
28,565053,DepthScenes,duration_manipulation_targetAtFixation,jsons/v1_VE1000_randls_69_rotated.json,http://54.235.29.9/FacialAge/BNav_EC2/DepthDuration/v2_depth_duration_MTurk/v2_DepthDuration_HTML.html#55,55,1366,768,1366,768,8-30-2022,19-47-18,29,depth_duration_stimuli/001417_2014-06-19_16-25-36_260595134347_rgbf000115-resize_5/001417_2014-06-19_16-25-36_260595134347_rgbf000115-resize_5-target.png,1000,4.6255,8,2772,1000,feet,jsons/v1_VE1000_randls_69_rotated.json,741992,1039715,45,Man
29,565053,DepthScenes,duration_manipulation_targetAtFixation,jsons/v1_VE1000_randls_69_rotated.json,http://54.235.29.9/FacialAge/BNav_EC2/DepthDuration/v2_depth_duration_MTurk/v2_DepthDuration_HTML.html#55,55,1366,768,1366,768,8-30-2022,19-47-18,30,depth_duration_stimuli/002072_2014-06-24_21-48-06_260595134347_rgbf000115-resize_0/002072_2014-06-24_21-48-06_260595134347_rgbf000115-resize-original.jpg,1000,4.702,0,2867,999,feet,jsons/v1_VE1000_randls_69_rotated.json,741992,1039715,45,Man
30,565053,DepthScenes,duration_manipulation_targetAtFixation,jsons/v1_VE1000_randls_69_rotated.json,http://54.235.29.9/FacialAge/BNav_EC2/DepthDuration/v2_depth_duration_MTurk/v2_DepthDuration_HTML.html#55,55,1366,768,1366,768,8-30-2022,19-47-18,31,depth_duration_stimuli/003423_2014-05-21_10-23-26_094959634447_rgbf002665-resize_2/003423_2014-05-21_10-23-26_094959634447_rgbf002665-resize_2-target.png,1000,3.2575,3,3652,991,feet,jsons/v1_VE1000_randls_69_rotated.json,741992,1039715,45,Man
31,565053,DepthScenes,duration_manipulation_targetAtFixation,jsons/v1_VE1000_randls_69_rotated.json,http://54.235.29.9/FacialAge/BNav_EC2/DepthDuration/v2_depth_duration_MTurk/v2_DepthDuration_HTML.html#55,55,1366,768,1366,768,8-30-2022,19-47-18,32,depth_duration_stimuli/002905_2014-06-03_18-04-43_094959634447_rgbf000151-resize_2/002905_2014-06-03_18-04-43_094959634447_rgbf000151-resize_2-target.png,1000,2.0295,4,2902,1000,feet,jsons/v1_VE1000_randls_69_rotated.json,741992,1039715,45,Man
32,565053,DepthScenes,duration_manipulation_targetAtFixation,jsons/v1_VE1000_randls_69_rotated.json,http://54.235.29.9/FacialAge/BNav_EC2/DepthDuration/v2_depth_duration_MTurk/v2_DepthDuration_HTML.html#55,55,1366,768,1366,768,8-30-2022,19-47-18,33,depth_duration_stimuli/002340_2014-06-28_20-05-46_260595134347_rgbf000113-resize_0/002340_2014-06-28_20-05-46_260595134347_rgbf000113-resize_0-target.png,1000,2.4735,6,3124,997,feet,jsons/v1_VE1000_randls_69_rotated.json,741992,1039715,45,Man
33,565053,DepthScenes,duration_manipulation_targetAtFixation,jsons/v1_VE1000_randls_69_rotated.json,http://54.235.29.9/FacialAge/BNav_EC2/DepthDuration/v2_depth_duration_MTurk/v2_DepthDuration_HTML.html#55,55,1366,768,1366,768,8-30-2022,19-47-18,34,depth_duration_stimuli/001016_2014-06-09_16-16-10_260595134347_rgbf000112-resize_5/001016_2014-06-09_16-16-10_260595134347_rgbf000112-resize_5-target.png,1000,1.6565,5,2820,1000,feet,jsons/v1_VE1000_randls_69_rotated.json,741992,1039715,45,Man
34,565053,DepthScenes,duration_manipulation_targetAtFixation,jsons/v1_VE1000_randls_69_rotated.json,http://54.235.29.9/FacialAge/BNav_EC2/DepthDuration/v2_depth_duration_MTurk/v2_DepthDuration_HTML.html#55,55,1366,768,1366,768,8-30-2022,19-47-18,35,depth_duration_stimuli/002414_2014-06-28_20-24-58_260595134347_rgbf000067-resize_4/002414_2014-06-28_20-24-58_260595134347_rgbf000067-resize_4-target.png,1000,4.363,9,2819,983,feet,jsons/v1_VE1000_randls_69_rotated.json,741992,1039715,45,Man
35,565053,DepthScenes,duration_manipulation_targetAtFixation,jsons/v1_VE1000_randls_69_rotated.json,http://54.235.29.9/FacialAge/BNav_EC2/DepthDuration/v2_depth_duration_MTurk/v2_DepthDuration_HTML.html#55,55,1366,768,1366,768,8-30-2022,19-47-18,36,depth_duration_stimuli/000773_2014-06-08_22-24-54_260595134347_rgbf000093-resize_1/000773_2014-06-08_22-24-54_260595134347_rgbf000093-resize_1-target.png,1000,4.973,9,3374,992,feet,jsons/v1_VE1000_randls_69_rotated.json,741992,1039715,45,Man
36,565053,DepthScenes,duration_manipulation_targetAtFixation,jsons/v1_VE1000_randls_69_rotated.json,http://54.235.29.9/FacialAge/BNav_EC2/DepthDuration/v2_depth_duration_MTurk/v2_DepthDuration_HTML.html#55,55,1366,768,1366,768,8-30-2022,19-47-18,37,depth_duration_stimuli/000483_2014-06-09_20-41-45_260595134347_rgbf000116-resize_4/000483_2014-06-09_20-41-45_260595134347_rgbf000116-resize_4-target.png,1000,1.337,7,2970,998,feet,jsons/v1_VE1000_randls_69_rotated.json,741992,1039715,45,Man
37,565053,DepthScenes,duration_manipulation_targetAtFixation,jsons/v1_VE1000_randls_69_rotated.json,http://54.235.29.9/FacialAge/BNav_EC2/DepthDuration/v2_depth_duration_MTurk/v2_DepthDuration_HTML.html#55,55,1366,768,1366,768,8-30-2022,19-47-18,38,depth_duration_stimuli/000469_2014-06-09_19-42-10_260595134347_rgbf000081-resize_1/000469_2014-06-09_19-42-10_260595134347_rgbf000081-resize_1-target.png,1000,1.652,1,3003,999,feet,jsons/v1_VE1000_randls_69_rotated.json,741992,1039715,45,Man
38,565053,DepthScenes,duration_manipulation_targetAtFixation,jsons/v1_VE1000_randls_69_rotated.json,http://54.235.29.9/FacialAge/BNav_EC2/DepthDuration/v2_depth_duration_MTurk/v2_DepthDuration_HTML.html#55,55,1366,768,1366,768,8-30-2022,19-47-18,39,depth_duration_stimuli/003079_2014-06-15_15-18-20_094959634447_rgbf000152-resize_8/003079_2014-06-15_15-18-20_094959634447_rgbf000152-resize_8-target.png,1000,2.8775,9,2751,1002,feet,jsons/v1_VE1000_randls_69_rotated.json,741992,1039715,45,Man
39,565053,DepthScenes,duration_manipulation_targetAtFixation,jsons/v1_VE1000_randls_69_rotated.json,http://54.235.29.9/FacialAge/BNav_EC2/DepthDuration/v2_depth_duration_MTurk/v2_DepthDuration_HTML.html#55,55,1366,768,1366,768,8-30-2022,19-47-18,40,depth_duration_stimuli/000506_2014-06-08_23-21-00_260595134347_rgbf000070-resize_7/000506_2014-06-08_23-21-00_260595134347_rgbf000070-resize_7-target.png,1000,4.0585,7,3098,1010,feet,jsons/v1_VE1000_randls_69_rotated.json,741992,1039715,45,Man
40,565053,DepthScenes,duration_manipulation_targetAtFixation,jsons/v1_VE1000_randls_69_rotated.json,http://54.235.29.9/FacialAge/BNav_EC2/DepthDuration/v2_depth_duration_MTurk/v2_DepthDuration_HTML.html#55,55,1366,768,1366,768,8-30-2022,19-47-18,41,depth_duration_stimuli/000457_2014-06-08_16-52-43_260595134347_rgbf000199-resize_1/000457_2014-06-08_16-52-43_260595134347_rgbf000199-resize_1-target.png,1000,3.6489999999999996,4,4131,999,feet,jsons/v1_VE1000_randls_69_rotated.json,741992,1039715,45,Man
41,565053,DepthScenes,duration_manipulation_targetAtFixation,jsons/v1_VE1000_randls_69_rotated.json,http://54.235.29.9/FacialAge/BNav_EC2/DepthDuration/v2_depth_duration_MTurk/v2_DepthDuration_HTML.html#55,55,1366,768,1366,768,8-30-2022,19-47-18,42,depth_duration_stimuli/000929_2014-06-09_16-33-19_260595134347_rgbf000139-resize_0/000929_2014-06-09_16-33-19_260595134347_rgbf000139-resize_0-target.png,1000,2.8680000000000003,3,3083,1007,feet,jsons/v1_VE1000_randls_69_rotated.json,741992,1039715,45,Man
42,565053,DepthScenes,duration_manipulation_targetAtFixation,jsons/v1_VE1000_randls_69_rotated.json,http://54.235.29.9/FacialAge/BNav_EC2/DepthDuration/v2_depth_duration_MTurk/v2_DepthDuration_HTML.html#55,55,1366,768,1366,768,8-30-2022,19-47-18,43,depth_duration_stimuli/002103_2014-06-25_20-00-40_260595134347_rgbf000049-resize_0/002103_2014-06-25_20-00-40_260595134347_rgbf000049-resize_0-target.png,1000,4.105,5,2994,1011,feet,jsons/v1_VE1000_randls_69_rotated.json,741992,1039715,45,Man
43,565053,DepthScenes,duration_manipulation_targetAtFixation,jsons/v1_VE1000_randls_69_rotated.json,http://54.235.29.9/FacialAge/BNav_EC2/DepthDuration/v2_depth_duration_MTurk/v2_DepthDuration_HTML.html#55,55,1366,768,1366,768,8-30-2022,19-47-18,44,depth_duration_stimuli/002039_2014-06-24_20-22-38_260595134347_rgbf000084-resize_1/002039_2014-06-24_20-22-38_260595134347_rgbf000084-resize_1-target.png,1000,4.408,4,3227,1000,feet,jsons/v1_VE1000_randls_69_rotated.json,741992,1039715,45,Man
44,565053,DepthScenes,duration_manipulation_targetAtFixation,jsons/v1_VE1000_randls_69_rotated.json,http://54.235.29.9/FacialAge/BNav_EC2/DepthDuration/v2_depth_duration_MTurk/v2_DepthDuration_HTML.html#55,55,1366,768,1366,768,8-30-2022,19-47-18,45,depth_duration_stimuli/003338_2014-05-20_11-01-23_094959634447_rgbf000051-resize_6/003338_2014-05-20_11-01-23_094959634447_rgbf000051-resize_6-target.png,1000,1.693,5,3396,1001,feet,jsons/v1_VE1000_randls_69_rotated.json,741992,1039715,45,Man
45,565053,DepthScenes,duration_manipulation_targetAtFixation,jsons/v1_VE1000_randls_69_rotated.json,http://54.235.29.9/FacialAge/BNav_EC2/DepthDuration/v2_depth_duration_MTurk/v2_DepthDuration_HTML.html#55,55,1366,768,1366,768,8-30-2022,19-47-18,46,depth_duration_stimuli/002509_2014-06-24_13-19-22_094959634447_rgbf000077-resize_0/002509_2014-06-24_13-19-22_094959634447_rgbf000077-resize_0-target.png,1000,1.3065,5,2819,1015,feet,jsons/v1_VE1000_randls_69_rotated.json,741992,1039715,45,Man
46,565053,DepthScenes,duration_manipulation_targetAtFixation,jsons/v1_VE1000_randls_69_rotated.json,http://54.235.29.9/FacialAge/BNav_EC2/DepthDuration/v2_depth_duration_MTurk/v2_DepthDuration_HTML.html#55,55,1366,768,1366,768,8-30-2022,19-47-18,47,depth_duration_stimuli/002344_2014-06-28_20-06-29_260595134347_rgbf000030-resize_1/002344_2014-06-28_20-06-29_260595134347_rgbf000030-resize_1-target.png,1000,1.5795,5,2562,987,feet,jsons/v1_VE1000_randls_69_rotated.json,741992,1039715,45,Man
47,565053,DepthScenes,duration_manipulation_targetAtFixation,jsons/v1_VE1000_randls_69_rotated.json,http://54.235.29.9/FacialAge/BNav_EC2/DepthDuration/v2_depth_duration_MTurk/v2_DepthDuration_HTML.html#55,55,1366,768,1366,768,8-30-2022,19-47-18,48,depth_duration_stimuli/002725_2014-06-22_11-47-51_094959634447_rgbf000070-resize_1/002725_2014-06-22_11-47-51_094959634447_rgbf000070-resize_1-target.png,1000,2.195,7,2685,1000,feet,jsons/v1_VE1000_randls_69_rotated.json,741992,1039715,45,Man
48,565053,DepthScenes,duration_manipulation_targetAtFixation,jsons/v1_VE1000_randls_69_rotated.json,http://54.235.29.9/FacialAge/BNav_EC2/DepthDuration/v2_depth_duration_MTurk/v2_DepthDuration_HTML.html#55,55,1366,768,1366,768,8-30-2022,19-47-18,49,depth_duration_stimuli/001170_2014-06-17_15-43-44_260595134347_rgbf000096-resize_6/001170_2014-06-17_15-43-44_260595134347_rgbf000096-resize-original.jpg,1000,1.1909999999999998,0,2917,1000,feet,jsons/v1_VE1000_randls_69_rotated.json,741992,1039715,45,Man
49,565053,DepthScenes,duration_manipulation_targetAtFixation,jsons/v1_VE1000_randls_69_rotated.json,http://54.235.29.9/FacialAge/BNav_EC2/DepthDuration/v2_depth_duration_MTurk/v2_DepthDuration_HTML.html#55,55,1366,768,1366,768,8-30-2022,19-47-18,50,depth_duration_stimuli/000665_2014-06-09_20-42-35_260595134347_rgbf000110-resize_1/000665_2014-06-09_20-42-35_260595134347_rgbf000110-resize_1-target.png,1000,3.057,5,3156,1005,feet,jsons/v1_VE1000_randls_69_rotated.json,741992,1039715,45,Man
50,565053,DepthScenes,duration_manipulation_targetAtFixation,jsons/v1_VE1000_randls_69_rotated.json,http://54.235.29.9/FacialAge/BNav_EC2/DepthDuration/v2_depth_duration_MTurk/v2_DepthDuration_HTML.html#55,55,1366,768,1366,768,8-30-2022,19-47-18,51,depth_duration_stimuli/001150_2014-06-17_15-27-34_260595134347_rgbf000108-resize_2/001150_2014-06-17_15-27-34_260595134347_rgbf000108-resize_2-target.png,1000,4.0325,4,4268,985,feet,jsons/v1_VE1000_randls_69_rotated.json,741992,1039715,45,Man
51,565053,DepthScenes,duration_manipulation_targetAtFixation,jsons/v1_VE1000_randls_69_rotated.json,http://54.235.29.9/FacialAge/BNav_EC2/DepthDuration/v2_depth_duration_MTurk/v2_DepthDuration_HTML.html#55,55,1366,768,1366,768,8-30-2022,19-47-18,52,depth_duration_stimuli/002678_2014-06-13_16-15-32_094959634447_rgbf000151-resize_6/002678_2014-06-13_16-15-32_094959634447_rgbf000151-resize_6-target.png,1000,2.1830000000000003,5,9976,1002,feet,jsons/v1_VE1000_randls_69_rotated.json,741992,1039715,45,Man
52,565053,DepthScenes,duration_manipulation_targetAtFixation,jsons/v1_VE1000_randls_69_rotated.json,http://54.235.29.9/FacialAge/BNav_EC2/DepthDuration/v2_depth_duration_MTurk/v2_DepthDuration_HTML.html#55,55,1366,768,1366,768,8-30-2022,19-47-18,53,depth_duration_stimuli/000368_2014-06-09_15-53-01_260595134347_rgbf000155-resize_2/000368_2014-06-09_15-53-01_260595134347_rgbf000155-resize_2-target.png,1000,2.4859999999999998,1,2637,1001,feet,jsons/v1_VE1000_randls_69_rotated.json,741992,1039715,45,Man
53,565053,DepthScenes,duration_manipulation_targetAtFixation,jsons/v1_VE1000_randls_69_rotated.json,http://54.235.29.9/FacialAge/BNav_EC2/DepthDuration/v2_depth_duration_MTurk/v2_DepthDuration_HTML.html#55,55,1366,768,1366,768,8-30-2022,19-47-18,54,depth_duration_stimuli/001392_2014-06-19_16-07-59_260595134347_rgbf000046-resize_1/001392_2014-06-19_16-07-59_260595134347_rgbf000046-resize_1-target.png,1000,4.135,8,2755,1012,feet,jsons/v1_VE1000_randls_69_rotated.json,741992,1039715,45,Man
54,565053,DepthScenes,duration_manipulation_targetAtFixation,jsons/v1_VE1000_randls_69_rotated.json,http://54.235.29.9/FacialAge/BNav_EC2/DepthDuration/v2_depth_duration_MTurk/v2_DepthDuration_HTML.html#55,55,1366,768,1366,768,8-30-2022,19-47-18,55,depth_duration_stimuli/001570_2014-06-20_17-21-09_260595134347_rgbf000135-resize_4/001570_2014-06-20_17-21-09_260595134347_rgbf000135-resize_4-target.png,1000,4.467,9,2684,994,feet,jsons/v1_VE1000_randls_69_rotated.json,741992,1039715,45,Man
55,565053,DepthScenes,duration_manipulation_targetAtFixation,jsons/v1_VE1000_randls_69_rotated.json,http://54.235.29.9/FacialAge/BNav_EC2/DepthDuration/v2_depth_duration_MTurk/v2_DepthDuration_HTML.html#55,55,1366,768,1366,768,8-30-2022,19-47-18,56,depth_duration_stimuli/003228_2014-05-14_13-42-35_094959634447_rgbf000101-resize_1/003228_2014-05-14_13-42-35_094959634447_rgbf000101-resize_1-target.png,1000,1.9680000000000002,2,2671,990,feet,jsons/v1_VE1000_randls_69_rotated.json,741992,1039715,45,Man
56,565053,DepthScenes,duration_manipulation_targetAtFixation,jsons/v1_VE1000_randls_69_rotated.json,http://54.235.29.9/FacialAge/BNav_EC2/DepthDuration/v2_depth_duration_MTurk/v2_DepthDuration_HTML.html#55,55,1366,768,1366,768,8-30-2022,19-47-18,57,depth_duration_stimuli/002600_2014-06-24_14-27-04_094959634447_rgbf000074-resize_2/002600_2014-06-24_14-27-04_094959634447_rgbf000074-resize_2-target.png,1000,2.7575,5,2958,987,feet,jsons/v1_VE1000_randls_69_rotated.json,741992,1039715,45,Man
57,565053,DepthScenes,duration_manipulation_targetAtFixation,jsons/v1_VE1000_randls_69_rotated.json,http://54.235.29.9/FacialAge/BNav_EC2/DepthDuration/v2_depth_duration_MTurk/v2_DepthDuration_HTML.html#55,55,1366,768,1366,768,8-30-2022,19-47-18,58,depth_duration_stimuli/001214_2014-06-17_16-13-55_260595134347_rgbf000111-resize_0/001214_2014-06-17_16-13-55_260595134347_rgbf000111-resize_0-target.png,1000,2.6505,5,3170,1013,feet,jsons/v1_VE1000_randls_69_rotated.json,741992,1039715,45,Man
58,565053,DepthScenes,duration_manipulation_targetAtFixation,jsons/v1_VE1000_randls_69_rotated.json,http://54.235.29.9/FacialAge/BNav_EC2/DepthDuration/v2_depth_duration_MTurk/v2_DepthDuration_HTML.html#55,55,1366,768,1366,768,8-30-2022,19-47-18,59,depth_duration_stimuli/000810_2014-06-08_17-20-01_260595134347_rgbf000105-resize_0/000810_2014-06-08_17-20-01_260595134347_rgbf000105-resize_0-target.png,1000,1.4865,2,2723,1015,feet,jsons/v1_VE1000_randls_69_rotated.json,741992,1039715,45,Man
59,565053,DepthScenes,duration_manipulation_targetAtFixation,jsons/v1_VE1000_randls_69_rotated.json,http://54.235.29.9/FacialAge/BNav_EC2/DepthDuration/v2_depth_duration_MTurk/v2_DepthDuration_HTML.html#55,55,1366,768,1366,768,8-30-2022,19-47-18,60,depth_duration_stimuli/000556_2014-06-09_22-42-56_260595134347_rgbf000214-resize_1/000556_2014-06-09_22-42-56_260595134347_rgbf000214-resize_1-target.png,1000,4.8415,5,2868,1014,feet,jsons/v1_VE1000_randls_69_rotated.json,741992,1039715,45,Man
60,565053,DepthScenes,duration_manipulation_targetAtFixation,jsons/v1_VE1000_randls_69_rotated.json,http://54.235.29.9/FacialAge/BNav_EC2/DepthDuration/v2_depth_duration_MTurk/v2_DepthDuration_HTML.html#55,55,1366,768,1366,768,8-30-2022,19-47-18,61,depth_duration_stimuli/001158_2014-06-17_15-32-16_260595134347_rgbf000138-resize_2/001158_2014-06-17_15-32-16_260595134347_rgbf000138-resize_2-target.png,1000,4.5315,8,2739,1010,feet,jsons/v1_VE1000_randls_69_rotated.json,741992,1039715,45,Man
61,565053,DepthScenes,duration_manipulation_targetAtFixation,jsons/v1_VE1000_randls_69_rotated.json,http://54.235.29.9/FacialAge/BNav_EC2/DepthDuration/v2_depth_duration_MTurk/v2_DepthDuration_HTML.html#55,55,1366,768,1366,768,8-30-2022,19-47-18,62,depth_duration_stimuli/003010_2014-06-15_12-54-35_094959634447_rgbf000112-resize_0/003010_2014-06-15_12-54-35_094959634447_rgbf000112-resize_0-target.png,1000,3.1185,7,2690,1005,feet,jsons/v1_VE1000_randls_69_rotated.json,741992,1039715,45,Man
62,565053,DepthScenes,duration_manipulation_targetAtFixation,jsons/v1_VE1000_randls_69_rotated.json,http://54.235.29.9/FacialAge/BNav_EC2/DepthDuration/v2_depth_duration_MTurk/v2_DepthDuration_HTML.html#55,55,1366,768,1366,768,8-30-2022,19-47-18,63,depth_duration_stimuli/001810_2014-06-26_20-51-35_260595134347_rgbf000040-resize_3/001810_2014-06-26_20-51-35_260595134347_rgbf000040-resize_3-target.png,1000,2.2525,1,2630,992,feet,jsons/v1_VE1000_randls_69_rotated.json,741992,1039715,45,Man
63,565053,DepthScenes,duration_manipulation_targetAtFixation,jsons/v1_VE1000_randls_69_rotated.json,http://54.235.29.9/FacialAge/BNav_EC2/DepthDuration/v2_depth_duration_MTurk/v2_DepthDuration_HTML.html#55,55,1366,768,1366,768,8-30-2022,19-47-18,64,depth_duration_stimuli/002568_2014-06-24_13-59-21_094959634447_rgbf000062-resize_4/002568_2014-06-24_13-59-21_094959634447_rgbf000062-resize_4-target.png,1000,3.015,5,2838,1000,feet,jsons/v1_VE1000_randls_69_rotated.json,741992,1039715,45,Man
64,565053,DepthScenes,duration_manipulation_targetAtFixation,jsons/v1_VE1000_randls_69_rotated.json,http://54.235.29.9/FacialAge/BNav_EC2/DepthDuration/v2_depth_duration_MTurk/v2_DepthDuration_HTML.html#55,55,1366,768,1366,768,8-30-2022,19-47-18,65,depth_duration_stimuli/003492_2014-05-21_15-50-55_094959634447_rgbf000828-resize_1/003492_2014-05-21_15-50-55_094959634447_rgbf000828-resize_1-target.png,1000,4.06875,8,2905,1000,feet,jsons/v1_VE1000_randls_69_rotated.json,741992,1039715,45,Man
65,565053,DepthScenes,duration_manipulation_targetAtFixation,jsons/v1_VE1000_randls_69_rotated.json,http://54.235.29.9/FacialAge/BNav_EC2/DepthDuration/v2_depth_duration_MTurk/v2_DepthDuration_HTML.html#55,55,1366,768,1366,768,8-30-2022,19-47-18,66,depth_duration_stimuli/001540_2014-06-20_17-01-05_260595134347_rgbf000086-resize_2/001540_2014-06-20_17-01-05_260595134347_rgbf000086-resize-original.jpg,1000,1.459,0,2519,998,feet,jsons/v1_VE1000_randls_69_rotated.json,741992,1039715,45,Man
66,565053,DepthScenes,duration_manipulation_targetAtFixation,jsons/v1_VE1000_randls_69_rotated.json,http://54.235.29.9/FacialAge/BNav_EC2/DepthDuration/v2_depth_duration_MTurk/v2_DepthDuration_HTML.html#55,55,1366,768,1366,768,8-30-2022,19-47-18,67,depth_duration_stimuli/000854_2014-06-09_19-43-13_260595134347_rgbf000066-resize_0/000854_2014-06-09_19-43-13_260595134347_rgbf000066-resize_0-target.png,1000,3.068,2,2737,995,feet,jsons/v1_VE1000_randls_69_rotated.json,741992,1039715,45,Man
67,565053,DepthScenes,duration_manipulation_targetAtFixation,jsons/v1_VE1000_randls_69_rotated.json,http://54.235.29.9/FacialAge/BNav_EC2/DepthDuration/v2_depth_duration_MTurk/v2_DepthDuration_HTML.html#55,55,1366,768,1366,768,8-30-2022,19-47-18,68,depth_duration_stimuli/000758_2014-06-08_22-05-08_260595134347_rgbf000085-resize_0/000758_2014-06-08_22-05-08_260595134347_rgbf000085-resize_0-target.png,1000,3.3810000000000002,5,2875,998,feet,jsons/v1_VE1000_randls_69_rotated.json,741992,1039715,45,Man
68,565053,DepthScenes,duration_manipulation_targetAtFixation,jsons/v1_VE1000_randls_69_rotated.json,http://54.235.29.9/FacialAge/BNav_EC2/DepthDuration/v2_depth_duration_MTurk/v2_DepthDuration_HTML.html#55,55,1366,768,1366,768,8-30-2022,19-47-18,69,depth_duration_stimuli/000109_2014-05-14_23-41-52_260595134347_rgbf000035-resize_9/000109_2014-05-14_23-41-52_260595134347_rgbf000035-resize_9-target.png,1000,1.3545,1,2494,999,feet,jsons/v1_VE1000_randls_69_rotated.json,741992,1039715,45,Man
69,565053,DepthScenes,duration_manipulation_targetAtFixation,jsons/v1_VE1000_randls_69_rotated.json,http://54.235.29.9/FacialAge/BNav_EC2/DepthDuration/v2_depth_duration_MTurk/v2_DepthDuration_HTML.html#55,55,1366,768,1366,768,8-30-2022,19-47-18,70,depth_duration_stimuli/000470_2014-06-09_19-42-40_260595134347_rgbf000094-resize_1/000470_2014-06-09_19-42-40_260595134347_rgbf000094-resize_1-target.png,1000,1.831,2,2702,1004,feet,jsons/v1_VE1000_randls_69_rotated.json,741992,1039715,45,Man
70,565053,DepthScenes,duration_manipulation_targetAtFixation,jsons/v1_VE1000_randls_69_rotated.json,http://54.235.29.9/FacialAge/BNav_EC2/DepthDuration/v2_depth_duration_MTurk/v2_DepthDuration_HTML.html#55,55,1366,768,1366,768,8-30-2022,19-47-18,71,depth_duration_stimuli/002444_2014-06-28_20-32-08_260595134347_rgbf000027-resize_0/002444_2014-06-28_20-32-08_260595134347_rgbf000027-resize_0-target.png,1000,4.388999999999999,6,2668,995,feet,jsons/v1_VE1000_randls_69_rotated.json,741992,1039715,45,Man
71,565053,DepthScenes,duration_manipulation_targetAtFixation,jsons/v1_VE1000_randls_69_rotated.json,http://54.235.29.9/FacialAge/BNav_EC2/DepthDuration/v2_depth_duration_MTurk/v2_DepthDuration_HTML.html#55,55,1366,768,1366,768,8-30-2022,19-47-18,72,depth_duration_stimuli/000436_2014-06-09_22-25-11_260595134347_rgbf000137-resize_1/000436_2014-06-09_22-25-11_260595134347_rgbf000137-resize_1-target.png,1000,4.0705,8,2698,1000,feet,jsons/v1_VE1000_randls_69_rotated.json,741992,1039715,45,Man
72,565053,DepthScenes,duration_manipulation_targetAtFixation,jsons/v1_VE1000_randls_69_rotated.json,http://54.235.29.9/FacialAge/BNav_EC2/DepthDuration/v2_depth_duration_MTurk/v2_DepthDuration_HTML.html#55,55,1366,768,1366,768,8-30-2022,19-47-18,73,depth_duration_stimuli/001136_2014-06-17_15-19-41_260595134347_rgbf000076-resize_3/001136_2014-06-17_15-19-41_260595134347_rgbf000076-resize_3-target.png,1000,1.8655,5,3019,1014,feet,jsons/v1_VE1000_randls_69_rotated.json,741992,1039715,45,Man
73,565053,DepthScenes,duration_manipulation_targetAtFixation,jsons/v1_VE1000_randls_69_rotated.json,http://54.235.29.9/FacialAge/BNav_EC2/DepthDuration/v2_depth_duration_MTurk/v2_DepthDuration_HTML.html#55,55,1366,768,1366,768,8-30-2022,19-47-18,74,depth_duration_stimuli/001164_2014-06-17_15-35-46_260595134347_rgbf000085-resize_3/001164_2014-06-17_15-35-46_260595134347_rgbf000085-resize_3-target.png,1000,2.354,4,3138,1007,feet,jsons/v1_VE1000_randls_69_rotated.json,741992,1039715,45,Man
74,565053,DepthScenes,duration_manipulation_targetAtFixation,jsons/v1_VE1000_randls_69_rotated.json,http://54.235.29.9/FacialAge/BNav_EC2/DepthDuration/v2_depth_duration_MTurk/v2_DepthDuration_HTML.html#55,55,1366,768,1366,768,8-30-2022,19-47-18,75,depth_duration_stimuli/001650_2014-06-20_12-09-00_260595134347_rgbf000087-resize_3/001650_2014-06-20_12-09-00_260595134347_rgbf000087-resize_3-target.png,1000,1.9505,1,2823,999,feet,jsons/v1_VE1000_randls_69_rotated.json,741992,1039715,45,Man
75,565053,DepthScenes,duration_manipulation_targetAtFixation,jsons/v1_VE1000_randls_69_rotated.json,http://54.235.29.9/FacialAge/BNav_EC2/DepthDuration/v2_depth_duration_MTurk/v2_DepthDuration_HTML.html#55,55,1366,768,1366,768,8-30-2022,19-47-18,76,depth_duration_stimuli/000682_2014-06-08_23-14-58_260595134347_rgbf000041-resize_5/000682_2014-06-08_23-14-58_260595134347_rgbf000041-resize_5-target.png,1000,2.7239999999999998,4,3141,995,feet,jsons/v1_VE1000_randls_69_rotated.json,741992,1039715,45,Man
76,565053,DepthScenes,duration_manipulation_targetAtFixation,jsons/v1_VE1000_randls_69_rotated.json,http://54.235.29.9/FacialAge/BNav_EC2/DepthDuration/v2_depth_duration_MTurk/v2_DepthDuration_HTML.html#55,55,1366,768,1366,768,8-30-2022,19-47-18,77,depth_duration_stimuli/000549_2014-06-08_22-10-24_260595134347_rgbf000247-resize_3/000549_2014-06-08_22-10-24_260595134347_rgbf000247-resize_3-target.png,1000,1.841,3,2874,998,feet,jsons/v1_VE1000_randls_69_rotated.json,741992,1039715,45,Man
77,565053,DepthScenes,duration_manipulation_targetAtFixation,jsons/v1_VE1000_randls_69_rotated.json,http://54.235.29.9/FacialAge/BNav_EC2/DepthDuration/v2_depth_duration_MTurk/v2_DepthDuration_HTML.html#55,55,1366,768,1366,768,8-30-2022,19-47-18,78,depth_duration_stimuli/001055_2014-06-08_18-45-35_260595134347_rgbf000111-resize_4/001055_2014-06-08_18-45-35_260595134347_rgbf000111-resize_4-target.png,1000,2.4290000000000003,3,2996,984,feet,jsons/v1_VE1000_randls_69_rotated.json,741992,1039715,45,Man
78,565053,DepthScenes,duration_manipulation_targetAtFixation,jsons/v1_VE1000_randls_69_rotated.json,http://54.235.29.9/FacialAge/BNav_EC2/DepthDuration/v2_depth_duration_MTurk/v2_DepthDuration_HTML.html#55,55,1366,768,1366,768,8-30-2022,19-47-18,79,depth_duration_stimuli/002209_2014-06-28_18-36-10_260595134347_rgbf000051-resize_1/002209_2014-06-28_18-36-10_260595134347_rgbf000051-resize_1-target.png,1000,2.057,4,2940,999,feet,jsons/v1_VE1000_randls_69_rotated.json,741992,1039715,45,Man
79,565053,DepthScenes,duration_manipulation_targetAtFixation,jsons/v1_VE1000_randls_69_rotated.json,http://54.235.29.9/FacialAge/BNav_EC2/DepthDuration/v2_depth_duration_MTurk/v2_DepthDuration_HTML.html#55,55,1366,768,1366,768,8-30-2022,19-47-18,80,depth_duration_stimuli/002763_2014-06-22_19-13-10_094959634447_rgbf000075-resize_4/002763_2014-06-22_19-13-10_094959634447_rgbf000075-resize_4-target.png,1000,1.68375,3,2943,995,feet,jsons/v1_VE1000_randls_69_rotated.json,741992,1039715,45,Man
80,565053,DepthScenes,duration_manipulation_targetAtFixation,jsons/v1_VE1000_randls_69_rotated.json,http://54.235.29.9/FacialAge/BNav_EC2/DepthDuration/v2_depth_duration_MTurk/v2_DepthDuration_HTML.html#55,55,1366,768,1366,768,8-30-2022,19-47-18,81,depth_duration_stimuli/001032_2014-06-08_13-23-17_260595134347_rgbf000021-resize_3/001032_2014-06-08_13-23-17_260595134347_rgbf000021-resize_3-target.png,1000,3.2725,4,12489,1014,feet,jsons/v1_VE1000_randls_69_rotated.json,741992,1039715,45,Man
81,565053,DepthScenes,duration_manipulation_targetAtFixation,jsons/v1_VE1000_randls_69_rotated.json,http://54.235.29.9/FacialAge/BNav_EC2/DepthDuration/v2_depth_duration_MTurk/v2_DepthDuration_HTML.html#55,55,1366,768,1366,768,8-30-2022,19-47-18,82,depth_duration_stimuli/001059_2014-06-08_21-53-27_260595134347_rgbf000061-resize_4/001059_2014-06-08_21-53-27_260595134347_rgbf000061-resize_4-target.png,1000,2.4185,6,3129,1000,feet,jsons/v1_VE1000_randls_69_rotated.json,741992,1039715,45,Man
82,565053,DepthScenes,duration_manipulation_targetAtFixation,jsons/v1_VE1000_randls_69_rotated.json,http://54.235.29.9/FacialAge/BNav_EC2/DepthDuration/v2_depth_duration_MTurk/v2_DepthDuration_HTML.html#55,55,1366,768,1366,768,8-30-2022,19-47-18,83,depth_duration_stimuli/000734_2014-06-08_17-39-11_260595134347_rgbf000128-resize_2/000734_2014-06-08_17-39-11_260595134347_rgbf000128-resize_2-target.png,1000,4.098,4,3003,1010,feet,jsons/v1_VE1000_randls_69_rotated.json,741992,1039715,45,Man
83,565053,DepthScenes,duration_manipulation_targetAtFixation,jsons/v1_VE1000_randls_69_rotated.json,http://54.235.29.9/FacialAge/BNav_EC2/DepthDuration/v2_depth_duration_MTurk/v2_DepthDuration_HTML.html#55,55,1366,768,1366,768,8-30-2022,19-47-18,84,depth_duration_stimuli/000739_2014-06-08_18-45-58_260595134347_rgbf000068-resize_1/000739_2014-06-08_18-45-58_260595134347_rgbf000068-resize_1-target.png,1000,3.534,5,3061,1009,feet,jsons/v1_VE1000_randls_69_rotated.json,741992,1039715,45,Man
84,565053,DepthScenes,duration_manipulation_targetAtFixation,jsons/v1_VE1000_randls_69_rotated.json,http://54.235.29.9/FacialAge/BNav_EC2/DepthDuration/v2_depth_duration_MTurk/v2_DepthDuration_HTML.html#55,55,1366,768,1366,768,8-30-2022,19-47-18,85,depth_duration_stimuli/002199_2014-06-28_18-33-56_260595134347_rgbf000074-resize_0/002199_2014-06-28_18-33-56_260595134347_rgbf000074-resize_0-target.png,1000,1.996,4,2891,1000,feet,jsons/v1_VE1000_randls_69_rotated.json,741992,1039715,45,Man
85,565053,DepthScenes,duration_manipulation_targetAtFixation,jsons/v1_VE1000_randls_69_rotated.json,http://54.235.29.9/FacialAge/BNav_EC2/DepthDuration/v2_depth_duration_MTurk/v2_DepthDuration_HTML.html#55,55,1366,768,1366,768,8-30-2022,19-47-18,86,depth_duration_stimuli/001056_2014-06-08_18-46-44_260595134347_rgbf000068-resize_0/001056_2014-06-08_18-46-44_260595134347_rgbf000068-resize_0-target.png,1000,2.6625,4,6225,999,feet,jsons/v1_VE1000_randls_69_rotated.json,741992,1039715,45,Man
86,565053,DepthScenes,duration_manipulation_targetAtFixation,jsons/v1_VE1000_randls_69_rotated.json,http://54.235.29.9/FacialAge/BNav_EC2/DepthDuration/v2_depth_duration_MTurk/v2_DepthDuration_HTML.html#55,55,1366,768,1366,768,8-30-2022,19-47-18,87,depth_duration_stimuli/003490_2014-05-21_15-50-11_094959634447_rgbf000101-resize_3/003490_2014-05-21_15-50-11_094959634447_rgbf000101-resize_3-target.png,1000,3.6445,4,7300,999,feet,jsons/v1_VE1000_randls_69_rotated.json,741992,1039715,45,Man
87,565053,DepthScenes,duration_manipulation_targetAtFixation,jsons/v1_VE1000_randls_69_rotated.json,http://54.235.29.9/FacialAge/BNav_EC2/DepthDuration/v2_depth_duration_MTurk/v2_DepthDuration_HTML.html#55,55,1366,768,1366,768,8-30-2022,19-47-18,88,depth_duration_stimuli/001175_2014-06-17_15-45-55_260595134347_rgbf000129-resize_4/001175_2014-06-17_15-45-55_260595134347_rgbf000129-resize_4-target.png,1000,4.255,4,3592,1004,feet,jsons/v1_VE1000_randls_69_rotated.json,741992,1039715,45,Man
88,565053,DepthScenes,duration_manipulation_targetAtFixation,jsons/v1_VE1000_randls_69_rotated.json,http://54.235.29.9/FacialAge/BNav_EC2/DepthDuration/v2_depth_duration_MTurk/v2_DepthDuration_HTML.html#55,55,1366,768,1366,768,8-30-2022,19-47-18,89,depth_duration_stimuli/002657_2014-06-13_15-29-54_094959634447_rgbf000150-resize_1/002657_2014-06-13_15-29-54_094959634447_rgbf000150-resize_1-target.png,1000,4.919,3,3071,988,feet,jsons/v1_VE1000_randls_69_rotated.json,741992,1039715,45,Man
89,565053,DepthScenes,duration_manipulation_targetAtFixation,jsons/v1_VE1000_randls_69_rotated.json,http://54.235.29.9/FacialAge/BNav_EC2/DepthDuration/v2_depth_duration_MTurk/v2_DepthDuration_HTML.html#55,55,1366,768,1366,768,8-30-2022,19-47-18,90,depth_duration_stimuli/002375_2014-06-28_20-13-44_260595134347_rgbf000032-resize_1/002375_2014-06-28_20-13-44_260595134347_rgbf000032-resize_1-target.png,1000,4.0175,4,2914,999,feet,jsons/v1_VE1000_randls_69_rotated.json,741992,1039715,45,Man
90,565053,DepthScenes,duration_manipulation_targetAtFixation,jsons/v1_VE1000_randls_69_rotated.json,http://54.235.29.9/FacialAge/BNav_EC2/DepthDuration/v2_depth_duration_MTurk/v2_DepthDuration_HTML.html#55,55,1366,768,1366,768,8-30-2022,19-47-18,91,depth_duration_stimuli/002425_2014-06-28_20-27-29_260595134347_rgbf000031-resize_8/002425_2014-06-28_20-27-29_260595134347_rgbf000031-resize_8-target.png,1000,3.8960000000000004,5,5432,996,feet,jsons/v1_VE1000_randls_69_rotated.json,741992,1039715,45,Man
91,565053,DepthScenes,duration_manipulation_targetAtFixation,jsons/v1_VE1000_randls_69_rotated.json,http://54.235.29.9/FacialAge/BNav_EC2/DepthDuration/v2_depth_duration_MTurk/v2_DepthDuration_HTML.html#55,55,1366,768,1366,768,8-30-2022,19-47-18,92,depth_duration_stimuli/000642_2014-06-08_16-59-25_260595134347_rgbf000098-resize_2/000642_2014-06-08_16-59-25_260595134347_rgbf000098-resize_2-target.png,1000,2.8815,3,3137,994,feet,jsons/v1_VE1000_randls_69_rotated.json,741992,1039715,45,Man
92,565053,DepthScenes,duration_manipulation_targetAtFixation,jsons/v1_VE1000_randls_69_rotated.json,http://54.235.29.9/FacialAge/BNav_EC2/DepthDuration/v2_depth_duration_MTurk/v2_DepthDuration_HTML.html#55,55,1366,768,1366,768,8-30-2022,19-47-18,93,depth_duration_stimuli/001450_2014-06-19_17-02-03_260595134347_rgbf000203-resize_4/001450_2014-06-19_17-02-03_260595134347_rgbf000203-resize_4-target.png,1000,4.0106666666667,5,3228,995,feet,jsons/v1_VE1000_randls_69_rotated.json,741992,1039715,45,Man
93,565053,DepthScenes,duration_manipulation_targetAtFixation,jsons/v1_VE1000_randls_69_rotated.json,http://54.235.29.9/FacialAge/BNav_EC2/DepthDuration/v2_depth_duration_MTurk/v2_DepthDuration_HTML.html#55,55,1366,768,1366,768,8-30-2022,19-47-18,94,depth_duration_stimuli/001449_2014-06-19_17-01-27_260595134347_rgbf000116-resize_2/001449_2014-06-19_17-01-27_260595134347_rgbf000116-resize_2-target.png,1000,3.452,4,2830,1008,feet,jsons/v1_VE1000_randls_69_rotated.json,741992,1039715,45,Man
94,565053,DepthScenes,duration_manipulation_targetAtFixation,jsons/v1_VE1000_randls_69_rotated.json,http://54.235.29.9/FacialAge/BNav_EC2/DepthDuration/v2_depth_duration_MTurk/v2_DepthDuration_HTML.html#55,55,1366,768,1366,768,8-30-2022,19-47-18,95,depth_duration_stimuli/000709_2014-06-08_13-51-55_260595134347_rgbf000068-resize_3/000709_2014-06-08_13-51-55_260595134347_rgbf000068-resize_3-target.png,1000,1.8030000000000002,3,3173,986,feet,jsons/v1_VE1000_randls_69_rotated.json,741992,1039715,45,Man
95,565053,DepthScenes,duration_manipulation_targetAtFixation,jsons/v1_VE1000_randls_69_rotated.json,http://54.235.29.9/FacialAge/BNav_EC2/DepthDuration/v2_depth_duration_MTurk/v2_DepthDuration_HTML.html#55,55,1366,768,1366,768,8-30-2022,19-47-18,96,depth_duration_stimuli/002057_2014-06-24_21-00-13_260595134347_rgbf000120-resize_1/002057_2014-06-24_21-00-13_260595134347_rgbf000120-resize_1-target.png,1000,2.967,4,3981,1003,feet,jsons/v1_VE1000_randls_69_rotated.json,741992,1039715,45,Man
96,565053,DepthScenes,duration_manipulation_targetAtFixation,jsons/v1_VE1000_randls_69_rotated.json,http://54.235.29.9/FacialAge/BNav_EC2/DepthDuration/v2_depth_duration_MTurk/v2_DepthDuration_HTML.html#55,55,1366,768,1366,768,8-30-2022,19-47-18,97,depth_duration_stimuli/002949_2014-06-26_15-57-42_094959634447_rgbf000079-resize_1/002949_2014-06-26_15-57-42_094959634447_rgbf000079-resize_1-target.png,1000,1.8915,4,17250,1007,feet,jsons/v1_VE1000_randls_69_rotated.json,741992,1039715,45,Man
97,565053,DepthScenes,duration_manipulation_targetAtFixation,jsons/v1_VE1000_randls_69_rotated.json,http://54.235.29.9/FacialAge/BNav_EC2/DepthDuration/v2_depth_duration_MTurk/v2_DepthDuration_HTML.html#55,55,1366,768,1366,768,8-30-2022,19-47-18,98,depth_duration_stimuli/000522_2014-06-08_13-35-06_260595134347_rgbf000244-resize_1/000522_2014-06-08_13-35-06_260595134347_rgbf000244-resize_1-target.png,1000,2.3715,3,4151,1006,feet,jsons/v1_VE1000_randls_69_rotated.json,741992,1039715,45,Man
98,565053,DepthScenes,duration_manipulation_targetAtFixation,jsons/v1_VE1000_randls_69_rotated.json,http://54.235.29.9/FacialAge/BNav_EC2/DepthDuration/v2_depth_duration_MTurk/v2_DepthDuration_HTML.html#55,55,1366,768,1366,768,8-30-2022,19-47-18,99,depth_duration_stimuli/001222_2014-06-17_16-24-06_260595134347_rgbf000073-resize_0/001222_2014-06-17_16-24-06_260595134347_rgbf000073-resize-original.jpg,1000,1.4385,0,2542,1009,feet,jsons/v1_VE1000_randls_69_rotated.json,741992,1039715,45,Man
99,565053,DepthScenes,duration_manipulation_targetAtFixation,jsons/v1_VE1000_randls_69_rotated.json,http://54.235.29.9/FacialAge/BNav_EC2/DepthDuration/v2_depth_duration_MTurk/v2_DepthDuration_HTML.html#55,55,1366,768,1366,768,8-30-2022,19-47-18,100,depth_duration_stimuli/001235_2014-06-17_16-37-36_260595134347_rgbf000084-resize_4/001235_2014-06-17_16-37-36_260595134347_rgbf000084-resize_4-target.png,1000,3.6605,4,4089,1005,feet,jsons/v1_VE1000_randls_69_rotated.json,741992,1039715,45,Man
100,565053,DepthScenes,duration_manipulation_targetAtFixation,jsons/v1_VE1000_randls_69_rotated.json,http://54.235.29.9/FacialAge/BNav_EC2/DepthDuration/v2_depth_duration_MTurk/v2_DepthDuration_HTML.html#55,55,1366,768,1366,768,8-30-2022,19-47-18,101,depth_duration_stimuli/000788_2014-06-08_22-34-36_260595134347_rgbf000131-resize_1/000788_2014-06-08_22-34-36_260595134347_rgbf000131-resize_1-target.png,1000,3.359,3,2702,999,feet,jsons/v1_VE1000_randls_69_rotated.json,741992,1039715,45,Man
101,565053,DepthScenes,duration_manipulation_targetAtFixation,jsons/v1_VE1000_randls_69_rotated.json,http://54.235.29.9/FacialAge/BNav_EC2/DepthDuration/v2_depth_duration_MTurk/v2_DepthDuration_HTML.html#55,55,1366,768,1366,768,8-30-2022,19-47-18,102,depth_duration_stimuli/000191_2014-05-12_17-07-38_260595134347_rgbf000199-resize_0/000191_2014-05-12_17-07-38_260595134347_rgbf000199-resize_0-target.png,1000,3.7995,9,3145,995,feet,jsons/v1_VE1000_randls_69_rotated.json,741992,1039715,45,Man
102,565053,DepthScenes,duration_manipulation_targetAtFixation,jsons/v1_VE1000_randls_69_rotated.json,http://54.235.29.9/FacialAge/BNav_EC2/DepthDuration/v2_depth_duration_MTurk/v2_DepthDuration_HTML.html#55,55,1366,768,1366,768,8-30-2022,19-47-18,103,depth_duration_stimuli/000493_2014-06-09_21-01-18_260595134347_rgbf000196-resize_3/000493_2014-06-09_21-01-18_260595134347_rgbf000196-resize_3-target.png,1000,3.44,5,3998,1000,feet,jsons/v1_VE1000_randls_69_rotated.json,741992,1039715,45,Man
103,565053,DepthScenes,duration_manipulation_targetAtFixation,jsons/v1_VE1000_randls_69_rotated.json,http://54.235.29.9/FacialAge/BNav_EC2/DepthDuration/v2_depth_duration_MTurk/v2_DepthDuration_HTML.html#55,55,1366,768,1366,768,8-30-2022,19-47-18,104,depth_duration_stimuli/000742_2014-06-08_18-48-09_260595134347_rgbf000164-resize_4/000742_2014-06-08_18-48-09_260595134347_rgbf000164-resize_4-target.png,1000,4.632,9,4047,1005,feet,jsons/v1_VE1000_randls_69_rotated.json,741992,1039715,45,Man
104,565053,DepthScenes,duration_manipulation_targetAtFixation,jsons/v1_VE1000_randls_69_rotated.json,http://54.235.29.9/FacialAge/BNav_EC2/DepthDuration/v2_depth_duration_MTurk/v2_DepthDuration_HTML.html#55,55,1366,768,1366,768,8-30-2022,19-47-18,105,depth_duration_stimuli/001066_2014-06-08_22-03-20_260595134347_rgbf000066-resize_4/001066_2014-06-08_22-03-20_260595134347_rgbf000066-resize_4-target.png,1000,4.2330000000000005,4,2692,1000,feet,jsons/v1_VE1000_randls_69_rotated.json,741992,1039715,45,Man
105,565053,DepthScenes,duration_manipulation_targetAtFixation,jsons/v1_VE1000_randls_69_rotated.json,http://54.235.29.9/FacialAge/BNav_EC2/DepthDuration/v2_depth_duration_MTurk/v2_DepthDuration_HTML.html#55,55,1366,768,1366,768,8-30-2022,19-47-18,106,depth_duration_stimuli/000677_2014-06-08_23-10-32_260595134347_rgbf000158-resize_6/000677_2014-06-08_23-10-32_260595134347_rgbf000158-resize_6-target.png,1000,3.556,4,3029,1006,feet,jsons/v1_VE1000_randls_69_rotated.json,741992,1039715,45,Man
106,565053,DepthScenes,duration_manipulation_targetAtFixation,jsons/v1_VE1000_randls_69_rotated.json,http://54.235.29.9/FacialAge/BNav_EC2/DepthDuration/v2_depth_duration_MTurk/v2_DepthDuration_HTML.html#55,55,1366,768,1366,768,8-30-2022,19-47-18,107,depth_duration_stimuli/001029_2014-06-08_13-17-57_260595134347_rgbf000065-resize_1/001029_2014-06-08_13-17-57_260595134347_rgbf000065-resize_1-target.png,1000,3.0835,3,2651,991,feet,jsons/v1_VE1000_randls_69_rotated.json,741992,1039715,45,Man
107,565053,DepthScenes,duration_manipulation_targetAtFixation,jsons/v1_VE1000_randls_69_rotated.json,http://54.235.29.9/FacialAge/BNav_EC2/DepthDuration/v2_depth_duration_MTurk/v2_DepthDuration_HTML.html#55,55,1366,768,1366,768,8-30-2022,19-47-18,108,depth_duration_stimuli/001584_2014-06-20_11-07-43_260595134347_rgbf000002-resize_1/001584_2014-06-20_11-07-43_260595134347_rgbf000002-resize_1-target.png,1000,3.53,3,2666,1004,feet,jsons/v1_VE1000_randls_69_rotated.json,741992,1039715,45,Man
108,565053,DepthScenes,duration_manipulation_targetAtFixation,jsons/v1_VE1000_randls_69_rotated.json,http://54.235.29.9/FacialAge/BNav_EC2/DepthDuration/v2_depth_duration_MTurk/v2_DepthDuration_HTML.html#55,55,1366,768,1366,768,8-30-2022,19-47-18,109,depth_duration_stimuli/003621_2014-05-23_18-06-08_094959634447_rgbf000101-resize_1/003621_2014-05-23_18-06-08_094959634447_rgbf000101-resize_1-target.png,1000,3.9835,7,2765,1000,feet,jsons/v1_VE1000_randls_69_rotated.json,741992,1039715,45,Man
109,565053,DepthScenes,duration_manipulation_targetAtFixation,jsons/v1_VE1000_randls_69_rotated.json,http://54.235.29.9/FacialAge/BNav_EC2/DepthDuration/v2_depth_duration_MTurk/v2_DepthDuration_HTML.html#55,55,1366,768,1366,768,8-30-2022,19-47-18,110,depth_duration_stimuli/000943_2014-06-09_19-31-07_260595134347_rgbf000128-resize_1/000943_2014-06-09_19-31-07_260595134347_rgbf000128-resize_1-target.png,1000,1.9765,6,2795,1012,feet,jsons/v1_VE1000_randls_69_rotated.json,741992,1039715,45,Man
110,565053,DepthScenes,duration_manipulation_targetAtFixation,jsons/v1_VE1000_randls_69_rotated.json,http://54.235.29.9/FacialAge/BNav_EC2/DepthDuration/v2_depth_duration_MTurk/v2_DepthDuration_HTML.html#55,55,1366,768,1366,768,8-30-2022,19-47-18,111,depth_duration_stimuli/003070_2014-06-15_14-58-27_094959634447_rgbf000150-resize_3/003070_2014-06-15_14-58-27_094959634447_rgbf000150-resize_3-target.png,1000,2.9415,4,2580,984,feet,jsons/v1_VE1000_randls_69_rotated.json,741992,1039715,45,Man
111,565053,DepthScenes,duration_manipulation_targetAtFixation,jsons/v1_VE1000_randls_69_rotated.json,http://54.235.29.9/FacialAge/BNav_EC2/DepthDuration/v2_depth_duration_MTurk/v2_DepthDuration_HTML.html#55,55,1366,768,1366,768,8-30-2022,19-47-18,112,depth_duration_stimuli/002467_2014-06-28_20-38-07_260595134347_rgbf000026-resize_2/002467_2014-06-28_20-38-07_260595134347_rgbf000026-resize_2-target.png,1000,4.742,3,2621,987,feet,jsons/v1_VE1000_randls_69_rotated.json,741992,1039715,45,Man
112,565053,DepthScenes,duration_manipulation_targetAtFixation,jsons/v1_VE1000_randls_69_rotated.json,http://54.235.29.9/FacialAge/BNav_EC2/DepthDuration/v2_depth_duration_MTurk/v2_DepthDuration_HTML.html#55,55,1366,768,1366,768,8-30-2022,19-47-18,113,depth_duration_stimuli/002570_2014-06-24_13-59-54_094959634447_rgbf000059-resize_0/002570_2014-06-24_13-59-54_094959634447_rgbf000059-resize_0-target.png,1000,4.037,7,3255,993,feet,jsons/v1_VE1000_randls_69_rotated.json,741992,1039715,45,Man
113,565053,DepthScenes,duration_manipulation_targetAtFixation,jsons/v1_VE1000_randls_69_rotated.json,http://54.235.29.9/FacialAge/BNav_EC2/DepthDuration/v2_depth_duration_MTurk/v2_DepthDuration_HTML.html#55,55,1366,768,1366,768,8-30-2022,19-47-18,114,depth_duration_stimuli/001100_2014-06-15_17-46-26_260595134347_rgbf000225-resize_2/001100_2014-06-15_17-46-26_260595134347_rgbf000225-resize_2-target.png,1000,2.24,1,2872,988,feet,jsons/v1_VE1000_randls_69_rotated.json,741992,1039715,45,Man
114,565053,DepthScenes,duration_manipulation_targetAtFixation,jsons/v1_VE1000_randls_69_rotated.json,http://54.235.29.9/FacialAge/BNav_EC2/DepthDuration/v2_depth_duration_MTurk/v2_DepthDuration_HTML.html#55,55,1366,768,1366,768,8-30-2022,19-47-18,115,depth_duration_stimuli/002784_2014-06-22_19-26-30_094959634447_rgbf000083-resize_3/002784_2014-06-22_19-26-30_094959634447_rgbf000083-resize_3-target.png,1000,1.8046666666667,1,4913,1004,feet,jsons/v1_VE1000_randls_69_rotated.json,741992,1039715,45,Man
115,565053,DepthScenes,duration_manipulation_targetAtFixation,jsons/v1_VE1000_randls_69_rotated.json,http://54.235.29.9/FacialAge/BNav_EC2/DepthDuration/v2_depth_duration_MTurk/v2_DepthDuration_HTML.html#55,55,1366,768,1366,768,8-30-2022,19-47-18,116,depth_duration_stimuli/001094_2014-06-15_17-36-00_260595134347_rgbf000205-resize_0/001094_2014-06-15_17-36-00_260595134347_rgbf000205-resize_0-target.png,1000,4.2175,3,4285,994,feet,jsons/v1_VE1000_randls_69_rotated.json,741992,1039715,45,Man
116,565053,DepthScenes,duration_manipulation_targetAtFixation,jsons/v1_VE1000_randls_69_rotated.json,http://54.235.29.9/FacialAge/BNav_EC2/DepthDuration/v2_depth_duration_MTurk/v2_DepthDuration_HTML.html#55,55,1366,768,1366,768,8-30-2022,19-47-18,117,depth_duration_stimuli/000692_2014-06-08_13-09-42_260595134347_rgbf000199-resize_2/000692_2014-06-08_13-09-42_260595134347_rgbf000199-resize_2-target.png,1000,3.661,3,3599,1001,feet,jsons/v1_VE1000_randls_69_rotated.json,741992,1039715,45,Man
117,565053,DepthScenes,duration_manipulation_targetAtFixation,jsons/v1_VE1000_randls_69_rotated.json,http://54.235.29.9/FacialAge/BNav_EC2/DepthDuration/v2_depth_duration_MTurk/v2_DepthDuration_HTML.html#55,55,1366,768,1366,768,8-30-2022,19-47-18,118,depth_duration_stimuli/002758_2014-06-22_19-11-20_094959634447_rgbf000128-resize_1/002758_2014-06-22_19-11-20_094959634447_rgbf000128-resize_1-target.png,1000,2.555,4,2670,999,feet,jsons/v1_VE1000_randls_69_rotated.json,741992,1039715,45,Man
118,565053,DepthScenes,duration_manipulation_targetAtFixation,jsons/v1_VE1000_randls_69_rotated.json,http://54.235.29.9/FacialAge/BNav_EC2/DepthDuration/v2_depth_duration_MTurk/v2_DepthDuration_HTML.html#55,55,1366,768,1366,768,8-30-2022,19-47-18,119,depth_duration_stimuli/002630_2014-06-24_14-47-50_094959634447_rgbf000055-resize_1/002630_2014-06-24_14-47-50_094959634447_rgbf000055-resize_1-target.png,1000,3.0095,7,2704,997,feet,jsons/v1_VE1000_randls_69_rotated.json,741992,1039715,45,Man
119,565053,DepthScenes,duration_manipulation_targetAtFixation,jsons/v1_VE1000_randls_69_rotated.json,http://54.235.29.9/FacialAge/BNav_EC2/DepthDuration/v2_depth_duration_MTurk/v2_DepthDuration_HTML.html#55,55,1366,768,1366,768,8-30-2022,19-47-18,120,depth_duration_stimuli/000787_2014-06-08_22-33-53_260595134347_rgbf000175-resize_1/000787_2014-06-08_22-33-53_260595134347_rgbf000175-resize-original.jpg,1000,4.784,0,3011,999,feet,jsons/v1_VE1000_randls_69_rotated.json,741992,1039715,45,Man
120,565053,DepthScenes,duration_manipulation_targetAtFixation,jsons/v1_VE1000_randls_69_rotated.json,http://54.235.29.9/FacialAge/BNav_EC2/DepthDuration/v2_depth_duration_MTurk/v2_DepthDuration_HTML.html#55,55,1366,768,1366,768,8-30-2022,19-47-18,121,depth_duration_stimuli/003083_2014-06-15_15-21-03_094959634447_rgbf000063-resize_1/003083_2014-06-15_15-21-03_094959634447_rgbf000063-resize_1-target.png,1000,4.1405,4,3384,1000,feet,jsons/v1_VE1000_randls_69_rotated.json,741992,1039715,45,Man
121,565053,DepthScenes,duration_manipulation_targetAtFixation,jsons/v1_VE1000_randls_69_rotated.json,http://54.235.29.9/FacialAge/BNav_EC2/DepthDuration/v2_depth_duration_MTurk/v2_DepthDuration_HTML.html#55,55,1366,768,1366,768,8-30-2022,19-47-18,122,depth_duration_stimuli/000486_2014-06-09_20-47-20_260595134347_rgbf000143-resize_2/000486_2014-06-09_20-47-20_260595134347_rgbf000143-resize_2-target.png,1000,4.8325,4,2716,1001,feet,jsons/v1_VE1000_randls_69_rotated.json,741992,1039715,45,Man
122,565053,DepthScenes,duration_manipulation_targetAtFixation,jsons/v1_VE1000_randls_69_rotated.json,http://54.235.29.9/FacialAge/BNav_EC2/DepthDuration/v2_depth_duration_MTurk/v2_DepthDuration_HTML.html#55,55,1366,768,1366,768,8-30-2022,19-47-18,123,depth_duration_stimuli/002805_2014-06-22_19-54-03_094959634447_rgbf000079-resize_1/002805_2014-06-22_19-54-03_094959634447_rgbf000079-resize_1-target.png,1000,3.1439999999999997,7,2688,1010,feet,jsons/v1_VE1000_randls_69_rotated.json,741992,1039715,45,Man
123,565053,DepthScenes,duration_manipulation_targetAtFixation,jsons/v1_VE1000_randls_69_rotated.json,http://54.235.29.9/FacialAge/BNav_EC2/DepthDuration/v2_depth_duration_MTurk/v2_DepthDuration_HTML.html#55,55,1366,768,1366,768,8-30-2022,19-47-18,124,depth_duration_stimuli/000906_2014-06-08_13-35-43_260595134347_rgbf000155-resize_1/000906_2014-06-08_13-35-43_260595134347_rgbf000155-resize_1-target.png,1000,2.8489999999999998,8,2972,1015,feet,jsons/v1_VE1000_randls_69_rotated.json,741992,1039715,45,Man
124,565053,DepthScenes,duration_manipulation_targetAtFixation,jsons/v1_VE1000_randls_69_rotated.json,http://54.235.29.9/FacialAge/BNav_EC2/DepthDuration/v2_depth_duration_MTurk/v2_DepthDuration_HTML.html#55,55,1366,768,1366,768,8-30-2022,19-47-18,125,depth_duration_stimuli/001571_2014-06-20_17-21-32_260595134347_rgbf000089-resize_1/001571_2014-06-20_17-21-32_260595134347_rgbf000089-resize_1-target.png,1000,1.86,5,3007,1000,feet,jsons/v1_VE1000_randls_69_rotated.json,741992,1039715,45,Man
125,565053,DepthScenes,duration_manipulation_targetAtFixation,jsons/v1_VE1000_randls_69_rotated.json,http://54.235.29.9/FacialAge/BNav_EC2/DepthDuration/v2_depth_duration_MTurk/v2_DepthDuration_HTML.html#55,55,1366,768,1366,768,8-30-2022,19-47-18,126,depth_duration_stimuli/002272_2014-06-28_18-53-56_260595134347_rgbf000067-resize_2/002272_2014-06-28_18-53-56_260595134347_rgbf000067-resize_2-target.png,1000,1.138,4,3635,1014,feet,jsons/v1_VE1000_randls_69_rotated.json,741992,1039715,45,Man
126,565053,DepthScenes,duration_manipulation_targetAtFixation,jsons/v1_VE1000_randls_69_rotated.json,http://54.235.29.9/FacialAge/BNav_EC2/DepthDuration/v2_depth_duration_MTurk/v2_DepthDuration_HTML.html#55,55,1366,768,1366,768,8-30-2022,19-47-18,127,depth_duration_stimuli/000866_2014-06-09_20-45-42_260595134347_rgbf000139-resize_1/000866_2014-06-09_20-45-42_260595134347_rgbf000139-resize_1-target.png,1000,3.2155,4,3035,1001,feet,jsons/v1_VE1000_randls_69_rotated.json,741992,1039715,45,Man
127,565053,DepthScenes,duration_manipulation_targetAtFixation,jsons/v1_VE1000_randls_69_rotated.json,http://54.235.29.9/FacialAge/BNav_EC2/DepthDuration/v2_depth_duration_MTurk/v2_DepthDuration_HTML.html#55,55,1366,768,1366,768,8-30-2022,19-47-18,128,depth_duration_stimuli/002989_2014-06-15_12-25-03_094959634447_rgbf000150-resize_3/002989_2014-06-15_12-25-03_094959634447_rgbf000150-resize_3-target.png,1000,4.1975,6,2863,1002,feet,jsons/v1_VE1000_randls_69_rotated.json,741992,1039715,45,Man
128,565053,DepthScenes,duration_manipulation_targetAtFixation,jsons/v1_VE1000_randls_69_rotated.json,http://54.235.29.9/FacialAge/BNav_EC2/DepthDuration/v2_depth_duration_MTurk/v2_DepthDuration_HTML.html#55,55,1366,768,1366,768,8-30-2022,19-47-18,129,depth_duration_stimuli/001052_2014-06-08_18-24-54_260595134347_rgbf000130-resize_1/001052_2014-06-08_18-24-54_260595134347_rgbf000130-resize_1-target.png,1000,4.1045,5,2619,999,feet,jsons/v1_VE1000_randls_69_rotated.json,741992,1039715,45,Man
129,565053,DepthScenes,duration_manipulation_targetAtFixation,jsons/v1_VE1000_randls_69_rotated.json,http://54.235.29.9/FacialAge/BNav_EC2/DepthDuration/v2_depth_duration_MTurk/v2_DepthDuration_HTML.html#55,55,1366,768,1366,768,8-30-2022,19-47-18,130,depth_duration_stimuli/002988_2014-06-15_12-24-20_094959634447_rgbf000150-resize_1/002988_2014-06-15_12-24-20_094959634447_rgbf000150-resize_1-target.png,1000,4.7669999999999995,4,5381,994,feet,jsons/v1_VE1000_randls_69_rotated.json,741992,1039715,45,Man
130,565053,DepthScenes,duration_manipulation_targetAtFixation,jsons/v1_VE1000_randls_69_rotated.json,http://54.235.29.9/FacialAge/BNav_EC2/DepthDuration/v2_depth_duration_MTurk/v2_DepthDuration_HTML.html#55,55,1366,768,1366,768,8-30-2022,19-47-18,131,depth_duration_stimuli/003495_2014-05-21_16-01-51_094959634447_rgbf000100-resize_3/003495_2014-05-21_16-01-51_094959634447_rgbf000100-resize_3-target.png,1000,1.6255,2,3405,989,feet,jsons/v1_VE1000_randls_69_rotated.json,741992,1039715,45,Man
131,565053,DepthScenes,duration_manipulation_targetAtFixation,jsons/v1_VE1000_randls_69_rotated.json,http://54.235.29.9/FacialAge/BNav_EC2/DepthDuration/v2_depth_duration_MTurk/v2_DepthDuration_HTML.html#55,55,1366,768,1366,768,8-30-2022,19-47-18,132,depth_duration_stimuli/001244_2014-06-17_16-47-45_260595134347_rgbf000030-resize_4/001244_2014-06-17_16-47-45_260595134347_rgbf000030-resize_4-target.png,1000,2.0425,3,3142,997,feet,jsons/v1_VE1000_randls_69_rotated.json,741992,1039715,45,Man
132,565053,DepthScenes,duration_manipulation_targetAtFixation,jsons/v1_VE1000_randls_69_rotated.json,http://54.235.29.9/FacialAge/BNav_EC2/DepthDuration/v2_depth_duration_MTurk/v2_DepthDuration_HTML.html#55,55,1366,768,1366,768,8-30-2022,19-47-18,133,depth_duration_stimuli/002136_2014-06-25_21-18-03_260595134347_rgbf000109-resize_3/002136_2014-06-25_21-18-03_260595134347_rgbf000109-resize_3-target.png,1000,1.9569999999999999,2,3595,1013,feet,jsons/v1_VE1000_randls_69_rotated.json,741992,1039715,45,Man
133,565053,DepthScenes,duration_manipulation_targetAtFixation,jsons/v1_VE1000_randls_69_rotated.json,http://54.235.29.9/FacialAge/BNav_EC2/DepthDuration/v2_depth_duration_MTurk/v2_DepthDuration_HTML.html#55,55,1366,768,1366,768,8-30-2022,19-47-18,134,depth_duration_stimuli/002964_2014-06-08_17-46-11_094959634447_rgbf000091-resize_4/002964_2014-06-08_17-46-11_094959634447_rgbf000091-resize_4-target.png,1000,1.6909999999999998,1,2696,989,feet,jsons/v1_VE1000_randls_69_rotated.json,741992,1039715,45,Man
134,565053,DepthScenes,duration_manipulation_targetAtFixation,jsons/v1_VE1000_randls_69_rotated.json,http://54.235.29.9/FacialAge/BNav_EC2/DepthDuration/v2_depth_duration_MTurk/v2_DepthDuration_HTML.html#55,55,1366,768,1366,768,8-30-2022,19-47-18,135,depth_duration_stimuli/000375_2014-06-08_11-17-29_260595134347_rgbf000133-resize_2/000375_2014-06-08_11-17-29_260595134347_rgbf000133-resize-original.jpg,1000,4.718,0,5772,1008,feet,jsons/v1_VE1000_randls_69_rotated.json,741992,1039715,45,Man
135,565053,DepthScenes,duration_manipulation_targetAtFixation,jsons/v1_VE1000_randls_69_rotated.json,http://54.235.29.9/FacialAge/BNav_EC2/DepthDuration/v2_depth_duration_MTurk/v2_DepthDuration_HTML.html#55,55,1366,768,1366,768,8-30-2022,19-47-18,136,depth_duration_stimuli/002660_2014-06-13_15-44-18_094959634447_rgbf001878-resize_2/002660_2014-06-13_15-44-18_094959634447_rgbf001878-resize_2-target.png,1000,3.576,4,3353,999,feet,jsons/v1_VE1000_randls_69_rotated.json,741992,1039715,45,Man
136,565053,DepthScenes,duration_manipulation_targetAtFixation,jsons/v1_VE1000_randls_69_rotated.json,http://54.235.29.9/FacialAge/BNav_EC2/DepthDuration/v2_depth_duration_MTurk/v2_DepthDuration_HTML.html#55,55,1366,768,1366,768,8-30-2022,19-47-18,137,depth_duration_stimuli/002153_2014-06-25_21-27-18_260595134347_rgbf000038-resize_5/002153_2014-06-25_21-27-18_260595134347_rgbf000038-resize_5-target.png,1000,2.505,4,5159,1003,feet,jsons/v1_VE1000_randls_69_rotated.json,741992,1039715,45,Man
137,565053,DepthScenes,duration_manipulation_targetAtFixation,jsons/v1_VE1000_randls_69_rotated.json,http://54.235.29.9/FacialAge/BNav_EC2/DepthDuration/v2_depth_duration_MTurk/v2_DepthDuration_HTML.html#55,55,1366,768,1366,768,8-30-2022,19-47-18,138,depth_duration_stimuli/000927_2014-06-09_16-32-30_260595134347_rgbf000123-resize_3/000927_2014-06-09_16-32-30_260595134347_rgbf000123-resize_3-target.png,1000,2.6785,4,2862,996,feet,jsons/v1_VE1000_randls_69_rotated.json,741992,1039715,45,Man
138,565053,DepthScenes,duration_manipulation_targetAtFixation,jsons/v1_VE1000_randls_69_rotated.json,http://54.235.29.9/FacialAge/BNav_EC2/DepthDuration/v2_depth_duration_MTurk/v2_DepthDuration_HTML.html#55,55,1366,768,1366,768,8-30-2022,19-47-18,139,depth_duration_stimuli/001110_2014-06-15_17-25-28_260595134347_rgbf000150-resize_1/001110_2014-06-15_17-25-28_260595134347_rgbf000150-resize_1-target.png,1000,1.7115,4,8816,988,feet,jsons/v1_VE1000_randls_69_rotated.json,741992,1039715,45,Man
139,565053,DepthScenes,duration_manipulation_targetAtFixation,jsons/v1_VE1000_randls_69_rotated.json,http://54.235.29.9/FacialAge/BNav_EC2/DepthDuration/v2_depth_duration_MTurk/v2_DepthDuration_HTML.html#55,55,1366,768,1366,768,8-30-2022,19-47-18,140,depth_duration_stimuli/001516_2014-06-20_16-25-09_260595134347_rgbf000076-resize_2/001516_2014-06-20_16-25-09_260595134347_rgbf000076-resize_2-target.png,1000,1.7445,2,6743,1000,feet,jsons/v1_VE1000_randls_69_rotated.json,741992,1039715,45,Man
140,565053,DepthScenes,duration_manipulation_targetAtFixation,jsons/v1_VE1000_randls_69_rotated.json,http://54.235.29.9/FacialAge/BNav_EC2/DepthDuration/v2_depth_duration_MTurk/v2_DepthDuration_HTML.html#55,55,1366,768,1366,768,8-30-2022,19-47-18,141,depth_duration_stimuli/002118_2014-06-25_20-32-08_260595134347_rgbf000078-resize_1/002118_2014-06-25_20-32-08_260595134347_rgbf000078-resize_1-target.png,1000,2.6460000000000004,3,3226,1004,feet,jsons/v1_VE1000_randls_69_rotated.json,741992,1039715,45,Man
141,565053,DepthScenes,duration_manipulation_targetAtFixation,jsons/v1_VE1000_randls_69_rotated.json,http://54.235.29.9/FacialAge/BNav_EC2/DepthDuration/v2_depth_duration_MTurk/v2_DepthDuration_HTML.html#55,55,1366,768,1366,768,8-30-2022,19-47-18,142,depth_duration_stimuli/002995_2014-06-15_12-31-26_094959634447_rgbf000150-resize_1/002995_2014-06-15_12-31-26_094959634447_rgbf000150-resize_1-target.png,1000,3.8360000000000003,4,2730,998,feet,jsons/v1_VE1000_randls_69_rotated.json,741992,1039715,45,Man
142,565053,DepthScenes,duration_manipulation_targetAtFixation,jsons/v1_VE1000_randls_69_rotated.json,http://54.235.29.9/FacialAge/BNav_EC2/DepthDuration/v2_depth_duration_MTurk/v2_DepthDuration_HTML.html#55,55,1366,768,1366,768,8-30-2022,19-47-18,143,depth_duration_stimuli/002748_2014-06-22_19-07-22_094959634447_rgbf000078-resize_1/002748_2014-06-22_19-07-22_094959634447_rgbf000078-resize_1-target.png,1000,4.6705,7,3021,1005,feet,jsons/v1_VE1000_randls_69_rotated.json,741992,1039715,45,Man
143,565053,DepthScenes,duration_manipulation_targetAtFixation,jsons/v1_VE1000_randls_69_rotated.json,http://54.235.29.9/FacialAge/BNav_EC2/DepthDuration/v2_depth_duration_MTurk/v2_DepthDuration_HTML.html#55,55,1366,768,1366,768,8-30-2022,19-47-18,144,depth_duration_stimuli/000103_2014-05-14_22-01-17_260595134347_rgbf000152-resize_5/000103_2014-05-14_22-01-17_260595134347_rgbf000152-resize_5-target.png,1000,1.993,8,35016,998,feet,jsons/v1_VE1000_randls_69_rotated.json,741992,1039715,45,Man
144,565053,DepthScenes,duration_manipulation_targetAtFixation,jsons/v1_VE1000_randls_69_rotated.json,http://54.235.29.9/FacialAge/BNav_EC2/DepthDuration/v2_depth_duration_MTurk/v2_DepthDuration_HTML.html#55,55,1366,768,1366,768,8-30-2022,19-47-18,145,depth_duration_stimuli/001555_2014-06-20_17-12-10_260595134347_rgbf000065-resize_4/001555_2014-06-20_17-12-10_260595134347_rgbf000065-resize_4-target.png,1000,1.633,4,38045,1005,feet,jsons/v1_VE1000_randls_69_rotated.json,741992,1039715,45,Man
145,565053,DepthScenes,duration_manipulation_targetAtFixation,jsons/v1_VE1000_randls_69_rotated.json,http://54.235.29.9/FacialAge/BNav_EC2/DepthDuration/v2_depth_duration_MTurk/v2_DepthDuration_HTML.html#55,55,1366,768,1366,768,8-30-2022,19-47-18,146,depth_duration_stimuli/000635_2014-06-08_16-38-42_260595134347_rgbf000106-resize_1/000635_2014-06-08_16-38-42_260595134347_rgbf000106-resize_1-target.png,1000,2.074,1,4716,999,feet,jsons/v1_VE1000_randls_69_rotated.json,741992,1039715,45,Man
146,565053,DepthScenes,duration_manipulation_targetAtFixation,jsons/v1_VE1000_randls_69_rotated.json,http://54.235.29.9/FacialAge/BNav_EC2/DepthDuration/v2_depth_duration_MTurk/v2_DepthDuration_HTML.html#55,55,1366,768,1366,768,8-30-2022,19-47-18,147,depth_duration_stimuli/002279_2014-06-28_18-55-32_260595134347_rgbf000040-resize_5/002279_2014-06-28_18-55-32_260595134347_rgbf000040-resize_5-target.png,1000,1.5043333333333,4,21737,999,feet,jsons/v1_VE1000_randls_69_rotated.json,741992,1039715,45,Man
147,565053,DepthScenes,duration_manipulation_targetAtFixation,jsons/v1_VE1000_randls_69_rotated.json,http://54.235.29.9/FacialAge/BNav_EC2/DepthDuration/v2_depth_duration_MTurk/v2_DepthDuration_HTML.html#55,55,1366,768,1366,768,8-30-2022,19-47-18,148,depth_duration_stimuli/001617_2014-06-20_11-35-32_260595134347_rgbf000066-resize_1/001617_2014-06-20_11-35-32_260595134347_rgbf000066-resize_1-target.png,1000,3.7910000000000004,6,2816,989,feet,jsons/v1_VE1000_randls_69_rotated.json,741992,1039715,45,Man
148,565053,DepthScenes,duration_manipulation_targetAtFixation,jsons/v1_VE1000_randls_69_rotated.json,http://54.235.29.9/FacialAge/BNav_EC2/DepthDuration/v2_depth_duration_MTurk/v2_DepthDuration_HTML.html#55,55,1366,768,1366,768,8-30-2022,19-47-18,149,depth_duration_stimuli/001806_2014-06-26_20-50-20_260595134347_rgbf000091-resize_1/001806_2014-06-26_20-50-20_260595134347_rgbf000091-resize_1-target.png,1000,2.7305,3,2643,1008,feet,jsons/v1_VE1000_randls_69_rotated.json,741992,1039715,45,Man
149,565053,DepthScenes,duration_manipulation_targetAtFixation,jsons/v1_VE1000_randls_69_rotated.json,http://54.235.29.9/FacialAge/BNav_EC2/DepthDuration/v2_depth_duration_MTurk/v2_DepthDuration_HTML.html#55,55,1366,768,1366,768,8-30-2022,19-47-18,150,depth_duration_stimuli/002323_2014-06-28_20-01-54_260595134347_rgbf000051-resize_4/002323_2014-06-28_20-01-54_260595134347_rgbf000051-resize_4-target.png,1000,3.7310000000000003,5,2764,992,feet,jsons/v1_VE1000_randls_69_rotated.json,741992,1039715,45,Man
150,565053,DepthScenes,duration_manipulation_targetAtFixation,jsons/v1_VE1000_randls_69_rotated.json,http://54.235.29.9/FacialAge/BNav_EC2/DepthDuration/v2_depth_duration_MTurk/v2_DepthDuration_HTML.html#55,55,1366,768,1366,768,8-30-2022,19-47-18,151,depth_duration_stimuli/000917_2014-06-09_22-45-29_260595134347_rgbf000149-resize_3/000917_2014-06-09_22-45-29_260595134347_rgbf000149-resize_3-target.png,1000,4.1865,2,3139,1000,feet,jsons/v1_VE1000_randls_69_rotated.json,741992,1039715,45,Man
151,565053,DepthScenes,duration_manipulation_targetAtFixation,jsons/v1_VE1000_randls_69_rotated.json,http://54.235.29.9/FacialAge/BNav_EC2/DepthDuration/v2_depth_duration_MTurk/v2_DepthDuration_HTML.html#55,55,1366,768,1366,768,8-30-2022,19-47-18,152,depth_duration_stimuli/000569_2014-06-09_22-51-47_260595134347_rgbf000141-resize_3/000569_2014-06-09_22-51-47_260595134347_rgbf000141-resize-original.jpg,1000,4.512,3,4273,999,feet,jsons/v1_VE1000_randls_69_rotated.json,741992,1039715,45,Man
152,565053,DepthScenes,duration_manipulation_targetAtFixation,jsons/v1_VE1000_randls_69_rotated.json,http://54.235.29.9/FacialAge/BNav_EC2/DepthDuration/v2_depth_duration_MTurk/v2_DepthDuration_HTML.html#55,55,1366,768,1366,768,8-30-2022,19-47-18,153,depth_duration_stimuli/001828_2014-06-26_21-40-03_260595134347_rgbf000024-resize_0/001828_2014-06-26_21-40-03_260595134347_rgbf000024-resize_0-target.png,1000,4.8260000000000005,3,2881,997,feet,jsons/v1_VE1000_randls_69_rotated.json,741992,1039715,45,Man
153,565053,DepthScenes,duration_manipulation_targetAtFixation,jsons/v1_VE1000_randls_69_rotated.json,http://54.235.29.9/FacialAge/BNav_EC2/DepthDuration/v2_depth_duration_MTurk/v2_DepthDuration_HTML.html#55,55,1366,768,1366,768,8-30-2022,19-47-18,154,depth_duration_stimuli/000009_2014-05-26_14-32-05_260595134347_rgbf000034-resize_3/000009_2014-05-26_14-32-05_260595134347_rgbf000034-resize_3-target.png,1000,3.8715,5,2923,1006,feet,jsons/v1_VE1000_randls_69_rotated.json,741992,1039715,45,Man
154,565053,DepthScenes,duration_manipulation_targetAtFixation,jsons/v1_VE1000_randls_69_rotated.json,http://54.235.29.9/FacialAge/BNav_EC2/DepthDuration/v2_depth_duration_MTurk/v2_DepthDuration_HTML.html#55,55,1366,768,1366,768,8-30-2022,19-47-18,155,depth_duration_stimuli/001815_2014-06-26_20-52-55_260595134347_rgbf000020-resize_0/001815_2014-06-26_20-52-55_260595134347_rgbf000020-resize_0-target.png,1000,3.3865,4,2956,999,feet,jsons/v1_VE1000_randls_69_rotated.json,741992,1039715,45,Man
155,565053,DepthScenes,duration_manipulation_targetAtFixation,jsons/v1_VE1000_randls_69_rotated.json,http://54.235.29.9/FacialAge/BNav_EC2/DepthDuration/v2_depth_duration_MTurk/v2_DepthDuration_HTML.html#55,55,1366,768,1366,768,8-30-2022,19-47-18,156,depth_duration_stimuli/001808_2014-06-26_20-50-58_260595134347_rgbf000029-resize_1/001808_2014-06-26_20-50-58_260595134347_rgbf000029-resize_1-target.png,1000,4.249,7,2762,1010,feet,jsons/v1_VE1000_randls_69_rotated.json,741992,1039715,45,Man
156,565053,DepthScenes,duration_manipulation_targetAtFixation,jsons/v1_VE1000_randls_69_rotated.json,http://54.235.29.9/FacialAge/BNav_EC2/DepthDuration/v2_depth_duration_MTurk/v2_DepthDuration_HTML.html#55,55,1366,768,1366,768,8-30-2022,19-47-18,157,depth_duration_stimuli/002545_2014-06-24_13-38-53_094959634447_rgbf000080-resize_4/002545_2014-06-24_13-38-53_094959634447_rgbf000080-resize_4-target.png,1000,1.9205,3,2618,1005,feet,jsons/v1_VE1000_randls_69_rotated.json,741992,1039715,45,Man
157,565053,DepthScenes,duration_manipulation_targetAtFixation,jsons/v1_VE1000_randls_69_rotated.json,http://54.235.29.9/FacialAge/BNav_EC2/DepthDuration/v2_depth_duration_MTurk/v2_DepthDuration_HTML.html#55,55,1366,768,1366,768,8-30-2022,19-47-18,158,depth_duration_stimuli/001092_2014-06-15_17-34-58_260595134347_rgbf000171-resize_3/001092_2014-06-15_17-34-58_260595134347_rgbf000171-resize_3-target.png,1000,2.6935,5,7107,1004,feet,jsons/v1_VE1000_randls_69_rotated.json,741992,1039715,45,Man
158,565053,DepthScenes,duration_manipulation_targetAtFixation,jsons/v1_VE1000_randls_69_rotated.json,http://54.235.29.9/FacialAge/BNav_EC2/DepthDuration/v2_depth_duration_MTurk/v2_DepthDuration_HTML.html#55,55,1366,768,1366,768,8-30-2022,19-47-18,159,depth_duration_stimuli/002875_2014-06-01_15-19-00_094959634447_rgbf000151-resize_1/002875_2014-06-01_15-19-00_094959634447_rgbf000151-resize_1-target.png,1000,1.9675,6,2945,1000,feet,jsons/v1_VE1000_randls_69_rotated.json,741992,1039715,45,Man
159,565053,DepthScenes,duration_manipulation_targetAtFixation,jsons/v1_VE1000_randls_69_rotated.json,http://54.235.29.9/FacialAge/BNav_EC2/DepthDuration/v2_depth_duration_MTurk/v2_DepthDuration_HTML.html#55,55,1366,768,1366,768,8-30-2022,19-47-18,160,depth_duration_stimuli/001011_2014-06-08_23-18-54_260595134347_rgbf000044-resize_4/001011_2014-06-08_23-18-54_260595134347_rgbf000044-resize_4-target.png,1000,2.4730000000000003,3,4290,1005,feet,jsons/v1_VE1000_randls_69_rotated.json,741992,1039715,45,Man
160,565053,DepthScenes,duration_manipulation_targetAtFixation,jsons/v1_VE1000_randls_69_rotated.json,http://54.235.29.9/FacialAge/BNav_EC2/DepthDuration/v2_depth_duration_MTurk/v2_DepthDuration_HTML.html#55,55,1366,768,1366,768,8-30-2022,19-47-18,161,depth_duration_stimuli/002750_2014-06-22_19-08-03_094959634447_rgbf000094-resize_4/002750_2014-06-22_19-08-03_094959634447_rgbf000094-resize_4-target.png,1000,2.354,3,3146,1010,feet,jsons/v1_VE1000_randls_69_rotated.json,741992,1039715,45,Man
161,565053,DepthScenes,duration_manipulation_targetAtFixation,jsons/v1_VE1000_randls_69_rotated.json,http://54.235.29.9/FacialAge/BNav_EC2/DepthDuration/v2_depth_duration_MTurk/v2_DepthDuration_HTML.html#55,55,1366,768,1366,768,8-30-2022,19-47-18,162,depth_duration_stimuli/002549_2014-06-24_13-41-39_094959634447_rgbf000022-resize_3/002549_2014-06-24_13-41-39_094959634447_rgbf000022-resize_3-target.png,1000,1.476,2,2443,988,feet,jsons/v1_VE1000_randls_69_rotated.json,741992,1039715,45,Man
162,565053,DepthScenes,duration_manipulation_targetAtFixation,jsons/v1_VE1000_randls_69_rotated.json,http://54.235.29.9/FacialAge/BNav_EC2/DepthDuration/v2_depth_duration_MTurk/v2_DepthDuration_HTML.html#55,55,1366,768,1366,768,8-30-2022,19-47-18,163,depth_duration_stimuli/002953_2014-06-08_17-32-18_094959634447_rgbf000059-resize_5/002953_2014-06-08_17-32-18_094959634447_rgbf000059-resize_5-target.png,1000,1.551,2,3367,990,feet,jsons/v1_VE1000_randls_69_rotated.json,741992,1039715,45,Man
163,565053,DepthScenes,duration_manipulation_targetAtFixation,jsons/v1_VE1000_randls_69_rotated.json,http://54.235.29.9/FacialAge/BNav_EC2/DepthDuration/v2_depth_duration_MTurk/v2_DepthDuration_HTML.html#55,55,1366,768,1366,768,8-30-2022,19-47-18,164,depth_duration_stimuli/000878_2014-06-08_22-52-45_260595134347_rgbf000045-resize_2/000878_2014-06-08_22-52-45_260595134347_rgbf000045-resize_2-target.png,1000,2.092,5,4525,996,feet,jsons/v1_VE1000_randls_69_rotated.json,741992,1039715,45,Man
