,subjID,experimentName,versionName,sequenceName,url,selected_row,windowWidth,windowHeight,screenWidth,screenHeight,startDate,startTime,trial,stimulus,duration,actual_depth,depth_estimate,trial_RT,log_sceneDuration,unitSelection,seq_filepath,experimentTime,totalTime,age,gender
0,565779,DepthScenes,duration_manipulation_targetAtFixation,jsons/v1_VE1000_randls_42_rotated.json,http://54.235.29.9/FacialAge/BNav_EC2/DepthDuration/v2_depth_duration_MTurk/v2_DepthDuration_HTML.html#283,283,1364,768,1364,768,8-29-2022,14-36-41,1,depth_duration_stimuli/002199_2014-06-28_18-33-56_260595134347_rgbf000074-resize_0/002199_2014-06-28_18-33-56_260595134347_rgbf000074-resize_0-target.png,1000,1.996,2,4874,1006,meters,jsons/v1_VE1000_randls_42_rotated.json,895970,1293979,23,Man
1,565779,DepthScenes,duration_manipulation_targetAtFixation,jsons/v1_VE1000_randls_42_rotated.json,http://54.235.29.9/FacialAge/BNav_EC2/DepthDuration/v2_depth_duration_MTurk/v2_DepthDuration_HTML.html#283,283,1364,768,1364,768,8-29-2022,14-36-41,2,depth_duration_stimuli/001056_2014-06-08_18-46-44_260595134347_rgbf000068-resize_0/001056_2014-06-08_18-46-44_260595134347_rgbf000068-resize_0-target.png,1000,2.6625,5,4954,996,meters,jsons/v1_VE1000_randls_42_rotated.json,895970,1293979,23,Man
2,565779,DepthScenes,duration_manipulation_targetAtFixation,jsons/v1_VE1000_randls_42_rotated.json,http://54.235.29.9/FacialAge/BNav_EC2/DepthDuration/v2_depth_duration_MTurk/v2_DepthDuration_HTML.html#283,283,1364,768,1364,768,8-29-2022,14-36-41,3,depth_duration_stimuli/003010_2014-06-15_12-54-35_094959634447_rgbf000112-resize_0/003010_2014-06-15_12-54-35_094959634447_rgbf000112-resize_0-target.png,1000,3.1185,6,3960,994,meters,jsons/v1_VE1000_randls_42_rotated.json,895970,1293979,23,Man
3,565779,DepthScenes,duration_manipulation_targetAtFixation,jsons/v1_VE1000_randls_42_rotated.json,http://54.235.29.9/FacialAge/BNav_EC2/DepthDuration/v2_depth_duration_MTurk/v2_DepthDuration_HTML.html#283,283,1364,768,1364,768,8-29-2022,14-36-41,4,depth_duration_stimuli/001810_2014-06-26_20-51-35_260595134347_rgbf000040-resize_3/001810_2014-06-26_20-51-35_260595134347_rgbf000040-resize_3-target.png,1000,2.2525,4,4067,1004,meters,jsons/v1_VE1000_randls_42_rotated.json,895970,1293979,23,Man
4,565779,DepthScenes,duration_manipulation_targetAtFixation,jsons/v1_VE1000_randls_42_rotated.json,http://54.235.29.9/FacialAge/BNav_EC2/DepthDuration/v2_depth_duration_MTurk/v2_DepthDuration_HTML.html#283,283,1364,768,1364,768,8-29-2022,14-36-41,5,depth_duration_stimuli/000780_2014-06-08_22-28-29_260595134347_rgbf000126-resize_1/000780_2014-06-08_22-28-29_260595134347_rgbf000126-resize_1-target.png,1000,3.3825,4,5654,999,meters,jsons/v1_VE1000_randls_42_rotated.json,895970,1293979,23,Man
5,565779,DepthScenes,duration_manipulation_targetAtFixation,jsons/v1_VE1000_randls_42_rotated.json,http://54.235.29.9/FacialAge/BNav_EC2/DepthDuration/v2_depth_duration_MTurk/v2_DepthDuration_HTML.html#283,283,1364,768,1364,768,8-29-2022,14-36-41,6,depth_duration_stimuli/002445_2014-06-28_20-32-16_260595134347_rgbf000029-resize_4/002445_2014-06-28_20-32-16_260595134347_rgbf000029-resize_4-target.png,1000,2.5315,3,3910,990,meters,jsons/v1_VE1000_randls_42_rotated.json,895970,1293979,23,Man
6,565779,DepthScenes,duration_manipulation_targetAtFixation,jsons/v1_VE1000_randls_42_rotated.json,http://54.235.29.9/FacialAge/BNav_EC2/DepthDuration/v2_depth_duration_MTurk/v2_DepthDuration_HTML.html#283,283,1364,768,1364,768,8-29-2022,14-36-41,7,depth_duration_stimuli/001100_2014-06-15_17-46-26_260595134347_rgbf000225-resize_2/001100_2014-06-15_17-46-26_260595134347_rgbf000225-resize_2-target.png,1000,2.24,2,3444,995,meters,jsons/v1_VE1000_randls_42_rotated.json,895970,1293979,23,Man
7,565779,DepthScenes,duration_manipulation_targetAtFixation,jsons/v1_VE1000_randls_42_rotated.json,http://54.235.29.9/FacialAge/BNav_EC2/DepthDuration/v2_depth_duration_MTurk/v2_DepthDuration_HTML.html#283,283,1364,768,1364,768,8-29-2022,14-36-41,8,depth_duration_stimuli/002784_2014-06-22_19-26-30_094959634447_rgbf000083-resize_3/002784_2014-06-22_19-26-30_094959634447_rgbf000083-resize_3-target.png,1000,1.8046666666667,2,3193,991,meters,jsons/v1_VE1000_randls_42_rotated.json,895970,1293979,23,Man
8,565779,DepthScenes,duration_manipulation_targetAtFixation,jsons/v1_VE1000_randls_42_rotated.json,http://54.235.29.9/FacialAge/BNav_EC2/DepthDuration/v2_depth_duration_MTurk/v2_DepthDuration_HTML.html#283,283,1364,768,1364,768,8-29-2022,14-36-41,9,depth_duration_stimuli/001235_2014-06-17_16-37-36_260595134347_rgbf000084-resize_4/001235_2014-06-17_16-37-36_260595134347_rgbf000084-resize_4-target.png,1000,3.6605,4,3186,1010,meters,jsons/v1_VE1000_randls_42_rotated.json,895970,1293979,23,Man
9,565779,DepthScenes,duration_manipulation_targetAtFixation,jsons/v1_VE1000_randls_42_rotated.json,http://54.235.29.9/FacialAge/BNav_EC2/DepthDuration/v2_depth_duration_MTurk/v2_DepthDuration_HTML.html#283,283,1364,768,1364,768,8-29-2022,14-36-41,10,depth_duration_stimuli/000788_2014-06-08_22-34-36_260595134347_rgbf000131-resize_1/000788_2014-06-08_22-34-36_260595134347_rgbf000131-resize_1-target.png,1000,3.359,5,3813,992,meters,jsons/v1_VE1000_randls_42_rotated.json,895970,1293979,23,Man
10,565779,DepthScenes,duration_manipulation_targetAtFixation,jsons/v1_VE1000_randls_42_rotated.json,http://54.235.29.9/FacialAge/BNav_EC2/DepthDuration/v2_depth_duration_MTurk/v2_DepthDuration_HTML.html#283,283,1364,768,1364,768,8-29-2022,14-36-41,11,depth_duration_stimuli/002639_2014-06-24_14-51-37_094959634447_rgbf000074-resize_4/002639_2014-06-24_14-51-37_094959634447_rgbf000074-resize_4-target.png,1000,4.0375,6,4252,1000,meters,jsons/v1_VE1000_randls_42_rotated.json,895970,1293979,23,Man
11,565779,DepthScenes,duration_manipulation_targetAtFixation,jsons/v1_VE1000_randls_42_rotated.json,http://54.235.29.9/FacialAge/BNav_EC2/DepthDuration/v2_depth_duration_MTurk/v2_DepthDuration_HTML.html#283,283,1364,768,1364,768,8-29-2022,14-36-41,12,depth_duration_stimuli/003292_2014-05-14_21-53-49_094959634447_rgbf000100-resize_2/003292_2014-05-14_21-53-49_094959634447_rgbf000100-resize_2-target.png,1000,3.4815,3,27327,1000,meters,jsons/v1_VE1000_randls_42_rotated.json,895970,1293979,23,Man
12,565779,DepthScenes,duration_manipulation_targetAtFixation,jsons/v1_VE1000_randls_42_rotated.json,http://54.235.29.9/FacialAge/BNav_EC2/DepthDuration/v2_depth_duration_MTurk/v2_DepthDuration_HTML.html#283,283,1364,768,1364,768,8-29-2022,14-36-41,13,depth_duration_stimuli/001052_2014-06-08_18-24-54_260595134347_rgbf000130-resize_1/001052_2014-06-08_18-24-54_260595134347_rgbf000130-resize_1-target.png,1000,4.1045,4,4680,995,meters,jsons/v1_VE1000_randls_42_rotated.json,895970,1293979,23,Man
13,565779,DepthScenes,duration_manipulation_targetAtFixation,jsons/v1_VE1000_randls_42_rotated.json,http://54.235.29.9/FacialAge/BNav_EC2/DepthDuration/v2_depth_duration_MTurk/v2_DepthDuration_HTML.html#283,283,1364,768,1364,768,8-29-2022,14-36-41,14,depth_duration_stimuli/002988_2014-06-15_12-24-20_094959634447_rgbf000150-resize_1/002988_2014-06-15_12-24-20_094959634447_rgbf000150-resize_1-target.png,1000,4.7669999999999995,5,4673,1004,meters,jsons/v1_VE1000_randls_42_rotated.json,895970,1293979,23,Man
14,565779,DepthScenes,duration_manipulation_targetAtFixation,jsons/v1_VE1000_randls_42_rotated.json,http://54.235.29.9/FacialAge/BNav_EC2/DepthDuration/v2_depth_duration_MTurk/v2_DepthDuration_HTML.html#283,283,1364,768,1364,768,8-29-2022,14-36-41,15,depth_duration_stimuli/000137_2014-05-20_17-04-49_260595134347_rgbf000120-resize_1/000137_2014-05-20_17-04-49_260595134347_rgbf000120-resize_1-target.png,1000,3.786,6,6729,990,meters,jsons/v1_VE1000_randls_42_rotated.json,895970,1293979,23,Man
15,565779,DepthScenes,duration_manipulation_targetAtFixation,jsons/v1_VE1000_randls_42_rotated.json,http://54.235.29.9/FacialAge/BNav_EC2/DepthDuration/v2_depth_duration_MTurk/v2_DepthDuration_HTML.html#283,283,1364,768,1364,768,8-29-2022,14-36-41,16,depth_duration_stimuli/000736_2014-06-08_18-24-15_260595134347_rgbf000206-resize_3/000736_2014-06-08_18-24-15_260595134347_rgbf000206-resize_3-target.png,1000,3.515,3,4179,1000,meters,jsons/v1_VE1000_randls_42_rotated.json,895970,1293979,23,Man
16,565779,DepthScenes,duration_manipulation_targetAtFixation,jsons/v1_VE1000_randls_42_rotated.json,http://54.235.29.9/FacialAge/BNav_EC2/DepthDuration/v2_depth_duration_MTurk/v2_DepthDuration_HTML.html#283,283,1364,768,1364,768,8-29-2022,14-36-41,17,depth_duration_stimuli/002805_2014-06-22_19-54-03_094959634447_rgbf000079-resize_1/002805_2014-06-22_19-54-03_094959634447_rgbf000079-resize_1-target.png,1000,3.1439999999999997,5,3796,984,meters,jsons/v1_VE1000_randls_42_rotated.json,895970,1293979,23,Man
17,565779,DepthScenes,duration_manipulation_targetAtFixation,jsons/v1_VE1000_randls_42_rotated.json,http://54.235.29.9/FacialAge/BNav_EC2/DepthDuration/v2_depth_duration_MTurk/v2_DepthDuration_HTML.html#283,283,1364,768,1364,768,8-29-2022,14-36-41,18,depth_duration_stimuli/000906_2014-06-08_13-35-43_260595134347_rgbf000155-resize_1/000906_2014-06-08_13-35-43_260595134347_rgbf000155-resize_1-target.png,1000,2.8489999999999998,4,4173,1006,meters,jsons/v1_VE1000_randls_42_rotated.json,895970,1293979,23,Man
18,565779,DepthScenes,duration_manipulation_targetAtFixation,jsons/v1_VE1000_randls_42_rotated.json,http://54.235.29.9/FacialAge/BNav_EC2/DepthDuration/v2_depth_duration_MTurk/v2_DepthDuration_HTML.html#283,283,1364,768,1364,768,8-29-2022,14-36-41,19,depth_duration_stimuli/001498_2014-06-19_17-45-14_260595134347_rgbf000129-resize_4/001498_2014-06-19_17-45-14_260595134347_rgbf000129-resize-original.jpg,1000,1.4075,0,7124,1004,meters,jsons/v1_VE1000_randls_42_rotated.json,895970,1293979,23,Man
19,565779,DepthScenes,duration_manipulation_targetAtFixation,jsons/v1_VE1000_randls_42_rotated.json,http://54.235.29.9/FacialAge/BNav_EC2/DepthDuration/v2_depth_duration_MTurk/v2_DepthDuration_HTML.html#283,283,1364,768,1364,768,8-29-2022,14-36-41,20,depth_duration_stimuli/001828_2014-06-26_21-40-03_260595134347_rgbf000024-resize_0/001828_2014-06-26_21-40-03_260595134347_rgbf000024-resize_0-target.png,1000,4.8260000000000005,5,9744,1000,meters,jsons/v1_VE1000_randls_42_rotated.json,895970,1293979,23,Man
20,565779,DepthScenes,duration_manipulation_targetAtFixation,jsons/v1_VE1000_randls_42_rotated.json,http://54.235.29.9/FacialAge/BNav_EC2/DepthDuration/v2_depth_duration_MTurk/v2_DepthDuration_HTML.html#283,283,1364,768,1364,768,8-29-2022,14-36-41,21,depth_duration_stimuli/000009_2014-05-26_14-32-05_260595134347_rgbf000034-resize_3/000009_2014-05-26_14-32-05_260595134347_rgbf000034-resize_3-target.png,1000,3.8715,4,4897,994,meters,jsons/v1_VE1000_randls_42_rotated.json,895970,1293979,23,Man
21,565779,DepthScenes,duration_manipulation_targetAtFixation,jsons/v1_VE1000_randls_42_rotated.json,http://54.235.29.9/FacialAge/BNav_EC2/DepthDuration/v2_depth_duration_MTurk/v2_DepthDuration_HTML.html#283,283,1364,768,1364,768,8-29-2022,14-36-41,22,depth_duration_stimuli/001516_2014-06-20_16-25-09_260595134347_rgbf000076-resize_2/001516_2014-06-20_16-25-09_260595134347_rgbf000076-resize_2-target.png,1000,1.7445,6,3574,1003,meters,jsons/v1_VE1000_randls_42_rotated.json,895970,1293979,23,Man
22,565779,DepthScenes,duration_manipulation_targetAtFixation,jsons/v1_VE1000_randls_42_rotated.json,http://54.235.29.9/FacialAge/BNav_EC2/DepthDuration/v2_depth_duration_MTurk/v2_DepthDuration_HTML.html#283,283,1364,768,1364,768,8-29-2022,14-36-41,23,depth_duration_stimuli/002118_2014-06-25_20-32-08_260595134347_rgbf000078-resize_1/002118_2014-06-25_20-32-08_260595134347_rgbf000078-resize_1-target.png,1000,2.6460000000000004,6,4724,991,meters,jsons/v1_VE1000_randls_42_rotated.json,895970,1293979,23,Man
23,565779,DepthScenes,duration_manipulation_targetAtFixation,jsons/v1_VE1000_randls_42_rotated.json,http://54.235.29.9/FacialAge/BNav_EC2/DepthDuration/v2_depth_duration_MTurk/v2_DepthDuration_HTML.html#283,283,1364,768,1364,768,8-29-2022,14-36-41,24,depth_duration_stimuli/002875_2014-06-01_15-19-00_094959634447_rgbf000151-resize_1/002875_2014-06-01_15-19-00_094959634447_rgbf000151-resize_1-target.png,1000,1.9675,5,4562,995,meters,jsons/v1_VE1000_randls_42_rotated.json,895970,1293979,23,Man
24,565779,DepthScenes,duration_manipulation_targetAtFixation,jsons/v1_VE1000_randls_42_rotated.json,http://54.235.29.9/FacialAge/BNav_EC2/DepthDuration/v2_depth_duration_MTurk/v2_DepthDuration_HTML.html#283,283,1364,768,1364,768,8-29-2022,14-36-41,25,depth_duration_stimuli/001011_2014-06-08_23-18-54_260595134347_rgbf000044-resize_4/001011_2014-06-08_23-18-54_260595134347_rgbf000044-resize_4-target.png,1000,2.4730000000000003,6,3608,1002,meters,jsons/v1_VE1000_randls_42_rotated.json,895970,1293979,23,Man
25,565779,DepthScenes,duration_manipulation_targetAtFixation,jsons/v1_VE1000_randls_42_rotated.json,http://54.235.29.9/FacialAge/BNav_EC2/DepthDuration/v2_depth_duration_MTurk/v2_DepthDuration_HTML.html#283,283,1364,768,1364,768,8-29-2022,14-36-41,26,depth_duration_stimuli/002568_2014-06-24_13-59-21_094959634447_rgbf000062-resize_4/002568_2014-06-24_13-59-21_094959634447_rgbf000062-resize_4-target.png,1000,3.015,6,3795,1001,meters,jsons/v1_VE1000_randls_42_rotated.json,895970,1293979,23,Man
26,565779,DepthScenes,duration_manipulation_targetAtFixation,jsons/v1_VE1000_randls_42_rotated.json,http://54.235.29.9/FacialAge/BNav_EC2/DepthDuration/v2_depth_duration_MTurk/v2_DepthDuration_HTML.html#283,283,1364,768,1364,768,8-29-2022,14-36-41,27,depth_duration_stimuli/003492_2014-05-21_15-50-55_094959634447_rgbf000828-resize_1/003492_2014-05-21_15-50-55_094959634447_rgbf000828-resize_1-target.png,1000,4.06875,6,3654,995,meters,jsons/v1_VE1000_randls_42_rotated.json,895970,1293979,23,Man
27,565779,DepthScenes,duration_manipulation_targetAtFixation,jsons/v1_VE1000_randls_42_rotated.json,http://54.235.29.9/FacialAge/BNav_EC2/DepthDuration/v2_depth_duration_MTurk/v2_DepthDuration_HTML.html#283,283,1364,768,1364,768,8-29-2022,14-36-41,28,depth_duration_stimuli/000502_2014-06-08_23-02-32_260595134347_rgbf000063-resize_4/000502_2014-06-08_23-02-32_260595134347_rgbf000063-resize_4-target.png,1000,2.431,3,5090,997,meters,jsons/v1_VE1000_randls_42_rotated.json,895970,1293979,23,Man
28,565779,DepthScenes,duration_manipulation_targetAtFixation,jsons/v1_VE1000_randls_42_rotated.json,http://54.235.29.9/FacialAge/BNav_EC2/DepthDuration/v2_depth_duration_MTurk/v2_DepthDuration_HTML.html#283,283,1364,768,1364,768,8-29-2022,14-36-41,29,depth_duration_stimuli/001199_2014-06-17_16-03-48_260595134347_rgbf000077-resize_0/001199_2014-06-17_16-03-48_260595134347_rgbf000077-resize_0-target.png,1000,3.4375,5,4082,1000,meters,jsons/v1_VE1000_randls_42_rotated.json,895970,1293979,23,Man
29,565779,DepthScenes,duration_manipulation_targetAtFixation,jsons/v1_VE1000_randls_42_rotated.json,http://54.235.29.9/FacialAge/BNav_EC2/DepthDuration/v2_depth_duration_MTurk/v2_DepthDuration_HTML.html#283,283,1364,768,1364,768,8-29-2022,14-36-41,30,depth_duration_stimuli/002072_2014-06-24_21-48-06_260595134347_rgbf000115-resize_0/002072_2014-06-24_21-48-06_260595134347_rgbf000115-resize-original.jpg,1000,4.702,0,3291,1001,meters,jsons/v1_VE1000_randls_42_rotated.json,895970,1293979,23,Man
30,565779,DepthScenes,duration_manipulation_targetAtFixation,jsons/v1_VE1000_randls_42_rotated.json,http://54.235.29.9/FacialAge/BNav_EC2/DepthDuration/v2_depth_duration_MTurk/v2_DepthDuration_HTML.html#283,283,1364,768,1364,768,8-29-2022,14-36-41,31,depth_duration_stimuli/001617_2014-06-20_11-35-32_260595134347_rgbf000066-resize_1/001617_2014-06-20_11-35-32_260595134347_rgbf000066-resize_1-target.png,1000,3.7910000000000004,6,3973,1000,meters,jsons/v1_VE1000_randls_42_rotated.json,895970,1293979,23,Man
31,565779,DepthScenes,duration_manipulation_targetAtFixation,jsons/v1_VE1000_randls_42_rotated.json,http://54.235.29.9/FacialAge/BNav_EC2/DepthDuration/v2_depth_duration_MTurk/v2_DepthDuration_HTML.html#283,283,1364,768,1364,768,8-29-2022,14-36-41,32,depth_duration_stimuli/001806_2014-06-26_20-50-20_260595134347_rgbf000091-resize_1/001806_2014-06-26_20-50-20_260595134347_rgbf000091-resize_1-target.png,1000,2.7305,2,4450,1000,meters,jsons/v1_VE1000_randls_42_rotated.json,895970,1293979,23,Man
32,565779,DepthScenes,duration_manipulation_targetAtFixation,jsons/v1_VE1000_randls_42_rotated.json,http://54.235.29.9/FacialAge/BNav_EC2/DepthDuration/v2_depth_duration_MTurk/v2_DepthDuration_HTML.html#283,283,1364,768,1364,768,8-29-2022,14-36-41,33,depth_duration_stimuli/002323_2014-06-28_20-01-54_260595134347_rgbf000051-resize_4/002323_2014-06-28_20-01-54_260595134347_rgbf000051-resize_4-target.png,1000,3.7310000000000003,3,6871,1000,meters,jsons/v1_VE1000_randls_42_rotated.json,895970,1293979,23,Man
33,565779,DepthScenes,duration_manipulation_targetAtFixation,jsons/v1_VE1000_randls_42_rotated.json,http://54.235.29.9/FacialAge/BNav_EC2/DepthDuration/v2_depth_duration_MTurk/v2_DepthDuration_HTML.html#283,283,1364,768,1364,768,8-29-2022,14-36-41,34,depth_duration_stimuli/000917_2014-06-09_22-45-29_260595134347_rgbf000149-resize_3/000917_2014-06-09_22-45-29_260595134347_rgbf000149-resize_3-target.png,1000,4.1865,3,4578,1000,meters,jsons/v1_VE1000_randls_42_rotated.json,895970,1293979,23,Man
34,565779,DepthScenes,duration_manipulation_targetAtFixation,jsons/v1_VE1000_randls_42_rotated.json,http://54.235.29.9/FacialAge/BNav_EC2/DepthDuration/v2_depth_duration_MTurk/v2_DepthDuration_HTML.html#283,283,1364,768,1364,768,8-29-2022,14-36-41,35,depth_duration_stimuli/002758_2014-06-22_19-11-20_094959634447_rgbf000128-resize_1/002758_2014-06-22_19-11-20_094959634447_rgbf000128-resize_1-target.png,1000,2.555,3,6938,1011,meters,jsons/v1_VE1000_randls_42_rotated.json,895970,1293979,23,Man
35,565779,DepthScenes,duration_manipulation_targetAtFixation,jsons/v1_VE1000_randls_42_rotated.json,http://54.235.29.9/FacialAge/BNav_EC2/DepthDuration/v2_depth_duration_MTurk/v2_DepthDuration_HTML.html#283,283,1364,768,1364,768,8-29-2022,14-36-41,36,depth_duration_stimuli/002630_2014-06-24_14-47-50_094959634447_rgbf000055-resize_1/002630_2014-06-24_14-47-50_094959634447_rgbf000055-resize_1-target.png,1000,3.0095,5,3534,1002,meters,jsons/v1_VE1000_randls_42_rotated.json,895970,1293979,23,Man
36,565779,DepthScenes,duration_manipulation_targetAtFixation,jsons/v1_VE1000_randls_42_rotated.json,http://54.235.29.9/FacialAge/BNav_EC2/DepthDuration/v2_depth_duration_MTurk/v2_DepthDuration_HTML.html#283,283,1364,768,1364,768,8-29-2022,14-36-41,37,depth_duration_stimuli/003129_2014-05-12_10-48-10_094959634447_rgbf000100-resize_0/003129_2014-05-12_10-48-10_094959634447_rgbf000100-resize_0-target.png,1000,4.9305,6,4953,1000,meters,jsons/v1_VE1000_randls_42_rotated.json,895970,1293979,23,Man
37,565779,DepthScenes,duration_manipulation_targetAtFixation,jsons/v1_VE1000_randls_42_rotated.json,http://54.235.29.9/FacialAge/BNav_EC2/DepthDuration/v2_depth_duration_MTurk/v2_DepthDuration_HTML.html#283,283,1364,768,1364,768,8-29-2022,14-36-41,38,depth_duration_stimuli/000414_2014-06-04_19-49-13_260595134347_rgbf000044-resize_0/000414_2014-06-04_19-49-13_260595134347_rgbf000044-resize_0-target.png,1000,4.329,5,5809,998,meters,jsons/v1_VE1000_randls_42_rotated.json,895970,1293979,23,Man
38,565779,DepthScenes,duration_manipulation_targetAtFixation,jsons/v1_VE1000_randls_42_rotated.json,http://54.235.29.9/FacialAge/BNav_EC2/DepthDuration/v2_depth_duration_MTurk/v2_DepthDuration_HTML.html#283,283,1364,768,1364,768,8-29-2022,14-36-41,39,depth_duration_stimuli/002545_2014-06-24_13-38-53_094959634447_rgbf000080-resize_4/002545_2014-06-24_13-38-53_094959634447_rgbf000080-resize_4-target.png,1000,1.9205,4,5915,1002,meters,jsons/v1_VE1000_randls_42_rotated.json,895970,1293979,23,Man
39,565779,DepthScenes,duration_manipulation_targetAtFixation,jsons/v1_VE1000_randls_42_rotated.json,http://54.235.29.9/FacialAge/BNav_EC2/DepthDuration/v2_depth_duration_MTurk/v2_DepthDuration_HTML.html#283,283,1364,768,1364,768,8-29-2022,14-36-41,40,depth_duration_stimuli/001092_2014-06-15_17-34-58_260595134347_rgbf000171-resize_3/001092_2014-06-15_17-34-58_260595134347_rgbf000171-resize_3-target.png,1000,2.6935,3,9228,999,meters,jsons/v1_VE1000_randls_42_rotated.json,895970,1293979,23,Man
40,565779,DepthScenes,duration_manipulation_targetAtFixation,jsons/v1_VE1000_randls_42_rotated.json,http://54.235.29.9/FacialAge/BNav_EC2/DepthDuration/v2_depth_duration_MTurk/v2_DepthDuration_HTML.html#283,283,1364,768,1364,768,8-29-2022,14-36-41,41,depth_duration_stimuli/001214_2014-06-17_16-13-55_260595134347_rgbf000111-resize_0/001214_2014-06-17_16-13-55_260595134347_rgbf000111-resize_0-target.png,1000,2.6505,3,8843,1001,meters,jsons/v1_VE1000_randls_42_rotated.json,895970,1293979,23,Man
41,565779,DepthScenes,duration_manipulation_targetAtFixation,jsons/v1_VE1000_randls_42_rotated.json,http://54.235.29.9/FacialAge/BNav_EC2/DepthDuration/v2_depth_duration_MTurk/v2_DepthDuration_HTML.html#283,283,1364,768,1364,768,8-29-2022,14-36-41,42,depth_duration_stimuli/000810_2014-06-08_17-20-01_260595134347_rgbf000105-resize_0/000810_2014-06-08_17-20-01_260595134347_rgbf000105-resize_0-target.png,1000,1.4865,4,5629,999,meters,jsons/v1_VE1000_randls_42_rotated.json,895970,1293979,23,Man
42,565779,DepthScenes,duration_manipulation_targetAtFixation,jsons/v1_VE1000_randls_42_rotated.json,http://54.235.29.9/FacialAge/BNav_EC2/DepthDuration/v2_depth_duration_MTurk/v2_DepthDuration_HTML.html#283,283,1364,768,1364,768,8-29-2022,14-36-41,43,depth_duration_stimuli/000665_2014-06-09_20-42-35_260595134347_rgbf000110-resize_1/000665_2014-06-09_20-42-35_260595134347_rgbf000110-resize_1-target.png,1000,3.057,5,5068,1001,meters,jsons/v1_VE1000_randls_42_rotated.json,895970,1293979,23,Man
43,565779,DepthScenes,duration_manipulation_targetAtFixation,jsons/v1_VE1000_randls_42_rotated.json,http://54.235.29.9/FacialAge/BNav_EC2/DepthDuration/v2_depth_duration_MTurk/v2_DepthDuration_HTML.html#283,283,1364,768,1364,768,8-29-2022,14-36-41,44,depth_duration_stimuli/001150_2014-06-17_15-27-34_260595134347_rgbf000108-resize_2/001150_2014-06-17_15-27-34_260595134347_rgbf000108-resize_2-target.png,1000,4.0325,6,3804,999,meters,jsons/v1_VE1000_randls_42_rotated.json,895970,1293979,23,Man
44,565779,DepthScenes,duration_manipulation_targetAtFixation,jsons/v1_VE1000_randls_42_rotated.json,http://54.235.29.9/FacialAge/BNav_EC2/DepthDuration/v2_depth_duration_MTurk/v2_DepthDuration_HTML.html#283,283,1364,768,1364,768,8-29-2022,14-36-41,45,depth_duration_stimuli/003490_2014-05-21_15-50-11_094959634447_rgbf000101-resize_3/003490_2014-05-21_15-50-11_094959634447_rgbf000101-resize_3-target.png,1000,3.6445,4,4386,1000,meters,jsons/v1_VE1000_randls_42_rotated.json,895970,1293979,23,Man
45,565779,DepthScenes,duration_manipulation_targetAtFixation,jsons/v1_VE1000_randls_42_rotated.json,http://54.235.29.9/FacialAge/BNav_EC2/DepthDuration/v2_depth_duration_MTurk/v2_DepthDuration_HTML.html#283,283,1364,768,1364,768,8-29-2022,14-36-41,46,depth_duration_stimuli/001175_2014-06-17_15-45-55_260595134347_rgbf000129-resize_4/001175_2014-06-17_15-45-55_260595134347_rgbf000129-resize_4-target.png,1000,4.255,5,3451,1001,meters,jsons/v1_VE1000_randls_42_rotated.json,895970,1293979,23,Man
46,565779,DepthScenes,duration_manipulation_targetAtFixation,jsons/v1_VE1000_randls_42_rotated.json,http://54.235.29.9/FacialAge/BNav_EC2/DepthDuration/v2_depth_duration_MTurk/v2_DepthDuration_HTML.html#283,283,1364,768,1364,768,8-29-2022,14-36-41,47,depth_duration_stimuli/000635_2014-06-08_16-38-42_260595134347_rgbf000106-resize_1/000635_2014-06-08_16-38-42_260595134347_rgbf000106-resize_1-target.png,1000,2.074,6,5713,999,meters,jsons/v1_VE1000_randls_42_rotated.json,895970,1293979,23,Man
47,565779,DepthScenes,duration_manipulation_targetAtFixation,jsons/v1_VE1000_randls_42_rotated.json,http://54.235.29.9/FacialAge/BNav_EC2/DepthDuration/v2_depth_duration_MTurk/v2_DepthDuration_HTML.html#283,283,1364,768,1364,768,8-29-2022,14-36-41,48,depth_duration_stimuli/002279_2014-06-28_18-55-32_260595134347_rgbf000040-resize_5/002279_2014-06-28_18-55-32_260595134347_rgbf000040-resize_5-target.png,1000,1.5043333333333,4,5236,992,meters,jsons/v1_VE1000_randls_42_rotated.json,895970,1293979,23,Man
48,565779,DepthScenes,duration_manipulation_targetAtFixation,jsons/v1_VE1000_randls_42_rotated.json,http://54.235.29.9/FacialAge/BNav_EC2/DepthDuration/v2_depth_duration_MTurk/v2_DepthDuration_HTML.html#283,283,1364,768,1364,768,8-29-2022,14-36-41,49,depth_duration_stimuli/001170_2014-06-17_15-43-44_260595134347_rgbf000096-resize_6/001170_2014-06-17_15-43-44_260595134347_rgbf000096-resize-original.jpg,1000,1.1909999999999998,0,3947,999,meters,jsons/v1_VE1000_randls_42_rotated.json,895970,1293979,23,Man
49,565779,DepthScenes,duration_manipulation_targetAtFixation,jsons/v1_VE1000_randls_42_rotated.json,http://54.235.29.9/FacialAge/BNav_EC2/DepthDuration/v2_depth_duration_MTurk/v2_DepthDuration_HTML.html#283,283,1364,768,1364,768,8-29-2022,14-36-41,50,depth_duration_stimuli/000191_2014-05-12_17-07-38_260595134347_rgbf000199-resize_0/000191_2014-05-12_17-07-38_260595134347_rgbf000199-resize_0-target.png,1000,3.7995,3,7917,991,meters,jsons/v1_VE1000_randls_42_rotated.json,895970,1293979,23,Man
50,565779,DepthScenes,duration_manipulation_targetAtFixation,jsons/v1_VE1000_randls_42_rotated.json,http://54.235.29.9/FacialAge/BNav_EC2/DepthDuration/v2_depth_duration_MTurk/v2_DepthDuration_HTML.html#283,283,1364,768,1364,768,8-29-2022,14-36-41,51,depth_duration_stimuli/000493_2014-06-09_21-01-18_260595134347_rgbf000196-resize_3/000493_2014-06-09_21-01-18_260595134347_rgbf000196-resize_3-target.png,1000,3.44,4,8251,1012,meters,jsons/v1_VE1000_randls_42_rotated.json,895970,1293979,23,Man
51,565779,DepthScenes,duration_manipulation_targetAtFixation,jsons/v1_VE1000_randls_42_rotated.json,http://54.235.29.9/FacialAge/BNav_EC2/DepthDuration/v2_depth_duration_MTurk/v2_DepthDuration_HTML.html#283,283,1364,768,1364,768,8-29-2022,14-36-41,52,depth_duration_stimuli/001447_2014-06-19_17-00-32_260595134347_rgbf000082-resize_5/001447_2014-06-19_17-00-32_260595134347_rgbf000082-resize_5-target.png,1000,4.13775,5,6147,1006,meters,jsons/v1_VE1000_randls_42_rotated.json,895970,1293979,23,Man
52,565779,DepthScenes,duration_manipulation_targetAtFixation,jsons/v1_VE1000_randls_42_rotated.json,http://54.235.29.9/FacialAge/BNav_EC2/DepthDuration/v2_depth_duration_MTurk/v2_DepthDuration_HTML.html#283,283,1364,768,1364,768,8-29-2022,14-36-41,53,depth_duration_stimuli/000447_2014-06-08_16-15-46_260595134347_rgbf000130-resize_1/000447_2014-06-08_16-15-46_260595134347_rgbf000130-resize_1-target.png,1000,4.479,5,4135,993,meters,jsons/v1_VE1000_randls_42_rotated.json,895970,1293979,23,Man
53,565779,DepthScenes,duration_manipulation_targetAtFixation,jsons/v1_VE1000_randls_42_rotated.json,http://54.235.29.9/FacialAge/BNav_EC2/DepthDuration/v2_depth_duration_MTurk/v2_DepthDuration_HTML.html#283,283,1364,768,1364,768,8-29-2022,14-36-41,54,depth_duration_stimuli/000457_2014-06-08_16-52-43_260595134347_rgbf000199-resize_1/000457_2014-06-08_16-52-43_260595134347_rgbf000199-resize_1-target.png,1000,3.6489999999999996,5,3911,993,meters,jsons/v1_VE1000_randls_42_rotated.json,895970,1293979,23,Man
54,565779,DepthScenes,duration_manipulation_targetAtFixation,jsons/v1_VE1000_randls_42_rotated.json,http://54.235.29.9/FacialAge/BNav_EC2/DepthDuration/v2_depth_duration_MTurk/v2_DepthDuration_HTML.html#283,283,1364,768,1364,768,8-29-2022,14-36-41,55,depth_duration_stimuli/000929_2014-06-09_16-33-19_260595134347_rgbf000139-resize_0/000929_2014-06-09_16-33-19_260595134347_rgbf000139-resize_0-target.png,1000,2.8680000000000003,6,4620,993,meters,jsons/v1_VE1000_randls_42_rotated.json,895970,1293979,23,Man
55,565779,DepthScenes,duration_manipulation_targetAtFixation,jsons/v1_VE1000_randls_42_rotated.json,http://54.235.29.9/FacialAge/BNav_EC2/DepthDuration/v2_depth_duration_MTurk/v2_DepthDuration_HTML.html#283,283,1364,768,1364,768,8-29-2022,14-36-41,56,depth_duration_stimuli/001815_2014-06-26_20-52-55_260595134347_rgbf000020-resize_0/001815_2014-06-26_20-52-55_260595134347_rgbf000020-resize_0-target.png,1000,3.3865,6,3713,1006,meters,jsons/v1_VE1000_randls_42_rotated.json,895970,1293979,23,Man
56,565779,DepthScenes,duration_manipulation_targetAtFixation,jsons/v1_VE1000_randls_42_rotated.json,http://54.235.29.9/FacialAge/BNav_EC2/DepthDuration/v2_depth_duration_MTurk/v2_DepthDuration_HTML.html#283,283,1364,768,1364,768,8-29-2022,14-36-41,57,depth_duration_stimuli/001808_2014-06-26_20-50-58_260595134347_rgbf000029-resize_1/001808_2014-06-26_20-50-58_260595134347_rgbf000029-resize_1-target.png,1000,4.249,5,4806,996,meters,jsons/v1_VE1000_randls_42_rotated.json,895970,1293979,23,Man
57,565779,DepthScenes,duration_manipulation_targetAtFixation,jsons/v1_VE1000_randls_42_rotated.json,http://54.235.29.9/FacialAge/BNav_EC2/DepthDuration/v2_depth_duration_MTurk/v2_DepthDuration_HTML.html#283,283,1364,768,1364,768,8-29-2022,14-36-41,58,depth_duration_stimuli/002136_2014-06-25_21-18-03_260595134347_rgbf000109-resize_3/002136_2014-06-25_21-18-03_260595134347_rgbf000109-resize_3-target.png,1000,1.9569999999999999,4,3604,985,meters,jsons/v1_VE1000_randls_42_rotated.json,895970,1293979,23,Man
58,565779,DepthScenes,duration_manipulation_targetAtFixation,jsons/v1_VE1000_randls_42_rotated.json,http://54.235.29.9/FacialAge/BNav_EC2/DepthDuration/v2_depth_duration_MTurk/v2_DepthDuration_HTML.html#283,283,1364,768,1364,768,8-29-2022,14-36-41,59,depth_duration_stimuli/002964_2014-06-08_17-46-11_094959634447_rgbf000091-resize_4/002964_2014-06-08_17-46-11_094959634447_rgbf000091-resize_4-target.png,1000,1.6909999999999998,2,3362,1000,meters,jsons/v1_VE1000_randls_42_rotated.json,895970,1293979,23,Man
59,565779,DepthScenes,duration_manipulation_targetAtFixation,jsons/v1_VE1000_randls_42_rotated.json,http://54.235.29.9/FacialAge/BNav_EC2/DepthDuration/v2_depth_duration_MTurk/v2_DepthDuration_HTML.html#283,283,1364,768,1364,768,8-29-2022,14-36-41,60,depth_duration_stimuli/001132_2014-06-17_14-48-54_260595134347_rgbf000100-resize_2/001132_2014-06-17_14-48-54_260595134347_rgbf000100-resize_2-target.png,1000,3.753,5,4528,990,meters,jsons/v1_VE1000_randls_42_rotated.json,895970,1293979,23,Man
60,565779,DepthScenes,duration_manipulation_targetAtFixation,jsons/v1_VE1000_randls_42_rotated.json,http://54.235.29.9/FacialAge/BNav_EC2/DepthDuration/v2_depth_duration_MTurk/v2_DepthDuration_HTML.html#283,283,1364,768,1364,768,8-29-2022,14-36-41,61,depth_duration_stimuli/001133_2014-06-17_14-49-16_260595134347_rgbf000100-resize_0/001133_2014-06-17_14-49-16_260595134347_rgbf000100-resize_0-target.png,1000,4.2115,6,4315,1013,meters,jsons/v1_VE1000_randls_42_rotated.json,895970,1293979,23,Man
61,565779,DepthScenes,duration_manipulation_targetAtFixation,jsons/v1_VE1000_randls_42_rotated.json,http://54.235.29.9/FacialAge/BNav_EC2/DepthDuration/v2_depth_duration_MTurk/v2_DepthDuration_HTML.html#283,283,1364,768,1364,768,8-29-2022,14-36-41,62,depth_duration_stimuli/000677_2014-06-08_23-10-32_260595134347_rgbf000158-resize_6/000677_2014-06-08_23-10-32_260595134347_rgbf000158-resize_6-target.png,1000,3.556,5,4432,1011,meters,jsons/v1_VE1000_randls_42_rotated.json,895970,1293979,23,Man
62,565779,DepthScenes,duration_manipulation_targetAtFixation,jsons/v1_VE1000_randls_42_rotated.json,http://54.235.29.9/FacialAge/BNav_EC2/DepthDuration/v2_depth_duration_MTurk/v2_DepthDuration_HTML.html#283,283,1364,768,1364,768,8-29-2022,14-36-41,63,depth_duration_stimuli/001029_2014-06-08_13-17-57_260595134347_rgbf000065-resize_1/001029_2014-06-08_13-17-57_260595134347_rgbf000065-resize_1-target.png,1000,3.0835,2,39321,1005,meters,jsons/v1_VE1000_randls_42_rotated.json,895970,1293979,23,Man
63,565779,DepthScenes,duration_manipulation_targetAtFixation,jsons/v1_VE1000_randls_42_rotated.json,http://54.235.29.9/FacialAge/BNav_EC2/DepthDuration/v2_depth_duration_MTurk/v2_DepthDuration_HTML.html#283,283,1364,768,1364,768,8-29-2022,14-36-41,64,depth_duration_stimuli/002660_2014-06-13_15-44-18_094959634447_rgbf001878-resize_2/002660_2014-06-13_15-44-18_094959634447_rgbf001878-resize_2-target.png,1000,3.576,6,5116,1000,meters,jsons/v1_VE1000_randls_42_rotated.json,895970,1293979,23,Man
64,565779,DepthScenes,duration_manipulation_targetAtFixation,jsons/v1_VE1000_randls_42_rotated.json,http://54.235.29.9/FacialAge/BNav_EC2/DepthDuration/v2_depth_duration_MTurk/v2_DepthDuration_HTML.html#283,283,1364,768,1364,768,8-29-2022,14-36-41,65,depth_duration_stimuli/002153_2014-06-25_21-27-18_260595134347_rgbf000038-resize_5/002153_2014-06-25_21-27-18_260595134347_rgbf000038-resize_5-target.png,1000,2.505,5,3273,998,meters,jsons/v1_VE1000_randls_42_rotated.json,895970,1293979,23,Man
65,565779,DepthScenes,duration_manipulation_targetAtFixation,jsons/v1_VE1000_randls_42_rotated.json,http://54.235.29.9/FacialAge/BNav_EC2/DepthDuration/v2_depth_duration_MTurk/v2_DepthDuration_HTML.html#283,283,1364,768,1364,768,8-29-2022,14-36-41,66,depth_duration_stimuli/001540_2014-06-20_17-01-05_260595134347_rgbf000086-resize_2/001540_2014-06-20_17-01-05_260595134347_rgbf000086-resize-original.jpg,1000,1.459,0,8909,1004,meters,jsons/v1_VE1000_randls_42_rotated.json,895970,1293979,23,Man
66,565779,DepthScenes,duration_manipulation_targetAtFixation,jsons/v1_VE1000_randls_42_rotated.json,http://54.235.29.9/FacialAge/BNav_EC2/DepthDuration/v2_depth_duration_MTurk/v2_DepthDuration_HTML.html#283,283,1364,768,1364,768,8-29-2022,14-36-41,67,depth_duration_stimuli/002414_2014-06-28_20-24-58_260595134347_rgbf000067-resize_4/002414_2014-06-28_20-24-58_260595134347_rgbf000067-resize_4-target.png,1000,4.363,5,9241,1000,meters,jsons/v1_VE1000_randls_42_rotated.json,895970,1293979,23,Man
67,565779,DepthScenes,duration_manipulation_targetAtFixation,jsons/v1_VE1000_randls_42_rotated.json,http://54.235.29.9/FacialAge/BNav_EC2/DepthDuration/v2_depth_duration_MTurk/v2_DepthDuration_HTML.html#283,283,1364,768,1364,768,8-29-2022,14-36-41,68,depth_duration_stimuli/000773_2014-06-08_22-24-54_260595134347_rgbf000093-resize_1/000773_2014-06-08_22-24-54_260595134347_rgbf000093-resize_1-target.png,1000,4.973,6,4979,1000,meters,jsons/v1_VE1000_randls_42_rotated.json,895970,1293979,23,Man
68,565779,DepthScenes,duration_manipulation_targetAtFixation,jsons/v1_VE1000_randls_42_rotated.json,http://54.235.29.9/FacialAge/BNav_EC2/DepthDuration/v2_depth_duration_MTurk/v2_DepthDuration_HTML.html#283,283,1364,768,1364,768,8-29-2022,14-36-41,69,depth_duration_stimuli/003423_2014-05-21_10-23-26_094959634447_rgbf002665-resize_2/003423_2014-05-21_10-23-26_094959634447_rgbf002665-resize_2-target.png,1000,3.2575,6,4726,990,meters,jsons/v1_VE1000_randls_42_rotated.json,895970,1293979,23,Man
69,565779,DepthScenes,duration_manipulation_targetAtFixation,jsons/v1_VE1000_randls_42_rotated.json,http://54.235.29.9/FacialAge/BNav_EC2/DepthDuration/v2_depth_duration_MTurk/v2_DepthDuration_HTML.html#283,283,1364,768,1364,768,8-29-2022,14-36-41,70,depth_duration_stimuli/002905_2014-06-03_18-04-43_094959634447_rgbf000151-resize_2/002905_2014-06-03_18-04-43_094959634447_rgbf000151-resize_2-target.png,1000,2.0295,5,3467,999,meters,jsons/v1_VE1000_randls_42_rotated.json,895970,1293979,23,Man
70,565779,DepthScenes,duration_manipulation_targetAtFixation,jsons/v1_VE1000_randls_42_rotated.json,http://54.235.29.9/FacialAge/BNav_EC2/DepthDuration/v2_depth_duration_MTurk/v2_DepthDuration_HTML.html#283,283,1364,768,1364,768,8-29-2022,14-36-41,71,depth_duration_stimuli/002750_2014-06-22_19-08-03_094959634447_rgbf000094-resize_4/002750_2014-06-22_19-08-03_094959634447_rgbf000094-resize_4-target.png,1000,2.354,3,3764,1001,meters,jsons/v1_VE1000_randls_42_rotated.json,895970,1293979,23,Man
71,565779,DepthScenes,duration_manipulation_targetAtFixation,jsons/v1_VE1000_randls_42_rotated.json,http://54.235.29.9/FacialAge/BNav_EC2/DepthDuration/v2_depth_duration_MTurk/v2_DepthDuration_HTML.html#283,283,1364,768,1364,768,8-29-2022,14-36-41,72,depth_duration_stimuli/002549_2014-06-24_13-41-39_094959634447_rgbf000022-resize_3/002549_2014-06-24_13-41-39_094959634447_rgbf000022-resize_3-target.png,1000,1.476,5,4147,1000,meters,jsons/v1_VE1000_randls_42_rotated.json,895970,1293979,23,Man
72,565779,DepthScenes,duration_manipulation_targetAtFixation,jsons/v1_VE1000_randls_42_rotated.json,http://54.235.29.9/FacialAge/BNav_EC2/DepthDuration/v2_depth_duration_MTurk/v2_DepthDuration_HTML.html#283,283,1364,768,1364,768,8-29-2022,14-36-41,73,depth_duration_stimuli/000109_2014-05-14_23-41-52_260595134347_rgbf000035-resize_9/000109_2014-05-14_23-41-52_260595134347_rgbf000035-resize_9-target.png,1000,1.3545,4,4491,1000,meters,jsons/v1_VE1000_randls_42_rotated.json,895970,1293979,23,Man
73,565779,DepthScenes,duration_manipulation_targetAtFixation,jsons/v1_VE1000_randls_42_rotated.json,http://54.235.29.9/FacialAge/BNav_EC2/DepthDuration/v2_depth_duration_MTurk/v2_DepthDuration_HTML.html#283,283,1364,768,1364,768,8-29-2022,14-36-41,74,depth_duration_stimuli/000470_2014-06-09_19-42-40_260595134347_rgbf000094-resize_1/000470_2014-06-09_19-42-40_260595134347_rgbf000094-resize_1-target.png,1000,1.831,5,5404,1000,meters,jsons/v1_VE1000_randls_42_rotated.json,895970,1293979,23,Man
74,565779,DepthScenes,duration_manipulation_targetAtFixation,jsons/v1_VE1000_randls_42_rotated.json,http://54.235.29.9/FacialAge/BNav_EC2/DepthDuration/v2_depth_duration_MTurk/v2_DepthDuration_HTML.html#283,283,1364,768,1364,768,8-29-2022,14-36-41,75,depth_duration_stimuli/000943_2014-06-09_19-31-07_260595134347_rgbf000128-resize_1/000943_2014-06-09_19-31-07_260595134347_rgbf000128-resize_1-target.png,1000,1.9765,5,4407,1001,meters,jsons/v1_VE1000_randls_42_rotated.json,895970,1293979,23,Man
75,565779,DepthScenes,duration_manipulation_targetAtFixation,jsons/v1_VE1000_randls_42_rotated.json,http://54.235.29.9/FacialAge/BNav_EC2/DepthDuration/v2_depth_duration_MTurk/v2_DepthDuration_HTML.html#283,283,1364,768,1364,768,8-29-2022,14-36-41,76,depth_duration_stimuli/003070_2014-06-15_14-58-27_094959634447_rgbf000150-resize_3/003070_2014-06-15_14-58-27_094959634447_rgbf000150-resize_3-target.png,1000,2.9415,5,4538,1000,meters,jsons/v1_VE1000_randls_42_rotated.json,895970,1293979,23,Man
76,565779,DepthScenes,duration_manipulation_targetAtFixation,jsons/v1_VE1000_randls_42_rotated.json,http://54.235.29.9/FacialAge/BNav_EC2/DepthDuration/v2_depth_duration_MTurk/v2_DepthDuration_HTML.html#283,283,1364,768,1364,768,8-29-2022,14-36-41,77,depth_duration_stimuli/002444_2014-06-28_20-32-08_260595134347_rgbf000027-resize_0/002444_2014-06-28_20-32-08_260595134347_rgbf000027-resize_0-target.png,1000,4.388999999999999,6,4286,1005,meters,jsons/v1_VE1000_randls_42_rotated.json,895970,1293979,23,Man
77,565779,DepthScenes,duration_manipulation_targetAtFixation,jsons/v1_VE1000_randls_42_rotated.json,http://54.235.29.9/FacialAge/BNav_EC2/DepthDuration/v2_depth_duration_MTurk/v2_DepthDuration_HTML.html#283,283,1364,768,1364,768,8-29-2022,14-36-41,78,depth_duration_stimuli/000436_2014-06-09_22-25-11_260595134347_rgbf000137-resize_1/000436_2014-06-09_22-25-11_260595134347_rgbf000137-resize_1-target.png,1000,4.0705,5,3105,1000,meters,jsons/v1_VE1000_randls_42_rotated.json,895970,1293979,23,Man
78,565779,DepthScenes,duration_manipulation_targetAtFixation,jsons/v1_VE1000_randls_42_rotated.json,http://54.235.29.9/FacialAge/BNav_EC2/DepthDuration/v2_depth_duration_MTurk/v2_DepthDuration_HTML.html#283,283,1364,768,1364,768,8-29-2022,14-36-41,79,depth_duration_stimuli/001584_2014-06-20_11-07-43_260595134347_rgbf000002-resize_1/001584_2014-06-20_11-07-43_260595134347_rgbf000002-resize_1-target.png,1000,3.53,6,3220,988,meters,jsons/v1_VE1000_randls_42_rotated.json,895970,1293979,23,Man
79,565779,DepthScenes,duration_manipulation_targetAtFixation,jsons/v1_VE1000_randls_42_rotated.json,http://54.235.29.9/FacialAge/BNav_EC2/DepthDuration/v2_depth_duration_MTurk/v2_DepthDuration_HTML.html#283,283,1364,768,1364,768,8-29-2022,14-36-41,80,depth_duration_stimuli/003621_2014-05-23_18-06-08_094959634447_rgbf000101-resize_1/003621_2014-05-23_18-06-08_094959634447_rgbf000101-resize_1-target.png,1000,3.9835,4,2947,1001,meters,jsons/v1_VE1000_randls_42_rotated.json,895970,1293979,23,Man
80,565779,DepthScenes,duration_manipulation_targetAtFixation,jsons/v1_VE1000_randls_42_rotated.json,http://54.235.29.9/FacialAge/BNav_EC2/DepthDuration/v2_depth_duration_MTurk/v2_DepthDuration_HTML.html#283,283,1364,768,1364,768,8-29-2022,14-36-41,81,depth_duration_stimuli/001392_2014-06-19_16-07-59_260595134347_rgbf000046-resize_1/001392_2014-06-19_16-07-59_260595134347_rgbf000046-resize_1-target.png,1000,4.135,6,3427,999,meters,jsons/v1_VE1000_randls_42_rotated.json,895970,1293979,23,Man
81,565779,DepthScenes,duration_manipulation_targetAtFixation,jsons/v1_VE1000_randls_42_rotated.json,http://54.235.29.9/FacialAge/BNav_EC2/DepthDuration/v2_depth_duration_MTurk/v2_DepthDuration_HTML.html#283,283,1364,768,1364,768,8-29-2022,14-36-41,82,depth_duration_stimuli/001570_2014-06-20_17-21-09_260595134347_rgbf000135-resize_4/001570_2014-06-20_17-21-09_260595134347_rgbf000135-resize_4-target.png,1000,4.467,4,4074,1002,meters,jsons/v1_VE1000_randls_42_rotated.json,895970,1293979,23,Man
82,565779,DepthScenes,duration_manipulation_targetAtFixation,jsons/v1_VE1000_randls_42_rotated.json,http://54.235.29.9/FacialAge/BNav_EC2/DepthDuration/v2_depth_duration_MTurk/v2_DepthDuration_HTML.html#283,283,1364,768,1364,768,8-29-2022,14-36-41,83,depth_duration_stimuli/002103_2014-06-25_20-00-40_260595134347_rgbf000049-resize_0/002103_2014-06-25_20-00-40_260595134347_rgbf000049-resize_0-target.png,1000,4.105,5,3440,984,meters,jsons/v1_VE1000_randls_42_rotated.json,895970,1293979,23,Man
83,565779,DepthScenes,duration_manipulation_targetAtFixation,jsons/v1_VE1000_randls_42_rotated.json,http://54.235.29.9/FacialAge/BNav_EC2/DepthDuration/v2_depth_duration_MTurk/v2_DepthDuration_HTML.html#283,283,1364,768,1364,768,8-29-2022,14-36-41,84,depth_duration_stimuli/002039_2014-06-24_20-22-38_260595134347_rgbf000084-resize_1/002039_2014-06-24_20-22-38_260595134347_rgbf000084-resize_1-target.png,1000,4.408,6,3707,1003,meters,jsons/v1_VE1000_randls_42_rotated.json,895970,1293979,23,Man
84,565779,DepthScenes,duration_manipulation_targetAtFixation,jsons/v1_VE1000_randls_42_rotated.json,http://54.235.29.9/FacialAge/BNav_EC2/DepthDuration/v2_depth_duration_MTurk/v2_DepthDuration_HTML.html#283,283,1364,768,1364,768,8-29-2022,14-36-41,85,depth_duration_stimuli/001450_2014-06-19_17-02-03_260595134347_rgbf000203-resize_4/001450_2014-06-19_17-02-03_260595134347_rgbf000203-resize_4-target.png,1000,4.0106666666667,5,3530,1010,meters,jsons/v1_VE1000_randls_42_rotated.json,895970,1293979,23,Man
85,565779,DepthScenes,duration_manipulation_targetAtFixation,jsons/v1_VE1000_randls_42_rotated.json,http://54.235.29.9/FacialAge/BNav_EC2/DepthDuration/v2_depth_duration_MTurk/v2_DepthDuration_HTML.html#283,283,1364,768,1364,768,8-29-2022,14-36-41,86,depth_duration_stimuli/001449_2014-06-19_17-01-27_260595134347_rgbf000116-resize_2/001449_2014-06-19_17-01-27_260595134347_rgbf000116-resize_2-target.png,1000,3.452,6,3269,1000,meters,jsons/v1_VE1000_randls_42_rotated.json,895970,1293979,23,Man
86,565779,DepthScenes,duration_manipulation_targetAtFixation,jsons/v1_VE1000_randls_42_rotated.json,http://54.235.29.9/FacialAge/BNav_EC2/DepthDuration/v2_depth_duration_MTurk/v2_DepthDuration_HTML.html#283,283,1364,768,1364,768,8-29-2022,14-36-41,87,depth_duration_stimuli/000483_2014-06-09_20-41-45_260595134347_rgbf000116-resize_4/000483_2014-06-09_20-41-45_260595134347_rgbf000116-resize_4-target.png,1000,1.337,5,3240,999,meters,jsons/v1_VE1000_randls_42_rotated.json,895970,1293979,23,Man
87,565779,DepthScenes,duration_manipulation_targetAtFixation,jsons/v1_VE1000_randls_42_rotated.json,http://54.235.29.9/FacialAge/BNav_EC2/DepthDuration/v2_depth_duration_MTurk/v2_DepthDuration_HTML.html#283,283,1364,768,1364,768,8-29-2022,14-36-41,88,depth_duration_stimuli/000469_2014-06-09_19-42-10_260595134347_rgbf000081-resize_1/000469_2014-06-09_19-42-10_260595134347_rgbf000081-resize_1-target.png,1000,1.652,4,3403,991,meters,jsons/v1_VE1000_randls_42_rotated.json,895970,1293979,23,Man
88,565779,DepthScenes,duration_manipulation_targetAtFixation,jsons/v1_VE1000_randls_42_rotated.json,http://54.235.29.9/FacialAge/BNav_EC2/DepthDuration/v2_depth_duration_MTurk/v2_DepthDuration_HTML.html#283,283,1364,768,1364,768,8-29-2022,14-36-41,89,depth_duration_stimuli/000409_2014-06-04_19-23-33_260595134347_rgbf000067-resize_0/000409_2014-06-04_19-23-33_260595134347_rgbf000067-resize_0-target.png,1000,3.7335,5,3812,1001,meters,jsons/v1_VE1000_randls_42_rotated.json,895970,1293979,23,Man
89,565779,DepthScenes,duration_manipulation_targetAtFixation,jsons/v1_VE1000_randls_42_rotated.json,http://54.235.29.9/FacialAge/BNav_EC2/DepthDuration/v2_depth_duration_MTurk/v2_DepthDuration_HTML.html#283,283,1364,768,1364,768,8-29-2022,14-36-41,90,depth_duration_stimuli/002663_2014-06-13_15-50-26_094959634447_rgbf000075-resize_1/002663_2014-06-13_15-50-26_094959634447_rgbf000075-resize_1-target.png,1000,4.7495,6,3419,1000,meters,jsons/v1_VE1000_randls_42_rotated.json,895970,1293979,23,Man
90,565779,DepthScenes,duration_manipulation_targetAtFixation,jsons/v1_VE1000_randls_42_rotated.json,http://54.235.29.9/FacialAge/BNav_EC2/DepthDuration/v2_depth_duration_MTurk/v2_DepthDuration_HTML.html#283,283,1364,768,1364,768,8-29-2022,14-36-41,91,depth_duration_stimuli/002949_2014-06-26_15-57-42_094959634447_rgbf000079-resize_1/002949_2014-06-26_15-57-42_094959634447_rgbf000079-resize_1-target.png,1000,1.8915,2,3434,1009,meters,jsons/v1_VE1000_randls_42_rotated.json,895970,1293979,23,Man
91,565779,DepthScenes,duration_manipulation_targetAtFixation,jsons/v1_VE1000_randls_42_rotated.json,http://54.235.29.9/FacialAge/BNav_EC2/DepthDuration/v2_depth_duration_MTurk/v2_DepthDuration_HTML.html#283,283,1364,768,1364,768,8-29-2022,14-36-41,92,depth_duration_stimuli/000522_2014-06-08_13-35-06_260595134347_rgbf000244-resize_1/000522_2014-06-08_13-35-06_260595134347_rgbf000244-resize_1-target.png,1000,2.3715,2,3035,1007,meters,jsons/v1_VE1000_randls_42_rotated.json,895970,1293979,23,Man
92,565779,DepthScenes,duration_manipulation_targetAtFixation,jsons/v1_VE1000_randls_42_rotated.json,http://54.235.29.9/FacialAge/BNav_EC2/DepthDuration/v2_depth_duration_MTurk/v2_DepthDuration_HTML.html#283,283,1364,768,1364,768,8-29-2022,14-36-41,93,depth_duration_stimuli/000691_2014-06-08_13-08-50_260595134347_rgbf000132-resize_3/000691_2014-06-08_13-08-50_260595134347_rgbf000132-resize_3-target.png,1000,4.1530000000000005,6,3553,999,meters,jsons/v1_VE1000_randls_42_rotated.json,895970,1293979,23,Man
93,565779,DepthScenes,duration_manipulation_targetAtFixation,jsons/v1_VE1000_randls_42_rotated.json,http://54.235.29.9/FacialAge/BNav_EC2/DepthDuration/v2_depth_duration_MTurk/v2_DepthDuration_HTML.html#283,283,1364,768,1364,768,8-29-2022,14-36-41,94,depth_duration_stimuli/002213_2014-06-28_18-37-58_260595134347_rgbf000055-resize_1/002213_2014-06-28_18-37-58_260595134347_rgbf000055-resize_1-target.png,1000,3.62,3,13083,1008,meters,jsons/v1_VE1000_randls_42_rotated.json,895970,1293979,23,Man
94,565779,DepthScenes,duration_manipulation_targetAtFixation,jsons/v1_VE1000_randls_42_rotated.json,http://54.235.29.9/FacialAge/BNav_EC2/DepthDuration/v2_depth_duration_MTurk/v2_DepthDuration_HTML.html#283,283,1364,768,1364,768,8-29-2022,14-36-41,95,depth_duration_stimuli/002467_2014-06-28_20-38-07_260595134347_rgbf000026-resize_2/002467_2014-06-28_20-38-07_260595134347_rgbf000026-resize_2-target.png,1000,4.742,5,3123,1009,meters,jsons/v1_VE1000_randls_42_rotated.json,895970,1293979,23,Man
95,565779,DepthScenes,duration_manipulation_targetAtFixation,jsons/v1_VE1000_randls_42_rotated.json,http://54.235.29.9/FacialAge/BNav_EC2/DepthDuration/v2_depth_duration_MTurk/v2_DepthDuration_HTML.html#283,283,1364,768,1364,768,8-29-2022,14-36-41,96,depth_duration_stimuli/002570_2014-06-24_13-59-54_094959634447_rgbf000059-resize_0/002570_2014-06-24_13-59-54_094959634447_rgbf000059-resize_0-target.png,1000,4.037,6,2892,999,meters,jsons/v1_VE1000_randls_42_rotated.json,895970,1293979,23,Man
96,565779,DepthScenes,duration_manipulation_targetAtFixation,jsons/v1_VE1000_randls_42_rotated.json,http://54.235.29.9/FacialAge/BNav_EC2/DepthDuration/v2_depth_duration_MTurk/v2_DepthDuration_HTML.html#283,283,1364,768,1364,768,8-29-2022,14-36-41,97,depth_duration_stimuli/003048_2014-06-15_13-49-43_094959634447_rgbf000150-resize_1/003048_2014-06-15_13-49-43_094959634447_rgbf000150-resize_1-target.png,1000,4.0035,5,4536,992,meters,jsons/v1_VE1000_randls_42_rotated.json,895970,1293979,23,Man
97,565779,DepthScenes,duration_manipulation_targetAtFixation,jsons/v1_VE1000_randls_42_rotated.json,http://54.235.29.9/FacialAge/BNav_EC2/DepthDuration/v2_depth_duration_MTurk/v2_DepthDuration_HTML.html#283,283,1364,768,1364,768,8-29-2022,14-36-41,98,depth_duration_stimuli/002043_2014-06-24_20-29-38_260595134347_rgbf000039-resize_4/002043_2014-06-24_20-29-38_260595134347_rgbf000039-resize_4-target.png,1000,2.8435,5,2938,1000,meters,jsons/v1_VE1000_randls_42_rotated.json,895970,1293979,23,Man
98,565779,DepthScenes,duration_manipulation_targetAtFixation,jsons/v1_VE1000_randls_42_rotated.json,http://54.235.29.9/FacialAge/BNav_EC2/DepthDuration/v2_depth_duration_MTurk/v2_DepthDuration_HTML.html#283,283,1364,768,1364,768,8-29-2022,14-36-41,99,depth_duration_stimuli/001222_2014-06-17_16-24-06_260595134347_rgbf000073-resize_0/001222_2014-06-17_16-24-06_260595134347_rgbf000073-resize-original.jpg,1000,1.4385,0,3578,1000,meters,jsons/v1_VE1000_randls_42_rotated.json,895970,1293979,23,Man
99,565779,DepthScenes,duration_manipulation_targetAtFixation,jsons/v1_VE1000_randls_42_rotated.json,http://54.235.29.9/FacialAge/BNav_EC2/DepthDuration/v2_depth_duration_MTurk/v2_DepthDuration_HTML.html#283,283,1364,768,1364,768,8-29-2022,14-36-41,100,depth_duration_stimuli/001032_2014-06-08_13-23-17_260595134347_rgbf000021-resize_3/001032_2014-06-08_13-23-17_260595134347_rgbf000021-resize_3-target.png,1000,3.2725,4,4983,990,meters,jsons/v1_VE1000_randls_42_rotated.json,895970,1293979,23,Man
100,565779,DepthScenes,duration_manipulation_targetAtFixation,jsons/v1_VE1000_randls_42_rotated.json,http://54.235.29.9/FacialAge/BNav_EC2/DepthDuration/v2_depth_duration_MTurk/v2_DepthDuration_HTML.html#283,283,1364,768,1364,768,8-29-2022,14-36-41,101,depth_duration_stimuli/001059_2014-06-08_21-53-27_260595134347_rgbf000061-resize_4/001059_2014-06-08_21-53-27_260595134347_rgbf000061-resize_4-target.png,1000,2.4185,4,3125,985,meters,jsons/v1_VE1000_randls_42_rotated.json,895970,1293979,23,Man
101,565779,DepthScenes,duration_manipulation_targetAtFixation,jsons/v1_VE1000_randls_42_rotated.json,http://54.235.29.9/FacialAge/BNav_EC2/DepthDuration/v2_depth_duration_MTurk/v2_DepthDuration_HTML.html#283,283,1364,768,1364,768,8-29-2022,14-36-41,102,depth_duration_stimuli/002340_2014-06-28_20-05-46_260595134347_rgbf000113-resize_0/002340_2014-06-28_20-05-46_260595134347_rgbf000113-resize_0-target.png,1000,2.4735,5,3195,1001,meters,jsons/v1_VE1000_randls_42_rotated.json,895970,1293979,23,Man
102,565779,DepthScenes,duration_manipulation_targetAtFixation,jsons/v1_VE1000_randls_42_rotated.json,http://54.235.29.9/FacialAge/BNav_EC2/DepthDuration/v2_depth_duration_MTurk/v2_DepthDuration_HTML.html#283,283,1364,768,1364,768,8-29-2022,14-36-41,103,depth_duration_stimuli/001016_2014-06-09_16-16-10_260595134347_rgbf000112-resize_5/001016_2014-06-09_16-16-10_260595134347_rgbf000112-resize_5-target.png,1000,1.6565,5,3828,1002,meters,jsons/v1_VE1000_randls_42_rotated.json,895970,1293979,23,Man
103,565779,DepthScenes,duration_manipulation_targetAtFixation,jsons/v1_VE1000_randls_42_rotated.json,http://54.235.29.9/FacialAge/BNav_EC2/DepthDuration/v2_depth_duration_MTurk/v2_DepthDuration_HTML.html#283,283,1364,768,1364,768,8-29-2022,14-36-41,104,depth_duration_stimuli/003587_2014-05-23_16-48-02_094959634447_rgbf002384-resize_2/003587_2014-05-23_16-48-02_094959634447_rgbf002384-resize_2-target.png,1000,1.357,4,4125,1003,meters,jsons/v1_VE1000_randls_42_rotated.json,895970,1293979,23,Man
104,565779,DepthScenes,duration_manipulation_targetAtFixation,jsons/v1_VE1000_randls_42_rotated.json,http://54.235.29.9/FacialAge/BNav_EC2/DepthDuration/v2_depth_duration_MTurk/v2_DepthDuration_HTML.html#283,283,1364,768,1364,768,8-29-2022,14-36-41,105,depth_duration_stimuli/001167_2014-06-17_15-38-07_260595134347_rgbf000108-resize_0/001167_2014-06-17_15-38-07_260595134347_rgbf000108-resize_0-target.png,1000,1.8505,4,6408,1001,meters,jsons/v1_VE1000_randls_42_rotated.json,895970,1293979,23,Man
105,565779,DepthScenes,duration_manipulation_targetAtFixation,jsons/v1_VE1000_randls_42_rotated.json,http://54.235.29.9/FacialAge/BNav_EC2/DepthDuration/v2_depth_duration_MTurk/v2_DepthDuration_HTML.html#283,283,1364,768,1364,768,8-29-2022,14-36-41,106,depth_duration_stimuli/000749_2014-06-08_21-55-06_260595134347_rgbf000070-resize_2/000749_2014-06-08_21-55-06_260595134347_rgbf000070-resize_2-target.png,1000,2.331,5,6629,986,meters,jsons/v1_VE1000_randls_42_rotated.json,895970,1293979,23,Man
106,565779,DepthScenes,duration_manipulation_targetAtFixation,jsons/v1_VE1000_randls_42_rotated.json,http://54.235.29.9/FacialAge/BNav_EC2/DepthDuration/v2_depth_duration_MTurk/v2_DepthDuration_HTML.html#283,283,1364,768,1364,768,8-29-2022,14-36-41,107,depth_duration_stimuli/002788_2014-06-22_19-36-03_094959634447_rgbf000088-resize_2/002788_2014-06-22_19-36-03_094959634447_rgbf000088-resize_2-target.png,1000,1.6465,4,4002,1002,meters,jsons/v1_VE1000_randls_42_rotated.json,895970,1293979,23,Man
107,565779,DepthScenes,duration_manipulation_targetAtFixation,jsons/v1_VE1000_randls_42_rotated.json,http://54.235.29.9/FacialAge/BNav_EC2/DepthDuration/v2_depth_duration_MTurk/v2_DepthDuration_HTML.html#283,283,1364,768,1364,768,8-29-2022,14-36-41,108,depth_duration_stimuli/001094_2014-06-15_17-36-00_260595134347_rgbf000205-resize_0/001094_2014-06-15_17-36-00_260595134347_rgbf000205-resize_0-target.png,1000,4.2175,5,5130,1000,meters,jsons/v1_VE1000_randls_42_rotated.json,895970,1293979,23,Man
108,565779,DepthScenes,duration_manipulation_targetAtFixation,jsons/v1_VE1000_randls_42_rotated.json,http://54.235.29.9/FacialAge/BNav_EC2/DepthDuration/v2_depth_duration_MTurk/v2_DepthDuration_HTML.html#283,283,1364,768,1364,768,8-29-2022,14-36-41,109,depth_duration_stimuli/000692_2014-06-08_13-09-42_260595134347_rgbf000199-resize_2/000692_2014-06-08_13-09-42_260595134347_rgbf000199-resize_2-target.png,1000,3.661,5,3623,1003,meters,jsons/v1_VE1000_randls_42_rotated.json,895970,1293979,23,Man
109,565779,DepthScenes,duration_manipulation_targetAtFixation,jsons/v1_VE1000_randls_42_rotated.json,http://54.235.29.9/FacialAge/BNav_EC2/DepthDuration/v2_depth_duration_MTurk/v2_DepthDuration_HTML.html#283,283,1364,768,1364,768,8-29-2022,14-36-41,110,depth_duration_stimuli/002953_2014-06-08_17-32-18_094959634447_rgbf000059-resize_5/002953_2014-06-08_17-32-18_094959634447_rgbf000059-resize_5-target.png,1000,1.551,4,7923,1015,meters,jsons/v1_VE1000_randls_42_rotated.json,895970,1293979,23,Man
110,565779,DepthScenes,duration_manipulation_targetAtFixation,jsons/v1_VE1000_randls_42_rotated.json,http://54.235.29.9/FacialAge/BNav_EC2/DepthDuration/v2_depth_duration_MTurk/v2_DepthDuration_HTML.html#283,283,1364,768,1364,768,8-29-2022,14-36-41,111,depth_duration_stimuli/000878_2014-06-08_22-52-45_260595134347_rgbf000045-resize_2/000878_2014-06-08_22-52-45_260595134347_rgbf000045-resize_2-target.png,1000,2.092,5,3795,1008,meters,jsons/v1_VE1000_randls_42_rotated.json,895970,1293979,23,Man
111,565779,DepthScenes,duration_manipulation_targetAtFixation,jsons/v1_VE1000_randls_42_rotated.json,http://54.235.29.9/FacialAge/BNav_EC2/DepthDuration/v2_depth_duration_MTurk/v2_DepthDuration_HTML.html#283,283,1364,768,1364,768,8-29-2022,14-36-41,112,depth_duration_stimuli/002425_2014-06-28_20-27-29_260595134347_rgbf000031-resize_8/002425_2014-06-28_20-27-29_260595134347_rgbf000031-resize_8-target.png,1000,3.8960000000000004,4,6551,1007,meters,jsons/v1_VE1000_randls_42_rotated.json,895970,1293979,23,Man
112,565779,DepthScenes,duration_manipulation_targetAtFixation,jsons/v1_VE1000_randls_42_rotated.json,http://54.235.29.9/FacialAge/BNav_EC2/DepthDuration/v2_depth_duration_MTurk/v2_DepthDuration_HTML.html#283,283,1364,768,1364,768,8-29-2022,14-36-41,113,depth_duration_stimuli/000642_2014-06-08_16-59-25_260595134347_rgbf000098-resize_2/000642_2014-06-08_16-59-25_260595134347_rgbf000098-resize_2-target.png,1000,2.8815,5,3680,996,meters,jsons/v1_VE1000_randls_42_rotated.json,895970,1293979,23,Man
113,565779,DepthScenes,duration_manipulation_targetAtFixation,jsons/v1_VE1000_randls_42_rotated.json,http://54.235.29.9/FacialAge/BNav_EC2/DepthDuration/v2_depth_duration_MTurk/v2_DepthDuration_HTML.html#283,283,1364,768,1364,768,8-29-2022,14-36-41,114,depth_duration_stimuli/000734_2014-06-08_17-39-11_260595134347_rgbf000128-resize_2/000734_2014-06-08_17-39-11_260595134347_rgbf000128-resize_2-target.png,1000,4.098,6,8481,1009,meters,jsons/v1_VE1000_randls_42_rotated.json,895970,1293979,23,Man
114,565779,DepthScenes,duration_manipulation_targetAtFixation,jsons/v1_VE1000_randls_42_rotated.json,http://54.235.29.9/FacialAge/BNav_EC2/DepthDuration/v2_depth_duration_MTurk/v2_DepthDuration_HTML.html#283,283,1364,768,1364,768,8-29-2022,14-36-41,115,depth_duration_stimuli/000739_2014-06-08_18-45-58_260595134347_rgbf000068-resize_1/000739_2014-06-08_18-45-58_260595134347_rgbf000068-resize_1-target.png,1000,3.534,4,4954,1000,meters,jsons/v1_VE1000_randls_42_rotated.json,895970,1293979,23,Man
115,565779,DepthScenes,duration_manipulation_targetAtFixation,jsons/v1_VE1000_randls_42_rotated.json,http://54.235.29.9/FacialAge/BNav_EC2/DepthDuration/v2_depth_duration_MTurk/v2_DepthDuration_HTML.html#283,283,1364,768,1364,768,8-29-2022,14-36-41,116,depth_duration_stimuli/000927_2014-06-09_16-32-30_260595134347_rgbf000123-resize_3/000927_2014-06-09_16-32-30_260595134347_rgbf000123-resize_3-target.png,1000,2.6785,6,6914,999,meters,jsons/v1_VE1000_randls_42_rotated.json,895970,1293979,23,Man
116,565779,DepthScenes,duration_manipulation_targetAtFixation,jsons/v1_VE1000_randls_42_rotated.json,http://54.235.29.9/FacialAge/BNav_EC2/DepthDuration/v2_depth_duration_MTurk/v2_DepthDuration_HTML.html#283,283,1364,768,1364,768,8-29-2022,14-36-41,117,depth_duration_stimuli/001110_2014-06-15_17-25-28_260595134347_rgbf000150-resize_1/001110_2014-06-15_17-25-28_260595134347_rgbf000150-resize_1-target.png,1000,1.7115,5,3482,1000,meters,jsons/v1_VE1000_randls_42_rotated.json,895970,1293979,23,Man
117,565779,DepthScenes,duration_manipulation_targetAtFixation,jsons/v1_VE1000_randls_42_rotated.json,http://54.235.29.9/FacialAge/BNav_EC2/DepthDuration/v2_depth_duration_MTurk/v2_DepthDuration_HTML.html#283,283,1364,768,1364,768,8-29-2022,14-36-41,118,depth_duration_stimuli/003079_2014-06-15_15-18-20_094959634447_rgbf000152-resize_8/003079_2014-06-15_15-18-20_094959634447_rgbf000152-resize_8-target.png,1000,2.8775,4,23062,1000,meters,jsons/v1_VE1000_randls_42_rotated.json,895970,1293979,23,Man
118,565779,DepthScenes,duration_manipulation_targetAtFixation,jsons/v1_VE1000_randls_42_rotated.json,http://54.235.29.9/FacialAge/BNav_EC2/DepthDuration/v2_depth_duration_MTurk/v2_DepthDuration_HTML.html#283,283,1364,768,1364,768,8-29-2022,14-36-41,119,depth_duration_stimuli/000506_2014-06-08_23-21-00_260595134347_rgbf000070-resize_7/000506_2014-06-08_23-21-00_260595134347_rgbf000070-resize_7-target.png,1000,4.0585,5,3787,1001,meters,jsons/v1_VE1000_randls_42_rotated.json,895970,1293979,23,Man
119,565779,DepthScenes,duration_manipulation_targetAtFixation,jsons/v1_VE1000_randls_42_rotated.json,http://54.235.29.9/FacialAge/BNav_EC2/DepthDuration/v2_depth_duration_MTurk/v2_DepthDuration_HTML.html#283,283,1364,768,1364,768,8-29-2022,14-36-41,120,depth_duration_stimuli/000787_2014-06-08_22-33-53_260595134347_rgbf000175-resize_1/000787_2014-06-08_22-33-53_260595134347_rgbf000175-resize-original.jpg,1000,4.784,0,4053,1001,meters,jsons/v1_VE1000_randls_42_rotated.json,895970,1293979,23,Man
120,565779,DepthScenes,duration_manipulation_targetAtFixation,jsons/v1_VE1000_randls_42_rotated.json,http://54.235.29.9/FacialAge/BNav_EC2/DepthDuration/v2_depth_duration_MTurk/v2_DepthDuration_HTML.html#283,283,1364,768,1364,768,8-29-2022,14-36-41,121,depth_duration_stimuli/002637_2014-06-24_14-51-13_094959634447_rgbf000066-resize_4/002637_2014-06-24_14-51-13_094959634447_rgbf000066-resize_4-target.png,1000,1.9955,5,3545,1000,meters,jsons/v1_VE1000_randls_42_rotated.json,895970,1293979,23,Man
121,565779,DepthScenes,duration_manipulation_targetAtFixation,jsons/v1_VE1000_randls_42_rotated.json,http://54.235.29.9/FacialAge/BNav_EC2/DepthDuration/v2_depth_duration_MTurk/v2_DepthDuration_HTML.html#283,283,1364,768,1364,768,8-29-2022,14-36-41,122,depth_duration_stimuli/003534_2014-05-22_15-06-10_094959634447_rgbf000102-resize_4/003534_2014-05-22_15-06-10_094959634447_rgbf000102-resize_4-target.png,1000,1.426,4,2954,1014,meters,jsons/v1_VE1000_randls_42_rotated.json,895970,1293979,23,Man
122,565779,DepthScenes,duration_manipulation_targetAtFixation,jsons/v1_VE1000_randls_42_rotated.json,http://54.235.29.9/FacialAge/BNav_EC2/DepthDuration/v2_depth_duration_MTurk/v2_DepthDuration_HTML.html#283,283,1364,768,1364,768,8-29-2022,14-36-41,123,depth_duration_stimuli/002995_2014-06-15_12-31-26_094959634447_rgbf000150-resize_1/002995_2014-06-15_12-31-26_094959634447_rgbf000150-resize_1-target.png,1000,3.8360000000000003,5,3065,999,meters,jsons/v1_VE1000_randls_42_rotated.json,895970,1293979,23,Man
123,565779,DepthScenes,duration_manipulation_targetAtFixation,jsons/v1_VE1000_randls_42_rotated.json,http://54.235.29.9/FacialAge/BNav_EC2/DepthDuration/v2_depth_duration_MTurk/v2_DepthDuration_HTML.html#283,283,1364,768,1364,768,8-29-2022,14-36-41,124,depth_duration_stimuli/002748_2014-06-22_19-07-22_094959634447_rgbf000078-resize_1/002748_2014-06-22_19-07-22_094959634447_rgbf000078-resize_1-target.png,1000,4.6705,4,3185,1010,meters,jsons/v1_VE1000_randls_42_rotated.json,895970,1293979,23,Man
124,565779,DepthScenes,duration_manipulation_targetAtFixation,jsons/v1_VE1000_randls_42_rotated.json,http://54.235.29.9/FacialAge/BNav_EC2/DepthDuration/v2_depth_duration_MTurk/v2_DepthDuration_HTML.html#283,283,1364,768,1364,768,8-29-2022,14-36-41,125,depth_duration_stimuli/000549_2014-06-08_22-10-24_260595134347_rgbf000247-resize_3/000549_2014-06-08_22-10-24_260595134347_rgbf000247-resize_3-target.png,1000,1.841,2,3747,1008,meters,jsons/v1_VE1000_randls_42_rotated.json,895970,1293979,23,Man
125,565779,DepthScenes,duration_manipulation_targetAtFixation,jsons/v1_VE1000_randls_42_rotated.json,http://54.235.29.9/FacialAge/BNav_EC2/DepthDuration/v2_depth_duration_MTurk/v2_DepthDuration_HTML.html#283,283,1364,768,1364,768,8-29-2022,14-36-41,126,depth_duration_stimuli/001055_2014-06-08_18-45-35_260595134347_rgbf000111-resize_4/001055_2014-06-08_18-45-35_260595134347_rgbf000111-resize_4-target.png,1000,2.4290000000000003,5,4363,1011,meters,jsons/v1_VE1000_randls_42_rotated.json,895970,1293979,23,Man
126,565779,DepthScenes,duration_manipulation_targetAtFixation,jsons/v1_VE1000_randls_42_rotated.json,http://54.235.29.9/FacialAge/BNav_EC2/DepthDuration/v2_depth_duration_MTurk/v2_DepthDuration_HTML.html#283,283,1364,768,1364,768,8-29-2022,14-36-41,127,depth_duration_stimuli/002209_2014-06-28_18-36-10_260595134347_rgbf000051-resize_1/002209_2014-06-28_18-36-10_260595134347_rgbf000051-resize_1-target.png,1000,2.057,3,3978,998,meters,jsons/v1_VE1000_randls_42_rotated.json,895970,1293979,23,Man
127,565779,DepthScenes,duration_manipulation_targetAtFixation,jsons/v1_VE1000_randls_42_rotated.json,http://54.235.29.9/FacialAge/BNav_EC2/DepthDuration/v2_depth_duration_MTurk/v2_DepthDuration_HTML.html#283,283,1364,768,1364,768,8-29-2022,14-36-41,128,depth_duration_stimuli/002763_2014-06-22_19-13-10_094959634447_rgbf000075-resize_4/002763_2014-06-22_19-13-10_094959634447_rgbf000075-resize_4-target.png,1000,1.68375,4,3242,1000,meters,jsons/v1_VE1000_randls_42_rotated.json,895970,1293979,23,Man
128,565779,DepthScenes,duration_manipulation_targetAtFixation,jsons/v1_VE1000_randls_42_rotated.json,http://54.235.29.9/FacialAge/BNav_EC2/DepthDuration/v2_depth_duration_MTurk/v2_DepthDuration_HTML.html#283,283,1364,768,1364,768,8-29-2022,14-36-41,129,depth_duration_stimuli/002678_2014-06-13_16-15-32_094959634447_rgbf000151-resize_6/002678_2014-06-13_16-15-32_094959634447_rgbf000151-resize_6-target.png,1000,2.1830000000000003,5,3882,999,meters,jsons/v1_VE1000_randls_42_rotated.json,895970,1293979,23,Man
129,565779,DepthScenes,duration_manipulation_targetAtFixation,jsons/v1_VE1000_randls_42_rotated.json,http://54.235.29.9/FacialAge/BNav_EC2/DepthDuration/v2_depth_duration_MTurk/v2_DepthDuration_HTML.html#283,283,1364,768,1364,768,8-29-2022,14-36-41,130,depth_duration_stimuli/000368_2014-06-09_15-53-01_260595134347_rgbf000155-resize_2/000368_2014-06-09_15-53-01_260595134347_rgbf000155-resize_2-target.png,1000,2.4859999999999998,4,5447,1011,meters,jsons/v1_VE1000_randls_42_rotated.json,895970,1293979,23,Man
130,565779,DepthScenes,duration_manipulation_targetAtFixation,jsons/v1_VE1000_randls_42_rotated.json,http://54.235.29.9/FacialAge/BNav_EC2/DepthDuration/v2_depth_duration_MTurk/v2_DepthDuration_HTML.html#283,283,1364,768,1364,768,8-29-2022,14-36-41,131,depth_duration_stimuli/003081_2014-06-15_15-19-16_094959634447_rgbf000150-resize_1/003081_2014-06-15_15-19-16_094959634447_rgbf000150-resize_1-target.png,1000,3.9125,4,4145,989,meters,jsons/v1_VE1000_randls_42_rotated.json,895970,1293979,23,Man
131,565779,DepthScenes,duration_manipulation_targetAtFixation,jsons/v1_VE1000_randls_42_rotated.json,http://54.235.29.9/FacialAge/BNav_EC2/DepthDuration/v2_depth_duration_MTurk/v2_DepthDuration_HTML.html#283,283,1364,768,1364,768,8-29-2022,14-36-41,132,depth_duration_stimuli/001417_2014-06-19_16-25-36_260595134347_rgbf000115-resize_5/001417_2014-06-19_16-25-36_260595134347_rgbf000115-resize_5-target.png,1000,4.6255,5,3242,1000,meters,jsons/v1_VE1000_randls_42_rotated.json,895970,1293979,23,Man
132,565779,DepthScenes,duration_manipulation_targetAtFixation,jsons/v1_VE1000_randls_42_rotated.json,http://54.235.29.9/FacialAge/BNav_EC2/DepthDuration/v2_depth_duration_MTurk/v2_DepthDuration_HTML.html#283,283,1364,768,1364,768,8-29-2022,14-36-41,133,depth_duration_stimuli/003083_2014-06-15_15-21-03_094959634447_rgbf000063-resize_1/003083_2014-06-15_15-21-03_094959634447_rgbf000063-resize_1-target.png,1000,4.1405,6,3106,1000,meters,jsons/v1_VE1000_randls_42_rotated.json,895970,1293979,23,Man
133,565779,DepthScenes,duration_manipulation_targetAtFixation,jsons/v1_VE1000_randls_42_rotated.json,http://54.235.29.9/FacialAge/BNav_EC2/DepthDuration/v2_depth_duration_MTurk/v2_DepthDuration_HTML.html#283,283,1364,768,1364,768,8-29-2022,14-36-41,134,depth_duration_stimuli/000486_2014-06-09_20-47-20_260595134347_rgbf000143-resize_2/000486_2014-06-09_20-47-20_260595134347_rgbf000143-resize_2-target.png,1000,4.8325,6,2890,1006,meters,jsons/v1_VE1000_randls_42_rotated.json,895970,1293979,23,Man
134,565779,DepthScenes,duration_manipulation_targetAtFixation,jsons/v1_VE1000_randls_42_rotated.json,http://54.235.29.9/FacialAge/BNav_EC2/DepthDuration/v2_depth_duration_MTurk/v2_DepthDuration_HTML.html#283,283,1364,768,1364,768,8-29-2022,14-36-41,135,depth_duration_stimuli/000375_2014-06-08_11-17-29_260595134347_rgbf000133-resize_2/000375_2014-06-08_11-17-29_260595134347_rgbf000133-resize-original.jpg,1000,4.718,4,4168,996,meters,jsons/v1_VE1000_randls_42_rotated.json,895970,1293979,23,Man
135,565779,DepthScenes,duration_manipulation_targetAtFixation,jsons/v1_VE1000_randls_42_rotated.json,http://54.235.29.9/FacialAge/BNav_EC2/DepthDuration/v2_depth_duration_MTurk/v2_DepthDuration_HTML.html#283,283,1364,768,1364,768,8-29-2022,14-36-41,136,depth_duration_stimuli/002344_2014-06-28_20-06-29_260595134347_rgbf000030-resize_1/002344_2014-06-28_20-06-29_260595134347_rgbf000030-resize_1-target.png,1000,1.5795,3,4868,1005,meters,jsons/v1_VE1000_randls_42_rotated.json,895970,1293979,23,Man
136,565779,DepthScenes,duration_manipulation_targetAtFixation,jsons/v1_VE1000_randls_42_rotated.json,http://54.235.29.9/FacialAge/BNav_EC2/DepthDuration/v2_depth_duration_MTurk/v2_DepthDuration_HTML.html#283,283,1364,768,1364,768,8-29-2022,14-36-41,137,depth_duration_stimuli/002725_2014-06-22_11-47-51_094959634447_rgbf000070-resize_1/002725_2014-06-22_11-47-51_094959634447_rgbf000070-resize_1-target.png,1000,2.195,2,2882,1000,meters,jsons/v1_VE1000_randls_42_rotated.json,895970,1293979,23,Man
137,565779,DepthScenes,duration_manipulation_targetAtFixation,jsons/v1_VE1000_randls_42_rotated.json,http://54.235.29.9/FacialAge/BNav_EC2/DepthDuration/v2_depth_duration_MTurk/v2_DepthDuration_HTML.html#283,283,1364,768,1364,768,8-29-2022,14-36-41,138,depth_duration_stimuli/000742_2014-06-08_18-48-09_260595134347_rgbf000164-resize_4/000742_2014-06-08_18-48-09_260595134347_rgbf000164-resize_4-target.png,1000,4.632,2,5631,1000,meters,jsons/v1_VE1000_randls_42_rotated.json,895970,1293979,23,Man
138,565779,DepthScenes,duration_manipulation_targetAtFixation,jsons/v1_VE1000_randls_42_rotated.json,http://54.235.29.9/FacialAge/BNav_EC2/DepthDuration/v2_depth_duration_MTurk/v2_DepthDuration_HTML.html#283,283,1364,768,1364,768,8-29-2022,14-36-41,139,depth_duration_stimuli/001066_2014-06-08_22-03-20_260595134347_rgbf000066-resize_4/001066_2014-06-08_22-03-20_260595134347_rgbf000066-resize_4-target.png,1000,4.2330000000000005,5,3809,993,meters,jsons/v1_VE1000_randls_42_rotated.json,895970,1293979,23,Man
139,565779,DepthScenes,duration_manipulation_targetAtFixation,jsons/v1_VE1000_randls_42_rotated.json,http://54.235.29.9/FacialAge/BNav_EC2/DepthDuration/v2_depth_duration_MTurk/v2_DepthDuration_HTML.html#283,283,1364,768,1364,768,8-29-2022,14-36-41,140,depth_duration_stimuli/003495_2014-05-21_16-01-51_094959634447_rgbf000100-resize_3/003495_2014-05-21_16-01-51_094959634447_rgbf000100-resize_3-target.png,1000,1.6255,2,3771,1004,meters,jsons/v1_VE1000_randls_42_rotated.json,895970,1293979,23,Man
140,565779,DepthScenes,duration_manipulation_targetAtFixation,jsons/v1_VE1000_randls_42_rotated.json,http://54.235.29.9/FacialAge/BNav_EC2/DepthDuration/v2_depth_duration_MTurk/v2_DepthDuration_HTML.html#283,283,1364,768,1364,768,8-29-2022,14-36-41,141,depth_duration_stimuli/001244_2014-06-17_16-47-45_260595134347_rgbf000030-resize_4/001244_2014-06-17_16-47-45_260595134347_rgbf000030-resize_4-target.png,1000,2.0425,3,3251,1001,meters,jsons/v1_VE1000_randls_42_rotated.json,895970,1293979,23,Man
141,565779,DepthScenes,duration_manipulation_targetAtFixation,jsons/v1_VE1000_randls_42_rotated.json,http://54.235.29.9/FacialAge/BNav_EC2/DepthDuration/v2_depth_duration_MTurk/v2_DepthDuration_HTML.html#283,283,1364,768,1364,768,8-29-2022,14-36-41,142,depth_duration_stimuli/003338_2014-05-20_11-01-23_094959634447_rgbf000051-resize_6/003338_2014-05-20_11-01-23_094959634447_rgbf000051-resize_6-target.png,1000,1.693,4,3913,1008,meters,jsons/v1_VE1000_randls_42_rotated.json,895970,1293979,23,Man
142,565779,DepthScenes,duration_manipulation_targetAtFixation,jsons/v1_VE1000_randls_42_rotated.json,http://54.235.29.9/FacialAge/BNav_EC2/DepthDuration/v2_depth_duration_MTurk/v2_DepthDuration_HTML.html#283,283,1364,768,1364,768,8-29-2022,14-36-41,143,depth_duration_stimuli/002509_2014-06-24_13-19-22_094959634447_rgbf000077-resize_0/002509_2014-06-24_13-19-22_094959634447_rgbf000077-resize_0-target.png,1000,1.3065,2,3192,1007,meters,jsons/v1_VE1000_randls_42_rotated.json,895970,1293979,23,Man
143,565779,DepthScenes,duration_manipulation_targetAtFixation,jsons/v1_VE1000_randls_42_rotated.json,http://54.235.29.9/FacialAge/BNav_EC2/DepthDuration/v2_depth_duration_MTurk/v2_DepthDuration_HTML.html#283,283,1364,768,1364,768,8-29-2022,14-36-41,144,depth_duration_stimuli/000556_2014-06-09_22-42-56_260595134347_rgbf000214-resize_1/000556_2014-06-09_22-42-56_260595134347_rgbf000214-resize_1-target.png,1000,4.8415,6,3726,1005,meters,jsons/v1_VE1000_randls_42_rotated.json,895970,1293979,23,Man
144,565779,DepthScenes,duration_manipulation_targetAtFixation,jsons/v1_VE1000_randls_42_rotated.json,http://54.235.29.9/FacialAge/BNav_EC2/DepthDuration/v2_depth_duration_MTurk/v2_DepthDuration_HTML.html#283,283,1364,768,1364,768,8-29-2022,14-36-41,145,depth_duration_stimuli/001158_2014-06-17_15-32-16_260595134347_rgbf000138-resize_2/001158_2014-06-17_15-32-16_260595134347_rgbf000138-resize_2-target.png,1000,4.5315,2,3276,996,meters,jsons/v1_VE1000_randls_42_rotated.json,895970,1293979,23,Man
145,565779,DepthScenes,duration_manipulation_targetAtFixation,jsons/v1_VE1000_randls_42_rotated.json,http://54.235.29.9/FacialAge/BNav_EC2/DepthDuration/v2_depth_duration_MTurk/v2_DepthDuration_HTML.html#283,283,1364,768,1364,768,8-29-2022,14-36-41,146,depth_duration_stimuli/001136_2014-06-17_15-19-41_260595134347_rgbf000076-resize_3/001136_2014-06-17_15-19-41_260595134347_rgbf000076-resize_3-target.png,1000,1.8655,4,3484,999,meters,jsons/v1_VE1000_randls_42_rotated.json,895970,1293979,23,Man
146,565779,DepthScenes,duration_manipulation_targetAtFixation,jsons/v1_VE1000_randls_42_rotated.json,http://54.235.29.9/FacialAge/BNav_EC2/DepthDuration/v2_depth_duration_MTurk/v2_DepthDuration_HTML.html#283,283,1364,768,1364,768,8-29-2022,14-36-41,147,depth_duration_stimuli/001164_2014-06-17_15-35-46_260595134347_rgbf000085-resize_3/001164_2014-06-17_15-35-46_260595134347_rgbf000085-resize_3-target.png,1000,2.354,5,4316,993,meters,jsons/v1_VE1000_randls_42_rotated.json,895970,1293979,23,Man
147,565779,DepthScenes,duration_manipulation_targetAtFixation,jsons/v1_VE1000_randls_42_rotated.json,http://54.235.29.9/FacialAge/BNav_EC2/DepthDuration/v2_depth_duration_MTurk/v2_DepthDuration_HTML.html#283,283,1364,768,1364,768,8-29-2022,14-36-41,148,depth_duration_stimuli/000103_2014-05-14_22-01-17_260595134347_rgbf000152-resize_5/000103_2014-05-14_22-01-17_260595134347_rgbf000152-resize_5-target.png,1000,1.993,5,3466,1014,meters,jsons/v1_VE1000_randls_42_rotated.json,895970,1293979,23,Man
148,565779,DepthScenes,duration_manipulation_targetAtFixation,jsons/v1_VE1000_randls_42_rotated.json,http://54.235.29.9/FacialAge/BNav_EC2/DepthDuration/v2_depth_duration_MTurk/v2_DepthDuration_HTML.html#283,283,1364,768,1364,768,8-29-2022,14-36-41,149,depth_duration_stimuli/001555_2014-06-20_17-12-10_260595134347_rgbf000065-resize_4/001555_2014-06-20_17-12-10_260595134347_rgbf000065-resize_4-target.png,1000,1.633,3,3515,1000,meters,jsons/v1_VE1000_randls_42_rotated.json,895970,1293979,23,Man
149,565779,DepthScenes,duration_manipulation_targetAtFixation,jsons/v1_VE1000_randls_42_rotated.json,http://54.235.29.9/FacialAge/BNav_EC2/DepthDuration/v2_depth_duration_MTurk/v2_DepthDuration_HTML.html#283,283,1364,768,1364,768,8-29-2022,14-36-41,150,depth_duration_stimuli/000709_2014-06-08_13-51-55_260595134347_rgbf000068-resize_3/000709_2014-06-08_13-51-55_260595134347_rgbf000068-resize_3-target.png,1000,1.8030000000000002,4,8043,1001,meters,jsons/v1_VE1000_randls_42_rotated.json,895970,1293979,23,Man
150,565779,DepthScenes,duration_manipulation_targetAtFixation,jsons/v1_VE1000_randls_42_rotated.json,http://54.235.29.9/FacialAge/BNav_EC2/DepthDuration/v2_depth_duration_MTurk/v2_DepthDuration_HTML.html#283,283,1364,768,1364,768,8-29-2022,14-36-41,151,depth_duration_stimuli/002057_2014-06-24_21-00-13_260595134347_rgbf000120-resize_1/002057_2014-06-24_21-00-13_260595134347_rgbf000120-resize_1-target.png,1000,2.967,2,3788,1000,meters,jsons/v1_VE1000_randls_42_rotated.json,895970,1293979,23,Man
151,565779,DepthScenes,duration_manipulation_targetAtFixation,jsons/v1_VE1000_randls_42_rotated.json,http://54.235.29.9/FacialAge/BNav_EC2/DepthDuration/v2_depth_duration_MTurk/v2_DepthDuration_HTML.html#283,283,1364,768,1364,768,8-29-2022,14-36-41,152,depth_duration_stimuli/000569_2014-06-09_22-51-47_260595134347_rgbf000141-resize_3/000569_2014-06-09_22-51-47_260595134347_rgbf000141-resize-original.jpg,1000,4.512,0,3593,1000,meters,jsons/v1_VE1000_randls_42_rotated.json,895970,1293979,23,Man
152,565779,DepthScenes,duration_manipulation_targetAtFixation,jsons/v1_VE1000_randls_42_rotated.json,http://54.235.29.9/FacialAge/BNav_EC2/DepthDuration/v2_depth_duration_MTurk/v2_DepthDuration_HTML.html#283,283,1364,768,1364,768,8-29-2022,14-36-41,153,depth_duration_stimuli/000866_2014-06-09_20-45-42_260595134347_rgbf000139-resize_1/000866_2014-06-09_20-45-42_260595134347_rgbf000139-resize_1-target.png,1000,3.2155,4,4331,1005,meters,jsons/v1_VE1000_randls_42_rotated.json,895970,1293979,23,Man
153,565779,DepthScenes,duration_manipulation_targetAtFixation,jsons/v1_VE1000_randls_42_rotated.json,http://54.235.29.9/FacialAge/BNav_EC2/DepthDuration/v2_depth_duration_MTurk/v2_DepthDuration_HTML.html#283,283,1364,768,1364,768,8-29-2022,14-36-41,154,depth_duration_stimuli/002989_2014-06-15_12-25-03_094959634447_rgbf000150-resize_3/002989_2014-06-15_12-25-03_094959634447_rgbf000150-resize_3-target.png,1000,4.1975,5,3580,1007,meters,jsons/v1_VE1000_randls_42_rotated.json,895970,1293979,23,Man
154,565779,DepthScenes,duration_manipulation_targetAtFixation,jsons/v1_VE1000_randls_42_rotated.json,http://54.235.29.9/FacialAge/BNav_EC2/DepthDuration/v2_depth_duration_MTurk/v2_DepthDuration_HTML.html#283,283,1364,768,1364,768,8-29-2022,14-36-41,155,depth_duration_stimuli/002657_2014-06-13_15-29-54_094959634447_rgbf000150-resize_1/002657_2014-06-13_15-29-54_094959634447_rgbf000150-resize_1-target.png,1000,4.919,4,3778,1010,meters,jsons/v1_VE1000_randls_42_rotated.json,895970,1293979,23,Man
155,565779,DepthScenes,duration_manipulation_targetAtFixation,jsons/v1_VE1000_randls_42_rotated.json,http://54.235.29.9/FacialAge/BNav_EC2/DepthDuration/v2_depth_duration_MTurk/v2_DepthDuration_HTML.html#283,283,1364,768,1364,768,8-29-2022,14-36-41,156,depth_duration_stimuli/002375_2014-06-28_20-13-44_260595134347_rgbf000032-resize_1/002375_2014-06-28_20-13-44_260595134347_rgbf000032-resize_1-target.png,1000,4.0175,2,5011,1000,meters,jsons/v1_VE1000_randls_42_rotated.json,895970,1293979,23,Man
156,565779,DepthScenes,duration_manipulation_targetAtFixation,jsons/v1_VE1000_randls_42_rotated.json,http://54.235.29.9/FacialAge/BNav_EC2/DepthDuration/v2_depth_duration_MTurk/v2_DepthDuration_HTML.html#283,283,1364,768,1364,768,8-29-2022,14-36-41,157,depth_duration_stimuli/001571_2014-06-20_17-21-32_260595134347_rgbf000089-resize_1/001571_2014-06-20_17-21-32_260595134347_rgbf000089-resize_1-target.png,1000,1.86,3,4620,996,meters,jsons/v1_VE1000_randls_42_rotated.json,895970,1293979,23,Man
157,565779,DepthScenes,duration_manipulation_targetAtFixation,jsons/v1_VE1000_randls_42_rotated.json,http://54.235.29.9/FacialAge/BNav_EC2/DepthDuration/v2_depth_duration_MTurk/v2_DepthDuration_HTML.html#283,283,1364,768,1364,768,8-29-2022,14-36-41,158,depth_duration_stimuli/002272_2014-06-28_18-53-56_260595134347_rgbf000067-resize_2/002272_2014-06-28_18-53-56_260595134347_rgbf000067-resize_2-target.png,1000,1.138,2,2988,999,meters,jsons/v1_VE1000_randls_42_rotated.json,895970,1293979,23,Man
158,565779,DepthScenes,duration_manipulation_targetAtFixation,jsons/v1_VE1000_randls_42_rotated.json,http://54.235.29.9/FacialAge/BNav_EC2/DepthDuration/v2_depth_duration_MTurk/v2_DepthDuration_HTML.html#283,283,1364,768,1364,768,8-29-2022,14-36-41,159,depth_duration_stimuli/001650_2014-06-20_12-09-00_260595134347_rgbf000087-resize_3/001650_2014-06-20_12-09-00_260595134347_rgbf000087-resize_3-target.png,1000,1.9505,2,4011,1000,meters,jsons/v1_VE1000_randls_42_rotated.json,895970,1293979,23,Man
159,565779,DepthScenes,duration_manipulation_targetAtFixation,jsons/v1_VE1000_randls_42_rotated.json,http://54.235.29.9/FacialAge/BNav_EC2/DepthDuration/v2_depth_duration_MTurk/v2_DepthDuration_HTML.html#283,283,1364,768,1364,768,8-29-2022,14-36-41,160,depth_duration_stimuli/000682_2014-06-08_23-14-58_260595134347_rgbf000041-resize_5/000682_2014-06-08_23-14-58_260595134347_rgbf000041-resize_5-target.png,1000,2.7239999999999998,3,4083,1000,meters,jsons/v1_VE1000_randls_42_rotated.json,895970,1293979,23,Man
160,565779,DepthScenes,duration_manipulation_targetAtFixation,jsons/v1_VE1000_randls_42_rotated.json,http://54.235.29.9/FacialAge/BNav_EC2/DepthDuration/v2_depth_duration_MTurk/v2_DepthDuration_HTML.html#283,283,1364,768,1364,768,8-29-2022,14-36-41,161,depth_duration_stimuli/003228_2014-05-14_13-42-35_094959634447_rgbf000101-resize_1/003228_2014-05-14_13-42-35_094959634447_rgbf000101-resize_1-target.png,1000,1.9680000000000002,3,2931,1001,meters,jsons/v1_VE1000_randls_42_rotated.json,895970,1293979,23,Man
161,565779,DepthScenes,duration_manipulation_targetAtFixation,jsons/v1_VE1000_randls_42_rotated.json,http://54.235.29.9/FacialAge/BNav_EC2/DepthDuration/v2_depth_duration_MTurk/v2_DepthDuration_HTML.html#283,283,1364,768,1364,768,8-29-2022,14-36-41,162,depth_duration_stimuli/002600_2014-06-24_14-27-04_094959634447_rgbf000074-resize_2/002600_2014-06-24_14-27-04_094959634447_rgbf000074-resize_2-target.png,1000,2.7575,3,4951,986,meters,jsons/v1_VE1000_randls_42_rotated.json,895970,1293979,23,Man
162,565779,DepthScenes,duration_manipulation_targetAtFixation,jsons/v1_VE1000_randls_42_rotated.json,http://54.235.29.9/FacialAge/BNav_EC2/DepthDuration/v2_depth_duration_MTurk/v2_DepthDuration_HTML.html#283,283,1364,768,1364,768,8-29-2022,14-36-41,163,depth_duration_stimuli/000854_2014-06-09_19-43-13_260595134347_rgbf000066-resize_0/000854_2014-06-09_19-43-13_260595134347_rgbf000066-resize_0-target.png,1000,3.068,3,4282,1000,meters,jsons/v1_VE1000_randls_42_rotated.json,895970,1293979,23,Man
163,565779,DepthScenes,duration_manipulation_targetAtFixation,jsons/v1_VE1000_randls_42_rotated.json,http://54.235.29.9/FacialAge/BNav_EC2/DepthDuration/v2_depth_duration_MTurk/v2_DepthDuration_HTML.html#283,283,1364,768,1364,768,8-29-2022,14-36-41,164,depth_duration_stimuli/000758_2014-06-08_22-05-08_260595134347_rgbf000085-resize_0/000758_2014-06-08_22-05-08_260595134347_rgbf000085-resize_0-target.png,1000,3.3810000000000002,4,3588,1001,meters,jsons/v1_VE1000_randls_42_rotated.json,895970,1293979,23,Man
