,subjID,experimentName,versionName,sequenceName,url,selected_row,windowWidth,windowHeight,screenWidth,screenHeight,startDate,startTime,trial,stimulus,duration,actual_depth,depth_estimate,trial_RT,log_sceneDuration,unitSelection,seq_filepath,experimentTime,totalTime,age,gender
0,566684,DepthScenes,duration_manipulation_targetAtFixation,jsons/v1_VE1000_randls_49_rotated.json,http://54.235.29.9/FacialAge/BNav_EC2/DepthDuration/v2_depth_duration_MTurk/v2_DepthDuration_HTML.html#369,369,1366,625,1366,768,9-18-2022,13-21-19,1,depth_duration_stimuli/000665_2014-06-09_20-42-35_260595134347_rgbf000110-resize_1/000665_2014-06-09_20-42-35_260595134347_rgbf000110-resize_1-target.png,1000,3.057,3,4168,998,meters,jsons/v1_VE1000_randls_49_rotated.json,812359,1006716,53,Woman
1,566684,DepthScenes,duration_manipulation_targetAtFixation,jsons/v1_VE1000_randls_49_rotated.json,http://54.235.29.9/FacialAge/BNav_EC2/DepthDuration/v2_depth_duration_MTurk/v2_DepthDuration_HTML.html#369,369,1366,625,1366,768,9-18-2022,13-21-19,2,depth_duration_stimuli/001150_2014-06-17_15-27-34_260595134347_rgbf000108-resize_2/001150_2014-06-17_15-27-34_260595134347_rgbf000108-resize_2-target.png,1000,4.0325,7,4731,1006,meters,jsons/v1_VE1000_randls_49_rotated.json,812359,1006716,53,Woman
2,566684,DepthScenes,duration_manipulation_targetAtFixation,jsons/v1_VE1000_randls_49_rotated.json,http://54.235.29.9/FacialAge/BNav_EC2/DepthDuration/v2_depth_duration_MTurk/v2_DepthDuration_HTML.html#369,369,1366,625,1366,768,9-18-2022,13-21-19,3,depth_duration_stimuli/002444_2014-06-28_20-32-08_260595134347_rgbf000027-resize_0/002444_2014-06-28_20-32-08_260595134347_rgbf000027-resize_0-target.png,1000,4.388999999999999,5,6517,1007,meters,jsons/v1_VE1000_randls_49_rotated.json,812359,1006716,53,Woman
3,566684,DepthScenes,duration_manipulation_targetAtFixation,jsons/v1_VE1000_randls_49_rotated.json,http://54.235.29.9/FacialAge/BNav_EC2/DepthDuration/v2_depth_duration_MTurk/v2_DepthDuration_HTML.html#369,369,1366,625,1366,768,9-18-2022,13-21-19,4,depth_duration_stimuli/000436_2014-06-09_22-25-11_260595134347_rgbf000137-resize_1/000436_2014-06-09_22-25-11_260595134347_rgbf000137-resize_1-target.png,1000,4.0705,7,5479,999,meters,jsons/v1_VE1000_randls_49_rotated.json,812359,1006716,53,Woman
4,566684,DepthScenes,duration_manipulation_targetAtFixation,jsons/v1_VE1000_randls_49_rotated.json,http://54.235.29.9/FacialAge/BNav_EC2/DepthDuration/v2_depth_duration_MTurk/v2_DepthDuration_HTML.html#369,369,1366,625,1366,768,9-18-2022,13-21-19,5,depth_duration_stimuli/001032_2014-06-08_13-23-17_260595134347_rgbf000021-resize_3/001032_2014-06-08_13-23-17_260595134347_rgbf000021-resize_3-target.png,1000,3.2725,3,4760,1014,meters,jsons/v1_VE1000_randls_49_rotated.json,812359,1006716,53,Woman
5,566684,DepthScenes,duration_manipulation_targetAtFixation,jsons/v1_VE1000_randls_49_rotated.json,http://54.235.29.9/FacialAge/BNav_EC2/DepthDuration/v2_depth_duration_MTurk/v2_DepthDuration_HTML.html#369,369,1366,625,1366,768,9-18-2022,13-21-19,6,depth_duration_stimuli/001059_2014-06-08_21-53-27_260595134347_rgbf000061-resize_4/001059_2014-06-08_21-53-27_260595134347_rgbf000061-resize_4-target.png,1000,2.4185,4,3477,999,meters,jsons/v1_VE1000_randls_49_rotated.json,812359,1006716,53,Woman
6,566684,DepthScenes,duration_manipulation_targetAtFixation,jsons/v1_VE1000_randls_49_rotated.json,http://54.235.29.9/FacialAge/BNav_EC2/DepthDuration/v2_depth_duration_MTurk/v2_DepthDuration_HTML.html#369,369,1366,625,1366,768,9-18-2022,13-21-19,7,depth_duration_stimuli/002323_2014-06-28_20-01-54_260595134347_rgbf000051-resize_4/002323_2014-06-28_20-01-54_260595134347_rgbf000051-resize_4-target.png,1000,3.7310000000000003,6,3518,999,meters,jsons/v1_VE1000_randls_49_rotated.json,812359,1006716,53,Woman
7,566684,DepthScenes,duration_manipulation_targetAtFixation,jsons/v1_VE1000_randls_49_rotated.json,http://54.235.29.9/FacialAge/BNav_EC2/DepthDuration/v2_depth_duration_MTurk/v2_DepthDuration_HTML.html#369,369,1366,625,1366,768,9-18-2022,13-21-19,8,depth_duration_stimuli/000917_2014-06-09_22-45-29_260595134347_rgbf000149-resize_3/000917_2014-06-09_22-45-29_260595134347_rgbf000149-resize_3-target.png,1000,4.1865,7,3548,999,meters,jsons/v1_VE1000_randls_49_rotated.json,812359,1006716,53,Woman
8,566684,DepthScenes,duration_manipulation_targetAtFixation,jsons/v1_VE1000_randls_49_rotated.json,http://54.235.29.9/FacialAge/BNav_EC2/DepthDuration/v2_depth_duration_MTurk/v2_DepthDuration_HTML.html#369,369,1366,625,1366,768,9-18-2022,13-21-19,9,depth_duration_stimuli/000691_2014-06-08_13-08-50_260595134347_rgbf000132-resize_3/000691_2014-06-08_13-08-50_260595134347_rgbf000132-resize_3-target.png,1000,4.1530000000000005,3,3870,992,meters,jsons/v1_VE1000_randls_49_rotated.json,812359,1006716,53,Woman
9,566684,DepthScenes,duration_manipulation_targetAtFixation,jsons/v1_VE1000_randls_49_rotated.json,http://54.235.29.9/FacialAge/BNav_EC2/DepthDuration/v2_depth_duration_MTurk/v2_DepthDuration_HTML.html#369,369,1366,625,1366,768,9-18-2022,13-21-19,10,depth_duration_stimuli/002213_2014-06-28_18-37-58_260595134347_rgbf000055-resize_1/002213_2014-06-28_18-37-58_260595134347_rgbf000055-resize_1-target.png,1000,3.62,7,4085,1009,meters,jsons/v1_VE1000_randls_49_rotated.json,812359,1006716,53,Woman
10,566684,DepthScenes,duration_manipulation_targetAtFixation,jsons/v1_VE1000_randls_49_rotated.json,http://54.235.29.9/FacialAge/BNav_EC2/DepthDuration/v2_depth_duration_MTurk/v2_DepthDuration_HTML.html#369,369,1366,625,1366,768,9-18-2022,13-21-19,11,depth_duration_stimuli/000457_2014-06-08_16-52-43_260595134347_rgbf000199-resize_1/000457_2014-06-08_16-52-43_260595134347_rgbf000199-resize_1-target.png,1000,3.6489999999999996,6,3441,992,meters,jsons/v1_VE1000_randls_49_rotated.json,812359,1006716,53,Woman
11,566684,DepthScenes,duration_manipulation_targetAtFixation,jsons/v1_VE1000_randls_49_rotated.json,http://54.235.29.9/FacialAge/BNav_EC2/DepthDuration/v2_depth_duration_MTurk/v2_DepthDuration_HTML.html#369,369,1366,625,1366,768,9-18-2022,13-21-19,12,depth_duration_stimuli/000929_2014-06-09_16-33-19_260595134347_rgbf000139-resize_0/000929_2014-06-09_16-33-19_260595134347_rgbf000139-resize_0-target.png,1000,2.8680000000000003,3,4445,998,meters,jsons/v1_VE1000_randls_49_rotated.json,812359,1006716,53,Woman
12,566684,DepthScenes,duration_manipulation_targetAtFixation,jsons/v1_VE1000_randls_49_rotated.json,http://54.235.29.9/FacialAge/BNav_EC2/DepthDuration/v2_depth_duration_MTurk/v2_DepthDuration_HTML.html#369,369,1366,625,1366,768,9-18-2022,13-21-19,13,depth_duration_stimuli/001584_2014-06-20_11-07-43_260595134347_rgbf000002-resize_1/001584_2014-06-20_11-07-43_260595134347_rgbf000002-resize_1-target.png,1000,3.53,7,4375,1005,meters,jsons/v1_VE1000_randls_49_rotated.json,812359,1006716,53,Woman
13,566684,DepthScenes,duration_manipulation_targetAtFixation,jsons/v1_VE1000_randls_49_rotated.json,http://54.235.29.9/FacialAge/BNav_EC2/DepthDuration/v2_depth_duration_MTurk/v2_DepthDuration_HTML.html#369,369,1366,625,1366,768,9-18-2022,13-21-19,14,depth_duration_stimuli/003621_2014-05-23_18-06-08_094959634447_rgbf000101-resize_1/003621_2014-05-23_18-06-08_094959634447_rgbf000101-resize_1-target.png,1000,3.9835,6,3435,1005,meters,jsons/v1_VE1000_randls_49_rotated.json,812359,1006716,53,Woman
14,566684,DepthScenes,duration_manipulation_targetAtFixation,jsons/v1_VE1000_randls_49_rotated.json,http://54.235.29.9/FacialAge/BNav_EC2/DepthDuration/v2_depth_duration_MTurk/v2_DepthDuration_HTML.html#369,369,1366,625,1366,768,9-18-2022,13-21-19,15,depth_duration_stimuli/003228_2014-05-14_13-42-35_094959634447_rgbf000101-resize_1/003228_2014-05-14_13-42-35_094959634447_rgbf000101-resize_1-target.png,1000,1.9680000000000002,2,3452,1000,meters,jsons/v1_VE1000_randls_49_rotated.json,812359,1006716,53,Woman
15,566684,DepthScenes,duration_manipulation_targetAtFixation,jsons/v1_VE1000_randls_49_rotated.json,http://54.235.29.9/FacialAge/BNav_EC2/DepthDuration/v2_depth_duration_MTurk/v2_DepthDuration_HTML.html#369,369,1366,625,1366,768,9-18-2022,13-21-19,16,depth_duration_stimuli/002600_2014-06-24_14-27-04_094959634447_rgbf000074-resize_2/002600_2014-06-24_14-27-04_094959634447_rgbf000074-resize_2-target.png,1000,2.7575,4,4176,1005,meters,jsons/v1_VE1000_randls_49_rotated.json,812359,1006716,53,Woman
16,566684,DepthScenes,duration_manipulation_targetAtFixation,jsons/v1_VE1000_randls_49_rotated.json,http://54.235.29.9/FacialAge/BNav_EC2/DepthDuration/v2_depth_duration_MTurk/v2_DepthDuration_HTML.html#369,369,1366,625,1366,768,9-18-2022,13-21-19,17,depth_duration_stimuli/000191_2014-05-12_17-07-38_260595134347_rgbf000199-resize_0/000191_2014-05-12_17-07-38_260595134347_rgbf000199-resize_0-target.png,1000,3.7995,8,3677,1007,meters,jsons/v1_VE1000_randls_49_rotated.json,812359,1006716,53,Woman
17,566684,DepthScenes,duration_manipulation_targetAtFixation,jsons/v1_VE1000_randls_49_rotated.json,http://54.235.29.9/FacialAge/BNav_EC2/DepthDuration/v2_depth_duration_MTurk/v2_DepthDuration_HTML.html#369,369,1366,625,1366,768,9-18-2022,13-21-19,18,depth_duration_stimuli/000493_2014-06-09_21-01-18_260595134347_rgbf000196-resize_3/000493_2014-06-09_21-01-18_260595134347_rgbf000196-resize_3-target.png,1000,3.44,6,3393,996,meters,jsons/v1_VE1000_randls_49_rotated.json,812359,1006716,53,Woman
18,566684,DepthScenes,duration_manipulation_targetAtFixation,jsons/v1_VE1000_randls_49_rotated.json,http://54.235.29.9/FacialAge/BNav_EC2/DepthDuration/v2_depth_duration_MTurk/v2_DepthDuration_HTML.html#369,369,1366,625,1366,768,9-18-2022,13-21-19,19,depth_duration_stimuli/001498_2014-06-19_17-45-14_260595134347_rgbf000129-resize_4/001498_2014-06-19_17-45-14_260595134347_rgbf000129-resize-original.jpg,1000,1.4075,0,5191,998,meters,jsons/v1_VE1000_randls_49_rotated.json,812359,1006716,53,Woman
19,566684,DepthScenes,duration_manipulation_targetAtFixation,jsons/v1_VE1000_randls_49_rotated.json,http://54.235.29.9/FacialAge/BNav_EC2/DepthDuration/v2_depth_duration_MTurk/v2_DepthDuration_HTML.html#369,369,1366,625,1366,768,9-18-2022,13-21-19,20,depth_duration_stimuli/000635_2014-06-08_16-38-42_260595134347_rgbf000106-resize_1/000635_2014-06-08_16-38-42_260595134347_rgbf000106-resize_1-target.png,1000,2.074,5,3746,988,meters,jsons/v1_VE1000_randls_49_rotated.json,812359,1006716,53,Woman
20,566684,DepthScenes,duration_manipulation_targetAtFixation,jsons/v1_VE1000_randls_49_rotated.json,http://54.235.29.9/FacialAge/BNav_EC2/DepthDuration/v2_depth_duration_MTurk/v2_DepthDuration_HTML.html#369,369,1366,625,1366,768,9-18-2022,13-21-19,21,depth_duration_stimuli/002279_2014-06-28_18-55-32_260595134347_rgbf000040-resize_5/002279_2014-06-28_18-55-32_260595134347_rgbf000040-resize_5-target.png,1000,1.5043333333333,3,4486,992,meters,jsons/v1_VE1000_randls_49_rotated.json,812359,1006716,53,Woman
21,566684,DepthScenes,duration_manipulation_targetAtFixation,jsons/v1_VE1000_randls_49_rotated.json,http://54.235.29.9/FacialAge/BNav_EC2/DepthDuration/v2_depth_duration_MTurk/v2_DepthDuration_HTML.html#369,369,1366,625,1366,768,9-18-2022,13-21-19,22,depth_duration_stimuli/002545_2014-06-24_13-38-53_094959634447_rgbf000080-resize_4/002545_2014-06-24_13-38-53_094959634447_rgbf000080-resize_4-target.png,1000,1.9205,5,3380,1000,meters,jsons/v1_VE1000_randls_49_rotated.json,812359,1006716,53,Woman
22,566684,DepthScenes,duration_manipulation_targetAtFixation,jsons/v1_VE1000_randls_49_rotated.json,http://54.235.29.9/FacialAge/BNav_EC2/DepthDuration/v2_depth_duration_MTurk/v2_DepthDuration_HTML.html#369,369,1366,625,1366,768,9-18-2022,13-21-19,23,depth_duration_stimuli/001092_2014-06-15_17-34-58_260595134347_rgbf000171-resize_3/001092_2014-06-15_17-34-58_260595134347_rgbf000171-resize_3-target.png,1000,2.6935,3,3929,1001,meters,jsons/v1_VE1000_randls_49_rotated.json,812359,1006716,53,Woman
23,566684,DepthScenes,duration_manipulation_targetAtFixation,jsons/v1_VE1000_randls_49_rotated.json,http://54.235.29.9/FacialAge/BNav_EC2/DepthDuration/v2_depth_duration_MTurk/v2_DepthDuration_HTML.html#369,369,1366,625,1366,768,9-18-2022,13-21-19,24,depth_duration_stimuli/002758_2014-06-22_19-11-20_094959634447_rgbf000128-resize_1/002758_2014-06-22_19-11-20_094959634447_rgbf000128-resize_1-target.png,1000,2.555,3,3207,1012,meters,jsons/v1_VE1000_randls_49_rotated.json,812359,1006716,53,Woman
24,566684,DepthScenes,duration_manipulation_targetAtFixation,jsons/v1_VE1000_randls_49_rotated.json,http://54.235.29.9/FacialAge/BNav_EC2/DepthDuration/v2_depth_duration_MTurk/v2_DepthDuration_HTML.html#369,369,1366,625,1366,768,9-18-2022,13-21-19,25,depth_duration_stimuli/002630_2014-06-24_14-47-50_094959634447_rgbf000055-resize_1/002630_2014-06-24_14-47-50_094959634447_rgbf000055-resize_1-target.png,1000,3.0095,7,3678,1009,meters,jsons/v1_VE1000_randls_49_rotated.json,812359,1006716,53,Woman
25,566684,DepthScenes,duration_manipulation_targetAtFixation,jsons/v1_VE1000_randls_49_rotated.json,http://54.235.29.9/FacialAge/BNav_EC2/DepthDuration/v2_depth_duration_MTurk/v2_DepthDuration_HTML.html#369,369,1366,625,1366,768,9-18-2022,13-21-19,26,depth_duration_stimuli/002875_2014-06-01_15-19-00_094959634447_rgbf000151-resize_1/002875_2014-06-01_15-19-00_094959634447_rgbf000151-resize_1-target.png,1000,1.9675,8,5526,989,meters,jsons/v1_VE1000_randls_49_rotated.json,812359,1006716,53,Woman
26,566684,DepthScenes,duration_manipulation_targetAtFixation,jsons/v1_VE1000_randls_49_rotated.json,http://54.235.29.9/FacialAge/BNav_EC2/DepthDuration/v2_depth_duration_MTurk/v2_DepthDuration_HTML.html#369,369,1366,625,1366,768,9-18-2022,13-21-19,27,depth_duration_stimuli/001011_2014-06-08_23-18-54_260595134347_rgbf000044-resize_4/001011_2014-06-08_23-18-54_260595134347_rgbf000044-resize_4-target.png,1000,2.4730000000000003,4,3350,996,meters,jsons/v1_VE1000_randls_49_rotated.json,812359,1006716,53,Woman
27,566684,DepthScenes,duration_manipulation_targetAtFixation,jsons/v1_VE1000_randls_49_rotated.json,http://54.235.29.9/FacialAge/BNav_EC2/DepthDuration/v2_depth_duration_MTurk/v2_DepthDuration_HTML.html#369,369,1366,625,1366,768,9-18-2022,13-21-19,28,depth_duration_stimuli/000709_2014-06-08_13-51-55_260595134347_rgbf000068-resize_3/000709_2014-06-08_13-51-55_260595134347_rgbf000068-resize_3-target.png,1000,1.8030000000000002,7,3298,1004,meters,jsons/v1_VE1000_randls_49_rotated.json,812359,1006716,53,Woman
28,566684,DepthScenes,duration_manipulation_targetAtFixation,jsons/v1_VE1000_randls_49_rotated.json,http://54.235.29.9/FacialAge/BNav_EC2/DepthDuration/v2_depth_duration_MTurk/v2_DepthDuration_HTML.html#369,369,1366,625,1366,768,9-18-2022,13-21-19,29,depth_duration_stimuli/002057_2014-06-24_21-00-13_260595134347_rgbf000120-resize_1/002057_2014-06-24_21-00-13_260595134347_rgbf000120-resize_1-target.png,1000,2.967,7,3788,999,meters,jsons/v1_VE1000_randls_49_rotated.json,812359,1006716,53,Woman
29,566684,DepthScenes,duration_manipulation_targetAtFixation,jsons/v1_VE1000_randls_49_rotated.json,http://54.235.29.9/FacialAge/BNav_EC2/DepthDuration/v2_depth_duration_MTurk/v2_DepthDuration_HTML.html#369,369,1366,625,1366,768,9-18-2022,13-21-19,30,depth_duration_stimuli/002072_2014-06-24_21-48-06_260595134347_rgbf000115-resize_0/002072_2014-06-24_21-48-06_260595134347_rgbf000115-resize-original.jpg,1000,4.702,0,26428,999,meters,jsons/v1_VE1000_randls_49_rotated.json,812359,1006716,53,Woman
30,566684,DepthScenes,duration_manipulation_targetAtFixation,jsons/v1_VE1000_randls_49_rotated.json,http://54.235.29.9/FacialAge/BNav_EC2/DepthDuration/v2_depth_duration_MTurk/v2_DepthDuration_HTML.html#369,369,1366,625,1366,768,9-18-2022,13-21-19,31,depth_duration_stimuli/001516_2014-06-20_16-25-09_260595134347_rgbf000076-resize_2/001516_2014-06-20_16-25-09_260595134347_rgbf000076-resize_2-target.png,1000,1.7445,5,3389,996,meters,jsons/v1_VE1000_randls_49_rotated.json,812359,1006716,53,Woman
31,566684,DepthScenes,duration_manipulation_targetAtFixation,jsons/v1_VE1000_randls_49_rotated.json,http://54.235.29.9/FacialAge/BNav_EC2/DepthDuration/v2_depth_duration_MTurk/v2_DepthDuration_HTML.html#369,369,1366,625,1366,768,9-18-2022,13-21-19,32,depth_duration_stimuli/002118_2014-06-25_20-32-08_260595134347_rgbf000078-resize_1/002118_2014-06-25_20-32-08_260595134347_rgbf000078-resize_1-target.png,1000,2.6460000000000004,4,5739,1001,meters,jsons/v1_VE1000_randls_49_rotated.json,812359,1006716,53,Woman
32,566684,DepthScenes,duration_manipulation_targetAtFixation,jsons/v1_VE1000_randls_49_rotated.json,http://54.235.29.9/FacialAge/BNav_EC2/DepthDuration/v2_depth_duration_MTurk/v2_DepthDuration_HTML.html#369,369,1366,625,1366,768,9-18-2022,13-21-19,33,depth_duration_stimuli/000854_2014-06-09_19-43-13_260595134347_rgbf000066-resize_0/000854_2014-06-09_19-43-13_260595134347_rgbf000066-resize_0-target.png,1000,3.068,4,3899,1001,meters,jsons/v1_VE1000_randls_49_rotated.json,812359,1006716,53,Woman
33,566684,DepthScenes,duration_manipulation_targetAtFixation,jsons/v1_VE1000_randls_49_rotated.json,http://54.235.29.9/FacialAge/BNav_EC2/DepthDuration/v2_depth_duration_MTurk/v2_DepthDuration_HTML.html#369,369,1366,625,1366,768,9-18-2022,13-21-19,34,depth_duration_stimuli/000758_2014-06-08_22-05-08_260595134347_rgbf000085-resize_0/000758_2014-06-08_22-05-08_260595134347_rgbf000085-resize_0-target.png,1000,3.3810000000000002,5,3087,992,meters,jsons/v1_VE1000_randls_49_rotated.json,812359,1006716,53,Woman
34,566684,DepthScenes,duration_manipulation_targetAtFixation,jsons/v1_VE1000_randls_49_rotated.json,http://54.235.29.9/FacialAge/BNav_EC2/DepthDuration/v2_depth_duration_MTurk/v2_DepthDuration_HTML.html#369,369,1366,625,1366,768,9-18-2022,13-21-19,35,depth_duration_stimuli/000137_2014-05-20_17-04-49_260595134347_rgbf000120-resize_1/000137_2014-05-20_17-04-49_260595134347_rgbf000120-resize_1-target.png,1000,3.786,5,5678,994,meters,jsons/v1_VE1000_randls_49_rotated.json,812359,1006716,53,Woman
35,566684,DepthScenes,duration_manipulation_targetAtFixation,jsons/v1_VE1000_randls_49_rotated.json,http://54.235.29.9/FacialAge/BNav_EC2/DepthDuration/v2_depth_duration_MTurk/v2_DepthDuration_HTML.html#369,369,1366,625,1366,768,9-18-2022,13-21-19,36,depth_duration_stimuli/000736_2014-06-08_18-24-15_260595134347_rgbf000206-resize_3/000736_2014-06-08_18-24-15_260595134347_rgbf000206-resize_3-target.png,1000,3.515,4,4748,990,meters,jsons/v1_VE1000_randls_49_rotated.json,812359,1006716,53,Woman
36,566684,DepthScenes,duration_manipulation_targetAtFixation,jsons/v1_VE1000_randls_49_rotated.json,http://54.235.29.9/FacialAge/BNav_EC2/DepthDuration/v2_depth_duration_MTurk/v2_DepthDuration_HTML.html#369,369,1366,625,1366,768,9-18-2022,13-21-19,37,depth_duration_stimuli/002199_2014-06-28_18-33-56_260595134347_rgbf000074-resize_0/002199_2014-06-28_18-33-56_260595134347_rgbf000074-resize_0-target.png,1000,1.996,3,3955,999,meters,jsons/v1_VE1000_randls_49_rotated.json,812359,1006716,53,Woman
37,566684,DepthScenes,duration_manipulation_targetAtFixation,jsons/v1_VE1000_randls_49_rotated.json,http://54.235.29.9/FacialAge/BNav_EC2/DepthDuration/v2_depth_duration_MTurk/v2_DepthDuration_HTML.html#369,369,1366,625,1366,768,9-18-2022,13-21-19,38,depth_duration_stimuli/001056_2014-06-08_18-46-44_260595134347_rgbf000068-resize_0/001056_2014-06-08_18-46-44_260595134347_rgbf000068-resize_0-target.png,1000,2.6625,4,3407,994,meters,jsons/v1_VE1000_randls_49_rotated.json,812359,1006716,53,Woman
38,566684,DepthScenes,duration_manipulation_targetAtFixation,jsons/v1_VE1000_randls_49_rotated.json,http://54.235.29.9/FacialAge/BNav_EC2/DepthDuration/v2_depth_duration_MTurk/v2_DepthDuration_HTML.html#369,369,1366,625,1366,768,9-18-2022,13-21-19,39,depth_duration_stimuli/000409_2014-06-04_19-23-33_260595134347_rgbf000067-resize_0/000409_2014-06-04_19-23-33_260595134347_rgbf000067-resize_0-target.png,1000,3.7335,3,4174,1007,meters,jsons/v1_VE1000_randls_49_rotated.json,812359,1006716,53,Woman
39,566684,DepthScenes,duration_manipulation_targetAtFixation,jsons/v1_VE1000_randls_49_rotated.json,http://54.235.29.9/FacialAge/BNav_EC2/DepthDuration/v2_depth_duration_MTurk/v2_DepthDuration_HTML.html#369,369,1366,625,1366,768,9-18-2022,13-21-19,40,depth_duration_stimuli/002663_2014-06-13_15-50-26_094959634447_rgbf000075-resize_1/002663_2014-06-13_15-50-26_094959634447_rgbf000075-resize_1-target.png,1000,4.7495,7,3517,1010,meters,jsons/v1_VE1000_randls_49_rotated.json,812359,1006716,53,Woman
40,566684,DepthScenes,duration_manipulation_targetAtFixation,jsons/v1_VE1000_randls_49_rotated.json,http://54.235.29.9/FacialAge/BNav_EC2/DepthDuration/v2_depth_duration_MTurk/v2_DepthDuration_HTML.html#369,369,1366,625,1366,768,9-18-2022,13-21-19,41,depth_duration_stimuli/001052_2014-06-08_18-24-54_260595134347_rgbf000130-resize_1/001052_2014-06-08_18-24-54_260595134347_rgbf000130-resize_1-target.png,1000,4.1045,7,3297,1011,meters,jsons/v1_VE1000_randls_49_rotated.json,812359,1006716,53,Woman
41,566684,DepthScenes,duration_manipulation_targetAtFixation,jsons/v1_VE1000_randls_49_rotated.json,http://54.235.29.9/FacialAge/BNav_EC2/DepthDuration/v2_depth_duration_MTurk/v2_DepthDuration_HTML.html#369,369,1366,625,1366,768,9-18-2022,13-21-19,42,depth_duration_stimuli/002988_2014-06-15_12-24-20_094959634447_rgbf000150-resize_1/002988_2014-06-15_12-24-20_094959634447_rgbf000150-resize_1-target.png,1000,4.7669999999999995,7,3208,993,meters,jsons/v1_VE1000_randls_49_rotated.json,812359,1006716,53,Woman
42,566684,DepthScenes,duration_manipulation_targetAtFixation,jsons/v1_VE1000_randls_49_rotated.json,http://54.235.29.9/FacialAge/BNav_EC2/DepthDuration/v2_depth_duration_MTurk/v2_DepthDuration_HTML.html#369,369,1366,625,1366,768,9-18-2022,13-21-19,43,depth_duration_stimuli/002750_2014-06-22_19-08-03_094959634447_rgbf000094-resize_4/002750_2014-06-22_19-08-03_094959634447_rgbf000094-resize_4-target.png,1000,2.354,4,3276,1011,meters,jsons/v1_VE1000_randls_49_rotated.json,812359,1006716,53,Woman
43,566684,DepthScenes,duration_manipulation_targetAtFixation,jsons/v1_VE1000_randls_49_rotated.json,http://54.235.29.9/FacialAge/BNav_EC2/DepthDuration/v2_depth_duration_MTurk/v2_DepthDuration_HTML.html#369,369,1366,625,1366,768,9-18-2022,13-21-19,44,depth_duration_stimuli/002549_2014-06-24_13-41-39_094959634447_rgbf000022-resize_3/002549_2014-06-24_13-41-39_094959634447_rgbf000022-resize_3-target.png,1000,1.476,3,3596,999,meters,jsons/v1_VE1000_randls_49_rotated.json,812359,1006716,53,Woman
44,566684,DepthScenes,duration_manipulation_targetAtFixation,jsons/v1_VE1000_randls_49_rotated.json,http://54.235.29.9/FacialAge/BNav_EC2/DepthDuration/v2_depth_duration_MTurk/v2_DepthDuration_HTML.html#369,369,1366,625,1366,768,9-18-2022,13-21-19,45,depth_duration_stimuli/001392_2014-06-19_16-07-59_260595134347_rgbf000046-resize_1/001392_2014-06-19_16-07-59_260595134347_rgbf000046-resize_1-target.png,1000,4.135,6,4239,1013,meters,jsons/v1_VE1000_randls_49_rotated.json,812359,1006716,53,Woman
45,566684,DepthScenes,duration_manipulation_targetAtFixation,jsons/v1_VE1000_randls_49_rotated.json,http://54.235.29.9/FacialAge/BNav_EC2/DepthDuration/v2_depth_duration_MTurk/v2_DepthDuration_HTML.html#369,369,1366,625,1366,768,9-18-2022,13-21-19,46,depth_duration_stimuli/001570_2014-06-20_17-21-09_260595134347_rgbf000135-resize_4/001570_2014-06-20_17-21-09_260595134347_rgbf000135-resize_4-target.png,1000,4.467,8,3828,998,meters,jsons/v1_VE1000_randls_49_rotated.json,812359,1006716,53,Woman
46,566684,DepthScenes,duration_manipulation_targetAtFixation,jsons/v1_VE1000_randls_49_rotated.json,http://54.235.29.9/FacialAge/BNav_EC2/DepthDuration/v2_depth_duration_MTurk/v2_DepthDuration_HTML.html#369,369,1366,625,1366,768,9-18-2022,13-21-19,47,depth_duration_stimuli/001571_2014-06-20_17-21-32_260595134347_rgbf000089-resize_1/001571_2014-06-20_17-21-32_260595134347_rgbf000089-resize_1-target.png,1000,1.86,33,4606,997,meters,jsons/v1_VE1000_randls_49_rotated.json,812359,1006716,53,Woman
47,566684,DepthScenes,duration_manipulation_targetAtFixation,jsons/v1_VE1000_randls_49_rotated.json,http://54.235.29.9/FacialAge/BNav_EC2/DepthDuration/v2_depth_duration_MTurk/v2_DepthDuration_HTML.html#369,369,1366,625,1366,768,9-18-2022,13-21-19,48,depth_duration_stimuli/002272_2014-06-28_18-53-56_260595134347_rgbf000067-resize_2/002272_2014-06-28_18-53-56_260595134347_rgbf000067-resize_2-target.png,1000,1.138,4,8318,1008,meters,jsons/v1_VE1000_randls_49_rotated.json,812359,1006716,53,Woman
48,566684,DepthScenes,duration_manipulation_targetAtFixation,jsons/v1_VE1000_randls_49_rotated.json,http://54.235.29.9/FacialAge/BNav_EC2/DepthDuration/v2_depth_duration_MTurk/v2_DepthDuration_HTML.html#369,369,1366,625,1366,768,9-18-2022,13-21-19,49,depth_duration_stimuli/001170_2014-06-17_15-43-44_260595134347_rgbf000096-resize_6/001170_2014-06-17_15-43-44_260595134347_rgbf000096-resize-original.jpg,1000,1.1909999999999998,0,6807,988,meters,jsons/v1_VE1000_randls_49_rotated.json,812359,1006716,53,Woman
49,566684,DepthScenes,duration_manipulation_targetAtFixation,jsons/v1_VE1000_randls_49_rotated.json,http://54.235.29.9/FacialAge/BNav_EC2/DepthDuration/v2_depth_duration_MTurk/v2_DepthDuration_HTML.html#369,369,1366,625,1366,768,9-18-2022,13-21-19,50,depth_duration_stimuli/000742_2014-06-08_18-48-09_260595134347_rgbf000164-resize_4/000742_2014-06-08_18-48-09_260595134347_rgbf000164-resize_4-target.png,1000,4.632,6,9339,999,meters,jsons/v1_VE1000_randls_49_rotated.json,812359,1006716,53,Woman
50,566684,DepthScenes,duration_manipulation_targetAtFixation,jsons/v1_VE1000_randls_49_rotated.json,http://54.235.29.9/FacialAge/BNav_EC2/DepthDuration/v2_depth_duration_MTurk/v2_DepthDuration_HTML.html#369,369,1366,625,1366,768,9-18-2022,13-21-19,51,depth_duration_stimuli/001066_2014-06-08_22-03-20_260595134347_rgbf000066-resize_4/001066_2014-06-08_22-03-20_260595134347_rgbf000066-resize_4-target.png,1000,4.2330000000000005,7,4131,992,meters,jsons/v1_VE1000_randls_49_rotated.json,812359,1006716,53,Woman
51,566684,DepthScenes,duration_manipulation_targetAtFixation,jsons/v1_VE1000_randls_49_rotated.json,http://54.235.29.9/FacialAge/BNav_EC2/DepthDuration/v2_depth_duration_MTurk/v2_DepthDuration_HTML.html#369,369,1366,625,1366,768,9-18-2022,13-21-19,52,depth_duration_stimuli/000780_2014-06-08_22-28-29_260595134347_rgbf000126-resize_1/000780_2014-06-08_22-28-29_260595134347_rgbf000126-resize_1-target.png,1000,3.3825,6,3473,994,meters,jsons/v1_VE1000_randls_49_rotated.json,812359,1006716,53,Woman
52,566684,DepthScenes,duration_manipulation_targetAtFixation,jsons/v1_VE1000_randls_49_rotated.json,http://54.235.29.9/FacialAge/BNav_EC2/DepthDuration/v2_depth_duration_MTurk/v2_DepthDuration_HTML.html#369,369,1366,625,1366,768,9-18-2022,13-21-19,53,depth_duration_stimuli/002445_2014-06-28_20-32-16_260595134347_rgbf000029-resize_4/002445_2014-06-28_20-32-16_260595134347_rgbf000029-resize_4-target.png,1000,2.5315,3,3415,1000,meters,jsons/v1_VE1000_randls_49_rotated.json,812359,1006716,53,Woman
53,566684,DepthScenes,duration_manipulation_targetAtFixation,jsons/v1_VE1000_randls_49_rotated.json,http://54.235.29.9/FacialAge/BNav_EC2/DepthDuration/v2_depth_duration_MTurk/v2_DepthDuration_HTML.html#369,369,1366,625,1366,768,9-18-2022,13-21-19,54,depth_duration_stimuli/002995_2014-06-15_12-31-26_094959634447_rgbf000150-resize_1/002995_2014-06-15_12-31-26_094959634447_rgbf000150-resize_1-target.png,1000,3.8360000000000003,6,3452,1003,meters,jsons/v1_VE1000_randls_49_rotated.json,812359,1006716,53,Woman
54,566684,DepthScenes,duration_manipulation_targetAtFixation,jsons/v1_VE1000_randls_49_rotated.json,http://54.235.29.9/FacialAge/BNav_EC2/DepthDuration/v2_depth_duration_MTurk/v2_DepthDuration_HTML.html#369,369,1366,625,1366,768,9-18-2022,13-21-19,55,depth_duration_stimuli/002748_2014-06-22_19-07-22_094959634447_rgbf000078-resize_1/002748_2014-06-22_19-07-22_094959634447_rgbf000078-resize_1-target.png,1000,4.6705,7,3839,1007,meters,jsons/v1_VE1000_randls_49_rotated.json,812359,1006716,53,Woman
55,566684,DepthScenes,duration_manipulation_targetAtFixation,jsons/v1_VE1000_randls_49_rotated.json,http://54.235.29.9/FacialAge/BNav_EC2/DepthDuration/v2_depth_duration_MTurk/v2_DepthDuration_HTML.html#369,369,1366,625,1366,768,9-18-2022,13-21-19,56,depth_duration_stimuli/002949_2014-06-26_15-57-42_094959634447_rgbf000079-resize_1/002949_2014-06-26_15-57-42_094959634447_rgbf000079-resize_1-target.png,1000,1.8915,3,3719,999,meters,jsons/v1_VE1000_randls_49_rotated.json,812359,1006716,53,Woman
56,566684,DepthScenes,duration_manipulation_targetAtFixation,jsons/v1_VE1000_randls_49_rotated.json,http://54.235.29.9/FacialAge/BNav_EC2/DepthDuration/v2_depth_duration_MTurk/v2_DepthDuration_HTML.html#369,369,1366,625,1366,768,9-18-2022,13-21-19,57,depth_duration_stimuli/000522_2014-06-08_13-35-06_260595134347_rgbf000244-resize_1/000522_2014-06-08_13-35-06_260595134347_rgbf000244-resize_1-target.png,1000,2.3715,3,3320,1000,meters,jsons/v1_VE1000_randls_49_rotated.json,812359,1006716,53,Woman
57,566684,DepthScenes,duration_manipulation_targetAtFixation,jsons/v1_VE1000_randls_49_rotated.json,http://54.235.29.9/FacialAge/BNav_EC2/DepthDuration/v2_depth_duration_MTurk/v2_DepthDuration_HTML.html#369,369,1366,625,1366,768,9-18-2022,13-21-19,58,depth_duration_stimuli/002660_2014-06-13_15-44-18_094959634447_rgbf001878-resize_2/002660_2014-06-13_15-44-18_094959634447_rgbf001878-resize_2-target.png,1000,3.576,4,3198,1002,meters,jsons/v1_VE1000_randls_49_rotated.json,812359,1006716,53,Woman
58,566684,DepthScenes,duration_manipulation_targetAtFixation,jsons/v1_VE1000_randls_49_rotated.json,http://54.235.29.9/FacialAge/BNav_EC2/DepthDuration/v2_depth_duration_MTurk/v2_DepthDuration_HTML.html#369,369,1366,625,1366,768,9-18-2022,13-21-19,59,depth_duration_stimuli/002153_2014-06-25_21-27-18_260595134347_rgbf000038-resize_5/002153_2014-06-25_21-27-18_260595134347_rgbf000038-resize_5-target.png,1000,2.505,3,3471,1000,meters,jsons/v1_VE1000_randls_49_rotated.json,812359,1006716,53,Woman
59,566684,DepthScenes,duration_manipulation_targetAtFixation,jsons/v1_VE1000_randls_49_rotated.json,http://54.235.29.9/FacialAge/BNav_EC2/DepthDuration/v2_depth_duration_MTurk/v2_DepthDuration_HTML.html#369,369,1366,625,1366,768,9-18-2022,13-21-19,60,depth_duration_stimuli/001450_2014-06-19_17-02-03_260595134347_rgbf000203-resize_4/001450_2014-06-19_17-02-03_260595134347_rgbf000203-resize_4-target.png,1000,4.0106666666667,7,3392,1012,meters,jsons/v1_VE1000_randls_49_rotated.json,812359,1006716,53,Woman
60,566684,DepthScenes,duration_manipulation_targetAtFixation,jsons/v1_VE1000_randls_49_rotated.json,http://54.235.29.9/FacialAge/BNav_EC2/DepthDuration/v2_depth_duration_MTurk/v2_DepthDuration_HTML.html#369,369,1366,625,1366,768,9-18-2022,13-21-19,61,depth_duration_stimuli/001449_2014-06-19_17-01-27_260595134347_rgbf000116-resize_2/001449_2014-06-19_17-01-27_260595134347_rgbf000116-resize_2-target.png,1000,3.452,6,3345,987,meters,jsons/v1_VE1000_randls_49_rotated.json,812359,1006716,53,Woman
61,566684,DepthScenes,duration_manipulation_targetAtFixation,jsons/v1_VE1000_randls_49_rotated.json,http://54.235.29.9/FacialAge/BNav_EC2/DepthDuration/v2_depth_duration_MTurk/v2_DepthDuration_HTML.html#369,369,1366,625,1366,768,9-18-2022,13-21-19,62,depth_duration_stimuli/003495_2014-05-21_16-01-51_094959634447_rgbf000100-resize_3/003495_2014-05-21_16-01-51_094959634447_rgbf000100-resize_3-target.png,1000,1.6255,2,3395,1006,meters,jsons/v1_VE1000_randls_49_rotated.json,812359,1006716,53,Woman
62,566684,DepthScenes,duration_manipulation_targetAtFixation,jsons/v1_VE1000_randls_49_rotated.json,http://54.235.29.9/FacialAge/BNav_EC2/DepthDuration/v2_depth_duration_MTurk/v2_DepthDuration_HTML.html#369,369,1366,625,1366,768,9-18-2022,13-21-19,63,depth_duration_stimuli/001244_2014-06-17_16-47-45_260595134347_rgbf000030-resize_4/001244_2014-06-17_16-47-45_260595134347_rgbf000030-resize_4-target.png,1000,2.0425,4,3474,997,meters,jsons/v1_VE1000_randls_49_rotated.json,812359,1006716,53,Woman
63,566684,DepthScenes,duration_manipulation_targetAtFixation,jsons/v1_VE1000_randls_49_rotated.json,http://54.235.29.9/FacialAge/BNav_EC2/DepthDuration/v2_depth_duration_MTurk/v2_DepthDuration_HTML.html#369,369,1366,625,1366,768,9-18-2022,13-21-19,64,depth_duration_stimuli/002639_2014-06-24_14-51-37_094959634447_rgbf000074-resize_4/002639_2014-06-24_14-51-37_094959634447_rgbf000074-resize_4-target.png,1000,4.0375,5,3986,988,meters,jsons/v1_VE1000_randls_49_rotated.json,812359,1006716,53,Woman
64,566684,DepthScenes,duration_manipulation_targetAtFixation,jsons/v1_VE1000_randls_49_rotated.json,http://54.235.29.9/FacialAge/BNav_EC2/DepthDuration/v2_depth_duration_MTurk/v2_DepthDuration_HTML.html#369,369,1366,625,1366,768,9-18-2022,13-21-19,65,depth_duration_stimuli/003292_2014-05-14_21-53-49_094959634447_rgbf000100-resize_2/003292_2014-05-14_21-53-49_094959634447_rgbf000100-resize_2-target.png,1000,3.4815,4,3555,1007,meters,jsons/v1_VE1000_randls_49_rotated.json,812359,1006716,53,Woman
65,566684,DepthScenes,duration_manipulation_targetAtFixation,jsons/v1_VE1000_randls_49_rotated.json,http://54.235.29.9/FacialAge/BNav_EC2/DepthDuration/v2_depth_duration_MTurk/v2_DepthDuration_HTML.html#369,369,1366,625,1366,768,9-18-2022,13-21-19,66,depth_duration_stimuli/001540_2014-06-20_17-01-05_260595134347_rgbf000086-resize_2/001540_2014-06-20_17-01-05_260595134347_rgbf000086-resize-original.jpg,1000,1.459,5,4504,986,meters,jsons/v1_VE1000_randls_49_rotated.json,812359,1006716,53,Woman
66,566684,DepthScenes,duration_manipulation_targetAtFixation,jsons/v1_VE1000_randls_49_rotated.json,http://54.235.29.9/FacialAge/BNav_EC2/DepthDuration/v2_depth_duration_MTurk/v2_DepthDuration_HTML.html#369,369,1366,625,1366,768,9-18-2022,13-21-19,67,depth_duration_stimuli/002568_2014-06-24_13-59-21_094959634447_rgbf000062-resize_4/002568_2014-06-24_13-59-21_094959634447_rgbf000062-resize_4-target.png,1000,3.015,5,3231,1001,meters,jsons/v1_VE1000_randls_49_rotated.json,812359,1006716,53,Woman
67,566684,DepthScenes,duration_manipulation_targetAtFixation,jsons/v1_VE1000_randls_49_rotated.json,http://54.235.29.9/FacialAge/BNav_EC2/DepthDuration/v2_depth_duration_MTurk/v2_DepthDuration_HTML.html#369,369,1366,625,1366,768,9-18-2022,13-21-19,68,depth_duration_stimuli/003492_2014-05-21_15-50-55_094959634447_rgbf000828-resize_1/003492_2014-05-21_15-50-55_094959634447_rgbf000828-resize_1-target.png,1000,4.06875,5,3171,997,meters,jsons/v1_VE1000_randls_49_rotated.json,812359,1006716,53,Woman
68,566684,DepthScenes,duration_manipulation_targetAtFixation,jsons/v1_VE1000_randls_49_rotated.json,http://54.235.29.9/FacialAge/BNav_EC2/DepthDuration/v2_depth_duration_MTurk/v2_DepthDuration_HTML.html#369,369,1366,625,1366,768,9-18-2022,13-21-19,69,depth_duration_stimuli/002414_2014-06-28_20-24-58_260595134347_rgbf000067-resize_4/002414_2014-06-28_20-24-58_260595134347_rgbf000067-resize_4-target.png,1000,4.363,5,3268,994,meters,jsons/v1_VE1000_randls_49_rotated.json,812359,1006716,53,Woman
69,566684,DepthScenes,duration_manipulation_targetAtFixation,jsons/v1_VE1000_randls_49_rotated.json,http://54.235.29.9/FacialAge/BNav_EC2/DepthDuration/v2_depth_duration_MTurk/v2_DepthDuration_HTML.html#369,369,1366,625,1366,768,9-18-2022,13-21-19,70,depth_duration_stimuli/000773_2014-06-08_22-24-54_260595134347_rgbf000093-resize_1/000773_2014-06-08_22-24-54_260595134347_rgbf000093-resize_1-target.png,1000,4.973,5,3032,999,meters,jsons/v1_VE1000_randls_49_rotated.json,812359,1006716,53,Woman
70,566684,DepthScenes,duration_manipulation_targetAtFixation,jsons/v1_VE1000_randls_49_rotated.json,http://54.235.29.9/FacialAge/BNav_EC2/DepthDuration/v2_depth_duration_MTurk/v2_DepthDuration_HTML.html#369,369,1366,625,1366,768,9-18-2022,13-21-19,71,depth_duration_stimuli/001235_2014-06-17_16-37-36_260595134347_rgbf000084-resize_4/001235_2014-06-17_16-37-36_260595134347_rgbf000084-resize_4-target.png,1000,3.6605,5,3269,989,meters,jsons/v1_VE1000_randls_49_rotated.json,812359,1006716,53,Woman
71,566684,DepthScenes,duration_manipulation_targetAtFixation,jsons/v1_VE1000_randls_49_rotated.json,http://54.235.29.9/FacialAge/BNav_EC2/DepthDuration/v2_depth_duration_MTurk/v2_DepthDuration_HTML.html#369,369,1366,625,1366,768,9-18-2022,13-21-19,72,depth_duration_stimuli/000788_2014-06-08_22-34-36_260595134347_rgbf000131-resize_1/000788_2014-06-08_22-34-36_260595134347_rgbf000131-resize_1-target.png,1000,3.359,4,2995,998,meters,jsons/v1_VE1000_randls_49_rotated.json,812359,1006716,53,Woman
72,566684,DepthScenes,duration_manipulation_targetAtFixation,jsons/v1_VE1000_randls_49_rotated.json,http://54.235.29.9/FacialAge/BNav_EC2/DepthDuration/v2_depth_duration_MTurk/v2_DepthDuration_HTML.html#369,369,1366,625,1366,768,9-18-2022,13-21-19,73,depth_duration_stimuli/000103_2014-05-14_22-01-17_260595134347_rgbf000152-resize_5/000103_2014-05-14_22-01-17_260595134347_rgbf000152-resize_5-target.png,1000,1.993,5,3503,1000,meters,jsons/v1_VE1000_randls_49_rotated.json,812359,1006716,53,Woman
73,566684,DepthScenes,duration_manipulation_targetAtFixation,jsons/v1_VE1000_randls_49_rotated.json,http://54.235.29.9/FacialAge/BNav_EC2/DepthDuration/v2_depth_duration_MTurk/v2_DepthDuration_HTML.html#369,369,1366,625,1366,768,9-18-2022,13-21-19,74,depth_duration_stimuli/001555_2014-06-20_17-12-10_260595134347_rgbf000065-resize_4/001555_2014-06-20_17-12-10_260595134347_rgbf000065-resize_4-target.png,1000,1.633,3,4088,1009,meters,jsons/v1_VE1000_randls_49_rotated.json,812359,1006716,53,Woman
74,566684,DepthScenes,duration_manipulation_targetAtFixation,jsons/v1_VE1000_randls_49_rotated.json,http://54.235.29.9/FacialAge/BNav_EC2/DepthDuration/v2_depth_duration_MTurk/v2_DepthDuration_HTML.html#369,369,1366,625,1366,768,9-18-2022,13-21-19,75,depth_duration_stimuli/000549_2014-06-08_22-10-24_260595134347_rgbf000247-resize_3/000549_2014-06-08_22-10-24_260595134347_rgbf000247-resize_3-target.png,1000,1.841,3,2917,1006,meters,jsons/v1_VE1000_randls_49_rotated.json,812359,1006716,53,Woman
75,566684,DepthScenes,duration_manipulation_targetAtFixation,jsons/v1_VE1000_randls_49_rotated.json,http://54.235.29.9/FacialAge/BNav_EC2/DepthDuration/v2_depth_duration_MTurk/v2_DepthDuration_HTML.html#369,369,1366,625,1366,768,9-18-2022,13-21-19,76,depth_duration_stimuli/001055_2014-06-08_18-45-35_260595134347_rgbf000111-resize_4/001055_2014-06-08_18-45-35_260595134347_rgbf000111-resize_4-target.png,1000,2.4290000000000003,0,15255,1004,meters,jsons/v1_VE1000_randls_49_rotated.json,812359,1006716,53,Woman
76,566684,DepthScenes,duration_manipulation_targetAtFixation,jsons/v1_VE1000_randls_49_rotated.json,http://54.235.29.9/FacialAge/BNav_EC2/DepthDuration/v2_depth_duration_MTurk/v2_DepthDuration_HTML.html#369,369,1366,625,1366,768,9-18-2022,13-21-19,77,depth_duration_stimuli/002637_2014-06-24_14-51-13_094959634447_rgbf000066-resize_4/002637_2014-06-24_14-51-13_094959634447_rgbf000066-resize_4-target.png,1000,1.9955,6,3274,1008,meters,jsons/v1_VE1000_randls_49_rotated.json,812359,1006716,53,Woman
77,566684,DepthScenes,duration_manipulation_targetAtFixation,jsons/v1_VE1000_randls_49_rotated.json,http://54.235.29.9/FacialAge/BNav_EC2/DepthDuration/v2_depth_duration_MTurk/v2_DepthDuration_HTML.html#369,369,1366,625,1366,768,9-18-2022,13-21-19,78,depth_duration_stimuli/003534_2014-05-22_15-06-10_094959634447_rgbf000102-resize_4/003534_2014-05-22_15-06-10_094959634447_rgbf000102-resize_4-target.png,1000,1.426,2,3346,987,meters,jsons/v1_VE1000_randls_49_rotated.json,812359,1006716,53,Woman
78,566684,DepthScenes,duration_manipulation_targetAtFixation,jsons/v1_VE1000_randls_49_rotated.json,http://54.235.29.9/FacialAge/BNav_EC2/DepthDuration/v2_depth_duration_MTurk/v2_DepthDuration_HTML.html#369,369,1366,625,1366,768,9-18-2022,13-21-19,79,depth_duration_stimuli/000734_2014-06-08_17-39-11_260595134347_rgbf000128-resize_2/000734_2014-06-08_17-39-11_260595134347_rgbf000128-resize_2-target.png,1000,4.098,6,4439,999,meters,jsons/v1_VE1000_randls_49_rotated.json,812359,1006716,53,Woman
79,566684,DepthScenes,duration_manipulation_targetAtFixation,jsons/v1_VE1000_randls_49_rotated.json,http://54.235.29.9/FacialAge/BNav_EC2/DepthDuration/v2_depth_duration_MTurk/v2_DepthDuration_HTML.html#369,369,1366,625,1366,768,9-18-2022,13-21-19,80,depth_duration_stimuli/000739_2014-06-08_18-45-58_260595134347_rgbf000068-resize_1/000739_2014-06-08_18-45-58_260595134347_rgbf000068-resize_1-target.png,1000,3.534,6,3226,1002,meters,jsons/v1_VE1000_randls_49_rotated.json,812359,1006716,53,Woman
80,566684,DepthScenes,duration_manipulation_targetAtFixation,jsons/v1_VE1000_randls_49_rotated.json,http://54.235.29.9/FacialAge/BNav_EC2/DepthDuration/v2_depth_duration_MTurk/v2_DepthDuration_HTML.html#369,369,1366,625,1366,768,9-18-2022,13-21-19,81,depth_duration_stimuli/000943_2014-06-09_19-31-07_260595134347_rgbf000128-resize_1/000943_2014-06-09_19-31-07_260595134347_rgbf000128-resize_1-target.png,1000,1.9765,5,3674,1002,meters,jsons/v1_VE1000_randls_49_rotated.json,812359,1006716,53,Woman
81,566684,DepthScenes,duration_manipulation_targetAtFixation,jsons/v1_VE1000_randls_49_rotated.json,http://54.235.29.9/FacialAge/BNav_EC2/DepthDuration/v2_depth_duration_MTurk/v2_DepthDuration_HTML.html#369,369,1366,625,1366,768,9-18-2022,13-21-19,82,depth_duration_stimuli/003070_2014-06-15_14-58-27_094959634447_rgbf000150-resize_3/003070_2014-06-15_14-58-27_094959634447_rgbf000150-resize_3-target.png,1000,2.9415,5,3567,994,meters,jsons/v1_VE1000_randls_49_rotated.json,812359,1006716,53,Woman
82,566684,DepthScenes,duration_manipulation_targetAtFixation,jsons/v1_VE1000_randls_49_rotated.json,http://54.235.29.9/FacialAge/BNav_EC2/DepthDuration/v2_depth_duration_MTurk/v2_DepthDuration_HTML.html#369,369,1366,625,1366,768,9-18-2022,13-21-19,83,depth_duration_stimuli/002805_2014-06-22_19-54-03_094959634447_rgbf000079-resize_1/002805_2014-06-22_19-54-03_094959634447_rgbf000079-resize_1-target.png,1000,3.1439999999999997,5,3435,1000,meters,jsons/v1_VE1000_randls_49_rotated.json,812359,1006716,53,Woman
83,566684,DepthScenes,duration_manipulation_targetAtFixation,jsons/v1_VE1000_randls_49_rotated.json,http://54.235.29.9/FacialAge/BNav_EC2/DepthDuration/v2_depth_duration_MTurk/v2_DepthDuration_HTML.html#369,369,1366,625,1366,768,9-18-2022,13-21-19,84,depth_duration_stimuli/000906_2014-06-08_13-35-43_260595134347_rgbf000155-resize_1/000906_2014-06-08_13-35-43_260595134347_rgbf000155-resize_1-target.png,1000,2.8489999999999998,7,3639,990,meters,jsons/v1_VE1000_randls_49_rotated.json,812359,1006716,53,Woman
84,566684,DepthScenes,duration_manipulation_targetAtFixation,jsons/v1_VE1000_randls_49_rotated.json,http://54.235.29.9/FacialAge/BNav_EC2/DepthDuration/v2_depth_duration_MTurk/v2_DepthDuration_HTML.html#369,369,1366,625,1366,768,9-18-2022,13-21-19,85,depth_duration_stimuli/002136_2014-06-25_21-18-03_260595134347_rgbf000109-resize_3/002136_2014-06-25_21-18-03_260595134347_rgbf000109-resize_3-target.png,1000,1.9569999999999999,3,3659,1000,meters,jsons/v1_VE1000_randls_49_rotated.json,812359,1006716,53,Woman
85,566684,DepthScenes,duration_manipulation_targetAtFixation,jsons/v1_VE1000_randls_49_rotated.json,http://54.235.29.9/FacialAge/BNav_EC2/DepthDuration/v2_depth_duration_MTurk/v2_DepthDuration_HTML.html#369,369,1366,625,1366,768,9-18-2022,13-21-19,86,depth_duration_stimuli/002964_2014-06-08_17-46-11_094959634447_rgbf000091-resize_4/002964_2014-06-08_17-46-11_094959634447_rgbf000091-resize_4-target.png,1000,1.6909999999999998,2,3299,1013,meters,jsons/v1_VE1000_randls_49_rotated.json,812359,1006716,53,Woman
86,566684,DepthScenes,duration_manipulation_targetAtFixation,jsons/v1_VE1000_randls_49_rotated.json,http://54.235.29.9/FacialAge/BNav_EC2/DepthDuration/v2_depth_duration_MTurk/v2_DepthDuration_HTML.html#369,369,1366,625,1366,768,9-18-2022,13-21-19,87,depth_duration_stimuli/002467_2014-06-28_20-38-07_260595134347_rgbf000026-resize_2/002467_2014-06-28_20-38-07_260595134347_rgbf000026-resize_2-target.png,1000,4.742,6,3315,1007,meters,jsons/v1_VE1000_randls_49_rotated.json,812359,1006716,53,Woman
87,566684,DepthScenes,duration_manipulation_targetAtFixation,jsons/v1_VE1000_randls_49_rotated.json,http://54.235.29.9/FacialAge/BNav_EC2/DepthDuration/v2_depth_duration_MTurk/v2_DepthDuration_HTML.html#369,369,1366,625,1366,768,9-18-2022,13-21-19,88,depth_duration_stimuli/002570_2014-06-24_13-59-54_094959634447_rgbf000059-resize_0/002570_2014-06-24_13-59-54_094959634447_rgbf000059-resize_0-target.png,1000,4.037,6,3967,994,meters,jsons/v1_VE1000_randls_49_rotated.json,812359,1006716,53,Woman
88,566684,DepthScenes,duration_manipulation_targetAtFixation,jsons/v1_VE1000_randls_49_rotated.json,http://54.235.29.9/FacialAge/BNav_EC2/DepthDuration/v2_depth_duration_MTurk/v2_DepthDuration_HTML.html#369,369,1366,625,1366,768,9-18-2022,13-21-19,89,depth_duration_stimuli/001136_2014-06-17_15-19-41_260595134347_rgbf000076-resize_3/001136_2014-06-17_15-19-41_260595134347_rgbf000076-resize_3-target.png,1000,1.8655,7,3738,993,meters,jsons/v1_VE1000_randls_49_rotated.json,812359,1006716,53,Woman
89,566684,DepthScenes,duration_manipulation_targetAtFixation,jsons/v1_VE1000_randls_49_rotated.json,http://54.235.29.9/FacialAge/BNav_EC2/DepthDuration/v2_depth_duration_MTurk/v2_DepthDuration_HTML.html#369,369,1366,625,1366,768,9-18-2022,13-21-19,90,depth_duration_stimuli/001164_2014-06-17_15-35-46_260595134347_rgbf000085-resize_3/001164_2014-06-17_15-35-46_260595134347_rgbf000085-resize_3-target.png,1000,2.354,7,3126,994,meters,jsons/v1_VE1000_randls_49_rotated.json,812359,1006716,53,Woman
90,566684,DepthScenes,duration_manipulation_targetAtFixation,jsons/v1_VE1000_randls_49_rotated.json,http://54.235.29.9/FacialAge/BNav_EC2/DepthDuration/v2_depth_duration_MTurk/v2_DepthDuration_HTML.html#369,369,1366,625,1366,768,9-18-2022,13-21-19,91,depth_duration_stimuli/003129_2014-05-12_10-48-10_094959634447_rgbf000100-resize_0/003129_2014-05-12_10-48-10_094959634447_rgbf000100-resize_0-target.png,1000,4.9305,6,24758,999,meters,jsons/v1_VE1000_randls_49_rotated.json,812359,1006716,53,Woman
91,566684,DepthScenes,duration_manipulation_targetAtFixation,jsons/v1_VE1000_randls_49_rotated.json,http://54.235.29.9/FacialAge/BNav_EC2/DepthDuration/v2_depth_duration_MTurk/v2_DepthDuration_HTML.html#369,369,1366,625,1366,768,9-18-2022,13-21-19,92,depth_duration_stimuli/000414_2014-06-04_19-49-13_260595134347_rgbf000044-resize_0/000414_2014-06-04_19-49-13_260595134347_rgbf000044-resize_0-target.png,1000,4.329,7,3604,984,meters,jsons/v1_VE1000_randls_49_rotated.json,812359,1006716,53,Woman
92,566684,DepthScenes,duration_manipulation_targetAtFixation,jsons/v1_VE1000_randls_49_rotated.json,http://54.235.29.9/FacialAge/BNav_EC2/DepthDuration/v2_depth_duration_MTurk/v2_DepthDuration_HTML.html#369,369,1366,625,1366,768,9-18-2022,13-21-19,93,depth_duration_stimuli/002103_2014-06-25_20-00-40_260595134347_rgbf000049-resize_0/002103_2014-06-25_20-00-40_260595134347_rgbf000049-resize_0-target.png,1000,4.105,7,3530,1004,meters,jsons/v1_VE1000_randls_49_rotated.json,812359,1006716,53,Woman
93,566684,DepthScenes,duration_manipulation_targetAtFixation,jsons/v1_VE1000_randls_49_rotated.json,http://54.235.29.9/FacialAge/BNav_EC2/DepthDuration/v2_depth_duration_MTurk/v2_DepthDuration_HTML.html#369,369,1366,625,1366,768,9-18-2022,13-21-19,94,depth_duration_stimuli/002039_2014-06-24_20-22-38_260595134347_rgbf000084-resize_1/002039_2014-06-24_20-22-38_260595134347_rgbf000084-resize_1-target.png,1000,4.408,7,2898,998,meters,jsons/v1_VE1000_randls_49_rotated.json,812359,1006716,53,Woman
94,566684,DepthScenes,duration_manipulation_targetAtFixation,jsons/v1_VE1000_randls_49_rotated.json,http://54.235.29.9/FacialAge/BNav_EC2/DepthDuration/v2_depth_duration_MTurk/v2_DepthDuration_HTML.html#369,369,1366,625,1366,768,9-18-2022,13-21-19,95,depth_duration_stimuli/001132_2014-06-17_14-48-54_260595134347_rgbf000100-resize_2/001132_2014-06-17_14-48-54_260595134347_rgbf000100-resize_2-target.png,1000,3.753,6,2998,999,meters,jsons/v1_VE1000_randls_49_rotated.json,812359,1006716,53,Woman
95,566684,DepthScenes,duration_manipulation_targetAtFixation,jsons/v1_VE1000_randls_49_rotated.json,http://54.235.29.9/FacialAge/BNav_EC2/DepthDuration/v2_depth_duration_MTurk/v2_DepthDuration_HTML.html#369,369,1366,625,1366,768,9-18-2022,13-21-19,96,depth_duration_stimuli/001133_2014-06-17_14-49-16_260595134347_rgbf000100-resize_0/001133_2014-06-17_14-49-16_260595134347_rgbf000100-resize_0-target.png,1000,4.2115,6,3039,1012,meters,jsons/v1_VE1000_randls_49_rotated.json,812359,1006716,53,Woman
96,566684,DepthScenes,duration_manipulation_targetAtFixation,jsons/v1_VE1000_randls_49_rotated.json,http://54.235.29.9/FacialAge/BNav_EC2/DepthDuration/v2_depth_duration_MTurk/v2_DepthDuration_HTML.html#369,369,1366,625,1366,768,9-18-2022,13-21-19,97,depth_duration_stimuli/002657_2014-06-13_15-29-54_094959634447_rgbf000150-resize_1/002657_2014-06-13_15-29-54_094959634447_rgbf000150-resize_1-target.png,1000,4.919,5,3298,1000,meters,jsons/v1_VE1000_randls_49_rotated.json,812359,1006716,53,Woman
97,566684,DepthScenes,duration_manipulation_targetAtFixation,jsons/v1_VE1000_randls_49_rotated.json,http://54.235.29.9/FacialAge/BNav_EC2/DepthDuration/v2_depth_duration_MTurk/v2_DepthDuration_HTML.html#369,369,1366,625,1366,768,9-18-2022,13-21-19,98,depth_duration_stimuli/002375_2014-06-28_20-13-44_260595134347_rgbf000032-resize_1/002375_2014-06-28_20-13-44_260595134347_rgbf000032-resize_1-target.png,1000,4.0175,4,3398,1000,meters,jsons/v1_VE1000_randls_49_rotated.json,812359,1006716,53,Woman
98,566684,DepthScenes,duration_manipulation_targetAtFixation,jsons/v1_VE1000_randls_49_rotated.json,http://54.235.29.9/FacialAge/BNav_EC2/DepthDuration/v2_depth_duration_MTurk/v2_DepthDuration_HTML.html#369,369,1366,625,1366,768,9-18-2022,13-21-19,99,depth_duration_stimuli/001222_2014-06-17_16-24-06_260595134347_rgbf000073-resize_0/001222_2014-06-17_16-24-06_260595134347_rgbf000073-resize-original.jpg,1000,1.4385,0,4157,999,meters,jsons/v1_VE1000_randls_49_rotated.json,812359,1006716,53,Woman
99,566684,DepthScenes,duration_manipulation_targetAtFixation,jsons/v1_VE1000_randls_49_rotated.json,http://54.235.29.9/FacialAge/BNav_EC2/DepthDuration/v2_depth_duration_MTurk/v2_DepthDuration_HTML.html#369,369,1366,625,1366,768,9-18-2022,13-21-19,100,depth_duration_stimuli/000749_2014-06-08_21-55-06_260595134347_rgbf000070-resize_2/000749_2014-06-08_21-55-06_260595134347_rgbf000070-resize_2-target.png,1000,2.331,5,3279,1000,meters,jsons/v1_VE1000_randls_49_rotated.json,812359,1006716,53,Woman
100,566684,DepthScenes,duration_manipulation_targetAtFixation,jsons/v1_VE1000_randls_49_rotated.json,http://54.235.29.9/FacialAge/BNav_EC2/DepthDuration/v2_depth_duration_MTurk/v2_DepthDuration_HTML.html#369,369,1366,625,1366,768,9-18-2022,13-21-19,101,depth_duration_stimuli/002788_2014-06-22_19-36-03_094959634447_rgbf000088-resize_2/002788_2014-06-22_19-36-03_094959634447_rgbf000088-resize_2-target.png,1000,1.6465,5,3339,1000,meters,jsons/v1_VE1000_randls_49_rotated.json,812359,1006716,53,Woman
101,566684,DepthScenes,duration_manipulation_targetAtFixation,jsons/v1_VE1000_randls_49_rotated.json,http://54.235.29.9/FacialAge/BNav_EC2/DepthDuration/v2_depth_duration_MTurk/v2_DepthDuration_HTML.html#369,369,1366,625,1366,768,9-18-2022,13-21-19,102,depth_duration_stimuli/003083_2014-06-15_15-21-03_094959634447_rgbf000063-resize_1/003083_2014-06-15_15-21-03_094959634447_rgbf000063-resize_1-target.png,1000,4.1405,5,3258,998,meters,jsons/v1_VE1000_randls_49_rotated.json,812359,1006716,53,Woman
102,566684,DepthScenes,duration_manipulation_targetAtFixation,jsons/v1_VE1000_randls_49_rotated.json,http://54.235.29.9/FacialAge/BNav_EC2/DepthDuration/v2_depth_duration_MTurk/v2_DepthDuration_HTML.html#369,369,1366,625,1366,768,9-18-2022,13-21-19,103,depth_duration_stimuli/000486_2014-06-09_20-47-20_260595134347_rgbf000143-resize_2/000486_2014-06-09_20-47-20_260595134347_rgbf000143-resize_2-target.png,1000,4.8325,6,4734,1006,meters,jsons/v1_VE1000_randls_49_rotated.json,812359,1006716,53,Woman
103,566684,DepthScenes,duration_manipulation_targetAtFixation,jsons/v1_VE1000_randls_49_rotated.json,http://54.235.29.9/FacialAge/BNav_EC2/DepthDuration/v2_depth_duration_MTurk/v2_DepthDuration_HTML.html#369,369,1366,625,1366,768,9-18-2022,13-21-19,104,depth_duration_stimuli/000866_2014-06-09_20-45-42_260595134347_rgbf000139-resize_1/000866_2014-06-09_20-45-42_260595134347_rgbf000139-resize_1-target.png,1000,3.2155,6,4717,999,meters,jsons/v1_VE1000_randls_49_rotated.json,812359,1006716,53,Woman
104,566684,DepthScenes,duration_manipulation_targetAtFixation,jsons/v1_VE1000_randls_49_rotated.json,http://54.235.29.9/FacialAge/BNav_EC2/DepthDuration/v2_depth_duration_MTurk/v2_DepthDuration_HTML.html#369,369,1366,625,1366,768,9-18-2022,13-21-19,105,depth_duration_stimuli/002989_2014-06-15_12-25-03_094959634447_rgbf000150-resize_3/002989_2014-06-15_12-25-03_094959634447_rgbf000150-resize_3-target.png,1000,4.1975,7,3477,999,meters,jsons/v1_VE1000_randls_49_rotated.json,812359,1006716,53,Woman
105,566684,DepthScenes,duration_manipulation_targetAtFixation,jsons/v1_VE1000_randls_49_rotated.json,http://54.235.29.9/FacialAge/BNav_EC2/DepthDuration/v2_depth_duration_MTurk/v2_DepthDuration_HTML.html#369,369,1366,625,1366,768,9-18-2022,13-21-19,106,depth_duration_stimuli/003048_2014-06-15_13-49-43_094959634447_rgbf000150-resize_1/003048_2014-06-15_13-49-43_094959634447_rgbf000150-resize_1-target.png,1000,4.0035,6,3119,1001,meters,jsons/v1_VE1000_randls_49_rotated.json,812359,1006716,53,Woman
106,566684,DepthScenes,duration_manipulation_targetAtFixation,jsons/v1_VE1000_randls_49_rotated.json,http://54.235.29.9/FacialAge/BNav_EC2/DepthDuration/v2_depth_duration_MTurk/v2_DepthDuration_HTML.html#369,369,1366,625,1366,768,9-18-2022,13-21-19,107,depth_duration_stimuli/002043_2014-06-24_20-29-38_260595134347_rgbf000039-resize_4/002043_2014-06-24_20-29-38_260595134347_rgbf000039-resize_4-target.png,1000,2.8435,6,3338,1001,meters,jsons/v1_VE1000_randls_49_rotated.json,812359,1006716,53,Woman
107,566684,DepthScenes,duration_manipulation_targetAtFixation,jsons/v1_VE1000_randls_49_rotated.json,http://54.235.29.9/FacialAge/BNav_EC2/DepthDuration/v2_depth_duration_MTurk/v2_DepthDuration_HTML.html#369,369,1366,625,1366,768,9-18-2022,13-21-19,108,depth_duration_stimuli/000556_2014-06-09_22-42-56_260595134347_rgbf000214-resize_1/000556_2014-06-09_22-42-56_260595134347_rgbf000214-resize_1-target.png,1000,4.8415,4,4551,1007,meters,jsons/v1_VE1000_randls_49_rotated.json,812359,1006716,53,Woman
108,566684,DepthScenes,duration_manipulation_targetAtFixation,jsons/v1_VE1000_randls_49_rotated.json,http://54.235.29.9/FacialAge/BNav_EC2/DepthDuration/v2_depth_duration_MTurk/v2_DepthDuration_HTML.html#369,369,1366,625,1366,768,9-18-2022,13-21-19,109,depth_duration_stimuli/001158_2014-06-17_15-32-16_260595134347_rgbf000138-resize_2/001158_2014-06-17_15-32-16_260595134347_rgbf000138-resize_2-target.png,1000,4.5315,5,2898,999,meters,jsons/v1_VE1000_randls_49_rotated.json,812359,1006716,53,Woman
109,566684,DepthScenes,duration_manipulation_targetAtFixation,jsons/v1_VE1000_randls_49_rotated.json,http://54.235.29.9/FacialAge/BNav_EC2/DepthDuration/v2_depth_duration_MTurk/v2_DepthDuration_HTML.html#369,369,1366,625,1366,768,9-18-2022,13-21-19,110,depth_duration_stimuli/001828_2014-06-26_21-40-03_260595134347_rgbf000024-resize_0/001828_2014-06-26_21-40-03_260595134347_rgbf000024-resize_0-target.png,1000,4.8260000000000005,6,3278,1000,meters,jsons/v1_VE1000_randls_49_rotated.json,812359,1006716,53,Woman
110,566684,DepthScenes,duration_manipulation_targetAtFixation,jsons/v1_VE1000_randls_49_rotated.json,http://54.235.29.9/FacialAge/BNav_EC2/DepthDuration/v2_depth_duration_MTurk/v2_DepthDuration_HTML.html#369,369,1366,625,1366,768,9-18-2022,13-21-19,111,depth_duration_stimuli/000009_2014-05-26_14-32-05_260595134347_rgbf000034-resize_3/000009_2014-05-26_14-32-05_260595134347_rgbf000034-resize_3-target.png,1000,3.8715,7,3003,989,meters,jsons/v1_VE1000_randls_49_rotated.json,812359,1006716,53,Woman
111,566684,DepthScenes,duration_manipulation_targetAtFixation,jsons/v1_VE1000_randls_49_rotated.json,http://54.235.29.9/FacialAge/BNav_EC2/DepthDuration/v2_depth_duration_MTurk/v2_DepthDuration_HTML.html#369,369,1366,625,1366,768,9-18-2022,13-21-19,112,depth_duration_stimuli/003079_2014-06-15_15-18-20_094959634447_rgbf000152-resize_8/003079_2014-06-15_15-18-20_094959634447_rgbf000152-resize_8-target.png,1000,2.8775,7,2978,1001,meters,jsons/v1_VE1000_randls_49_rotated.json,812359,1006716,53,Woman
112,566684,DepthScenes,duration_manipulation_targetAtFixation,jsons/v1_VE1000_randls_49_rotated.json,http://54.235.29.9/FacialAge/BNav_EC2/DepthDuration/v2_depth_duration_MTurk/v2_DepthDuration_HTML.html#369,369,1366,625,1366,768,9-18-2022,13-21-19,113,depth_duration_stimuli/000506_2014-06-08_23-21-00_260595134347_rgbf000070-resize_7/000506_2014-06-08_23-21-00_260595134347_rgbf000070-resize_7-target.png,1000,4.0585,4,3138,999,meters,jsons/v1_VE1000_randls_49_rotated.json,812359,1006716,53,Woman
113,566684,DepthScenes,duration_manipulation_targetAtFixation,jsons/v1_VE1000_randls_49_rotated.json,http://54.235.29.9/FacialAge/BNav_EC2/DepthDuration/v2_depth_duration_MTurk/v2_DepthDuration_HTML.html#369,369,1366,625,1366,768,9-18-2022,13-21-19,114,depth_duration_stimuli/000677_2014-06-08_23-10-32_260595134347_rgbf000158-resize_6/000677_2014-06-08_23-10-32_260595134347_rgbf000158-resize_6-target.png,1000,3.556,5,2960,1000,meters,jsons/v1_VE1000_randls_49_rotated.json,812359,1006716,53,Woman
114,566684,DepthScenes,duration_manipulation_targetAtFixation,jsons/v1_VE1000_randls_49_rotated.json,http://54.235.29.9/FacialAge/BNav_EC2/DepthDuration/v2_depth_duration_MTurk/v2_DepthDuration_HTML.html#369,369,1366,625,1366,768,9-18-2022,13-21-19,115,depth_duration_stimuli/001029_2014-06-08_13-17-57_260595134347_rgbf000065-resize_1/001029_2014-06-08_13-17-57_260595134347_rgbf000065-resize_1-target.png,1000,3.0835,5,3278,999,meters,jsons/v1_VE1000_randls_49_rotated.json,812359,1006716,53,Woman
115,566684,DepthScenes,duration_manipulation_targetAtFixation,jsons/v1_VE1000_randls_49_rotated.json,http://54.235.29.9/FacialAge/BNav_EC2/DepthDuration/v2_depth_duration_MTurk/v2_DepthDuration_HTML.html#369,369,1366,625,1366,768,9-18-2022,13-21-19,116,depth_duration_stimuli/003423_2014-05-21_10-23-26_094959634447_rgbf002665-resize_2/003423_2014-05-21_10-23-26_094959634447_rgbf002665-resize_2-target.png,1000,3.2575,3,5419,1001,meters,jsons/v1_VE1000_randls_49_rotated.json,812359,1006716,53,Woman
116,566684,DepthScenes,duration_manipulation_targetAtFixation,jsons/v1_VE1000_randls_49_rotated.json,http://54.235.29.9/FacialAge/BNav_EC2/DepthDuration/v2_depth_duration_MTurk/v2_DepthDuration_HTML.html#369,369,1366,625,1366,768,9-18-2022,13-21-19,117,depth_duration_stimuli/002905_2014-06-03_18-04-43_094959634447_rgbf000151-resize_2/002905_2014-06-03_18-04-43_094959634447_rgbf000151-resize_2-target.png,1000,2.0295,4,2907,999,meters,jsons/v1_VE1000_randls_49_rotated.json,812359,1006716,53,Woman
117,566684,DepthScenes,duration_manipulation_targetAtFixation,jsons/v1_VE1000_randls_49_rotated.json,http://54.235.29.9/FacialAge/BNav_EC2/DepthDuration/v2_depth_duration_MTurk/v2_DepthDuration_HTML.html#369,369,1366,625,1366,768,9-18-2022,13-21-19,118,depth_duration_stimuli/003587_2014-05-23_16-48-02_094959634447_rgbf002384-resize_2/003587_2014-05-23_16-48-02_094959634447_rgbf002384-resize_2-target.png,1000,1.357,2,3477,998,meters,jsons/v1_VE1000_randls_49_rotated.json,812359,1006716,53,Woman
118,566684,DepthScenes,duration_manipulation_targetAtFixation,jsons/v1_VE1000_randls_49_rotated.json,http://54.235.29.9/FacialAge/BNav_EC2/DepthDuration/v2_depth_duration_MTurk/v2_DepthDuration_HTML.html#369,369,1366,625,1366,768,9-18-2022,13-21-19,119,depth_duration_stimuli/001167_2014-06-17_15-38-07_260595134347_rgbf000108-resize_0/001167_2014-06-17_15-38-07_260595134347_rgbf000108-resize_0-target.png,1000,1.8505,2,4278,1000,meters,jsons/v1_VE1000_randls_49_rotated.json,812359,1006716,53,Woman
119,566684,DepthScenes,duration_manipulation_targetAtFixation,jsons/v1_VE1000_randls_49_rotated.json,http://54.235.29.9/FacialAge/BNav_EC2/DepthDuration/v2_depth_duration_MTurk/v2_DepthDuration_HTML.html#369,369,1366,625,1366,768,9-18-2022,13-21-19,120,depth_duration_stimuli/000787_2014-06-08_22-33-53_260595134347_rgbf000175-resize_1/000787_2014-06-08_22-33-53_260595134347_rgbf000175-resize-original.jpg,1000,4.784,0,3982,987,meters,jsons/v1_VE1000_randls_49_rotated.json,812359,1006716,53,Woman
120,566684,DepthScenes,duration_manipulation_targetAtFixation,jsons/v1_VE1000_randls_49_rotated.json,http://54.235.29.9/FacialAge/BNav_EC2/DepthDuration/v2_depth_duration_MTurk/v2_DepthDuration_HTML.html#369,369,1366,625,1366,768,9-18-2022,13-21-19,121,depth_duration_stimuli/001100_2014-06-15_17-46-26_260595134347_rgbf000225-resize_2/001100_2014-06-15_17-46-26_260595134347_rgbf000225-resize_2-target.png,1000,2.24,2,3674,1002,meters,jsons/v1_VE1000_randls_49_rotated.json,812359,1006716,53,Woman
121,566684,DepthScenes,duration_manipulation_targetAtFixation,jsons/v1_VE1000_randls_49_rotated.json,http://54.235.29.9/FacialAge/BNav_EC2/DepthDuration/v2_depth_duration_MTurk/v2_DepthDuration_HTML.html#369,369,1366,625,1366,768,9-18-2022,13-21-19,122,depth_duration_stimuli/002784_2014-06-22_19-26-30_094959634447_rgbf000083-resize_3/002784_2014-06-22_19-26-30_094959634447_rgbf000083-resize_3-target.png,1000,1.8046666666667,2,2857,1002,meters,jsons/v1_VE1000_randls_49_rotated.json,812359,1006716,53,Woman
122,566684,DepthScenes,duration_manipulation_targetAtFixation,jsons/v1_VE1000_randls_49_rotated.json,http://54.235.29.9/FacialAge/BNav_EC2/DepthDuration/v2_depth_duration_MTurk/v2_DepthDuration_HTML.html#369,369,1366,625,1366,768,9-18-2022,13-21-19,123,depth_duration_stimuli/003338_2014-05-20_11-01-23_094959634447_rgbf000051-resize_6/003338_2014-05-20_11-01-23_094959634447_rgbf000051-resize_6-target.png,1000,1.693,3,3069,1006,meters,jsons/v1_VE1000_randls_49_rotated.json,812359,1006716,53,Woman
123,566684,DepthScenes,duration_manipulation_targetAtFixation,jsons/v1_VE1000_randls_49_rotated.json,http://54.235.29.9/FacialAge/BNav_EC2/DepthDuration/v2_depth_duration_MTurk/v2_DepthDuration_HTML.html#369,369,1366,625,1366,768,9-18-2022,13-21-19,124,depth_duration_stimuli/002509_2014-06-24_13-19-22_094959634447_rgbf000077-resize_0/002509_2014-06-24_13-19-22_094959634447_rgbf000077-resize_0-target.png,1000,1.3065,3,2935,1002,meters,jsons/v1_VE1000_randls_49_rotated.json,812359,1006716,53,Woman
124,566684,DepthScenes,duration_manipulation_targetAtFixation,jsons/v1_VE1000_randls_49_rotated.json,http://54.235.29.9/FacialAge/BNav_EC2/DepthDuration/v2_depth_duration_MTurk/v2_DepthDuration_HTML.html#369,369,1366,625,1366,768,9-18-2022,13-21-19,125,depth_duration_stimuli/000502_2014-06-08_23-02-32_260595134347_rgbf000063-resize_4/000502_2014-06-08_23-02-32_260595134347_rgbf000063-resize_4-target.png,1000,2.431,4,3712,993,meters,jsons/v1_VE1000_randls_49_rotated.json,812359,1006716,53,Woman
125,566684,DepthScenes,duration_manipulation_targetAtFixation,jsons/v1_VE1000_randls_49_rotated.json,http://54.235.29.9/FacialAge/BNav_EC2/DepthDuration/v2_depth_duration_MTurk/v2_DepthDuration_HTML.html#369,369,1366,625,1366,768,9-18-2022,13-21-19,126,depth_duration_stimuli/001199_2014-06-17_16-03-48_260595134347_rgbf000077-resize_0/001199_2014-06-17_16-03-48_260595134347_rgbf000077-resize_0-target.png,1000,3.4375,7,3107,1001,meters,jsons/v1_VE1000_randls_49_rotated.json,812359,1006716,53,Woman
126,566684,DepthScenes,duration_manipulation_targetAtFixation,jsons/v1_VE1000_randls_49_rotated.json,http://54.235.29.9/FacialAge/BNav_EC2/DepthDuration/v2_depth_duration_MTurk/v2_DepthDuration_HTML.html#369,369,1366,625,1366,768,9-18-2022,13-21-19,127,depth_duration_stimuli/000483_2014-06-09_20-41-45_260595134347_rgbf000116-resize_4/000483_2014-06-09_20-41-45_260595134347_rgbf000116-resize_4-target.png,1000,1.337,3,3537,1001,meters,jsons/v1_VE1000_randls_49_rotated.json,812359,1006716,53,Woman
127,566684,DepthScenes,duration_manipulation_targetAtFixation,jsons/v1_VE1000_randls_49_rotated.json,http://54.235.29.9/FacialAge/BNav_EC2/DepthDuration/v2_depth_duration_MTurk/v2_DepthDuration_HTML.html#369,369,1366,625,1366,768,9-18-2022,13-21-19,128,depth_duration_stimuli/000469_2014-06-09_19-42-10_260595134347_rgbf000081-resize_1/000469_2014-06-09_19-42-10_260595134347_rgbf000081-resize_1-target.png,1000,1.652,4,3445,1000,meters,jsons/v1_VE1000_randls_49_rotated.json,812359,1006716,53,Woman
128,566684,DepthScenes,duration_manipulation_targetAtFixation,jsons/v1_VE1000_randls_49_rotated.json,http://54.235.29.9/FacialAge/BNav_EC2/DepthDuration/v2_depth_duration_MTurk/v2_DepthDuration_HTML.html#369,369,1366,625,1366,768,9-18-2022,13-21-19,129,depth_duration_stimuli/003490_2014-05-21_15-50-11_094959634447_rgbf000101-resize_3/003490_2014-05-21_15-50-11_094959634447_rgbf000101-resize_3-target.png,1000,3.6445,6,3275,1010,meters,jsons/v1_VE1000_randls_49_rotated.json,812359,1006716,53,Woman
129,566684,DepthScenes,duration_manipulation_targetAtFixation,jsons/v1_VE1000_randls_49_rotated.json,http://54.235.29.9/FacialAge/BNav_EC2/DepthDuration/v2_depth_duration_MTurk/v2_DepthDuration_HTML.html#369,369,1366,625,1366,768,9-18-2022,13-21-19,130,depth_duration_stimuli/001175_2014-06-17_15-45-55_260595134347_rgbf000129-resize_4/001175_2014-06-17_15-45-55_260595134347_rgbf000129-resize_4-target.png,1000,4.255,7,2984,990,meters,jsons/v1_VE1000_randls_49_rotated.json,812359,1006716,53,Woman
130,566684,DepthScenes,duration_manipulation_targetAtFixation,jsons/v1_VE1000_randls_49_rotated.json,http://54.235.29.9/FacialAge/BNav_EC2/DepthDuration/v2_depth_duration_MTurk/v2_DepthDuration_HTML.html#369,369,1366,625,1366,768,9-18-2022,13-21-19,131,depth_duration_stimuli/000109_2014-05-14_23-41-52_260595134347_rgbf000035-resize_9/000109_2014-05-14_23-41-52_260595134347_rgbf000035-resize_9-target.png,1000,1.3545,2,3358,1000,meters,jsons/v1_VE1000_randls_49_rotated.json,812359,1006716,53,Woman
131,566684,DepthScenes,duration_manipulation_targetAtFixation,jsons/v1_VE1000_randls_49_rotated.json,http://54.235.29.9/FacialAge/BNav_EC2/DepthDuration/v2_depth_duration_MTurk/v2_DepthDuration_HTML.html#369,369,1366,625,1366,768,9-18-2022,13-21-19,132,depth_duration_stimuli/000470_2014-06-09_19-42-40_260595134347_rgbf000094-resize_1/000470_2014-06-09_19-42-40_260595134347_rgbf000094-resize_1-target.png,1000,1.831,4,3058,998,meters,jsons/v1_VE1000_randls_49_rotated.json,812359,1006716,53,Woman
132,566684,DepthScenes,duration_manipulation_targetAtFixation,jsons/v1_VE1000_randls_49_rotated.json,http://54.235.29.9/FacialAge/BNav_EC2/DepthDuration/v2_depth_duration_MTurk/v2_DepthDuration_HTML.html#369,369,1366,625,1366,768,9-18-2022,13-21-19,133,depth_duration_stimuli/001094_2014-06-15_17-36-00_260595134347_rgbf000205-resize_0/001094_2014-06-15_17-36-00_260595134347_rgbf000205-resize_0-target.png,1000,4.2175,6,3299,1000,meters,jsons/v1_VE1000_randls_49_rotated.json,812359,1006716,53,Woman
133,566684,DepthScenes,duration_manipulation_targetAtFixation,jsons/v1_VE1000_randls_49_rotated.json,http://54.235.29.9/FacialAge/BNav_EC2/DepthDuration/v2_depth_duration_MTurk/v2_DepthDuration_HTML.html#369,369,1366,625,1366,768,9-18-2022,13-21-19,134,depth_duration_stimuli/000692_2014-06-08_13-09-42_260595134347_rgbf000199-resize_2/000692_2014-06-08_13-09-42_260595134347_rgbf000199-resize_2-target.png,1000,3.661,5,4020,1008,meters,jsons/v1_VE1000_randls_49_rotated.json,812359,1006716,53,Woman
134,566684,DepthScenes,duration_manipulation_targetAtFixation,jsons/v1_VE1000_randls_49_rotated.json,http://54.235.29.9/FacialAge/BNav_EC2/DepthDuration/v2_depth_duration_MTurk/v2_DepthDuration_HTML.html#369,369,1366,625,1366,768,9-18-2022,13-21-19,135,depth_duration_stimuli/000375_2014-06-08_11-17-29_260595134347_rgbf000133-resize_2/000375_2014-06-08_11-17-29_260595134347_rgbf000133-resize-original.jpg,1000,4.718,0,22939,1008,meters,jsons/v1_VE1000_randls_49_rotated.json,812359,1006716,53,Woman
135,566684,DepthScenes,duration_manipulation_targetAtFixation,jsons/v1_VE1000_randls_49_rotated.json,http://54.235.29.9/FacialAge/BNav_EC2/DepthDuration/v2_depth_duration_MTurk/v2_DepthDuration_HTML.html#369,369,1366,625,1366,768,9-18-2022,13-21-19,136,depth_duration_stimuli/001214_2014-06-17_16-13-55_260595134347_rgbf000111-resize_0/001214_2014-06-17_16-13-55_260595134347_rgbf000111-resize_0-target.png,1000,2.6505,3,3633,999,meters,jsons/v1_VE1000_randls_49_rotated.json,812359,1006716,53,Woman
136,566684,DepthScenes,duration_manipulation_targetAtFixation,jsons/v1_VE1000_randls_49_rotated.json,http://54.235.29.9/FacialAge/BNav_EC2/DepthDuration/v2_depth_duration_MTurk/v2_DepthDuration_HTML.html#369,369,1366,625,1366,768,9-18-2022,13-21-19,137,depth_duration_stimuli/000810_2014-06-08_17-20-01_260595134347_rgbf000105-resize_0/000810_2014-06-08_17-20-01_260595134347_rgbf000105-resize_0-target.png,1000,1.4865,3,3038,1004,meters,jsons/v1_VE1000_randls_49_rotated.json,812359,1006716,53,Woman
137,566684,DepthScenes,duration_manipulation_targetAtFixation,jsons/v1_VE1000_randls_49_rotated.json,http://54.235.29.9/FacialAge/BNav_EC2/DepthDuration/v2_depth_duration_MTurk/v2_DepthDuration_HTML.html#369,369,1366,625,1366,768,9-18-2022,13-21-19,138,depth_duration_stimuli/002209_2014-06-28_18-36-10_260595134347_rgbf000051-resize_1/002209_2014-06-28_18-36-10_260595134347_rgbf000051-resize_1-target.png,1000,2.057,4,3049,1003,meters,jsons/v1_VE1000_randls_49_rotated.json,812359,1006716,53,Woman
138,566684,DepthScenes,duration_manipulation_targetAtFixation,jsons/v1_VE1000_randls_49_rotated.json,http://54.235.29.9/FacialAge/BNav_EC2/DepthDuration/v2_depth_duration_MTurk/v2_DepthDuration_HTML.html#369,369,1366,625,1366,768,9-18-2022,13-21-19,139,depth_duration_stimuli/002763_2014-06-22_19-13-10_094959634447_rgbf000075-resize_4/002763_2014-06-22_19-13-10_094959634447_rgbf000075-resize_4-target.png,1000,1.68375,6,3138,999,meters,jsons/v1_VE1000_randls_49_rotated.json,812359,1006716,53,Woman
139,566684,DepthScenes,duration_manipulation_targetAtFixation,jsons/v1_VE1000_randls_49_rotated.json,http://54.235.29.9/FacialAge/BNav_EC2/DepthDuration/v2_depth_duration_MTurk/v2_DepthDuration_HTML.html#369,369,1366,625,1366,768,9-18-2022,13-21-19,140,depth_duration_stimuli/000927_2014-06-09_16-32-30_260595134347_rgbf000123-resize_3/000927_2014-06-09_16-32-30_260595134347_rgbf000123-resize_3-target.png,1000,2.6785,7,3394,1010,meters,jsons/v1_VE1000_randls_49_rotated.json,812359,1006716,53,Woman
140,566684,DepthScenes,duration_manipulation_targetAtFixation,jsons/v1_VE1000_randls_49_rotated.json,http://54.235.29.9/FacialAge/BNav_EC2/DepthDuration/v2_depth_duration_MTurk/v2_DepthDuration_HTML.html#369,369,1366,625,1366,768,9-18-2022,13-21-19,141,depth_duration_stimuli/001110_2014-06-15_17-25-28_260595134347_rgbf000150-resize_1/001110_2014-06-15_17-25-28_260595134347_rgbf000150-resize_1-target.png,1000,1.7115,4,3701,999,meters,jsons/v1_VE1000_randls_49_rotated.json,812359,1006716,53,Woman
141,566684,DepthScenes,duration_manipulation_targetAtFixation,jsons/v1_VE1000_randls_49_rotated.json,http://54.235.29.9/FacialAge/BNav_EC2/DepthDuration/v2_depth_duration_MTurk/v2_DepthDuration_HTML.html#369,369,1366,625,1366,768,9-18-2022,13-21-19,142,depth_duration_stimuli/003081_2014-06-15_15-19-16_094959634447_rgbf000150-resize_1/003081_2014-06-15_15-19-16_094959634447_rgbf000150-resize_1-target.png,1000,3.9125,5,3249,988,meters,jsons/v1_VE1000_randls_49_rotated.json,812359,1006716,53,Woman
142,566684,DepthScenes,duration_manipulation_targetAtFixation,jsons/v1_VE1000_randls_49_rotated.json,http://54.235.29.9/FacialAge/BNav_EC2/DepthDuration/v2_depth_duration_MTurk/v2_DepthDuration_HTML.html#369,369,1366,625,1366,768,9-18-2022,13-21-19,143,depth_duration_stimuli/001417_2014-06-19_16-25-36_260595134347_rgbf000115-resize_5/001417_2014-06-19_16-25-36_260595134347_rgbf000115-resize_5-target.png,1000,4.6255,5,3056,1004,meters,jsons/v1_VE1000_randls_49_rotated.json,812359,1006716,53,Woman
143,566684,DepthScenes,duration_manipulation_targetAtFixation,jsons/v1_VE1000_randls_49_rotated.json,http://54.235.29.9/FacialAge/BNav_EC2/DepthDuration/v2_depth_duration_MTurk/v2_DepthDuration_HTML.html#369,369,1366,625,1366,768,9-18-2022,13-21-19,144,depth_duration_stimuli/003010_2014-06-15_12-54-35_094959634447_rgbf000112-resize_0/003010_2014-06-15_12-54-35_094959634447_rgbf000112-resize_0-target.png,1000,3.1185,6,3317,1004,meters,jsons/v1_VE1000_randls_49_rotated.json,812359,1006716,53,Woman
144,566684,DepthScenes,duration_manipulation_targetAtFixation,jsons/v1_VE1000_randls_49_rotated.json,http://54.235.29.9/FacialAge/BNav_EC2/DepthDuration/v2_depth_duration_MTurk/v2_DepthDuration_HTML.html#369,369,1366,625,1366,768,9-18-2022,13-21-19,145,depth_duration_stimuli/001810_2014-06-26_20-51-35_260595134347_rgbf000040-resize_3/001810_2014-06-26_20-51-35_260595134347_rgbf000040-resize_3-target.png,1000,2.2525,3,3451,998,meters,jsons/v1_VE1000_randls_49_rotated.json,812359,1006716,53,Woman
145,566684,DepthScenes,duration_manipulation_targetAtFixation,jsons/v1_VE1000_randls_49_rotated.json,http://54.235.29.9/FacialAge/BNav_EC2/DepthDuration/v2_depth_duration_MTurk/v2_DepthDuration_HTML.html#369,369,1366,625,1366,768,9-18-2022,13-21-19,146,depth_duration_stimuli/001617_2014-06-20_11-35-32_260595134347_rgbf000066-resize_1/001617_2014-06-20_11-35-32_260595134347_rgbf000066-resize_1-target.png,1000,3.7910000000000004,7,2975,1006,meters,jsons/v1_VE1000_randls_49_rotated.json,812359,1006716,53,Woman
146,566684,DepthScenes,duration_manipulation_targetAtFixation,jsons/v1_VE1000_randls_49_rotated.json,http://54.235.29.9/FacialAge/BNav_EC2/DepthDuration/v2_depth_duration_MTurk/v2_DepthDuration_HTML.html#369,369,1366,625,1366,768,9-18-2022,13-21-19,147,depth_duration_stimuli/001806_2014-06-26_20-50-20_260595134347_rgbf000091-resize_1/001806_2014-06-26_20-50-20_260595134347_rgbf000091-resize_1-target.png,1000,2.7305,4,3436,1007,meters,jsons/v1_VE1000_randls_49_rotated.json,812359,1006716,53,Woman
147,566684,DepthScenes,duration_manipulation_targetAtFixation,jsons/v1_VE1000_randls_49_rotated.json,http://54.235.29.9/FacialAge/BNav_EC2/DepthDuration/v2_depth_duration_MTurk/v2_DepthDuration_HTML.html#369,369,1366,625,1366,768,9-18-2022,13-21-19,148,depth_duration_stimuli/001650_2014-06-20_12-09-00_260595134347_rgbf000087-resize_3/001650_2014-06-20_12-09-00_260595134347_rgbf000087-resize_3-target.png,1000,1.9505,2,3559,999,meters,jsons/v1_VE1000_randls_49_rotated.json,812359,1006716,53,Woman
148,566684,DepthScenes,duration_manipulation_targetAtFixation,jsons/v1_VE1000_randls_49_rotated.json,http://54.235.29.9/FacialAge/BNav_EC2/DepthDuration/v2_depth_duration_MTurk/v2_DepthDuration_HTML.html#369,369,1366,625,1366,768,9-18-2022,13-21-19,149,depth_duration_stimuli/000682_2014-06-08_23-14-58_260595134347_rgbf000041-resize_5/000682_2014-06-08_23-14-58_260595134347_rgbf000041-resize_5-target.png,1000,2.7239999999999998,0,5598,1001,meters,jsons/v1_VE1000_randls_49_rotated.json,812359,1006716,53,Woman
149,566684,DepthScenes,duration_manipulation_targetAtFixation,jsons/v1_VE1000_randls_49_rotated.json,http://54.235.29.9/FacialAge/BNav_EC2/DepthDuration/v2_depth_duration_MTurk/v2_DepthDuration_HTML.html#369,369,1366,625,1366,768,9-18-2022,13-21-19,150,depth_duration_stimuli/002344_2014-06-28_20-06-29_260595134347_rgbf000030-resize_1/002344_2014-06-28_20-06-29_260595134347_rgbf000030-resize_1-target.png,1000,1.5795,0,27869,990,meters,jsons/v1_VE1000_randls_49_rotated.json,812359,1006716,53,Woman
150,566684,DepthScenes,duration_manipulation_targetAtFixation,jsons/v1_VE1000_randls_49_rotated.json,http://54.235.29.9/FacialAge/BNav_EC2/DepthDuration/v2_depth_duration_MTurk/v2_DepthDuration_HTML.html#369,369,1366,625,1366,768,9-18-2022,13-21-19,151,depth_duration_stimuli/002725_2014-06-22_11-47-51_094959634447_rgbf000070-resize_1/002725_2014-06-22_11-47-51_094959634447_rgbf000070-resize_1-target.png,1000,2.195,6,3511,991,meters,jsons/v1_VE1000_randls_49_rotated.json,812359,1006716,53,Woman
151,566684,DepthScenes,duration_manipulation_targetAtFixation,jsons/v1_VE1000_randls_49_rotated.json,http://54.235.29.9/FacialAge/BNav_EC2/DepthDuration/v2_depth_duration_MTurk/v2_DepthDuration_HTML.html#369,369,1366,625,1366,768,9-18-2022,13-21-19,152,depth_duration_stimuli/000569_2014-06-09_22-51-47_260595134347_rgbf000141-resize_3/000569_2014-06-09_22-51-47_260595134347_rgbf000141-resize-original.jpg,1000,4.512,0,3079,1002,meters,jsons/v1_VE1000_randls_49_rotated.json,812359,1006716,53,Woman
152,566684,DepthScenes,duration_manipulation_targetAtFixation,jsons/v1_VE1000_randls_49_rotated.json,http://54.235.29.9/FacialAge/BNav_EC2/DepthDuration/v2_depth_duration_MTurk/v2_DepthDuration_HTML.html#369,369,1366,625,1366,768,9-18-2022,13-21-19,153,depth_duration_stimuli/001447_2014-06-19_17-00-32_260595134347_rgbf000082-resize_5/001447_2014-06-19_17-00-32_260595134347_rgbf000082-resize_5-target.png,1000,4.13775,5,2872,997,meters,jsons/v1_VE1000_randls_49_rotated.json,812359,1006716,53,Woman
153,566684,DepthScenes,duration_manipulation_targetAtFixation,jsons/v1_VE1000_randls_49_rotated.json,http://54.235.29.9/FacialAge/BNav_EC2/DepthDuration/v2_depth_duration_MTurk/v2_DepthDuration_HTML.html#369,369,1366,625,1366,768,9-18-2022,13-21-19,154,depth_duration_stimuli/000447_2014-06-08_16-15-46_260595134347_rgbf000130-resize_1/000447_2014-06-08_16-15-46_260595134347_rgbf000130-resize_1-target.png,1000,4.479,5,4760,998,meters,jsons/v1_VE1000_randls_49_rotated.json,812359,1006716,53,Woman
154,566684,DepthScenes,duration_manipulation_targetAtFixation,jsons/v1_VE1000_randls_49_rotated.json,http://54.235.29.9/FacialAge/BNav_EC2/DepthDuration/v2_depth_duration_MTurk/v2_DepthDuration_HTML.html#369,369,1366,625,1366,768,9-18-2022,13-21-19,155,depth_duration_stimuli/002678_2014-06-13_16-15-32_094959634447_rgbf000151-resize_6/002678_2014-06-13_16-15-32_094959634447_rgbf000151-resize_6-target.png,1000,2.1830000000000003,6,3394,997,meters,jsons/v1_VE1000_randls_49_rotated.json,812359,1006716,53,Woman
155,566684,DepthScenes,duration_manipulation_targetAtFixation,jsons/v1_VE1000_randls_49_rotated.json,http://54.235.29.9/FacialAge/BNav_EC2/DepthDuration/v2_depth_duration_MTurk/v2_DepthDuration_HTML.html#369,369,1366,625,1366,768,9-18-2022,13-21-19,156,depth_duration_stimuli/000368_2014-06-09_15-53-01_260595134347_rgbf000155-resize_2/000368_2014-06-09_15-53-01_260595134347_rgbf000155-resize_2-target.png,1000,2.4859999999999998,0,4737,1013,meters,jsons/v1_VE1000_randls_49_rotated.json,812359,1006716,53,Woman
156,566684,DepthScenes,duration_manipulation_targetAtFixation,jsons/v1_VE1000_randls_49_rotated.json,http://54.235.29.9/FacialAge/BNav_EC2/DepthDuration/v2_depth_duration_MTurk/v2_DepthDuration_HTML.html#369,369,1366,625,1366,768,9-18-2022,13-21-19,157,depth_duration_stimuli/002953_2014-06-08_17-32-18_094959634447_rgbf000059-resize_5/002953_2014-06-08_17-32-18_094959634447_rgbf000059-resize_5-target.png,1000,1.551,5,3596,1005,meters,jsons/v1_VE1000_randls_49_rotated.json,812359,1006716,53,Woman
157,566684,DepthScenes,duration_manipulation_targetAtFixation,jsons/v1_VE1000_randls_49_rotated.json,http://54.235.29.9/FacialAge/BNav_EC2/DepthDuration/v2_depth_duration_MTurk/v2_DepthDuration_HTML.html#369,369,1366,625,1366,768,9-18-2022,13-21-19,158,depth_duration_stimuli/000878_2014-06-08_22-52-45_260595134347_rgbf000045-resize_2/000878_2014-06-08_22-52-45_260595134347_rgbf000045-resize_2-target.png,1000,2.092,3,18315,995,meters,jsons/v1_VE1000_randls_49_rotated.json,812359,1006716,53,Woman
158,566684,DepthScenes,duration_manipulation_targetAtFixation,jsons/v1_VE1000_randls_49_rotated.json,http://54.235.29.9/FacialAge/BNav_EC2/DepthDuration/v2_depth_duration_MTurk/v2_DepthDuration_HTML.html#369,369,1366,625,1366,768,9-18-2022,13-21-19,159,depth_duration_stimuli/001815_2014-06-26_20-52-55_260595134347_rgbf000020-resize_0/001815_2014-06-26_20-52-55_260595134347_rgbf000020-resize_0-target.png,1000,3.3865,7,3405,1001,meters,jsons/v1_VE1000_randls_49_rotated.json,812359,1006716,53,Woman
159,566684,DepthScenes,duration_manipulation_targetAtFixation,jsons/v1_VE1000_randls_49_rotated.json,http://54.235.29.9/FacialAge/BNav_EC2/DepthDuration/v2_depth_duration_MTurk/v2_DepthDuration_HTML.html#369,369,1366,625,1366,768,9-18-2022,13-21-19,160,depth_duration_stimuli/001808_2014-06-26_20-50-58_260595134347_rgbf000029-resize_1/001808_2014-06-26_20-50-58_260595134347_rgbf000029-resize_1-target.png,1000,4.249,7,3233,1008,meters,jsons/v1_VE1000_randls_49_rotated.json,812359,1006716,53,Woman
160,566684,DepthScenes,duration_manipulation_targetAtFixation,jsons/v1_VE1000_randls_49_rotated.json,http://54.235.29.9/FacialAge/BNav_EC2/DepthDuration/v2_depth_duration_MTurk/v2_DepthDuration_HTML.html#369,369,1366,625,1366,768,9-18-2022,13-21-19,161,depth_duration_stimuli/002340_2014-06-28_20-05-46_260595134347_rgbf000113-resize_0/002340_2014-06-28_20-05-46_260595134347_rgbf000113-resize_0-target.png,1000,2.4735,7,2998,998,meters,jsons/v1_VE1000_randls_49_rotated.json,812359,1006716,53,Woman
161,566684,DepthScenes,duration_manipulation_targetAtFixation,jsons/v1_VE1000_randls_49_rotated.json,http://54.235.29.9/FacialAge/BNav_EC2/DepthDuration/v2_depth_duration_MTurk/v2_DepthDuration_HTML.html#369,369,1366,625,1366,768,9-18-2022,13-21-19,162,depth_duration_stimuli/001016_2014-06-09_16-16-10_260595134347_rgbf000112-resize_5/001016_2014-06-09_16-16-10_260595134347_rgbf000112-resize_5-target.png,1000,1.6565,5,6439,998,meters,jsons/v1_VE1000_randls_49_rotated.json,812359,1006716,53,Woman
162,566684,DepthScenes,duration_manipulation_targetAtFixation,jsons/v1_VE1000_randls_49_rotated.json,http://54.235.29.9/FacialAge/BNav_EC2/DepthDuration/v2_depth_duration_MTurk/v2_DepthDuration_HTML.html#369,369,1366,625,1366,768,9-18-2022,13-21-19,163,depth_duration_stimuli/002425_2014-06-28_20-27-29_260595134347_rgbf000031-resize_8/002425_2014-06-28_20-27-29_260595134347_rgbf000031-resize_8-target.png,1000,3.8960000000000004,5,3019,1000,meters,jsons/v1_VE1000_randls_49_rotated.json,812359,1006716,53,Woman
163,566684,DepthScenes,duration_manipulation_targetAtFixation,jsons/v1_VE1000_randls_49_rotated.json,http://54.235.29.9/FacialAge/BNav_EC2/DepthDuration/v2_depth_duration_MTurk/v2_DepthDuration_HTML.html#369,369,1366,625,1366,768,9-18-2022,13-21-19,164,depth_duration_stimuli/000642_2014-06-08_16-59-25_260595134347_rgbf000098-resize_2/000642_2014-06-08_16-59-25_260595134347_rgbf000098-resize_2-target.png,1000,2.8815,6,4436,997,meters,jsons/v1_VE1000_randls_49_rotated.json,812359,1006716,53,Woman
