,subjID,experimentName,versionName,sequenceName,url,selected_row,windowWidth,windowHeight,screenWidth,screenHeight,startDate,startTime,trial,stimulus,duration,actual_depth,depth_estimate,trial_RT,log_sceneDuration,unitSelection,seq_filepath,experimentTime,totalTime,age,gender
0,567424,DepthScenes,duration_manipulation_targetAtFixation,jsons/v1_VE1000_randls_74.json,http://54.235.29.9/FacialAge/BNav_EC2/DepthDuration/v2_depth_duration_MTurk/v2_DepthDuration_HTML.html#414,414,1366,625,1366,768,8-30-2022,6-55-16,1,depth_duration_stimuli/002630_2014-06-24_14-47-50_094959634447_rgbf000055-resize_1/002630_2014-06-24_14-47-50_094959634447_rgbf000055-resize_1-target.png,1000,3.0095,0,3593,1000,meters,jsons/v1_VE1000_randls_74.json,458797,652240,38,Woman
1,567424,DepthScenes,duration_manipulation_targetAtFixation,jsons/v1_VE1000_randls_74.json,http://54.235.29.9/FacialAge/BNav_EC2/DepthDuration/v2_depth_duration_MTurk/v2_DepthDuration_HTML.html#414,414,1366,625,1366,768,8-30-2022,6-55-16,2,depth_duration_stimuli/002758_2014-06-22_19-11-20_094959634447_rgbf000128-resize_1/002758_2014-06-22_19-11-20_094959634447_rgbf000128-resize_1-target.png,1000,2.555,0,2372,1001,meters,jsons/v1_VE1000_randls_74.json,458797,652240,38,Woman
2,567424,DepthScenes,duration_manipulation_targetAtFixation,jsons/v1_VE1000_randls_74.json,http://54.235.29.9/FacialAge/BNav_EC2/DepthDuration/v2_depth_duration_MTurk/v2_DepthDuration_HTML.html#414,414,1366,625,1366,768,8-30-2022,6-55-16,3,depth_duration_stimuli/000493_2014-06-09_21-01-18_260595134347_rgbf000196-resize_3/000493_2014-06-09_21-01-18_260595134347_rgbf000196-resize_3-target.png,1000,3.44,0,2427,1001,meters,jsons/v1_VE1000_randls_74.json,458797,652240,38,Woman
3,567424,DepthScenes,duration_manipulation_targetAtFixation,jsons/v1_VE1000_randls_74.json,http://54.235.29.9/FacialAge/BNav_EC2/DepthDuration/v2_depth_duration_MTurk/v2_DepthDuration_HTML.html#414,414,1366,625,1366,768,8-30-2022,6-55-16,4,depth_duration_stimuli/000191_2014-05-12_17-07-38_260595134347_rgbf000199-resize_0/000191_2014-05-12_17-07-38_260595134347_rgbf000199-resize_0-target.png,1000,3.7995,0,2413,1001,meters,jsons/v1_VE1000_randls_74.json,458797,652240,38,Woman
4,567424,DepthScenes,duration_manipulation_targetAtFixation,jsons/v1_VE1000_randls_74.json,http://54.235.29.9/FacialAge/BNav_EC2/DepthDuration/v2_depth_duration_MTurk/v2_DepthDuration_HTML.html#414,414,1366,625,1366,768,8-30-2022,6-55-16,5,depth_duration_stimuli/003534_2014-05-22_15-06-10_094959634447_rgbf000102-resize_4/003534_2014-05-22_15-06-10_094959634447_rgbf000102-resize_4-target.png,1000,1.426,0,2396,993,meters,jsons/v1_VE1000_randls_74.json,458797,652240,38,Woman
5,567424,DepthScenes,duration_manipulation_targetAtFixation,jsons/v1_VE1000_randls_74.json,http://54.235.29.9/FacialAge/BNav_EC2/DepthDuration/v2_depth_duration_MTurk/v2_DepthDuration_HTML.html#414,414,1366,625,1366,768,8-30-2022,6-55-16,6,depth_duration_stimuli/002637_2014-06-24_14-51-13_094959634447_rgbf000066-resize_4/002637_2014-06-24_14-51-13_094959634447_rgbf000066-resize_4-target.png,1000,1.9955,0,2464,994,meters,jsons/v1_VE1000_randls_74.json,458797,652240,38,Woman
6,567424,DepthScenes,duration_manipulation_targetAtFixation,jsons/v1_VE1000_randls_74.json,http://54.235.29.9/FacialAge/BNav_EC2/DepthDuration/v2_depth_duration_MTurk/v2_DepthDuration_HTML.html#414,414,1366,625,1366,768,8-30-2022,6-55-16,7,depth_duration_stimuli/000929_2014-06-09_16-33-19_260595134347_rgbf000139-resize_0/000929_2014-06-09_16-33-19_260595134347_rgbf000139-resize_0-target.png,1000,2.8680000000000003,0,3902,997,meters,jsons/v1_VE1000_randls_74.json,458797,652240,38,Woman
7,567424,DepthScenes,duration_manipulation_targetAtFixation,jsons/v1_VE1000_randls_74.json,http://54.235.29.9/FacialAge/BNav_EC2/DepthDuration/v2_depth_duration_MTurk/v2_DepthDuration_HTML.html#414,414,1366,625,1366,768,8-30-2022,6-55-16,8,depth_duration_stimuli/000457_2014-06-08_16-52-43_260595134347_rgbf000199-resize_1/000457_2014-06-08_16-52-43_260595134347_rgbf000199-resize_1-target.png,1000,3.6489999999999996,0,5224,998,meters,jsons/v1_VE1000_randls_74.json,458797,652240,38,Woman
8,567424,DepthScenes,duration_manipulation_targetAtFixation,jsons/v1_VE1000_randls_74.json,http://54.235.29.9/FacialAge/BNav_EC2/DepthDuration/v2_depth_duration_MTurk/v2_DepthDuration_HTML.html#414,414,1366,625,1366,768,8-30-2022,6-55-16,9,depth_duration_stimuli/002788_2014-06-22_19-36-03_094959634447_rgbf000088-resize_2/002788_2014-06-22_19-36-03_094959634447_rgbf000088-resize_2-target.png,1000,1.6465,0,2526,997,meters,jsons/v1_VE1000_randls_74.json,458797,652240,38,Woman
9,567424,DepthScenes,duration_manipulation_targetAtFixation,jsons/v1_VE1000_randls_74.json,http://54.235.29.9/FacialAge/BNav_EC2/DepthDuration/v2_depth_duration_MTurk/v2_DepthDuration_HTML.html#414,414,1366,625,1366,768,8-30-2022,6-55-16,10,depth_duration_stimuli/000749_2014-06-08_21-55-06_260595134347_rgbf000070-resize_2/000749_2014-06-08_21-55-06_260595134347_rgbf000070-resize_2-target.png,1000,2.331,0,6664,1007,meters,jsons/v1_VE1000_randls_74.json,458797,652240,38,Woman
10,567424,DepthScenes,duration_manipulation_targetAtFixation,jsons/v1_VE1000_randls_74.json,http://54.235.29.9/FacialAge/BNav_EC2/DepthDuration/v2_depth_duration_MTurk/v2_DepthDuration_HTML.html#414,414,1366,625,1366,768,8-30-2022,6-55-16,11,depth_duration_stimuli/002153_2014-06-25_21-27-18_260595134347_rgbf000038-resize_5/002153_2014-06-25_21-27-18_260595134347_rgbf000038-resize_5-target.png,1000,2.505,0,2271,992,meters,jsons/v1_VE1000_randls_74.json,458797,652240,38,Woman
11,567424,DepthScenes,duration_manipulation_targetAtFixation,jsons/v1_VE1000_randls_74.json,http://54.235.29.9/FacialAge/BNav_EC2/DepthDuration/v2_depth_duration_MTurk/v2_DepthDuration_HTML.html#414,414,1366,625,1366,768,8-30-2022,6-55-16,12,depth_duration_stimuli/002660_2014-06-13_15-44-18_094959634447_rgbf001878-resize_2/002660_2014-06-13_15-44-18_094959634447_rgbf001878-resize_2-target.png,1000,3.576,0,3556,993,meters,jsons/v1_VE1000_randls_74.json,458797,652240,38,Woman
12,567424,DepthScenes,duration_manipulation_targetAtFixation,jsons/v1_VE1000_randls_74.json,http://54.235.29.9/FacialAge/BNav_EC2/DepthDuration/v2_depth_duration_MTurk/v2_DepthDuration_HTML.html#414,414,1366,625,1366,768,8-30-2022,6-55-16,13,depth_duration_stimuli/000569_2014-06-09_22-51-47_260595134347_rgbf000141-resize_3/000569_2014-06-09_22-51-47_260595134347_rgbf000141-resize-original.jpg,1000,4.512,0,2248,999,meters,jsons/v1_VE1000_randls_74.json,458797,652240,38,Woman
13,567424,DepthScenes,duration_manipulation_targetAtFixation,jsons/v1_VE1000_randls_74.json,http://54.235.29.9/FacialAge/BNav_EC2/DepthDuration/v2_depth_duration_MTurk/v2_DepthDuration_HTML.html#414,414,1366,625,1366,768,8-30-2022,6-55-16,14,depth_duration_stimuli/000506_2014-06-08_23-21-00_260595134347_rgbf000070-resize_7/000506_2014-06-08_23-21-00_260595134347_rgbf000070-resize_7-target.png,1000,4.0585,0,2186,996,meters,jsons/v1_VE1000_randls_74.json,458797,652240,38,Woman
14,567424,DepthScenes,duration_manipulation_targetAtFixation,jsons/v1_VE1000_randls_74.json,http://54.235.29.9/FacialAge/BNav_EC2/DepthDuration/v2_depth_duration_MTurk/v2_DepthDuration_HTML.html#414,414,1366,625,1366,768,8-30-2022,6-55-16,15,depth_duration_stimuli/003079_2014-06-15_15-18-20_094959634447_rgbf000152-resize_8/003079_2014-06-15_15-18-20_094959634447_rgbf000152-resize_8-target.png,1000,2.8775,0,2174,993,meters,jsons/v1_VE1000_randls_74.json,458797,652240,38,Woman
15,567424,DepthScenes,duration_manipulation_targetAtFixation,jsons/v1_VE1000_randls_74.json,http://54.235.29.9/FacialAge/BNav_EC2/DepthDuration/v2_depth_duration_MTurk/v2_DepthDuration_HTML.html#414,414,1366,625,1366,768,8-30-2022,6-55-16,16,depth_duration_stimuli/002549_2014-06-24_13-41-39_094959634447_rgbf000022-resize_3/002549_2014-06-24_13-41-39_094959634447_rgbf000022-resize_3-target.png,1000,1.476,0,2184,1000,meters,jsons/v1_VE1000_randls_74.json,458797,652240,38,Woman
16,567424,DepthScenes,duration_manipulation_targetAtFixation,jsons/v1_VE1000_randls_74.json,http://54.235.29.9/FacialAge/BNav_EC2/DepthDuration/v2_depth_duration_MTurk/v2_DepthDuration_HTML.html#414,414,1366,625,1366,768,8-30-2022,6-55-16,17,depth_duration_stimuli/002750_2014-06-22_19-08-03_094959634447_rgbf000094-resize_4/002750_2014-06-22_19-08-03_094959634447_rgbf000094-resize_4-target.png,1000,2.354,0,2219,995,meters,jsons/v1_VE1000_randls_74.json,458797,652240,38,Woman
17,567424,DepthScenes,duration_manipulation_targetAtFixation,jsons/v1_VE1000_randls_74.json,http://54.235.29.9/FacialAge/BNav_EC2/DepthDuration/v2_depth_duration_MTurk/v2_DepthDuration_HTML.html#414,414,1366,625,1366,768,8-30-2022,6-55-16,18,depth_duration_stimuli/002989_2014-06-15_12-25-03_094959634447_rgbf000150-resize_3/002989_2014-06-15_12-25-03_094959634447_rgbf000150-resize_3-target.png,1000,4.1975,0,2120,992,meters,jsons/v1_VE1000_randls_74.json,458797,652240,38,Woman
18,567424,DepthScenes,duration_manipulation_targetAtFixation,jsons/v1_VE1000_randls_74.json,http://54.235.29.9/FacialAge/BNav_EC2/DepthDuration/v2_depth_duration_MTurk/v2_DepthDuration_HTML.html#414,414,1366,625,1366,768,8-30-2022,6-55-16,19,depth_duration_stimuli/000866_2014-06-09_20-45-42_260595134347_rgbf000139-resize_1/000866_2014-06-09_20-45-42_260595134347_rgbf000139-resize_1-target.png,1000,3.2155,0,2133,1000,meters,jsons/v1_VE1000_randls_74.json,458797,652240,38,Woman
19,567424,DepthScenes,duration_manipulation_targetAtFixation,jsons/v1_VE1000_randls_74.json,http://54.235.29.9/FacialAge/BNav_EC2/DepthDuration/v2_depth_duration_MTurk/v2_DepthDuration_HTML.html#414,414,1366,625,1366,768,8-30-2022,6-55-16,20,depth_duration_stimuli/003070_2014-06-15_14-58-27_094959634447_rgbf000150-resize_3/003070_2014-06-15_14-58-27_094959634447_rgbf000150-resize_3-target.png,1000,2.9415,0,2100,995,meters,jsons/v1_VE1000_randls_74.json,458797,652240,38,Woman
20,567424,DepthScenes,duration_manipulation_targetAtFixation,jsons/v1_VE1000_randls_74.json,http://54.235.29.9/FacialAge/BNav_EC2/DepthDuration/v2_depth_duration_MTurk/v2_DepthDuration_HTML.html#414,414,1366,625,1366,768,8-30-2022,6-55-16,21,depth_duration_stimuli/000943_2014-06-09_19-31-07_260595134347_rgbf000128-resize_1/000943_2014-06-09_19-31-07_260595134347_rgbf000128-resize_1-target.png,1000,1.9765,0,2115,1000,meters,jsons/v1_VE1000_randls_74.json,458797,652240,38,Woman
21,567424,DepthScenes,duration_manipulation_targetAtFixation,jsons/v1_VE1000_randls_74.json,http://54.235.29.9/FacialAge/BNav_EC2/DepthDuration/v2_depth_duration_MTurk/v2_DepthDuration_HTML.html#414,414,1366,625,1366,768,8-30-2022,6-55-16,22,depth_duration_stimuli/000682_2014-06-08_23-14-58_260595134347_rgbf000041-resize_5/000682_2014-06-08_23-14-58_260595134347_rgbf000041-resize_5-target.png,1000,2.7239999999999998,0,2155,1002,meters,jsons/v1_VE1000_randls_74.json,458797,652240,38,Woman
22,567424,DepthScenes,duration_manipulation_targetAtFixation,jsons/v1_VE1000_randls_74.json,http://54.235.29.9/FacialAge/BNav_EC2/DepthDuration/v2_depth_duration_MTurk/v2_DepthDuration_HTML.html#414,414,1366,625,1366,768,8-30-2022,6-55-16,23,depth_duration_stimuli/001650_2014-06-20_12-09-00_260595134347_rgbf000087-resize_3/001650_2014-06-20_12-09-00_260595134347_rgbf000087-resize_3-target.png,1000,1.9505,0,2161,1002,meters,jsons/v1_VE1000_randls_74.json,458797,652240,38,Woman
23,567424,DepthScenes,duration_manipulation_targetAtFixation,jsons/v1_VE1000_randls_74.json,http://54.235.29.9/FacialAge/BNav_EC2/DepthDuration/v2_depth_duration_MTurk/v2_DepthDuration_HTML.html#414,414,1366,625,1366,768,8-30-2022,6-55-16,24,depth_duration_stimuli/001417_2014-06-19_16-25-36_260595134347_rgbf000115-resize_5/001417_2014-06-19_16-25-36_260595134347_rgbf000115-resize_5-target.png,1000,4.6255,0,2117,994,meters,jsons/v1_VE1000_randls_74.json,458797,652240,38,Woman
24,567424,DepthScenes,duration_manipulation_targetAtFixation,jsons/v1_VE1000_randls_74.json,http://54.235.29.9/FacialAge/BNav_EC2/DepthDuration/v2_depth_duration_MTurk/v2_DepthDuration_HTML.html#414,414,1366,625,1366,768,8-30-2022,6-55-16,25,depth_duration_stimuli/003081_2014-06-15_15-19-16_094959634447_rgbf000150-resize_1/003081_2014-06-15_15-19-16_094959634447_rgbf000150-resize_1-target.png,1000,3.9125,0,2696,994,meters,jsons/v1_VE1000_randls_74.json,458797,652240,38,Woman
25,567424,DepthScenes,duration_manipulation_targetAtFixation,jsons/v1_VE1000_randls_74.json,http://54.235.29.9/FacialAge/BNav_EC2/DepthDuration/v2_depth_duration_MTurk/v2_DepthDuration_HTML.html#414,414,1366,625,1366,768,8-30-2022,6-55-16,26,depth_duration_stimuli/001570_2014-06-20_17-21-09_260595134347_rgbf000135-resize_4/001570_2014-06-20_17-21-09_260595134347_rgbf000135-resize_4-target.png,1000,4.467,0,2101,1001,meters,jsons/v1_VE1000_randls_74.json,458797,652240,38,Woman
26,567424,DepthScenes,duration_manipulation_targetAtFixation,jsons/v1_VE1000_randls_74.json,http://54.235.29.9/FacialAge/BNav_EC2/DepthDuration/v2_depth_duration_MTurk/v2_DepthDuration_HTML.html#414,414,1366,625,1366,768,8-30-2022,6-55-16,27,depth_duration_stimuli/001392_2014-06-19_16-07-59_260595134347_rgbf000046-resize_1/001392_2014-06-19_16-07-59_260595134347_rgbf000046-resize_1-target.png,1000,4.135,0,2168,994,meters,jsons/v1_VE1000_randls_74.json,458797,652240,38,Woman
27,567424,DepthScenes,duration_manipulation_targetAtFixation,jsons/v1_VE1000_randls_74.json,http://54.235.29.9/FacialAge/BNav_EC2/DepthDuration/v2_depth_duration_MTurk/v2_DepthDuration_HTML.html#414,414,1366,625,1366,768,8-30-2022,6-55-16,28,depth_duration_stimuli/003621_2014-05-23_18-06-08_094959634447_rgbf000101-resize_1/003621_2014-05-23_18-06-08_094959634447_rgbf000101-resize_1-target.png,1000,3.9835,0,2195,1002,meters,jsons/v1_VE1000_randls_74.json,458797,652240,38,Woman
28,567424,DepthScenes,duration_manipulation_targetAtFixation,jsons/v1_VE1000_randls_74.json,http://54.235.29.9/FacialAge/BNav_EC2/DepthDuration/v2_depth_duration_MTurk/v2_DepthDuration_HTML.html#414,414,1366,625,1366,768,8-30-2022,6-55-16,29,depth_duration_stimuli/001584_2014-06-20_11-07-43_260595134347_rgbf000002-resize_1/001584_2014-06-20_11-07-43_260595134347_rgbf000002-resize_1-target.png,1000,3.53,0,2159,1000,meters,jsons/v1_VE1000_randls_74.json,458797,652240,38,Woman
29,567424,DepthScenes,duration_manipulation_targetAtFixation,jsons/v1_VE1000_randls_74.json,http://54.235.29.9/FacialAge/BNav_EC2/DepthDuration/v2_depth_duration_MTurk/v2_DepthDuration_HTML.html#414,414,1366,625,1366,768,8-30-2022,6-55-16,30,depth_duration_stimuli/000375_2014-06-08_11-17-29_260595134347_rgbf000133-resize_2/000375_2014-06-08_11-17-29_260595134347_rgbf000133-resize-original.jpg,1000,4.718,0,2239,1005,meters,jsons/v1_VE1000_randls_74.json,458797,652240,38,Woman
30,567424,DepthScenes,duration_manipulation_targetAtFixation,jsons/v1_VE1000_randls_74.json,http://54.235.29.9/FacialAge/BNav_EC2/DepthDuration/v2_depth_duration_MTurk/v2_DepthDuration_HTML.html#414,414,1366,625,1366,768,8-30-2022,6-55-16,31,depth_duration_stimuli/001810_2014-06-26_20-51-35_260595134347_rgbf000040-resize_3/001810_2014-06-26_20-51-35_260595134347_rgbf000040-resize_3-target.png,1000,2.2525,0,2189,998,meters,jsons/v1_VE1000_randls_74.json,458797,652240,38,Woman
31,567424,DepthScenes,duration_manipulation_targetAtFixation,jsons/v1_VE1000_randls_74.json,http://54.235.29.9/FacialAge/BNav_EC2/DepthDuration/v2_depth_duration_MTurk/v2_DepthDuration_HTML.html#414,414,1366,625,1366,768,8-30-2022,6-55-16,32,depth_duration_stimuli/003010_2014-06-15_12-54-35_094959634447_rgbf000112-resize_0/003010_2014-06-15_12-54-35_094959634447_rgbf000112-resize_0-target.png,1000,3.1185,0,2222,998,meters,jsons/v1_VE1000_randls_74.json,458797,652240,38,Woman
32,567424,DepthScenes,duration_manipulation_targetAtFixation,jsons/v1_VE1000_randls_74.json,http://54.235.29.9/FacialAge/BNav_EC2/DepthDuration/v2_depth_duration_MTurk/v2_DepthDuration_HTML.html#414,414,1366,625,1366,768,8-30-2022,6-55-16,33,depth_duration_stimuli/000739_2014-06-08_18-45-58_260595134347_rgbf000068-resize_1/000739_2014-06-08_18-45-58_260595134347_rgbf000068-resize_1-target.png,1000,3.534,0,2167,995,meters,jsons/v1_VE1000_randls_74.json,458797,652240,38,Woman
33,567424,DepthScenes,duration_manipulation_targetAtFixation,jsons/v1_VE1000_randls_74.json,http://54.235.29.9/FacialAge/BNav_EC2/DepthDuration/v2_depth_duration_MTurk/v2_DepthDuration_HTML.html#414,414,1366,625,1366,768,8-30-2022,6-55-16,34,depth_duration_stimuli/000734_2014-06-08_17-39-11_260595134347_rgbf000128-resize_2/000734_2014-06-08_17-39-11_260595134347_rgbf000128-resize_2-target.png,1000,4.098,0,2149,993,meters,jsons/v1_VE1000_randls_74.json,458797,652240,38,Woman
34,567424,DepthScenes,duration_manipulation_targetAtFixation,jsons/v1_VE1000_randls_74.json,http://54.235.29.9/FacialAge/BNav_EC2/DepthDuration/v2_depth_duration_MTurk/v2_DepthDuration_HTML.html#414,414,1366,625,1366,768,8-30-2022,6-55-16,35,depth_duration_stimuli/002600_2014-06-24_14-27-04_094959634447_rgbf000074-resize_2/002600_2014-06-24_14-27-04_094959634447_rgbf000074-resize_2-target.png,1000,2.7575,0,2111,992,meters,jsons/v1_VE1000_randls_74.json,458797,652240,38,Woman
35,567424,DepthScenes,duration_manipulation_targetAtFixation,jsons/v1_VE1000_randls_74.json,http://54.235.29.9/FacialAge/BNav_EC2/DepthDuration/v2_depth_duration_MTurk/v2_DepthDuration_HTML.html#414,414,1366,625,1366,768,8-30-2022,6-55-16,36,depth_duration_stimuli/003228_2014-05-14_13-42-35_094959634447_rgbf000101-resize_1/003228_2014-05-14_13-42-35_094959634447_rgbf000101-resize_1-target.png,1000,1.9680000000000002,0,2117,1000,meters,jsons/v1_VE1000_randls_74.json,458797,652240,38,Woman
36,567424,DepthScenes,duration_manipulation_targetAtFixation,jsons/v1_VE1000_randls_74.json,http://54.235.29.9/FacialAge/BNav_EC2/DepthDuration/v2_depth_duration_MTurk/v2_DepthDuration_HTML.html#414,414,1366,625,1366,768,8-30-2022,6-55-16,37,depth_duration_stimuli/000486_2014-06-09_20-47-20_260595134347_rgbf000143-resize_2/000486_2014-06-09_20-47-20_260595134347_rgbf000143-resize_2-target.png,1000,4.8325,0,2060,997,meters,jsons/v1_VE1000_randls_74.json,458797,652240,38,Woman
37,567424,DepthScenes,duration_manipulation_targetAtFixation,jsons/v1_VE1000_randls_74.json,http://54.235.29.9/FacialAge/BNav_EC2/DepthDuration/v2_depth_duration_MTurk/v2_DepthDuration_HTML.html#414,414,1366,625,1366,768,8-30-2022,6-55-16,38,depth_duration_stimuli/003083_2014-06-15_15-21-03_094959634447_rgbf000063-resize_1/003083_2014-06-15_15-21-03_094959634447_rgbf000063-resize_1-target.png,1000,4.1405,0,2116,992,meters,jsons/v1_VE1000_randls_74.json,458797,652240,38,Woman
38,567424,DepthScenes,duration_manipulation_targetAtFixation,jsons/v1_VE1000_randls_74.json,http://54.235.29.9/FacialAge/BNav_EC2/DepthDuration/v2_depth_duration_MTurk/v2_DepthDuration_HTML.html#414,414,1366,625,1366,768,8-30-2022,6-55-16,39,depth_duration_stimuli/001029_2014-06-08_13-17-57_260595134347_rgbf000065-resize_1/001029_2014-06-08_13-17-57_260595134347_rgbf000065-resize_1-target.png,1000,3.0835,0,2179,1000,meters,jsons/v1_VE1000_randls_74.json,458797,652240,38,Woman
39,567424,DepthScenes,duration_manipulation_targetAtFixation,jsons/v1_VE1000_randls_74.json,http://54.235.29.9/FacialAge/BNav_EC2/DepthDuration/v2_depth_duration_MTurk/v2_DepthDuration_HTML.html#414,414,1366,625,1366,768,8-30-2022,6-55-16,40,depth_duration_stimuli/000677_2014-06-08_23-10-32_260595134347_rgbf000158-resize_6/000677_2014-06-08_23-10-32_260595134347_rgbf000158-resize_6-target.png,1000,3.556,0,2167,1000,meters,jsons/v1_VE1000_randls_74.json,458797,652240,38,Woman
40,567424,DepthScenes,duration_manipulation_targetAtFixation,jsons/v1_VE1000_randls_74.json,http://54.235.29.9/FacialAge/BNav_EC2/DepthDuration/v2_depth_duration_MTurk/v2_DepthDuration_HTML.html#414,414,1366,625,1366,768,8-30-2022,6-55-16,41,depth_duration_stimuli/001066_2014-06-08_22-03-20_260595134347_rgbf000066-resize_4/001066_2014-06-08_22-03-20_260595134347_rgbf000066-resize_4-target.png,1000,4.2330000000000005,0,2092,1000,meters,jsons/v1_VE1000_randls_74.json,458797,652240,38,Woman
41,567424,DepthScenes,duration_manipulation_targetAtFixation,jsons/v1_VE1000_randls_74.json,http://54.235.29.9/FacialAge/BNav_EC2/DepthDuration/v2_depth_duration_MTurk/v2_DepthDuration_HTML.html#414,414,1366,625,1366,768,8-30-2022,6-55-16,42,depth_duration_stimuli/000742_2014-06-08_18-48-09_260595134347_rgbf000164-resize_4/000742_2014-06-08_18-48-09_260595134347_rgbf000164-resize_4-target.png,1000,4.632,0,2158,961,meters,jsons/v1_VE1000_randls_74.json,458797,652240,38,Woman
42,567424,DepthScenes,duration_manipulation_targetAtFixation,jsons/v1_VE1000_randls_74.json,http://54.235.29.9/FacialAge/BNav_EC2/DepthDuration/v2_depth_duration_MTurk/v2_DepthDuration_HTML.html#414,414,1366,625,1366,768,8-30-2022,6-55-16,43,depth_duration_stimuli/001175_2014-06-17_15-45-55_260595134347_rgbf000129-resize_4/001175_2014-06-17_15-45-55_260595134347_rgbf000129-resize_4-target.png,1000,4.255,0,2142,995,meters,jsons/v1_VE1000_randls_74.json,458797,652240,38,Woman
43,567424,DepthScenes,duration_manipulation_targetAtFixation,jsons/v1_VE1000_randls_74.json,http://54.235.29.9/FacialAge/BNav_EC2/DepthDuration/v2_depth_duration_MTurk/v2_DepthDuration_HTML.html#414,414,1366,625,1366,768,8-30-2022,6-55-16,44,depth_duration_stimuli/003490_2014-05-21_15-50-11_094959634447_rgbf000101-resize_3/003490_2014-05-21_15-50-11_094959634447_rgbf000101-resize_3-target.png,1000,3.6445,0,2107,994,meters,jsons/v1_VE1000_randls_74.json,458797,652240,38,Woman
44,567424,DepthScenes,duration_manipulation_targetAtFixation,jsons/v1_VE1000_randls_74.json,http://54.235.29.9/FacialAge/BNav_EC2/DepthDuration/v2_depth_duration_MTurk/v2_DepthDuration_HTML.html#414,414,1366,625,1366,768,8-30-2022,6-55-16,45,depth_duration_stimuli/000787_2014-06-08_22-33-53_260595134347_rgbf000175-resize_1/000787_2014-06-08_22-33-53_260595134347_rgbf000175-resize-original.jpg,1000,4.784,0,2316,997,meters,jsons/v1_VE1000_randls_74.json,458797,652240,38,Woman
45,567424,DepthScenes,duration_manipulation_targetAtFixation,jsons/v1_VE1000_randls_74.json,http://54.235.29.9/FacialAge/BNav_EC2/DepthDuration/v2_depth_duration_MTurk/v2_DepthDuration_HTML.html#414,414,1366,625,1366,768,8-30-2022,6-55-16,46,depth_duration_stimuli/001150_2014-06-17_15-27-34_260595134347_rgbf000108-resize_2/001150_2014-06-17_15-27-34_260595134347_rgbf000108-resize_2-target.png,1000,4.0325,0,2127,995,meters,jsons/v1_VE1000_randls_74.json,458797,652240,38,Woman
46,567424,DepthScenes,duration_manipulation_targetAtFixation,jsons/v1_VE1000_randls_74.json,http://54.235.29.9/FacialAge/BNav_EC2/DepthDuration/v2_depth_duration_MTurk/v2_DepthDuration_HTML.html#414,414,1366,625,1366,768,8-30-2022,6-55-16,47,depth_duration_stimuli/000665_2014-06-09_20-42-35_260595134347_rgbf000110-resize_1/000665_2014-06-09_20-42-35_260595134347_rgbf000110-resize_1-target.png,1000,3.057,0,2196,1004,meters,jsons/v1_VE1000_randls_74.json,458797,652240,38,Woman
47,567424,DepthScenes,duration_manipulation_targetAtFixation,jsons/v1_VE1000_randls_74.json,http://54.235.29.9/FacialAge/BNav_EC2/DepthDuration/v2_depth_duration_MTurk/v2_DepthDuration_HTML.html#414,414,1366,625,1366,768,8-30-2022,6-55-16,48,depth_duration_stimuli/002057_2014-06-24_21-00-13_260595134347_rgbf000120-resize_1/002057_2014-06-24_21-00-13_260595134347_rgbf000120-resize_1-target.png,1000,2.967,0,2085,1000,meters,jsons/v1_VE1000_randls_74.json,458797,652240,38,Woman
48,567424,DepthScenes,duration_manipulation_targetAtFixation,jsons/v1_VE1000_randls_74.json,http://54.235.29.9/FacialAge/BNav_EC2/DepthDuration/v2_depth_duration_MTurk/v2_DepthDuration_HTML.html#414,414,1366,625,1366,768,8-30-2022,6-55-16,49,depth_duration_stimuli/000709_2014-06-08_13-51-55_260595134347_rgbf000068-resize_3/000709_2014-06-08_13-51-55_260595134347_rgbf000068-resize_3-target.png,1000,1.8030000000000002,0,2619,1000,meters,jsons/v1_VE1000_randls_74.json,458797,652240,38,Woman
49,567424,DepthScenes,duration_manipulation_targetAtFixation,jsons/v1_VE1000_randls_74.json,http://54.235.29.9/FacialAge/BNav_EC2/DepthDuration/v2_depth_duration_MTurk/v2_DepthDuration_HTML.html#414,414,1366,625,1366,768,8-30-2022,6-55-16,50,depth_duration_stimuli/000736_2014-06-08_18-24-15_260595134347_rgbf000206-resize_3/000736_2014-06-08_18-24-15_260595134347_rgbf000206-resize_3-target.png,1000,3.515,0,2139,1003,meters,jsons/v1_VE1000_randls_74.json,458797,652240,38,Woman
50,567424,DepthScenes,duration_manipulation_targetAtFixation,jsons/v1_VE1000_randls_74.json,http://54.235.29.9/FacialAge/BNav_EC2/DepthDuration/v2_depth_duration_MTurk/v2_DepthDuration_HTML.html#414,414,1366,625,1366,768,8-30-2022,6-55-16,51,depth_duration_stimuli/000137_2014-05-20_17-04-49_260595134347_rgbf000120-resize_1/000137_2014-05-20_17-04-49_260595134347_rgbf000120-resize_1-target.png,1000,3.786,0,2196,996,meters,jsons/v1_VE1000_randls_74.json,458797,652240,38,Woman
51,567424,DepthScenes,duration_manipulation_targetAtFixation,jsons/v1_VE1000_randls_74.json,http://54.235.29.9/FacialAge/BNav_EC2/DepthDuration/v2_depth_duration_MTurk/v2_DepthDuration_HTML.html#414,414,1366,625,1366,768,8-30-2022,6-55-16,52,depth_duration_stimuli/000878_2014-06-08_22-52-45_260595134347_rgbf000045-resize_2/000878_2014-06-08_22-52-45_260595134347_rgbf000045-resize_2-target.png,1000,2.092,0,2144,992,meters,jsons/v1_VE1000_randls_74.json,458797,652240,38,Woman
52,567424,DepthScenes,duration_manipulation_targetAtFixation,jsons/v1_VE1000_randls_74.json,http://54.235.29.9/FacialAge/BNav_EC2/DepthDuration/v2_depth_duration_MTurk/v2_DepthDuration_HTML.html#414,414,1366,625,1366,768,8-30-2022,6-55-16,53,depth_duration_stimuli/002953_2014-06-08_17-32-18_094959634447_rgbf000059-resize_5/002953_2014-06-08_17-32-18_094959634447_rgbf000059-resize_5-target.png,1000,1.551,0,2158,982,meters,jsons/v1_VE1000_randls_74.json,458797,652240,38,Woman
53,567424,DepthScenes,duration_manipulation_targetAtFixation,jsons/v1_VE1000_randls_74.json,http://54.235.29.9/FacialAge/BNav_EC2/DepthDuration/v2_depth_duration_MTurk/v2_DepthDuration_HTML.html#414,414,1366,625,1366,768,8-30-2022,6-55-16,54,depth_duration_stimuli/002375_2014-06-28_20-13-44_260595134347_rgbf000032-resize_1/002375_2014-06-28_20-13-44_260595134347_rgbf000032-resize_1-target.png,1000,4.0175,0,2158,991,meters,jsons/v1_VE1000_randls_74.json,458797,652240,38,Woman
54,567424,DepthScenes,duration_manipulation_targetAtFixation,jsons/v1_VE1000_randls_74.json,http://54.235.29.9/FacialAge/BNav_EC2/DepthDuration/v2_depth_duration_MTurk/v2_DepthDuration_HTML.html#414,414,1366,625,1366,768,8-30-2022,6-55-16,55,depth_duration_stimuli/002657_2014-06-13_15-29-54_094959634447_rgbf000150-resize_1/002657_2014-06-13_15-29-54_094959634447_rgbf000150-resize_1-target.png,1000,4.919,0,2192,993,meters,jsons/v1_VE1000_randls_74.json,458797,652240,38,Woman
55,567424,DepthScenes,duration_manipulation_targetAtFixation,jsons/v1_VE1000_randls_74.json,http://54.235.29.9/FacialAge/BNav_EC2/DepthDuration/v2_depth_duration_MTurk/v2_DepthDuration_HTML.html#414,414,1366,625,1366,768,8-30-2022,6-55-16,56,depth_duration_stimuli/001016_2014-06-09_16-16-10_260595134347_rgbf000112-resize_5/001016_2014-06-09_16-16-10_260595134347_rgbf000112-resize_5-target.png,1000,1.6565,0,2188,1005,meters,jsons/v1_VE1000_randls_74.json,458797,652240,38,Woman
56,567424,DepthScenes,duration_manipulation_targetAtFixation,jsons/v1_VE1000_randls_74.json,http://54.235.29.9/FacialAge/BNav_EC2/DepthDuration/v2_depth_duration_MTurk/v2_DepthDuration_HTML.html#414,414,1366,625,1366,768,8-30-2022,6-55-16,57,depth_duration_stimuli/002340_2014-06-28_20-05-46_260595134347_rgbf000113-resize_0/002340_2014-06-28_20-05-46_260595134347_rgbf000113-resize_0-target.png,1000,2.4735,0,2096,993,meters,jsons/v1_VE1000_randls_74.json,458797,652240,38,Woman
57,567424,DepthScenes,duration_manipulation_targetAtFixation,jsons/v1_VE1000_randls_74.json,http://54.235.29.9/FacialAge/BNav_EC2/DepthDuration/v2_depth_duration_MTurk/v2_DepthDuration_HTML.html#414,414,1366,625,1366,768,8-30-2022,6-55-16,58,depth_duration_stimuli/001011_2014-06-08_23-18-54_260595134347_rgbf000044-resize_4/001011_2014-06-08_23-18-54_260595134347_rgbf000044-resize_4-target.png,1000,2.4730000000000003,0,2165,993,meters,jsons/v1_VE1000_randls_74.json,458797,652240,38,Woman
58,567424,DepthScenes,duration_manipulation_targetAtFixation,jsons/v1_VE1000_randls_74.json,http://54.235.29.9/FacialAge/BNav_EC2/DepthDuration/v2_depth_duration_MTurk/v2_DepthDuration_HTML.html#414,414,1366,625,1366,768,8-30-2022,6-55-16,59,depth_duration_stimuli/002875_2014-06-01_15-19-00_094959634447_rgbf000151-resize_1/002875_2014-06-01_15-19-00_094959634447_rgbf000151-resize_1-target.png,1000,1.9675,0,2307,992,meters,jsons/v1_VE1000_randls_74.json,458797,652240,38,Woman
59,567424,DepthScenes,duration_manipulation_targetAtFixation,jsons/v1_VE1000_randls_74.json,http://54.235.29.9/FacialAge/BNav_EC2/DepthDuration/v2_depth_duration_MTurk/v2_DepthDuration_HTML.html#414,414,1366,625,1366,768,8-30-2022,6-55-16,60,depth_duration_stimuli/000758_2014-06-08_22-05-08_260595134347_rgbf000085-resize_0/000758_2014-06-08_22-05-08_260595134347_rgbf000085-resize_0-target.png,1000,3.3810000000000002,0,2261,976,meters,jsons/v1_VE1000_randls_74.json,458797,652240,38,Woman
60,567424,DepthScenes,duration_manipulation_targetAtFixation,jsons/v1_VE1000_randls_74.json,http://54.235.29.9/FacialAge/BNav_EC2/DepthDuration/v2_depth_duration_MTurk/v2_DepthDuration_HTML.html#414,414,1366,625,1366,768,8-30-2022,6-55-16,61,depth_duration_stimuli/000854_2014-06-09_19-43-13_260595134347_rgbf000066-resize_0/000854_2014-06-09_19-43-13_260595134347_rgbf000066-resize_0-target.png,1000,3.068,0,2267,995,meters,jsons/v1_VE1000_randls_74.json,458797,652240,38,Woman
61,567424,DepthScenes,duration_manipulation_targetAtFixation,jsons/v1_VE1000_randls_74.json,http://54.235.29.9/FacialAge/BNav_EC2/DepthDuration/v2_depth_duration_MTurk/v2_DepthDuration_HTML.html#414,414,1366,625,1366,768,8-30-2022,6-55-16,62,depth_duration_stimuli/001199_2014-06-17_16-03-48_260595134347_rgbf000077-resize_0/001199_2014-06-17_16-03-48_260595134347_rgbf000077-resize_0-target.png,1000,3.4375,0,2641,1004,meters,jsons/v1_VE1000_randls_74.json,458797,652240,38,Woman
62,567424,DepthScenes,duration_manipulation_targetAtFixation,jsons/v1_VE1000_randls_74.json,http://54.235.29.9/FacialAge/BNav_EC2/DepthDuration/v2_depth_duration_MTurk/v2_DepthDuration_HTML.html#414,414,1366,625,1366,768,8-30-2022,6-55-16,63,depth_duration_stimuli/000502_2014-06-08_23-02-32_260595134347_rgbf000063-resize_4/000502_2014-06-08_23-02-32_260595134347_rgbf000063-resize_4-target.png,1000,2.431,0,2249,1000,meters,jsons/v1_VE1000_randls_74.json,458797,652240,38,Woman
63,567424,DepthScenes,duration_manipulation_targetAtFixation,jsons/v1_VE1000_randls_74.json,http://54.235.29.9/FacialAge/BNav_EC2/DepthDuration/v2_depth_duration_MTurk/v2_DepthDuration_HTML.html#414,414,1366,625,1366,768,8-30-2022,6-55-16,64,depth_duration_stimuli/001806_2014-06-26_20-50-20_260595134347_rgbf000091-resize_1/001806_2014-06-26_20-50-20_260595134347_rgbf000091-resize_1-target.png,1000,2.7305,0,2208,994,meters,jsons/v1_VE1000_randls_74.json,458797,652240,38,Woman
64,567424,DepthScenes,duration_manipulation_targetAtFixation,jsons/v1_VE1000_randls_74.json,http://54.235.29.9/FacialAge/BNav_EC2/DepthDuration/v2_depth_duration_MTurk/v2_DepthDuration_HTML.html#414,414,1366,625,1366,768,8-30-2022,6-55-16,65,depth_duration_stimuli/001617_2014-06-20_11-35-32_260595134347_rgbf000066-resize_1/001617_2014-06-20_11-35-32_260595134347_rgbf000066-resize_1-target.png,1000,3.7910000000000004,0,2266,992,meters,jsons/v1_VE1000_randls_74.json,458797,652240,38,Woman
65,567424,DepthScenes,duration_manipulation_targetAtFixation,jsons/v1_VE1000_randls_74.json,http://54.235.29.9/FacialAge/BNav_EC2/DepthDuration/v2_depth_duration_MTurk/v2_DepthDuration_HTML.html#414,414,1366,625,1366,768,8-30-2022,6-55-16,66,depth_duration_stimuli/001222_2014-06-17_16-24-06_260595134347_rgbf000073-resize_0/001222_2014-06-17_16-24-06_260595134347_rgbf000073-resize-original.jpg,1000,1.4385,0,2251,998,meters,jsons/v1_VE1000_randls_74.json,458797,652240,38,Woman
66,567424,DepthScenes,duration_manipulation_targetAtFixation,jsons/v1_VE1000_randls_74.json,http://54.235.29.9/FacialAge/BNav_EC2/DepthDuration/v2_depth_duration_MTurk/v2_DepthDuration_HTML.html#414,414,1366,625,1366,768,8-30-2022,6-55-16,67,depth_duration_stimuli/001167_2014-06-17_15-38-07_260595134347_rgbf000108-resize_0/001167_2014-06-17_15-38-07_260595134347_rgbf000108-resize_0-target.png,1000,1.8505,0,2312,992,meters,jsons/v1_VE1000_randls_74.json,458797,652240,38,Woman
67,567424,DepthScenes,duration_manipulation_targetAtFixation,jsons/v1_VE1000_randls_74.json,http://54.235.29.9/FacialAge/BNav_EC2/DepthDuration/v2_depth_duration_MTurk/v2_DepthDuration_HTML.html#414,414,1366,625,1366,768,8-30-2022,6-55-16,68,depth_duration_stimuli/003587_2014-05-23_16-48-02_094959634447_rgbf002384-resize_2/003587_2014-05-23_16-48-02_094959634447_rgbf002384-resize_2-target.png,1000,1.357,0,2320,994,meters,jsons/v1_VE1000_randls_74.json,458797,652240,38,Woman
68,567424,DepthScenes,duration_manipulation_targetAtFixation,jsons/v1_VE1000_randls_74.json,http://54.235.29.9/FacialAge/BNav_EC2/DepthDuration/v2_depth_duration_MTurk/v2_DepthDuration_HTML.html#414,414,1366,625,1366,768,8-30-2022,6-55-16,69,depth_duration_stimuli/002663_2014-06-13_15-50-26_094959634447_rgbf000075-resize_1/002663_2014-06-13_15-50-26_094959634447_rgbf000075-resize_1-target.png,1000,4.7495,0,2251,979,meters,jsons/v1_VE1000_randls_74.json,458797,652240,38,Woman
69,567424,DepthScenes,duration_manipulation_targetAtFixation,jsons/v1_VE1000_randls_74.json,http://54.235.29.9/FacialAge/BNav_EC2/DepthDuration/v2_depth_duration_MTurk/v2_DepthDuration_HTML.html#414,414,1366,625,1366,768,8-30-2022,6-55-16,70,depth_duration_stimuli/000409_2014-06-04_19-23-33_260595134347_rgbf000067-resize_0/000409_2014-06-04_19-23-33_260595134347_rgbf000067-resize_0-target.png,1000,3.7335,0,2272,1000,meters,jsons/v1_VE1000_randls_74.json,458797,652240,38,Woman
70,567424,DepthScenes,duration_manipulation_targetAtFixation,jsons/v1_VE1000_randls_74.json,http://54.235.29.9/FacialAge/BNav_EC2/DepthDuration/v2_depth_duration_MTurk/v2_DepthDuration_HTML.html#414,414,1366,625,1366,768,8-30-2022,6-55-16,71,depth_duration_stimuli/002043_2014-06-24_20-29-38_260595134347_rgbf000039-resize_4/002043_2014-06-24_20-29-38_260595134347_rgbf000039-resize_4-target.png,1000,2.8435,0,2245,984,meters,jsons/v1_VE1000_randls_74.json,458797,652240,38,Woman
71,567424,DepthScenes,duration_manipulation_targetAtFixation,jsons/v1_VE1000_randls_74.json,http://54.235.29.9/FacialAge/BNav_EC2/DepthDuration/v2_depth_duration_MTurk/v2_DepthDuration_HTML.html#414,414,1366,625,1366,768,8-30-2022,6-55-16,72,depth_duration_stimuli/003048_2014-06-15_13-49-43_094959634447_rgbf000150-resize_1/003048_2014-06-15_13-49-43_094959634447_rgbf000150-resize_1-target.png,1000,4.0035,0,2288,1003,meters,jsons/v1_VE1000_randls_74.json,458797,652240,38,Woman
72,567424,DepthScenes,duration_manipulation_targetAtFixation,jsons/v1_VE1000_randls_74.json,http://54.235.29.9/FacialAge/BNav_EC2/DepthDuration/v2_depth_duration_MTurk/v2_DepthDuration_HTML.html#414,414,1366,625,1366,768,8-30-2022,6-55-16,73,depth_duration_stimuli/002272_2014-06-28_18-53-56_260595134347_rgbf000067-resize_2/002272_2014-06-28_18-53-56_260595134347_rgbf000067-resize_2-target.png,1000,1.138,0,2230,1006,meters,jsons/v1_VE1000_randls_74.json,458797,652240,38,Woman
73,567424,DepthScenes,duration_manipulation_targetAtFixation,jsons/v1_VE1000_randls_74.json,http://54.235.29.9/FacialAge/BNav_EC2/DepthDuration/v2_depth_duration_MTurk/v2_DepthDuration_HTML.html#414,414,1366,625,1366,768,8-30-2022,6-55-16,74,depth_duration_stimuli/001571_2014-06-20_17-21-32_260595134347_rgbf000089-resize_1/001571_2014-06-20_17-21-32_260595134347_rgbf000089-resize_1-target.png,1000,1.86,0,2162,1002,meters,jsons/v1_VE1000_randls_74.json,458797,652240,38,Woman
74,567424,DepthScenes,duration_manipulation_targetAtFixation,jsons/v1_VE1000_randls_74.json,http://54.235.29.9/FacialAge/BNav_EC2/DepthDuration/v2_depth_duration_MTurk/v2_DepthDuration_HTML.html#414,414,1366,625,1366,768,8-30-2022,6-55-16,75,depth_duration_stimuli/002748_2014-06-22_19-07-22_094959634447_rgbf000078-resize_1/002748_2014-06-22_19-07-22_094959634447_rgbf000078-resize_1-target.png,1000,4.6705,0,2168,1000,meters,jsons/v1_VE1000_randls_74.json,458797,652240,38,Woman
75,567424,DepthScenes,duration_manipulation_targetAtFixation,jsons/v1_VE1000_randls_74.json,http://54.235.29.9/FacialAge/BNav_EC2/DepthDuration/v2_depth_duration_MTurk/v2_DepthDuration_HTML.html#414,414,1366,625,1366,768,8-30-2022,6-55-16,76,depth_duration_stimuli/002995_2014-06-15_12-31-26_094959634447_rgbf000150-resize_1/002995_2014-06-15_12-31-26_094959634447_rgbf000150-resize_1-target.png,1000,3.8360000000000003,0,2473,992,meters,jsons/v1_VE1000_randls_74.json,458797,652240,38,Woman
76,567424,DepthScenes,duration_manipulation_targetAtFixation,jsons/v1_VE1000_randls_74.json,http://54.235.29.9/FacialAge/BNav_EC2/DepthDuration/v2_depth_duration_MTurk/v2_DepthDuration_HTML.html#414,414,1366,625,1366,768,8-30-2022,6-55-16,77,depth_duration_stimuli/002509_2014-06-24_13-19-22_094959634447_rgbf000077-resize_0/002509_2014-06-24_13-19-22_094959634447_rgbf000077-resize_0-target.png,1000,1.3065,0,2250,997,meters,jsons/v1_VE1000_randls_74.json,458797,652240,38,Woman
77,567424,DepthScenes,duration_manipulation_targetAtFixation,jsons/v1_VE1000_randls_74.json,http://54.235.29.9/FacialAge/BNav_EC2/DepthDuration/v2_depth_duration_MTurk/v2_DepthDuration_HTML.html#414,414,1366,625,1366,768,8-30-2022,6-55-16,78,depth_duration_stimuli/003338_2014-05-20_11-01-23_094959634447_rgbf000051-resize_6/003338_2014-05-20_11-01-23_094959634447_rgbf000051-resize_6-target.png,1000,1.693,0,2294,994,meters,jsons/v1_VE1000_randls_74.json,458797,652240,38,Woman
78,567424,DepthScenes,duration_manipulation_targetAtFixation,jsons/v1_VE1000_randls_74.json,http://54.235.29.9/FacialAge/BNav_EC2/DepthDuration/v2_depth_duration_MTurk/v2_DepthDuration_HTML.html#414,414,1366,625,1366,768,8-30-2022,6-55-16,79,depth_duration_stimuli/002039_2014-06-24_20-22-38_260595134347_rgbf000084-resize_1/002039_2014-06-24_20-22-38_260595134347_rgbf000084-resize_1-target.png,1000,4.408,0,2269,1007,meters,jsons/v1_VE1000_randls_74.json,458797,652240,38,Woman
79,567424,DepthScenes,duration_manipulation_targetAtFixation,jsons/v1_VE1000_randls_74.json,http://54.235.29.9/FacialAge/BNav_EC2/DepthDuration/v2_depth_duration_MTurk/v2_DepthDuration_HTML.html#414,414,1366,625,1366,768,8-30-2022,6-55-16,80,depth_duration_stimuli/002103_2014-06-25_20-00-40_260595134347_rgbf000049-resize_0/002103_2014-06-25_20-00-40_260595134347_rgbf000049-resize_0-target.png,1000,4.105,0,2247,992,meters,jsons/v1_VE1000_randls_74.json,458797,652240,38,Woman
80,567424,DepthScenes,duration_manipulation_targetAtFixation,jsons/v1_VE1000_randls_74.json,http://54.235.29.9/FacialAge/BNav_EC2/DepthDuration/v2_depth_duration_MTurk/v2_DepthDuration_HTML.html#414,414,1366,625,1366,768,8-30-2022,6-55-16,81,depth_duration_stimuli/001110_2014-06-15_17-25-28_260595134347_rgbf000150-resize_1/001110_2014-06-15_17-25-28_260595134347_rgbf000150-resize_1-target.png,1000,1.7115,0,2225,994,meters,jsons/v1_VE1000_randls_74.json,458797,652240,38,Woman
81,567424,DepthScenes,duration_manipulation_targetAtFixation,jsons/v1_VE1000_randls_74.json,http://54.235.29.9/FacialAge/BNav_EC2/DepthDuration/v2_depth_duration_MTurk/v2_DepthDuration_HTML.html#414,414,1366,625,1366,768,8-30-2022,6-55-16,82,depth_duration_stimuli/000927_2014-06-09_16-32-30_260595134347_rgbf000123-resize_3/000927_2014-06-09_16-32-30_260595134347_rgbf000123-resize_3-target.png,1000,2.6785,0,2208,995,meters,jsons/v1_VE1000_randls_74.json,458797,652240,38,Woman
82,567424,DepthScenes,duration_manipulation_targetAtFixation,jsons/v1_VE1000_randls_74.json,http://54.235.29.9/FacialAge/BNav_EC2/DepthDuration/v2_depth_duration_MTurk/v2_DepthDuration_HTML.html#414,414,1366,625,1366,768,8-30-2022,6-55-16,83,depth_duration_stimuli/000906_2014-06-08_13-35-43_260595134347_rgbf000155-resize_1/000906_2014-06-08_13-35-43_260595134347_rgbf000155-resize_1-target.png,1000,2.8489999999999998,0,2224,986,meters,jsons/v1_VE1000_randls_74.json,458797,652240,38,Woman
83,567424,DepthScenes,duration_manipulation_targetAtFixation,jsons/v1_VE1000_randls_74.json,http://54.235.29.9/FacialAge/BNav_EC2/DepthDuration/v2_depth_duration_MTurk/v2_DepthDuration_HTML.html#414,414,1366,625,1366,768,8-30-2022,6-55-16,84,depth_duration_stimuli/002805_2014-06-22_19-54-03_094959634447_rgbf000079-resize_1/002805_2014-06-22_19-54-03_094959634447_rgbf000079-resize_1-target.png,1000,3.1439999999999997,0,2153,1004,meters,jsons/v1_VE1000_randls_74.json,458797,652240,38,Woman
84,567424,DepthScenes,duration_manipulation_targetAtFixation,jsons/v1_VE1000_randls_74.json,http://54.235.29.9/FacialAge/BNav_EC2/DepthDuration/v2_depth_duration_MTurk/v2_DepthDuration_HTML.html#414,414,1366,625,1366,768,8-30-2022,6-55-16,85,depth_duration_stimuli/001059_2014-06-08_21-53-27_260595134347_rgbf000061-resize_4/001059_2014-06-08_21-53-27_260595134347_rgbf000061-resize_4-target.png,1000,2.4185,0,2201,994,meters,jsons/v1_VE1000_randls_74.json,458797,652240,38,Woman
85,567424,DepthScenes,duration_manipulation_targetAtFixation,jsons/v1_VE1000_randls_74.json,http://54.235.29.9/FacialAge/BNav_EC2/DepthDuration/v2_depth_duration_MTurk/v2_DepthDuration_HTML.html#414,414,1366,625,1366,768,8-30-2022,6-55-16,86,depth_duration_stimuli/001032_2014-06-08_13-23-17_260595134347_rgbf000021-resize_3/001032_2014-06-08_13-23-17_260595134347_rgbf000021-resize_3-target.png,1000,3.2725,0,2161,994,meters,jsons/v1_VE1000_randls_74.json,458797,652240,38,Woman
86,567424,DepthScenes,duration_manipulation_targetAtFixation,jsons/v1_VE1000_randls_74.json,http://54.235.29.9/FacialAge/BNav_EC2/DepthDuration/v2_depth_duration_MTurk/v2_DepthDuration_HTML.html#414,414,1366,625,1366,768,8-30-2022,6-55-16,87,depth_duration_stimuli/002784_2014-06-22_19-26-30_094959634447_rgbf000083-resize_3/002784_2014-06-22_19-26-30_094959634447_rgbf000083-resize_3-target.png,1000,1.8046666666667,0,2180,992,meters,jsons/v1_VE1000_randls_74.json,458797,652240,38,Woman
87,567424,DepthScenes,duration_manipulation_targetAtFixation,jsons/v1_VE1000_randls_74.json,http://54.235.29.9/FacialAge/BNav_EC2/DepthDuration/v2_depth_duration_MTurk/v2_DepthDuration_HTML.html#414,414,1366,625,1366,768,8-30-2022,6-55-16,88,depth_duration_stimuli/001100_2014-06-15_17-46-26_260595134347_rgbf000225-resize_2/001100_2014-06-15_17-46-26_260595134347_rgbf000225-resize_2-target.png,1000,2.24,0,2149,994,meters,jsons/v1_VE1000_randls_74.json,458797,652240,38,Woman
88,567424,DepthScenes,duration_manipulation_targetAtFixation,jsons/v1_VE1000_randls_74.json,http://54.235.29.9/FacialAge/BNav_EC2/DepthDuration/v2_depth_duration_MTurk/v2_DepthDuration_HTML.html#414,414,1366,625,1366,768,8-30-2022,6-55-16,89,depth_duration_stimuli/001555_2014-06-20_17-12-10_260595134347_rgbf000065-resize_4/001555_2014-06-20_17-12-10_260595134347_rgbf000065-resize_4-target.png,1000,1.633,0,2186,1000,meters,jsons/v1_VE1000_randls_74.json,458797,652240,38,Woman
89,567424,DepthScenes,duration_manipulation_targetAtFixation,jsons/v1_VE1000_randls_74.json,http://54.235.29.9/FacialAge/BNav_EC2/DepthDuration/v2_depth_duration_MTurk/v2_DepthDuration_HTML.html#414,414,1366,625,1366,768,8-30-2022,6-55-16,90,depth_duration_stimuli/000103_2014-05-14_22-01-17_260595134347_rgbf000152-resize_5/000103_2014-05-14_22-01-17_260595134347_rgbf000152-resize_5-target.png,1000,1.993,0,2185,986,meters,jsons/v1_VE1000_randls_74.json,458797,652240,38,Woman
90,567424,DepthScenes,duration_manipulation_targetAtFixation,jsons/v1_VE1000_randls_74.json,http://54.235.29.9/FacialAge/BNav_EC2/DepthDuration/v2_depth_duration_MTurk/v2_DepthDuration_HTML.html#414,414,1366,625,1366,768,8-30-2022,6-55-16,91,depth_duration_stimuli/000447_2014-06-08_16-15-46_260595134347_rgbf000130-resize_1/000447_2014-06-08_16-15-46_260595134347_rgbf000130-resize_1-target.png,1000,4.479,0,2182,994,meters,jsons/v1_VE1000_randls_74.json,458797,652240,38,Woman
91,567424,DepthScenes,duration_manipulation_targetAtFixation,jsons/v1_VE1000_randls_74.json,http://54.235.29.9/FacialAge/BNav_EC2/DepthDuration/v2_depth_duration_MTurk/v2_DepthDuration_HTML.html#414,414,1366,625,1366,768,8-30-2022,6-55-16,92,depth_duration_stimuli/001447_2014-06-19_17-00-32_260595134347_rgbf000082-resize_5/001447_2014-06-19_17-00-32_260595134347_rgbf000082-resize_5-target.png,1000,4.13775,0,2160,996,meters,jsons/v1_VE1000_randls_74.json,458797,652240,38,Woman
92,567424,DepthScenes,duration_manipulation_targetAtFixation,jsons/v1_VE1000_randls_74.json,http://54.235.29.9/FacialAge/BNav_EC2/DepthDuration/v2_depth_duration_MTurk/v2_DepthDuration_HTML.html#414,414,1366,625,1366,768,8-30-2022,6-55-16,93,depth_duration_stimuli/002445_2014-06-28_20-32-16_260595134347_rgbf000029-resize_4/002445_2014-06-28_20-32-16_260595134347_rgbf000029-resize_4-target.png,1000,2.5315,0,2441,998,meters,jsons/v1_VE1000_randls_74.json,458797,652240,38,Woman
93,567424,DepthScenes,duration_manipulation_targetAtFixation,jsons/v1_VE1000_randls_74.json,http://54.235.29.9/FacialAge/BNav_EC2/DepthDuration/v2_depth_duration_MTurk/v2_DepthDuration_HTML.html#414,414,1366,625,1366,768,8-30-2022,6-55-16,94,depth_duration_stimuli/000780_2014-06-08_22-28-29_260595134347_rgbf000126-resize_1/000780_2014-06-08_22-28-29_260595134347_rgbf000126-resize_1-target.png,1000,3.3825,0,2430,977,meters,jsons/v1_VE1000_randls_74.json,458797,652240,38,Woman
94,567424,DepthScenes,duration_manipulation_targetAtFixation,jsons/v1_VE1000_randls_74.json,http://54.235.29.9/FacialAge/BNav_EC2/DepthDuration/v2_depth_duration_MTurk/v2_DepthDuration_HTML.html#414,414,1366,625,1366,768,8-30-2022,6-55-16,95,depth_duration_stimuli/002570_2014-06-24_13-59-54_094959634447_rgbf000059-resize_0/002570_2014-06-24_13-59-54_094959634447_rgbf000059-resize_0-target.png,1000,4.037,0,2410,992,meters,jsons/v1_VE1000_randls_74.json,458797,652240,38,Woman
95,567424,DepthScenes,duration_manipulation_targetAtFixation,jsons/v1_VE1000_randls_74.json,http://54.235.29.9/FacialAge/BNav_EC2/DepthDuration/v2_depth_duration_MTurk/v2_DepthDuration_HTML.html#414,414,1366,625,1366,768,8-30-2022,6-55-16,96,depth_duration_stimuli/002467_2014-06-28_20-38-07_260595134347_rgbf000026-resize_2/002467_2014-06-28_20-38-07_260595134347_rgbf000026-resize_2-target.png,1000,4.742,0,2315,1000,meters,jsons/v1_VE1000_randls_74.json,458797,652240,38,Woman
96,567424,DepthScenes,duration_manipulation_targetAtFixation,jsons/v1_VE1000_randls_74.json,http://54.235.29.9/FacialAge/BNav_EC2/DepthDuration/v2_depth_duration_MTurk/v2_DepthDuration_HTML.html#414,414,1366,625,1366,768,8-30-2022,6-55-16,97,depth_duration_stimuli/003292_2014-05-14_21-53-49_094959634447_rgbf000100-resize_2/003292_2014-05-14_21-53-49_094959634447_rgbf000100-resize_2-target.png,1000,3.4815,0,2153,1002,meters,jsons/v1_VE1000_randls_74.json,458797,652240,38,Woman
97,567424,DepthScenes,duration_manipulation_targetAtFixation,jsons/v1_VE1000_randls_74.json,http://54.235.29.9/FacialAge/BNav_EC2/DepthDuration/v2_depth_duration_MTurk/v2_DepthDuration_HTML.html#414,414,1366,625,1366,768,8-30-2022,6-55-16,98,depth_duration_stimuli/002639_2014-06-24_14-51-37_094959634447_rgbf000074-resize_4/002639_2014-06-24_14-51-37_094959634447_rgbf000074-resize_4-target.png,1000,4.0375,0,2330,1000,meters,jsons/v1_VE1000_randls_74.json,458797,652240,38,Woman
98,567424,DepthScenes,duration_manipulation_targetAtFixation,jsons/v1_VE1000_randls_74.json,http://54.235.29.9/FacialAge/BNav_EC2/DepthDuration/v2_depth_duration_MTurk/v2_DepthDuration_HTML.html#414,414,1366,625,1366,768,8-30-2022,6-55-16,99,depth_duration_stimuli/001540_2014-06-20_17-01-05_260595134347_rgbf000086-resize_2/001540_2014-06-20_17-01-05_260595134347_rgbf000086-resize-original.jpg,1000,1.459,0,2264,1000,meters,jsons/v1_VE1000_randls_74.json,458797,652240,38,Woman
99,567424,DepthScenes,duration_manipulation_targetAtFixation,jsons/v1_VE1000_randls_74.json,http://54.235.29.9/FacialAge/BNav_EC2/DepthDuration/v2_depth_duration_MTurk/v2_DepthDuration_HTML.html#414,414,1366,625,1366,768,8-30-2022,6-55-16,100,depth_duration_stimuli/001449_2014-06-19_17-01-27_260595134347_rgbf000116-resize_2/001449_2014-06-19_17-01-27_260595134347_rgbf000116-resize_2-target.png,1000,3.452,0,2190,1002,meters,jsons/v1_VE1000_randls_74.json,458797,652240,38,Woman
100,567424,DepthScenes,duration_manipulation_targetAtFixation,jsons/v1_VE1000_randls_74.json,http://54.235.29.9/FacialAge/BNav_EC2/DepthDuration/v2_depth_duration_MTurk/v2_DepthDuration_HTML.html#414,414,1366,625,1366,768,8-30-2022,6-55-16,101,depth_duration_stimuli/001450_2014-06-19_17-02-03_260595134347_rgbf000203-resize_4/001450_2014-06-19_17-02-03_260595134347_rgbf000203-resize_4-target.png,1000,4.0106666666667,0,2253,1002,meters,jsons/v1_VE1000_randls_74.json,458797,652240,38,Woman
101,567424,DepthScenes,duration_manipulation_targetAtFixation,jsons/v1_VE1000_randls_74.json,http://54.235.29.9/FacialAge/BNav_EC2/DepthDuration/v2_depth_duration_MTurk/v2_DepthDuration_HTML.html#414,414,1366,625,1366,768,8-30-2022,6-55-16,102,depth_duration_stimuli/002988_2014-06-15_12-24-20_094959634447_rgbf000150-resize_1/002988_2014-06-15_12-24-20_094959634447_rgbf000150-resize_1-target.png,1000,4.7669999999999995,0,2144,1007,meters,jsons/v1_VE1000_randls_74.json,458797,652240,38,Woman
102,567424,DepthScenes,duration_manipulation_targetAtFixation,jsons/v1_VE1000_randls_74.json,http://54.235.29.9/FacialAge/BNav_EC2/DepthDuration/v2_depth_duration_MTurk/v2_DepthDuration_HTML.html#414,414,1366,625,1366,768,8-30-2022,6-55-16,103,depth_duration_stimuli/001052_2014-06-08_18-24-54_260595134347_rgbf000130-resize_1/001052_2014-06-08_18-24-54_260595134347_rgbf000130-resize_1-target.png,1000,4.1045,0,2216,992,meters,jsons/v1_VE1000_randls_74.json,458797,652240,38,Woman
103,567424,DepthScenes,duration_manipulation_targetAtFixation,jsons/v1_VE1000_randls_74.json,http://54.235.29.9/FacialAge/BNav_EC2/DepthDuration/v2_depth_duration_MTurk/v2_DepthDuration_HTML.html#414,414,1366,625,1366,768,8-30-2022,6-55-16,104,depth_duration_stimuli/002964_2014-06-08_17-46-11_094959634447_rgbf000091-resize_4/002964_2014-06-08_17-46-11_094959634447_rgbf000091-resize_4-target.png,1000,1.6909999999999998,0,2265,1001,meters,jsons/v1_VE1000_randls_74.json,458797,652240,38,Woman
104,567424,DepthScenes,duration_manipulation_targetAtFixation,jsons/v1_VE1000_randls_74.json,http://54.235.29.9/FacialAge/BNav_EC2/DepthDuration/v2_depth_duration_MTurk/v2_DepthDuration_HTML.html#414,414,1366,625,1366,768,8-30-2022,6-55-16,105,depth_duration_stimuli/002136_2014-06-25_21-18-03_260595134347_rgbf000109-resize_3/002136_2014-06-25_21-18-03_260595134347_rgbf000109-resize_3-target.png,1000,1.9569999999999999,0,2187,994,meters,jsons/v1_VE1000_randls_74.json,458797,652240,38,Woman
105,567424,DepthScenes,duration_manipulation_targetAtFixation,jsons/v1_VE1000_randls_74.json,http://54.235.29.9/FacialAge/BNav_EC2/DepthDuration/v2_depth_duration_MTurk/v2_DepthDuration_HTML.html#414,414,1366,625,1366,768,8-30-2022,6-55-16,106,depth_duration_stimuli/000788_2014-06-08_22-34-36_260595134347_rgbf000131-resize_1/000788_2014-06-08_22-34-36_260595134347_rgbf000131-resize_1-target.png,1000,3.359,0,2154,994,meters,jsons/v1_VE1000_randls_74.json,458797,652240,38,Woman
106,567424,DepthScenes,duration_manipulation_targetAtFixation,jsons/v1_VE1000_randls_74.json,http://54.235.29.9/FacialAge/BNav_EC2/DepthDuration/v2_depth_duration_MTurk/v2_DepthDuration_HTML.html#414,414,1366,625,1366,768,8-30-2022,6-55-16,107,depth_duration_stimuli/001235_2014-06-17_16-37-36_260595134347_rgbf000084-resize_4/001235_2014-06-17_16-37-36_260595134347_rgbf000084-resize_4-target.png,1000,3.6605,0,2565,1002,meters,jsons/v1_VE1000_randls_74.json,458797,652240,38,Woman
107,567424,DepthScenes,duration_manipulation_targetAtFixation,jsons/v1_VE1000_randls_74.json,http://54.235.29.9/FacialAge/BNav_EC2/DepthDuration/v2_depth_duration_MTurk/v2_DepthDuration_HTML.html#414,414,1366,625,1366,768,8-30-2022,6-55-16,108,depth_duration_stimuli/001056_2014-06-08_18-46-44_260595134347_rgbf000068-resize_0/001056_2014-06-08_18-46-44_260595134347_rgbf000068-resize_0-target.png,1000,2.6625,0,2289,992,meters,jsons/v1_VE1000_randls_74.json,458797,652240,38,Woman
108,567424,DepthScenes,duration_manipulation_targetAtFixation,jsons/v1_VE1000_randls_74.json,http://54.235.29.9/FacialAge/BNav_EC2/DepthDuration/v2_depth_duration_MTurk/v2_DepthDuration_HTML.html#414,414,1366,625,1366,768,8-30-2022,6-55-16,109,depth_duration_stimuli/002199_2014-06-28_18-33-56_260595134347_rgbf000074-resize_0/002199_2014-06-28_18-33-56_260595134347_rgbf000074-resize_0-target.png,1000,1.996,0,2231,999,meters,jsons/v1_VE1000_randls_74.json,458797,652240,38,Woman
109,567424,DepthScenes,duration_manipulation_targetAtFixation,jsons/v1_VE1000_randls_74.json,http://54.235.29.9/FacialAge/BNav_EC2/DepthDuration/v2_depth_duration_MTurk/v2_DepthDuration_HTML.html#414,414,1366,625,1366,768,8-30-2022,6-55-16,110,depth_duration_stimuli/000692_2014-06-08_13-09-42_260595134347_rgbf000199-resize_2/000692_2014-06-08_13-09-42_260595134347_rgbf000199-resize_2-target.png,1000,3.661,0,2290,995,meters,jsons/v1_VE1000_randls_74.json,458797,652240,38,Woman
110,567424,DepthScenes,duration_manipulation_targetAtFixation,jsons/v1_VE1000_randls_74.json,http://54.235.29.9/FacialAge/BNav_EC2/DepthDuration/v2_depth_duration_MTurk/v2_DepthDuration_HTML.html#414,414,1366,625,1366,768,8-30-2022,6-55-16,111,depth_duration_stimuli/001094_2014-06-15_17-36-00_260595134347_rgbf000205-resize_0/001094_2014-06-15_17-36-00_260595134347_rgbf000205-resize_0-target.png,1000,4.2175,0,2228,1005,meters,jsons/v1_VE1000_randls_74.json,458797,652240,38,Woman
111,567424,DepthScenes,duration_manipulation_targetAtFixation,jsons/v1_VE1000_randls_74.json,http://54.235.29.9/FacialAge/BNav_EC2/DepthDuration/v2_depth_duration_MTurk/v2_DepthDuration_HTML.html#414,414,1366,625,1366,768,8-30-2022,6-55-16,112,depth_duration_stimuli/000469_2014-06-09_19-42-10_260595134347_rgbf000081-resize_1/000469_2014-06-09_19-42-10_260595134347_rgbf000081-resize_1-target.png,1000,1.652,0,3788,995,meters,jsons/v1_VE1000_randls_74.json,458797,652240,38,Woman
112,567424,DepthScenes,duration_manipulation_targetAtFixation,jsons/v1_VE1000_randls_74.json,http://54.235.29.9/FacialAge/BNav_EC2/DepthDuration/v2_depth_duration_MTurk/v2_DepthDuration_HTML.html#414,414,1366,625,1366,768,8-30-2022,6-55-16,113,depth_duration_stimuli/000483_2014-06-09_20-41-45_260595134347_rgbf000116-resize_4/000483_2014-06-09_20-41-45_260595134347_rgbf000116-resize_4-target.png,1000,1.337,0,2383,1008,meters,jsons/v1_VE1000_randls_74.json,458797,652240,38,Woman
113,567424,DepthScenes,duration_manipulation_targetAtFixation,jsons/v1_VE1000_randls_74.json,http://54.235.29.9/FacialAge/BNav_EC2/DepthDuration/v2_depth_duration_MTurk/v2_DepthDuration_HTML.html#414,414,1366,625,1366,768,8-30-2022,6-55-16,114,depth_duration_stimuli/000470_2014-06-09_19-42-40_260595134347_rgbf000094-resize_1/000470_2014-06-09_19-42-40_260595134347_rgbf000094-resize_1-target.png,1000,1.831,0,2235,1002,meters,jsons/v1_VE1000_randls_74.json,458797,652240,38,Woman
114,567424,DepthScenes,duration_manipulation_targetAtFixation,jsons/v1_VE1000_randls_74.json,http://54.235.29.9/FacialAge/BNav_EC2/DepthDuration/v2_depth_duration_MTurk/v2_DepthDuration_HTML.html#414,414,1366,625,1366,768,8-30-2022,6-55-16,115,depth_duration_stimuli/000109_2014-05-14_23-41-52_260595134347_rgbf000035-resize_9/000109_2014-05-14_23-41-52_260595134347_rgbf000035-resize_9-target.png,1000,1.3545,0,2192,992,meters,jsons/v1_VE1000_randls_74.json,458797,652240,38,Woman
115,567424,DepthScenes,duration_manipulation_targetAtFixation,jsons/v1_VE1000_randls_74.json,http://54.235.29.9/FacialAge/BNav_EC2/DepthDuration/v2_depth_duration_MTurk/v2_DepthDuration_HTML.html#414,414,1366,625,1366,768,8-30-2022,6-55-16,116,depth_duration_stimuli/001170_2014-06-17_15-43-44_260595134347_rgbf000096-resize_6/001170_2014-06-17_15-43-44_260595134347_rgbf000096-resize-original.jpg,1000,1.1909999999999998,0,2111,998,meters,jsons/v1_VE1000_randls_74.json,458797,652240,38,Woman
116,567424,DepthScenes,duration_manipulation_targetAtFixation,jsons/v1_VE1000_randls_74.json,http://54.235.29.9/FacialAge/BNav_EC2/DepthDuration/v2_depth_duration_MTurk/v2_DepthDuration_HTML.html#414,414,1366,625,1366,768,8-30-2022,6-55-16,117,depth_duration_stimuli/000009_2014-05-26_14-32-05_260595134347_rgbf000034-resize_3/000009_2014-05-26_14-32-05_260595134347_rgbf000034-resize_3-target.png,1000,3.8715,0,2140,992,meters,jsons/v1_VE1000_randls_74.json,458797,652240,38,Woman
117,567424,DepthScenes,duration_manipulation_targetAtFixation,jsons/v1_VE1000_randls_74.json,http://54.235.29.9/FacialAge/BNav_EC2/DepthDuration/v2_depth_duration_MTurk/v2_DepthDuration_HTML.html#414,414,1366,625,1366,768,8-30-2022,6-55-16,118,depth_duration_stimuli/001828_2014-06-26_21-40-03_260595134347_rgbf000024-resize_0/001828_2014-06-26_21-40-03_260595134347_rgbf000024-resize_0-target.png,1000,4.8260000000000005,0,2069,992,meters,jsons/v1_VE1000_randls_74.json,458797,652240,38,Woman
118,567424,DepthScenes,duration_manipulation_targetAtFixation,jsons/v1_VE1000_randls_74.json,http://54.235.29.9/FacialAge/BNav_EC2/DepthDuration/v2_depth_duration_MTurk/v2_DepthDuration_HTML.html#414,414,1366,625,1366,768,8-30-2022,6-55-16,119,depth_duration_stimuli/000642_2014-06-08_16-59-25_260595134347_rgbf000098-resize_2/000642_2014-06-08_16-59-25_260595134347_rgbf000098-resize_2-target.png,1000,2.8815,0,2095,992,meters,jsons/v1_VE1000_randls_74.json,458797,652240,38,Woman
119,567424,DepthScenes,duration_manipulation_targetAtFixation,jsons/v1_VE1000_randls_74.json,http://54.235.29.9/FacialAge/BNav_EC2/DepthDuration/v2_depth_duration_MTurk/v2_DepthDuration_HTML.html#414,414,1366,625,1366,768,8-30-2022,6-55-16,120,depth_duration_stimuli/002425_2014-06-28_20-27-29_260595134347_rgbf000031-resize_8/002425_2014-06-28_20-27-29_260595134347_rgbf000031-resize_8-target.png,1000,3.8960000000000004,0,2024,986,meters,jsons/v1_VE1000_randls_74.json,458797,652240,38,Woman
120,567424,DepthScenes,duration_manipulation_targetAtFixation,jsons/v1_VE1000_randls_74.json,http://54.235.29.9/FacialAge/BNav_EC2/DepthDuration/v2_depth_duration_MTurk/v2_DepthDuration_HTML.html#414,414,1366,625,1366,768,8-30-2022,6-55-16,121,depth_duration_stimuli/002763_2014-06-22_19-13-10_094959634447_rgbf000075-resize_4/002763_2014-06-22_19-13-10_094959634447_rgbf000075-resize_4-target.png,1000,1.68375,0,2052,1000,meters,jsons/v1_VE1000_randls_74.json,458797,652240,38,Woman
121,567424,DepthScenes,duration_manipulation_targetAtFixation,jsons/v1_VE1000_randls_74.json,http://54.235.29.9/FacialAge/BNav_EC2/DepthDuration/v2_depth_duration_MTurk/v2_DepthDuration_HTML.html#414,414,1366,625,1366,768,8-30-2022,6-55-16,122,depth_duration_stimuli/002209_2014-06-28_18-36-10_260595134347_rgbf000051-resize_1/002209_2014-06-28_18-36-10_260595134347_rgbf000051-resize_1-target.png,1000,2.057,0,2057,994,meters,jsons/v1_VE1000_randls_74.json,458797,652240,38,Woman
122,567424,DepthScenes,duration_manipulation_targetAtFixation,jsons/v1_VE1000_randls_74.json,http://54.235.29.9/FacialAge/BNav_EC2/DepthDuration/v2_depth_duration_MTurk/v2_DepthDuration_HTML.html#414,414,1366,625,1366,768,8-30-2022,6-55-16,123,depth_duration_stimuli/002905_2014-06-03_18-04-43_094959634447_rgbf000151-resize_2/002905_2014-06-03_18-04-43_094959634447_rgbf000151-resize_2-target.png,1000,2.0295,0,2384,993,meters,jsons/v1_VE1000_randls_74.json,458797,652240,38,Woman
123,567424,DepthScenes,duration_manipulation_targetAtFixation,jsons/v1_VE1000_randls_74.json,http://54.235.29.9/FacialAge/BNav_EC2/DepthDuration/v2_depth_duration_MTurk/v2_DepthDuration_HTML.html#414,414,1366,625,1366,768,8-30-2022,6-55-16,124,depth_duration_stimuli/003423_2014-05-21_10-23-26_094959634447_rgbf002665-resize_2/003423_2014-05-21_10-23-26_094959634447_rgbf002665-resize_2-target.png,1000,3.2575,0,2022,994,meters,jsons/v1_VE1000_randls_74.json,458797,652240,38,Woman
124,567424,DepthScenes,duration_manipulation_targetAtFixation,jsons/v1_VE1000_randls_74.json,http://54.235.29.9/FacialAge/BNav_EC2/DepthDuration/v2_depth_duration_MTurk/v2_DepthDuration_HTML.html#414,414,1366,625,1366,768,8-30-2022,6-55-16,125,depth_duration_stimuli/002118_2014-06-25_20-32-08_260595134347_rgbf000078-resize_1/002118_2014-06-25_20-32-08_260595134347_rgbf000078-resize_1-target.png,1000,2.6460000000000004,0,2055,992,meters,jsons/v1_VE1000_randls_74.json,458797,652240,38,Woman
125,567424,DepthScenes,duration_manipulation_targetAtFixation,jsons/v1_VE1000_randls_74.json,http://54.235.29.9/FacialAge/BNav_EC2/DepthDuration/v2_depth_duration_MTurk/v2_DepthDuration_HTML.html#414,414,1366,625,1366,768,8-30-2022,6-55-16,126,depth_duration_stimuli/001516_2014-06-20_16-25-09_260595134347_rgbf000076-resize_2/001516_2014-06-20_16-25-09_260595134347_rgbf000076-resize_2-target.png,1000,1.7445,0,2038,1001,meters,jsons/v1_VE1000_randls_74.json,458797,652240,38,Woman
126,567424,DepthScenes,duration_manipulation_targetAtFixation,jsons/v1_VE1000_randls_74.json,http://54.235.29.9/FacialAge/BNav_EC2/DepthDuration/v2_depth_duration_MTurk/v2_DepthDuration_HTML.html#414,414,1366,625,1366,768,8-30-2022,6-55-16,127,depth_duration_stimuli/000436_2014-06-09_22-25-11_260595134347_rgbf000137-resize_1/000436_2014-06-09_22-25-11_260595134347_rgbf000137-resize_1-target.png,1000,4.0705,0,2135,995,meters,jsons/v1_VE1000_randls_74.json,458797,652240,38,Woman
127,567424,DepthScenes,duration_manipulation_targetAtFixation,jsons/v1_VE1000_randls_74.json,http://54.235.29.9/FacialAge/BNav_EC2/DepthDuration/v2_depth_duration_MTurk/v2_DepthDuration_HTML.html#414,414,1366,625,1366,768,8-30-2022,6-55-16,128,depth_duration_stimuli/002444_2014-06-28_20-32-08_260595134347_rgbf000027-resize_0/002444_2014-06-28_20-32-08_260595134347_rgbf000027-resize_0-target.png,1000,4.388999999999999,0,2006,992,meters,jsons/v1_VE1000_randls_74.json,458797,652240,38,Woman
128,567424,DepthScenes,duration_manipulation_targetAtFixation,jsons/v1_VE1000_randls_74.json,http://54.235.29.9/FacialAge/BNav_EC2/DepthDuration/v2_depth_duration_MTurk/v2_DepthDuration_HTML.html#414,414,1366,625,1366,768,8-30-2022,6-55-16,129,depth_duration_stimuli/000810_2014-06-08_17-20-01_260595134347_rgbf000105-resize_0/000810_2014-06-08_17-20-01_260595134347_rgbf000105-resize_0-target.png,1000,1.4865,0,2153,1001,meters,jsons/v1_VE1000_randls_74.json,458797,652240,38,Woman
129,567424,DepthScenes,duration_manipulation_targetAtFixation,jsons/v1_VE1000_randls_74.json,http://54.235.29.9/FacialAge/BNav_EC2/DepthDuration/v2_depth_duration_MTurk/v2_DepthDuration_HTML.html#414,414,1366,625,1366,768,8-30-2022,6-55-16,130,depth_duration_stimuli/001214_2014-06-17_16-13-55_260595134347_rgbf000111-resize_0/001214_2014-06-17_16-13-55_260595134347_rgbf000111-resize_0-target.png,1000,2.6505,0,2111,1001,meters,jsons/v1_VE1000_randls_74.json,458797,652240,38,Woman
130,567424,DepthScenes,duration_manipulation_targetAtFixation,jsons/v1_VE1000_randls_74.json,http://54.235.29.9/FacialAge/BNav_EC2/DepthDuration/v2_depth_duration_MTurk/v2_DepthDuration_HTML.html#414,414,1366,625,1366,768,8-30-2022,6-55-16,131,depth_duration_stimuli/000773_2014-06-08_22-24-54_260595134347_rgbf000093-resize_1/000773_2014-06-08_22-24-54_260595134347_rgbf000093-resize_1-target.png,1000,4.973,0,2181,1003,meters,jsons/v1_VE1000_randls_74.json,458797,652240,38,Woman
131,567424,DepthScenes,duration_manipulation_targetAtFixation,jsons/v1_VE1000_randls_74.json,http://54.235.29.9/FacialAge/BNav_EC2/DepthDuration/v2_depth_duration_MTurk/v2_DepthDuration_HTML.html#414,414,1366,625,1366,768,8-30-2022,6-55-16,132,depth_duration_stimuli/002414_2014-06-28_20-24-58_260595134347_rgbf000067-resize_4/002414_2014-06-28_20-24-58_260595134347_rgbf000067-resize_4-target.png,1000,4.363,0,2096,992,meters,jsons/v1_VE1000_randls_74.json,458797,652240,38,Woman
132,567424,DepthScenes,duration_manipulation_targetAtFixation,jsons/v1_VE1000_randls_74.json,http://54.235.29.9/FacialAge/BNav_EC2/DepthDuration/v2_depth_duration_MTurk/v2_DepthDuration_HTML.html#414,414,1366,625,1366,768,8-30-2022,6-55-16,133,depth_duration_stimuli/000368_2014-06-09_15-53-01_260595134347_rgbf000155-resize_2/000368_2014-06-09_15-53-01_260595134347_rgbf000155-resize_2-target.png,1000,2.4859999999999998,0,2143,995,meters,jsons/v1_VE1000_randls_74.json,458797,652240,38,Woman
133,567424,DepthScenes,duration_manipulation_targetAtFixation,jsons/v1_VE1000_randls_74.json,http://54.235.29.9/FacialAge/BNav_EC2/DepthDuration/v2_depth_duration_MTurk/v2_DepthDuration_HTML.html#414,414,1366,625,1366,768,8-30-2022,6-55-16,134,depth_duration_stimuli/002678_2014-06-13_16-15-32_094959634447_rgbf000151-resize_6/002678_2014-06-13_16-15-32_094959634447_rgbf000151-resize_6-target.png,1000,2.1830000000000003,0,2074,992,meters,jsons/v1_VE1000_randls_74.json,458797,652240,38,Woman
134,567424,DepthScenes,duration_manipulation_targetAtFixation,jsons/v1_VE1000_randls_74.json,http://54.235.29.9/FacialAge/BNav_EC2/DepthDuration/v2_depth_duration_MTurk/v2_DepthDuration_HTML.html#414,414,1366,625,1366,768,8-30-2022,6-55-16,135,depth_duration_stimuli/002072_2014-06-24_21-48-06_260595134347_rgbf000115-resize_0/002072_2014-06-24_21-48-06_260595134347_rgbf000115-resize-original.jpg,1000,4.702,0,2253,996,meters,jsons/v1_VE1000_randls_74.json,458797,652240,38,Woman
135,567424,DepthScenes,duration_manipulation_targetAtFixation,jsons/v1_VE1000_randls_74.json,http://54.235.29.9/FacialAge/BNav_EC2/DepthDuration/v2_depth_duration_MTurk/v2_DepthDuration_HTML.html#414,414,1366,625,1366,768,8-30-2022,6-55-16,136,depth_duration_stimuli/001808_2014-06-26_20-50-58_260595134347_rgbf000029-resize_1/001808_2014-06-26_20-50-58_260595134347_rgbf000029-resize_1-target.png,1000,4.249,0,2260,989,meters,jsons/v1_VE1000_randls_74.json,458797,652240,38,Woman
136,567424,DepthScenes,duration_manipulation_targetAtFixation,jsons/v1_VE1000_randls_74.json,http://54.235.29.9/FacialAge/BNav_EC2/DepthDuration/v2_depth_duration_MTurk/v2_DepthDuration_HTML.html#414,414,1366,625,1366,768,8-30-2022,6-55-16,137,depth_duration_stimuli/001815_2014-06-26_20-52-55_260595134347_rgbf000020-resize_0/001815_2014-06-26_20-52-55_260595134347_rgbf000020-resize_0-target.png,1000,3.3865,0,2337,995,meters,jsons/v1_VE1000_randls_74.json,458797,652240,38,Woman
137,567424,DepthScenes,duration_manipulation_targetAtFixation,jsons/v1_VE1000_randls_74.json,http://54.235.29.9/FacialAge/BNav_EC2/DepthDuration/v2_depth_duration_MTurk/v2_DepthDuration_HTML.html#414,414,1366,625,1366,768,8-30-2022,6-55-16,138,depth_duration_stimuli/001158_2014-06-17_15-32-16_260595134347_rgbf000138-resize_2/001158_2014-06-17_15-32-16_260595134347_rgbf000138-resize_2-target.png,1000,4.5315,0,2204,1002,meters,jsons/v1_VE1000_randls_74.json,458797,652240,38,Woman
138,567424,DepthScenes,duration_manipulation_targetAtFixation,jsons/v1_VE1000_randls_74.json,http://54.235.29.9/FacialAge/BNav_EC2/DepthDuration/v2_depth_duration_MTurk/v2_DepthDuration_HTML.html#414,414,1366,625,1366,768,8-30-2022,6-55-16,139,depth_duration_stimuli/000556_2014-06-09_22-42-56_260595134347_rgbf000214-resize_1/000556_2014-06-09_22-42-56_260595134347_rgbf000214-resize_1-target.png,1000,4.8415,0,2153,1004,meters,jsons/v1_VE1000_randls_74.json,458797,652240,38,Woman
139,567424,DepthScenes,duration_manipulation_targetAtFixation,jsons/v1_VE1000_randls_74.json,http://54.235.29.9/FacialAge/BNav_EC2/DepthDuration/v2_depth_duration_MTurk/v2_DepthDuration_HTML.html#414,414,1366,625,1366,768,8-30-2022,6-55-16,140,depth_duration_stimuli/000522_2014-06-08_13-35-06_260595134347_rgbf000244-resize_1/000522_2014-06-08_13-35-06_260595134347_rgbf000244-resize_1-target.png,1000,2.3715,0,2159,994,meters,jsons/v1_VE1000_randls_74.json,458797,652240,38,Woman
140,567424,DepthScenes,duration_manipulation_targetAtFixation,jsons/v1_VE1000_randls_74.json,http://54.235.29.9/FacialAge/BNav_EC2/DepthDuration/v2_depth_duration_MTurk/v2_DepthDuration_HTML.html#414,414,1366,625,1366,768,8-30-2022,6-55-16,141,depth_duration_stimuli/002949_2014-06-26_15-57-42_094959634447_rgbf000079-resize_1/002949_2014-06-26_15-57-42_094959634447_rgbf000079-resize_1-target.png,1000,1.8915,0,2186,992,meters,jsons/v1_VE1000_randls_74.json,458797,652240,38,Woman
141,567424,DepthScenes,duration_manipulation_targetAtFixation,jsons/v1_VE1000_randls_74.json,http://54.235.29.9/FacialAge/BNav_EC2/DepthDuration/v2_depth_duration_MTurk/v2_DepthDuration_HTML.html#414,414,1366,625,1366,768,8-30-2022,6-55-16,142,depth_duration_stimuli/000917_2014-06-09_22-45-29_260595134347_rgbf000149-resize_3/000917_2014-06-09_22-45-29_260595134347_rgbf000149-resize_3-target.png,1000,4.1865,0,2147,992,meters,jsons/v1_VE1000_randls_74.json,458797,652240,38,Woman
142,567424,DepthScenes,duration_manipulation_targetAtFixation,jsons/v1_VE1000_randls_74.json,http://54.235.29.9/FacialAge/BNav_EC2/DepthDuration/v2_depth_duration_MTurk/v2_DepthDuration_HTML.html#414,414,1366,625,1366,768,8-30-2022,6-55-16,143,depth_duration_stimuli/002323_2014-06-28_20-01-54_260595134347_rgbf000051-resize_4/002323_2014-06-28_20-01-54_260595134347_rgbf000051-resize_4-target.png,1000,3.7310000000000003,0,2115,994,meters,jsons/v1_VE1000_randls_74.json,458797,652240,38,Woman
143,567424,DepthScenes,duration_manipulation_targetAtFixation,jsons/v1_VE1000_randls_74.json,http://54.235.29.9/FacialAge/BNav_EC2/DepthDuration/v2_depth_duration_MTurk/v2_DepthDuration_HTML.html#414,414,1366,625,1366,768,8-30-2022,6-55-16,144,depth_duration_stimuli/002725_2014-06-22_11-47-51_094959634447_rgbf000070-resize_1/002725_2014-06-22_11-47-51_094959634447_rgbf000070-resize_1-target.png,1000,2.195,0,2165,1005,meters,jsons/v1_VE1000_randls_74.json,458797,652240,38,Woman
144,567424,DepthScenes,duration_manipulation_targetAtFixation,jsons/v1_VE1000_randls_74.json,http://54.235.29.9/FacialAge/BNav_EC2/DepthDuration/v2_depth_duration_MTurk/v2_DepthDuration_HTML.html#414,414,1366,625,1366,768,8-30-2022,6-55-16,145,depth_duration_stimuli/002344_2014-06-28_20-06-29_260595134347_rgbf000030-resize_1/002344_2014-06-28_20-06-29_260595134347_rgbf000030-resize_1-target.png,1000,1.5795,0,2182,994,meters,jsons/v1_VE1000_randls_74.json,458797,652240,38,Woman
145,567424,DepthScenes,duration_manipulation_targetAtFixation,jsons/v1_VE1000_randls_74.json,http://54.235.29.9/FacialAge/BNav_EC2/DepthDuration/v2_depth_duration_MTurk/v2_DepthDuration_HTML.html#414,414,1366,625,1366,768,8-30-2022,6-55-16,146,depth_duration_stimuli/001498_2014-06-19_17-45-14_260595134347_rgbf000129-resize_4/001498_2014-06-19_17-45-14_260595134347_rgbf000129-resize-original.jpg,1000,1.4075,0,2146,1003,meters,jsons/v1_VE1000_randls_74.json,458797,652240,38,Woman
146,567424,DepthScenes,duration_manipulation_targetAtFixation,jsons/v1_VE1000_randls_74.json,http://54.235.29.9/FacialAge/BNav_EC2/DepthDuration/v2_depth_duration_MTurk/v2_DepthDuration_HTML.html#414,414,1366,625,1366,768,8-30-2022,6-55-16,147,depth_duration_stimuli/001164_2014-06-17_15-35-46_260595134347_rgbf000085-resize_3/001164_2014-06-17_15-35-46_260595134347_rgbf000085-resize_3-target.png,1000,2.354,0,2104,1000,meters,jsons/v1_VE1000_randls_74.json,458797,652240,38,Woman
147,567424,DepthScenes,duration_manipulation_targetAtFixation,jsons/v1_VE1000_randls_74.json,http://54.235.29.9/FacialAge/BNav_EC2/DepthDuration/v2_depth_duration_MTurk/v2_DepthDuration_HTML.html#414,414,1366,625,1366,768,8-30-2022,6-55-16,148,depth_duration_stimuli/001136_2014-06-17_15-19-41_260595134347_rgbf000076-resize_3/001136_2014-06-17_15-19-41_260595134347_rgbf000076-resize_3-target.png,1000,1.8655,0,2178,996,meters,jsons/v1_VE1000_randls_74.json,458797,652240,38,Woman
148,567424,DepthScenes,duration_manipulation_targetAtFixation,jsons/v1_VE1000_randls_74.json,http://54.235.29.9/FacialAge/BNav_EC2/DepthDuration/v2_depth_duration_MTurk/v2_DepthDuration_HTML.html#414,414,1366,625,1366,768,8-30-2022,6-55-16,149,depth_duration_stimuli/001244_2014-06-17_16-47-45_260595134347_rgbf000030-resize_4/001244_2014-06-17_16-47-45_260595134347_rgbf000030-resize_4-target.png,1000,2.0425,0,2233,1004,meters,jsons/v1_VE1000_randls_74.json,458797,652240,38,Woman
149,567424,DepthScenes,duration_manipulation_targetAtFixation,jsons/v1_VE1000_randls_74.json,http://54.235.29.9/FacialAge/BNav_EC2/DepthDuration/v2_depth_duration_MTurk/v2_DepthDuration_HTML.html#414,414,1366,625,1366,768,8-30-2022,6-55-16,150,depth_duration_stimuli/003495_2014-05-21_16-01-51_094959634447_rgbf000100-resize_3/003495_2014-05-21_16-01-51_094959634447_rgbf000100-resize_3-target.png,1000,1.6255,0,2118,997,meters,jsons/v1_VE1000_randls_74.json,458797,652240,38,Woman
150,567424,DepthScenes,duration_manipulation_targetAtFixation,jsons/v1_VE1000_randls_74.json,http://54.235.29.9/FacialAge/BNav_EC2/DepthDuration/v2_depth_duration_MTurk/v2_DepthDuration_HTML.html#414,414,1366,625,1366,768,8-30-2022,6-55-16,151,depth_duration_stimuli/002279_2014-06-28_18-55-32_260595134347_rgbf000040-resize_5/002279_2014-06-28_18-55-32_260595134347_rgbf000040-resize_5-target.png,1000,1.5043333333333,0,2121,1003,meters,jsons/v1_VE1000_randls_74.json,458797,652240,38,Woman
151,567424,DepthScenes,duration_manipulation_targetAtFixation,jsons/v1_VE1000_randls_74.json,http://54.235.29.9/FacialAge/BNav_EC2/DepthDuration/v2_depth_duration_MTurk/v2_DepthDuration_HTML.html#414,414,1366,625,1366,768,8-30-2022,6-55-16,152,depth_duration_stimuli/000635_2014-06-08_16-38-42_260595134347_rgbf000106-resize_1/000635_2014-06-08_16-38-42_260595134347_rgbf000106-resize_1-target.png,1000,2.074,0,2133,997,meters,jsons/v1_VE1000_randls_74.json,458797,652240,38,Woman
152,567424,DepthScenes,duration_manipulation_targetAtFixation,jsons/v1_VE1000_randls_74.json,http://54.235.29.9/FacialAge/BNav_EC2/DepthDuration/v2_depth_duration_MTurk/v2_DepthDuration_HTML.html#414,414,1366,625,1366,768,8-30-2022,6-55-16,153,depth_duration_stimuli/001092_2014-06-15_17-34-58_260595134347_rgbf000171-resize_3/001092_2014-06-15_17-34-58_260595134347_rgbf000171-resize_3-target.png,1000,2.6935,0,2138,992,meters,jsons/v1_VE1000_randls_74.json,458797,652240,38,Woman
153,567424,DepthScenes,duration_manipulation_targetAtFixation,jsons/v1_VE1000_randls_74.json,http://54.235.29.9/FacialAge/BNav_EC2/DepthDuration/v2_depth_duration_MTurk/v2_DepthDuration_HTML.html#414,414,1366,625,1366,768,8-30-2022,6-55-16,154,depth_duration_stimuli/002545_2014-06-24_13-38-53_094959634447_rgbf000080-resize_4/002545_2014-06-24_13-38-53_094959634447_rgbf000080-resize_4-target.png,1000,1.9205,0,2174,993,meters,jsons/v1_VE1000_randls_74.json,458797,652240,38,Woman
154,567424,DepthScenes,duration_manipulation_targetAtFixation,jsons/v1_VE1000_randls_74.json,http://54.235.29.9/FacialAge/BNav_EC2/DepthDuration/v2_depth_duration_MTurk/v2_DepthDuration_HTML.html#414,414,1366,625,1366,768,8-30-2022,6-55-16,155,depth_duration_stimuli/001133_2014-06-17_14-49-16_260595134347_rgbf000100-resize_0/001133_2014-06-17_14-49-16_260595134347_rgbf000100-resize_0-target.png,1000,4.2115,0,2101,976,meters,jsons/v1_VE1000_randls_74.json,458797,652240,38,Woman
155,567424,DepthScenes,duration_manipulation_targetAtFixation,jsons/v1_VE1000_randls_74.json,http://54.235.29.9/FacialAge/BNav_EC2/DepthDuration/v2_depth_duration_MTurk/v2_DepthDuration_HTML.html#414,414,1366,625,1366,768,8-30-2022,6-55-16,156,depth_duration_stimuli/001132_2014-06-17_14-48-54_260595134347_rgbf000100-resize_2/001132_2014-06-17_14-48-54_260595134347_rgbf000100-resize_2-target.png,1000,3.753,0,2151,1000,meters,jsons/v1_VE1000_randls_74.json,458797,652240,38,Woman
156,567424,DepthScenes,duration_manipulation_targetAtFixation,jsons/v1_VE1000_randls_74.json,http://54.235.29.9/FacialAge/BNav_EC2/DepthDuration/v2_depth_duration_MTurk/v2_DepthDuration_HTML.html#414,414,1366,625,1366,768,8-30-2022,6-55-16,157,depth_duration_stimuli/000414_2014-06-04_19-49-13_260595134347_rgbf000044-resize_0/000414_2014-06-04_19-49-13_260595134347_rgbf000044-resize_0-target.png,1000,4.329,0,2166,1001,meters,jsons/v1_VE1000_randls_74.json,458797,652240,38,Woman
157,567424,DepthScenes,duration_manipulation_targetAtFixation,jsons/v1_VE1000_randls_74.json,http://54.235.29.9/FacialAge/BNav_EC2/DepthDuration/v2_depth_duration_MTurk/v2_DepthDuration_HTML.html#414,414,1366,625,1366,768,8-30-2022,6-55-16,158,depth_duration_stimuli/003129_2014-05-12_10-48-10_094959634447_rgbf000100-resize_0/003129_2014-05-12_10-48-10_094959634447_rgbf000100-resize_0-target.png,1000,4.9305,0,2134,994,meters,jsons/v1_VE1000_randls_74.json,458797,652240,38,Woman
158,567424,DepthScenes,duration_manipulation_targetAtFixation,jsons/v1_VE1000_randls_74.json,http://54.235.29.9/FacialAge/BNav_EC2/DepthDuration/v2_depth_duration_MTurk/v2_DepthDuration_HTML.html#414,414,1366,625,1366,768,8-30-2022,6-55-16,159,depth_duration_stimuli/001055_2014-06-08_18-45-35_260595134347_rgbf000111-resize_4/001055_2014-06-08_18-45-35_260595134347_rgbf000111-resize_4-target.png,1000,2.4290000000000003,0,2195,1000,meters,jsons/v1_VE1000_randls_74.json,458797,652240,38,Woman
159,567424,DepthScenes,duration_manipulation_targetAtFixation,jsons/v1_VE1000_randls_74.json,http://54.235.29.9/FacialAge/BNav_EC2/DepthDuration/v2_depth_duration_MTurk/v2_DepthDuration_HTML.html#414,414,1366,625,1366,768,8-30-2022,6-55-16,160,depth_duration_stimuli/000549_2014-06-08_22-10-24_260595134347_rgbf000247-resize_3/000549_2014-06-08_22-10-24_260595134347_rgbf000247-resize_3-target.png,1000,1.841,0,2070,1006,meters,jsons/v1_VE1000_randls_74.json,458797,652240,38,Woman
160,567424,DepthScenes,duration_manipulation_targetAtFixation,jsons/v1_VE1000_randls_74.json,http://54.235.29.9/FacialAge/BNav_EC2/DepthDuration/v2_depth_duration_MTurk/v2_DepthDuration_HTML.html#414,414,1366,625,1366,768,8-30-2022,6-55-16,161,depth_duration_stimuli/003492_2014-05-21_15-50-55_094959634447_rgbf000828-resize_1/003492_2014-05-21_15-50-55_094959634447_rgbf000828-resize_1-target.png,1000,4.06875,0,2146,992,meters,jsons/v1_VE1000_randls_74.json,458797,652240,38,Woman
161,567424,DepthScenes,duration_manipulation_targetAtFixation,jsons/v1_VE1000_randls_74.json,http://54.235.29.9/FacialAge/BNav_EC2/DepthDuration/v2_depth_duration_MTurk/v2_DepthDuration_HTML.html#414,414,1366,625,1366,768,8-30-2022,6-55-16,162,depth_duration_stimuli/002568_2014-06-24_13-59-21_094959634447_rgbf000062-resize_4/002568_2014-06-24_13-59-21_094959634447_rgbf000062-resize_4-target.png,1000,3.015,0,2240,996,meters,jsons/v1_VE1000_randls_74.json,458797,652240,38,Woman
162,567424,DepthScenes,duration_manipulation_targetAtFixation,jsons/v1_VE1000_randls_74.json,http://54.235.29.9/FacialAge/BNav_EC2/DepthDuration/v2_depth_duration_MTurk/v2_DepthDuration_HTML.html#414,414,1366,625,1366,768,8-30-2022,6-55-16,163,depth_duration_stimuli/002213_2014-06-28_18-37-58_260595134347_rgbf000055-resize_1/002213_2014-06-28_18-37-58_260595134347_rgbf000055-resize_1-target.png,1000,3.62,0,2186,994,meters,jsons/v1_VE1000_randls_74.json,458797,652240,38,Woman
163,567424,DepthScenes,duration_manipulation_targetAtFixation,jsons/v1_VE1000_randls_74.json,http://54.235.29.9/FacialAge/BNav_EC2/DepthDuration/v2_depth_duration_MTurk/v2_DepthDuration_HTML.html#414,414,1366,625,1366,768,8-30-2022,6-55-16,164,depth_duration_stimuli/000691_2014-06-08_13-08-50_260595134347_rgbf000132-resize_3/000691_2014-06-08_13-08-50_260595134347_rgbf000132-resize_3-target.png,1000,4.1530000000000005,0,2252,1004,meters,jsons/v1_VE1000_randls_74.json,458797,652240,38,Woman
