,subjID,experimentName,versionName,sequenceName,url,selected_row,windowWidth,windowHeight,screenWidth,screenHeight,startDate,startTime,trial,stimulus,duration,actual_depth,depth_estimate,trial_RT,log_sceneDuration,unitSelection,seq_filepath,experimentTime,totalTime,age,gender
0,568247,DepthScenes,duration_manipulation_targetAtFixation,jsons/v1_VE250_randls_71_rotated.json,http://54.235.29.9/FacialAge/BNav_EC2/DepthDuration/v2_depth_duration_MTurk/v2_DepthDuration_HTML.html#19,19,1920,937,1920,1080,9-3-2022,14-15-0,1,depth_duration_stimuli/003228_2014-05-14_13-42-35_094959634447_rgbf000101-resize_1/003228_2014-05-14_13-42-35_094959634447_rgbf000101-resize_1-target.png,250,1.9680000000000002,2,3584,251,feet,jsons/v1_VE250_randls_71_rotated.json,556941,742449,42,Man
1,568247,DepthScenes,duration_manipulation_targetAtFixation,jsons/v1_VE250_randls_71_rotated.json,http://54.235.29.9/FacialAge/BNav_EC2/DepthDuration/v2_depth_duration_MTurk/v2_DepthDuration_HTML.html#19,19,1920,937,1920,1080,9-3-2022,14-15-0,2,depth_duration_stimuli/002600_2014-06-24_14-27-04_094959634447_rgbf000074-resize_2/002600_2014-06-24_14-27-04_094959634447_rgbf000074-resize_2-target.png,250,2.7575,4,3271,260,feet,jsons/v1_VE250_randls_71_rotated.json,556941,742449,42,Man
2,568247,DepthScenes,duration_manipulation_targetAtFixation,jsons/v1_VE250_randls_71_rotated.json,http://54.235.29.9/FacialAge/BNav_EC2/DepthDuration/v2_depth_duration_MTurk/v2_DepthDuration_HTML.html#19,19,1920,937,1920,1080,9-3-2022,14-15-0,3,depth_duration_stimuli/002805_2014-06-22_19-54-03_094959634447_rgbf000079-resize_1/002805_2014-06-22_19-54-03_094959634447_rgbf000079-resize_1-target.png,250,3.1439999999999997,5,3171,243,feet,jsons/v1_VE250_randls_71_rotated.json,556941,742449,42,Man
3,568247,DepthScenes,duration_manipulation_targetAtFixation,jsons/v1_VE250_randls_71_rotated.json,http://54.235.29.9/FacialAge/BNav_EC2/DepthDuration/v2_depth_duration_MTurk/v2_DepthDuration_HTML.html#19,19,1920,937,1920,1080,9-3-2022,14-15-0,4,depth_duration_stimuli/000906_2014-06-08_13-35-43_260595134347_rgbf000155-resize_1/000906_2014-06-08_13-35-43_260595134347_rgbf000155-resize_1-target.png,250,2.8489999999999998,8,2962,251,feet,jsons/v1_VE250_randls_71_rotated.json,556941,742449,42,Man
4,568247,DepthScenes,duration_manipulation_targetAtFixation,jsons/v1_VE250_randls_71_rotated.json,http://54.235.29.9/FacialAge/BNav_EC2/DepthDuration/v2_depth_duration_MTurk/v2_DepthDuration_HTML.html#19,19,1920,937,1920,1080,9-3-2022,14-15-0,5,depth_duration_stimuli/001052_2014-06-08_18-24-54_260595134347_rgbf000130-resize_1/001052_2014-06-08_18-24-54_260595134347_rgbf000130-resize_1-target.png,250,4.1045,7,2698,248,feet,jsons/v1_VE250_randls_71_rotated.json,556941,742449,42,Man
5,568247,DepthScenes,duration_manipulation_targetAtFixation,jsons/v1_VE250_randls_71_rotated.json,http://54.235.29.9/FacialAge/BNav_EC2/DepthDuration/v2_depth_duration_MTurk/v2_DepthDuration_HTML.html#19,19,1920,937,1920,1080,9-3-2022,14-15-0,6,depth_duration_stimuli/002988_2014-06-15_12-24-20_094959634447_rgbf000150-resize_1/002988_2014-06-15_12-24-20_094959634447_rgbf000150-resize_1-target.png,250,4.7669999999999995,9,4233,264,feet,jsons/v1_VE250_randls_71_rotated.json,556941,742449,42,Man
6,568247,DepthScenes,duration_manipulation_targetAtFixation,jsons/v1_VE250_randls_71_rotated.json,http://54.235.29.9/FacialAge/BNav_EC2/DepthDuration/v2_depth_duration_MTurk/v2_DepthDuration_HTML.html#19,19,1920,937,1920,1080,9-3-2022,14-15-0,7,depth_duration_stimuli/000677_2014-06-08_23-10-32_260595134347_rgbf000158-resize_6/000677_2014-06-08_23-10-32_260595134347_rgbf000158-resize_6-target.png,250,3.556,4,2901,260,feet,jsons/v1_VE250_randls_71_rotated.json,556941,742449,42,Man
7,568247,DepthScenes,duration_manipulation_targetAtFixation,jsons/v1_VE250_randls_71_rotated.json,http://54.235.29.9/FacialAge/BNav_EC2/DepthDuration/v2_depth_duration_MTurk/v2_DepthDuration_HTML.html#19,19,1920,937,1920,1080,9-3-2022,14-15-0,8,depth_duration_stimuli/001029_2014-06-08_13-17-57_260595134347_rgbf000065-resize_1/001029_2014-06-08_13-17-57_260595134347_rgbf000065-resize_1-target.png,250,3.0835,3,2669,245,feet,jsons/v1_VE250_randls_71_rotated.json,556941,742449,42,Man
8,568247,DepthScenes,duration_manipulation_targetAtFixation,jsons/v1_VE250_randls_71_rotated.json,http://54.235.29.9/FacialAge/BNav_EC2/DepthDuration/v2_depth_duration_MTurk/v2_DepthDuration_HTML.html#19,19,1920,937,1920,1080,9-3-2022,14-15-0,9,depth_duration_stimuli/000780_2014-06-08_22-28-29_260595134347_rgbf000126-resize_1/000780_2014-06-08_22-28-29_260595134347_rgbf000126-resize_1-target.png,250,3.3825,5,2945,258,feet,jsons/v1_VE250_randls_71_rotated.json,556941,742449,42,Man
9,568247,DepthScenes,duration_manipulation_targetAtFixation,jsons/v1_VE250_randls_71_rotated.json,http://54.235.29.9/FacialAge/BNav_EC2/DepthDuration/v2_depth_duration_MTurk/v2_DepthDuration_HTML.html#19,19,1920,937,1920,1080,9-3-2022,14-15-0,10,depth_duration_stimuli/002445_2014-06-28_20-32-16_260595134347_rgbf000029-resize_4/002445_2014-06-28_20-32-16_260595134347_rgbf000029-resize_4-target.png,250,2.5315,3,2724,245,feet,jsons/v1_VE250_randls_71_rotated.json,556941,742449,42,Man
10,568247,DepthScenes,duration_manipulation_targetAtFixation,jsons/v1_VE250_randls_71_rotated.json,http://54.235.29.9/FacialAge/BNav_EC2/DepthDuration/v2_depth_duration_MTurk/v2_DepthDuration_HTML.html#19,19,1920,937,1920,1080,9-3-2022,14-15-0,11,depth_duration_stimuli/003048_2014-06-15_13-49-43_094959634447_rgbf000150-resize_1/003048_2014-06-15_13-49-43_094959634447_rgbf000150-resize_1-target.png,250,4.0035,8,2643,257,feet,jsons/v1_VE250_randls_71_rotated.json,556941,742449,42,Man
11,568247,DepthScenes,duration_manipulation_targetAtFixation,jsons/v1_VE250_randls_71_rotated.json,http://54.235.29.9/FacialAge/BNav_EC2/DepthDuration/v2_depth_duration_MTurk/v2_DepthDuration_HTML.html#19,19,1920,937,1920,1080,9-3-2022,14-15-0,12,depth_duration_stimuli/002043_2014-06-24_20-29-38_260595134347_rgbf000039-resize_4/002043_2014-06-24_20-29-38_260595134347_rgbf000039-resize_4-target.png,250,2.8435,5,3260,250,feet,jsons/v1_VE250_randls_71_rotated.json,556941,742449,42,Man
12,568247,DepthScenes,duration_manipulation_targetAtFixation,jsons/v1_VE250_randls_71_rotated.json,http://54.235.29.9/FacialAge/BNav_EC2/DepthDuration/v2_depth_duration_MTurk/v2_DepthDuration_HTML.html#19,19,1920,937,1920,1080,9-3-2022,14-15-0,13,depth_duration_stimuli/002344_2014-06-28_20-06-29_260595134347_rgbf000030-resize_1/002344_2014-06-28_20-06-29_260595134347_rgbf000030-resize_1-target.png,250,1.5795,2,2487,245,feet,jsons/v1_VE250_randls_71_rotated.json,556941,742449,42,Man
13,568247,DepthScenes,duration_manipulation_targetAtFixation,jsons/v1_VE250_randls_71_rotated.json,http://54.235.29.9/FacialAge/BNav_EC2/DepthDuration/v2_depth_duration_MTurk/v2_DepthDuration_HTML.html#19,19,1920,937,1920,1080,9-3-2022,14-15-0,14,depth_duration_stimuli/002725_2014-06-22_11-47-51_094959634447_rgbf000070-resize_1/002725_2014-06-22_11-47-51_094959634447_rgbf000070-resize_1-target.png,250,2.195,3,2690,262,feet,jsons/v1_VE250_randls_71_rotated.json,556941,742449,42,Man
14,568247,DepthScenes,duration_manipulation_targetAtFixation,jsons/v1_VE250_randls_71_rotated.json,http://54.235.29.9/FacialAge/BNav_EC2/DepthDuration/v2_depth_duration_MTurk/v2_DepthDuration_HTML.html#19,19,1920,937,1920,1080,9-3-2022,14-15-0,15,depth_duration_stimuli/000709_2014-06-08_13-51-55_260595134347_rgbf000068-resize_3/000709_2014-06-08_13-51-55_260595134347_rgbf000068-resize_3-target.png,250,1.8030000000000002,2,2397,246,feet,jsons/v1_VE250_randls_71_rotated.json,556941,742449,42,Man
15,568247,DepthScenes,duration_manipulation_targetAtFixation,jsons/v1_VE250_randls_71_rotated.json,http://54.235.29.9/FacialAge/BNav_EC2/DepthDuration/v2_depth_duration_MTurk/v2_DepthDuration_HTML.html#19,19,1920,937,1920,1080,9-3-2022,14-15-0,16,depth_duration_stimuli/002057_2014-06-24_21-00-13_260595134347_rgbf000120-resize_1/002057_2014-06-24_21-00-13_260595134347_rgbf000120-resize_1-target.png,250,2.967,5,2736,262,feet,jsons/v1_VE250_randls_71_rotated.json,556941,742449,42,Man
16,568247,DepthScenes,duration_manipulation_targetAtFixation,jsons/v1_VE250_randls_71_rotated.json,http://54.235.29.9/FacialAge/BNav_EC2/DepthDuration/v2_depth_duration_MTurk/v2_DepthDuration_HTML.html#19,19,1920,937,1920,1080,9-3-2022,14-15-0,17,depth_duration_stimuli/001815_2014-06-26_20-52-55_260595134347_rgbf000020-resize_0/001815_2014-06-26_20-52-55_260595134347_rgbf000020-resize_0-target.png,250,3.3865,9,2970,250,feet,jsons/v1_VE250_randls_71_rotated.json,556941,742449,42,Man
17,568247,DepthScenes,duration_manipulation_targetAtFixation,jsons/v1_VE250_randls_71_rotated.json,http://54.235.29.9/FacialAge/BNav_EC2/DepthDuration/v2_depth_duration_MTurk/v2_DepthDuration_HTML.html#19,19,1920,937,1920,1080,9-3-2022,14-15-0,18,depth_duration_stimuli/001808_2014-06-26_20-50-58_260595134347_rgbf000029-resize_1/001808_2014-06-26_20-50-58_260595134347_rgbf000029-resize_1-target.png,250,4.249,7,2835,246,feet,jsons/v1_VE250_randls_71_rotated.json,556941,742449,42,Man
18,568247,DepthScenes,duration_manipulation_targetAtFixation,jsons/v1_VE250_randls_71_rotated.json,http://54.235.29.9/FacialAge/BNav_EC2/DepthDuration/v2_depth_duration_MTurk/v2_DepthDuration_HTML.html#19,19,1920,937,1920,1080,9-3-2022,14-15-0,19,depth_duration_stimuli/001498_2014-06-19_17-45-14_260595134347_rgbf000129-resize_4/001498_2014-06-19_17-45-14_260595134347_rgbf000129-resize-original.jpg,250,1.4075,0,4009,252,feet,jsons/v1_VE250_randls_71_rotated.json,556941,742449,42,Man
19,568247,DepthScenes,duration_manipulation_targetAtFixation,jsons/v1_VE250_randls_71_rotated.json,http://54.235.29.9/FacialAge/BNav_EC2/DepthDuration/v2_depth_duration_MTurk/v2_DepthDuration_HTML.html#19,19,1920,937,1920,1080,9-3-2022,14-15-0,20,depth_duration_stimuli/003423_2014-05-21_10-23-26_094959634447_rgbf002665-resize_2/003423_2014-05-21_10-23-26_094959634447_rgbf002665-resize_2-target.png,250,3.2575,8,3120,263,feet,jsons/v1_VE250_randls_71_rotated.json,556941,742449,42,Man
20,568247,DepthScenes,duration_manipulation_targetAtFixation,jsons/v1_VE250_randls_71_rotated.json,http://54.235.29.9/FacialAge/BNav_EC2/DepthDuration/v2_depth_duration_MTurk/v2_DepthDuration_HTML.html#19,19,1920,937,1920,1080,9-3-2022,14-15-0,21,depth_duration_stimuli/002905_2014-06-03_18-04-43_094959634447_rgbf000151-resize_2/002905_2014-06-03_18-04-43_094959634447_rgbf000151-resize_2-target.png,250,2.0295,3,2554,238,feet,jsons/v1_VE250_randls_71_rotated.json,556941,742449,42,Man
21,568247,DepthScenes,duration_manipulation_targetAtFixation,jsons/v1_VE250_randls_71_rotated.json,http://54.235.29.9/FacialAge/BNav_EC2/DepthDuration/v2_depth_duration_MTurk/v2_DepthDuration_HTML.html#19,19,1920,937,1920,1080,9-3-2022,14-15-0,22,depth_duration_stimuli/001094_2014-06-15_17-36-00_260595134347_rgbf000205-resize_0/001094_2014-06-15_17-36-00_260595134347_rgbf000205-resize_0-target.png,250,4.2175,7,2821,247,feet,jsons/v1_VE250_randls_71_rotated.json,556941,742449,42,Man
22,568247,DepthScenes,duration_manipulation_targetAtFixation,jsons/v1_VE250_randls_71_rotated.json,http://54.235.29.9/FacialAge/BNav_EC2/DepthDuration/v2_depth_duration_MTurk/v2_DepthDuration_HTML.html#19,19,1920,937,1920,1080,9-3-2022,14-15-0,23,depth_duration_stimuli/000692_2014-06-08_13-09-42_260595134347_rgbf000199-resize_2/000692_2014-06-08_13-09-42_260595134347_rgbf000199-resize_2-target.png,250,3.661,11,4033,257,feet,jsons/v1_VE250_randls_71_rotated.json,556941,742449,42,Man
23,568247,DepthScenes,duration_manipulation_targetAtFixation,jsons/v1_VE250_randls_71_rotated.json,http://54.235.29.9/FacialAge/BNav_EC2/DepthDuration/v2_depth_duration_MTurk/v2_DepthDuration_HTML.html#19,19,1920,937,1920,1080,9-3-2022,14-15-0,24,depth_duration_stimuli/000409_2014-06-04_19-23-33_260595134347_rgbf000067-resize_0/000409_2014-06-04_19-23-33_260595134347_rgbf000067-resize_0-target.png,250,3.7335,5,2552,249,feet,jsons/v1_VE250_randls_71_rotated.json,556941,742449,42,Man
24,568247,DepthScenes,duration_manipulation_targetAtFixation,jsons/v1_VE250_randls_71_rotated.json,http://54.235.29.9/FacialAge/BNav_EC2/DepthDuration/v2_depth_duration_MTurk/v2_DepthDuration_HTML.html#19,19,1920,937,1920,1080,9-3-2022,14-15-0,25,depth_duration_stimuli/002663_2014-06-13_15-50-26_094959634447_rgbf000075-resize_1/002663_2014-06-13_15-50-26_094959634447_rgbf000075-resize_1-target.png,250,4.7495,8,2783,240,feet,jsons/v1_VE250_randls_71_rotated.json,556941,742449,42,Man
25,568247,DepthScenes,duration_manipulation_targetAtFixation,jsons/v1_VE250_randls_71_rotated.json,http://54.235.29.9/FacialAge/BNav_EC2/DepthDuration/v2_depth_duration_MTurk/v2_DepthDuration_HTML.html#19,19,1920,937,1920,1080,9-3-2022,14-15-0,26,depth_duration_stimuli/000749_2014-06-08_21-55-06_260595134347_rgbf000070-resize_2/000749_2014-06-08_21-55-06_260595134347_rgbf000070-resize_2-target.png,250,2.331,3,2357,246,feet,jsons/v1_VE250_randls_71_rotated.json,556941,742449,42,Man
26,568247,DepthScenes,duration_manipulation_targetAtFixation,jsons/v1_VE250_randls_71_rotated.json,http://54.235.29.9/FacialAge/BNav_EC2/DepthDuration/v2_depth_duration_MTurk/v2_DepthDuration_HTML.html#19,19,1920,937,1920,1080,9-3-2022,14-15-0,27,depth_duration_stimuli/002788_2014-06-22_19-36-03_094959634447_rgbf000088-resize_2/002788_2014-06-22_19-36-03_094959634447_rgbf000088-resize_2-target.png,250,1.6465,3,2502,244,feet,jsons/v1_VE250_randls_71_rotated.json,556941,742449,42,Man
27,568247,DepthScenes,duration_manipulation_targetAtFixation,jsons/v1_VE250_randls_71_rotated.json,http://54.235.29.9/FacialAge/BNav_EC2/DepthDuration/v2_depth_duration_MTurk/v2_DepthDuration_HTML.html#19,19,1920,937,1920,1080,9-3-2022,14-15-0,28,depth_duration_stimuli/001617_2014-06-20_11-35-32_260595134347_rgbf000066-resize_1/001617_2014-06-20_11-35-32_260595134347_rgbf000066-resize_1-target.png,250,3.7910000000000004,4,2589,245,feet,jsons/v1_VE250_randls_71_rotated.json,556941,742449,42,Man
28,568247,DepthScenes,duration_manipulation_targetAtFixation,jsons/v1_VE250_randls_71_rotated.json,http://54.235.29.9/FacialAge/BNav_EC2/DepthDuration/v2_depth_duration_MTurk/v2_DepthDuration_HTML.html#19,19,1920,937,1920,1080,9-3-2022,14-15-0,29,depth_duration_stimuli/001806_2014-06-26_20-50-20_260595134347_rgbf000091-resize_1/001806_2014-06-26_20-50-20_260595134347_rgbf000091-resize_1-target.png,250,2.7305,2,4255,260,feet,jsons/v1_VE250_randls_71_rotated.json,556941,742449,42,Man
29,568247,DepthScenes,duration_manipulation_targetAtFixation,jsons/v1_VE250_randls_71_rotated.json,http://54.235.29.9/FacialAge/BNav_EC2/DepthDuration/v2_depth_duration_MTurk/v2_DepthDuration_HTML.html#19,19,1920,937,1920,1080,9-3-2022,14-15-0,30,depth_duration_stimuli/002072_2014-06-24_21-48-06_260595134347_rgbf000115-resize_0/002072_2014-06-24_21-48-06_260595134347_rgbf000115-resize-original.jpg,250,4.702,0,2858,251,feet,jsons/v1_VE250_randls_71_rotated.json,556941,742449,42,Man
30,568247,DepthScenes,duration_manipulation_targetAtFixation,jsons/v1_VE250_randls_71_rotated.json,http://54.235.29.9/FacialAge/BNav_EC2/DepthDuration/v2_depth_duration_MTurk/v2_DepthDuration_HTML.html#19,19,1920,937,1920,1080,9-3-2022,14-15-0,31,depth_duration_stimuli/001214_2014-06-17_16-13-55_260595134347_rgbf000111-resize_0/001214_2014-06-17_16-13-55_260595134347_rgbf000111-resize_0-target.png,250,2.6505,3,2777,241,feet,jsons/v1_VE250_randls_71_rotated.json,556941,742449,42,Man
31,568247,DepthScenes,duration_manipulation_targetAtFixation,jsons/v1_VE250_randls_71_rotated.json,http://54.235.29.9/FacialAge/BNav_EC2/DepthDuration/v2_depth_duration_MTurk/v2_DepthDuration_HTML.html#19,19,1920,937,1920,1080,9-3-2022,14-15-0,32,depth_duration_stimuli/000810_2014-06-08_17-20-01_260595134347_rgbf000105-resize_0/000810_2014-06-08_17-20-01_260595134347_rgbf000105-resize_0-target.png,250,1.4865,3,2522,256,feet,jsons/v1_VE250_randls_71_rotated.json,556941,742449,42,Man
32,568247,DepthScenes,duration_manipulation_targetAtFixation,jsons/v1_VE250_randls_71_rotated.json,http://54.235.29.9/FacialAge/BNav_EC2/DepthDuration/v2_depth_duration_MTurk/v2_DepthDuration_HTML.html#19,19,1920,937,1920,1080,9-3-2022,14-15-0,33,depth_duration_stimuli/003587_2014-05-23_16-48-02_094959634447_rgbf002384-resize_2/003587_2014-05-23_16-48-02_094959634447_rgbf002384-resize_2-target.png,250,1.357,2,2962,251,feet,jsons/v1_VE250_randls_71_rotated.json,556941,742449,42,Man
33,568247,DepthScenes,duration_manipulation_targetAtFixation,jsons/v1_VE250_randls_71_rotated.json,http://54.235.29.9/FacialAge/BNav_EC2/DepthDuration/v2_depth_duration_MTurk/v2_DepthDuration_HTML.html#19,19,1920,937,1920,1080,9-3-2022,14-15-0,34,depth_duration_stimuli/001167_2014-06-17_15-38-07_260595134347_rgbf000108-resize_0/001167_2014-06-17_15-38-07_260595134347_rgbf000108-resize_0-target.png,250,1.8505,3,5158,258,feet,jsons/v1_VE250_randls_71_rotated.json,556941,742449,42,Man
34,568247,DepthScenes,duration_manipulation_targetAtFixation,jsons/v1_VE250_randls_71_rotated.json,http://54.235.29.9/FacialAge/BNav_EC2/DepthDuration/v2_depth_duration_MTurk/v2_DepthDuration_HTML.html#19,19,1920,937,1920,1080,9-3-2022,14-15-0,35,depth_duration_stimuli/001650_2014-06-20_12-09-00_260595134347_rgbf000087-resize_3/001650_2014-06-20_12-09-00_260595134347_rgbf000087-resize_3-target.png,250,1.9505,1,2426,265,feet,jsons/v1_VE250_randls_71_rotated.json,556941,742449,42,Man
35,568247,DepthScenes,duration_manipulation_targetAtFixation,jsons/v1_VE250_randls_71_rotated.json,http://54.235.29.9/FacialAge/BNav_EC2/DepthDuration/v2_depth_duration_MTurk/v2_DepthDuration_HTML.html#19,19,1920,937,1920,1080,9-3-2022,14-15-0,36,depth_duration_stimuli/000682_2014-06-08_23-14-58_260595134347_rgbf000041-resize_5/000682_2014-06-08_23-14-58_260595134347_rgbf000041-resize_5-target.png,250,2.7239999999999998,2,2177,255,feet,jsons/v1_VE250_randls_71_rotated.json,556941,742449,42,Man
36,568247,DepthScenes,duration_manipulation_targetAtFixation,jsons/v1_VE250_randls_71_rotated.json,http://54.235.29.9/FacialAge/BNav_EC2/DepthDuration/v2_depth_duration_MTurk/v2_DepthDuration_HTML.html#19,19,1920,937,1920,1080,9-3-2022,14-15-0,37,depth_duration_stimuli/000742_2014-06-08_18-48-09_260595134347_rgbf000164-resize_4/000742_2014-06-08_18-48-09_260595134347_rgbf000164-resize_4-target.png,250,4.632,5,2753,264,feet,jsons/v1_VE250_randls_71_rotated.json,556941,742449,42,Man
37,568247,DepthScenes,duration_manipulation_targetAtFixation,jsons/v1_VE250_randls_71_rotated.json,http://54.235.29.9/FacialAge/BNav_EC2/DepthDuration/v2_depth_duration_MTurk/v2_DepthDuration_HTML.html#19,19,1920,937,1920,1080,9-3-2022,14-15-0,38,depth_duration_stimuli/001066_2014-06-08_22-03-20_260595134347_rgbf000066-resize_4/001066_2014-06-08_22-03-20_260595134347_rgbf000066-resize_4-target.png,250,4.2330000000000005,10,4364,259,feet,jsons/v1_VE250_randls_71_rotated.json,556941,742449,42,Man
38,568247,DepthScenes,duration_manipulation_targetAtFixation,jsons/v1_VE250_randls_71_rotated.json,http://54.235.29.9/FacialAge/BNav_EC2/DepthDuration/v2_depth_duration_MTurk/v2_DepthDuration_HTML.html#19,19,1920,937,1920,1080,9-3-2022,14-15-0,39,depth_duration_stimuli/001392_2014-06-19_16-07-59_260595134347_rgbf000046-resize_1/001392_2014-06-19_16-07-59_260595134347_rgbf000046-resize_1-target.png,250,4.135,5,3366,243,feet,jsons/v1_VE250_randls_71_rotated.json,556941,742449,42,Man
39,568247,DepthScenes,duration_manipulation_targetAtFixation,jsons/v1_VE250_randls_71_rotated.json,http://54.235.29.9/FacialAge/BNav_EC2/DepthDuration/v2_depth_duration_MTurk/v2_DepthDuration_HTML.html#19,19,1920,937,1920,1080,9-3-2022,14-15-0,40,depth_duration_stimuli/001570_2014-06-20_17-21-09_260595134347_rgbf000135-resize_4/001570_2014-06-20_17-21-09_260595134347_rgbf000135-resize_4-target.png,250,4.467,6,2787,253,feet,jsons/v1_VE250_randls_71_rotated.json,556941,742449,42,Man
40,568247,DepthScenes,duration_manipulation_targetAtFixation,jsons/v1_VE250_randls_71_rotated.json,http://54.235.29.9/FacialAge/BNav_EC2/DepthDuration/v2_depth_duration_MTurk/v2_DepthDuration_HTML.html#19,19,1920,937,1920,1080,9-3-2022,14-15-0,41,depth_duration_stimuli/002678_2014-06-13_16-15-32_094959634447_rgbf000151-resize_6/002678_2014-06-13_16-15-32_094959634447_rgbf000151-resize_6-target.png,250,2.1830000000000003,3,3552,246,feet,jsons/v1_VE250_randls_71_rotated.json,556941,742449,42,Man
41,568247,DepthScenes,duration_manipulation_targetAtFixation,jsons/v1_VE250_randls_71_rotated.json,http://54.235.29.9/FacialAge/BNav_EC2/DepthDuration/v2_depth_duration_MTurk/v2_DepthDuration_HTML.html#19,19,1920,937,1920,1080,9-3-2022,14-15-0,42,depth_duration_stimuli/000368_2014-06-09_15-53-01_260595134347_rgbf000155-resize_2/000368_2014-06-09_15-53-01_260595134347_rgbf000155-resize_2-target.png,250,2.4859999999999998,2,2572,250,feet,jsons/v1_VE250_randls_71_rotated.json,556941,742449,42,Man
42,568247,DepthScenes,duration_manipulation_targetAtFixation,jsons/v1_VE250_randls_71_rotated.json,http://54.235.29.9/FacialAge/BNav_EC2/DepthDuration/v2_depth_duration_MTurk/v2_DepthDuration_HTML.html#19,19,1920,937,1920,1080,9-3-2022,14-15-0,43,depth_duration_stimuli/002953_2014-06-08_17-32-18_094959634447_rgbf000059-resize_5/002953_2014-06-08_17-32-18_094959634447_rgbf000059-resize_5-target.png,250,1.551,2,2270,238,feet,jsons/v1_VE250_randls_71_rotated.json,556941,742449,42,Man
43,568247,DepthScenes,duration_manipulation_targetAtFixation,jsons/v1_VE250_randls_71_rotated.json,http://54.235.29.9/FacialAge/BNav_EC2/DepthDuration/v2_depth_duration_MTurk/v2_DepthDuration_HTML.html#19,19,1920,937,1920,1080,9-3-2022,14-15-0,44,depth_duration_stimuli/000878_2014-06-08_22-52-45_260595134347_rgbf000045-resize_2/000878_2014-06-08_22-52-45_260595134347_rgbf000045-resize_2-target.png,250,2.092,2,2353,257,feet,jsons/v1_VE250_randls_71_rotated.json,556941,742449,42,Man
44,568247,DepthScenes,duration_manipulation_targetAtFixation,jsons/v1_VE250_randls_71_rotated.json,http://54.235.29.9/FacialAge/BNav_EC2/DepthDuration/v2_depth_duration_MTurk/v2_DepthDuration_HTML.html#19,19,1920,937,1920,1080,9-3-2022,14-15-0,45,depth_duration_stimuli/000549_2014-06-08_22-10-24_260595134347_rgbf000247-resize_3/000549_2014-06-08_22-10-24_260595134347_rgbf000247-resize_3-target.png,250,1.841,1,2665,253,feet,jsons/v1_VE250_randls_71_rotated.json,556941,742449,42,Man
45,568247,DepthScenes,duration_manipulation_targetAtFixation,jsons/v1_VE250_randls_71_rotated.json,http://54.235.29.9/FacialAge/BNav_EC2/DepthDuration/v2_depth_duration_MTurk/v2_DepthDuration_HTML.html#19,19,1920,937,1920,1080,9-3-2022,14-15-0,46,depth_duration_stimuli/001055_2014-06-08_18-45-35_260595134347_rgbf000111-resize_4/001055_2014-06-08_18-45-35_260595134347_rgbf000111-resize_4-target.png,250,2.4290000000000003,3,2698,259,feet,jsons/v1_VE250_randls_71_rotated.json,556941,742449,42,Man
46,568247,DepthScenes,duration_manipulation_targetAtFixation,jsons/v1_VE250_randls_71_rotated.json,http://54.235.29.9/FacialAge/BNav_EC2/DepthDuration/v2_depth_duration_MTurk/v2_DepthDuration_HTML.html#19,19,1920,937,1920,1080,9-3-2022,14-15-0,47,depth_duration_stimuli/001447_2014-06-19_17-00-32_260595134347_rgbf000082-resize_5/001447_2014-06-19_17-00-32_260595134347_rgbf000082-resize_5-target.png,250,4.13775,2,2831,247,feet,jsons/v1_VE250_randls_71_rotated.json,556941,742449,42,Man
47,568247,DepthScenes,duration_manipulation_targetAtFixation,jsons/v1_VE250_randls_71_rotated.json,http://54.235.29.9/FacialAge/BNav_EC2/DepthDuration/v2_depth_duration_MTurk/v2_DepthDuration_HTML.html#19,19,1920,937,1920,1080,9-3-2022,14-15-0,48,depth_duration_stimuli/000447_2014-06-08_16-15-46_260595134347_rgbf000130-resize_1/000447_2014-06-08_16-15-46_260595134347_rgbf000130-resize_1-target.png,250,4.479,4,3284,250,feet,jsons/v1_VE250_randls_71_rotated.json,556941,742449,42,Man
48,568247,DepthScenes,duration_manipulation_targetAtFixation,jsons/v1_VE250_randls_71_rotated.json,http://54.235.29.9/FacialAge/BNav_EC2/DepthDuration/v2_depth_duration_MTurk/v2_DepthDuration_HTML.html#19,19,1920,937,1920,1080,9-3-2022,14-15-0,49,depth_duration_stimuli/001170_2014-06-17_15-43-44_260595134347_rgbf000096-resize_6/001170_2014-06-17_15-43-44_260595134347_rgbf000096-resize-original.jpg,250,1.1909999999999998,0,4025,252,feet,jsons/v1_VE250_randls_71_rotated.json,556941,742449,42,Man
49,568247,DepthScenes,duration_manipulation_targetAtFixation,jsons/v1_VE250_randls_71_rotated.json,http://54.235.29.9/FacialAge/BNav_EC2/DepthDuration/v2_depth_duration_MTurk/v2_DepthDuration_HTML.html#19,19,1920,937,1920,1080,9-3-2022,14-15-0,50,depth_duration_stimuli/002425_2014-06-28_20-27-29_260595134347_rgbf000031-resize_8/002425_2014-06-28_20-27-29_260595134347_rgbf000031-resize_8-target.png,250,3.8960000000000004,5,2729,259,feet,jsons/v1_VE250_randls_71_rotated.json,556941,742449,42,Man
50,568247,DepthScenes,duration_manipulation_targetAtFixation,jsons/v1_VE250_randls_71_rotated.json,http://54.235.29.9/FacialAge/BNav_EC2/DepthDuration/v2_depth_duration_MTurk/v2_DepthDuration_HTML.html#19,19,1920,937,1920,1080,9-3-2022,14-15-0,51,depth_duration_stimuli/000642_2014-06-08_16-59-25_260595134347_rgbf000098-resize_2/000642_2014-06-08_16-59-25_260595134347_rgbf000098-resize_2-target.png,250,2.8815,3,3323,256,feet,jsons/v1_VE250_randls_71_rotated.json,556941,742449,42,Man
51,568247,DepthScenes,duration_manipulation_targetAtFixation,jsons/v1_VE250_randls_71_rotated.json,http://54.235.29.9/FacialAge/BNav_EC2/DepthDuration/v2_depth_duration_MTurk/v2_DepthDuration_HTML.html#19,19,1920,937,1920,1080,9-3-2022,14-15-0,52,depth_duration_stimuli/003079_2014-06-15_15-18-20_094959634447_rgbf000152-resize_8/003079_2014-06-15_15-18-20_094959634447_rgbf000152-resize_8-target.png,250,2.8775,6,2645,248,feet,jsons/v1_VE250_randls_71_rotated.json,556941,742449,42,Man
52,568247,DepthScenes,duration_manipulation_targetAtFixation,jsons/v1_VE250_randls_71_rotated.json,http://54.235.29.9/FacialAge/BNav_EC2/DepthDuration/v2_depth_duration_MTurk/v2_DepthDuration_HTML.html#19,19,1920,937,1920,1080,9-3-2022,14-15-0,53,depth_duration_stimuli/000506_2014-06-08_23-21-00_260595134347_rgbf000070-resize_7/000506_2014-06-08_23-21-00_260595134347_rgbf000070-resize_7-target.png,250,4.0585,7,2758,253,feet,jsons/v1_VE250_randls_71_rotated.json,556941,742449,42,Man
53,568247,DepthScenes,duration_manipulation_targetAtFixation,jsons/v1_VE250_randls_71_rotated.json,http://54.235.29.9/FacialAge/BNav_EC2/DepthDuration/v2_depth_duration_MTurk/v2_DepthDuration_HTML.html#19,19,1920,937,1920,1080,9-3-2022,14-15-0,54,depth_duration_stimuli/002136_2014-06-25_21-18-03_260595134347_rgbf000109-resize_3/002136_2014-06-25_21-18-03_260595134347_rgbf000109-resize_3-target.png,250,1.9569999999999999,3,2367,252,feet,jsons/v1_VE250_randls_71_rotated.json,556941,742449,42,Man
54,568247,DepthScenes,duration_manipulation_targetAtFixation,jsons/v1_VE250_randls_71_rotated.json,http://54.235.29.9/FacialAge/BNav_EC2/DepthDuration/v2_depth_duration_MTurk/v2_DepthDuration_HTML.html#19,19,1920,937,1920,1080,9-3-2022,14-15-0,55,depth_duration_stimuli/002964_2014-06-08_17-46-11_094959634447_rgbf000091-resize_4/002964_2014-06-08_17-46-11_094959634447_rgbf000091-resize_4-target.png,250,1.6909999999999998,2,2784,262,feet,jsons/v1_VE250_randls_71_rotated.json,556941,742449,42,Man
55,568247,DepthScenes,duration_manipulation_targetAtFixation,jsons/v1_VE250_randls_71_rotated.json,http://54.235.29.9/FacialAge/BNav_EC2/DepthDuration/v2_depth_duration_MTurk/v2_DepthDuration_HTML.html#19,19,1920,937,1920,1080,9-3-2022,14-15-0,56,depth_duration_stimuli/002467_2014-06-28_20-38-07_260595134347_rgbf000026-resize_2/002467_2014-06-28_20-38-07_260595134347_rgbf000026-resize_2-target.png,250,4.742,7,2525,258,feet,jsons/v1_VE250_randls_71_rotated.json,556941,742449,42,Man
56,568247,DepthScenes,duration_manipulation_targetAtFixation,jsons/v1_VE250_randls_71_rotated.json,http://54.235.29.9/FacialAge/BNav_EC2/DepthDuration/v2_depth_duration_MTurk/v2_DepthDuration_HTML.html#19,19,1920,937,1920,1080,9-3-2022,14-15-0,57,depth_duration_stimuli/002570_2014-06-24_13-59-54_094959634447_rgbf000059-resize_0/002570_2014-06-24_13-59-54_094959634447_rgbf000059-resize_0-target.png,250,4.037,5,2493,251,feet,jsons/v1_VE250_randls_71_rotated.json,556941,742449,42,Man
57,568247,DepthScenes,duration_manipulation_targetAtFixation,jsons/v1_VE250_randls_71_rotated.json,http://54.235.29.9/FacialAge/BNav_EC2/DepthDuration/v2_depth_duration_MTurk/v2_DepthDuration_HTML.html#19,19,1920,937,1920,1080,9-3-2022,14-15-0,58,depth_duration_stimuli/000635_2014-06-08_16-38-42_260595134347_rgbf000106-resize_1/000635_2014-06-08_16-38-42_260595134347_rgbf000106-resize_1-target.png,250,2.074,4,2489,262,feet,jsons/v1_VE250_randls_71_rotated.json,556941,742449,42,Man
58,568247,DepthScenes,duration_manipulation_targetAtFixation,jsons/v1_VE250_randls_71_rotated.json,http://54.235.29.9/FacialAge/BNav_EC2/DepthDuration/v2_depth_duration_MTurk/v2_DepthDuration_HTML.html#19,19,1920,937,1920,1080,9-3-2022,14-15-0,59,depth_duration_stimuli/002279_2014-06-28_18-55-32_260595134347_rgbf000040-resize_5/002279_2014-06-28_18-55-32_260595134347_rgbf000040-resize_5-target.png,250,1.5043333333333,2,2706,250,feet,jsons/v1_VE250_randls_71_rotated.json,556941,742449,42,Man
59,568247,DepthScenes,duration_manipulation_targetAtFixation,jsons/v1_VE250_randls_71_rotated.json,http://54.235.29.9/FacialAge/BNav_EC2/DepthDuration/v2_depth_duration_MTurk/v2_DepthDuration_HTML.html#19,19,1920,937,1920,1080,9-3-2022,14-15-0,60,depth_duration_stimuli/003338_2014-05-20_11-01-23_094959634447_rgbf000051-resize_6/003338_2014-05-20_11-01-23_094959634447_rgbf000051-resize_6-target.png,250,1.693,2,4831,250,feet,jsons/v1_VE250_randls_71_rotated.json,556941,742449,42,Man
60,568247,DepthScenes,duration_manipulation_targetAtFixation,jsons/v1_VE250_randls_71_rotated.json,http://54.235.29.9/FacialAge/BNav_EC2/DepthDuration/v2_depth_duration_MTurk/v2_DepthDuration_HTML.html#19,19,1920,937,1920,1080,9-3-2022,14-15-0,61,depth_duration_stimuli/002509_2014-06-24_13-19-22_094959634447_rgbf000077-resize_0/002509_2014-06-24_13-19-22_094959634447_rgbf000077-resize_0-target.png,250,1.3065,1,2290,249,feet,jsons/v1_VE250_randls_71_rotated.json,556941,742449,42,Man
61,568247,DepthScenes,duration_manipulation_targetAtFixation,jsons/v1_VE250_randls_71_rotated.json,http://54.235.29.9/FacialAge/BNav_EC2/DepthDuration/v2_depth_duration_MTurk/v2_DepthDuration_HTML.html#19,19,1920,937,1920,1080,9-3-2022,14-15-0,62,depth_duration_stimuli/000191_2014-05-12_17-07-38_260595134347_rgbf000199-resize_0/000191_2014-05-12_17-07-38_260595134347_rgbf000199-resize_0-target.png,250,3.7995,9,2924,255,feet,jsons/v1_VE250_randls_71_rotated.json,556941,742449,42,Man
62,568247,DepthScenes,duration_manipulation_targetAtFixation,jsons/v1_VE250_randls_71_rotated.json,http://54.235.29.9/FacialAge/BNav_EC2/DepthDuration/v2_depth_duration_MTurk/v2_DepthDuration_HTML.html#19,19,1920,937,1920,1080,9-3-2022,14-15-0,63,depth_duration_stimuli/000493_2014-06-09_21-01-18_260595134347_rgbf000196-resize_3/000493_2014-06-09_21-01-18_260595134347_rgbf000196-resize_3-target.png,250,3.44,6,2486,260,feet,jsons/v1_VE250_randls_71_rotated.json,556941,742449,42,Man
63,568247,DepthScenes,duration_manipulation_targetAtFixation,jsons/v1_VE250_randls_71_rotated.json,http://54.235.29.9/FacialAge/BNav_EC2/DepthDuration/v2_depth_duration_MTurk/v2_DepthDuration_HTML.html#19,19,1920,937,1920,1080,9-3-2022,14-15-0,64,depth_duration_stimuli/000691_2014-06-08_13-08-50_260595134347_rgbf000132-resize_3/000691_2014-06-08_13-08-50_260595134347_rgbf000132-resize_3-target.png,250,4.1530000000000005,0,3369,249,feet,jsons/v1_VE250_randls_71_rotated.json,556941,742449,42,Man
64,568247,DepthScenes,duration_manipulation_targetAtFixation,jsons/v1_VE250_randls_71_rotated.json,http://54.235.29.9/FacialAge/BNav_EC2/DepthDuration/v2_depth_duration_MTurk/v2_DepthDuration_HTML.html#19,19,1920,937,1920,1080,9-3-2022,14-15-0,65,depth_duration_stimuli/002213_2014-06-28_18-37-58_260595134347_rgbf000055-resize_1/002213_2014-06-28_18-37-58_260595134347_rgbf000055-resize_1-target.png,250,3.62,10,3435,239,feet,jsons/v1_VE250_randls_71_rotated.json,556941,742449,42,Man
65,568247,DepthScenes,duration_manipulation_targetAtFixation,jsons/v1_VE250_randls_71_rotated.json,http://54.235.29.9/FacialAge/BNav_EC2/DepthDuration/v2_depth_duration_MTurk/v2_DepthDuration_HTML.html#19,19,1920,937,1920,1080,9-3-2022,14-15-0,66,depth_duration_stimuli/001540_2014-06-20_17-01-05_260595134347_rgbf000086-resize_2/001540_2014-06-20_17-01-05_260595134347_rgbf000086-resize-original.jpg,250,1.459,0,2769,241,feet,jsons/v1_VE250_randls_71_rotated.json,556941,742449,42,Man
66,568247,DepthScenes,duration_manipulation_targetAtFixation,jsons/v1_VE250_randls_71_rotated.json,http://54.235.29.9/FacialAge/BNav_EC2/DepthDuration/v2_depth_duration_MTurk/v2_DepthDuration_HTML.html#19,19,1920,937,1920,1080,9-3-2022,14-15-0,67,depth_duration_stimuli/000137_2014-05-20_17-04-49_260595134347_rgbf000120-resize_1/000137_2014-05-20_17-04-49_260595134347_rgbf000120-resize_1-target.png,250,3.786,7,2395,257,feet,jsons/v1_VE250_randls_71_rotated.json,556941,742449,42,Man
67,568247,DepthScenes,duration_manipulation_targetAtFixation,jsons/v1_VE250_randls_71_rotated.json,http://54.235.29.9/FacialAge/BNav_EC2/DepthDuration/v2_depth_duration_MTurk/v2_DepthDuration_HTML.html#19,19,1920,937,1920,1080,9-3-2022,14-15-0,68,depth_duration_stimuli/000736_2014-06-08_18-24-15_260595134347_rgbf000206-resize_3/000736_2014-06-08_18-24-15_260595134347_rgbf000206-resize_3-target.png,250,3.515,6,2250,247,feet,jsons/v1_VE250_randls_71_rotated.json,556941,742449,42,Man
68,568247,DepthScenes,duration_manipulation_targetAtFixation,jsons/v1_VE250_randls_71_rotated.json,http://54.235.29.9/FacialAge/BNav_EC2/DepthDuration/v2_depth_duration_MTurk/v2_DepthDuration_HTML.html#19,19,1920,937,1920,1080,9-3-2022,14-15-0,69,depth_duration_stimuli/001100_2014-06-15_17-46-26_260595134347_rgbf000225-resize_2/001100_2014-06-15_17-46-26_260595134347_rgbf000225-resize_2-target.png,250,2.24,2,2111,249,feet,jsons/v1_VE250_randls_71_rotated.json,556941,742449,42,Man
69,568247,DepthScenes,duration_manipulation_targetAtFixation,jsons/v1_VE250_randls_71_rotated.json,http://54.235.29.9/FacialAge/BNav_EC2/DepthDuration/v2_depth_duration_MTurk/v2_DepthDuration_HTML.html#19,19,1920,937,1920,1080,9-3-2022,14-15-0,70,depth_duration_stimuli/002784_2014-06-22_19-26-30_094959634447_rgbf000083-resize_3/002784_2014-06-22_19-26-30_094959634447_rgbf000083-resize_3-target.png,250,1.8046666666667,3,2272,253,feet,jsons/v1_VE250_randls_71_rotated.json,556941,742449,42,Man
70,568247,DepthScenes,duration_manipulation_targetAtFixation,jsons/v1_VE250_randls_71_rotated.json,http://54.235.29.9/FacialAge/BNav_EC2/DepthDuration/v2_depth_duration_MTurk/v2_DepthDuration_HTML.html#19,19,1920,937,1920,1080,9-3-2022,14-15-0,71,depth_duration_stimuli/001032_2014-06-08_13-23-17_260595134347_rgbf000021-resize_3/001032_2014-06-08_13-23-17_260595134347_rgbf000021-resize_3-target.png,250,3.2725,4,2823,261,feet,jsons/v1_VE250_randls_71_rotated.json,556941,742449,42,Man
71,568247,DepthScenes,duration_manipulation_targetAtFixation,jsons/v1_VE250_randls_71_rotated.json,http://54.235.29.9/FacialAge/BNav_EC2/DepthDuration/v2_depth_duration_MTurk/v2_DepthDuration_HTML.html#19,19,1920,937,1920,1080,9-3-2022,14-15-0,72,depth_duration_stimuli/001059_2014-06-08_21-53-27_260595134347_rgbf000061-resize_4/001059_2014-06-08_21-53-27_260595134347_rgbf000061-resize_4-target.png,250,2.4185,3,3361,254,feet,jsons/v1_VE250_randls_71_rotated.json,556941,742449,42,Man
72,568247,DepthScenes,duration_manipulation_targetAtFixation,jsons/v1_VE250_randls_71_rotated.json,http://54.235.29.9/FacialAge/BNav_EC2/DepthDuration/v2_depth_duration_MTurk/v2_DepthDuration_HTML.html#19,19,1920,937,1920,1080,9-3-2022,14-15-0,73,depth_duration_stimuli/002414_2014-06-28_20-24-58_260595134347_rgbf000067-resize_4/002414_2014-06-28_20-24-58_260595134347_rgbf000067-resize_4-target.png,250,4.363,7,2679,249,feet,jsons/v1_VE250_randls_71_rotated.json,556941,742449,42,Man
73,568247,DepthScenes,duration_manipulation_targetAtFixation,jsons/v1_VE250_randls_71_rotated.json,http://54.235.29.9/FacialAge/BNav_EC2/DepthDuration/v2_depth_duration_MTurk/v2_DepthDuration_HTML.html#19,19,1920,937,1920,1080,9-3-2022,14-15-0,74,depth_duration_stimuli/000773_2014-06-08_22-24-54_260595134347_rgbf000093-resize_1/000773_2014-06-08_22-24-54_260595134347_rgbf000093-resize_1-target.png,250,4.973,8,2641,252,feet,jsons/v1_VE250_randls_71_rotated.json,556941,742449,42,Man
74,568247,DepthScenes,duration_manipulation_targetAtFixation,jsons/v1_VE250_randls_71_rotated.json,http://54.235.29.9/FacialAge/BNav_EC2/DepthDuration/v2_depth_duration_MTurk/v2_DepthDuration_HTML.html#19,19,1920,937,1920,1080,9-3-2022,14-15-0,75,depth_duration_stimuli/003081_2014-06-15_15-19-16_094959634447_rgbf000150-resize_1/003081_2014-06-15_15-19-16_094959634447_rgbf000150-resize_1-target.png,250,3.9125,6,3073,252,feet,jsons/v1_VE250_randls_71_rotated.json,556941,742449,42,Man
75,568247,DepthScenes,duration_manipulation_targetAtFixation,jsons/v1_VE250_randls_71_rotated.json,http://54.235.29.9/FacialAge/BNav_EC2/DepthDuration/v2_depth_duration_MTurk/v2_DepthDuration_HTML.html#19,19,1920,937,1920,1080,9-3-2022,14-15-0,76,depth_duration_stimuli/001417_2014-06-19_16-25-36_260595134347_rgbf000115-resize_5/001417_2014-06-19_16-25-36_260595134347_rgbf000115-resize_5-target.png,250,4.6255,9,3245,248,feet,jsons/v1_VE250_randls_71_rotated.json,556941,742449,42,Man
76,568247,DepthScenes,duration_manipulation_targetAtFixation,jsons/v1_VE250_randls_71_rotated.json,http://54.235.29.9/FacialAge/BNav_EC2/DepthDuration/v2_depth_duration_MTurk/v2_DepthDuration_HTML.html#19,19,1920,937,1920,1080,9-3-2022,14-15-0,77,depth_duration_stimuli/000502_2014-06-08_23-02-32_260595134347_rgbf000063-resize_4/000502_2014-06-08_23-02-32_260595134347_rgbf000063-resize_4-target.png,250,2.431,3,2754,252,feet,jsons/v1_VE250_randls_71_rotated.json,556941,742449,42,Man
77,568247,DepthScenes,duration_manipulation_targetAtFixation,jsons/v1_VE250_randls_71_rotated.json,http://54.235.29.9/FacialAge/BNav_EC2/DepthDuration/v2_depth_duration_MTurk/v2_DepthDuration_HTML.html#19,19,1920,937,1920,1080,9-3-2022,14-15-0,78,depth_duration_stimuli/001199_2014-06-17_16-03-48_260595134347_rgbf000077-resize_0/001199_2014-06-17_16-03-48_260595134347_rgbf000077-resize_0-target.png,250,3.4375,10,4025,254,feet,jsons/v1_VE250_randls_71_rotated.json,556941,742449,42,Man
78,568247,DepthScenes,duration_manipulation_targetAtFixation,jsons/v1_VE250_randls_71_rotated.json,http://54.235.29.9/FacialAge/BNav_EC2/DepthDuration/v2_depth_duration_MTurk/v2_DepthDuration_HTML.html#19,19,1920,937,1920,1080,9-3-2022,14-15-0,79,depth_duration_stimuli/003129_2014-05-12_10-48-10_094959634447_rgbf000100-resize_0/003129_2014-05-12_10-48-10_094959634447_rgbf000100-resize_0-target.png,250,4.9305,8,4599,251,feet,jsons/v1_VE250_randls_71_rotated.json,556941,742449,42,Man
79,568247,DepthScenes,duration_manipulation_targetAtFixation,jsons/v1_VE250_randls_71_rotated.json,http://54.235.29.9/FacialAge/BNav_EC2/DepthDuration/v2_depth_duration_MTurk/v2_DepthDuration_HTML.html#19,19,1920,937,1920,1080,9-3-2022,14-15-0,80,depth_duration_stimuli/000414_2014-06-04_19-49-13_260595134347_rgbf000044-resize_0/000414_2014-06-04_19-49-13_260595134347_rgbf000044-resize_0-target.png,250,4.329,9,3060,246,feet,jsons/v1_VE250_randls_71_rotated.json,556941,742449,42,Man
80,568247,DepthScenes,duration_manipulation_targetAtFixation,jsons/v1_VE250_randls_71_rotated.json,http://54.235.29.9/FacialAge/BNav_EC2/DepthDuration/v2_depth_duration_MTurk/v2_DepthDuration_HTML.html#19,19,1920,937,1920,1080,9-3-2022,14-15-0,81,depth_duration_stimuli/001450_2014-06-19_17-02-03_260595134347_rgbf000203-resize_4/001450_2014-06-19_17-02-03_260595134347_rgbf000203-resize_4-target.png,250,4.0106666666667,9,3213,241,feet,jsons/v1_VE250_randls_71_rotated.json,556941,742449,42,Man
81,568247,DepthScenes,duration_manipulation_targetAtFixation,jsons/v1_VE250_randls_71_rotated.json,http://54.235.29.9/FacialAge/BNav_EC2/DepthDuration/v2_depth_duration_MTurk/v2_DepthDuration_HTML.html#19,19,1920,937,1920,1080,9-3-2022,14-15-0,82,depth_duration_stimuli/001449_2014-06-19_17-01-27_260595134347_rgbf000116-resize_2/001449_2014-06-19_17-01-27_260595134347_rgbf000116-resize_2-target.png,250,3.452,3,2250,259,feet,jsons/v1_VE250_randls_71_rotated.json,556941,742449,42,Man
82,568247,DepthScenes,duration_manipulation_targetAtFixation,jsons/v1_VE250_randls_71_rotated.json,http://54.235.29.9/FacialAge/BNav_EC2/DepthDuration/v2_depth_duration_MTurk/v2_DepthDuration_HTML.html#19,19,1920,937,1920,1080,9-3-2022,14-15-0,83,depth_duration_stimuli/002949_2014-06-26_15-57-42_094959634447_rgbf000079-resize_1/002949_2014-06-26_15-57-42_094959634447_rgbf000079-resize_1-target.png,250,1.8915,2,2920,256,feet,jsons/v1_VE250_randls_71_rotated.json,556941,742449,42,Man
83,568247,DepthScenes,duration_manipulation_targetAtFixation,jsons/v1_VE250_randls_71_rotated.json,http://54.235.29.9/FacialAge/BNav_EC2/DepthDuration/v2_depth_duration_MTurk/v2_DepthDuration_HTML.html#19,19,1920,937,1920,1080,9-3-2022,14-15-0,84,depth_duration_stimuli/000522_2014-06-08_13-35-06_260595134347_rgbf000244-resize_1/000522_2014-06-08_13-35-06_260595134347_rgbf000244-resize_1-target.png,250,2.3715,2,2622,250,feet,jsons/v1_VE250_randls_71_rotated.json,556941,742449,42,Man
84,568247,DepthScenes,duration_manipulation_targetAtFixation,jsons/v1_VE250_randls_71_rotated.json,http://54.235.29.9/FacialAge/BNav_EC2/DepthDuration/v2_depth_duration_MTurk/v2_DepthDuration_HTML.html#19,19,1920,937,1920,1080,9-3-2022,14-15-0,85,depth_duration_stimuli/003490_2014-05-21_15-50-11_094959634447_rgbf000101-resize_3/003490_2014-05-21_15-50-11_094959634447_rgbf000101-resize_3-target.png,250,3.6445,6,2401,261,feet,jsons/v1_VE250_randls_71_rotated.json,556941,742449,42,Man
85,568247,DepthScenes,duration_manipulation_targetAtFixation,jsons/v1_VE250_randls_71_rotated.json,http://54.235.29.9/FacialAge/BNav_EC2/DepthDuration/v2_depth_duration_MTurk/v2_DepthDuration_HTML.html#19,19,1920,937,1920,1080,9-3-2022,14-15-0,86,depth_duration_stimuli/001175_2014-06-17_15-45-55_260595134347_rgbf000129-resize_4/001175_2014-06-17_15-45-55_260595134347_rgbf000129-resize_4-target.png,250,4.255,11,2777,245,feet,jsons/v1_VE250_randls_71_rotated.json,556941,742449,42,Man
86,568247,DepthScenes,duration_manipulation_targetAtFixation,jsons/v1_VE250_randls_71_rotated.json,http://54.235.29.9/FacialAge/BNav_EC2/DepthDuration/v2_depth_duration_MTurk/v2_DepthDuration_HTML.html#19,19,1920,937,1920,1080,9-3-2022,14-15-0,87,depth_duration_stimuli/000927_2014-06-09_16-32-30_260595134347_rgbf000123-resize_3/000927_2014-06-09_16-32-30_260595134347_rgbf000123-resize_3-target.png,250,2.6785,4,2355,245,feet,jsons/v1_VE250_randls_71_rotated.json,556941,742449,42,Man
87,568247,DepthScenes,duration_manipulation_targetAtFixation,jsons/v1_VE250_randls_71_rotated.json,http://54.235.29.9/FacialAge/BNav_EC2/DepthDuration/v2_depth_duration_MTurk/v2_DepthDuration_HTML.html#19,19,1920,937,1920,1080,9-3-2022,14-15-0,88,depth_duration_stimuli/001110_2014-06-15_17-25-28_260595134347_rgbf000150-resize_1/001110_2014-06-15_17-25-28_260595134347_rgbf000150-resize_1-target.png,250,1.7115,3,2489,255,feet,jsons/v1_VE250_randls_71_rotated.json,556941,742449,42,Man
88,568247,DepthScenes,duration_manipulation_targetAtFixation,jsons/v1_VE250_randls_71_rotated.json,http://54.235.29.9/FacialAge/BNav_EC2/DepthDuration/v2_depth_duration_MTurk/v2_DepthDuration_HTML.html#19,19,1920,937,1920,1080,9-3-2022,14-15-0,89,depth_duration_stimuli/000109_2014-05-14_23-41-52_260595134347_rgbf000035-resize_9/000109_2014-05-14_23-41-52_260595134347_rgbf000035-resize_9-target.png,250,1.3545,2,2506,261,feet,jsons/v1_VE250_randls_71_rotated.json,556941,742449,42,Man
89,568247,DepthScenes,duration_manipulation_targetAtFixation,jsons/v1_VE250_randls_71_rotated.json,http://54.235.29.9/FacialAge/BNav_EC2/DepthDuration/v2_depth_duration_MTurk/v2_DepthDuration_HTML.html#19,19,1920,937,1920,1080,9-3-2022,14-15-0,90,depth_duration_stimuli/000470_2014-06-09_19-42-40_260595134347_rgbf000094-resize_1/000470_2014-06-09_19-42-40_260595134347_rgbf000094-resize_1-target.png,250,1.831,3,2402,249,feet,jsons/v1_VE250_randls_71_rotated.json,556941,742449,42,Man
90,568247,DepthScenes,duration_manipulation_targetAtFixation,jsons/v1_VE250_randls_71_rotated.json,http://54.235.29.9/FacialAge/BNav_EC2/DepthDuration/v2_depth_duration_MTurk/v2_DepthDuration_HTML.html#19,19,1920,937,1920,1080,9-3-2022,14-15-0,91,depth_duration_stimuli/003495_2014-05-21_16-01-51_094959634447_rgbf000100-resize_3/003495_2014-05-21_16-01-51_094959634447_rgbf000100-resize_3-target.png,250,1.6255,2,2127,257,feet,jsons/v1_VE250_randls_71_rotated.json,556941,742449,42,Man
91,568247,DepthScenes,duration_manipulation_targetAtFixation,jsons/v1_VE250_randls_71_rotated.json,http://54.235.29.9/FacialAge/BNav_EC2/DepthDuration/v2_depth_duration_MTurk/v2_DepthDuration_HTML.html#19,19,1920,937,1920,1080,9-3-2022,14-15-0,92,depth_duration_stimuli/001244_2014-06-17_16-47-45_260595134347_rgbf000030-resize_4/001244_2014-06-17_16-47-45_260595134347_rgbf000030-resize_4-target.png,250,2.0425,2,3211,244,feet,jsons/v1_VE250_randls_71_rotated.json,556941,742449,42,Man
92,568247,DepthScenes,duration_manipulation_targetAtFixation,jsons/v1_VE250_randls_71_rotated.json,http://54.235.29.9/FacialAge/BNav_EC2/DepthDuration/v2_depth_duration_MTurk/v2_DepthDuration_HTML.html#19,19,1920,937,1920,1080,9-3-2022,14-15-0,93,depth_duration_stimuli/002340_2014-06-28_20-05-46_260595134347_rgbf000113-resize_0/002340_2014-06-28_20-05-46_260595134347_rgbf000113-resize_0-target.png,250,2.4735,6,3305,263,feet,jsons/v1_VE250_randls_71_rotated.json,556941,742449,42,Man
93,568247,DepthScenes,duration_manipulation_targetAtFixation,jsons/v1_VE250_randls_71_rotated.json,http://54.235.29.9/FacialAge/BNav_EC2/DepthDuration/v2_depth_duration_MTurk/v2_DepthDuration_HTML.html#19,19,1920,937,1920,1080,9-3-2022,14-15-0,94,depth_duration_stimuli/001016_2014-06-09_16-16-10_260595134347_rgbf000112-resize_5/001016_2014-06-09_16-16-10_260595134347_rgbf000112-resize_5-target.png,250,1.6565,3,3233,256,feet,jsons/v1_VE250_randls_71_rotated.json,556941,742449,42,Man
94,568247,DepthScenes,duration_manipulation_targetAtFixation,jsons/v1_VE250_randls_71_rotated.json,http://54.235.29.9/FacialAge/BNav_EC2/DepthDuration/v2_depth_duration_MTurk/v2_DepthDuration_HTML.html#19,19,1920,937,1920,1080,9-3-2022,14-15-0,95,depth_duration_stimuli/001136_2014-06-17_15-19-41_260595134347_rgbf000076-resize_3/001136_2014-06-17_15-19-41_260595134347_rgbf000076-resize_3-target.png,250,1.8655,4,3746,259,feet,jsons/v1_VE250_randls_71_rotated.json,556941,742449,42,Man
95,568247,DepthScenes,duration_manipulation_targetAtFixation,jsons/v1_VE250_randls_71_rotated.json,http://54.235.29.9/FacialAge/BNav_EC2/DepthDuration/v2_depth_duration_MTurk/v2_DepthDuration_HTML.html#19,19,1920,937,1920,1080,9-3-2022,14-15-0,96,depth_duration_stimuli/001164_2014-06-17_15-35-46_260595134347_rgbf000085-resize_3/001164_2014-06-17_15-35-46_260595134347_rgbf000085-resize_3-target.png,250,2.354,5,2607,240,feet,jsons/v1_VE250_randls_71_rotated.json,556941,742449,42,Man
96,568247,DepthScenes,duration_manipulation_targetAtFixation,jsons/v1_VE250_randls_71_rotated.json,http://54.235.29.9/FacialAge/BNav_EC2/DepthDuration/v2_depth_duration_MTurk/v2_DepthDuration_HTML.html#19,19,1920,937,1920,1080,9-3-2022,14-15-0,97,depth_duration_stimuli/003083_2014-06-15_15-21-03_094959634447_rgbf000063-resize_1/003083_2014-06-15_15-21-03_094959634447_rgbf000063-resize_1-target.png,250,4.1405,9,2587,253,feet,jsons/v1_VE250_randls_71_rotated.json,556941,742449,42,Man
97,568247,DepthScenes,duration_manipulation_targetAtFixation,jsons/v1_VE250_randls_71_rotated.json,http://54.235.29.9/FacialAge/BNav_EC2/DepthDuration/v2_depth_duration_MTurk/v2_DepthDuration_HTML.html#19,19,1920,937,1920,1080,9-3-2022,14-15-0,98,depth_duration_stimuli/000486_2014-06-09_20-47-20_260595134347_rgbf000143-resize_2/000486_2014-06-09_20-47-20_260595134347_rgbf000143-resize_2-target.png,250,4.8325,7,2959,240,feet,jsons/v1_VE250_randls_71_rotated.json,556941,742449,42,Man
98,568247,DepthScenes,duration_manipulation_targetAtFixation,jsons/v1_VE250_randls_71_rotated.json,http://54.235.29.9/FacialAge/BNav_EC2/DepthDuration/v2_depth_duration_MTurk/v2_DepthDuration_HTML.html#19,19,1920,937,1920,1080,9-3-2022,14-15-0,99,depth_duration_stimuli/001222_2014-06-17_16-24-06_260595134347_rgbf000073-resize_0/001222_2014-06-17_16-24-06_260595134347_rgbf000073-resize-original.jpg,250,1.4385,0,3884,247,feet,jsons/v1_VE250_randls_71_rotated.json,556941,742449,42,Man
99,568247,DepthScenes,duration_manipulation_targetAtFixation,jsons/v1_VE250_randls_71_rotated.json,http://54.235.29.9/FacialAge/BNav_EC2/DepthDuration/v2_depth_duration_MTurk/v2_DepthDuration_HTML.html#19,19,1920,937,1920,1080,9-3-2022,14-15-0,100,depth_duration_stimuli/002758_2014-06-22_19-11-20_094959634447_rgbf000128-resize_1/002758_2014-06-22_19-11-20_094959634447_rgbf000128-resize_1-target.png,250,2.555,4,3217,262,feet,jsons/v1_VE250_randls_71_rotated.json,556941,742449,42,Man
100,568247,DepthScenes,duration_manipulation_targetAtFixation,jsons/v1_VE250_randls_71_rotated.json,http://54.235.29.9/FacialAge/BNav_EC2/DepthDuration/v2_depth_duration_MTurk/v2_DepthDuration_HTML.html#19,19,1920,937,1920,1080,9-3-2022,14-15-0,101,depth_duration_stimuli/002630_2014-06-24_14-47-50_094959634447_rgbf000055-resize_1/002630_2014-06-24_14-47-50_094959634447_rgbf000055-resize_1-target.png,250,3.0095,7,3669,257,feet,jsons/v1_VE250_randls_71_rotated.json,556941,742449,42,Man
101,568247,DepthScenes,duration_manipulation_targetAtFixation,jsons/v1_VE250_randls_71_rotated.json,http://54.235.29.9/FacialAge/BNav_EC2/DepthDuration/v2_depth_duration_MTurk/v2_DepthDuration_HTML.html#19,19,1920,937,1920,1080,9-3-2022,14-15-0,102,depth_duration_stimuli/002639_2014-06-24_14-51-37_094959634447_rgbf000074-resize_4/002639_2014-06-24_14-51-37_094959634447_rgbf000074-resize_4-target.png,250,4.0375,6,2836,240,feet,jsons/v1_VE250_randls_71_rotated.json,556941,742449,42,Man
102,568247,DepthScenes,duration_manipulation_targetAtFixation,jsons/v1_VE250_randls_71_rotated.json,http://54.235.29.9/FacialAge/BNav_EC2/DepthDuration/v2_depth_duration_MTurk/v2_DepthDuration_HTML.html#19,19,1920,937,1920,1080,9-3-2022,14-15-0,103,depth_duration_stimuli/003292_2014-05-14_21-53-49_094959634447_rgbf000100-resize_2/003292_2014-05-14_21-53-49_094959634447_rgbf000100-resize_2-target.png,250,3.4815,4,2645,254,feet,jsons/v1_VE250_randls_71_rotated.json,556941,742449,42,Man
103,568247,DepthScenes,duration_manipulation_targetAtFixation,jsons/v1_VE250_randls_71_rotated.json,http://54.235.29.9/FacialAge/BNav_EC2/DepthDuration/v2_depth_duration_MTurk/v2_DepthDuration_HTML.html#19,19,1920,937,1920,1080,9-3-2022,14-15-0,104,depth_duration_stimuli/001235_2014-06-17_16-37-36_260595134347_rgbf000084-resize_4/001235_2014-06-17_16-37-36_260595134347_rgbf000084-resize_4-target.png,250,3.6605,6,2661,241,feet,jsons/v1_VE250_randls_71_rotated.json,556941,742449,42,Man
104,568247,DepthScenes,duration_manipulation_targetAtFixation,jsons/v1_VE250_randls_71_rotated.json,http://54.235.29.9/FacialAge/BNav_EC2/DepthDuration/v2_depth_duration_MTurk/v2_DepthDuration_HTML.html#19,19,1920,937,1920,1080,9-3-2022,14-15-0,105,depth_duration_stimuli/000788_2014-06-08_22-34-36_260595134347_rgbf000131-resize_1/000788_2014-06-08_22-34-36_260595134347_rgbf000131-resize_1-target.png,250,3.359,3,2748,257,feet,jsons/v1_VE250_randls_71_rotated.json,556941,742449,42,Man
105,568247,DepthScenes,duration_manipulation_targetAtFixation,jsons/v1_VE250_randls_71_rotated.json,http://54.235.29.9/FacialAge/BNav_EC2/DepthDuration/v2_depth_duration_MTurk/v2_DepthDuration_HTML.html#19,19,1920,937,1920,1080,9-3-2022,14-15-0,106,depth_duration_stimuli/003010_2014-06-15_12-54-35_094959634447_rgbf000112-resize_0/003010_2014-06-15_12-54-35_094959634447_rgbf000112-resize_0-target.png,250,3.1185,6,2413,258,feet,jsons/v1_VE250_randls_71_rotated.json,556941,742449,42,Man
106,568247,DepthScenes,duration_manipulation_targetAtFixation,jsons/v1_VE250_randls_71_rotated.json,http://54.235.29.9/FacialAge/BNav_EC2/DepthDuration/v2_depth_duration_MTurk/v2_DepthDuration_HTML.html#19,19,1920,937,1920,1080,9-3-2022,14-15-0,107,depth_duration_stimuli/001810_2014-06-26_20-51-35_260595134347_rgbf000040-resize_3/001810_2014-06-26_20-51-35_260595134347_rgbf000040-resize_3-target.png,250,2.2525,4,2344,244,feet,jsons/v1_VE250_randls_71_rotated.json,556941,742449,42,Man
107,568247,DepthScenes,duration_manipulation_targetAtFixation,jsons/v1_VE250_randls_71_rotated.json,http://54.235.29.9/FacialAge/BNav_EC2/DepthDuration/v2_depth_duration_MTurk/v2_DepthDuration_HTML.html#19,19,1920,937,1920,1080,9-3-2022,14-15-0,108,depth_duration_stimuli/002657_2014-06-13_15-29-54_094959634447_rgbf000150-resize_1/002657_2014-06-13_15-29-54_094959634447_rgbf000150-resize_1-target.png,250,4.919,10,4878,253,feet,jsons/v1_VE250_randls_71_rotated.json,556941,742449,42,Man
108,568247,DepthScenes,duration_manipulation_targetAtFixation,jsons/v1_VE250_randls_71_rotated.json,http://54.235.29.9/FacialAge/BNav_EC2/DepthDuration/v2_depth_duration_MTurk/v2_DepthDuration_HTML.html#19,19,1920,937,1920,1080,9-3-2022,14-15-0,109,depth_duration_stimuli/002375_2014-06-28_20-13-44_260595134347_rgbf000032-resize_1/002375_2014-06-28_20-13-44_260595134347_rgbf000032-resize_1-target.png,250,4.0175,5,3046,254,feet,jsons/v1_VE250_randls_71_rotated.json,556941,742449,42,Man
109,568247,DepthScenes,duration_manipulation_targetAtFixation,jsons/v1_VE250_randls_71_rotated.json,http://54.235.29.9/FacialAge/BNav_EC2/DepthDuration/v2_depth_duration_MTurk/v2_DepthDuration_HTML.html#19,19,1920,937,1920,1080,9-3-2022,14-15-0,110,depth_duration_stimuli/002660_2014-06-13_15-44-18_094959634447_rgbf001878-resize_2/002660_2014-06-13_15-44-18_094959634447_rgbf001878-resize_2-target.png,250,3.576,9,3468,245,feet,jsons/v1_VE250_randls_71_rotated.json,556941,742449,42,Man
110,568247,DepthScenes,duration_manipulation_targetAtFixation,jsons/v1_VE250_randls_71_rotated.json,http://54.235.29.9/FacialAge/BNav_EC2/DepthDuration/v2_depth_duration_MTurk/v2_DepthDuration_HTML.html#19,19,1920,937,1920,1080,9-3-2022,14-15-0,111,depth_duration_stimuli/002153_2014-06-25_21-27-18_260595134347_rgbf000038-resize_5/002153_2014-06-25_21-27-18_260595134347_rgbf000038-resize_5-target.png,250,2.505,3,2426,259,feet,jsons/v1_VE250_randls_71_rotated.json,556941,742449,42,Man
111,568247,DepthScenes,duration_manipulation_targetAtFixation,jsons/v1_VE250_randls_71_rotated.json,http://54.235.29.9/FacialAge/BNav_EC2/DepthDuration/v2_depth_duration_MTurk/v2_DepthDuration_HTML.html#19,19,1920,937,1920,1080,9-3-2022,14-15-0,112,depth_duration_stimuli/000556_2014-06-09_22-42-56_260595134347_rgbf000214-resize_1/000556_2014-06-09_22-42-56_260595134347_rgbf000214-resize_1-target.png,250,4.8415,10,4039,255,feet,jsons/v1_VE250_randls_71_rotated.json,556941,742449,42,Man
112,568247,DepthScenes,duration_manipulation_targetAtFixation,jsons/v1_VE250_randls_71_rotated.json,http://54.235.29.9/FacialAge/BNav_EC2/DepthDuration/v2_depth_duration_MTurk/v2_DepthDuration_HTML.html#19,19,1920,937,1920,1080,9-3-2022,14-15-0,113,depth_duration_stimuli/001158_2014-06-17_15-32-16_260595134347_rgbf000138-resize_2/001158_2014-06-17_15-32-16_260595134347_rgbf000138-resize_2-target.png,250,4.5315,11,3103,254,feet,jsons/v1_VE250_randls_71_rotated.json,556941,742449,42,Man
113,568247,DepthScenes,duration_manipulation_targetAtFixation,jsons/v1_VE250_randls_71_rotated.json,http://54.235.29.9/FacialAge/BNav_EC2/DepthDuration/v2_depth_duration_MTurk/v2_DepthDuration_HTML.html#19,19,1920,937,1920,1080,9-3-2022,14-15-0,114,depth_duration_stimuli/001828_2014-06-26_21-40-03_260595134347_rgbf000024-resize_0/001828_2014-06-26_21-40-03_260595134347_rgbf000024-resize_0-target.png,250,4.8260000000000005,8,3051,253,feet,jsons/v1_VE250_randls_71_rotated.json,556941,742449,42,Man
114,568247,DepthScenes,duration_manipulation_targetAtFixation,jsons/v1_VE250_randls_71_rotated.json,http://54.235.29.9/FacialAge/BNav_EC2/DepthDuration/v2_depth_duration_MTurk/v2_DepthDuration_HTML.html#19,19,1920,937,1920,1080,9-3-2022,14-15-0,115,depth_duration_stimuli/000009_2014-05-26_14-32-05_260595134347_rgbf000034-resize_3/000009_2014-05-26_14-32-05_260595134347_rgbf000034-resize_3-target.png,250,3.8715,11,3807,239,feet,jsons/v1_VE250_randls_71_rotated.json,556941,742449,42,Man
115,568247,DepthScenes,duration_manipulation_targetAtFixation,jsons/v1_VE250_randls_71_rotated.json,http://54.235.29.9/FacialAge/BNav_EC2/DepthDuration/v2_depth_duration_MTurk/v2_DepthDuration_HTML.html#19,19,1920,937,1920,1080,9-3-2022,14-15-0,116,depth_duration_stimuli/000943_2014-06-09_19-31-07_260595134347_rgbf000128-resize_1/000943_2014-06-09_19-31-07_260595134347_rgbf000128-resize_1-target.png,250,1.9765,3,2145,251,feet,jsons/v1_VE250_randls_71_rotated.json,556941,742449,42,Man
116,568247,DepthScenes,duration_manipulation_targetAtFixation,jsons/v1_VE250_randls_71_rotated.json,http://54.235.29.9/FacialAge/BNav_EC2/DepthDuration/v2_depth_duration_MTurk/v2_DepthDuration_HTML.html#19,19,1920,937,1920,1080,9-3-2022,14-15-0,117,depth_duration_stimuli/003070_2014-06-15_14-58-27_094959634447_rgbf000150-resize_3/003070_2014-06-15_14-58-27_094959634447_rgbf000150-resize_3-target.png,250,2.9415,8,3836,247,feet,jsons/v1_VE250_randls_71_rotated.json,556941,742449,42,Man
117,568247,DepthScenes,duration_manipulation_targetAtFixation,jsons/v1_VE250_randls_71_rotated.json,http://54.235.29.9/FacialAge/BNav_EC2/DepthDuration/v2_depth_duration_MTurk/v2_DepthDuration_HTML.html#19,19,1920,937,1920,1080,9-3-2022,14-15-0,118,depth_duration_stimuli/002875_2014-06-01_15-19-00_094959634447_rgbf000151-resize_1/002875_2014-06-01_15-19-00_094959634447_rgbf000151-resize_1-target.png,250,1.9675,4,2883,251,feet,jsons/v1_VE250_randls_71_rotated.json,556941,742449,42,Man
118,568247,DepthScenes,duration_manipulation_targetAtFixation,jsons/v1_VE250_randls_71_rotated.json,http://54.235.29.9/FacialAge/BNav_EC2/DepthDuration/v2_depth_duration_MTurk/v2_DepthDuration_HTML.html#19,19,1920,937,1920,1080,9-3-2022,14-15-0,119,depth_duration_stimuli/001011_2014-06-08_23-18-54_260595134347_rgbf000044-resize_4/001011_2014-06-08_23-18-54_260595134347_rgbf000044-resize_4-target.png,250,2.4730000000000003,5,2758,258,feet,jsons/v1_VE250_randls_71_rotated.json,556941,742449,42,Man
119,568247,DepthScenes,duration_manipulation_targetAtFixation,jsons/v1_VE250_randls_71_rotated.json,http://54.235.29.9/FacialAge/BNav_EC2/DepthDuration/v2_depth_duration_MTurk/v2_DepthDuration_HTML.html#19,19,1920,937,1920,1080,9-3-2022,14-15-0,120,depth_duration_stimuli/000787_2014-06-08_22-33-53_260595134347_rgbf000175-resize_1/000787_2014-06-08_22-33-53_260595134347_rgbf000175-resize-original.jpg,250,4.784,0,2556,248,feet,jsons/v1_VE250_randls_71_rotated.json,556941,742449,42,Man
120,568247,DepthScenes,duration_manipulation_targetAtFixation,jsons/v1_VE250_randls_71_rotated.json,http://54.235.29.9/FacialAge/BNav_EC2/DepthDuration/v2_depth_duration_MTurk/v2_DepthDuration_HTML.html#19,19,1920,937,1920,1080,9-3-2022,14-15-0,121,depth_duration_stimuli/002568_2014-06-24_13-59-21_094959634447_rgbf000062-resize_4/002568_2014-06-24_13-59-21_094959634447_rgbf000062-resize_4-target.png,250,3.015,4,2291,245,feet,jsons/v1_VE250_randls_71_rotated.json,556941,742449,42,Man
121,568247,DepthScenes,duration_manipulation_targetAtFixation,jsons/v1_VE250_randls_71_rotated.json,http://54.235.29.9/FacialAge/BNav_EC2/DepthDuration/v2_depth_duration_MTurk/v2_DepthDuration_HTML.html#19,19,1920,937,1920,1080,9-3-2022,14-15-0,122,depth_duration_stimuli/003492_2014-05-21_15-50-55_094959634447_rgbf000828-resize_1/003492_2014-05-21_15-50-55_094959634447_rgbf000828-resize_1-target.png,250,4.06875,7,2347,247,feet,jsons/v1_VE250_randls_71_rotated.json,556941,742449,42,Man
122,568247,DepthScenes,duration_manipulation_targetAtFixation,jsons/v1_VE250_randls_71_rotated.json,http://54.235.29.9/FacialAge/BNav_EC2/DepthDuration/v2_depth_duration_MTurk/v2_DepthDuration_HTML.html#19,19,1920,937,1920,1080,9-3-2022,14-15-0,123,depth_duration_stimuli/001516_2014-06-20_16-25-09_260595134347_rgbf000076-resize_2/001516_2014-06-20_16-25-09_260595134347_rgbf000076-resize_2-target.png,250,1.7445,4,2621,259,feet,jsons/v1_VE250_randls_71_rotated.json,556941,742449,42,Man
123,568247,DepthScenes,duration_manipulation_targetAtFixation,jsons/v1_VE250_randls_71_rotated.json,http://54.235.29.9/FacialAge/BNav_EC2/DepthDuration/v2_depth_duration_MTurk/v2_DepthDuration_HTML.html#19,19,1920,937,1920,1080,9-3-2022,14-15-0,124,depth_duration_stimuli/002118_2014-06-25_20-32-08_260595134347_rgbf000078-resize_1/002118_2014-06-25_20-32-08_260595134347_rgbf000078-resize_1-target.png,250,2.6460000000000004,3,2409,247,feet,jsons/v1_VE250_randls_71_rotated.json,556941,742449,42,Man
124,568247,DepthScenes,duration_manipulation_targetAtFixation,jsons/v1_VE250_randls_71_rotated.json,http://54.235.29.9/FacialAge/BNav_EC2/DepthDuration/v2_depth_duration_MTurk/v2_DepthDuration_HTML.html#19,19,1920,937,1920,1080,9-3-2022,14-15-0,125,depth_duration_stimuli/000457_2014-06-08_16-52-43_260595134347_rgbf000199-resize_1/000457_2014-06-08_16-52-43_260595134347_rgbf000199-resize_1-target.png,250,3.6489999999999996,4,2398,249,feet,jsons/v1_VE250_randls_71_rotated.json,556941,742449,42,Man
125,568247,DepthScenes,duration_manipulation_targetAtFixation,jsons/v1_VE250_randls_71_rotated.json,http://54.235.29.9/FacialAge/BNav_EC2/DepthDuration/v2_depth_duration_MTurk/v2_DepthDuration_HTML.html#19,19,1920,937,1920,1080,9-3-2022,14-15-0,126,depth_duration_stimuli/000929_2014-06-09_16-33-19_260595134347_rgbf000139-resize_0/000929_2014-06-09_16-33-19_260595134347_rgbf000139-resize_0-target.png,250,2.8680000000000003,4,2487,254,feet,jsons/v1_VE250_randls_71_rotated.json,556941,742449,42,Man
126,568247,DepthScenes,duration_manipulation_targetAtFixation,jsons/v1_VE250_randls_71_rotated.json,http://54.235.29.9/FacialAge/BNav_EC2/DepthDuration/v2_depth_duration_MTurk/v2_DepthDuration_HTML.html#19,19,1920,937,1920,1080,9-3-2022,14-15-0,127,depth_duration_stimuli/001132_2014-06-17_14-48-54_260595134347_rgbf000100-resize_2/001132_2014-06-17_14-48-54_260595134347_rgbf000100-resize_2-target.png,250,3.753,7,3546,242,feet,jsons/v1_VE250_randls_71_rotated.json,556941,742449,42,Man
127,568247,DepthScenes,duration_manipulation_targetAtFixation,jsons/v1_VE250_randls_71_rotated.json,http://54.235.29.9/FacialAge/BNav_EC2/DepthDuration/v2_depth_duration_MTurk/v2_DepthDuration_HTML.html#19,19,1920,937,1920,1080,9-3-2022,14-15-0,128,depth_duration_stimuli/001133_2014-06-17_14-49-16_260595134347_rgbf000100-resize_0/001133_2014-06-17_14-49-16_260595134347_rgbf000100-resize_0-target.png,250,4.2115,8,3664,262,feet,jsons/v1_VE250_randls_71_rotated.json,556941,742449,42,Man
128,568247,DepthScenes,duration_manipulation_targetAtFixation,jsons/v1_VE250_randls_71_rotated.json,http://54.235.29.9/FacialAge/BNav_EC2/DepthDuration/v2_depth_duration_MTurk/v2_DepthDuration_HTML.html#19,19,1920,937,1920,1080,9-3-2022,14-15-0,129,depth_duration_stimuli/002444_2014-06-28_20-32-08_260595134347_rgbf000027-resize_0/002444_2014-06-28_20-32-08_260595134347_rgbf000027-resize_0-target.png,250,4.388999999999999,9,2524,257,feet,jsons/v1_VE250_randls_71_rotated.json,556941,742449,42,Man
129,568247,DepthScenes,duration_manipulation_targetAtFixation,jsons/v1_VE250_randls_71_rotated.json,http://54.235.29.9/FacialAge/BNav_EC2/DepthDuration/v2_depth_duration_MTurk/v2_DepthDuration_HTML.html#19,19,1920,937,1920,1080,9-3-2022,14-15-0,130,depth_duration_stimuli/000436_2014-06-09_22-25-11_260595134347_rgbf000137-resize_1/000436_2014-06-09_22-25-11_260595134347_rgbf000137-resize_1-target.png,250,4.0705,9,3602,256,feet,jsons/v1_VE250_randls_71_rotated.json,556941,742449,42,Man
130,568247,DepthScenes,duration_manipulation_targetAtFixation,jsons/v1_VE250_randls_71_rotated.json,http://54.235.29.9/FacialAge/BNav_EC2/DepthDuration/v2_depth_duration_MTurk/v2_DepthDuration_HTML.html#19,19,1920,937,1920,1080,9-3-2022,14-15-0,131,depth_duration_stimuli/002995_2014-06-15_12-31-26_094959634447_rgbf000150-resize_1/002995_2014-06-15_12-31-26_094959634447_rgbf000150-resize_1-target.png,250,3.8360000000000003,10,3184,260,feet,jsons/v1_VE250_randls_71_rotated.json,556941,742449,42,Man
131,568247,DepthScenes,duration_manipulation_targetAtFixation,jsons/v1_VE250_randls_71_rotated.json,http://54.235.29.9/FacialAge/BNav_EC2/DepthDuration/v2_depth_duration_MTurk/v2_DepthDuration_HTML.html#19,19,1920,937,1920,1080,9-3-2022,14-15-0,132,depth_duration_stimuli/002748_2014-06-22_19-07-22_094959634447_rgbf000078-resize_1/002748_2014-06-22_19-07-22_094959634447_rgbf000078-resize_1-target.png,250,4.6705,12,3404,249,feet,jsons/v1_VE250_randls_71_rotated.json,556941,742449,42,Man
132,568247,DepthScenes,duration_manipulation_targetAtFixation,jsons/v1_VE250_randls_71_rotated.json,http://54.235.29.9/FacialAge/BNav_EC2/DepthDuration/v2_depth_duration_MTurk/v2_DepthDuration_HTML.html#19,19,1920,937,1920,1080,9-3-2022,14-15-0,133,depth_duration_stimuli/001571_2014-06-20_17-21-32_260595134347_rgbf000089-resize_1/001571_2014-06-20_17-21-32_260595134347_rgbf000089-resize_1-target.png,250,1.86,2,2197,246,feet,jsons/v1_VE250_randls_71_rotated.json,556941,742449,42,Man
133,568247,DepthScenes,duration_manipulation_targetAtFixation,jsons/v1_VE250_randls_71_rotated.json,http://54.235.29.9/FacialAge/BNav_EC2/DepthDuration/v2_depth_duration_MTurk/v2_DepthDuration_HTML.html#19,19,1920,937,1920,1080,9-3-2022,14-15-0,134,depth_duration_stimuli/002272_2014-06-28_18-53-56_260595134347_rgbf000067-resize_2/002272_2014-06-28_18-53-56_260595134347_rgbf000067-resize_2-target.png,250,1.138,2,2391,252,feet,jsons/v1_VE250_randls_71_rotated.json,556941,742449,42,Man
134,568247,DepthScenes,duration_manipulation_targetAtFixation,jsons/v1_VE250_randls_71_rotated.json,http://54.235.29.9/FacialAge/BNav_EC2/DepthDuration/v2_depth_duration_MTurk/v2_DepthDuration_HTML.html#19,19,1920,937,1920,1080,9-3-2022,14-15-0,135,depth_duration_stimuli/000375_2014-06-08_11-17-29_260595134347_rgbf000133-resize_2/000375_2014-06-08_11-17-29_260595134347_rgbf000133-resize-original.jpg,250,4.718,0,2889,249,feet,jsons/v1_VE250_randls_71_rotated.json,556941,742449,42,Man
135,568247,DepthScenes,duration_manipulation_targetAtFixation,jsons/v1_VE250_randls_71_rotated.json,http://54.235.29.9/FacialAge/BNav_EC2/DepthDuration/v2_depth_duration_MTurk/v2_DepthDuration_HTML.html#19,19,1920,937,1920,1080,9-3-2022,14-15-0,136,depth_duration_stimuli/000866_2014-06-09_20-45-42_260595134347_rgbf000139-resize_1/000866_2014-06-09_20-45-42_260595134347_rgbf000139-resize_1-target.png,250,3.2155,4,2917,241,feet,jsons/v1_VE250_randls_71_rotated.json,556941,742449,42,Man
136,568247,DepthScenes,duration_manipulation_targetAtFixation,jsons/v1_VE250_randls_71_rotated.json,http://54.235.29.9/FacialAge/BNav_EC2/DepthDuration/v2_depth_duration_MTurk/v2_DepthDuration_HTML.html#19,19,1920,937,1920,1080,9-3-2022,14-15-0,137,depth_duration_stimuli/002989_2014-06-15_12-25-03_094959634447_rgbf000150-resize_3/002989_2014-06-15_12-25-03_094959634447_rgbf000150-resize_3-target.png,250,4.1975,10,3539,252,feet,jsons/v1_VE250_randls_71_rotated.json,556941,742449,42,Man
137,568247,DepthScenes,duration_manipulation_targetAtFixation,jsons/v1_VE250_randls_71_rotated.json,http://54.235.29.9/FacialAge/BNav_EC2/DepthDuration/v2_depth_duration_MTurk/v2_DepthDuration_HTML.html#19,19,1920,937,1920,1080,9-3-2022,14-15-0,138,depth_duration_stimuli/002199_2014-06-28_18-33-56_260595134347_rgbf000074-resize_0/002199_2014-06-28_18-33-56_260595134347_rgbf000074-resize_0-target.png,250,1.996,2,2170,253,feet,jsons/v1_VE250_randls_71_rotated.json,556941,742449,42,Man
138,568247,DepthScenes,duration_manipulation_targetAtFixation,jsons/v1_VE250_randls_71_rotated.json,http://54.235.29.9/FacialAge/BNav_EC2/DepthDuration/v2_depth_duration_MTurk/v2_DepthDuration_HTML.html#19,19,1920,937,1920,1080,9-3-2022,14-15-0,139,depth_duration_stimuli/001056_2014-06-08_18-46-44_260595134347_rgbf000068-resize_0/001056_2014-06-08_18-46-44_260595134347_rgbf000068-resize_0-target.png,250,2.6625,4,2284,235,feet,jsons/v1_VE250_randls_71_rotated.json,556941,742449,42,Man
139,568247,DepthScenes,duration_manipulation_targetAtFixation,jsons/v1_VE250_randls_71_rotated.json,http://54.235.29.9/FacialAge/BNav_EC2/DepthDuration/v2_depth_duration_MTurk/v2_DepthDuration_HTML.html#19,19,1920,937,1920,1080,9-3-2022,14-15-0,140,depth_duration_stimuli/002637_2014-06-24_14-51-13_094959634447_rgbf000066-resize_4/002637_2014-06-24_14-51-13_094959634447_rgbf000066-resize_4-target.png,250,1.9955,4,2611,264,feet,jsons/v1_VE250_randls_71_rotated.json,556941,742449,42,Man
140,568247,DepthScenes,duration_manipulation_targetAtFixation,jsons/v1_VE250_randls_71_rotated.json,http://54.235.29.9/FacialAge/BNav_EC2/DepthDuration/v2_depth_duration_MTurk/v2_DepthDuration_HTML.html#19,19,1920,937,1920,1080,9-3-2022,14-15-0,141,depth_duration_stimuli/003534_2014-05-22_15-06-10_094959634447_rgbf000102-resize_4/003534_2014-05-22_15-06-10_094959634447_rgbf000102-resize_4-target.png,250,1.426,2,2796,241,feet,jsons/v1_VE250_randls_71_rotated.json,556941,742449,42,Man
141,568247,DepthScenes,duration_manipulation_targetAtFixation,jsons/v1_VE250_randls_71_rotated.json,http://54.235.29.9/FacialAge/BNav_EC2/DepthDuration/v2_depth_duration_MTurk/v2_DepthDuration_HTML.html#19,19,1920,937,1920,1080,9-3-2022,14-15-0,142,depth_duration_stimuli/000483_2014-06-09_20-41-45_260595134347_rgbf000116-resize_4/000483_2014-06-09_20-41-45_260595134347_rgbf000116-resize_4-target.png,250,1.337,2,2471,251,feet,jsons/v1_VE250_randls_71_rotated.json,556941,742449,42,Man
142,568247,DepthScenes,duration_manipulation_targetAtFixation,jsons/v1_VE250_randls_71_rotated.json,http://54.235.29.9/FacialAge/BNav_EC2/DepthDuration/v2_depth_duration_MTurk/v2_DepthDuration_HTML.html#19,19,1920,937,1920,1080,9-3-2022,14-15-0,143,depth_duration_stimuli/000469_2014-06-09_19-42-10_260595134347_rgbf000081-resize_1/000469_2014-06-09_19-42-10_260595134347_rgbf000081-resize_1-target.png,250,1.652,2,3080,259,feet,jsons/v1_VE250_randls_71_rotated.json,556941,742449,42,Man
143,568247,DepthScenes,duration_manipulation_targetAtFixation,jsons/v1_VE250_randls_71_rotated.json,http://54.235.29.9/FacialAge/BNav_EC2/DepthDuration/v2_depth_duration_MTurk/v2_DepthDuration_HTML.html#19,19,1920,937,1920,1080,9-3-2022,14-15-0,144,depth_duration_stimuli/002209_2014-06-28_18-36-10_260595134347_rgbf000051-resize_1/002209_2014-06-28_18-36-10_260595134347_rgbf000051-resize_1-target.png,250,2.057,4,2778,261,feet,jsons/v1_VE250_randls_71_rotated.json,556941,742449,42,Man
144,568247,DepthScenes,duration_manipulation_targetAtFixation,jsons/v1_VE250_randls_71_rotated.json,http://54.235.29.9/FacialAge/BNav_EC2/DepthDuration/v2_depth_duration_MTurk/v2_DepthDuration_HTML.html#19,19,1920,937,1920,1080,9-3-2022,14-15-0,145,depth_duration_stimuli/002763_2014-06-22_19-13-10_094959634447_rgbf000075-resize_4/002763_2014-06-22_19-13-10_094959634447_rgbf000075-resize_4-target.png,250,1.68375,3,2376,255,feet,jsons/v1_VE250_randls_71_rotated.json,556941,742449,42,Man
145,568247,DepthScenes,duration_manipulation_targetAtFixation,jsons/v1_VE250_randls_71_rotated.json,http://54.235.29.9/FacialAge/BNav_EC2/DepthDuration/v2_depth_duration_MTurk/v2_DepthDuration_HTML.html#19,19,1920,937,1920,1080,9-3-2022,14-15-0,146,depth_duration_stimuli/000103_2014-05-14_22-01-17_260595134347_rgbf000152-resize_5/000103_2014-05-14_22-01-17_260595134347_rgbf000152-resize_5-target.png,250,1.993,4,2486,250,feet,jsons/v1_VE250_randls_71_rotated.json,556941,742449,42,Man
146,568247,DepthScenes,duration_manipulation_targetAtFixation,jsons/v1_VE250_randls_71_rotated.json,http://54.235.29.9/FacialAge/BNav_EC2/DepthDuration/v2_depth_duration_MTurk/v2_DepthDuration_HTML.html#19,19,1920,937,1920,1080,9-3-2022,14-15-0,147,depth_duration_stimuli/001555_2014-06-20_17-12-10_260595134347_rgbf000065-resize_4/001555_2014-06-20_17-12-10_260595134347_rgbf000065-resize_4-target.png,250,1.633,3,2161,262,feet,jsons/v1_VE250_randls_71_rotated.json,556941,742449,42,Man
147,568247,DepthScenes,duration_manipulation_targetAtFixation,jsons/v1_VE250_randls_71_rotated.json,http://54.235.29.9/FacialAge/BNav_EC2/DepthDuration/v2_depth_duration_MTurk/v2_DepthDuration_HTML.html#19,19,1920,937,1920,1080,9-3-2022,14-15-0,148,depth_duration_stimuli/000854_2014-06-09_19-43-13_260595134347_rgbf000066-resize_0/000854_2014-06-09_19-43-13_260595134347_rgbf000066-resize_0-target.png,250,3.068,2,2232,242,feet,jsons/v1_VE250_randls_71_rotated.json,556941,742449,42,Man
148,568247,DepthScenes,duration_manipulation_targetAtFixation,jsons/v1_VE250_randls_71_rotated.json,http://54.235.29.9/FacialAge/BNav_EC2/DepthDuration/v2_depth_duration_MTurk/v2_DepthDuration_HTML.html#19,19,1920,937,1920,1080,9-3-2022,14-15-0,149,depth_duration_stimuli/000758_2014-06-08_22-05-08_260595134347_rgbf000085-resize_0/000758_2014-06-08_22-05-08_260595134347_rgbf000085-resize_0-target.png,250,3.3810000000000002,9,3184,249,feet,jsons/v1_VE250_randls_71_rotated.json,556941,742449,42,Man
149,568247,DepthScenes,duration_manipulation_targetAtFixation,jsons/v1_VE250_randls_71_rotated.json,http://54.235.29.9/FacialAge/BNav_EC2/DepthDuration/v2_depth_duration_MTurk/v2_DepthDuration_HTML.html#19,19,1920,937,1920,1080,9-3-2022,14-15-0,150,depth_duration_stimuli/000734_2014-06-08_17-39-11_260595134347_rgbf000128-resize_2/000734_2014-06-08_17-39-11_260595134347_rgbf000128-resize_2-target.png,250,4.098,6,2403,243,feet,jsons/v1_VE250_randls_71_rotated.json,556941,742449,42,Man
150,568247,DepthScenes,duration_manipulation_targetAtFixation,jsons/v1_VE250_randls_71_rotated.json,http://54.235.29.9/FacialAge/BNav_EC2/DepthDuration/v2_depth_duration_MTurk/v2_DepthDuration_HTML.html#19,19,1920,937,1920,1080,9-3-2022,14-15-0,151,depth_duration_stimuli/000739_2014-06-08_18-45-58_260595134347_rgbf000068-resize_1/000739_2014-06-08_18-45-58_260595134347_rgbf000068-resize_1-target.png,250,3.534,6,2290,250,feet,jsons/v1_VE250_randls_71_rotated.json,556941,742449,42,Man
151,568247,DepthScenes,duration_manipulation_targetAtFixation,jsons/v1_VE250_randls_71_rotated.json,http://54.235.29.9/FacialAge/BNav_EC2/DepthDuration/v2_depth_duration_MTurk/v2_DepthDuration_HTML.html#19,19,1920,937,1920,1080,9-3-2022,14-15-0,152,depth_duration_stimuli/000569_2014-06-09_22-51-47_260595134347_rgbf000141-resize_3/000569_2014-06-09_22-51-47_260595134347_rgbf000141-resize-original.jpg,250,4.512,0,2912,244,feet,jsons/v1_VE250_randls_71_rotated.json,556941,742449,42,Man
152,568247,DepthScenes,duration_manipulation_targetAtFixation,jsons/v1_VE250_randls_71_rotated.json,http://54.235.29.9/FacialAge/BNav_EC2/DepthDuration/v2_depth_duration_MTurk/v2_DepthDuration_HTML.html#19,19,1920,937,1920,1080,9-3-2022,14-15-0,153,depth_duration_stimuli/002103_2014-06-25_20-00-40_260595134347_rgbf000049-resize_0/002103_2014-06-25_20-00-40_260595134347_rgbf000049-resize_0-target.png,250,4.105,8,2444,250,feet,jsons/v1_VE250_randls_71_rotated.json,556941,742449,42,Man
153,568247,DepthScenes,duration_manipulation_targetAtFixation,jsons/v1_VE250_randls_71_rotated.json,http://54.235.29.9/FacialAge/BNav_EC2/DepthDuration/v2_depth_duration_MTurk/v2_DepthDuration_HTML.html#19,19,1920,937,1920,1080,9-3-2022,14-15-0,154,depth_duration_stimuli/002039_2014-06-24_20-22-38_260595134347_rgbf000084-resize_1/002039_2014-06-24_20-22-38_260595134347_rgbf000084-resize_1-target.png,250,4.408,10,3465,256,feet,jsons/v1_VE250_randls_71_rotated.json,556941,742449,42,Man
154,568247,DepthScenes,duration_manipulation_targetAtFixation,jsons/v1_VE250_randls_71_rotated.json,http://54.235.29.9/FacialAge/BNav_EC2/DepthDuration/v2_depth_duration_MTurk/v2_DepthDuration_HTML.html#19,19,1920,937,1920,1080,9-3-2022,14-15-0,155,depth_duration_stimuli/002545_2014-06-24_13-38-53_094959634447_rgbf000080-resize_4/002545_2014-06-24_13-38-53_094959634447_rgbf000080-resize_4-target.png,250,1.9205,4,2417,247,feet,jsons/v1_VE250_randls_71_rotated.json,556941,742449,42,Man
155,568247,DepthScenes,duration_manipulation_targetAtFixation,jsons/v1_VE250_randls_71_rotated.json,http://54.235.29.9/FacialAge/BNav_EC2/DepthDuration/v2_depth_duration_MTurk/v2_DepthDuration_HTML.html#19,19,1920,937,1920,1080,9-3-2022,14-15-0,156,depth_duration_stimuli/001092_2014-06-15_17-34-58_260595134347_rgbf000171-resize_3/001092_2014-06-15_17-34-58_260595134347_rgbf000171-resize_3-target.png,250,2.6935,5,2484,235,feet,jsons/v1_VE250_randls_71_rotated.json,556941,742449,42,Man
156,568247,DepthScenes,duration_manipulation_targetAtFixation,jsons/v1_VE250_randls_71_rotated.json,http://54.235.29.9/FacialAge/BNav_EC2/DepthDuration/v2_depth_duration_MTurk/v2_DepthDuration_HTML.html#19,19,1920,937,1920,1080,9-3-2022,14-15-0,157,depth_duration_stimuli/001584_2014-06-20_11-07-43_260595134347_rgbf000002-resize_1/001584_2014-06-20_11-07-43_260595134347_rgbf000002-resize_1-target.png,250,3.53,6,2885,252,feet,jsons/v1_VE250_randls_71_rotated.json,556941,742449,42,Man
157,568247,DepthScenes,duration_manipulation_targetAtFixation,jsons/v1_VE250_randls_71_rotated.json,http://54.235.29.9/FacialAge/BNav_EC2/DepthDuration/v2_depth_duration_MTurk/v2_DepthDuration_HTML.html#19,19,1920,937,1920,1080,9-3-2022,14-15-0,158,depth_duration_stimuli/003621_2014-05-23_18-06-08_094959634447_rgbf000101-resize_1/003621_2014-05-23_18-06-08_094959634447_rgbf000101-resize_1-target.png,250,3.9835,10,3071,255,feet,jsons/v1_VE250_randls_71_rotated.json,556941,742449,42,Man
158,568247,DepthScenes,duration_manipulation_targetAtFixation,jsons/v1_VE250_randls_71_rotated.json,http://54.235.29.9/FacialAge/BNav_EC2/DepthDuration/v2_depth_duration_MTurk/v2_DepthDuration_HTML.html#19,19,1920,937,1920,1080,9-3-2022,14-15-0,159,depth_duration_stimuli/000665_2014-06-09_20-42-35_260595134347_rgbf000110-resize_1/000665_2014-06-09_20-42-35_260595134347_rgbf000110-resize_1-target.png,250,3.057,5,2225,264,feet,jsons/v1_VE250_randls_71_rotated.json,556941,742449,42,Man
159,568247,DepthScenes,duration_manipulation_targetAtFixation,jsons/v1_VE250_randls_71_rotated.json,http://54.235.29.9/FacialAge/BNav_EC2/DepthDuration/v2_depth_duration_MTurk/v2_DepthDuration_HTML.html#19,19,1920,937,1920,1080,9-3-2022,14-15-0,160,depth_duration_stimuli/001150_2014-06-17_15-27-34_260595134347_rgbf000108-resize_2/001150_2014-06-17_15-27-34_260595134347_rgbf000108-resize_2-target.png,250,4.0325,6,2338,257,feet,jsons/v1_VE250_randls_71_rotated.json,556941,742449,42,Man
160,568247,DepthScenes,duration_manipulation_targetAtFixation,jsons/v1_VE250_randls_71_rotated.json,http://54.235.29.9/FacialAge/BNav_EC2/DepthDuration/v2_depth_duration_MTurk/v2_DepthDuration_HTML.html#19,19,1920,937,1920,1080,9-3-2022,14-15-0,161,depth_duration_stimuli/002323_2014-06-28_20-01-54_260595134347_rgbf000051-resize_4/002323_2014-06-28_20-01-54_260595134347_rgbf000051-resize_4-target.png,250,3.7310000000000003,9,2903,261,feet,jsons/v1_VE250_randls_71_rotated.json,556941,742449,42,Man
161,568247,DepthScenes,duration_manipulation_targetAtFixation,jsons/v1_VE250_randls_71_rotated.json,http://54.235.29.9/FacialAge/BNav_EC2/DepthDuration/v2_depth_duration_MTurk/v2_DepthDuration_HTML.html#19,19,1920,937,1920,1080,9-3-2022,14-15-0,162,depth_duration_stimuli/000917_2014-06-09_22-45-29_260595134347_rgbf000149-resize_3/000917_2014-06-09_22-45-29_260595134347_rgbf000149-resize_3-target.png,250,4.1865,9,2495,249,feet,jsons/v1_VE250_randls_71_rotated.json,556941,742449,42,Man
162,568247,DepthScenes,duration_manipulation_targetAtFixation,jsons/v1_VE250_randls_71_rotated.json,http://54.235.29.9/FacialAge/BNav_EC2/DepthDuration/v2_depth_duration_MTurk/v2_DepthDuration_HTML.html#19,19,1920,937,1920,1080,9-3-2022,14-15-0,163,depth_duration_stimuli/002750_2014-06-22_19-08-03_094959634447_rgbf000094-resize_4/002750_2014-06-22_19-08-03_094959634447_rgbf000094-resize_4-target.png,250,2.354,5,2582,243,feet,jsons/v1_VE250_randls_71_rotated.json,556941,742449,42,Man
163,568247,DepthScenes,duration_manipulation_targetAtFixation,jsons/v1_VE250_randls_71_rotated.json,http://54.235.29.9/FacialAge/BNav_EC2/DepthDuration/v2_depth_duration_MTurk/v2_DepthDuration_HTML.html#19,19,1920,937,1920,1080,9-3-2022,14-15-0,164,depth_duration_stimuli/002549_2014-06-24_13-41-39_094959634447_rgbf000022-resize_3/002549_2014-06-24_13-41-39_094959634447_rgbf000022-resize_3-target.png,250,1.476,3,2417,258,feet,jsons/v1_VE250_randls_71_rotated.json,556941,742449,42,Man
