,subjID,experimentName,versionName,sequenceName,url,selected_row,windowWidth,windowHeight,screenWidth,screenHeight,startDate,startTime,trial,stimulus,duration,actual_depth,depth_estimate,trial_RT,log_sceneDuration,unitSelection,seq_filepath,experimentTime,totalTime,age,gender
0,571519,DepthScenes,duration_manipulation_targetAtFixation,jsons/v1_VE1000_randls_76_rotated.json,http://54.235.29.9/FacialAge/BNav_EC2/DepthDuration/v2_depth_duration_MTurk/v2_DepthDuration_HTML.html#217,217,1517,730,1366,768,9-3-2022,13-56-14,1,depth_duration_stimuli/001100_2014-06-15_17-46-26_260595134347_rgbf000225-resize_2/001100_2014-06-15_17-46-26_260595134347_rgbf000225-resize_2-target.png,1000,2.24,67,16318,1148,meters,jsons/v1_VE1000_randls_76_rotated.json,1997369,2366375,34,Man
1,571519,DepthScenes,duration_manipulation_targetAtFixation,jsons/v1_VE1000_randls_76_rotated.json,http://54.235.29.9/FacialAge/BNav_EC2/DepthDuration/v2_depth_duration_MTurk/v2_DepthDuration_HTML.html#217,217,1517,730,1366,768,9-3-2022,13-56-14,2,depth_duration_stimuli/002784_2014-06-22_19-26-30_094959634447_rgbf000083-resize_3/002784_2014-06-22_19-26-30_094959634447_rgbf000083-resize_3-target.png,1000,1.8046666666667,43,5328,1000,meters,jsons/v1_VE1000_randls_76_rotated.json,1997369,2366375,34,Man
2,571519,DepthScenes,duration_manipulation_targetAtFixation,jsons/v1_VE1000_randls_76_rotated.json,http://54.235.29.9/FacialAge/BNav_EC2/DepthDuration/v2_depth_duration_MTurk/v2_DepthDuration_HTML.html#217,217,1517,730,1366,768,9-3-2022,13-56-14,3,depth_duration_stimuli/002467_2014-06-28_20-38-07_260595134347_rgbf000026-resize_2/002467_2014-06-28_20-38-07_260595134347_rgbf000026-resize_2-target.png,1000,4.742,87,6815,999,meters,jsons/v1_VE1000_randls_76_rotated.json,1997369,2366375,34,Man
3,571519,DepthScenes,duration_manipulation_targetAtFixation,jsons/v1_VE1000_randls_76_rotated.json,http://54.235.29.9/FacialAge/BNav_EC2/DepthDuration/v2_depth_duration_MTurk/v2_DepthDuration_HTML.html#217,217,1517,730,1366,768,9-3-2022,13-56-14,4,depth_duration_stimuli/002570_2014-06-24_13-59-54_094959634447_rgbf000059-resize_0/002570_2014-06-24_13-59-54_094959634447_rgbf000059-resize_0-target.png,1000,4.037,98,5120,1161,meters,jsons/v1_VE1000_randls_76_rotated.json,1997369,2366375,34,Man
4,571519,DepthScenes,duration_manipulation_targetAtFixation,jsons/v1_VE1000_randls_76_rotated.json,http://54.235.29.9/FacialAge/BNav_EC2/DepthDuration/v2_depth_duration_MTurk/v2_DepthDuration_HTML.html#217,217,1517,730,1366,768,9-3-2022,13-56-14,5,depth_duration_stimuli/003079_2014-06-15_15-18-20_094959634447_rgbf000152-resize_8/003079_2014-06-15_15-18-20_094959634447_rgbf000152-resize_8-target.png,1000,2.8775,43,6291,999,meters,jsons/v1_VE1000_randls_76_rotated.json,1997369,2366375,34,Man
5,571519,DepthScenes,duration_manipulation_targetAtFixation,jsons/v1_VE1000_randls_76_rotated.json,http://54.235.29.9/FacialAge/BNav_EC2/DepthDuration/v2_depth_duration_MTurk/v2_DepthDuration_HTML.html#217,217,1517,730,1366,768,9-3-2022,13-56-14,6,depth_duration_stimuli/000506_2014-06-08_23-21-00_260595134347_rgbf000070-resize_7/000506_2014-06-08_23-21-00_260595134347_rgbf000070-resize_7-target.png,1000,4.0585,98,4387,999,meters,jsons/v1_VE1000_randls_76_rotated.json,1997369,2366375,34,Man
6,571519,DepthScenes,duration_manipulation_targetAtFixation,jsons/v1_VE1000_randls_76_rotated.json,http://54.235.29.9/FacialAge/BNav_EC2/DepthDuration/v2_depth_duration_MTurk/v2_DepthDuration_HTML.html#217,217,1517,730,1366,768,9-3-2022,13-56-14,7,depth_duration_stimuli/000749_2014-06-08_21-55-06_260595134347_rgbf000070-resize_2/000749_2014-06-08_21-55-06_260595134347_rgbf000070-resize_2-target.png,1000,2.331,54,7648,999,meters,jsons/v1_VE1000_randls_76_rotated.json,1997369,2366375,34,Man
7,571519,DepthScenes,duration_manipulation_targetAtFixation,jsons/v1_VE1000_randls_76_rotated.json,http://54.235.29.9/FacialAge/BNav_EC2/DepthDuration/v2_depth_duration_MTurk/v2_DepthDuration_HTML.html#217,217,1517,730,1366,768,9-3-2022,13-56-14,8,depth_duration_stimuli/002788_2014-06-22_19-36-03_094959634447_rgbf000088-resize_2/002788_2014-06-22_19-36-03_094959634447_rgbf000088-resize_2-target.png,1000,1.6465,45,4068,999,meters,jsons/v1_VE1000_randls_76_rotated.json,1997369,2366375,34,Man
8,571519,DepthScenes,duration_manipulation_targetAtFixation,jsons/v1_VE1000_randls_76_rotated.json,http://54.235.29.9/FacialAge/BNav_EC2/DepthDuration/v2_depth_duration_MTurk/v2_DepthDuration_HTML.html#217,217,1517,730,1366,768,9-3-2022,13-56-14,9,depth_duration_stimuli/002995_2014-06-15_12-31-26_094959634447_rgbf000150-resize_1/002995_2014-06-15_12-31-26_094959634447_rgbf000150-resize_1-target.png,1000,3.8360000000000003,23,5412,998,meters,jsons/v1_VE1000_randls_76_rotated.json,1997369,2366375,34,Man
9,571519,DepthScenes,duration_manipulation_targetAtFixation,jsons/v1_VE1000_randls_76_rotated.json,http://54.235.29.9/FacialAge/BNav_EC2/DepthDuration/v2_depth_duration_MTurk/v2_DepthDuration_HTML.html#217,217,1517,730,1366,768,9-3-2022,13-56-14,10,depth_duration_stimuli/002748_2014-06-22_19-07-22_094959634447_rgbf000078-resize_1/002748_2014-06-22_19-07-22_094959634447_rgbf000078-resize_1-target.png,1000,4.6705,34,5436,1000,meters,jsons/v1_VE1000_randls_76_rotated.json,1997369,2366375,34,Man
10,571519,DepthScenes,duration_manipulation_targetAtFixation,jsons/v1_VE1000_randls_76_rotated.json,http://54.235.29.9/FacialAge/BNav_EC2/DepthDuration/v2_depth_duration_MTurk/v2_DepthDuration_HTML.html#217,217,1517,730,1366,768,9-3-2022,13-56-14,11,depth_duration_stimuli/002568_2014-06-24_13-59-21_094959634447_rgbf000062-resize_4/002568_2014-06-24_13-59-21_094959634447_rgbf000062-resize_4-target.png,1000,3.015,76,29317,999,meters,jsons/v1_VE1000_randls_76_rotated.json,1997369,2366375,34,Man
11,571519,DepthScenes,duration_manipulation_targetAtFixation,jsons/v1_VE1000_randls_76_rotated.json,http://54.235.29.9/FacialAge/BNav_EC2/DepthDuration/v2_depth_duration_MTurk/v2_DepthDuration_HTML.html#217,217,1517,730,1366,768,9-3-2022,13-56-14,12,depth_duration_stimuli/003492_2014-05-21_15-50-55_094959634447_rgbf000828-resize_1/003492_2014-05-21_15-50-55_094959634447_rgbf000828-resize_1-target.png,1000,4.06875,76,42433,1352,meters,jsons/v1_VE1000_randls_76_rotated.json,1997369,2366375,34,Man
12,571519,DepthScenes,duration_manipulation_targetAtFixation,jsons/v1_VE1000_randls_76_rotated.json,http://54.235.29.9/FacialAge/BNav_EC2/DepthDuration/v2_depth_duration_MTurk/v2_DepthDuration_HTML.html#217,217,1517,730,1366,768,9-3-2022,13-56-14,13,depth_duration_stimuli/001235_2014-06-17_16-37-36_260595134347_rgbf000084-resize_4/001235_2014-06-17_16-37-36_260595134347_rgbf000084-resize_4-target.png,1000,3.6605,88,21362,999,meters,jsons/v1_VE1000_randls_76_rotated.json,1997369,2366375,34,Man
13,571519,DepthScenes,duration_manipulation_targetAtFixation,jsons/v1_VE1000_randls_76_rotated.json,http://54.235.29.9/FacialAge/BNav_EC2/DepthDuration/v2_depth_duration_MTurk/v2_DepthDuration_HTML.html#217,217,1517,730,1366,768,9-3-2022,13-56-14,14,depth_duration_stimuli/000788_2014-06-08_22-34-36_260595134347_rgbf000131-resize_1/000788_2014-06-08_22-34-36_260595134347_rgbf000131-resize_1-target.png,1000,3.359,87,7820,1000,meters,jsons/v1_VE1000_randls_76_rotated.json,1997369,2366375,34,Man
14,571519,DepthScenes,duration_manipulation_targetAtFixation,jsons/v1_VE1000_randls_76_rotated.json,http://54.235.29.9/FacialAge/BNav_EC2/DepthDuration/v2_depth_duration_MTurk/v2_DepthDuration_HTML.html#217,217,1517,730,1366,768,9-3-2022,13-56-14,15,depth_duration_stimuli/003129_2014-05-12_10-48-10_094959634447_rgbf000100-resize_0/003129_2014-05-12_10-48-10_094959634447_rgbf000100-resize_0-target.png,1000,4.9305,34,13030,999,meters,jsons/v1_VE1000_randls_76_rotated.json,1997369,2366375,34,Man
15,571519,DepthScenes,duration_manipulation_targetAtFixation,jsons/v1_VE1000_randls_76_rotated.json,http://54.235.29.9/FacialAge/BNav_EC2/DepthDuration/v2_depth_duration_MTurk/v2_DepthDuration_HTML.html#217,217,1517,730,1366,768,9-3-2022,13-56-14,16,depth_duration_stimuli/000414_2014-06-04_19-49-13_260595134347_rgbf000044-resize_0/000414_2014-06-04_19-49-13_260595134347_rgbf000044-resize_0-target.png,1000,4.329,34,3324,999,meters,jsons/v1_VE1000_randls_76_rotated.json,1997369,2366375,34,Man
16,571519,DepthScenes,duration_manipulation_targetAtFixation,jsons/v1_VE1000_randls_76_rotated.json,http://54.235.29.9/FacialAge/BNav_EC2/DepthDuration/v2_depth_duration_MTurk/v2_DepthDuration_HTML.html#217,217,1517,730,1366,768,9-3-2022,13-56-14,17,depth_duration_stimuli/001132_2014-06-17_14-48-54_260595134347_rgbf000100-resize_2/001132_2014-06-17_14-48-54_260595134347_rgbf000100-resize_2-target.png,1000,3.753,34,4685,998,meters,jsons/v1_VE1000_randls_76_rotated.json,1997369,2366375,34,Man
17,571519,DepthScenes,duration_manipulation_targetAtFixation,jsons/v1_VE1000_randls_76_rotated.json,http://54.235.29.9/FacialAge/BNav_EC2/DepthDuration/v2_depth_duration_MTurk/v2_DepthDuration_HTML.html#217,217,1517,730,1366,768,9-3-2022,13-56-14,18,depth_duration_stimuli/001133_2014-06-17_14-49-16_260595134347_rgbf000100-resize_0/001133_2014-06-17_14-49-16_260595134347_rgbf000100-resize_0-target.png,1000,4.2115,78,39342,1000,meters,jsons/v1_VE1000_randls_76_rotated.json,1997369,2366375,34,Man
18,571519,DepthScenes,duration_manipulation_targetAtFixation,jsons/v1_VE1000_randls_76_rotated.json,http://54.235.29.9/FacialAge/BNav_EC2/DepthDuration/v2_depth_duration_MTurk/v2_DepthDuration_HTML.html#217,217,1517,730,1366,768,9-3-2022,13-56-14,19,depth_duration_stimuli/001498_2014-06-19_17-45-14_260595134347_rgbf000129-resize_4/001498_2014-06-19_17-45-14_260595134347_rgbf000129-resize-original.jpg,1000,1.4075,45,5124,998,meters,jsons/v1_VE1000_randls_76_rotated.json,1997369,2366375,34,Man
19,571519,DepthScenes,duration_manipulation_targetAtFixation,jsons/v1_VE1000_randls_76_rotated.json,http://54.235.29.9/FacialAge/BNav_EC2/DepthDuration/v2_depth_duration_MTurk/v2_DepthDuration_HTML.html#217,217,1517,730,1366,768,9-3-2022,13-56-14,20,depth_duration_stimuli/000665_2014-06-09_20-42-35_260595134347_rgbf000110-resize_1/000665_2014-06-09_20-42-35_260595134347_rgbf000110-resize_1-target.png,1000,3.057,87,18171,941,meters,jsons/v1_VE1000_randls_76_rotated.json,1997369,2366375,34,Man
20,571519,DepthScenes,duration_manipulation_targetAtFixation,jsons/v1_VE1000_randls_76_rotated.json,http://54.235.29.9/FacialAge/BNav_EC2/DepthDuration/v2_depth_duration_MTurk/v2_DepthDuration_HTML.html#217,217,1517,730,1366,768,9-3-2022,13-56-14,21,depth_duration_stimuli/001150_2014-06-17_15-27-34_260595134347_rgbf000108-resize_2/001150_2014-06-17_15-27-34_260595134347_rgbf000108-resize_2-target.png,1000,4.0325,76,6529,999,meters,jsons/v1_VE1000_randls_76_rotated.json,1997369,2366375,34,Man
21,571519,DepthScenes,duration_manipulation_targetAtFixation,jsons/v1_VE1000_randls_76_rotated.json,http://54.235.29.9/FacialAge/BNav_EC2/DepthDuration/v2_depth_duration_MTurk/v2_DepthDuration_HTML.html#217,217,1517,730,1366,768,9-3-2022,13-56-14,22,depth_duration_stimuli/003495_2014-05-21_16-01-51_094959634447_rgbf000100-resize_3/003495_2014-05-21_16-01-51_094959634447_rgbf000100-resize_3-target.png,1000,1.6255,87,5707,997,meters,jsons/v1_VE1000_randls_76_rotated.json,1997369,2366375,34,Man
22,571519,DepthScenes,duration_manipulation_targetAtFixation,jsons/v1_VE1000_randls_76_rotated.json,http://54.235.29.9/FacialAge/BNav_EC2/DepthDuration/v2_depth_duration_MTurk/v2_DepthDuration_HTML.html#217,217,1517,730,1366,768,9-3-2022,13-56-14,23,depth_duration_stimuli/001244_2014-06-17_16-47-45_260595134347_rgbf000030-resize_4/001244_2014-06-17_16-47-45_260595134347_rgbf000030-resize_4-target.png,1000,2.0425,87,30619,999,meters,jsons/v1_VE1000_randls_76_rotated.json,1997369,2366375,34,Man
23,571519,DepthScenes,duration_manipulation_targetAtFixation,jsons/v1_VE1000_randls_76_rotated.json,http://54.235.29.9/FacialAge/BNav_EC2/DepthDuration/v2_depth_duration_MTurk/v2_DepthDuration_HTML.html#217,217,1517,730,1366,768,9-3-2022,13-56-14,24,depth_duration_stimuli/000734_2014-06-08_17-39-11_260595134347_rgbf000128-resize_2/000734_2014-06-08_17-39-11_260595134347_rgbf000128-resize_2-target.png,1000,4.098,98,14978,1000,meters,jsons/v1_VE1000_randls_76_rotated.json,1997369,2366375,34,Man
24,571519,DepthScenes,duration_manipulation_targetAtFixation,jsons/v1_VE1000_randls_76_rotated.json,http://54.235.29.9/FacialAge/BNav_EC2/DepthDuration/v2_depth_duration_MTurk/v2_DepthDuration_HTML.html#217,217,1517,730,1366,768,9-3-2022,13-56-14,25,depth_duration_stimuli/000739_2014-06-08_18-45-58_260595134347_rgbf000068-resize_1/000739_2014-06-08_18-45-58_260595134347_rgbf000068-resize_1-target.png,1000,3.534,98,15438,998,meters,jsons/v1_VE1000_randls_76_rotated.json,1997369,2366375,34,Man
25,571519,DepthScenes,duration_manipulation_targetAtFixation,jsons/v1_VE1000_randls_76_rotated.json,http://54.235.29.9/FacialAge/BNav_EC2/DepthDuration/v2_depth_duration_MTurk/v2_DepthDuration_HTML.html#217,217,1517,730,1366,768,9-3-2022,13-56-14,26,depth_duration_stimuli/000137_2014-05-20_17-04-49_260595134347_rgbf000120-resize_1/000137_2014-05-20_17-04-49_260595134347_rgbf000120-resize_1-target.png,1000,3.786,87,8218,998,meters,jsons/v1_VE1000_randls_76_rotated.json,1997369,2366375,34,Man
26,571519,DepthScenes,duration_manipulation_targetAtFixation,jsons/v1_VE1000_randls_76_rotated.json,http://54.235.29.9/FacialAge/BNav_EC2/DepthDuration/v2_depth_duration_MTurk/v2_DepthDuration_HTML.html#217,217,1517,730,1366,768,9-3-2022,13-56-14,27,depth_duration_stimuli/000736_2014-06-08_18-24-15_260595134347_rgbf000206-resize_3/000736_2014-06-08_18-24-15_260595134347_rgbf000206-resize_3-target.png,1000,3.515,57,41245,1000,meters,jsons/v1_VE1000_randls_76_rotated.json,1997369,2366375,34,Man
27,571519,DepthScenes,duration_manipulation_targetAtFixation,jsons/v1_VE1000_randls_76_rotated.json,http://54.235.29.9/FacialAge/BNav_EC2/DepthDuration/v2_depth_duration_MTurk/v2_DepthDuration_HTML.html#217,217,1517,730,1366,768,9-3-2022,13-56-14,28,depth_duration_stimuli/001450_2014-06-19_17-02-03_260595134347_rgbf000203-resize_4/001450_2014-06-19_17-02-03_260595134347_rgbf000203-resize_4-target.png,1000,4.0106666666667,33,3914,999,meters,jsons/v1_VE1000_randls_76_rotated.json,1997369,2366375,34,Man
28,571519,DepthScenes,duration_manipulation_targetAtFixation,jsons/v1_VE1000_randls_76_rotated.json,http://54.235.29.9/FacialAge/BNav_EC2/DepthDuration/v2_depth_duration_MTurk/v2_DepthDuration_HTML.html#217,217,1517,730,1366,768,9-3-2022,13-56-14,29,depth_duration_stimuli/001449_2014-06-19_17-01-27_260595134347_rgbf000116-resize_2/001449_2014-06-19_17-01-27_260595134347_rgbf000116-resize_2-target.png,1000,3.452,23,3416,999,meters,jsons/v1_VE1000_randls_76_rotated.json,1997369,2366375,34,Man
29,571519,DepthScenes,duration_manipulation_targetAtFixation,jsons/v1_VE1000_randls_76_rotated.json,http://54.235.29.9/FacialAge/BNav_EC2/DepthDuration/v2_depth_duration_MTurk/v2_DepthDuration_HTML.html#217,217,1517,730,1366,768,9-3-2022,13-56-14,30,depth_duration_stimuli/002072_2014-06-24_21-48-06_260595134347_rgbf000115-resize_0/002072_2014-06-24_21-48-06_260595134347_rgbf000115-resize-original.jpg,1000,4.702,76,4049,998,meters,jsons/v1_VE1000_randls_76_rotated.json,1997369,2366375,34,Man
30,571519,DepthScenes,duration_manipulation_targetAtFixation,jsons/v1_VE1000_randls_76_rotated.json,http://54.235.29.9/FacialAge/BNav_EC2/DepthDuration/v2_depth_duration_MTurk/v2_DepthDuration_HTML.html#217,217,1517,730,1366,768,9-3-2022,13-56-14,31,depth_duration_stimuli/000483_2014-06-09_20-41-45_260595134347_rgbf000116-resize_4/000483_2014-06-09_20-41-45_260595134347_rgbf000116-resize_4-target.png,1000,1.337,89,7358,998,meters,jsons/v1_VE1000_randls_76_rotated.json,1997369,2366375,34,Man
31,571519,DepthScenes,duration_manipulation_targetAtFixation,jsons/v1_VE1000_randls_76_rotated.json,http://54.235.29.9/FacialAge/BNav_EC2/DepthDuration/v2_depth_duration_MTurk/v2_DepthDuration_HTML.html#217,217,1517,730,1366,768,9-3-2022,13-56-14,32,depth_duration_stimuli/000469_2014-06-09_19-42-10_260595134347_rgbf000081-resize_1/000469_2014-06-09_19-42-10_260595134347_rgbf000081-resize_1-target.png,1000,1.652,98,7846,998,meters,jsons/v1_VE1000_randls_76_rotated.json,1997369,2366375,34,Man
32,571519,DepthScenes,duration_manipulation_targetAtFixation,jsons/v1_VE1000_randls_76_rotated.json,http://54.235.29.9/FacialAge/BNav_EC2/DepthDuration/v2_depth_duration_MTurk/v2_DepthDuration_HTML.html#217,217,1517,730,1366,768,9-3-2022,13-56-14,33,depth_duration_stimuli/002545_2014-06-24_13-38-53_094959634447_rgbf000080-resize_4/002545_2014-06-24_13-38-53_094959634447_rgbf000080-resize_4-target.png,1000,1.9205,98,5192,1000,meters,jsons/v1_VE1000_randls_76_rotated.json,1997369,2366375,34,Man
33,571519,DepthScenes,duration_manipulation_targetAtFixation,jsons/v1_VE1000_randls_76_rotated.json,http://54.235.29.9/FacialAge/BNav_EC2/DepthDuration/v2_depth_duration_MTurk/v2_DepthDuration_HTML.html#217,217,1517,730,1366,768,9-3-2022,13-56-14,34,depth_duration_stimuli/001092_2014-06-15_17-34-58_260595134347_rgbf000171-resize_3/001092_2014-06-15_17-34-58_260595134347_rgbf000171-resize_3-target.png,1000,2.6935,76,5070,983,meters,jsons/v1_VE1000_randls_76_rotated.json,1997369,2366375,34,Man
34,571519,DepthScenes,duration_manipulation_targetAtFixation,jsons/v1_VE1000_randls_76_rotated.json,http://54.235.29.9/FacialAge/BNav_EC2/DepthDuration/v2_depth_duration_MTurk/v2_DepthDuration_HTML.html#217,217,1517,730,1366,768,9-3-2022,13-56-14,35,depth_duration_stimuli/000635_2014-06-08_16-38-42_260595134347_rgbf000106-resize_1/000635_2014-06-08_16-38-42_260595134347_rgbf000106-resize_1-target.png,1000,2.074,54,10421,873,meters,jsons/v1_VE1000_randls_76_rotated.json,1997369,2366375,34,Man
35,571519,DepthScenes,duration_manipulation_targetAtFixation,jsons/v1_VE1000_randls_76_rotated.json,http://54.235.29.9/FacialAge/BNav_EC2/DepthDuration/v2_depth_duration_MTurk/v2_DepthDuration_HTML.html#217,217,1517,730,1366,768,9-3-2022,13-56-14,36,depth_duration_stimuli/002279_2014-06-28_18-55-32_260595134347_rgbf000040-resize_5/002279_2014-06-28_18-55-32_260595134347_rgbf000040-resize_5-target.png,1000,1.5043333333333,87,8458,1000,meters,jsons/v1_VE1000_randls_76_rotated.json,1997369,2366375,34,Man
36,571519,DepthScenes,duration_manipulation_targetAtFixation,jsons/v1_VE1000_randls_76_rotated.json,http://54.235.29.9/FacialAge/BNav_EC2/DepthDuration/v2_depth_duration_MTurk/v2_DepthDuration_HTML.html#217,217,1517,730,1366,768,9-3-2022,13-56-14,37,depth_duration_stimuli/000191_2014-05-12_17-07-38_260595134347_rgbf000199-resize_0/000191_2014-05-12_17-07-38_260595134347_rgbf000199-resize_0-target.png,1000,3.7995,87,22739,998,meters,jsons/v1_VE1000_randls_76_rotated.json,1997369,2366375,34,Man
37,571519,DepthScenes,duration_manipulation_targetAtFixation,jsons/v1_VE1000_randls_76_rotated.json,http://54.235.29.9/FacialAge/BNav_EC2/DepthDuration/v2_depth_duration_MTurk/v2_DepthDuration_HTML.html#217,217,1517,730,1366,768,9-3-2022,13-56-14,38,depth_duration_stimuli/000493_2014-06-09_21-01-18_260595134347_rgbf000196-resize_3/000493_2014-06-09_21-01-18_260595134347_rgbf000196-resize_3-target.png,1000,3.44,98,5327,999,meters,jsons/v1_VE1000_randls_76_rotated.json,1997369,2366375,34,Man
38,571519,DepthScenes,duration_manipulation_targetAtFixation,jsons/v1_VE1000_randls_76_rotated.json,http://54.235.29.9/FacialAge/BNav_EC2/DepthDuration/v2_depth_duration_MTurk/v2_DepthDuration_HTML.html#217,217,1517,730,1366,768,9-3-2022,13-56-14,39,depth_duration_stimuli/003490_2014-05-21_15-50-11_094959634447_rgbf000101-resize_3/003490_2014-05-21_15-50-11_094959634447_rgbf000101-resize_3-target.png,1000,3.6445,98,6680,1073,meters,jsons/v1_VE1000_randls_76_rotated.json,1997369,2366375,34,Man
39,571519,DepthScenes,duration_manipulation_targetAtFixation,jsons/v1_VE1000_randls_76_rotated.json,http://54.235.29.9/FacialAge/BNav_EC2/DepthDuration/v2_depth_duration_MTurk/v2_DepthDuration_HTML.html#217,217,1517,730,1366,768,9-3-2022,13-56-14,40,depth_duration_stimuli/001175_2014-06-17_15-45-55_260595134347_rgbf000129-resize_4/001175_2014-06-17_15-45-55_260595134347_rgbf000129-resize_4-target.png,1000,4.255,87,8897,998,meters,jsons/v1_VE1000_randls_76_rotated.json,1997369,2366375,34,Man
40,571519,DepthScenes,duration_manipulation_targetAtFixation,jsons/v1_VE1000_randls_76_rotated.json,http://54.235.29.9/FacialAge/BNav_EC2/DepthDuration/v2_depth_duration_MTurk/v2_DepthDuration_HTML.html#217,217,1517,730,1366,768,9-3-2022,13-56-14,41,depth_duration_stimuli/003010_2014-06-15_12-54-35_094959634447_rgbf000112-resize_0/003010_2014-06-15_12-54-35_094959634447_rgbf000112-resize_0-target.png,1000,3.1185,54,5719,999,meters,jsons/v1_VE1000_randls_76_rotated.json,1997369,2366375,34,Man
41,571519,DepthScenes,duration_manipulation_targetAtFixation,jsons/v1_VE1000_randls_76_rotated.json,http://54.235.29.9/FacialAge/BNav_EC2/DepthDuration/v2_depth_duration_MTurk/v2_DepthDuration_HTML.html#217,217,1517,730,1366,768,9-3-2022,13-56-14,42,depth_duration_stimuli/001810_2014-06-26_20-51-35_260595134347_rgbf000040-resize_3/001810_2014-06-26_20-51-35_260595134347_rgbf000040-resize_3-target.png,1000,2.2525,98,7388,997,meters,jsons/v1_VE1000_randls_76_rotated.json,1997369,2366375,34,Man
42,571519,DepthScenes,duration_manipulation_targetAtFixation,jsons/v1_VE1000_randls_76_rotated.json,http://54.235.29.9/FacialAge/BNav_EC2/DepthDuration/v2_depth_duration_MTurk/v2_DepthDuration_HTML.html#217,217,1517,730,1366,768,9-3-2022,13-56-14,43,depth_duration_stimuli/001815_2014-06-26_20-52-55_260595134347_rgbf000020-resize_0/001815_2014-06-26_20-52-55_260595134347_rgbf000020-resize_0-target.png,1000,3.3865,87,10817,1116,meters,jsons/v1_VE1000_randls_76_rotated.json,1997369,2366375,34,Man
43,571519,DepthScenes,duration_manipulation_targetAtFixation,jsons/v1_VE1000_randls_76_rotated.json,http://54.235.29.9/FacialAge/BNav_EC2/DepthDuration/v2_depth_duration_MTurk/v2_DepthDuration_HTML.html#217,217,1517,730,1366,768,9-3-2022,13-56-14,44,depth_duration_stimuli/001808_2014-06-26_20-50-58_260595134347_rgbf000029-resize_1/001808_2014-06-26_20-50-58_260595134347_rgbf000029-resize_1-target.png,1000,4.249,87,10186,999,meters,jsons/v1_VE1000_randls_76_rotated.json,1997369,2366375,34,Man
44,571519,DepthScenes,duration_manipulation_targetAtFixation,jsons/v1_VE1000_randls_76_rotated.json,http://54.235.29.9/FacialAge/BNav_EC2/DepthDuration/v2_depth_duration_MTurk/v2_DepthDuration_HTML.html#217,217,1517,730,1366,768,9-3-2022,13-56-14,45,depth_duration_stimuli/000780_2014-06-08_22-28-29_260595134347_rgbf000126-resize_1/000780_2014-06-08_22-28-29_260595134347_rgbf000126-resize_1-target.png,1000,3.3825,87,6137,973,meters,jsons/v1_VE1000_randls_76_rotated.json,1997369,2366375,34,Man
45,571519,DepthScenes,duration_manipulation_targetAtFixation,jsons/v1_VE1000_randls_76_rotated.json,http://54.235.29.9/FacialAge/BNav_EC2/DepthDuration/v2_depth_duration_MTurk/v2_DepthDuration_HTML.html#217,217,1517,730,1366,768,9-3-2022,13-56-14,46,depth_duration_stimuli/002445_2014-06-28_20-32-16_260595134347_rgbf000029-resize_4/002445_2014-06-28_20-32-16_260595134347_rgbf000029-resize_4-target.png,1000,2.5315,54,7537,1104,meters,jsons/v1_VE1000_randls_76_rotated.json,1997369,2366375,34,Man
46,571519,DepthScenes,duration_manipulation_targetAtFixation,jsons/v1_VE1000_randls_76_rotated.json,http://54.235.29.9/FacialAge/BNav_EC2/DepthDuration/v2_depth_duration_MTurk/v2_DepthDuration_HTML.html#217,217,1517,730,1366,768,9-3-2022,13-56-14,47,depth_duration_stimuli/001617_2014-06-20_11-35-32_260595134347_rgbf000066-resize_1/001617_2014-06-20_11-35-32_260595134347_rgbf000066-resize_1-target.png,1000,3.7910000000000004,98,12119,998,meters,jsons/v1_VE1000_randls_76_rotated.json,1997369,2366375,34,Man
47,571519,DepthScenes,duration_manipulation_targetAtFixation,jsons/v1_VE1000_randls_76_rotated.json,http://54.235.29.9/FacialAge/BNav_EC2/DepthDuration/v2_depth_duration_MTurk/v2_DepthDuration_HTML.html#217,217,1517,730,1366,768,9-3-2022,13-56-14,48,depth_duration_stimuli/001806_2014-06-26_20-50-20_260595134347_rgbf000091-resize_1/001806_2014-06-26_20-50-20_260595134347_rgbf000091-resize_1-target.png,1000,2.7305,79,8198,999,meters,jsons/v1_VE1000_randls_76_rotated.json,1997369,2366375,34,Man
48,571519,DepthScenes,duration_manipulation_targetAtFixation,jsons/v1_VE1000_randls_76_rotated.json,http://54.235.29.9/FacialAge/BNav_EC2/DepthDuration/v2_depth_duration_MTurk/v2_DepthDuration_HTML.html#217,217,1517,730,1366,768,9-3-2022,13-56-14,49,depth_duration_stimuli/001170_2014-06-17_15-43-44_260595134347_rgbf000096-resize_6/001170_2014-06-17_15-43-44_260595134347_rgbf000096-resize-original.jpg,1000,1.1909999999999998,98,6598,1000,meters,jsons/v1_VE1000_randls_76_rotated.json,1997369,2366375,34,Man
49,571519,DepthScenes,duration_manipulation_targetAtFixation,jsons/v1_VE1000_randls_76_rotated.json,http://54.235.29.9/FacialAge/BNav_EC2/DepthDuration/v2_depth_duration_MTurk/v2_DepthDuration_HTML.html#217,217,1517,730,1366,768,9-3-2022,13-56-14,50,depth_duration_stimuli/000927_2014-06-09_16-32-30_260595134347_rgbf000123-resize_3/000927_2014-06-09_16-32-30_260595134347_rgbf000123-resize_3-target.png,1000,2.6785,54,7397,999,meters,jsons/v1_VE1000_randls_76_rotated.json,1997369,2366375,34,Man
50,571519,DepthScenes,duration_manipulation_targetAtFixation,jsons/v1_VE1000_randls_76_rotated.json,http://54.235.29.9/FacialAge/BNav_EC2/DepthDuration/v2_depth_duration_MTurk/v2_DepthDuration_HTML.html#217,217,1517,730,1366,768,9-3-2022,13-56-14,51,depth_duration_stimuli/001110_2014-06-15_17-25-28_260595134347_rgbf000150-resize_1/001110_2014-06-15_17-25-28_260595134347_rgbf000150-resize_1-target.png,1000,1.7115,49,8705,875,meters,jsons/v1_VE1000_randls_76_rotated.json,1997369,2366375,34,Man
51,571519,DepthScenes,duration_manipulation_targetAtFixation,jsons/v1_VE1000_randls_76_rotated.json,http://54.235.29.9/FacialAge/BNav_EC2/DepthDuration/v2_depth_duration_MTurk/v2_DepthDuration_HTML.html#217,217,1517,730,1366,768,9-3-2022,13-56-14,52,depth_duration_stimuli/002758_2014-06-22_19-11-20_094959634447_rgbf000128-resize_1/002758_2014-06-22_19-11-20_094959634447_rgbf000128-resize_1-target.png,1000,2.555,76,54314,1000,meters,jsons/v1_VE1000_randls_76_rotated.json,1997369,2366375,34,Man
52,571519,DepthScenes,duration_manipulation_targetAtFixation,jsons/v1_VE1000_randls_76_rotated.json,http://54.235.29.9/FacialAge/BNav_EC2/DepthDuration/v2_depth_duration_MTurk/v2_DepthDuration_HTML.html#217,217,1517,730,1366,768,9-3-2022,13-56-14,53,depth_duration_stimuli/002630_2014-06-24_14-47-50_094959634447_rgbf000055-resize_1/002630_2014-06-24_14-47-50_094959634447_rgbf000055-resize_1-target.png,1000,3.0095,65,5222,981,meters,jsons/v1_VE1000_randls_76_rotated.json,1997369,2366375,34,Man
53,571519,DepthScenes,duration_manipulation_targetAtFixation,jsons/v1_VE1000_randls_76_rotated.json,http://54.235.29.9/FacialAge/BNav_EC2/DepthDuration/v2_depth_duration_MTurk/v2_DepthDuration_HTML.html#217,217,1517,730,1366,768,9-3-2022,13-56-14,54,depth_duration_stimuli/002875_2014-06-01_15-19-00_094959634447_rgbf000151-resize_1/002875_2014-06-01_15-19-00_094959634447_rgbf000151-resize_1-target.png,1000,1.9675,43,6830,999,meters,jsons/v1_VE1000_randls_76_rotated.json,1997369,2366375,34,Man
54,571519,DepthScenes,duration_manipulation_targetAtFixation,jsons/v1_VE1000_randls_76_rotated.json,http://54.235.29.9/FacialAge/BNav_EC2/DepthDuration/v2_depth_duration_MTurk/v2_DepthDuration_HTML.html#217,217,1517,730,1366,768,9-3-2022,13-56-14,55,depth_duration_stimuli/001011_2014-06-08_23-18-54_260595134347_rgbf000044-resize_4/001011_2014-06-08_23-18-54_260595134347_rgbf000044-resize_4-target.png,1000,2.4730000000000003,87,5088,998,meters,jsons/v1_VE1000_randls_76_rotated.json,1997369,2366375,34,Man
55,571519,DepthScenes,duration_manipulation_targetAtFixation,jsons/v1_VE1000_randls_76_rotated.json,http://54.235.29.9/FacialAge/BNav_EC2/DepthDuration/v2_depth_duration_MTurk/v2_DepthDuration_HTML.html#217,217,1517,730,1366,768,9-3-2022,13-56-14,56,depth_duration_stimuli/000691_2014-06-08_13-08-50_260595134347_rgbf000132-resize_3/000691_2014-06-08_13-08-50_260595134347_rgbf000132-resize_3-target.png,1000,4.1530000000000005,43,4828,1029,meters,jsons/v1_VE1000_randls_76_rotated.json,1997369,2366375,34,Man
56,571519,DepthScenes,duration_manipulation_targetAtFixation,jsons/v1_VE1000_randls_76_rotated.json,http://54.235.29.9/FacialAge/BNav_EC2/DepthDuration/v2_depth_duration_MTurk/v2_DepthDuration_HTML.html#217,217,1517,730,1366,768,9-3-2022,13-56-14,57,depth_duration_stimuli/002213_2014-06-28_18-37-58_260595134347_rgbf000055-resize_1/002213_2014-06-28_18-37-58_260595134347_rgbf000055-resize_1-target.png,1000,3.62,43,8282,998,meters,jsons/v1_VE1000_randls_76_rotated.json,1997369,2366375,34,Man
57,571519,DepthScenes,duration_manipulation_targetAtFixation,jsons/v1_VE1000_randls_76_rotated.json,http://54.235.29.9/FacialAge/BNav_EC2/DepthDuration/v2_depth_duration_MTurk/v2_DepthDuration_HTML.html#217,217,1517,730,1366,768,9-3-2022,13-56-14,58,depth_duration_stimuli/002805_2014-06-22_19-54-03_094959634447_rgbf000079-resize_1/002805_2014-06-22_19-54-03_094959634447_rgbf000079-resize_1-target.png,1000,3.1439999999999997,54,5570,997,meters,jsons/v1_VE1000_randls_76_rotated.json,1997369,2366375,34,Man
58,571519,DepthScenes,duration_manipulation_targetAtFixation,jsons/v1_VE1000_randls_76_rotated.json,http://54.235.29.9/FacialAge/BNav_EC2/DepthDuration/v2_depth_duration_MTurk/v2_DepthDuration_HTML.html#217,217,1517,730,1366,768,9-3-2022,13-56-14,59,depth_duration_stimuli/000906_2014-06-08_13-35-43_260595134347_rgbf000155-resize_1/000906_2014-06-08_13-35-43_260595134347_rgbf000155-resize_1-target.png,1000,2.8489999999999998,76,5859,1110,meters,jsons/v1_VE1000_randls_76_rotated.json,1997369,2366375,34,Man
59,571519,DepthScenes,duration_manipulation_targetAtFixation,jsons/v1_VE1000_randls_76_rotated.json,http://54.235.29.9/FacialAge/BNav_EC2/DepthDuration/v2_depth_duration_MTurk/v2_DepthDuration_HTML.html#217,217,1517,730,1366,768,9-3-2022,13-56-14,60,depth_duration_stimuli/001032_2014-06-08_13-23-17_260595134347_rgbf000021-resize_3/001032_2014-06-08_13-23-17_260595134347_rgbf000021-resize_3-target.png,1000,3.2725,32,5469,1082,meters,jsons/v1_VE1000_randls_76_rotated.json,1997369,2366375,34,Man
60,571519,DepthScenes,duration_manipulation_targetAtFixation,jsons/v1_VE1000_randls_76_rotated.json,http://54.235.29.9/FacialAge/BNav_EC2/DepthDuration/v2_depth_duration_MTurk/v2_DepthDuration_HTML.html#217,217,1517,730,1366,768,9-3-2022,13-56-14,61,depth_duration_stimuli/001059_2014-06-08_21-53-27_260595134347_rgbf000061-resize_4/001059_2014-06-08_21-53-27_260595134347_rgbf000061-resize_4-target.png,1000,2.4185,87,5395,999,meters,jsons/v1_VE1000_randls_76_rotated.json,1997369,2366375,34,Man
61,571519,DepthScenes,duration_manipulation_targetAtFixation,jsons/v1_VE1000_randls_76_rotated.json,http://54.235.29.9/FacialAge/BNav_EC2/DepthDuration/v2_depth_duration_MTurk/v2_DepthDuration_HTML.html#217,217,1517,730,1366,768,9-3-2022,13-56-14,62,depth_duration_stimuli/002639_2014-06-24_14-51-37_094959634447_rgbf000074-resize_4/002639_2014-06-24_14-51-37_094959634447_rgbf000074-resize_4-target.png,1000,4.0375,87,39461,999,meters,jsons/v1_VE1000_randls_76_rotated.json,1997369,2366375,34,Man
62,571519,DepthScenes,duration_manipulation_targetAtFixation,jsons/v1_VE1000_randls_76_rotated.json,http://54.235.29.9/FacialAge/BNav_EC2/DepthDuration/v2_depth_duration_MTurk/v2_DepthDuration_HTML.html#217,217,1517,730,1366,768,9-3-2022,13-56-14,63,depth_duration_stimuli/003292_2014-05-14_21-53-49_094959634447_rgbf000100-resize_2/003292_2014-05-14_21-53-49_094959634447_rgbf000100-resize_2-target.png,1000,3.4815,76,12574,999,meters,jsons/v1_VE1000_randls_76_rotated.json,1997369,2366375,34,Man
63,571519,DepthScenes,duration_manipulation_targetAtFixation,jsons/v1_VE1000_randls_76_rotated.json,http://54.235.29.9/FacialAge/BNav_EC2/DepthDuration/v2_depth_duration_MTurk/v2_DepthDuration_HTML.html#217,217,1517,730,1366,768,9-3-2022,13-56-14,64,depth_duration_stimuli/000103_2014-05-14_22-01-17_260595134347_rgbf000152-resize_5/000103_2014-05-14_22-01-17_260595134347_rgbf000152-resize_5-target.png,1000,1.993,54,6027,1031,meters,jsons/v1_VE1000_randls_76_rotated.json,1997369,2366375,34,Man
64,571519,DepthScenes,duration_manipulation_targetAtFixation,jsons/v1_VE1000_randls_76_rotated.json,http://54.235.29.9/FacialAge/BNav_EC2/DepthDuration/v2_depth_duration_MTurk/v2_DepthDuration_HTML.html#217,217,1517,730,1366,768,9-3-2022,13-56-14,65,depth_duration_stimuli/001555_2014-06-20_17-12-10_260595134347_rgbf000065-resize_4/001555_2014-06-20_17-12-10_260595134347_rgbf000065-resize_4-target.png,1000,1.633,43,7939,998,meters,jsons/v1_VE1000_randls_76_rotated.json,1997369,2366375,34,Man
65,571519,DepthScenes,duration_manipulation_targetAtFixation,jsons/v1_VE1000_randls_76_rotated.json,http://54.235.29.9/FacialAge/BNav_EC2/DepthDuration/v2_depth_duration_MTurk/v2_DepthDuration_HTML.html#217,217,1517,730,1366,768,9-3-2022,13-56-14,66,depth_duration_stimuli/001540_2014-06-20_17-01-05_260595134347_rgbf000086-resize_2/001540_2014-06-20_17-01-05_260595134347_rgbf000086-resize-original.jpg,1000,1.459,65,12108,999,meters,jsons/v1_VE1000_randls_76_rotated.json,1997369,2366375,34,Man
66,571519,DepthScenes,duration_manipulation_targetAtFixation,jsons/v1_VE1000_randls_76_rotated.json,http://54.235.29.9/FacialAge/BNav_EC2/DepthDuration/v2_depth_duration_MTurk/v2_DepthDuration_HTML.html#217,217,1517,730,1366,768,9-3-2022,13-56-14,67,depth_duration_stimuli/000709_2014-06-08_13-51-55_260595134347_rgbf000068-resize_3/000709_2014-06-08_13-51-55_260595134347_rgbf000068-resize_3-target.png,1000,1.8030000000000002,47,11227,998,meters,jsons/v1_VE1000_randls_76_rotated.json,1997369,2366375,34,Man
67,571519,DepthScenes,duration_manipulation_targetAtFixation,jsons/v1_VE1000_randls_76_rotated.json,http://54.235.29.9/FacialAge/BNav_EC2/DepthDuration/v2_depth_duration_MTurk/v2_DepthDuration_HTML.html#217,217,1517,730,1366,768,9-3-2022,13-56-14,68,depth_duration_stimuli/002057_2014-06-24_21-00-13_260595134347_rgbf000120-resize_1/002057_2014-06-24_21-00-13_260595134347_rgbf000120-resize_1-target.png,1000,2.967,34,7326,998,meters,jsons/v1_VE1000_randls_76_rotated.json,1997369,2366375,34,Man
68,571519,DepthScenes,duration_manipulation_targetAtFixation,jsons/v1_VE1000_randls_76_rotated.json,http://54.235.29.9/FacialAge/BNav_EC2/DepthDuration/v2_depth_duration_MTurk/v2_DepthDuration_HTML.html#217,217,1517,730,1366,768,9-3-2022,13-56-14,69,depth_duration_stimuli/001136_2014-06-17_15-19-41_260595134347_rgbf000076-resize_3/001136_2014-06-17_15-19-41_260595134347_rgbf000076-resize_3-target.png,1000,1.8655,65,54800,1045,meters,jsons/v1_VE1000_randls_76_rotated.json,1997369,2366375,34,Man
69,571519,DepthScenes,duration_manipulation_targetAtFixation,jsons/v1_VE1000_randls_76_rotated.json,http://54.235.29.9/FacialAge/BNav_EC2/DepthDuration/v2_depth_duration_MTurk/v2_DepthDuration_HTML.html#217,217,1517,730,1366,768,9-3-2022,13-56-14,70,depth_duration_stimuli/001164_2014-06-17_15-35-46_260595134347_rgbf000085-resize_3/001164_2014-06-17_15-35-46_260595134347_rgbf000085-resize_3-target.png,1000,2.354,76,13987,999,meters,jsons/v1_VE1000_randls_76_rotated.json,1997369,2366375,34,Man
70,571519,DepthScenes,duration_manipulation_targetAtFixation,jsons/v1_VE1000_randls_76_rotated.json,http://54.235.29.9/FacialAge/BNav_EC2/DepthDuration/v2_depth_duration_MTurk/v2_DepthDuration_HTML.html#217,217,1517,730,1366,768,9-3-2022,13-56-14,71,depth_duration_stimuli/002637_2014-06-24_14-51-13_094959634447_rgbf000066-resize_4/002637_2014-06-24_14-51-13_094959634447_rgbf000066-resize_4-target.png,1000,1.9955,46,6370,1138,meters,jsons/v1_VE1000_randls_76_rotated.json,1997369,2366375,34,Man
71,571519,DepthScenes,duration_manipulation_targetAtFixation,jsons/v1_VE1000_randls_76_rotated.json,http://54.235.29.9/FacialAge/BNav_EC2/DepthDuration/v2_depth_duration_MTurk/v2_DepthDuration_HTML.html#217,217,1517,730,1366,768,9-3-2022,13-56-14,72,depth_duration_stimuli/003534_2014-05-22_15-06-10_094959634447_rgbf000102-resize_4/003534_2014-05-22_15-06-10_094959634447_rgbf000102-resize_4-target.png,1000,1.426,23,3678,998,meters,jsons/v1_VE1000_randls_76_rotated.json,1997369,2366375,34,Man
72,571519,DepthScenes,duration_manipulation_targetAtFixation,jsons/v1_VE1000_randls_76_rotated.json,http://54.235.29.9/FacialAge/BNav_EC2/DepthDuration/v2_depth_duration_MTurk/v2_DepthDuration_HTML.html#217,217,1517,730,1366,768,9-3-2022,13-56-14,73,depth_duration_stimuli/002136_2014-06-25_21-18-03_260595134347_rgbf000109-resize_3/002136_2014-06-25_21-18-03_260595134347_rgbf000109-resize_3-target.png,1000,1.9569999999999999,23,4026,998,meters,jsons/v1_VE1000_randls_76_rotated.json,1997369,2366375,34,Man
73,571519,DepthScenes,duration_manipulation_targetAtFixation,jsons/v1_VE1000_randls_76_rotated.json,http://54.235.29.9/FacialAge/BNav_EC2/DepthDuration/v2_depth_duration_MTurk/v2_DepthDuration_HTML.html#217,217,1517,730,1366,768,9-3-2022,13-56-14,74,depth_duration_stimuli/002964_2014-06-08_17-46-11_094959634447_rgbf000091-resize_4/002964_2014-06-08_17-46-11_094959634447_rgbf000091-resize_4-target.png,1000,1.6909999999999998,23,10417,999,meters,jsons/v1_VE1000_randls_76_rotated.json,1997369,2366375,34,Man
74,571519,DepthScenes,duration_manipulation_targetAtFixation,jsons/v1_VE1000_randls_76_rotated.json,http://54.235.29.9/FacialAge/BNav_EC2/DepthDuration/v2_depth_duration_MTurk/v2_DepthDuration_HTML.html#217,217,1517,730,1366,768,9-3-2022,13-56-14,75,depth_duration_stimuli/000854_2014-06-09_19-43-13_260595134347_rgbf000066-resize_0/000854_2014-06-09_19-43-13_260595134347_rgbf000066-resize_0-target.png,1000,3.068,67,3542,1000,meters,jsons/v1_VE1000_randls_76_rotated.json,1997369,2366375,34,Man
75,571519,DepthScenes,duration_manipulation_targetAtFixation,jsons/v1_VE1000_randls_76_rotated.json,http://54.235.29.9/FacialAge/BNav_EC2/DepthDuration/v2_depth_duration_MTurk/v2_DepthDuration_HTML.html#217,217,1517,730,1366,768,9-3-2022,13-56-14,76,depth_duration_stimuli/000758_2014-06-08_22-05-08_260595134347_rgbf000085-resize_0/000758_2014-06-08_22-05-08_260595134347_rgbf000085-resize_0-target.png,1000,3.3810000000000002,78,3381,993,meters,jsons/v1_VE1000_randls_76_rotated.json,1997369,2366375,34,Man
76,571519,DepthScenes,duration_manipulation_targetAtFixation,jsons/v1_VE1000_randls_76_rotated.json,http://54.235.29.9/FacialAge/BNav_EC2/DepthDuration/v2_depth_duration_MTurk/v2_DepthDuration_HTML.html#217,217,1517,730,1366,768,9-3-2022,13-56-14,77,depth_duration_stimuli/003081_2014-06-15_15-19-16_094959634447_rgbf000150-resize_1/003081_2014-06-15_15-19-16_094959634447_rgbf000150-resize_1-target.png,1000,3.9125,87,4550,999,meters,jsons/v1_VE1000_randls_76_rotated.json,1997369,2366375,34,Man
77,571519,DepthScenes,duration_manipulation_targetAtFixation,jsons/v1_VE1000_randls_76_rotated.json,http://54.235.29.9/FacialAge/BNav_EC2/DepthDuration/v2_depth_duration_MTurk/v2_DepthDuration_HTML.html#217,217,1517,730,1366,768,9-3-2022,13-56-14,78,depth_duration_stimuli/001417_2014-06-19_16-25-36_260595134347_rgbf000115-resize_5/001417_2014-06-19_16-25-36_260595134347_rgbf000115-resize_5-target.png,1000,4.6255,45,3200,983,meters,jsons/v1_VE1000_randls_76_rotated.json,1997369,2366375,34,Man
78,571519,DepthScenes,duration_manipulation_targetAtFixation,jsons/v1_VE1000_randls_76_rotated.json,http://54.235.29.9/FacialAge/BNav_EC2/DepthDuration/v2_depth_duration_MTurk/v2_DepthDuration_HTML.html#217,217,1517,730,1366,768,9-3-2022,13-56-14,79,depth_duration_stimuli/001094_2014-06-15_17-36-00_260595134347_rgbf000205-resize_0/001094_2014-06-15_17-36-00_260595134347_rgbf000205-resize_0-target.png,1000,4.2175,67,3695,1000,meters,jsons/v1_VE1000_randls_76_rotated.json,1997369,2366375,34,Man
79,571519,DepthScenes,duration_manipulation_targetAtFixation,jsons/v1_VE1000_randls_76_rotated.json,http://54.235.29.9/FacialAge/BNav_EC2/DepthDuration/v2_depth_duration_MTurk/v2_DepthDuration_HTML.html#217,217,1517,730,1366,768,9-3-2022,13-56-14,80,depth_duration_stimuli/000692_2014-06-08_13-09-42_260595134347_rgbf000199-resize_2/000692_2014-06-08_13-09-42_260595134347_rgbf000199-resize_2-target.png,1000,3.661,90,76033,998,meters,jsons/v1_VE1000_randls_76_rotated.json,1997369,2366375,34,Man
80,571519,DepthScenes,duration_manipulation_targetAtFixation,jsons/v1_VE1000_randls_76_rotated.json,http://54.235.29.9/FacialAge/BNav_EC2/DepthDuration/v2_depth_duration_MTurk/v2_DepthDuration_HTML.html#217,217,1517,730,1366,768,9-3-2022,13-56-14,81,depth_duration_stimuli/001516_2014-06-20_16-25-09_260595134347_rgbf000076-resize_2/001516_2014-06-20_16-25-09_260595134347_rgbf000076-resize_2-target.png,1000,1.7445,88,4516,997,meters,jsons/v1_VE1000_randls_76_rotated.json,1997369,2366375,34,Man
81,571519,DepthScenes,duration_manipulation_targetAtFixation,jsons/v1_VE1000_randls_76_rotated.json,http://54.235.29.9/FacialAge/BNav_EC2/DepthDuration/v2_depth_duration_MTurk/v2_DepthDuration_HTML.html#217,217,1517,730,1366,768,9-3-2022,13-56-14,82,depth_duration_stimuli/002118_2014-06-25_20-32-08_260595134347_rgbf000078-resize_1/002118_2014-06-25_20-32-08_260595134347_rgbf000078-resize_1-target.png,1000,2.6460000000000004,78,3388,1028,meters,jsons/v1_VE1000_randls_76_rotated.json,1997369,2366375,34,Man
82,571519,DepthScenes,duration_manipulation_targetAtFixation,jsons/v1_VE1000_randls_76_rotated.json,http://54.235.29.9/FacialAge/BNav_EC2/DepthDuration/v2_depth_duration_MTurk/v2_DepthDuration_HTML.html#217,217,1517,730,1366,768,9-3-2022,13-56-14,83,depth_duration_stimuli/001392_2014-06-19_16-07-59_260595134347_rgbf000046-resize_1/001392_2014-06-19_16-07-59_260595134347_rgbf000046-resize_1-target.png,1000,4.135,87,3873,998,meters,jsons/v1_VE1000_randls_76_rotated.json,1997369,2366375,34,Man
83,571519,DepthScenes,duration_manipulation_targetAtFixation,jsons/v1_VE1000_randls_76_rotated.json,http://54.235.29.9/FacialAge/BNav_EC2/DepthDuration/v2_depth_duration_MTurk/v2_DepthDuration_HTML.html#217,217,1517,730,1366,768,9-3-2022,13-56-14,84,depth_duration_stimuli/001570_2014-06-20_17-21-09_260595134347_rgbf000135-resize_4/001570_2014-06-20_17-21-09_260595134347_rgbf000135-resize_4-target.png,1000,4.467,23,27371,999,meters,jsons/v1_VE1000_randls_76_rotated.json,1997369,2366375,34,Man
84,571519,DepthScenes,duration_manipulation_targetAtFixation,jsons/v1_VE1000_randls_76_rotated.json,http://54.235.29.9/FacialAge/BNav_EC2/DepthDuration/v2_depth_duration_MTurk/v2_DepthDuration_HTML.html#217,217,1517,730,1366,768,9-3-2022,13-56-14,85,depth_duration_stimuli/001828_2014-06-26_21-40-03_260595134347_rgbf000024-resize_0/001828_2014-06-26_21-40-03_260595134347_rgbf000024-resize_0-target.png,1000,4.8260000000000005,34,3900,999,meters,jsons/v1_VE1000_randls_76_rotated.json,1997369,2366375,34,Man
85,571519,DepthScenes,duration_manipulation_targetAtFixation,jsons/v1_VE1000_randls_76_rotated.json,http://54.235.29.9/FacialAge/BNav_EC2/DepthDuration/v2_depth_duration_MTurk/v2_DepthDuration_HTML.html#217,217,1517,730,1366,768,9-3-2022,13-56-14,86,depth_duration_stimuli/000009_2014-05-26_14-32-05_260595134347_rgbf000034-resize_3/000009_2014-05-26_14-32-05_260595134347_rgbf000034-resize_3-target.png,1000,3.8715,56,4205,1108,meters,jsons/v1_VE1000_randls_76_rotated.json,1997369,2366375,34,Man
86,571519,DepthScenes,duration_manipulation_targetAtFixation,jsons/v1_VE1000_randls_76_rotated.json,http://54.235.29.9/FacialAge/BNav_EC2/DepthDuration/v2_depth_duration_MTurk/v2_DepthDuration_HTML.html#217,217,1517,730,1366,768,9-3-2022,13-56-14,87,depth_duration_stimuli/002340_2014-06-28_20-05-46_260595134347_rgbf000113-resize_0/002340_2014-06-28_20-05-46_260595134347_rgbf000113-resize_0-target.png,1000,2.4735,34,32955,1000,meters,jsons/v1_VE1000_randls_76_rotated.json,1997369,2366375,34,Man
87,571519,DepthScenes,duration_manipulation_targetAtFixation,jsons/v1_VE1000_randls_76_rotated.json,http://54.235.29.9/FacialAge/BNav_EC2/DepthDuration/v2_depth_duration_MTurk/v2_DepthDuration_HTML.html#217,217,1517,730,1366,768,9-3-2022,13-56-14,88,depth_duration_stimuli/001016_2014-06-09_16-16-10_260595134347_rgbf000112-resize_5/001016_2014-06-09_16-16-10_260595134347_rgbf000112-resize_5-target.png,1000,1.6565,45,3284,999,meters,jsons/v1_VE1000_randls_76_rotated.json,1997369,2366375,34,Man
88,571519,DepthScenes,duration_manipulation_targetAtFixation,jsons/v1_VE1000_randls_76_rotated.json,http://54.235.29.9/FacialAge/BNav_EC2/DepthDuration/v2_depth_duration_MTurk/v2_DepthDuration_HTML.html#217,217,1517,730,1366,768,9-3-2022,13-56-14,89,depth_duration_stimuli/002660_2014-06-13_15-44-18_094959634447_rgbf001878-resize_2/002660_2014-06-13_15-44-18_094959634447_rgbf001878-resize_2-target.png,1000,3.576,45,3219,1000,meters,jsons/v1_VE1000_randls_76_rotated.json,1997369,2366375,34,Man
89,571519,DepthScenes,duration_manipulation_targetAtFixation,jsons/v1_VE1000_randls_76_rotated.json,http://54.235.29.9/FacialAge/BNav_EC2/DepthDuration/v2_depth_duration_MTurk/v2_DepthDuration_HTML.html#217,217,1517,730,1366,768,9-3-2022,13-56-14,90,depth_duration_stimuli/002153_2014-06-25_21-27-18_260595134347_rgbf000038-resize_5/002153_2014-06-25_21-27-18_260595134347_rgbf000038-resize_5-target.png,1000,2.505,68,10008,1000,meters,jsons/v1_VE1000_randls_76_rotated.json,1997369,2366375,34,Man
90,571519,DepthScenes,duration_manipulation_targetAtFixation,jsons/v1_VE1000_randls_76_rotated.json,http://54.235.29.9/FacialAge/BNav_EC2/DepthDuration/v2_depth_duration_MTurk/v2_DepthDuration_HTML.html#217,217,1517,730,1366,768,9-3-2022,13-56-14,91,depth_duration_stimuli/000409_2014-06-04_19-23-33_260595134347_rgbf000067-resize_0/000409_2014-06-04_19-23-33_260595134347_rgbf000067-resize_0-target.png,1000,3.7335,34,6403,1000,meters,jsons/v1_VE1000_randls_76_rotated.json,1997369,2366375,34,Man
91,571519,DepthScenes,duration_manipulation_targetAtFixation,jsons/v1_VE1000_randls_76_rotated.json,http://54.235.29.9/FacialAge/BNav_EC2/DepthDuration/v2_depth_duration_MTurk/v2_DepthDuration_HTML.html#217,217,1517,730,1366,768,9-3-2022,13-56-14,92,depth_duration_stimuli/002663_2014-06-13_15-50-26_094959634447_rgbf000075-resize_1/002663_2014-06-13_15-50-26_094959634447_rgbf000075-resize_1-target.png,1000,4.7495,67,79238,1000,meters,jsons/v1_VE1000_randls_76_rotated.json,1997369,2366375,34,Man
92,571519,DepthScenes,duration_manipulation_targetAtFixation,jsons/v1_VE1000_randls_76_rotated.json,http://54.235.29.9/FacialAge/BNav_EC2/DepthDuration/v2_depth_duration_MTurk/v2_DepthDuration_HTML.html#217,217,1517,730,1366,768,9-3-2022,13-56-14,93,depth_duration_stimuli/002657_2014-06-13_15-29-54_094959634447_rgbf000150-resize_1/002657_2014-06-13_15-29-54_094959634447_rgbf000150-resize_1-target.png,1000,4.919,56,3256,1150,meters,jsons/v1_VE1000_randls_76_rotated.json,1997369,2366375,34,Man
93,571519,DepthScenes,duration_manipulation_targetAtFixation,jsons/v1_VE1000_randls_76_rotated.json,http://54.235.29.9/FacialAge/BNav_EC2/DepthDuration/v2_depth_duration_MTurk/v2_DepthDuration_HTML.html#217,217,1517,730,1366,768,9-3-2022,13-56-14,94,depth_duration_stimuli/002375_2014-06-28_20-13-44_260595134347_rgbf000032-resize_1/002375_2014-06-28_20-13-44_260595134347_rgbf000032-resize_1-target.png,1000,4.0175,78,3372,999,meters,jsons/v1_VE1000_randls_76_rotated.json,1997369,2366375,34,Man
94,571519,DepthScenes,duration_manipulation_targetAtFixation,jsons/v1_VE1000_randls_76_rotated.json,http://54.235.29.9/FacialAge/BNav_EC2/DepthDuration/v2_depth_duration_MTurk/v2_DepthDuration_HTML.html#217,217,1517,730,1366,768,9-3-2022,13-56-14,95,depth_duration_stimuli/002103_2014-06-25_20-00-40_260595134347_rgbf000049-resize_0/002103_2014-06-25_20-00-40_260595134347_rgbf000049-resize_0-target.png,1000,4.105,56,3770,998,meters,jsons/v1_VE1000_randls_76_rotated.json,1997369,2366375,34,Man
95,571519,DepthScenes,duration_manipulation_targetAtFixation,jsons/v1_VE1000_randls_76_rotated.json,http://54.235.29.9/FacialAge/BNav_EC2/DepthDuration/v2_depth_duration_MTurk/v2_DepthDuration_HTML.html#217,217,1517,730,1366,768,9-3-2022,13-56-14,96,depth_duration_stimuli/002039_2014-06-24_20-22-38_260595134347_rgbf000084-resize_1/002039_2014-06-24_20-22-38_260595134347_rgbf000084-resize_1-target.png,1000,4.408,56,35717,947,meters,jsons/v1_VE1000_randls_76_rotated.json,1997369,2366375,34,Man
96,571519,DepthScenes,duration_manipulation_targetAtFixation,jsons/v1_VE1000_randls_76_rotated.json,http://54.235.29.9/FacialAge/BNav_EC2/DepthDuration/v2_depth_duration_MTurk/v2_DepthDuration_HTML.html#217,217,1517,730,1366,768,9-3-2022,13-56-14,97,depth_duration_stimuli/001214_2014-06-17_16-13-55_260595134347_rgbf000111-resize_0/001214_2014-06-17_16-13-55_260595134347_rgbf000111-resize_0-target.png,1000,2.6505,45,4031,999,meters,jsons/v1_VE1000_randls_76_rotated.json,1997369,2366375,34,Man
97,571519,DepthScenes,duration_manipulation_targetAtFixation,jsons/v1_VE1000_randls_76_rotated.json,http://54.235.29.9/FacialAge/BNav_EC2/DepthDuration/v2_depth_duration_MTurk/v2_DepthDuration_HTML.html#217,217,1517,730,1366,768,9-3-2022,13-56-14,98,depth_duration_stimuli/000810_2014-06-08_17-20-01_260595134347_rgbf000105-resize_0/000810_2014-06-08_17-20-01_260595134347_rgbf000105-resize_0-target.png,1000,1.4865,34,3351,998,meters,jsons/v1_VE1000_randls_76_rotated.json,1997369,2366375,34,Man
98,571519,DepthScenes,duration_manipulation_targetAtFixation,jsons/v1_VE1000_randls_76_rotated.json,http://54.235.29.9/FacialAge/BNav_EC2/DepthDuration/v2_depth_duration_MTurk/v2_DepthDuration_HTML.html#217,217,1517,730,1366,768,9-3-2022,13-56-14,99,depth_duration_stimuli/001222_2014-06-17_16-24-06_260595134347_rgbf000073-resize_0/001222_2014-06-17_16-24-06_260595134347_rgbf000073-resize-original.jpg,1000,1.4385,34,4330,1068,meters,jsons/v1_VE1000_randls_76_rotated.json,1997369,2366375,34,Man
99,571519,DepthScenes,duration_manipulation_targetAtFixation,jsons/v1_VE1000_randls_76_rotated.json,http://54.235.29.9/FacialAge/BNav_EC2/DepthDuration/v2_depth_duration_MTurk/v2_DepthDuration_HTML.html#217,217,1517,730,1366,768,9-3-2022,13-56-14,100,depth_duration_stimuli/000549_2014-06-08_22-10-24_260595134347_rgbf000247-resize_3/000549_2014-06-08_22-10-24_260595134347_rgbf000247-resize_3-target.png,1000,1.841,35,74325,998,meters,jsons/v1_VE1000_randls_76_rotated.json,1997369,2366375,34,Man
100,571519,DepthScenes,duration_manipulation_targetAtFixation,jsons/v1_VE1000_randls_76_rotated.json,http://54.235.29.9/FacialAge/BNav_EC2/DepthDuration/v2_depth_duration_MTurk/v2_DepthDuration_HTML.html#217,217,1517,730,1366,768,9-3-2022,13-56-14,101,depth_duration_stimuli/001055_2014-06-08_18-45-35_260595134347_rgbf000111-resize_4/001055_2014-06-08_18-45-35_260595134347_rgbf000111-resize_4-target.png,1000,2.4290000000000003,34,32301,998,meters,jsons/v1_VE1000_randls_76_rotated.json,1997369,2366375,34,Man
101,571519,DepthScenes,duration_manipulation_targetAtFixation,jsons/v1_VE1000_randls_76_rotated.json,http://54.235.29.9/FacialAge/BNav_EC2/DepthDuration/v2_depth_duration_MTurk/v2_DepthDuration_HTML.html#217,217,1517,730,1366,768,9-3-2022,13-56-14,102,depth_duration_stimuli/001584_2014-06-20_11-07-43_260595134347_rgbf000002-resize_1/001584_2014-06-20_11-07-43_260595134347_rgbf000002-resize_1-target.png,1000,3.53,78,18809,1000,meters,jsons/v1_VE1000_randls_76_rotated.json,1997369,2366375,34,Man
102,571519,DepthScenes,duration_manipulation_targetAtFixation,jsons/v1_VE1000_randls_76_rotated.json,http://54.235.29.9/FacialAge/BNav_EC2/DepthDuration/v2_depth_duration_MTurk/v2_DepthDuration_HTML.html#217,217,1517,730,1366,768,9-3-2022,13-56-14,103,depth_duration_stimuli/003621_2014-05-23_18-06-08_094959634447_rgbf000101-resize_1/003621_2014-05-23_18-06-08_094959634447_rgbf000101-resize_1-target.png,1000,3.9835,45,3084,1029,meters,jsons/v1_VE1000_randls_76_rotated.json,1997369,2366375,34,Man
103,571519,DepthScenes,duration_manipulation_targetAtFixation,jsons/v1_VE1000_randls_76_rotated.json,http://54.235.29.9/FacialAge/BNav_EC2/DepthDuration/v2_depth_duration_MTurk/v2_DepthDuration_HTML.html#217,217,1517,730,1366,768,9-3-2022,13-56-14,104,depth_duration_stimuli/002444_2014-06-28_20-32-08_260595134347_rgbf000027-resize_0/002444_2014-06-28_20-32-08_260595134347_rgbf000027-resize_0-target.png,1000,4.388999999999999,45,3601,1002,meters,jsons/v1_VE1000_randls_76_rotated.json,1997369,2366375,34,Man
104,571519,DepthScenes,duration_manipulation_targetAtFixation,jsons/v1_VE1000_randls_76_rotated.json,http://54.235.29.9/FacialAge/BNav_EC2/DepthDuration/v2_depth_duration_MTurk/v2_DepthDuration_HTML.html#217,217,1517,730,1366,768,9-3-2022,13-56-14,105,depth_duration_stimuli/000436_2014-06-09_22-25-11_260595134347_rgbf000137-resize_1/000436_2014-06-09_22-25-11_260595134347_rgbf000137-resize_1-target.png,1000,4.0705,45,40808,999,meters,jsons/v1_VE1000_randls_76_rotated.json,1997369,2366375,34,Man
105,571519,DepthScenes,duration_manipulation_targetAtFixation,jsons/v1_VE1000_randls_76_rotated.json,http://54.235.29.9/FacialAge/BNav_EC2/DepthDuration/v2_depth_duration_MTurk/v2_DepthDuration_HTML.html#217,217,1517,730,1366,768,9-3-2022,13-56-14,106,depth_duration_stimuli/003338_2014-05-20_11-01-23_094959634447_rgbf000051-resize_6/003338_2014-05-20_11-01-23_094959634447_rgbf000051-resize_6-target.png,1000,1.693,66,8679,1145,meters,jsons/v1_VE1000_randls_76_rotated.json,1997369,2366375,34,Man
106,571519,DepthScenes,duration_manipulation_targetAtFixation,jsons/v1_VE1000_randls_76_rotated.json,http://54.235.29.9/FacialAge/BNav_EC2/DepthDuration/v2_depth_duration_MTurk/v2_DepthDuration_HTML.html#217,217,1517,730,1366,768,9-3-2022,13-56-14,107,depth_duration_stimuli/002509_2014-06-24_13-19-22_094959634447_rgbf000077-resize_0/002509_2014-06-24_13-19-22_094959634447_rgbf000077-resize_0-target.png,1000,1.3065,56,3335,999,meters,jsons/v1_VE1000_randls_76_rotated.json,1997369,2366375,34,Man
107,571519,DepthScenes,duration_manipulation_targetAtFixation,jsons/v1_VE1000_randls_76_rotated.json,http://54.235.29.9/FacialAge/BNav_EC2/DepthDuration/v2_depth_duration_MTurk/v2_DepthDuration_HTML.html#217,217,1517,730,1366,768,9-3-2022,13-56-14,108,depth_duration_stimuli/002949_2014-06-26_15-57-42_094959634447_rgbf000079-resize_1/002949_2014-06-26_15-57-42_094959634447_rgbf000079-resize_1-target.png,1000,1.8915,56,3409,907,meters,jsons/v1_VE1000_randls_76_rotated.json,1997369,2366375,34,Man
108,571519,DepthScenes,duration_manipulation_targetAtFixation,jsons/v1_VE1000_randls_76_rotated.json,http://54.235.29.9/FacialAge/BNav_EC2/DepthDuration/v2_depth_duration_MTurk/v2_DepthDuration_HTML.html#217,217,1517,730,1366,768,9-3-2022,13-56-14,109,depth_duration_stimuli/000522_2014-06-08_13-35-06_260595134347_rgbf000244-resize_1/000522_2014-06-08_13-35-06_260595134347_rgbf000244-resize_1-target.png,1000,2.3715,45,3837,999,meters,jsons/v1_VE1000_randls_76_rotated.json,1997369,2366375,34,Man
109,571519,DepthScenes,duration_manipulation_targetAtFixation,jsons/v1_VE1000_randls_76_rotated.json,http://54.235.29.9/FacialAge/BNav_EC2/DepthDuration/v2_depth_duration_MTurk/v2_DepthDuration_HTML.html#217,217,1517,730,1366,768,9-3-2022,13-56-14,110,depth_duration_stimuli/001052_2014-06-08_18-24-54_260595134347_rgbf000130-resize_1/001052_2014-06-08_18-24-54_260595134347_rgbf000130-resize_1-target.png,1000,4.1045,23,20855,954,meters,jsons/v1_VE1000_randls_76_rotated.json,1997369,2366375,34,Man
110,571519,DepthScenes,duration_manipulation_targetAtFixation,jsons/v1_VE1000_randls_76_rotated.json,http://54.235.29.9/FacialAge/BNav_EC2/DepthDuration/v2_depth_duration_MTurk/v2_DepthDuration_HTML.html#217,217,1517,730,1366,768,9-3-2022,13-56-14,111,depth_duration_stimuli/002988_2014-06-15_12-24-20_094959634447_rgbf000150-resize_1/002988_2014-06-15_12-24-20_094959634447_rgbf000150-resize_1-target.png,1000,4.7669999999999995,23,3148,1259,meters,jsons/v1_VE1000_randls_76_rotated.json,1997369,2366375,34,Man
111,571519,DepthScenes,duration_manipulation_targetAtFixation,jsons/v1_VE1000_randls_76_rotated.json,http://54.235.29.9/FacialAge/BNav_EC2/DepthDuration/v2_depth_duration_MTurk/v2_DepthDuration_HTML.html#217,217,1517,730,1366,768,9-3-2022,13-56-14,112,depth_duration_stimuli/000109_2014-05-14_23-41-52_260595134347_rgbf000035-resize_9/000109_2014-05-14_23-41-52_260595134347_rgbf000035-resize_9-target.png,1000,1.3545,34,3658,1000,meters,jsons/v1_VE1000_randls_76_rotated.json,1997369,2366375,34,Man
112,571519,DepthScenes,duration_manipulation_targetAtFixation,jsons/v1_VE1000_randls_76_rotated.json,http://54.235.29.9/FacialAge/BNav_EC2/DepthDuration/v2_depth_duration_MTurk/v2_DepthDuration_HTML.html#217,217,1517,730,1366,768,9-3-2022,13-56-14,113,depth_duration_stimuli/000470_2014-06-09_19-42-40_260595134347_rgbf000094-resize_1/000470_2014-06-09_19-42-40_260595134347_rgbf000094-resize_1-target.png,1000,1.831,34,2918,1001,meters,jsons/v1_VE1000_randls_76_rotated.json,1997369,2366375,34,Man
113,571519,DepthScenes,duration_manipulation_targetAtFixation,jsons/v1_VE1000_randls_76_rotated.json,http://54.235.29.9/FacialAge/BNav_EC2/DepthDuration/v2_depth_duration_MTurk/v2_DepthDuration_HTML.html#217,217,1517,730,1366,768,9-3-2022,13-56-14,114,depth_duration_stimuli/002209_2014-06-28_18-36-10_260595134347_rgbf000051-resize_1/002209_2014-06-28_18-36-10_260595134347_rgbf000051-resize_1-target.png,1000,2.057,45,3426,1000,meters,jsons/v1_VE1000_randls_76_rotated.json,1997369,2366375,34,Man
114,571519,DepthScenes,duration_manipulation_targetAtFixation,jsons/v1_VE1000_randls_76_rotated.json,http://54.235.29.9/FacialAge/BNav_EC2/DepthDuration/v2_depth_duration_MTurk/v2_DepthDuration_HTML.html#217,217,1517,730,1366,768,9-3-2022,13-56-14,115,depth_duration_stimuli/002763_2014-06-22_19-13-10_094959634447_rgbf000075-resize_4/002763_2014-06-22_19-13-10_094959634447_rgbf000075-resize_4-target.png,1000,1.68375,56,3170,999,meters,jsons/v1_VE1000_randls_76_rotated.json,1997369,2366375,34,Man
115,571519,DepthScenes,duration_manipulation_targetAtFixation,jsons/v1_VE1000_randls_76_rotated.json,http://54.235.29.9/FacialAge/BNav_EC2/DepthDuration/v2_depth_duration_MTurk/v2_DepthDuration_HTML.html#217,217,1517,730,1366,768,9-3-2022,13-56-14,116,depth_duration_stimuli/001650_2014-06-20_12-09-00_260595134347_rgbf000087-resize_3/001650_2014-06-20_12-09-00_260595134347_rgbf000087-resize_3-target.png,1000,1.9505,80,7071,1002,meters,jsons/v1_VE1000_randls_76_rotated.json,1997369,2366375,34,Man
116,571519,DepthScenes,duration_manipulation_targetAtFixation,jsons/v1_VE1000_randls_76_rotated.json,http://54.235.29.9/FacialAge/BNav_EC2/DepthDuration/v2_depth_duration_MTurk/v2_DepthDuration_HTML.html#217,217,1517,730,1366,768,9-3-2022,13-56-14,117,depth_duration_stimuli/000682_2014-06-08_23-14-58_260595134347_rgbf000041-resize_5/000682_2014-06-08_23-14-58_260595134347_rgbf000041-resize_5-target.png,1000,2.7239999999999998,68,18761,1136,meters,jsons/v1_VE1000_randls_76_rotated.json,1997369,2366375,34,Man
117,571519,DepthScenes,duration_manipulation_targetAtFixation,jsons/v1_VE1000_randls_76_rotated.json,http://54.235.29.9/FacialAge/BNav_EC2/DepthDuration/v2_depth_duration_MTurk/v2_DepthDuration_HTML.html#217,217,1517,730,1366,768,9-3-2022,13-56-14,118,depth_duration_stimuli/002425_2014-06-28_20-27-29_260595134347_rgbf000031-resize_8/002425_2014-06-28_20-27-29_260595134347_rgbf000031-resize_8-target.png,1000,3.8960000000000004,66,41883,1000,meters,jsons/v1_VE1000_randls_76_rotated.json,1997369,2366375,34,Man
118,571519,DepthScenes,duration_manipulation_targetAtFixation,jsons/v1_VE1000_randls_76_rotated.json,http://54.235.29.9/FacialAge/BNav_EC2/DepthDuration/v2_depth_duration_MTurk/v2_DepthDuration_HTML.html#217,217,1517,730,1366,768,9-3-2022,13-56-14,119,depth_duration_stimuli/000642_2014-06-08_16-59-25_260595134347_rgbf000098-resize_2/000642_2014-06-08_16-59-25_260595134347_rgbf000098-resize_2-target.png,1000,2.8815,56,3202,979,meters,jsons/v1_VE1000_randls_76_rotated.json,1997369,2366375,34,Man
119,571519,DepthScenes,duration_manipulation_targetAtFixation,jsons/v1_VE1000_randls_76_rotated.json,http://54.235.29.9/FacialAge/BNav_EC2/DepthDuration/v2_depth_duration_MTurk/v2_DepthDuration_HTML.html#217,217,1517,730,1366,768,9-3-2022,13-56-14,120,depth_duration_stimuli/000787_2014-06-08_22-33-53_260595134347_rgbf000175-resize_1/000787_2014-06-08_22-33-53_260595134347_rgbf000175-resize-original.jpg,1000,4.784,89,24852,935,meters,jsons/v1_VE1000_randls_76_rotated.json,1997369,2366375,34,Man
120,571519,DepthScenes,duration_manipulation_targetAtFixation,jsons/v1_VE1000_randls_76_rotated.json,http://54.235.29.9/FacialAge/BNav_EC2/DepthDuration/v2_depth_duration_MTurk/v2_DepthDuration_HTML.html#217,217,1517,730,1366,768,9-3-2022,13-56-14,121,depth_duration_stimuli/002199_2014-06-28_18-33-56_260595134347_rgbf000074-resize_0/002199_2014-06-28_18-33-56_260595134347_rgbf000074-resize_0-target.png,1000,1.996,100,6436,997,meters,jsons/v1_VE1000_randls_76_rotated.json,1997369,2366375,34,Man
121,571519,DepthScenes,duration_manipulation_targetAtFixation,jsons/v1_VE1000_randls_76_rotated.json,http://54.235.29.9/FacialAge/BNav_EC2/DepthDuration/v2_depth_duration_MTurk/v2_DepthDuration_HTML.html#217,217,1517,730,1366,768,9-3-2022,13-56-14,122,depth_duration_stimuli/001056_2014-06-08_18-46-44_260595134347_rgbf000068-resize_0/001056_2014-06-08_18-46-44_260595134347_rgbf000068-resize_0-target.png,1000,2.6625,34,23174,997,meters,jsons/v1_VE1000_randls_76_rotated.json,1997369,2366375,34,Man
122,571519,DepthScenes,duration_manipulation_targetAtFixation,jsons/v1_VE1000_randls_76_rotated.json,http://54.235.29.9/FacialAge/BNav_EC2/DepthDuration/v2_depth_duration_MTurk/v2_DepthDuration_HTML.html#217,217,1517,730,1366,768,9-3-2022,13-56-14,123,depth_duration_stimuli/001571_2014-06-20_17-21-32_260595134347_rgbf000089-resize_1/001571_2014-06-20_17-21-32_260595134347_rgbf000089-resize_1-target.png,1000,1.86,34,4227,968,meters,jsons/v1_VE1000_randls_76_rotated.json,1997369,2366375,34,Man
123,571519,DepthScenes,duration_manipulation_targetAtFixation,jsons/v1_VE1000_randls_76_rotated.json,http://54.235.29.9/FacialAge/BNav_EC2/DepthDuration/v2_depth_duration_MTurk/v2_DepthDuration_HTML.html#217,217,1517,730,1366,768,9-3-2022,13-56-14,124,depth_duration_stimuli/002272_2014-06-28_18-53-56_260595134347_rgbf000067-resize_2/002272_2014-06-28_18-53-56_260595134347_rgbf000067-resize_2-target.png,1000,1.138,56,23844,999,meters,jsons/v1_VE1000_randls_76_rotated.json,1997369,2366375,34,Man
124,571519,DepthScenes,duration_manipulation_targetAtFixation,jsons/v1_VE1000_randls_76_rotated.json,http://54.235.29.9/FacialAge/BNav_EC2/DepthDuration/v2_depth_duration_MTurk/v2_DepthDuration_HTML.html#217,217,1517,730,1366,768,9-3-2022,13-56-14,125,depth_duration_stimuli/001447_2014-06-19_17-00-32_260595134347_rgbf000082-resize_5/001447_2014-06-19_17-00-32_260595134347_rgbf000082-resize_5-target.png,1000,4.13775,34,3338,999,meters,jsons/v1_VE1000_randls_76_rotated.json,1997369,2366375,34,Man
125,571519,DepthScenes,duration_manipulation_targetAtFixation,jsons/v1_VE1000_randls_76_rotated.json,http://54.235.29.9/FacialAge/BNav_EC2/DepthDuration/v2_depth_duration_MTurk/v2_DepthDuration_HTML.html#217,217,1517,730,1366,768,9-3-2022,13-56-14,126,depth_duration_stimuli/000447_2014-06-08_16-15-46_260595134347_rgbf000130-resize_1/000447_2014-06-08_16-15-46_260595134347_rgbf000130-resize_1-target.png,1000,4.479,23,2994,999,meters,jsons/v1_VE1000_randls_76_rotated.json,1997369,2366375,34,Man
126,571519,DepthScenes,duration_manipulation_targetAtFixation,jsons/v1_VE1000_randls_76_rotated.json,http://54.235.29.9/FacialAge/BNav_EC2/DepthDuration/v2_depth_duration_MTurk/v2_DepthDuration_HTML.html#217,217,1517,730,1366,768,9-3-2022,13-56-14,127,depth_duration_stimuli/002414_2014-06-28_20-24-58_260595134347_rgbf000067-resize_4/002414_2014-06-28_20-24-58_260595134347_rgbf000067-resize_4-target.png,1000,4.363,45,3295,1000,meters,jsons/v1_VE1000_randls_76_rotated.json,1997369,2366375,34,Man
127,571519,DepthScenes,duration_manipulation_targetAtFixation,jsons/v1_VE1000_randls_76_rotated.json,http://54.235.29.9/FacialAge/BNav_EC2/DepthDuration/v2_depth_duration_MTurk/v2_DepthDuration_HTML.html#217,217,1517,730,1366,768,9-3-2022,13-56-14,128,depth_duration_stimuli/000773_2014-06-08_22-24-54_260595134347_rgbf000093-resize_1/000773_2014-06-08_22-24-54_260595134347_rgbf000093-resize_1-target.png,1000,4.973,34,15422,1000,meters,jsons/v1_VE1000_randls_76_rotated.json,1997369,2366375,34,Man
128,571519,DepthScenes,duration_manipulation_targetAtFixation,jsons/v1_VE1000_randls_76_rotated.json,http://54.235.29.9/FacialAge/BNav_EC2/DepthDuration/v2_depth_duration_MTurk/v2_DepthDuration_HTML.html#217,217,1517,730,1366,768,9-3-2022,13-56-14,129,depth_duration_stimuli/003587_2014-05-23_16-48-02_094959634447_rgbf002384-resize_2/003587_2014-05-23_16-48-02_094959634447_rgbf002384-resize_2-target.png,1000,1.357,23,3936,998,meters,jsons/v1_VE1000_randls_76_rotated.json,1997369,2366375,34,Man
129,571519,DepthScenes,duration_manipulation_targetAtFixation,jsons/v1_VE1000_randls_76_rotated.json,http://54.235.29.9/FacialAge/BNav_EC2/DepthDuration/v2_depth_duration_MTurk/v2_DepthDuration_HTML.html#217,217,1517,730,1366,768,9-3-2022,13-56-14,130,depth_duration_stimuli/001167_2014-06-17_15-38-07_260595134347_rgbf000108-resize_0/001167_2014-06-17_15-38-07_260595134347_rgbf000108-resize_0-target.png,1000,1.8505,23,3622,1000,meters,jsons/v1_VE1000_randls_76_rotated.json,1997369,2366375,34,Man
130,571519,DepthScenes,duration_manipulation_targetAtFixation,jsons/v1_VE1000_randls_76_rotated.json,http://54.235.29.9/FacialAge/BNav_EC2/DepthDuration/v2_depth_duration_MTurk/v2_DepthDuration_HTML.html#217,217,1517,730,1366,768,9-3-2022,13-56-14,131,depth_duration_stimuli/003083_2014-06-15_15-21-03_094959634447_rgbf000063-resize_1/003083_2014-06-15_15-21-03_094959634447_rgbf000063-resize_1-target.png,1000,4.1405,45,27046,999,meters,jsons/v1_VE1000_randls_76_rotated.json,1997369,2366375,34,Man
131,571519,DepthScenes,duration_manipulation_targetAtFixation,jsons/v1_VE1000_randls_76_rotated.json,http://54.235.29.9/FacialAge/BNav_EC2/DepthDuration/v2_depth_duration_MTurk/v2_DepthDuration_HTML.html#217,217,1517,730,1366,768,9-3-2022,13-56-14,132,depth_duration_stimuli/000486_2014-06-09_20-47-20_260595134347_rgbf000143-resize_2/000486_2014-06-09_20-47-20_260595134347_rgbf000143-resize_2-target.png,1000,4.8325,45,3251,997,meters,jsons/v1_VE1000_randls_76_rotated.json,1997369,2366375,34,Man
132,571519,DepthScenes,duration_manipulation_targetAtFixation,jsons/v1_VE1000_randls_76_rotated.json,http://54.235.29.9/FacialAge/BNav_EC2/DepthDuration/v2_depth_duration_MTurk/v2_DepthDuration_HTML.html#217,217,1517,730,1366,768,9-3-2022,13-56-14,133,depth_duration_stimuli/000502_2014-06-08_23-02-32_260595134347_rgbf000063-resize_4/000502_2014-06-08_23-02-32_260595134347_rgbf000063-resize_4-target.png,1000,2.431,45,3595,997,meters,jsons/v1_VE1000_randls_76_rotated.json,1997369,2366375,34,Man
133,571519,DepthScenes,duration_manipulation_targetAtFixation,jsons/v1_VE1000_randls_76_rotated.json,http://54.235.29.9/FacialAge/BNav_EC2/DepthDuration/v2_depth_duration_MTurk/v2_DepthDuration_HTML.html#217,217,1517,730,1366,768,9-3-2022,13-56-14,134,depth_duration_stimuli/001199_2014-06-17_16-03-48_260595134347_rgbf000077-resize_0/001199_2014-06-17_16-03-48_260595134347_rgbf000077-resize_0-target.png,1000,3.4375,45,4482,999,meters,jsons/v1_VE1000_randls_76_rotated.json,1997369,2366375,34,Man
134,571519,DepthScenes,duration_manipulation_targetAtFixation,jsons/v1_VE1000_randls_76_rotated.json,http://54.235.29.9/FacialAge/BNav_EC2/DepthDuration/v2_depth_duration_MTurk/v2_DepthDuration_HTML.html#217,217,1517,730,1366,768,9-3-2022,13-56-14,135,depth_duration_stimuli/000375_2014-06-08_11-17-29_260595134347_rgbf000133-resize_2/000375_2014-06-08_11-17-29_260595134347_rgbf000133-resize-original.jpg,1000,4.718,56,73255,997,meters,jsons/v1_VE1000_randls_76_rotated.json,1997369,2366375,34,Man
135,571519,DepthScenes,duration_manipulation_targetAtFixation,jsons/v1_VE1000_randls_76_rotated.json,http://54.235.29.9/FacialAge/BNav_EC2/DepthDuration/v2_depth_duration_MTurk/v2_DepthDuration_HTML.html#217,217,1517,730,1366,768,9-3-2022,13-56-14,136,depth_duration_stimuli/003228_2014-05-14_13-42-35_094959634447_rgbf000101-resize_1/003228_2014-05-14_13-42-35_094959634447_rgbf000101-resize_1-target.png,1000,1.9680000000000002,56,7687,1000,meters,jsons/v1_VE1000_randls_76_rotated.json,1997369,2366375,34,Man
136,571519,DepthScenes,duration_manipulation_targetAtFixation,jsons/v1_VE1000_randls_76_rotated.json,http://54.235.29.9/FacialAge/BNav_EC2/DepthDuration/v2_depth_duration_MTurk/v2_DepthDuration_HTML.html#217,217,1517,730,1366,768,9-3-2022,13-56-14,137,depth_duration_stimuli/002600_2014-06-24_14-27-04_094959634447_rgbf000074-resize_2/002600_2014-06-24_14-27-04_094959634447_rgbf000074-resize_2-target.png,1000,2.7575,67,14854,999,meters,jsons/v1_VE1000_randls_76_rotated.json,1997369,2366375,34,Man
137,571519,DepthScenes,duration_manipulation_targetAtFixation,jsons/v1_VE1000_randls_76_rotated.json,http://54.235.29.9/FacialAge/BNav_EC2/DepthDuration/v2_depth_duration_MTurk/v2_DepthDuration_HTML.html#217,217,1517,730,1366,768,9-3-2022,13-56-14,138,depth_duration_stimuli/000457_2014-06-08_16-52-43_260595134347_rgbf000199-resize_1/000457_2014-06-08_16-52-43_260595134347_rgbf000199-resize_1-target.png,1000,3.6489999999999996,23,3562,998,meters,jsons/v1_VE1000_randls_76_rotated.json,1997369,2366375,34,Man
138,571519,DepthScenes,duration_manipulation_targetAtFixation,jsons/v1_VE1000_randls_76_rotated.json,http://54.235.29.9/FacialAge/BNav_EC2/DepthDuration/v2_depth_duration_MTurk/v2_DepthDuration_HTML.html#217,217,1517,730,1366,768,9-3-2022,13-56-14,139,depth_duration_stimuli/000929_2014-06-09_16-33-19_260595134347_rgbf000139-resize_0/000929_2014-06-09_16-33-19_260595134347_rgbf000139-resize_0-target.png,1000,2.8680000000000003,345,36712,999,meters,jsons/v1_VE1000_randls_76_rotated.json,1997369,2366375,34,Man
139,571519,DepthScenes,duration_manipulation_targetAtFixation,jsons/v1_VE1000_randls_76_rotated.json,http://54.235.29.9/FacialAge/BNav_EC2/DepthDuration/v2_depth_duration_MTurk/v2_DepthDuration_HTML.html#217,217,1517,730,1366,768,9-3-2022,13-56-14,140,depth_duration_stimuli/000943_2014-06-09_19-31-07_260595134347_rgbf000128-resize_1/000943_2014-06-09_19-31-07_260595134347_rgbf000128-resize_1-target.png,1000,1.9765,34,3450,889,meters,jsons/v1_VE1000_randls_76_rotated.json,1997369,2366375,34,Man
140,571519,DepthScenes,duration_manipulation_targetAtFixation,jsons/v1_VE1000_randls_76_rotated.json,http://54.235.29.9/FacialAge/BNav_EC2/DepthDuration/v2_depth_duration_MTurk/v2_DepthDuration_HTML.html#217,217,1517,730,1366,768,9-3-2022,13-56-14,141,depth_duration_stimuli/003070_2014-06-15_14-58-27_094959634447_rgbf000150-resize_3/003070_2014-06-15_14-58-27_094959634447_rgbf000150-resize_3-target.png,1000,2.9415,34,4093,1000,meters,jsons/v1_VE1000_randls_76_rotated.json,1997369,2366375,34,Man
141,571519,DepthScenes,duration_manipulation_targetAtFixation,jsons/v1_VE1000_randls_76_rotated.json,http://54.235.29.9/FacialAge/BNav_EC2/DepthDuration/v2_depth_duration_MTurk/v2_DepthDuration_HTML.html#217,217,1517,730,1366,768,9-3-2022,13-56-14,142,depth_duration_stimuli/002750_2014-06-22_19-08-03_094959634447_rgbf000094-resize_4/002750_2014-06-22_19-08-03_094959634447_rgbf000094-resize_4-target.png,1000,2.354,45,3828,999,meters,jsons/v1_VE1000_randls_76_rotated.json,1997369,2366375,34,Man
142,571519,DepthScenes,duration_manipulation_targetAtFixation,jsons/v1_VE1000_randls_76_rotated.json,http://54.235.29.9/FacialAge/BNav_EC2/DepthDuration/v2_depth_duration_MTurk/v2_DepthDuration_HTML.html#217,217,1517,730,1366,768,9-3-2022,13-56-14,143,depth_duration_stimuli/002549_2014-06-24_13-41-39_094959634447_rgbf000022-resize_3/002549_2014-06-24_13-41-39_094959634447_rgbf000022-resize_3-target.png,1000,1.476,56,5636,1025,meters,jsons/v1_VE1000_randls_76_rotated.json,1997369,2366375,34,Man
143,571519,DepthScenes,duration_manipulation_targetAtFixation,jsons/v1_VE1000_randls_76_rotated.json,http://54.235.29.9/FacialAge/BNav_EC2/DepthDuration/v2_depth_duration_MTurk/v2_DepthDuration_HTML.html#217,217,1517,730,1366,768,9-3-2022,13-56-14,144,depth_duration_stimuli/002678_2014-06-13_16-15-32_094959634447_rgbf000151-resize_6/002678_2014-06-13_16-15-32_094959634447_rgbf000151-resize_6-target.png,1000,2.1830000000000003,87,23054,1000,meters,jsons/v1_VE1000_randls_76_rotated.json,1997369,2366375,34,Man
144,571519,DepthScenes,duration_manipulation_targetAtFixation,jsons/v1_VE1000_randls_76_rotated.json,http://54.235.29.9/FacialAge/BNav_EC2/DepthDuration/v2_depth_duration_MTurk/v2_DepthDuration_HTML.html#217,217,1517,730,1366,768,9-3-2022,13-56-14,145,depth_duration_stimuli/000368_2014-06-09_15-53-01_260595134347_rgbf000155-resize_2/000368_2014-06-09_15-53-01_260595134347_rgbf000155-resize_2-target.png,1000,2.4859999999999998,67,7979,999,meters,jsons/v1_VE1000_randls_76_rotated.json,1997369,2366375,34,Man
145,571519,DepthScenes,duration_manipulation_targetAtFixation,jsons/v1_VE1000_randls_76_rotated.json,http://54.235.29.9/FacialAge/BNav_EC2/DepthDuration/v2_depth_duration_MTurk/v2_DepthDuration_HTML.html#217,217,1517,730,1366,768,9-3-2022,13-56-14,146,depth_duration_stimuli/000742_2014-06-08_18-48-09_260595134347_rgbf000164-resize_4/000742_2014-06-08_18-48-09_260595134347_rgbf000164-resize_4-target.png,1000,4.632,67,4578,998,meters,jsons/v1_VE1000_randls_76_rotated.json,1997369,2366375,34,Man
146,571519,DepthScenes,duration_manipulation_targetAtFixation,jsons/v1_VE1000_randls_76_rotated.json,http://54.235.29.9/FacialAge/BNav_EC2/DepthDuration/v2_depth_duration_MTurk/v2_DepthDuration_HTML.html#217,217,1517,730,1366,768,9-3-2022,13-56-14,147,depth_duration_stimuli/001066_2014-06-08_22-03-20_260595134347_rgbf000066-resize_4/001066_2014-06-08_22-03-20_260595134347_rgbf000066-resize_4-target.png,1000,4.2330000000000005,68,19186,967,meters,jsons/v1_VE1000_randls_76_rotated.json,1997369,2366375,34,Man
147,571519,DepthScenes,duration_manipulation_targetAtFixation,jsons/v1_VE1000_randls_76_rotated.json,http://54.235.29.9/FacialAge/BNav_EC2/DepthDuration/v2_depth_duration_MTurk/v2_DepthDuration_HTML.html#217,217,1517,730,1366,768,9-3-2022,13-56-14,148,depth_duration_stimuli/003048_2014-06-15_13-49-43_094959634447_rgbf000150-resize_1/003048_2014-06-15_13-49-43_094959634447_rgbf000150-resize_1-target.png,1000,4.0035,56,2839,881,meters,jsons/v1_VE1000_randls_76_rotated.json,1997369,2366375,34,Man
148,571519,DepthScenes,duration_manipulation_targetAtFixation,jsons/v1_VE1000_randls_76_rotated.json,http://54.235.29.9/FacialAge/BNav_EC2/DepthDuration/v2_depth_duration_MTurk/v2_DepthDuration_HTML.html#217,217,1517,730,1366,768,9-3-2022,13-56-14,149,depth_duration_stimuli/002043_2014-06-24_20-29-38_260595134347_rgbf000039-resize_4/002043_2014-06-24_20-29-38_260595134347_rgbf000039-resize_4-target.png,1000,2.8435,67,2716,890,meters,jsons/v1_VE1000_randls_76_rotated.json,1997369,2366375,34,Man
149,571519,DepthScenes,duration_manipulation_targetAtFixation,jsons/v1_VE1000_randls_76_rotated.json,http://54.235.29.9/FacialAge/BNav_EC2/DepthDuration/v2_depth_duration_MTurk/v2_DepthDuration_HTML.html#217,217,1517,730,1366,768,9-3-2022,13-56-14,150,depth_duration_stimuli/000677_2014-06-08_23-10-32_260595134347_rgbf000158-resize_6/000677_2014-06-08_23-10-32_260595134347_rgbf000158-resize_6-target.png,1000,3.556,67,3416,998,meters,jsons/v1_VE1000_randls_76_rotated.json,1997369,2366375,34,Man
150,571519,DepthScenes,duration_manipulation_targetAtFixation,jsons/v1_VE1000_randls_76_rotated.json,http://54.235.29.9/FacialAge/BNav_EC2/DepthDuration/v2_depth_duration_MTurk/v2_DepthDuration_HTML.html#217,217,1517,730,1366,768,9-3-2022,13-56-14,151,depth_duration_stimuli/001029_2014-06-08_13-17-57_260595134347_rgbf000065-resize_1/001029_2014-06-08_13-17-57_260595134347_rgbf000065-resize_1-target.png,1000,3.0835,7,3436,998,meters,jsons/v1_VE1000_randls_76_rotated.json,1997369,2366375,34,Man
151,571519,DepthScenes,duration_manipulation_targetAtFixation,jsons/v1_VE1000_randls_76_rotated.json,http://54.235.29.9/FacialAge/BNav_EC2/DepthDuration/v2_depth_duration_MTurk/v2_DepthDuration_HTML.html#217,217,1517,730,1366,768,9-3-2022,13-56-14,152,depth_duration_stimuli/000569_2014-06-09_22-51-47_260595134347_rgbf000141-resize_3/000569_2014-06-09_22-51-47_260595134347_rgbf000141-resize-original.jpg,1000,4.512,67,3289,1000,meters,jsons/v1_VE1000_randls_76_rotated.json,1997369,2366375,34,Man
152,571519,DepthScenes,duration_manipulation_targetAtFixation,jsons/v1_VE1000_randls_76_rotated.json,http://54.235.29.9/FacialAge/BNav_EC2/DepthDuration/v2_depth_duration_MTurk/v2_DepthDuration_HTML.html#217,217,1517,730,1366,768,9-3-2022,13-56-14,153,depth_duration_stimuli/002953_2014-06-08_17-32-18_094959634447_rgbf000059-resize_5/002953_2014-06-08_17-32-18_094959634447_rgbf000059-resize_5-target.png,1000,1.551,34,4158,999,meters,jsons/v1_VE1000_randls_76_rotated.json,1997369,2366375,34,Man
153,571519,DepthScenes,duration_manipulation_targetAtFixation,jsons/v1_VE1000_randls_76_rotated.json,http://54.235.29.9/FacialAge/BNav_EC2/DepthDuration/v2_depth_duration_MTurk/v2_DepthDuration_HTML.html#217,217,1517,730,1366,768,9-3-2022,13-56-14,154,depth_duration_stimuli/000878_2014-06-08_22-52-45_260595134347_rgbf000045-resize_2/000878_2014-06-08_22-52-45_260595134347_rgbf000045-resize_2-target.png,1000,2.092,34,3320,990,meters,jsons/v1_VE1000_randls_76_rotated.json,1997369,2366375,34,Man
154,571519,DepthScenes,duration_manipulation_targetAtFixation,jsons/v1_VE1000_randls_76_rotated.json,http://54.235.29.9/FacialAge/BNav_EC2/DepthDuration/v2_depth_duration_MTurk/v2_DepthDuration_HTML.html#217,217,1517,730,1366,768,9-3-2022,13-56-14,155,depth_duration_stimuli/002323_2014-06-28_20-01-54_260595134347_rgbf000051-resize_4/002323_2014-06-28_20-01-54_260595134347_rgbf000051-resize_4-target.png,1000,3.7310000000000003,34,3706,998,meters,jsons/v1_VE1000_randls_76_rotated.json,1997369,2366375,34,Man
155,571519,DepthScenes,duration_manipulation_targetAtFixation,jsons/v1_VE1000_randls_76_rotated.json,http://54.235.29.9/FacialAge/BNav_EC2/DepthDuration/v2_depth_duration_MTurk/v2_DepthDuration_HTML.html#217,217,1517,730,1366,768,9-3-2022,13-56-14,156,depth_duration_stimuli/000917_2014-06-09_22-45-29_260595134347_rgbf000149-resize_3/000917_2014-06-09_22-45-29_260595134347_rgbf000149-resize_3-target.png,1000,4.1865,68,3484,1015,meters,jsons/v1_VE1000_randls_76_rotated.json,1997369,2366375,34,Man
156,571519,DepthScenes,duration_manipulation_targetAtFixation,jsons/v1_VE1000_randls_76_rotated.json,http://54.235.29.9/FacialAge/BNav_EC2/DepthDuration/v2_depth_duration_MTurk/v2_DepthDuration_HTML.html#217,217,1517,730,1366,768,9-3-2022,13-56-14,157,depth_duration_stimuli/000556_2014-06-09_22-42-56_260595134347_rgbf000214-resize_1/000556_2014-06-09_22-42-56_260595134347_rgbf000214-resize_1-target.png,1000,4.8415,8,3770,939,meters,jsons/v1_VE1000_randls_76_rotated.json,1997369,2366375,34,Man
157,571519,DepthScenes,duration_manipulation_targetAtFixation,jsons/v1_VE1000_randls_76_rotated.json,http://54.235.29.9/FacialAge/BNav_EC2/DepthDuration/v2_depth_duration_MTurk/v2_DepthDuration_HTML.html#217,217,1517,730,1366,768,9-3-2022,13-56-14,158,depth_duration_stimuli/001158_2014-06-17_15-32-16_260595134347_rgbf000138-resize_2/001158_2014-06-17_15-32-16_260595134347_rgbf000138-resize_2-target.png,1000,4.5315,78,3159,998,meters,jsons/v1_VE1000_randls_76_rotated.json,1997369,2366375,34,Man
158,571519,DepthScenes,duration_manipulation_targetAtFixation,jsons/v1_VE1000_randls_76_rotated.json,http://54.235.29.9/FacialAge/BNav_EC2/DepthDuration/v2_depth_duration_MTurk/v2_DepthDuration_HTML.html#217,217,1517,730,1366,768,9-3-2022,13-56-14,159,depth_duration_stimuli/002344_2014-06-28_20-06-29_260595134347_rgbf000030-resize_1/002344_2014-06-28_20-06-29_260595134347_rgbf000030-resize_1-target.png,1000,1.5795,78,3760,999,meters,jsons/v1_VE1000_randls_76_rotated.json,1997369,2366375,34,Man
159,571519,DepthScenes,duration_manipulation_targetAtFixation,jsons/v1_VE1000_randls_76_rotated.json,http://54.235.29.9/FacialAge/BNav_EC2/DepthDuration/v2_depth_duration_MTurk/v2_DepthDuration_HTML.html#217,217,1517,730,1366,768,9-3-2022,13-56-14,160,depth_duration_stimuli/002725_2014-06-22_11-47-51_094959634447_rgbf000070-resize_1/002725_2014-06-22_11-47-51_094959634447_rgbf000070-resize_1-target.png,1000,2.195,78,2993,999,meters,jsons/v1_VE1000_randls_76_rotated.json,1997369,2366375,34,Man
160,571519,DepthScenes,duration_manipulation_targetAtFixation,jsons/v1_VE1000_randls_76_rotated.json,http://54.235.29.9/FacialAge/BNav_EC2/DepthDuration/v2_depth_duration_MTurk/v2_DepthDuration_HTML.html#217,217,1517,730,1366,768,9-3-2022,13-56-14,161,depth_duration_stimuli/000866_2014-06-09_20-45-42_260595134347_rgbf000139-resize_1/000866_2014-06-09_20-45-42_260595134347_rgbf000139-resize_1-target.png,1000,3.2155,89,3223,999,meters,jsons/v1_VE1000_randls_76_rotated.json,1997369,2366375,34,Man
161,571519,DepthScenes,duration_manipulation_targetAtFixation,jsons/v1_VE1000_randls_76_rotated.json,http://54.235.29.9/FacialAge/BNav_EC2/DepthDuration/v2_depth_duration_MTurk/v2_DepthDuration_HTML.html#217,217,1517,730,1366,768,9-3-2022,13-56-14,162,depth_duration_stimuli/002989_2014-06-15_12-25-03_094959634447_rgbf000150-resize_3/002989_2014-06-15_12-25-03_094959634447_rgbf000150-resize_3-target.png,1000,4.1975,9,3380,998,meters,jsons/v1_VE1000_randls_76_rotated.json,1997369,2366375,34,Man
162,571519,DepthScenes,duration_manipulation_targetAtFixation,jsons/v1_VE1000_randls_76_rotated.json,http://54.235.29.9/FacialAge/BNav_EC2/DepthDuration/v2_depth_duration_MTurk/v2_DepthDuration_HTML.html#217,217,1517,730,1366,768,9-3-2022,13-56-14,163,depth_duration_stimuli/003423_2014-05-21_10-23-26_094959634447_rgbf002665-resize_2/003423_2014-05-21_10-23-26_094959634447_rgbf002665-resize_2-target.png,1000,3.2575,89,3074,1113,meters,jsons/v1_VE1000_randls_76_rotated.json,1997369,2366375,34,Man
163,571519,DepthScenes,duration_manipulation_targetAtFixation,jsons/v1_VE1000_randls_76_rotated.json,http://54.235.29.9/FacialAge/BNav_EC2/DepthDuration/v2_depth_duration_MTurk/v2_DepthDuration_HTML.html#217,217,1517,730,1366,768,9-3-2022,13-56-14,164,depth_duration_stimuli/002905_2014-06-03_18-04-43_094959634447_rgbf000151-resize_2/002905_2014-06-03_18-04-43_094959634447_rgbf000151-resize_2-target.png,1000,2.0295,78,2779,961,meters,jsons/v1_VE1000_randls_76_rotated.json,1997369,2366375,34,Man
