,subjID,experimentName,versionName,sequenceName,url,selected_row,windowWidth,windowHeight,screenWidth,screenHeight,startDate,startTime,trial,stimulus,duration,actual_depth,depth_estimate,trial_RT,log_sceneDuration,unitSelection,seq_filepath,experimentTime,totalTime,age,gender
0,572050,DepthScenes,duration_manipulation_targetAtFixation,jsons/VE125_randls_34_rotated.json,http://54.235.29.9/FacialAge/BNav_EC2/DepthDuration/v2_depth_duration_MTurk/v2_DepthDuration_HTML.html#256,256,1364,768,1364,768,8-29-2022,16-8-35,1,depth_duration_stimuli/000103_2014-05-14_22-01-17_260595134347_rgbf000152-resize_5/000103_2014-05-14_22-01-17_260595134347_rgbf000152-resize_5-target.png,125,1.993,5,5121,62,feet,jsons/VE125_randls_34_rotated.json,694037,816550,43,Man
1,572050,DepthScenes,duration_manipulation_targetAtFixation,jsons/VE125_randls_34_rotated.json,http://54.235.29.9/FacialAge/BNav_EC2/DepthDuration/v2_depth_duration_MTurk/v2_DepthDuration_HTML.html#256,256,1364,768,1364,768,8-29-2022,16-8-35,2,depth_duration_stimuli/001555_2014-06-20_17-12-10_260595134347_rgbf000065-resize_4/001555_2014-06-20_17-12-10_260595134347_rgbf000065-resize_4-target.png,125,1.633,0,3115,127,feet,jsons/VE125_randls_34_rotated.json,694037,816550,43,Man
2,572050,DepthScenes,duration_manipulation_targetAtFixation,jsons/VE125_randls_34_rotated.json,http://54.235.29.9/FacialAge/BNav_EC2/DepthDuration/v2_depth_duration_MTurk/v2_DepthDuration_HTML.html#256,256,1364,768,1364,768,8-29-2022,16-8-35,3,depth_duration_stimuli/001617_2014-06-20_11-35-32_260595134347_rgbf000066-resize_1/001617_2014-06-20_11-35-32_260595134347_rgbf000066-resize_1-target.png,125,3.7910000000000004,6,3894,125,feet,jsons/VE125_randls_34_rotated.json,694037,816550,43,Man
3,572050,DepthScenes,duration_manipulation_targetAtFixation,jsons/VE125_randls_34_rotated.json,http://54.235.29.9/FacialAge/BNav_EC2/DepthDuration/v2_depth_duration_MTurk/v2_DepthDuration_HTML.html#256,256,1364,768,1364,768,8-29-2022,16-8-35,4,depth_duration_stimuli/001806_2014-06-26_20-50-20_260595134347_rgbf000091-resize_1/001806_2014-06-26_20-50-20_260595134347_rgbf000091-resize_1-target.png,125,2.7305,0,3617,126,feet,jsons/VE125_randls_34_rotated.json,694037,816550,43,Man
4,572050,DepthScenes,duration_manipulation_targetAtFixation,jsons/VE125_randls_34_rotated.json,http://54.235.29.9/FacialAge/BNav_EC2/DepthDuration/v2_depth_duration_MTurk/v2_DepthDuration_HTML.html#256,256,1364,768,1364,768,8-29-2022,16-8-35,5,depth_duration_stimuli/003228_2014-05-14_13-42-35_094959634447_rgbf000101-resize_1/003228_2014-05-14_13-42-35_094959634447_rgbf000101-resize_1-target.png,125,1.9680000000000002,3,3813,125,feet,jsons/VE125_randls_34_rotated.json,694037,816550,43,Man
5,572050,DepthScenes,duration_manipulation_targetAtFixation,jsons/VE125_randls_34_rotated.json,http://54.235.29.9/FacialAge/BNav_EC2/DepthDuration/v2_depth_duration_MTurk/v2_DepthDuration_HTML.html#256,256,1364,768,1364,768,8-29-2022,16-8-35,6,depth_duration_stimuli/002600_2014-06-24_14-27-04_094959634447_rgbf000074-resize_2/002600_2014-06-24_14-27-04_094959634447_rgbf000074-resize_2-target.png,125,2.7575,3,3994,125,feet,jsons/VE125_randls_34_rotated.json,694037,816550,43,Man
6,572050,DepthScenes,duration_manipulation_targetAtFixation,jsons/VE125_randls_34_rotated.json,http://54.235.29.9/FacialAge/BNav_EC2/DepthDuration/v2_depth_duration_MTurk/v2_DepthDuration_HTML.html#256,256,1364,768,1364,768,8-29-2022,16-8-35,7,depth_duration_stimuli/001032_2014-06-08_13-23-17_260595134347_rgbf000021-resize_3/001032_2014-06-08_13-23-17_260595134347_rgbf000021-resize_3-target.png,125,3.2725,5,3625,126,feet,jsons/VE125_randls_34_rotated.json,694037,816550,43,Man
7,572050,DepthScenes,duration_manipulation_targetAtFixation,jsons/VE125_randls_34_rotated.json,http://54.235.29.9/FacialAge/BNav_EC2/DepthDuration/v2_depth_duration_MTurk/v2_DepthDuration_HTML.html#256,256,1364,768,1364,768,8-29-2022,16-8-35,8,depth_duration_stimuli/001059_2014-06-08_21-53-27_260595134347_rgbf000061-resize_4/001059_2014-06-08_21-53-27_260595134347_rgbf000061-resize_4-target.png,125,2.4185,4,3268,124,feet,jsons/VE125_randls_34_rotated.json,694037,816550,43,Man
8,572050,DepthScenes,duration_manipulation_targetAtFixation,jsons/VE125_randls_34_rotated.json,http://54.235.29.9/FacialAge/BNav_EC2/DepthDuration/v2_depth_duration_MTurk/v2_DepthDuration_HTML.html#256,256,1364,768,1364,768,8-29-2022,16-8-35,9,depth_duration_stimuli/003495_2014-05-21_16-01-51_094959634447_rgbf000100-resize_3/003495_2014-05-21_16-01-51_094959634447_rgbf000100-resize_3-target.png,125,1.6255,3,3487,38,feet,jsons/VE125_randls_34_rotated.json,694037,816550,43,Man
9,572050,DepthScenes,duration_manipulation_targetAtFixation,jsons/VE125_randls_34_rotated.json,http://54.235.29.9/FacialAge/BNav_EC2/DepthDuration/v2_depth_duration_MTurk/v2_DepthDuration_HTML.html#256,256,1364,768,1364,768,8-29-2022,16-8-35,10,depth_duration_stimuli/001244_2014-06-17_16-47-45_260595134347_rgbf000030-resize_4/001244_2014-06-17_16-47-45_260595134347_rgbf000030-resize_4-target.png,125,2.0425,0,2990,120,feet,jsons/VE125_randls_34_rotated.json,694037,816550,43,Man
10,572050,DepthScenes,duration_manipulation_targetAtFixation,jsons/VE125_randls_34_rotated.json,http://54.235.29.9/FacialAge/BNav_EC2/DepthDuration/v2_depth_duration_MTurk/v2_DepthDuration_HTML.html#256,256,1364,768,1364,768,8-29-2022,16-8-35,11,depth_duration_stimuli/002425_2014-06-28_20-27-29_260595134347_rgbf000031-resize_8/002425_2014-06-28_20-27-29_260595134347_rgbf000031-resize_8-target.png,125,3.8960000000000004,7,4348,125,feet,jsons/VE125_randls_34_rotated.json,694037,816550,43,Man
11,572050,DepthScenes,duration_manipulation_targetAtFixation,jsons/VE125_randls_34_rotated.json,http://54.235.29.9/FacialAge/BNav_EC2/DepthDuration/v2_depth_duration_MTurk/v2_DepthDuration_HTML.html#256,256,1364,768,1364,768,8-29-2022,16-8-35,12,depth_duration_stimuli/000642_2014-06-08_16-59-25_260595134347_rgbf000098-resize_2/000642_2014-06-08_16-59-25_260595134347_rgbf000098-resize_2-target.png,125,2.8815,0,2993,124,feet,jsons/VE125_randls_34_rotated.json,694037,816550,43,Man
12,572050,DepthScenes,duration_manipulation_targetAtFixation,jsons/VE125_randls_34_rotated.json,http://54.235.29.9/FacialAge/BNav_EC2/DepthDuration/v2_depth_duration_MTurk/v2_DepthDuration_HTML.html#256,256,1364,768,1364,768,8-29-2022,16-8-35,13,depth_duration_stimuli/001571_2014-06-20_17-21-32_260595134347_rgbf000089-resize_1/001571_2014-06-20_17-21-32_260595134347_rgbf000089-resize_1-target.png,125,1.86,3,3980,123,feet,jsons/VE125_randls_34_rotated.json,694037,816550,43,Man
13,572050,DepthScenes,duration_manipulation_targetAtFixation,jsons/VE125_randls_34_rotated.json,http://54.235.29.9/FacialAge/BNav_EC2/DepthDuration/v2_depth_duration_MTurk/v2_DepthDuration_HTML.html#256,256,1364,768,1364,768,8-29-2022,16-8-35,14,depth_duration_stimuli/002272_2014-06-28_18-53-56_260595134347_rgbf000067-resize_2/002272_2014-06-28_18-53-56_260595134347_rgbf000067-resize_2-target.png,125,1.138,0,4240,125,feet,jsons/VE125_randls_34_rotated.json,694037,816550,43,Man
14,572050,DepthScenes,duration_manipulation_targetAtFixation,jsons/VE125_randls_34_rotated.json,http://54.235.29.9/FacialAge/BNav_EC2/DepthDuration/v2_depth_duration_MTurk/v2_DepthDuration_HTML.html#256,256,1364,768,1364,768,8-29-2022,16-8-35,15,depth_duration_stimuli/003048_2014-06-15_13-49-43_094959634447_rgbf000150-resize_1/003048_2014-06-15_13-49-43_094959634447_rgbf000150-resize_1-target.png,125,4.0035,0,3557,255,feet,jsons/VE125_randls_34_rotated.json,694037,816550,43,Man
15,572050,DepthScenes,duration_manipulation_targetAtFixation,jsons/VE125_randls_34_rotated.json,http://54.235.29.9/FacialAge/BNav_EC2/DepthDuration/v2_depth_duration_MTurk/v2_DepthDuration_HTML.html#256,256,1364,768,1364,768,8-29-2022,16-8-35,16,depth_duration_stimuli/002043_2014-06-24_20-29-38_260595134347_rgbf000039-resize_4/002043_2014-06-24_20-29-38_260595134347_rgbf000039-resize_4-target.png,125,2.8435,0,2794,126,feet,jsons/VE125_randls_34_rotated.json,694037,816550,43,Man
16,572050,DepthScenes,duration_manipulation_targetAtFixation,jsons/VE125_randls_34_rotated.json,http://54.235.29.9/FacialAge/BNav_EC2/DepthDuration/v2_depth_duration_MTurk/v2_DepthDuration_HTML.html#256,256,1364,768,1364,768,8-29-2022,16-8-35,17,depth_duration_stimuli/001214_2014-06-17_16-13-55_260595134347_rgbf000111-resize_0/001214_2014-06-17_16-13-55_260595134347_rgbf000111-resize_0-target.png,125,2.6505,6,3450,125,feet,jsons/VE125_randls_34_rotated.json,694037,816550,43,Man
17,572050,DepthScenes,duration_manipulation_targetAtFixation,jsons/VE125_randls_34_rotated.json,http://54.235.29.9/FacialAge/BNav_EC2/DepthDuration/v2_depth_duration_MTurk/v2_DepthDuration_HTML.html#256,256,1364,768,1364,768,8-29-2022,16-8-35,18,depth_duration_stimuli/000810_2014-06-08_17-20-01_260595134347_rgbf000105-resize_0/000810_2014-06-08_17-20-01_260595134347_rgbf000105-resize_0-target.png,125,1.4865,0,3151,126,feet,jsons/VE125_randls_34_rotated.json,694037,816550,43,Man
18,572050,DepthScenes,duration_manipulation_targetAtFixation,jsons/VE125_randls_34_rotated.json,http://54.235.29.9/FacialAge/BNav_EC2/DepthDuration/v2_depth_duration_MTurk/v2_DepthDuration_HTML.html#256,256,1364,768,1364,768,8-29-2022,16-8-35,19,depth_duration_stimuli/001498_2014-06-19_17-45-14_260595134347_rgbf000129-resize_4/001498_2014-06-19_17-45-14_260595134347_rgbf000129-resize-original.jpg,125,1.4075,0,3256,124,feet,jsons/VE125_randls_34_rotated.json,694037,816550,43,Man
19,572050,DepthScenes,duration_manipulation_targetAtFixation,jsons/VE125_randls_34_rotated.json,http://54.235.29.9/FacialAge/BNav_EC2/DepthDuration/v2_depth_duration_MTurk/v2_DepthDuration_HTML.html#256,256,1364,768,1364,768,8-29-2022,16-8-35,20,depth_duration_stimuli/002444_2014-06-28_20-32-08_260595134347_rgbf000027-resize_0/002444_2014-06-28_20-32-08_260595134347_rgbf000027-resize_0-target.png,125,4.388999999999999,6,3257,125,feet,jsons/VE125_randls_34_rotated.json,694037,816550,43,Man
20,572050,DepthScenes,duration_manipulation_targetAtFixation,jsons/VE125_randls_34_rotated.json,http://54.235.29.9/FacialAge/BNav_EC2/DepthDuration/v2_depth_duration_MTurk/v2_DepthDuration_HTML.html#256,256,1364,768,1364,768,8-29-2022,16-8-35,21,depth_duration_stimuli/000436_2014-06-09_22-25-11_260595134347_rgbf000137-resize_1/000436_2014-06-09_22-25-11_260595134347_rgbf000137-resize_1-target.png,125,4.0705,4,3460,124,feet,jsons/VE125_randls_34_rotated.json,694037,816550,43,Man
21,572050,DepthScenes,duration_manipulation_targetAtFixation,jsons/VE125_randls_34_rotated.json,http://54.235.29.9/FacialAge/BNav_EC2/DepthDuration/v2_depth_duration_MTurk/v2_DepthDuration_HTML.html#256,256,1364,768,1364,768,8-29-2022,16-8-35,22,depth_duration_stimuli/002637_2014-06-24_14-51-13_094959634447_rgbf000066-resize_4/002637_2014-06-24_14-51-13_094959634447_rgbf000066-resize_4-target.png,125,1.9955,6,3749,126,feet,jsons/VE125_randls_34_rotated.json,694037,816550,43,Man
22,572050,DepthScenes,duration_manipulation_targetAtFixation,jsons/VE125_randls_34_rotated.json,http://54.235.29.9/FacialAge/BNav_EC2/DepthDuration/v2_depth_duration_MTurk/v2_DepthDuration_HTML.html#256,256,1364,768,1364,768,8-29-2022,16-8-35,23,depth_duration_stimuli/003534_2014-05-22_15-06-10_094959634447_rgbf000102-resize_4/003534_2014-05-22_15-06-10_094959634447_rgbf000102-resize_4-target.png,125,1.426,3,2951,125,feet,jsons/VE125_randls_34_rotated.json,694037,816550,43,Man
23,572050,DepthScenes,duration_manipulation_targetAtFixation,jsons/VE125_randls_34_rotated.json,http://54.235.29.9/FacialAge/BNav_EC2/DepthDuration/v2_depth_duration_MTurk/v2_DepthDuration_HTML.html#256,256,1364,768,1364,768,8-29-2022,16-8-35,24,depth_duration_stimuli/001447_2014-06-19_17-00-32_260595134347_rgbf000082-resize_5/001447_2014-06-19_17-00-32_260595134347_rgbf000082-resize_5-target.png,125,4.13775,5,3257,122,feet,jsons/VE125_randls_34_rotated.json,694037,816550,43,Man
24,572050,DepthScenes,duration_manipulation_targetAtFixation,jsons/VE125_randls_34_rotated.json,http://54.235.29.9/FacialAge/BNav_EC2/DepthDuration/v2_depth_duration_MTurk/v2_DepthDuration_HTML.html#256,256,1364,768,1364,768,8-29-2022,16-8-35,25,depth_duration_stimuli/000447_2014-06-08_16-15-46_260595134347_rgbf000130-resize_1/000447_2014-06-08_16-15-46_260595134347_rgbf000130-resize_1-target.png,125,4.479,6,3459,116,feet,jsons/VE125_randls_34_rotated.json,694037,816550,43,Man
25,572050,DepthScenes,duration_manipulation_targetAtFixation,jsons/VE125_randls_34_rotated.json,http://54.235.29.9/FacialAge/BNav_EC2/DepthDuration/v2_depth_duration_MTurk/v2_DepthDuration_HTML.html#256,256,1364,768,1364,768,8-29-2022,16-8-35,26,depth_duration_stimuli/000854_2014-06-09_19-43-13_260595134347_rgbf000066-resize_0/000854_2014-06-09_19-43-13_260595134347_rgbf000066-resize_0-target.png,125,3.068,3,3364,125,feet,jsons/VE125_randls_34_rotated.json,694037,816550,43,Man
26,572050,DepthScenes,duration_manipulation_targetAtFixation,jsons/VE125_randls_34_rotated.json,http://54.235.29.9/FacialAge/BNav_EC2/DepthDuration/v2_depth_duration_MTurk/v2_DepthDuration_HTML.html#256,256,1364,768,1364,768,8-29-2022,16-8-35,27,depth_duration_stimuli/000758_2014-06-08_22-05-08_260595134347_rgbf000085-resize_0/000758_2014-06-08_22-05-08_260595134347_rgbf000085-resize_0-target.png,125,3.3810000000000002,5,3653,126,feet,jsons/VE125_randls_34_rotated.json,694037,816550,43,Man
27,572050,DepthScenes,duration_manipulation_targetAtFixation,jsons/VE125_randls_34_rotated.json,http://54.235.29.9/FacialAge/BNav_EC2/DepthDuration/v2_depth_duration_MTurk/v2_DepthDuration_HTML.html#256,256,1364,768,1364,768,8-29-2022,16-8-35,28,depth_duration_stimuli/001052_2014-06-08_18-24-54_260595134347_rgbf000130-resize_1/001052_2014-06-08_18-24-54_260595134347_rgbf000130-resize_1-target.png,125,4.1045,6,3413,126,feet,jsons/VE125_randls_34_rotated.json,694037,816550,43,Man
28,572050,DepthScenes,duration_manipulation_targetAtFixation,jsons/VE125_randls_34_rotated.json,http://54.235.29.9/FacialAge/BNav_EC2/DepthDuration/v2_depth_duration_MTurk/v2_DepthDuration_HTML.html#256,256,1364,768,1364,768,8-29-2022,16-8-35,29,depth_duration_stimuli/002988_2014-06-15_12-24-20_094959634447_rgbf000150-resize_1/002988_2014-06-15_12-24-20_094959634447_rgbf000150-resize_1-target.png,125,4.7669999999999995,5,3127,126,feet,jsons/VE125_randls_34_rotated.json,694037,816550,43,Man
29,572050,DepthScenes,duration_manipulation_targetAtFixation,jsons/VE125_randls_34_rotated.json,http://54.235.29.9/FacialAge/BNav_EC2/DepthDuration/v2_depth_duration_MTurk/v2_DepthDuration_HTML.html#256,256,1364,768,1364,768,8-29-2022,16-8-35,30,depth_duration_stimuli/002072_2014-06-24_21-48-06_260595134347_rgbf000115-resize_0/002072_2014-06-24_21-48-06_260595134347_rgbf000115-resize-original.jpg,125,4.702,0,3286,126,feet,jsons/VE125_randls_34_rotated.json,694037,816550,43,Man
30,572050,DepthScenes,duration_manipulation_targetAtFixation,jsons/VE125_randls_34_rotated.json,http://54.235.29.9/FacialAge/BNav_EC2/DepthDuration/v2_depth_duration_MTurk/v2_DepthDuration_HTML.html#256,256,1364,768,1364,768,8-29-2022,16-8-35,31,depth_duration_stimuli/002209_2014-06-28_18-36-10_260595134347_rgbf000051-resize_1/002209_2014-06-28_18-36-10_260595134347_rgbf000051-resize_1-target.png,125,2.057,4,3444,125,feet,jsons/VE125_randls_34_rotated.json,694037,816550,43,Man
31,572050,DepthScenes,duration_manipulation_targetAtFixation,jsons/VE125_randls_34_rotated.json,http://54.235.29.9/FacialAge/BNav_EC2/DepthDuration/v2_depth_duration_MTurk/v2_DepthDuration_HTML.html#256,256,1364,768,1364,768,8-29-2022,16-8-35,32,depth_duration_stimuli/002763_2014-06-22_19-13-10_094959634447_rgbf000075-resize_4/002763_2014-06-22_19-13-10_094959634447_rgbf000075-resize_4-target.png,125,1.68375,2,3364,124,feet,jsons/VE125_randls_34_rotated.json,694037,816550,43,Man
32,572050,DepthScenes,duration_manipulation_targetAtFixation,jsons/VE125_randls_34_rotated.json,http://54.235.29.9/FacialAge/BNav_EC2/DepthDuration/v2_depth_duration_MTurk/v2_DepthDuration_HTML.html#256,256,1364,768,1364,768,8-29-2022,16-8-35,33,depth_duration_stimuli/002758_2014-06-22_19-11-20_094959634447_rgbf000128-resize_1/002758_2014-06-22_19-11-20_094959634447_rgbf000128-resize_1-target.png,125,2.555,5,3525,126,feet,jsons/VE125_randls_34_rotated.json,694037,816550,43,Man
33,572050,DepthScenes,duration_manipulation_targetAtFixation,jsons/VE125_randls_34_rotated.json,http://54.235.29.9/FacialAge/BNav_EC2/DepthDuration/v2_depth_duration_MTurk/v2_DepthDuration_HTML.html#256,256,1364,768,1364,768,8-29-2022,16-8-35,34,depth_duration_stimuli/002630_2014-06-24_14-47-50_094959634447_rgbf000055-resize_1/002630_2014-06-24_14-47-50_094959634447_rgbf000055-resize_1-target.png,125,3.0095,2,6156,102,feet,jsons/VE125_randls_34_rotated.json,694037,816550,43,Man
34,572050,DepthScenes,duration_manipulation_targetAtFixation,jsons/VE125_randls_34_rotated.json,http://54.235.29.9/FacialAge/BNav_EC2/DepthDuration/v2_depth_duration_MTurk/v2_DepthDuration_HTML.html#256,256,1364,768,1364,768,8-29-2022,16-8-35,35,depth_duration_stimuli/002344_2014-06-28_20-06-29_260595134347_rgbf000030-resize_1/002344_2014-06-28_20-06-29_260595134347_rgbf000030-resize_1-target.png,125,1.5795,3,7516,125,feet,jsons/VE125_randls_34_rotated.json,694037,816550,43,Man
35,572050,DepthScenes,duration_manipulation_targetAtFixation,jsons/VE125_randls_34_rotated.json,http://54.235.29.9/FacialAge/BNav_EC2/DepthDuration/v2_depth_duration_MTurk/v2_DepthDuration_HTML.html#256,256,1364,768,1364,768,8-29-2022,16-8-35,36,depth_duration_stimuli/002725_2014-06-22_11-47-51_094959634447_rgbf000070-resize_1/002725_2014-06-22_11-47-51_094959634447_rgbf000070-resize_1-target.png,125,2.195,0,3713,125,feet,jsons/VE125_randls_34_rotated.json,694037,816550,43,Man
36,572050,DepthScenes,duration_manipulation_targetAtFixation,jsons/VE125_randls_34_rotated.json,http://54.235.29.9/FacialAge/BNav_EC2/DepthDuration/v2_depth_duration_MTurk/v2_DepthDuration_HTML.html#256,256,1364,768,1364,768,8-29-2022,16-8-35,37,depth_duration_stimuli/003081_2014-06-15_15-19-16_094959634447_rgbf000150-resize_1/003081_2014-06-15_15-19-16_094959634447_rgbf000150-resize_1-target.png,125,3.9125,6,4903,126,feet,jsons/VE125_randls_34_rotated.json,694037,816550,43,Man
37,572050,DepthScenes,duration_manipulation_targetAtFixation,jsons/VE125_randls_34_rotated.json,http://54.235.29.9/FacialAge/BNav_EC2/DepthDuration/v2_depth_duration_MTurk/v2_DepthDuration_HTML.html#256,256,1364,768,1364,768,8-29-2022,16-8-35,38,depth_duration_stimuli/001417_2014-06-19_16-25-36_260595134347_rgbf000115-resize_5/001417_2014-06-19_16-25-36_260595134347_rgbf000115-resize_5-target.png,125,4.6255,4,3591,124,feet,jsons/VE125_randls_34_rotated.json,694037,816550,43,Man
38,572050,DepthScenes,duration_manipulation_targetAtFixation,jsons/VE125_randls_34_rotated.json,http://54.235.29.9/FacialAge/BNav_EC2/DepthDuration/v2_depth_duration_MTurk/v2_DepthDuration_HTML.html#256,256,1364,768,1364,768,8-29-2022,16-8-35,39,depth_duration_stimuli/000457_2014-06-08_16-52-43_260595134347_rgbf000199-resize_1/000457_2014-06-08_16-52-43_260595134347_rgbf000199-resize_1-target.png,125,3.6489999999999996,6,3851,124,feet,jsons/VE125_randls_34_rotated.json,694037,816550,43,Man
39,572050,DepthScenes,duration_manipulation_targetAtFixation,jsons/VE125_randls_34_rotated.json,http://54.235.29.9/FacialAge/BNav_EC2/DepthDuration/v2_depth_duration_MTurk/v2_DepthDuration_HTML.html#256,256,1364,768,1364,768,8-29-2022,16-8-35,40,depth_duration_stimuli/000929_2014-06-09_16-33-19_260595134347_rgbf000139-resize_0/000929_2014-06-09_16-33-19_260595134347_rgbf000139-resize_0-target.png,125,2.8680000000000003,5,3582,125,feet,jsons/VE125_randls_34_rotated.json,694037,816550,43,Man
40,572050,DepthScenes,duration_manipulation_targetAtFixation,jsons/VE125_randls_34_rotated.json,http://54.235.29.9/FacialAge/BNav_EC2/DepthDuration/v2_depth_duration_MTurk/v2_DepthDuration_HTML.html#256,256,1364,768,1364,768,8-29-2022,16-8-35,41,depth_duration_stimuli/002953_2014-06-08_17-32-18_094959634447_rgbf000059-resize_5/002953_2014-06-08_17-32-18_094959634447_rgbf000059-resize_5-target.png,125,1.551,3,3638,124,feet,jsons/VE125_randls_34_rotated.json,694037,816550,43,Man
41,572050,DepthScenes,duration_manipulation_targetAtFixation,jsons/VE125_randls_34_rotated.json,http://54.235.29.9/FacialAge/BNav_EC2/DepthDuration/v2_depth_duration_MTurk/v2_DepthDuration_HTML.html#256,256,1364,768,1364,768,8-29-2022,16-8-35,42,depth_duration_stimuli/000878_2014-06-08_22-52-45_260595134347_rgbf000045-resize_2/000878_2014-06-08_22-52-45_260595134347_rgbf000045-resize_2-target.png,125,2.092,0,3724,125,feet,jsons/VE125_randls_34_rotated.json,694037,816550,43,Man
42,572050,DepthScenes,duration_manipulation_targetAtFixation,jsons/VE125_randls_34_rotated.json,http://54.235.29.9/FacialAge/BNav_EC2/DepthDuration/v2_depth_duration_MTurk/v2_DepthDuration_HTML.html#256,256,1364,768,1364,768,8-29-2022,16-8-35,43,depth_duration_stimuli/000677_2014-06-08_23-10-32_260595134347_rgbf000158-resize_6/000677_2014-06-08_23-10-32_260595134347_rgbf000158-resize_6-target.png,125,3.556,8,3613,126,feet,jsons/VE125_randls_34_rotated.json,694037,816550,43,Man
43,572050,DepthScenes,duration_manipulation_targetAtFixation,jsons/VE125_randls_34_rotated.json,http://54.235.29.9/FacialAge/BNav_EC2/DepthDuration/v2_depth_duration_MTurk/v2_DepthDuration_HTML.html#256,256,1364,768,1364,768,8-29-2022,16-8-35,44,depth_duration_stimuli/001029_2014-06-08_13-17-57_260595134347_rgbf000065-resize_1/001029_2014-06-08_13-17-57_260595134347_rgbf000065-resize_1-target.png,125,3.0835,4,5420,124,feet,jsons/VE125_randls_34_rotated.json,694037,816550,43,Man
44,572050,DepthScenes,duration_manipulation_targetAtFixation,jsons/VE125_randls_34_rotated.json,http://54.235.29.9/FacialAge/BNav_EC2/DepthDuration/v2_depth_duration_MTurk/v2_DepthDuration_HTML.html#256,256,1364,768,1364,768,8-29-2022,16-8-35,45,depth_duration_stimuli/001094_2014-06-15_17-36-00_260595134347_rgbf000205-resize_0/001094_2014-06-15_17-36-00_260595134347_rgbf000205-resize_0-target.png,125,4.2175,7,3962,125,feet,jsons/VE125_randls_34_rotated.json,694037,816550,43,Man
45,572050,DepthScenes,duration_manipulation_targetAtFixation,jsons/VE125_randls_34_rotated.json,http://54.235.29.9/FacialAge/BNav_EC2/DepthDuration/v2_depth_duration_MTurk/v2_DepthDuration_HTML.html#256,256,1364,768,1364,768,8-29-2022,16-8-35,46,depth_duration_stimuli/000692_2014-06-08_13-09-42_260595134347_rgbf000199-resize_2/000692_2014-06-08_13-09-42_260595134347_rgbf000199-resize_2-target.png,125,3.661,3,3454,126,feet,jsons/VE125_randls_34_rotated.json,694037,816550,43,Man
46,572050,DepthScenes,duration_manipulation_targetAtFixation,jsons/VE125_randls_34_rotated.json,http://54.235.29.9/FacialAge/BNav_EC2/DepthDuration/v2_depth_duration_MTurk/v2_DepthDuration_HTML.html#256,256,1364,768,1364,768,8-29-2022,16-8-35,47,depth_duration_stimuli/000665_2014-06-09_20-42-35_260595134347_rgbf000110-resize_1/000665_2014-06-09_20-42-35_260595134347_rgbf000110-resize_1-target.png,125,3.057,6,3539,124,feet,jsons/VE125_randls_34_rotated.json,694037,816550,43,Man
47,572050,DepthScenes,duration_manipulation_targetAtFixation,jsons/VE125_randls_34_rotated.json,http://54.235.29.9/FacialAge/BNav_EC2/DepthDuration/v2_depth_duration_MTurk/v2_DepthDuration_HTML.html#256,256,1364,768,1364,768,8-29-2022,16-8-35,48,depth_duration_stimuli/001150_2014-06-17_15-27-34_260595134347_rgbf000108-resize_2/001150_2014-06-17_15-27-34_260595134347_rgbf000108-resize_2-target.png,125,4.0325,7,2985,126,feet,jsons/VE125_randls_34_rotated.json,694037,816550,43,Man
48,572050,DepthScenes,duration_manipulation_targetAtFixation,jsons/VE125_randls_34_rotated.json,http://54.235.29.9/FacialAge/BNav_EC2/DepthDuration/v2_depth_duration_MTurk/v2_DepthDuration_HTML.html#256,256,1364,768,1364,768,8-29-2022,16-8-35,49,depth_duration_stimuli/001170_2014-06-17_15-43-44_260595134347_rgbf000096-resize_6/001170_2014-06-17_15-43-44_260595134347_rgbf000096-resize-original.jpg,125,1.1909999999999998,0,4235,125,feet,jsons/VE125_randls_34_rotated.json,694037,816550,43,Man
49,572050,DepthScenes,duration_manipulation_targetAtFixation,jsons/VE125_randls_34_rotated.json,http://54.235.29.9/FacialAge/BNav_EC2/DepthDuration/v2_depth_duration_MTurk/v2_DepthDuration_HTML.html#256,256,1364,768,1364,768,8-29-2022,16-8-35,50,depth_duration_stimuli/001136_2014-06-17_15-19-41_260595134347_rgbf000076-resize_3/001136_2014-06-17_15-19-41_260595134347_rgbf000076-resize_3-target.png,125,1.8655,6,3934,125,feet,jsons/VE125_randls_34_rotated.json,694037,816550,43,Man
50,572050,DepthScenes,duration_manipulation_targetAtFixation,jsons/VE125_randls_34_rotated.json,http://54.235.29.9/FacialAge/BNav_EC2/DepthDuration/v2_depth_duration_MTurk/v2_DepthDuration_HTML.html#256,256,1364,768,1364,768,8-29-2022,16-8-35,51,depth_duration_stimuli/001164_2014-06-17_15-35-46_260595134347_rgbf000085-resize_3/001164_2014-06-17_15-35-46_260595134347_rgbf000085-resize_3-target.png,125,2.354,0,3174,125,feet,jsons/VE125_randls_34_rotated.json,694037,816550,43,Man
51,572050,DepthScenes,duration_manipulation_targetAtFixation,jsons/VE125_randls_34_rotated.json,http://54.235.29.9/FacialAge/BNav_EC2/DepthDuration/v2_depth_duration_MTurk/v2_DepthDuration_HTML.html#256,256,1364,768,1364,768,8-29-2022,16-8-35,52,depth_duration_stimuli/002136_2014-06-25_21-18-03_260595134347_rgbf000109-resize_3/002136_2014-06-25_21-18-03_260595134347_rgbf000109-resize_3-target.png,125,1.9569999999999999,4,3321,121,feet,jsons/VE125_randls_34_rotated.json,694037,816550,43,Man
52,572050,DepthScenes,duration_manipulation_targetAtFixation,jsons/VE125_randls_34_rotated.json,http://54.235.29.9/FacialAge/BNav_EC2/DepthDuration/v2_depth_duration_MTurk/v2_DepthDuration_HTML.html#256,256,1364,768,1364,768,8-29-2022,16-8-35,53,depth_duration_stimuli/002964_2014-06-08_17-46-11_094959634447_rgbf000091-resize_4/002964_2014-06-08_17-46-11_094959634447_rgbf000091-resize_4-target.png,125,1.6909999999999998,0,2979,15,feet,jsons/VE125_randls_34_rotated.json,694037,816550,43,Man
53,572050,DepthScenes,duration_manipulation_targetAtFixation,jsons/VE125_randls_34_rotated.json,http://54.235.29.9/FacialAge/BNav_EC2/DepthDuration/v2_depth_duration_MTurk/v2_DepthDuration_HTML.html#256,256,1364,768,1364,768,8-29-2022,16-8-35,54,depth_duration_stimuli/000137_2014-05-20_17-04-49_260595134347_rgbf000120-resize_1/000137_2014-05-20_17-04-49_260595134347_rgbf000120-resize_1-target.png,125,3.786,8,5060,125,feet,jsons/VE125_randls_34_rotated.json,694037,816550,43,Man
54,572050,DepthScenes,duration_manipulation_targetAtFixation,jsons/VE125_randls_34_rotated.json,http://54.235.29.9/FacialAge/BNav_EC2/DepthDuration/v2_depth_duration_MTurk/v2_DepthDuration_HTML.html#256,256,1364,768,1364,768,8-29-2022,16-8-35,55,depth_duration_stimuli/000736_2014-06-08_18-24-15_260595134347_rgbf000206-resize_3/000736_2014-06-08_18-24-15_260595134347_rgbf000206-resize_3-target.png,125,3.515,2,3329,123,feet,jsons/VE125_randls_34_rotated.json,694037,816550,43,Man
55,572050,DepthScenes,duration_manipulation_targetAtFixation,jsons/VE125_randls_34_rotated.json,http://54.235.29.9/FacialAge/BNav_EC2/DepthDuration/v2_depth_duration_MTurk/v2_DepthDuration_HTML.html#256,256,1364,768,1364,768,8-29-2022,16-8-35,56,depth_duration_stimuli/002750_2014-06-22_19-08-03_094959634447_rgbf000094-resize_4/002750_2014-06-22_19-08-03_094959634447_rgbf000094-resize_4-target.png,125,2.354,5,3335,124,feet,jsons/VE125_randls_34_rotated.json,694037,816550,43,Man
56,572050,DepthScenes,duration_manipulation_targetAtFixation,jsons/VE125_randls_34_rotated.json,http://54.235.29.9/FacialAge/BNav_EC2/DepthDuration/v2_depth_duration_MTurk/v2_DepthDuration_HTML.html#256,256,1364,768,1364,768,8-29-2022,16-8-35,57,depth_duration_stimuli/002549_2014-06-24_13-41-39_094959634447_rgbf000022-resize_3/002549_2014-06-24_13-41-39_094959634447_rgbf000022-resize_3-target.png,125,1.476,4,3160,176,feet,jsons/VE125_randls_34_rotated.json,694037,816550,43,Man
57,572050,DepthScenes,duration_manipulation_targetAtFixation,jsons/VE125_randls_34_rotated.json,http://54.235.29.9/FacialAge/BNav_EC2/DepthDuration/v2_depth_duration_MTurk/v2_DepthDuration_HTML.html#256,256,1364,768,1364,768,8-29-2022,16-8-35,58,depth_duration_stimuli/000927_2014-06-09_16-32-30_260595134347_rgbf000123-resize_3/000927_2014-06-09_16-32-30_260595134347_rgbf000123-resize_3-target.png,125,2.6785,7,4315,125,feet,jsons/VE125_randls_34_rotated.json,694037,816550,43,Man
58,572050,DepthScenes,duration_manipulation_targetAtFixation,jsons/VE125_randls_34_rotated.json,http://54.235.29.9/FacialAge/BNav_EC2/DepthDuration/v2_depth_duration_MTurk/v2_DepthDuration_HTML.html#256,256,1364,768,1364,768,8-29-2022,16-8-35,59,depth_duration_stimuli/001110_2014-06-15_17-25-28_260595134347_rgbf000150-resize_1/001110_2014-06-15_17-25-28_260595134347_rgbf000150-resize_1-target.png,125,1.7115,3,4078,125,feet,jsons/VE125_randls_34_rotated.json,694037,816550,43,Man
59,572050,DepthScenes,duration_manipulation_targetAtFixation,jsons/VE125_randls_34_rotated.json,http://54.235.29.9/FacialAge/BNav_EC2/DepthDuration/v2_depth_duration_MTurk/v2_DepthDuration_HTML.html#256,256,1364,768,1364,768,8-29-2022,16-8-35,60,depth_duration_stimuli/003010_2014-06-15_12-54-35_094959634447_rgbf000112-resize_0/003010_2014-06-15_12-54-35_094959634447_rgbf000112-resize_0-target.png,125,3.1185,9,5313,129,feet,jsons/VE125_randls_34_rotated.json,694037,816550,43,Man
60,572050,DepthScenes,duration_manipulation_targetAtFixation,jsons/VE125_randls_34_rotated.json,http://54.235.29.9/FacialAge/BNav_EC2/DepthDuration/v2_depth_duration_MTurk/v2_DepthDuration_HTML.html#256,256,1364,768,1364,768,8-29-2022,16-8-35,61,depth_duration_stimuli/001810_2014-06-26_20-51-35_260595134347_rgbf000040-resize_3/001810_2014-06-26_20-51-35_260595134347_rgbf000040-resize_3-target.png,125,2.2525,2,3387,124,feet,jsons/VE125_randls_34_rotated.json,694037,816550,43,Man
61,572050,DepthScenes,duration_manipulation_targetAtFixation,jsons/VE125_randls_34_rotated.json,http://54.235.29.9/FacialAge/BNav_EC2/DepthDuration/v2_depth_duration_MTurk/v2_DepthDuration_HTML.html#256,256,1364,768,1364,768,8-29-2022,16-8-35,62,depth_duration_stimuli/002995_2014-06-15_12-31-26_094959634447_rgbf000150-resize_1/002995_2014-06-15_12-31-26_094959634447_rgbf000150-resize_1-target.png,125,3.8360000000000003,9,3594,126,feet,jsons/VE125_randls_34_rotated.json,694037,816550,43,Man
62,572050,DepthScenes,duration_manipulation_targetAtFixation,jsons/VE125_randls_34_rotated.json,http://54.235.29.9/FacialAge/BNav_EC2/DepthDuration/v2_depth_duration_MTurk/v2_DepthDuration_HTML.html#256,256,1364,768,1364,768,8-29-2022,16-8-35,63,depth_duration_stimuli/002748_2014-06-22_19-07-22_094959634447_rgbf000078-resize_1/002748_2014-06-22_19-07-22_094959634447_rgbf000078-resize_1-target.png,125,4.6705,5,4821,125,feet,jsons/VE125_randls_34_rotated.json,694037,816550,43,Man
63,572050,DepthScenes,duration_manipulation_targetAtFixation,jsons/VE125_randls_34_rotated.json,http://54.235.29.9/FacialAge/BNav_EC2/DepthDuration/v2_depth_duration_MTurk/v2_DepthDuration_HTML.html#256,256,1364,768,1364,768,8-29-2022,16-8-35,64,depth_duration_stimuli/002103_2014-06-25_20-00-40_260595134347_rgbf000049-resize_0/002103_2014-06-25_20-00-40_260595134347_rgbf000049-resize_0-target.png,125,4.105,7,4011,125,feet,jsons/VE125_randls_34_rotated.json,694037,816550,43,Man
64,572050,DepthScenes,duration_manipulation_targetAtFixation,jsons/VE125_randls_34_rotated.json,http://54.235.29.9/FacialAge/BNav_EC2/DepthDuration/v2_depth_duration_MTurk/v2_DepthDuration_HTML.html#256,256,1364,768,1364,768,8-29-2022,16-8-35,65,depth_duration_stimuli/002039_2014-06-24_20-22-38_260595134347_rgbf000084-resize_1/002039_2014-06-24_20-22-38_260595134347_rgbf000084-resize_1-target.png,125,4.408,3,3922,114,feet,jsons/VE125_randls_34_rotated.json,694037,816550,43,Man
65,572050,DepthScenes,duration_manipulation_targetAtFixation,jsons/VE125_randls_34_rotated.json,http://54.235.29.9/FacialAge/BNav_EC2/DepthDuration/v2_depth_duration_MTurk/v2_DepthDuration_HTML.html#256,256,1364,768,1364,768,8-29-2022,16-8-35,66,depth_duration_stimuli/001540_2014-06-20_17-01-05_260595134347_rgbf000086-resize_2/001540_2014-06-20_17-01-05_260595134347_rgbf000086-resize-original.jpg,125,1.459,0,4595,124,feet,jsons/VE125_randls_34_rotated.json,694037,816550,43,Man
66,572050,DepthScenes,duration_manipulation_targetAtFixation,jsons/VE125_randls_34_rotated.json,http://54.235.29.9/FacialAge/BNav_EC2/DepthDuration/v2_depth_duration_MTurk/v2_DepthDuration_HTML.html#256,256,1364,768,1364,768,8-29-2022,16-8-35,67,depth_duration_stimuli/000742_2014-06-08_18-48-09_260595134347_rgbf000164-resize_4/000742_2014-06-08_18-48-09_260595134347_rgbf000164-resize_4-target.png,125,4.632,8,3739,126,feet,jsons/VE125_randls_34_rotated.json,694037,816550,43,Man
67,572050,DepthScenes,duration_manipulation_targetAtFixation,jsons/VE125_randls_34_rotated.json,http://54.235.29.9/FacialAge/BNav_EC2/DepthDuration/v2_depth_duration_MTurk/v2_DepthDuration_HTML.html#256,256,1364,768,1364,768,8-29-2022,16-8-35,68,depth_duration_stimuli/001066_2014-06-08_22-03-20_260595134347_rgbf000066-resize_4/001066_2014-06-08_22-03-20_260595134347_rgbf000066-resize_4-target.png,125,4.2330000000000005,3,4108,125,feet,jsons/VE125_randls_34_rotated.json,694037,816550,43,Man
68,572050,DepthScenes,duration_manipulation_targetAtFixation,jsons/VE125_randls_34_rotated.json,http://54.235.29.9/FacialAge/BNav_EC2/DepthDuration/v2_depth_duration_MTurk/v2_DepthDuration_HTML.html#256,256,1364,768,1364,768,8-29-2022,16-8-35,69,depth_duration_stimuli/002199_2014-06-28_18-33-56_260595134347_rgbf000074-resize_0/002199_2014-06-28_18-33-56_260595134347_rgbf000074-resize_0-target.png,125,1.996,2,11113,125,feet,jsons/VE125_randls_34_rotated.json,694037,816550,43,Man
69,572050,DepthScenes,duration_manipulation_targetAtFixation,jsons/VE125_randls_34_rotated.json,http://54.235.29.9/FacialAge/BNav_EC2/DepthDuration/v2_depth_duration_MTurk/v2_DepthDuration_HTML.html#256,256,1364,768,1364,768,8-29-2022,16-8-35,70,depth_duration_stimuli/001056_2014-06-08_18-46-44_260595134347_rgbf000068-resize_0/001056_2014-06-08_18-46-44_260595134347_rgbf000068-resize_0-target.png,125,2.6625,3,3684,123,feet,jsons/VE125_randls_34_rotated.json,694037,816550,43,Man
70,572050,DepthScenes,duration_manipulation_targetAtFixation,jsons/VE125_randls_34_rotated.json,http://54.235.29.9/FacialAge/BNav_EC2/DepthDuration/v2_depth_duration_MTurk/v2_DepthDuration_HTML.html#256,256,1364,768,1364,768,8-29-2022,16-8-35,71,depth_duration_stimuli/002805_2014-06-22_19-54-03_094959634447_rgbf000079-resize_1/002805_2014-06-22_19-54-03_094959634447_rgbf000079-resize_1-target.png,125,3.1439999999999997,4,5298,124,feet,jsons/VE125_randls_34_rotated.json,694037,816550,43,Man
71,572050,DepthScenes,duration_manipulation_targetAtFixation,jsons/VE125_randls_34_rotated.json,http://54.235.29.9/FacialAge/BNav_EC2/DepthDuration/v2_depth_duration_MTurk/v2_DepthDuration_HTML.html#256,256,1364,768,1364,768,8-29-2022,16-8-35,72,depth_duration_stimuli/000906_2014-06-08_13-35-43_260595134347_rgbf000155-resize_1/000906_2014-06-08_13-35-43_260595134347_rgbf000155-resize_1-target.png,125,2.8489999999999998,5,4146,125,feet,jsons/VE125_randls_34_rotated.json,694037,816550,43,Man
72,572050,DepthScenes,duration_manipulation_targetAtFixation,jsons/VE125_randls_34_rotated.json,http://54.235.29.9/FacialAge/BNav_EC2/DepthDuration/v2_depth_duration_MTurk/v2_DepthDuration_HTML.html#256,256,1364,768,1364,768,8-29-2022,16-8-35,73,depth_duration_stimuli/003338_2014-05-20_11-01-23_094959634447_rgbf000051-resize_6/003338_2014-05-20_11-01-23_094959634447_rgbf000051-resize_6-target.png,125,1.693,3,6948,126,feet,jsons/VE125_randls_34_rotated.json,694037,816550,43,Man
73,572050,DepthScenes,duration_manipulation_targetAtFixation,jsons/VE125_randls_34_rotated.json,http://54.235.29.9/FacialAge/BNav_EC2/DepthDuration/v2_depth_duration_MTurk/v2_DepthDuration_HTML.html#256,256,1364,768,1364,768,8-29-2022,16-8-35,74,depth_duration_stimuli/002509_2014-06-24_13-19-22_094959634447_rgbf000077-resize_0/002509_2014-06-24_13-19-22_094959634447_rgbf000077-resize_0-target.png,125,1.3065,6,6554,125,feet,jsons/VE125_randls_34_rotated.json,694037,816550,43,Man
74,572050,DepthScenes,duration_manipulation_targetAtFixation,jsons/VE125_randls_34_rotated.json,http://54.235.29.9/FacialAge/BNav_EC2/DepthDuration/v2_depth_duration_MTurk/v2_DepthDuration_HTML.html#256,256,1364,768,1364,768,8-29-2022,16-8-35,75,depth_duration_stimuli/003490_2014-05-21_15-50-11_094959634447_rgbf000101-resize_3/003490_2014-05-21_15-50-11_094959634447_rgbf000101-resize_3-target.png,125,3.6445,5,4387,126,feet,jsons/VE125_randls_34_rotated.json,694037,816550,43,Man
75,572050,DepthScenes,duration_manipulation_targetAtFixation,jsons/VE125_randls_34_rotated.json,http://54.235.29.9/FacialAge/BNav_EC2/DepthDuration/v2_depth_duration_MTurk/v2_DepthDuration_HTML.html#256,256,1364,768,1364,768,8-29-2022,16-8-35,76,depth_duration_stimuli/001175_2014-06-17_15-45-55_260595134347_rgbf000129-resize_4/001175_2014-06-17_15-45-55_260595134347_rgbf000129-resize_4-target.png,125,4.255,4,3059,124,feet,jsons/VE125_randls_34_rotated.json,694037,816550,43,Man
76,572050,DepthScenes,duration_manipulation_targetAtFixation,jsons/VE125_randls_34_rotated.json,http://54.235.29.9/FacialAge/BNav_EC2/DepthDuration/v2_depth_duration_MTurk/v2_DepthDuration_HTML.html#256,256,1364,768,1364,768,8-29-2022,16-8-35,77,depth_duration_stimuli/003423_2014-05-21_10-23-26_094959634447_rgbf002665-resize_2/003423_2014-05-21_10-23-26_094959634447_rgbf002665-resize_2-target.png,125,3.2575,7,4589,126,feet,jsons/VE125_randls_34_rotated.json,694037,816550,43,Man
77,572050,DepthScenes,duration_manipulation_targetAtFixation,jsons/VE125_randls_34_rotated.json,http://54.235.29.9/FacialAge/BNav_EC2/DepthDuration/v2_depth_duration_MTurk/v2_DepthDuration_HTML.html#256,256,1364,768,1364,768,8-29-2022,16-8-35,78,depth_duration_stimuli/002905_2014-06-03_18-04-43_094959634447_rgbf000151-resize_2/002905_2014-06-03_18-04-43_094959634447_rgbf000151-resize_2-target.png,125,2.0295,0,2810,106,feet,jsons/VE125_randls_34_rotated.json,694037,816550,43,Man
78,572050,DepthScenes,duration_manipulation_targetAtFixation,jsons/VE125_randls_34_rotated.json,http://54.235.29.9/FacialAge/BNav_EC2/DepthDuration/v2_depth_duration_MTurk/v2_DepthDuration_HTML.html#256,256,1364,768,1364,768,8-29-2022,16-8-35,79,depth_duration_stimuli/000635_2014-06-08_16-38-42_260595134347_rgbf000106-resize_1/000635_2014-06-08_16-38-42_260595134347_rgbf000106-resize_1-target.png,125,2.074,8,4976,125,feet,jsons/VE125_randls_34_rotated.json,694037,816550,43,Man
79,572050,DepthScenes,duration_manipulation_targetAtFixation,jsons/VE125_randls_34_rotated.json,http://54.235.29.9/FacialAge/BNav_EC2/DepthDuration/v2_depth_duration_MTurk/v2_DepthDuration_HTML.html#256,256,1364,768,1364,768,8-29-2022,16-8-35,80,depth_duration_stimuli/002279_2014-06-28_18-55-32_260595134347_rgbf000040-resize_5/002279_2014-06-28_18-55-32_260595134347_rgbf000040-resize_5-target.png,125,1.5043333333333,4,6265,124,feet,jsons/VE125_randls_34_rotated.json,694037,816550,43,Man
80,572050,DepthScenes,duration_manipulation_targetAtFixation,jsons/VE125_randls_34_rotated.json,http://54.235.29.9/FacialAge/BNav_EC2/DepthDuration/v2_depth_duration_MTurk/v2_DepthDuration_HTML.html#256,256,1364,768,1364,768,8-29-2022,16-8-35,81,depth_duration_stimuli/001828_2014-06-26_21-40-03_260595134347_rgbf000024-resize_0/001828_2014-06-26_21-40-03_260595134347_rgbf000024-resize_0-target.png,125,4.8260000000000005,8,5343,125,feet,jsons/VE125_randls_34_rotated.json,694037,816550,43,Man
81,572050,DepthScenes,duration_manipulation_targetAtFixation,jsons/VE125_randls_34_rotated.json,http://54.235.29.9/FacialAge/BNav_EC2/DepthDuration/v2_depth_duration_MTurk/v2_DepthDuration_HTML.html#256,256,1364,768,1364,768,8-29-2022,16-8-35,82,depth_duration_stimuli/000009_2014-05-26_14-32-05_260595134347_rgbf000034-resize_3/000009_2014-05-26_14-32-05_260595134347_rgbf000034-resize_3-target.png,125,3.8715,3,3633,125,feet,jsons/VE125_randls_34_rotated.json,694037,816550,43,Man
82,572050,DepthScenes,duration_manipulation_targetAtFixation,jsons/VE125_randls_34_rotated.json,http://54.235.29.9/FacialAge/BNav_EC2/DepthDuration/v2_depth_duration_MTurk/v2_DepthDuration_HTML.html#256,256,1364,768,1364,768,8-29-2022,16-8-35,83,depth_duration_stimuli/001584_2014-06-20_11-07-43_260595134347_rgbf000002-resize_1/001584_2014-06-20_11-07-43_260595134347_rgbf000002-resize_1-target.png,125,3.53,9,3645,132,feet,jsons/VE125_randls_34_rotated.json,694037,816550,43,Man
83,572050,DepthScenes,duration_manipulation_targetAtFixation,jsons/VE125_randls_34_rotated.json,http://54.235.29.9/FacialAge/BNav_EC2/DepthDuration/v2_depth_duration_MTurk/v2_DepthDuration_HTML.html#256,256,1364,768,1364,768,8-29-2022,16-8-35,84,depth_duration_stimuli/003621_2014-05-23_18-06-08_094959634447_rgbf000101-resize_1/003621_2014-05-23_18-06-08_094959634447_rgbf000101-resize_1-target.png,125,3.9835,5,3757,131,feet,jsons/VE125_randls_34_rotated.json,694037,816550,43,Man
84,572050,DepthScenes,duration_manipulation_targetAtFixation,jsons/VE125_randls_34_rotated.json,http://54.235.29.9/FacialAge/BNav_EC2/DepthDuration/v2_depth_duration_MTurk/v2_DepthDuration_HTML.html#256,256,1364,768,1364,768,8-29-2022,16-8-35,85,depth_duration_stimuli/001650_2014-06-20_12-09-00_260595134347_rgbf000087-resize_3/001650_2014-06-20_12-09-00_260595134347_rgbf000087-resize_3-target.png,125,1.9505,3,4346,124,feet,jsons/VE125_randls_34_rotated.json,694037,816550,43,Man
85,572050,DepthScenes,duration_manipulation_targetAtFixation,jsons/VE125_randls_34_rotated.json,http://54.235.29.9/FacialAge/BNav_EC2/DepthDuration/v2_depth_duration_MTurk/v2_DepthDuration_HTML.html#256,256,1364,768,1364,768,8-29-2022,16-8-35,86,depth_duration_stimuli/000682_2014-06-08_23-14-58_260595134347_rgbf000041-resize_5/000682_2014-06-08_23-14-58_260595134347_rgbf000041-resize_5-target.png,125,2.7239999999999998,5,3948,124,feet,jsons/VE125_randls_34_rotated.json,694037,816550,43,Man
86,572050,DepthScenes,duration_manipulation_targetAtFixation,jsons/VE125_randls_34_rotated.json,http://54.235.29.9/FacialAge/BNav_EC2/DepthDuration/v2_depth_duration_MTurk/v2_DepthDuration_HTML.html#256,256,1364,768,1364,768,8-29-2022,16-8-35,87,depth_duration_stimuli/002660_2014-06-13_15-44-18_094959634447_rgbf001878-resize_2/002660_2014-06-13_15-44-18_094959634447_rgbf001878-resize_2-target.png,125,3.576,7,4115,129,feet,jsons/VE125_randls_34_rotated.json,694037,816550,43,Man
87,572050,DepthScenes,duration_manipulation_targetAtFixation,jsons/VE125_randls_34_rotated.json,http://54.235.29.9/FacialAge/BNav_EC2/DepthDuration/v2_depth_duration_MTurk/v2_DepthDuration_HTML.html#256,256,1364,768,1364,768,8-29-2022,16-8-35,88,depth_duration_stimuli/002153_2014-06-25_21-27-18_260595134347_rgbf000038-resize_5/002153_2014-06-25_21-27-18_260595134347_rgbf000038-resize_5-target.png,125,2.505,6,3130,88,feet,jsons/VE125_randls_34_rotated.json,694037,816550,43,Man
88,572050,DepthScenes,duration_manipulation_targetAtFixation,jsons/VE125_randls_34_rotated.json,http://54.235.29.9/FacialAge/BNav_EC2/DepthDuration/v2_depth_duration_MTurk/v2_DepthDuration_HTML.html#256,256,1364,768,1364,768,8-29-2022,16-8-35,89,depth_duration_stimuli/000780_2014-06-08_22-28-29_260595134347_rgbf000126-resize_1/000780_2014-06-08_22-28-29_260595134347_rgbf000126-resize_1-target.png,125,3.3825,8,3163,125,feet,jsons/VE125_randls_34_rotated.json,694037,816550,43,Man
89,572050,DepthScenes,duration_manipulation_targetAtFixation,jsons/VE125_randls_34_rotated.json,http://54.235.29.9/FacialAge/BNav_EC2/DepthDuration/v2_depth_duration_MTurk/v2_DepthDuration_HTML.html#256,256,1364,768,1364,768,8-29-2022,16-8-35,90,depth_duration_stimuli/002445_2014-06-28_20-32-16_260595134347_rgbf000029-resize_4/002445_2014-06-28_20-32-16_260595134347_rgbf000029-resize_4-target.png,125,2.5315,3,7640,125,feet,jsons/VE125_randls_34_rotated.json,694037,816550,43,Man
90,572050,DepthScenes,duration_manipulation_targetAtFixation,jsons/VE125_randls_34_rotated.json,http://54.235.29.9/FacialAge/BNav_EC2/DepthDuration/v2_depth_duration_MTurk/v2_DepthDuration_HTML.html#256,256,1364,768,1364,768,8-29-2022,16-8-35,91,depth_duration_stimuli/002678_2014-06-13_16-15-32_094959634447_rgbf000151-resize_6/002678_2014-06-13_16-15-32_094959634447_rgbf000151-resize_6-target.png,125,2.1830000000000003,9,9428,125,feet,jsons/VE125_randls_34_rotated.json,694037,816550,43,Man
91,572050,DepthScenes,duration_manipulation_targetAtFixation,jsons/VE125_randls_34_rotated.json,http://54.235.29.9/FacialAge/BNav_EC2/DepthDuration/v2_depth_duration_MTurk/v2_DepthDuration_HTML.html#256,256,1364,768,1364,768,8-29-2022,16-8-35,92,depth_duration_stimuli/000368_2014-06-09_15-53-01_260595134347_rgbf000155-resize_2/000368_2014-06-09_15-53-01_260595134347_rgbf000155-resize_2-target.png,125,2.4859999999999998,5,4502,126,feet,jsons/VE125_randls_34_rotated.json,694037,816550,43,Man
92,572050,DepthScenes,duration_manipulation_targetAtFixation,jsons/VE125_randls_34_rotated.json,http://54.235.29.9/FacialAge/BNav_EC2/DepthDuration/v2_depth_duration_MTurk/v2_DepthDuration_HTML.html#256,256,1364,768,1364,768,8-29-2022,16-8-35,93,depth_duration_stimuli/003079_2014-06-15_15-18-20_094959634447_rgbf000152-resize_8/003079_2014-06-15_15-18-20_094959634447_rgbf000152-resize_8-target.png,125,2.8775,9,3835,125,feet,jsons/VE125_randls_34_rotated.json,694037,816550,43,Man
93,572050,DepthScenes,duration_manipulation_targetAtFixation,jsons/VE125_randls_34_rotated.json,http://54.235.29.9/FacialAge/BNav_EC2/DepthDuration/v2_depth_duration_MTurk/v2_DepthDuration_HTML.html#256,256,1364,768,1364,768,8-29-2022,16-8-35,94,depth_duration_stimuli/000506_2014-06-08_23-21-00_260595134347_rgbf000070-resize_7/000506_2014-06-08_23-21-00_260595134347_rgbf000070-resize_7-target.png,125,4.0585,5,3115,126,feet,jsons/VE125_randls_34_rotated.json,694037,816550,43,Man
94,572050,DepthScenes,duration_manipulation_targetAtFixation,jsons/VE125_randls_34_rotated.json,http://54.235.29.9/FacialAge/BNav_EC2/DepthDuration/v2_depth_duration_MTurk/v2_DepthDuration_HTML.html#256,256,1364,768,1364,768,8-29-2022,16-8-35,95,depth_duration_stimuli/000549_2014-06-08_22-10-24_260595134347_rgbf000247-resize_3/000549_2014-06-08_22-10-24_260595134347_rgbf000247-resize_3-target.png,125,1.841,2,3117,123,feet,jsons/VE125_randls_34_rotated.json,694037,816550,43,Man
95,572050,DepthScenes,duration_manipulation_targetAtFixation,jsons/VE125_randls_34_rotated.json,http://54.235.29.9/FacialAge/BNav_EC2/DepthDuration/v2_depth_duration_MTurk/v2_DepthDuration_HTML.html#256,256,1364,768,1364,768,8-29-2022,16-8-35,96,depth_duration_stimuli/001055_2014-06-08_18-45-35_260595134347_rgbf000111-resize_4/001055_2014-06-08_18-45-35_260595134347_rgbf000111-resize_4-target.png,125,2.4290000000000003,3,3603,124,feet,jsons/VE125_randls_34_rotated.json,694037,816550,43,Man
96,572050,DepthScenes,duration_manipulation_targetAtFixation,jsons/VE125_randls_34_rotated.json,http://54.235.29.9/FacialAge/BNav_EC2/DepthDuration/v2_depth_duration_MTurk/v2_DepthDuration_HTML.html#256,256,1364,768,1364,768,8-29-2022,16-8-35,97,depth_duration_stimuli/000749_2014-06-08_21-55-06_260595134347_rgbf000070-resize_2/000749_2014-06-08_21-55-06_260595134347_rgbf000070-resize_2-target.png,125,2.331,6,3612,125,feet,jsons/VE125_randls_34_rotated.json,694037,816550,43,Man
97,572050,DepthScenes,duration_manipulation_targetAtFixation,jsons/VE125_randls_34_rotated.json,http://54.235.29.9/FacialAge/BNav_EC2/DepthDuration/v2_depth_duration_MTurk/v2_DepthDuration_HTML.html#256,256,1364,768,1364,768,8-29-2022,16-8-35,98,depth_duration_stimuli/002788_2014-06-22_19-36-03_094959634447_rgbf000088-resize_2/002788_2014-06-22_19-36-03_094959634447_rgbf000088-resize_2-target.png,125,1.6465,4,3283,112,feet,jsons/VE125_randls_34_rotated.json,694037,816550,43,Man
98,572050,DepthScenes,duration_manipulation_targetAtFixation,jsons/VE125_randls_34_rotated.json,http://54.235.29.9/FacialAge/BNav_EC2/DepthDuration/v2_depth_duration_MTurk/v2_DepthDuration_HTML.html#256,256,1364,768,1364,768,8-29-2022,16-8-35,99,depth_duration_stimuli/001222_2014-06-17_16-24-06_260595134347_rgbf000073-resize_0/001222_2014-06-17_16-24-06_260595134347_rgbf000073-resize-original.jpg,125,1.4385,0,2955,124,feet,jsons/VE125_randls_34_rotated.json,694037,816550,43,Man
99,572050,DepthScenes,duration_manipulation_targetAtFixation,jsons/VE125_randls_34_rotated.json,http://54.235.29.9/FacialAge/BNav_EC2/DepthDuration/v2_depth_duration_MTurk/v2_DepthDuration_HTML.html#256,256,1364,768,1364,768,8-29-2022,16-8-35,100,depth_duration_stimuli/000502_2014-06-08_23-02-32_260595134347_rgbf000063-resize_4/000502_2014-06-08_23-02-32_260595134347_rgbf000063-resize_4-target.png,125,2.431,4,4357,127,feet,jsons/VE125_randls_34_rotated.json,694037,816550,43,Man
100,572050,DepthScenes,duration_manipulation_targetAtFixation,jsons/VE125_randls_34_rotated.json,http://54.235.29.9/FacialAge/BNav_EC2/DepthDuration/v2_depth_duration_MTurk/v2_DepthDuration_HTML.html#256,256,1364,768,1364,768,8-29-2022,16-8-35,101,depth_duration_stimuli/001199_2014-06-17_16-03-48_260595134347_rgbf000077-resize_0/001199_2014-06-17_16-03-48_260595134347_rgbf000077-resize_0-target.png,125,3.4375,5,2978,127,feet,jsons/VE125_randls_34_rotated.json,694037,816550,43,Man
101,572050,DepthScenes,duration_manipulation_targetAtFixation,jsons/VE125_randls_34_rotated.json,http://54.235.29.9/FacialAge/BNav_EC2/DepthDuration/v2_depth_duration_MTurk/v2_DepthDuration_HTML.html#256,256,1364,768,1364,768,8-29-2022,16-8-35,102,depth_duration_stimuli/002545_2014-06-24_13-38-53_094959634447_rgbf000080-resize_4/002545_2014-06-24_13-38-53_094959634447_rgbf000080-resize_4-target.png,125,1.9205,5,3896,125,feet,jsons/VE125_randls_34_rotated.json,694037,816550,43,Man
102,572050,DepthScenes,duration_manipulation_targetAtFixation,jsons/VE125_randls_34_rotated.json,http://54.235.29.9/FacialAge/BNav_EC2/DepthDuration/v2_depth_duration_MTurk/v2_DepthDuration_HTML.html#256,256,1364,768,1364,768,8-29-2022,16-8-35,103,depth_duration_stimuli/001092_2014-06-15_17-34-58_260595134347_rgbf000171-resize_3/001092_2014-06-15_17-34-58_260595134347_rgbf000171-resize_3-target.png,125,2.6935,4,2826,124,feet,jsons/VE125_randls_34_rotated.json,694037,816550,43,Man
103,572050,DepthScenes,duration_manipulation_targetAtFixation,jsons/VE125_randls_34_rotated.json,http://54.235.29.9/FacialAge/BNav_EC2/DepthDuration/v2_depth_duration_MTurk/v2_DepthDuration_HTML.html#256,256,1364,768,1364,768,8-29-2022,16-8-35,104,depth_duration_stimuli/001815_2014-06-26_20-52-55_260595134347_rgbf000020-resize_0/001815_2014-06-26_20-52-55_260595134347_rgbf000020-resize_0-target.png,125,3.3865,6,3555,122,feet,jsons/VE125_randls_34_rotated.json,694037,816550,43,Man
104,572050,DepthScenes,duration_manipulation_targetAtFixation,jsons/VE125_randls_34_rotated.json,http://54.235.29.9/FacialAge/BNav_EC2/DepthDuration/v2_depth_duration_MTurk/v2_DepthDuration_HTML.html#256,256,1364,768,1364,768,8-29-2022,16-8-35,105,depth_duration_stimuli/001808_2014-06-26_20-50-58_260595134347_rgbf000029-resize_1/001808_2014-06-26_20-50-58_260595134347_rgbf000029-resize_1-target.png,125,4.249,5,2635,125,feet,jsons/VE125_randls_34_rotated.json,694037,816550,43,Man
105,572050,DepthScenes,duration_manipulation_targetAtFixation,jsons/VE125_randls_34_rotated.json,http://54.235.29.9/FacialAge/BNav_EC2/DepthDuration/v2_depth_duration_MTurk/v2_DepthDuration_HTML.html#256,256,1364,768,1364,768,8-29-2022,16-8-35,106,depth_duration_stimuli/002340_2014-06-28_20-05-46_260595134347_rgbf000113-resize_0/002340_2014-06-28_20-05-46_260595134347_rgbf000113-resize_0-target.png,125,2.4735,6,3634,196,feet,jsons/VE125_randls_34_rotated.json,694037,816550,43,Man
106,572050,DepthScenes,duration_manipulation_targetAtFixation,jsons/VE125_randls_34_rotated.json,http://54.235.29.9/FacialAge/BNav_EC2/DepthDuration/v2_depth_duration_MTurk/v2_DepthDuration_HTML.html#256,256,1364,768,1364,768,8-29-2022,16-8-35,107,depth_duration_stimuli/001016_2014-06-09_16-16-10_260595134347_rgbf000112-resize_5/001016_2014-06-09_16-16-10_260595134347_rgbf000112-resize_5-target.png,125,1.6565,7,3274,125,feet,jsons/VE125_randls_34_rotated.json,694037,816550,43,Man
107,572050,DepthScenes,duration_manipulation_targetAtFixation,jsons/VE125_randls_34_rotated.json,http://54.235.29.9/FacialAge/BNav_EC2/DepthDuration/v2_depth_duration_MTurk/v2_DepthDuration_HTML.html#256,256,1364,768,1364,768,8-29-2022,16-8-35,108,depth_duration_stimuli/002875_2014-06-01_15-19-00_094959634447_rgbf000151-resize_1/002875_2014-06-01_15-19-00_094959634447_rgbf000151-resize_1-target.png,125,1.9675,5,3540,125,feet,jsons/VE125_randls_34_rotated.json,694037,816550,43,Man
108,572050,DepthScenes,duration_manipulation_targetAtFixation,jsons/VE125_randls_34_rotated.json,http://54.235.29.9/FacialAge/BNav_EC2/DepthDuration/v2_depth_duration_MTurk/v2_DepthDuration_HTML.html#256,256,1364,768,1364,768,8-29-2022,16-8-35,109,depth_duration_stimuli/001011_2014-06-08_23-18-54_260595134347_rgbf000044-resize_4/001011_2014-06-08_23-18-54_260595134347_rgbf000044-resize_4-target.png,125,2.4730000000000003,6,3299,124,feet,jsons/VE125_randls_34_rotated.json,694037,816550,43,Man
109,572050,DepthScenes,duration_manipulation_targetAtFixation,jsons/VE125_randls_34_rotated.json,http://54.235.29.9/FacialAge/BNav_EC2/DepthDuration/v2_depth_duration_MTurk/v2_DepthDuration_HTML.html#256,256,1364,768,1364,768,8-29-2022,16-8-35,110,depth_duration_stimuli/002568_2014-06-24_13-59-21_094959634447_rgbf000062-resize_4/002568_2014-06-24_13-59-21_094959634447_rgbf000062-resize_4-target.png,125,3.015,7,3801,125,feet,jsons/VE125_randls_34_rotated.json,694037,816550,43,Man
110,572050,DepthScenes,duration_manipulation_targetAtFixation,jsons/VE125_randls_34_rotated.json,http://54.235.29.9/FacialAge/BNav_EC2/DepthDuration/v2_depth_duration_MTurk/v2_DepthDuration_HTML.html#256,256,1364,768,1364,768,8-29-2022,16-8-35,111,depth_duration_stimuli/003492_2014-05-21_15-50-55_094959634447_rgbf000828-resize_1/003492_2014-05-21_15-50-55_094959634447_rgbf000828-resize_1-target.png,125,4.06875,4,5792,125,feet,jsons/VE125_randls_34_rotated.json,694037,816550,43,Man
111,572050,DepthScenes,duration_manipulation_targetAtFixation,jsons/VE125_randls_34_rotated.json,http://54.235.29.9/FacialAge/BNav_EC2/DepthDuration/v2_depth_duration_MTurk/v2_DepthDuration_HTML.html#256,256,1364,768,1364,768,8-29-2022,16-8-35,112,depth_duration_stimuli/002323_2014-06-28_20-01-54_260595134347_rgbf000051-resize_4/002323_2014-06-28_20-01-54_260595134347_rgbf000051-resize_4-target.png,125,3.7310000000000003,8,3728,124,feet,jsons/VE125_randls_34_rotated.json,694037,816550,43,Man
112,572050,DepthScenes,duration_manipulation_targetAtFixation,jsons/VE125_randls_34_rotated.json,http://54.235.29.9/FacialAge/BNav_EC2/DepthDuration/v2_depth_duration_MTurk/v2_DepthDuration_HTML.html#256,256,1364,768,1364,768,8-29-2022,16-8-35,113,depth_duration_stimuli/000917_2014-06-09_22-45-29_260595134347_rgbf000149-resize_3/000917_2014-06-09_22-45-29_260595134347_rgbf000149-resize_3-target.png,125,4.1865,6,4099,124,feet,jsons/VE125_randls_34_rotated.json,694037,816550,43,Man
113,572050,DepthScenes,duration_manipulation_targetAtFixation,jsons/VE125_randls_34_rotated.json,http://54.235.29.9/FacialAge/BNav_EC2/DepthDuration/v2_depth_duration_MTurk/v2_DepthDuration_HTML.html#256,256,1364,768,1364,768,8-29-2022,16-8-35,114,depth_duration_stimuli/002467_2014-06-28_20-38-07_260595134347_rgbf000026-resize_2/002467_2014-06-28_20-38-07_260595134347_rgbf000026-resize_2-target.png,125,4.742,9,3083,124,feet,jsons/VE125_randls_34_rotated.json,694037,816550,43,Man
114,572050,DepthScenes,duration_manipulation_targetAtFixation,jsons/VE125_randls_34_rotated.json,http://54.235.29.9/FacialAge/BNav_EC2/DepthDuration/v2_depth_duration_MTurk/v2_DepthDuration_HTML.html#256,256,1364,768,1364,768,8-29-2022,16-8-35,115,depth_duration_stimuli/002570_2014-06-24_13-59-54_094959634447_rgbf000059-resize_0/002570_2014-06-24_13-59-54_094959634447_rgbf000059-resize_0-target.png,125,4.037,5,3039,124,feet,jsons/VE125_randls_34_rotated.json,694037,816550,43,Man
115,572050,DepthScenes,duration_manipulation_targetAtFixation,jsons/VE125_randls_34_rotated.json,http://54.235.29.9/FacialAge/BNav_EC2/DepthDuration/v2_depth_duration_MTurk/v2_DepthDuration_HTML.html#256,256,1364,768,1364,768,8-29-2022,16-8-35,116,depth_duration_stimuli/002639_2014-06-24_14-51-37_094959634447_rgbf000074-resize_4/002639_2014-06-24_14-51-37_094959634447_rgbf000074-resize_4-target.png,125,4.0375,8,4374,124,feet,jsons/VE125_randls_34_rotated.json,694037,816550,43,Man
116,572050,DepthScenes,duration_manipulation_targetAtFixation,jsons/VE125_randls_34_rotated.json,http://54.235.29.9/FacialAge/BNav_EC2/DepthDuration/v2_depth_duration_MTurk/v2_DepthDuration_HTML.html#256,256,1364,768,1364,768,8-29-2022,16-8-35,117,depth_duration_stimuli/003292_2014-05-14_21-53-49_094959634447_rgbf000100-resize_2/003292_2014-05-14_21-53-49_094959634447_rgbf000100-resize_2-target.png,125,3.4815,5,2930,124,feet,jsons/VE125_randls_34_rotated.json,694037,816550,43,Man
117,572050,DepthScenes,duration_manipulation_targetAtFixation,jsons/VE125_randls_34_rotated.json,http://54.235.29.9/FacialAge/BNav_EC2/DepthDuration/v2_depth_duration_MTurk/v2_DepthDuration_HTML.html#256,256,1364,768,1364,768,8-29-2022,16-8-35,118,depth_duration_stimuli/000943_2014-06-09_19-31-07_260595134347_rgbf000128-resize_1/000943_2014-06-09_19-31-07_260595134347_rgbf000128-resize_1-target.png,125,1.9765,6,3245,125,feet,jsons/VE125_randls_34_rotated.json,694037,816550,43,Man
118,572050,DepthScenes,duration_manipulation_targetAtFixation,jsons/VE125_randls_34_rotated.json,http://54.235.29.9/FacialAge/BNav_EC2/DepthDuration/v2_depth_duration_MTurk/v2_DepthDuration_HTML.html#256,256,1364,768,1364,768,8-29-2022,16-8-35,119,depth_duration_stimuli/003070_2014-06-15_14-58-27_094959634447_rgbf000150-resize_3/003070_2014-06-15_14-58-27_094959634447_rgbf000150-resize_3-target.png,125,2.9415,4,2984,125,feet,jsons/VE125_randls_34_rotated.json,694037,816550,43,Man
119,572050,DepthScenes,duration_manipulation_targetAtFixation,jsons/VE125_randls_34_rotated.json,http://54.235.29.9/FacialAge/BNav_EC2/DepthDuration/v2_depth_duration_MTurk/v2_DepthDuration_HTML.html#256,256,1364,768,1364,768,8-29-2022,16-8-35,120,depth_duration_stimuli/000787_2014-06-08_22-33-53_260595134347_rgbf000175-resize_1/000787_2014-06-08_22-33-53_260595134347_rgbf000175-resize-original.jpg,125,4.784,0,2839,125,feet,jsons/VE125_randls_34_rotated.json,694037,816550,43,Man
120,572050,DepthScenes,duration_manipulation_targetAtFixation,jsons/VE125_randls_34_rotated.json,http://54.235.29.9/FacialAge/BNav_EC2/DepthDuration/v2_depth_duration_MTurk/v2_DepthDuration_HTML.html#256,256,1364,768,1364,768,8-29-2022,16-8-35,121,depth_duration_stimuli/000866_2014-06-09_20-45-42_260595134347_rgbf000139-resize_1/000866_2014-06-09_20-45-42_260595134347_rgbf000139-resize_1-target.png,125,3.2155,5,3131,127,feet,jsons/VE125_randls_34_rotated.json,694037,816550,43,Man
121,572050,DepthScenes,duration_manipulation_targetAtFixation,jsons/VE125_randls_34_rotated.json,http://54.235.29.9/FacialAge/BNav_EC2/DepthDuration/v2_depth_duration_MTurk/v2_DepthDuration_HTML.html#256,256,1364,768,1364,768,8-29-2022,16-8-35,122,depth_duration_stimuli/002989_2014-06-15_12-25-03_094959634447_rgbf000150-resize_3/002989_2014-06-15_12-25-03_094959634447_rgbf000150-resize_3-target.png,125,4.1975,3,3051,124,feet,jsons/VE125_randls_34_rotated.json,694037,816550,43,Man
122,572050,DepthScenes,duration_manipulation_targetAtFixation,jsons/VE125_randls_34_rotated.json,http://54.235.29.9/FacialAge/BNav_EC2/DepthDuration/v2_depth_duration_MTurk/v2_DepthDuration_HTML.html#256,256,1364,768,1364,768,8-29-2022,16-8-35,123,depth_duration_stimuli/001100_2014-06-15_17-46-26_260595134347_rgbf000225-resize_2/001100_2014-06-15_17-46-26_260595134347_rgbf000225-resize_2-target.png,125,2.24,4,3010,161,feet,jsons/VE125_randls_34_rotated.json,694037,816550,43,Man
123,572050,DepthScenes,duration_manipulation_targetAtFixation,jsons/VE125_randls_34_rotated.json,http://54.235.29.9/FacialAge/BNav_EC2/DepthDuration/v2_depth_duration_MTurk/v2_DepthDuration_HTML.html#256,256,1364,768,1364,768,8-29-2022,16-8-35,124,depth_duration_stimuli/002784_2014-06-22_19-26-30_094959634447_rgbf000083-resize_3/002784_2014-06-22_19-26-30_094959634447_rgbf000083-resize_3-target.png,125,1.8046666666667,5,2434,124,feet,jsons/VE125_randls_34_rotated.json,694037,816550,43,Man
124,572050,DepthScenes,duration_manipulation_targetAtFixation,jsons/VE125_randls_34_rotated.json,http://54.235.29.9/FacialAge/BNav_EC2/DepthDuration/v2_depth_duration_MTurk/v2_DepthDuration_HTML.html#256,256,1364,768,1364,768,8-29-2022,16-8-35,125,depth_duration_stimuli/000483_2014-06-09_20-41-45_260595134347_rgbf000116-resize_4/000483_2014-06-09_20-41-45_260595134347_rgbf000116-resize_4-target.png,125,1.337,3,2824,125,feet,jsons/VE125_randls_34_rotated.json,694037,816550,43,Man
125,572050,DepthScenes,duration_manipulation_targetAtFixation,jsons/VE125_randls_34_rotated.json,http://54.235.29.9/FacialAge/BNav_EC2/DepthDuration/v2_depth_duration_MTurk/v2_DepthDuration_HTML.html#256,256,1364,768,1364,768,8-29-2022,16-8-35,126,depth_duration_stimuli/000469_2014-06-09_19-42-10_260595134347_rgbf000081-resize_1/000469_2014-06-09_19-42-10_260595134347_rgbf000081-resize_1-target.png,125,1.652,4,2498,125,feet,jsons/VE125_randls_34_rotated.json,694037,816550,43,Man
126,572050,DepthScenes,duration_manipulation_targetAtFixation,jsons/VE125_randls_34_rotated.json,http://54.235.29.9/FacialAge/BNav_EC2/DepthDuration/v2_depth_duration_MTurk/v2_DepthDuration_HTML.html#256,256,1364,768,1364,768,8-29-2022,16-8-35,127,depth_duration_stimuli/000109_2014-05-14_23-41-52_260595134347_rgbf000035-resize_9/000109_2014-05-14_23-41-52_260595134347_rgbf000035-resize_9-target.png,125,1.3545,2,2797,124,feet,jsons/VE125_randls_34_rotated.json,694037,816550,43,Man
127,572050,DepthScenes,duration_manipulation_targetAtFixation,jsons/VE125_randls_34_rotated.json,http://54.235.29.9/FacialAge/BNav_EC2/DepthDuration/v2_depth_duration_MTurk/v2_DepthDuration_HTML.html#256,256,1364,768,1364,768,8-29-2022,16-8-35,128,depth_duration_stimuli/000470_2014-06-09_19-42-40_260595134347_rgbf000094-resize_1/000470_2014-06-09_19-42-40_260595134347_rgbf000094-resize_1-target.png,125,1.831,3,2734,125,feet,jsons/VE125_randls_34_rotated.json,694037,816550,43,Man
128,572050,DepthScenes,duration_manipulation_targetAtFixation,jsons/VE125_randls_34_rotated.json,http://54.235.29.9/FacialAge/BNav_EC2/DepthDuration/v2_depth_duration_MTurk/v2_DepthDuration_HTML.html#256,256,1364,768,1364,768,8-29-2022,16-8-35,129,depth_duration_stimuli/001132_2014-06-17_14-48-54_260595134347_rgbf000100-resize_2/001132_2014-06-17_14-48-54_260595134347_rgbf000100-resize_2-target.png,125,3.753,6,4293,258,feet,jsons/VE125_randls_34_rotated.json,694037,816550,43,Man
129,572050,DepthScenes,duration_manipulation_targetAtFixation,jsons/VE125_randls_34_rotated.json,http://54.235.29.9/FacialAge/BNav_EC2/DepthDuration/v2_depth_duration_MTurk/v2_DepthDuration_HTML.html#256,256,1364,768,1364,768,8-29-2022,16-8-35,130,depth_duration_stimuli/001133_2014-06-17_14-49-16_260595134347_rgbf000100-resize_0/001133_2014-06-17_14-49-16_260595134347_rgbf000100-resize_0-target.png,125,4.2115,0,3243,125,feet,jsons/VE125_randls_34_rotated.json,694037,816550,43,Man
130,572050,DepthScenes,duration_manipulation_targetAtFixation,jsons/VE125_randls_34_rotated.json,http://54.235.29.9/FacialAge/BNav_EC2/DepthDuration/v2_depth_duration_MTurk/v2_DepthDuration_HTML.html#256,256,1364,768,1364,768,8-29-2022,16-8-35,131,depth_duration_stimuli/001450_2014-06-19_17-02-03_260595134347_rgbf000203-resize_4/001450_2014-06-19_17-02-03_260595134347_rgbf000203-resize_4-target.png,125,4.0106666666667,7,3569,121,feet,jsons/VE125_randls_34_rotated.json,694037,816550,43,Man
131,572050,DepthScenes,duration_manipulation_targetAtFixation,jsons/VE125_randls_34_rotated.json,http://54.235.29.9/FacialAge/BNav_EC2/DepthDuration/v2_depth_duration_MTurk/v2_DepthDuration_HTML.html#256,256,1364,768,1364,768,8-29-2022,16-8-35,132,depth_duration_stimuli/001449_2014-06-19_17-01-27_260595134347_rgbf000116-resize_2/001449_2014-06-19_17-01-27_260595134347_rgbf000116-resize_2-target.png,125,3.452,6,2473,215,feet,jsons/VE125_randls_34_rotated.json,694037,816550,43,Man
132,572050,DepthScenes,duration_manipulation_targetAtFixation,jsons/VE125_randls_34_rotated.json,http://54.235.29.9/FacialAge/BNav_EC2/DepthDuration/v2_depth_duration_MTurk/v2_DepthDuration_HTML.html#256,256,1364,768,1364,768,8-29-2022,16-8-35,133,depth_duration_stimuli/003129_2014-05-12_10-48-10_094959634447_rgbf000100-resize_0/003129_2014-05-12_10-48-10_094959634447_rgbf000100-resize_0-target.png,125,4.9305,6,3076,125,feet,jsons/VE125_randls_34_rotated.json,694037,816550,43,Man
133,572050,DepthScenes,duration_manipulation_targetAtFixation,jsons/VE125_randls_34_rotated.json,http://54.235.29.9/FacialAge/BNav_EC2/DepthDuration/v2_depth_duration_MTurk/v2_DepthDuration_HTML.html#256,256,1364,768,1364,768,8-29-2022,16-8-35,134,depth_duration_stimuli/000414_2014-06-04_19-49-13_260595134347_rgbf000044-resize_0/000414_2014-06-04_19-49-13_260595134347_rgbf000044-resize_0-target.png,125,4.329,8,2802,125,feet,jsons/VE125_randls_34_rotated.json,694037,816550,43,Man
134,572050,DepthScenes,duration_manipulation_targetAtFixation,jsons/VE125_randls_34_rotated.json,http://54.235.29.9/FacialAge/BNav_EC2/DepthDuration/v2_depth_duration_MTurk/v2_DepthDuration_HTML.html#256,256,1364,768,1364,768,8-29-2022,16-8-35,135,depth_duration_stimuli/000375_2014-06-08_11-17-29_260595134347_rgbf000133-resize_2/000375_2014-06-08_11-17-29_260595134347_rgbf000133-resize-original.jpg,125,4.718,0,4081,124,feet,jsons/VE125_randls_34_rotated.json,694037,816550,43,Man
135,572050,DepthScenes,duration_manipulation_targetAtFixation,jsons/VE125_randls_34_rotated.json,http://54.235.29.9/FacialAge/BNav_EC2/DepthDuration/v2_depth_duration_MTurk/v2_DepthDuration_HTML.html#256,256,1364,768,1364,768,8-29-2022,16-8-35,136,depth_duration_stimuli/003587_2014-05-23_16-48-02_094959634447_rgbf002384-resize_2/003587_2014-05-23_16-48-02_094959634447_rgbf002384-resize_2-target.png,125,1.357,3,3175,125,feet,jsons/VE125_randls_34_rotated.json,694037,816550,43,Man
136,572050,DepthScenes,duration_manipulation_targetAtFixation,jsons/VE125_randls_34_rotated.json,http://54.235.29.9/FacialAge/BNav_EC2/DepthDuration/v2_depth_duration_MTurk/v2_DepthDuration_HTML.html#256,256,1364,768,1364,768,8-29-2022,16-8-35,137,depth_duration_stimuli/001167_2014-06-17_15-38-07_260595134347_rgbf000108-resize_0/001167_2014-06-17_15-38-07_260595134347_rgbf000108-resize_0-target.png,125,1.8505,0,3028,98,feet,jsons/VE125_randls_34_rotated.json,694037,816550,43,Man
137,572050,DepthScenes,duration_manipulation_targetAtFixation,jsons/VE125_randls_34_rotated.json,http://54.235.29.9/FacialAge/BNav_EC2/DepthDuration/v2_depth_duration_MTurk/v2_DepthDuration_HTML.html#256,256,1364,768,1364,768,8-29-2022,16-8-35,138,depth_duration_stimuli/000709_2014-06-08_13-51-55_260595134347_rgbf000068-resize_3/000709_2014-06-08_13-51-55_260595134347_rgbf000068-resize_3-target.png,125,1.8030000000000002,6,2914,125,feet,jsons/VE125_randls_34_rotated.json,694037,816550,43,Man
138,572050,DepthScenes,duration_manipulation_targetAtFixation,jsons/VE125_randls_34_rotated.json,http://54.235.29.9/FacialAge/BNav_EC2/DepthDuration/v2_depth_duration_MTurk/v2_DepthDuration_HTML.html#256,256,1364,768,1364,768,8-29-2022,16-8-35,139,depth_duration_stimuli/002057_2014-06-24_21-00-13_260595134347_rgbf000120-resize_1/002057_2014-06-24_21-00-13_260595134347_rgbf000120-resize_1-target.png,125,2.967,3,4081,15,feet,jsons/VE125_randls_34_rotated.json,694037,816550,43,Man
139,572050,DepthScenes,duration_manipulation_targetAtFixation,jsons/VE125_randls_34_rotated.json,http://54.235.29.9/FacialAge/BNav_EC2/DepthDuration/v2_depth_duration_MTurk/v2_DepthDuration_HTML.html#256,256,1364,768,1364,768,8-29-2022,16-8-35,140,depth_duration_stimuli/002657_2014-06-13_15-29-54_094959634447_rgbf000150-resize_1/002657_2014-06-13_15-29-54_094959634447_rgbf000150-resize_1-target.png,125,4.919,8,3512,122,feet,jsons/VE125_randls_34_rotated.json,694037,816550,43,Man
140,572050,DepthScenes,duration_manipulation_targetAtFixation,jsons/VE125_randls_34_rotated.json,http://54.235.29.9/FacialAge/BNav_EC2/DepthDuration/v2_depth_duration_MTurk/v2_DepthDuration_HTML.html#256,256,1364,768,1364,768,8-29-2022,16-8-35,141,depth_duration_stimuli/002375_2014-06-28_20-13-44_260595134347_rgbf000032-resize_1/002375_2014-06-28_20-13-44_260595134347_rgbf000032-resize_1-target.png,125,4.0175,4,3033,124,feet,jsons/VE125_randls_34_rotated.json,694037,816550,43,Man
141,572050,DepthScenes,duration_manipulation_targetAtFixation,jsons/VE125_randls_34_rotated.json,http://54.235.29.9/FacialAge/BNav_EC2/DepthDuration/v2_depth_duration_MTurk/v2_DepthDuration_HTML.html#256,256,1364,768,1364,768,8-29-2022,16-8-35,142,depth_duration_stimuli/002414_2014-06-28_20-24-58_260595134347_rgbf000067-resize_4/002414_2014-06-28_20-24-58_260595134347_rgbf000067-resize_4-target.png,125,4.363,6,2941,124,feet,jsons/VE125_randls_34_rotated.json,694037,816550,43,Man
142,572050,DepthScenes,duration_manipulation_targetAtFixation,jsons/VE125_randls_34_rotated.json,http://54.235.29.9/FacialAge/BNav_EC2/DepthDuration/v2_depth_duration_MTurk/v2_DepthDuration_HTML.html#256,256,1364,768,1364,768,8-29-2022,16-8-35,143,depth_duration_stimuli/000773_2014-06-08_22-24-54_260595134347_rgbf000093-resize_1/000773_2014-06-08_22-24-54_260595134347_rgbf000093-resize_1-target.png,125,4.973,5,2540,126,feet,jsons/VE125_randls_34_rotated.json,694037,816550,43,Man
143,572050,DepthScenes,duration_manipulation_targetAtFixation,jsons/VE125_randls_34_rotated.json,http://54.235.29.9/FacialAge/BNav_EC2/DepthDuration/v2_depth_duration_MTurk/v2_DepthDuration_HTML.html#256,256,1364,768,1364,768,8-29-2022,16-8-35,144,depth_duration_stimuli/001516_2014-06-20_16-25-09_260595134347_rgbf000076-resize_2/001516_2014-06-20_16-25-09_260595134347_rgbf000076-resize_2-target.png,125,1.7445,6,3633,125,feet,jsons/VE125_randls_34_rotated.json,694037,816550,43,Man
144,572050,DepthScenes,duration_manipulation_targetAtFixation,jsons/VE125_randls_34_rotated.json,http://54.235.29.9/FacialAge/BNav_EC2/DepthDuration/v2_depth_duration_MTurk/v2_DepthDuration_HTML.html#256,256,1364,768,1364,768,8-29-2022,16-8-35,145,depth_duration_stimuli/002118_2014-06-25_20-32-08_260595134347_rgbf000078-resize_1/002118_2014-06-25_20-32-08_260595134347_rgbf000078-resize_1-target.png,125,2.6460000000000004,4,3204,125,feet,jsons/VE125_randls_34_rotated.json,694037,816550,43,Man
145,572050,DepthScenes,duration_manipulation_targetAtFixation,jsons/VE125_randls_34_rotated.json,http://54.235.29.9/FacialAge/BNav_EC2/DepthDuration/v2_depth_duration_MTurk/v2_DepthDuration_HTML.html#256,256,1364,768,1364,768,8-29-2022,16-8-35,146,depth_duration_stimuli/000556_2014-06-09_22-42-56_260595134347_rgbf000214-resize_1/000556_2014-06-09_22-42-56_260595134347_rgbf000214-resize_1-target.png,125,4.8415,8,2706,124,feet,jsons/VE125_randls_34_rotated.json,694037,816550,43,Man
146,572050,DepthScenes,duration_manipulation_targetAtFixation,jsons/VE125_randls_34_rotated.json,http://54.235.29.9/FacialAge/BNav_EC2/DepthDuration/v2_depth_duration_MTurk/v2_DepthDuration_HTML.html#256,256,1364,768,1364,768,8-29-2022,16-8-35,147,depth_duration_stimuli/001158_2014-06-17_15-32-16_260595134347_rgbf000138-resize_2/001158_2014-06-17_15-32-16_260595134347_rgbf000138-resize_2-target.png,125,4.5315,5,2532,126,feet,jsons/VE125_randls_34_rotated.json,694037,816550,43,Man
147,572050,DepthScenes,duration_manipulation_targetAtFixation,jsons/VE125_randls_34_rotated.json,http://54.235.29.9/FacialAge/BNav_EC2/DepthDuration/v2_depth_duration_MTurk/v2_DepthDuration_HTML.html#256,256,1364,768,1364,768,8-29-2022,16-8-35,148,depth_duration_stimuli/001392_2014-06-19_16-07-59_260595134347_rgbf000046-resize_1/001392_2014-06-19_16-07-59_260595134347_rgbf000046-resize_1-target.png,125,4.135,9,2883,125,feet,jsons/VE125_randls_34_rotated.json,694037,816550,43,Man
148,572050,DepthScenes,duration_manipulation_targetAtFixation,jsons/VE125_randls_34_rotated.json,http://54.235.29.9/FacialAge/BNav_EC2/DepthDuration/v2_depth_duration_MTurk/v2_DepthDuration_HTML.html#256,256,1364,768,1364,768,8-29-2022,16-8-35,149,depth_duration_stimuli/001570_2014-06-20_17-21-09_260595134347_rgbf000135-resize_4/001570_2014-06-20_17-21-09_260595134347_rgbf000135-resize_4-target.png,125,4.467,6,2562,125,feet,jsons/VE125_randls_34_rotated.json,694037,816550,43,Man
149,572050,DepthScenes,duration_manipulation_targetAtFixation,jsons/VE125_randls_34_rotated.json,http://54.235.29.9/FacialAge/BNav_EC2/DepthDuration/v2_depth_duration_MTurk/v2_DepthDuration_HTML.html#256,256,1364,768,1364,768,8-29-2022,16-8-35,150,depth_duration_stimuli/002949_2014-06-26_15-57-42_094959634447_rgbf000079-resize_1/002949_2014-06-26_15-57-42_094959634447_rgbf000079-resize_1-target.png,125,1.8915,4,5730,126,feet,jsons/VE125_randls_34_rotated.json,694037,816550,43,Man
150,572050,DepthScenes,duration_manipulation_targetAtFixation,jsons/VE125_randls_34_rotated.json,http://54.235.29.9/FacialAge/BNav_EC2/DepthDuration/v2_depth_duration_MTurk/v2_DepthDuration_HTML.html#256,256,1364,768,1364,768,8-29-2022,16-8-35,151,depth_duration_stimuli/000522_2014-06-08_13-35-06_260595134347_rgbf000244-resize_1/000522_2014-06-08_13-35-06_260595134347_rgbf000244-resize_1-target.png,125,2.3715,6,2948,124,feet,jsons/VE125_randls_34_rotated.json,694037,816550,43,Man
151,572050,DepthScenes,duration_manipulation_targetAtFixation,jsons/VE125_randls_34_rotated.json,http://54.235.29.9/FacialAge/BNav_EC2/DepthDuration/v2_depth_duration_MTurk/v2_DepthDuration_HTML.html#256,256,1364,768,1364,768,8-29-2022,16-8-35,152,depth_duration_stimuli/000569_2014-06-09_22-51-47_260595134347_rgbf000141-resize_3/000569_2014-06-09_22-51-47_260595134347_rgbf000141-resize-original.jpg,125,4.512,0,2458,125,feet,jsons/VE125_randls_34_rotated.json,694037,816550,43,Man
152,572050,DepthScenes,duration_manipulation_targetAtFixation,jsons/VE125_randls_34_rotated.json,http://54.235.29.9/FacialAge/BNav_EC2/DepthDuration/v2_depth_duration_MTurk/v2_DepthDuration_HTML.html#256,256,1364,768,1364,768,8-29-2022,16-8-35,153,depth_duration_stimuli/003083_2014-06-15_15-21-03_094959634447_rgbf000063-resize_1/003083_2014-06-15_15-21-03_094959634447_rgbf000063-resize_1-target.png,125,4.1405,9,2940,84,feet,jsons/VE125_randls_34_rotated.json,694037,816550,43,Man
153,572050,DepthScenes,duration_manipulation_targetAtFixation,jsons/VE125_randls_34_rotated.json,http://54.235.29.9/FacialAge/BNav_EC2/DepthDuration/v2_depth_duration_MTurk/v2_DepthDuration_HTML.html#256,256,1364,768,1364,768,8-29-2022,16-8-35,154,depth_duration_stimuli/000486_2014-06-09_20-47-20_260595134347_rgbf000143-resize_2/000486_2014-06-09_20-47-20_260595134347_rgbf000143-resize_2-target.png,125,4.8325,6,2589,104,feet,jsons/VE125_randls_34_rotated.json,694037,816550,43,Man
154,572050,DepthScenes,duration_manipulation_targetAtFixation,jsons/VE125_randls_34_rotated.json,http://54.235.29.9/FacialAge/BNav_EC2/DepthDuration/v2_depth_duration_MTurk/v2_DepthDuration_HTML.html#256,256,1364,768,1364,768,8-29-2022,16-8-35,155,depth_duration_stimuli/000409_2014-06-04_19-23-33_260595134347_rgbf000067-resize_0/000409_2014-06-04_19-23-33_260595134347_rgbf000067-resize_0-target.png,125,3.7335,8,3101,125,feet,jsons/VE125_randls_34_rotated.json,694037,816550,43,Man
155,572050,DepthScenes,duration_manipulation_targetAtFixation,jsons/VE125_randls_34_rotated.json,http://54.235.29.9/FacialAge/BNav_EC2/DepthDuration/v2_depth_duration_MTurk/v2_DepthDuration_HTML.html#256,256,1364,768,1364,768,8-29-2022,16-8-35,156,depth_duration_stimuli/002663_2014-06-13_15-50-26_094959634447_rgbf000075-resize_1/002663_2014-06-13_15-50-26_094959634447_rgbf000075-resize_1-target.png,125,4.7495,6,2418,131,feet,jsons/VE125_randls_34_rotated.json,694037,816550,43,Man
156,572050,DepthScenes,duration_manipulation_targetAtFixation,jsons/VE125_randls_34_rotated.json,http://54.235.29.9/FacialAge/BNav_EC2/DepthDuration/v2_depth_duration_MTurk/v2_DepthDuration_HTML.html#256,256,1364,768,1364,768,8-29-2022,16-8-35,157,depth_duration_stimuli/000691_2014-06-08_13-08-50_260595134347_rgbf000132-resize_3/000691_2014-06-08_13-08-50_260595134347_rgbf000132-resize_3-target.png,125,4.1530000000000005,7,3530,157,feet,jsons/VE125_randls_34_rotated.json,694037,816550,43,Man
157,572050,DepthScenes,duration_manipulation_targetAtFixation,jsons/VE125_randls_34_rotated.json,http://54.235.29.9/FacialAge/BNav_EC2/DepthDuration/v2_depth_duration_MTurk/v2_DepthDuration_HTML.html#256,256,1364,768,1364,768,8-29-2022,16-8-35,158,depth_duration_stimuli/002213_2014-06-28_18-37-58_260595134347_rgbf000055-resize_1/002213_2014-06-28_18-37-58_260595134347_rgbf000055-resize_1-target.png,125,3.62,5,2809,125,feet,jsons/VE125_randls_34_rotated.json,694037,816550,43,Man
158,572050,DepthScenes,duration_manipulation_targetAtFixation,jsons/VE125_randls_34_rotated.json,http://54.235.29.9/FacialAge/BNav_EC2/DepthDuration/v2_depth_duration_MTurk/v2_DepthDuration_HTML.html#256,256,1364,768,1364,768,8-29-2022,16-8-35,159,depth_duration_stimuli/000191_2014-05-12_17-07-38_260595134347_rgbf000199-resize_0/000191_2014-05-12_17-07-38_260595134347_rgbf000199-resize_0-target.png,125,3.7995,9,2782,133,feet,jsons/VE125_randls_34_rotated.json,694037,816550,43,Man
159,572050,DepthScenes,duration_manipulation_targetAtFixation,jsons/VE125_randls_34_rotated.json,http://54.235.29.9/FacialAge/BNav_EC2/DepthDuration/v2_depth_duration_MTurk/v2_DepthDuration_HTML.html#256,256,1364,768,1364,768,8-29-2022,16-8-35,160,depth_duration_stimuli/000493_2014-06-09_21-01-18_260595134347_rgbf000196-resize_3/000493_2014-06-09_21-01-18_260595134347_rgbf000196-resize_3-target.png,125,3.44,6,3448,124,feet,jsons/VE125_randls_34_rotated.json,694037,816550,43,Man
160,572050,DepthScenes,duration_manipulation_targetAtFixation,jsons/VE125_randls_34_rotated.json,http://54.235.29.9/FacialAge/BNav_EC2/DepthDuration/v2_depth_duration_MTurk/v2_DepthDuration_HTML.html#256,256,1364,768,1364,768,8-29-2022,16-8-35,161,depth_duration_stimuli/001235_2014-06-17_16-37-36_260595134347_rgbf000084-resize_4/001235_2014-06-17_16-37-36_260595134347_rgbf000084-resize_4-target.png,125,3.6605,7,3845,125,feet,jsons/VE125_randls_34_rotated.json,694037,816550,43,Man
161,572050,DepthScenes,duration_manipulation_targetAtFixation,jsons/VE125_randls_34_rotated.json,http://54.235.29.9/FacialAge/BNav_EC2/DepthDuration/v2_depth_duration_MTurk/v2_DepthDuration_HTML.html#256,256,1364,768,1364,768,8-29-2022,16-8-35,162,depth_duration_stimuli/000788_2014-06-08_22-34-36_260595134347_rgbf000131-resize_1/000788_2014-06-08_22-34-36_260595134347_rgbf000131-resize_1-target.png,125,3.359,5,2499,125,feet,jsons/VE125_randls_34_rotated.json,694037,816550,43,Man
162,572050,DepthScenes,duration_manipulation_targetAtFixation,jsons/VE125_randls_34_rotated.json,http://54.235.29.9/FacialAge/BNav_EC2/DepthDuration/v2_depth_duration_MTurk/v2_DepthDuration_HTML.html#256,256,1364,768,1364,768,8-29-2022,16-8-35,163,depth_duration_stimuli/000734_2014-06-08_17-39-11_260595134347_rgbf000128-resize_2/000734_2014-06-08_17-39-11_260595134347_rgbf000128-resize_2-target.png,125,4.098,8,2987,200,feet,jsons/VE125_randls_34_rotated.json,694037,816550,43,Man
163,572050,DepthScenes,duration_manipulation_targetAtFixation,jsons/VE125_randls_34_rotated.json,http://54.235.29.9/FacialAge/BNav_EC2/DepthDuration/v2_depth_duration_MTurk/v2_DepthDuration_HTML.html#256,256,1364,768,1364,768,8-29-2022,16-8-35,164,depth_duration_stimuli/000739_2014-06-08_18-45-58_260595134347_rgbf000068-resize_1/000739_2014-06-08_18-45-58_260595134347_rgbf000068-resize_1-target.png,125,3.534,6,2411,123,feet,jsons/VE125_randls_34_rotated.json,694037,816550,43,Man
