,subjID,experimentName,versionName,sequenceName,url,selected_row,windowWidth,windowHeight,screenWidth,screenHeight,startDate,startTime,trial,stimulus,duration,actual_depth,depth_estimate,trial_RT,log_sceneDuration,unitSelection,seq_filepath,experimentTime,totalTime,age,gender
0,572500,DepthScenes,duration_manipulation_targetAtFixation,jsons/v1_VE1000_randls_73.json,http://54.235.29.9/FacialAge/BNav_EC2/DepthDuration/v2_depth_duration_MTurk/v2_DepthDuration_HTML.html#348,348,1536,969,1920,1080,8-30-2022,8-53-58,1,depth_duration_stimuli/001011_2014-06-08_23-18-54_260595134347_rgbf000044-resize_4/001011_2014-06-08_23-18-54_260595134347_rgbf000044-resize_4-target.png,1000,2.4730000000000003,3,2504,1002,feet,jsons/v1_VE1000_randls_73.json,489185,667486,30,Man
1,572500,DepthScenes,duration_manipulation_targetAtFixation,jsons/v1_VE1000_randls_73.json,http://54.235.29.9/FacialAge/BNav_EC2/DepthDuration/v2_depth_duration_MTurk/v2_DepthDuration_HTML.html#348,348,1536,969,1920,1080,8-30-2022,8-53-58,2,depth_duration_stimuli/002875_2014-06-01_15-19-00_094959634447_rgbf000151-resize_1/002875_2014-06-01_15-19-00_094959634447_rgbf000151-resize_1-target.png,1000,1.9675,2,2270,987,feet,jsons/v1_VE1000_randls_73.json,489185,667486,30,Man
2,572500,DepthScenes,duration_manipulation_targetAtFixation,jsons/v1_VE1000_randls_73.json,http://54.235.29.9/FacialAge/BNav_EC2/DepthDuration/v2_depth_duration_MTurk/v2_DepthDuration_HTML.html#348,348,1536,969,1920,1080,8-30-2022,8-53-58,3,depth_duration_stimuli/000810_2014-06-08_17-20-01_260595134347_rgbf000105-resize_0/000810_2014-06-08_17-20-01_260595134347_rgbf000105-resize_0-target.png,1000,1.4865,3,2267,991,feet,jsons/v1_VE1000_randls_73.json,489185,667486,30,Man
3,572500,DepthScenes,duration_manipulation_targetAtFixation,jsons/v1_VE1000_randls_73.json,http://54.235.29.9/FacialAge/BNav_EC2/DepthDuration/v2_depth_duration_MTurk/v2_DepthDuration_HTML.html#348,348,1536,969,1920,1080,8-30-2022,8-53-58,4,depth_duration_stimuli/001214_2014-06-17_16-13-55_260595134347_rgbf000111-resize_0/001214_2014-06-17_16-13-55_260595134347_rgbf000111-resize_0-target.png,1000,2.6505,4,3763,1000,feet,jsons/v1_VE1000_randls_73.json,489185,667486,30,Man
4,572500,DepthScenes,duration_manipulation_targetAtFixation,jsons/v1_VE1000_randls_73.json,http://54.235.29.9/FacialAge/BNav_EC2/DepthDuration/v2_depth_duration_MTurk/v2_DepthDuration_HTML.html#348,348,1536,969,1920,1080,8-30-2022,8-53-58,5,depth_duration_stimuli/003292_2014-05-14_21-53-49_094959634447_rgbf000100-resize_2/003292_2014-05-14_21-53-49_094959634447_rgbf000100-resize_2-target.png,1000,3.4815,4,2429,995,feet,jsons/v1_VE1000_randls_73.json,489185,667486,30,Man
5,572500,DepthScenes,duration_manipulation_targetAtFixation,jsons/v1_VE1000_randls_73.json,http://54.235.29.9/FacialAge/BNav_EC2/DepthDuration/v2_depth_duration_MTurk/v2_DepthDuration_HTML.html#348,348,1536,969,1920,1080,8-30-2022,8-53-58,6,depth_duration_stimuli/002639_2014-06-24_14-51-37_094959634447_rgbf000074-resize_4/002639_2014-06-24_14-51-37_094959634447_rgbf000074-resize_4-target.png,1000,4.0375,6,2327,999,feet,jsons/v1_VE1000_randls_73.json,489185,667486,30,Man
6,572500,DepthScenes,duration_manipulation_targetAtFixation,jsons/v1_VE1000_randls_73.json,http://54.235.29.9/FacialAge/BNav_EC2/DepthDuration/v2_depth_duration_MTurk/v2_DepthDuration_HTML.html#348,348,1536,969,1920,1080,8-30-2022,8-53-58,7,depth_duration_stimuli/001066_2014-06-08_22-03-20_260595134347_rgbf000066-resize_4/001066_2014-06-08_22-03-20_260595134347_rgbf000066-resize_4-target.png,1000,4.2330000000000005,7,2826,987,feet,jsons/v1_VE1000_randls_73.json,489185,667486,30,Man
7,572500,DepthScenes,duration_manipulation_targetAtFixation,jsons/v1_VE1000_randls_73.json,http://54.235.29.9/FacialAge/BNav_EC2/DepthDuration/v2_depth_duration_MTurk/v2_DepthDuration_HTML.html#348,348,1536,969,1920,1080,8-30-2022,8-53-58,8,depth_duration_stimuli/000742_2014-06-08_18-48-09_260595134347_rgbf000164-resize_4/000742_2014-06-08_18-48-09_260595134347_rgbf000164-resize_4-target.png,1000,4.632,8,2541,988,feet,jsons/v1_VE1000_randls_73.json,489185,667486,30,Man
8,572500,DepthScenes,duration_manipulation_targetAtFixation,jsons/v1_VE1000_randls_73.json,http://54.235.29.9/FacialAge/BNav_EC2/DepthDuration/v2_depth_duration_MTurk/v2_DepthDuration_HTML.html#348,348,1536,969,1920,1080,8-30-2022,8-53-58,9,depth_duration_stimuli/001555_2014-06-20_17-12-10_260595134347_rgbf000065-resize_4/001555_2014-06-20_17-12-10_260595134347_rgbf000065-resize_4-target.png,1000,1.633,1,2164,992,feet,jsons/v1_VE1000_randls_73.json,489185,667486,30,Man
9,572500,DepthScenes,duration_manipulation_targetAtFixation,jsons/v1_VE1000_randls_73.json,http://54.235.29.9/FacialAge/BNav_EC2/DepthDuration/v2_depth_duration_MTurk/v2_DepthDuration_HTML.html#348,348,1536,969,1920,1080,8-30-2022,8-53-58,10,depth_duration_stimuli/000103_2014-05-14_22-01-17_260595134347_rgbf000152-resize_5/000103_2014-05-14_22-01-17_260595134347_rgbf000152-resize_5-target.png,1000,1.993,3,2123,995,feet,jsons/v1_VE1000_randls_73.json,489185,667486,30,Man
10,572500,DepthScenes,duration_manipulation_targetAtFixation,jsons/v1_VE1000_randls_73.json,http://54.235.29.9/FacialAge/BNav_EC2/DepthDuration/v2_depth_duration_MTurk/v2_DepthDuration_HTML.html#348,348,1536,969,1920,1080,8-30-2022,8-53-58,11,depth_duration_stimuli/000682_2014-06-08_23-14-58_260595134347_rgbf000041-resize_5/000682_2014-06-08_23-14-58_260595134347_rgbf000041-resize_5-target.png,1000,2.7239999999999998,4,2272,1000,feet,jsons/v1_VE1000_randls_73.json,489185,667486,30,Man
11,572500,DepthScenes,duration_manipulation_targetAtFixation,jsons/v1_VE1000_randls_73.json,http://54.235.29.9/FacialAge/BNav_EC2/DepthDuration/v2_depth_duration_MTurk/v2_DepthDuration_HTML.html#348,348,1536,969,1920,1080,8-30-2022,8-53-58,12,depth_duration_stimuli/001650_2014-06-20_12-09-00_260595134347_rgbf000087-resize_3/001650_2014-06-20_12-09-00_260595134347_rgbf000087-resize_3-target.png,1000,1.9505,1,2087,990,feet,jsons/v1_VE1000_randls_73.json,489185,667486,30,Man
12,572500,DepthScenes,duration_manipulation_targetAtFixation,jsons/v1_VE1000_randls_73.json,http://54.235.29.9/FacialAge/BNav_EC2/DepthDuration/v2_depth_duration_MTurk/v2_DepthDuration_HTML.html#348,348,1536,969,1920,1080,8-30-2022,8-53-58,13,depth_duration_stimuli/000569_2014-06-09_22-51-47_260595134347_rgbf000141-resize_3/000569_2014-06-09_22-51-47_260595134347_rgbf000141-resize-original.jpg,1000,4.512,0,2961,1000,feet,jsons/v1_VE1000_randls_73.json,489185,667486,30,Man
13,572500,DepthScenes,duration_manipulation_targetAtFixation,jsons/v1_VE1000_randls_73.json,http://54.235.29.9/FacialAge/BNav_EC2/DepthDuration/v2_depth_duration_MTurk/v2_DepthDuration_HTML.html#348,348,1536,969,1920,1080,8-30-2022,8-53-58,14,depth_duration_stimuli/000368_2014-06-09_15-53-01_260595134347_rgbf000155-resize_2/000368_2014-06-09_15-53-01_260595134347_rgbf000155-resize_2-target.png,1000,2.4859999999999998,1,2310,1000,feet,jsons/v1_VE1000_randls_73.json,489185,667486,30,Man
14,572500,DepthScenes,duration_manipulation_targetAtFixation,jsons/v1_VE1000_randls_73.json,http://54.235.29.9/FacialAge/BNav_EC2/DepthDuration/v2_depth_duration_MTurk/v2_DepthDuration_HTML.html#348,348,1536,969,1920,1080,8-30-2022,8-53-58,15,depth_duration_stimuli/002678_2014-06-13_16-15-32_094959634447_rgbf000151-resize_6/002678_2014-06-13_16-15-32_094959634447_rgbf000151-resize_6-target.png,1000,2.1830000000000003,2,2830,999,feet,jsons/v1_VE1000_randls_73.json,489185,667486,30,Man
15,572500,DepthScenes,duration_manipulation_targetAtFixation,jsons/v1_VE1000_randls_73.json,http://54.235.29.9/FacialAge/BNav_EC2/DepthDuration/v2_depth_duration_MTurk/v2_DepthDuration_HTML.html#348,348,1536,969,1920,1080,8-30-2022,8-53-58,16,depth_duration_stimuli/000009_2014-05-26_14-32-05_260595134347_rgbf000034-resize_3/000009_2014-05-26_14-32-05_260595134347_rgbf000034-resize_3-target.png,1000,3.8715,6,2736,999,feet,jsons/v1_VE1000_randls_73.json,489185,667486,30,Man
16,572500,DepthScenes,duration_manipulation_targetAtFixation,jsons/v1_VE1000_randls_73.json,http://54.235.29.9/FacialAge/BNav_EC2/DepthDuration/v2_depth_duration_MTurk/v2_DepthDuration_HTML.html#348,348,1536,969,1920,1080,8-30-2022,8-53-58,17,depth_duration_stimuli/001828_2014-06-26_21-40-03_260595134347_rgbf000024-resize_0/001828_2014-06-26_21-40-03_260595134347_rgbf000024-resize_0-target.png,1000,4.8260000000000005,8,2831,991,feet,jsons/v1_VE1000_randls_73.json,489185,667486,30,Man
17,572500,DepthScenes,duration_manipulation_targetAtFixation,jsons/v1_VE1000_randls_73.json,http://54.235.29.9/FacialAge/BNav_EC2/DepthDuration/v2_depth_duration_MTurk/v2_DepthDuration_HTML.html#348,348,1536,969,1920,1080,8-30-2022,8-53-58,18,depth_duration_stimuli/002663_2014-06-13_15-50-26_094959634447_rgbf000075-resize_1/002663_2014-06-13_15-50-26_094959634447_rgbf000075-resize_1-target.png,1000,4.7495,6,2890,994,feet,jsons/v1_VE1000_randls_73.json,489185,667486,30,Man
18,572500,DepthScenes,duration_manipulation_targetAtFixation,jsons/v1_VE1000_randls_73.json,http://54.235.29.9/FacialAge/BNav_EC2/DepthDuration/v2_depth_duration_MTurk/v2_DepthDuration_HTML.html#348,348,1536,969,1920,1080,8-30-2022,8-53-58,19,depth_duration_stimuli/000409_2014-06-04_19-23-33_260595134347_rgbf000067-resize_0/000409_2014-06-04_19-23-33_260595134347_rgbf000067-resize_0-target.png,1000,3.7335,4,2902,1012,feet,jsons/v1_VE1000_randls_73.json,489185,667486,30,Man
19,572500,DepthScenes,duration_manipulation_targetAtFixation,jsons/v1_VE1000_randls_73.json,http://54.235.29.9/FacialAge/BNav_EC2/DepthDuration/v2_depth_duration_MTurk/v2_DepthDuration_HTML.html#348,348,1536,969,1920,1080,8-30-2022,8-53-58,20,depth_duration_stimuli/000736_2014-06-08_18-24-15_260595134347_rgbf000206-resize_3/000736_2014-06-08_18-24-15_260595134347_rgbf000206-resize_3-target.png,1000,3.515,3,2239,996,feet,jsons/v1_VE1000_randls_73.json,489185,667486,30,Man
20,572500,DepthScenes,duration_manipulation_targetAtFixation,jsons/v1_VE1000_randls_73.json,http://54.235.29.9/FacialAge/BNav_EC2/DepthDuration/v2_depth_duration_MTurk/v2_DepthDuration_HTML.html#348,348,1536,969,1920,1080,8-30-2022,8-53-58,21,depth_duration_stimuli/000137_2014-05-20_17-04-49_260595134347_rgbf000120-resize_1/000137_2014-05-20_17-04-49_260595134347_rgbf000120-resize_1-target.png,1000,3.786,7,2873,998,feet,jsons/v1_VE1000_randls_73.json,489185,667486,30,Man
21,572500,DepthScenes,duration_manipulation_targetAtFixation,jsons/v1_VE1000_randls_73.json,http://54.235.29.9/FacialAge/BNav_EC2/DepthDuration/v2_depth_duration_MTurk/v2_DepthDuration_HTML.html#348,348,1536,969,1920,1080,8-30-2022,8-53-58,22,depth_duration_stimuli/000447_2014-06-08_16-15-46_260595134347_rgbf000130-resize_1/000447_2014-06-08_16-15-46_260595134347_rgbf000130-resize_1-target.png,1000,4.479,5,2609,993,feet,jsons/v1_VE1000_randls_73.json,489185,667486,30,Man
22,572500,DepthScenes,duration_manipulation_targetAtFixation,jsons/v1_VE1000_randls_73.json,http://54.235.29.9/FacialAge/BNav_EC2/DepthDuration/v2_depth_duration_MTurk/v2_DepthDuration_HTML.html#348,348,1536,969,1920,1080,8-30-2022,8-53-58,23,depth_duration_stimuli/001447_2014-06-19_17-00-32_260595134347_rgbf000082-resize_5/001447_2014-06-19_17-00-32_260595134347_rgbf000082-resize_5-target.png,1000,4.13775,5,2770,987,feet,jsons/v1_VE1000_randls_73.json,489185,667486,30,Man
23,572500,DepthScenes,duration_manipulation_targetAtFixation,jsons/v1_VE1000_randls_73.json,http://54.235.29.9/FacialAge/BNav_EC2/DepthDuration/v2_depth_duration_MTurk/v2_DepthDuration_HTML.html#348,348,1536,969,1920,1080,8-30-2022,8-53-58,24,depth_duration_stimuli/002279_2014-06-28_18-55-32_260595134347_rgbf000040-resize_5/002279_2014-06-28_18-55-32_260595134347_rgbf000040-resize_5-target.png,1000,1.5043333333333,3,3255,1007,feet,jsons/v1_VE1000_randls_73.json,489185,667486,30,Man
24,572500,DepthScenes,duration_manipulation_targetAtFixation,jsons/v1_VE1000_randls_73.json,http://54.235.29.9/FacialAge/BNav_EC2/DepthDuration/v2_depth_duration_MTurk/v2_DepthDuration_HTML.html#348,348,1536,969,1920,1080,8-30-2022,8-53-58,25,depth_duration_stimuli/000635_2014-06-08_16-38-42_260595134347_rgbf000106-resize_1/000635_2014-06-08_16-38-42_260595134347_rgbf000106-resize_1-target.png,1000,2.074,3,2240,1008,feet,jsons/v1_VE1000_randls_73.json,489185,667486,30,Man
25,572500,DepthScenes,duration_manipulation_targetAtFixation,jsons/v1_VE1000_randls_73.json,http://54.235.29.9/FacialAge/BNav_EC2/DepthDuration/v2_depth_duration_MTurk/v2_DepthDuration_HTML.html#348,348,1536,969,1920,1080,8-30-2022,8-53-58,26,depth_duration_stimuli/000906_2014-06-08_13-35-43_260595134347_rgbf000155-resize_1/000906_2014-06-08_13-35-43_260595134347_rgbf000155-resize_1-target.png,1000,2.8489999999999998,4,2189,990,feet,jsons/v1_VE1000_randls_73.json,489185,667486,30,Man
26,572500,DepthScenes,duration_manipulation_targetAtFixation,jsons/v1_VE1000_randls_73.json,http://54.235.29.9/FacialAge/BNav_EC2/DepthDuration/v2_depth_duration_MTurk/v2_DepthDuration_HTML.html#348,348,1536,969,1920,1080,8-30-2022,8-53-58,27,depth_duration_stimuli/002805_2014-06-22_19-54-03_094959634447_rgbf000079-resize_1/002805_2014-06-22_19-54-03_094959634447_rgbf000079-resize_1-target.png,1000,3.1439999999999997,6,2216,997,feet,jsons/v1_VE1000_randls_73.json,489185,667486,30,Man
27,572500,DepthScenes,duration_manipulation_targetAtFixation,jsons/v1_VE1000_randls_73.json,http://54.235.29.9/FacialAge/BNav_EC2/DepthDuration/v2_depth_duration_MTurk/v2_DepthDuration_HTML.html#348,348,1536,969,1920,1080,8-30-2022,8-53-58,28,depth_duration_stimuli/000436_2014-06-09_22-25-11_260595134347_rgbf000137-resize_1/000436_2014-06-09_22-25-11_260595134347_rgbf000137-resize_1-target.png,1000,4.0705,7,2612,1001,feet,jsons/v1_VE1000_randls_73.json,489185,667486,30,Man
28,572500,DepthScenes,duration_manipulation_targetAtFixation,jsons/v1_VE1000_randls_73.json,http://54.235.29.9/FacialAge/BNav_EC2/DepthDuration/v2_depth_duration_MTurk/v2_DepthDuration_HTML.html#348,348,1536,969,1920,1080,8-30-2022,8-53-58,29,depth_duration_stimuli/002444_2014-06-28_20-32-08_260595134347_rgbf000027-resize_0/002444_2014-06-28_20-32-08_260595134347_rgbf000027-resize_0-target.png,1000,4.388999999999999,7,2455,998,feet,jsons/v1_VE1000_randls_73.json,489185,667486,30,Man
29,572500,DepthScenes,duration_manipulation_targetAtFixation,jsons/v1_VE1000_randls_73.json,http://54.235.29.9/FacialAge/BNav_EC2/DepthDuration/v2_depth_duration_MTurk/v2_DepthDuration_HTML.html#348,348,1536,969,1920,1080,8-30-2022,8-53-58,30,depth_duration_stimuli/000375_2014-06-08_11-17-29_260595134347_rgbf000133-resize_2/000375_2014-06-08_11-17-29_260595134347_rgbf000133-resize-original.jpg,1000,4.718,0,2494,987,feet,jsons/v1_VE1000_randls_73.json,489185,667486,30,Man
30,572500,DepthScenes,duration_manipulation_targetAtFixation,jsons/v1_VE1000_randls_73.json,http://54.235.29.9/FacialAge/BNav_EC2/DepthDuration/v2_depth_duration_MTurk/v2_DepthDuration_HTML.html#348,348,1536,969,1920,1080,8-30-2022,8-53-58,31,depth_duration_stimuli/000493_2014-06-09_21-01-18_260595134347_rgbf000196-resize_3/000493_2014-06-09_21-01-18_260595134347_rgbf000196-resize_3-target.png,1000,3.44,4,2186,999,feet,jsons/v1_VE1000_randls_73.json,489185,667486,30,Man
31,572500,DepthScenes,duration_manipulation_targetAtFixation,jsons/v1_VE1000_randls_73.json,http://54.235.29.9/FacialAge/BNav_EC2/DepthDuration/v2_depth_duration_MTurk/v2_DepthDuration_HTML.html#348,348,1536,969,1920,1080,8-30-2022,8-53-58,32,depth_duration_stimuli/000191_2014-05-12_17-07-38_260595134347_rgbf000199-resize_0/000191_2014-05-12_17-07-38_260595134347_rgbf000199-resize_0-target.png,1000,3.7995,6,3125,1000,feet,jsons/v1_VE1000_randls_73.json,489185,667486,30,Man
32,572500,DepthScenes,duration_manipulation_targetAtFixation,jsons/v1_VE1000_randls_73.json,http://54.235.29.9/FacialAge/BNav_EC2/DepthDuration/v2_depth_duration_MTurk/v2_DepthDuration_HTML.html#348,348,1536,969,1920,1080,8-30-2022,8-53-58,33,depth_duration_stimuli/000917_2014-06-09_22-45-29_260595134347_rgbf000149-resize_3/000917_2014-06-09_22-45-29_260595134347_rgbf000149-resize_3-target.png,1000,4.1865,5,2348,988,feet,jsons/v1_VE1000_randls_73.json,489185,667486,30,Man
33,572500,DepthScenes,duration_manipulation_targetAtFixation,jsons/v1_VE1000_randls_73.json,http://54.235.29.9/FacialAge/BNav_EC2/DepthDuration/v2_depth_duration_MTurk/v2_DepthDuration_HTML.html#348,348,1536,969,1920,1080,8-30-2022,8-53-58,34,depth_duration_stimuli/002323_2014-06-28_20-01-54_260595134347_rgbf000051-resize_4/002323_2014-06-28_20-01-54_260595134347_rgbf000051-resize_4-target.png,1000,3.7310000000000003,8,2724,1007,feet,jsons/v1_VE1000_randls_73.json,489185,667486,30,Man
34,572500,DepthScenes,duration_manipulation_targetAtFixation,jsons/v1_VE1000_randls_73.json,http://54.235.29.9/FacialAge/BNav_EC2/DepthDuration/v2_depth_duration_MTurk/v2_DepthDuration_HTML.html#348,348,1536,969,1920,1080,8-30-2022,8-53-58,35,depth_duration_stimuli/000878_2014-06-08_22-52-45_260595134347_rgbf000045-resize_2/000878_2014-06-08_22-52-45_260595134347_rgbf000045-resize_2-target.png,1000,2.092,3,2343,996,feet,jsons/v1_VE1000_randls_73.json,489185,667486,30,Man
35,572500,DepthScenes,duration_manipulation_targetAtFixation,jsons/v1_VE1000_randls_73.json,http://54.235.29.9/FacialAge/BNav_EC2/DepthDuration/v2_depth_duration_MTurk/v2_DepthDuration_HTML.html#348,348,1536,969,1920,1080,8-30-2022,8-53-58,36,depth_duration_stimuli/002953_2014-06-08_17-32-18_094959634447_rgbf000059-resize_5/002953_2014-06-08_17-32-18_094959634447_rgbf000059-resize_5-target.png,1000,1.551,1,2446,1007,feet,jsons/v1_VE1000_randls_73.json,489185,667486,30,Man
36,572500,DepthScenes,duration_manipulation_targetAtFixation,jsons/v1_VE1000_randls_73.json,http://54.235.29.9/FacialAge/BNav_EC2/DepthDuration/v2_depth_duration_MTurk/v2_DepthDuration_HTML.html#348,348,1536,969,1920,1080,8-30-2022,8-53-58,37,depth_duration_stimuli/000758_2014-06-08_22-05-08_260595134347_rgbf000085-resize_0/000758_2014-06-08_22-05-08_260595134347_rgbf000085-resize_0-target.png,1000,3.3810000000000002,6,2075,1005,feet,jsons/v1_VE1000_randls_73.json,489185,667486,30,Man
37,572500,DepthScenes,duration_manipulation_targetAtFixation,jsons/v1_VE1000_randls_73.json,http://54.235.29.9/FacialAge/BNav_EC2/DepthDuration/v2_depth_duration_MTurk/v2_DepthDuration_HTML.html#348,348,1536,969,1920,1080,8-30-2022,8-53-58,38,depth_duration_stimuli/000854_2014-06-09_19-43-13_260595134347_rgbf000066-resize_0/000854_2014-06-09_19-43-13_260595134347_rgbf000066-resize_0-target.png,1000,3.068,3,2433,990,feet,jsons/v1_VE1000_randls_73.json,489185,667486,30,Man
38,572500,DepthScenes,duration_manipulation_targetAtFixation,jsons/v1_VE1000_randls_73.json,http://54.235.29.9/FacialAge/BNav_EC2/DepthDuration/v2_depth_duration_MTurk/v2_DepthDuration_HTML.html#348,348,1536,969,1920,1080,8-30-2022,8-53-58,39,depth_duration_stimuli/002153_2014-06-25_21-27-18_260595134347_rgbf000038-resize_5/002153_2014-06-25_21-27-18_260595134347_rgbf000038-resize_5-target.png,1000,2.505,3,2062,997,feet,jsons/v1_VE1000_randls_73.json,489185,667486,30,Man
39,572500,DepthScenes,duration_manipulation_targetAtFixation,jsons/v1_VE1000_randls_73.json,http://54.235.29.9/FacialAge/BNav_EC2/DepthDuration/v2_depth_duration_MTurk/v2_DepthDuration_HTML.html#348,348,1536,969,1920,1080,8-30-2022,8-53-58,40,depth_duration_stimuli/002660_2014-06-13_15-44-18_094959634447_rgbf001878-resize_2/002660_2014-06-13_15-44-18_094959634447_rgbf001878-resize_2-target.png,1000,3.576,5,2133,1011,feet,jsons/v1_VE1000_randls_73.json,489185,667486,30,Man
40,572500,DepthScenes,duration_manipulation_targetAtFixation,jsons/v1_VE1000_randls_73.json,http://54.235.29.9/FacialAge/BNav_EC2/DepthDuration/v2_depth_duration_MTurk/v2_DepthDuration_HTML.html#348,348,1536,969,1920,1080,8-30-2022,8-53-58,41,depth_duration_stimuli/001055_2014-06-08_18-45-35_260595134347_rgbf000111-resize_4/001055_2014-06-08_18-45-35_260595134347_rgbf000111-resize_4-target.png,1000,2.4290000000000003,4,2575,994,feet,jsons/v1_VE1000_randls_73.json,489185,667486,30,Man
41,572500,DepthScenes,duration_manipulation_targetAtFixation,jsons/v1_VE1000_randls_73.json,http://54.235.29.9/FacialAge/BNav_EC2/DepthDuration/v2_depth_duration_MTurk/v2_DepthDuration_HTML.html#348,348,1536,969,1920,1080,8-30-2022,8-53-58,42,depth_duration_stimuli/000549_2014-06-08_22-10-24_260595134347_rgbf000247-resize_3/000549_2014-06-08_22-10-24_260595134347_rgbf000247-resize_3-target.png,1000,1.841,1,2561,1000,feet,jsons/v1_VE1000_randls_73.json,489185,667486,30,Man
42,572500,DepthScenes,duration_manipulation_targetAtFixation,jsons/v1_VE1000_randls_73.json,http://54.235.29.9/FacialAge/BNav_EC2/DepthDuration/v2_depth_duration_MTurk/v2_DepthDuration_HTML.html#348,348,1536,969,1920,1080,8-30-2022,8-53-58,43,depth_duration_stimuli/002725_2014-06-22_11-47-51_094959634447_rgbf000070-resize_1/002725_2014-06-22_11-47-51_094959634447_rgbf000070-resize_1-target.png,1000,2.195,4,2308,1008,feet,jsons/v1_VE1000_randls_73.json,489185,667486,30,Man
43,572500,DepthScenes,duration_manipulation_targetAtFixation,jsons/v1_VE1000_randls_73.json,http://54.235.29.9/FacialAge/BNav_EC2/DepthDuration/v2_depth_duration_MTurk/v2_DepthDuration_HTML.html#348,348,1536,969,1920,1080,8-30-2022,8-53-58,44,depth_duration_stimuli/002344_2014-06-28_20-06-29_260595134347_rgbf000030-resize_1/002344_2014-06-28_20-06-29_260595134347_rgbf000030-resize_1-target.png,1000,1.5795,1,2095,989,feet,jsons/v1_VE1000_randls_73.json,489185,667486,30,Man
44,572500,DepthScenes,duration_manipulation_targetAtFixation,jsons/v1_VE1000_randls_73.json,http://54.235.29.9/FacialAge/BNav_EC2/DepthDuration/v2_depth_duration_MTurk/v2_DepthDuration_HTML.html#348,348,1536,969,1920,1080,8-30-2022,8-53-58,45,depth_duration_stimuli/000787_2014-06-08_22-33-53_260595134347_rgbf000175-resize_1/000787_2014-06-08_22-33-53_260595134347_rgbf000175-resize-original.jpg,1000,4.784,0,2902,997,feet,jsons/v1_VE1000_randls_73.json,489185,667486,30,Man
45,572500,DepthScenes,duration_manipulation_targetAtFixation,jsons/v1_VE1000_randls_73.json,http://54.235.29.9/FacialAge/BNav_EC2/DepthDuration/v2_depth_duration_MTurk/v2_DepthDuration_HTML.html#348,348,1536,969,1920,1080,8-30-2022,8-53-58,46,depth_duration_stimuli/002784_2014-06-22_19-26-30_094959634447_rgbf000083-resize_3/002784_2014-06-22_19-26-30_094959634447_rgbf000083-resize_3-target.png,1000,1.8046666666667,1,2443,1000,feet,jsons/v1_VE1000_randls_73.json,489185,667486,30,Man
46,572500,DepthScenes,duration_manipulation_targetAtFixation,jsons/v1_VE1000_randls_73.json,http://54.235.29.9/FacialAge/BNav_EC2/DepthDuration/v2_depth_duration_MTurk/v2_DepthDuration_HTML.html#348,348,1536,969,1920,1080,8-30-2022,8-53-58,47,depth_duration_stimuli/001100_2014-06-15_17-46-26_260595134347_rgbf000225-resize_2/001100_2014-06-15_17-46-26_260595134347_rgbf000225-resize_2-target.png,1000,2.24,1,2762,990,feet,jsons/v1_VE1000_randls_73.json,489185,667486,30,Man
47,572500,DepthScenes,duration_manipulation_targetAtFixation,jsons/v1_VE1000_randls_73.json,http://54.235.29.9/FacialAge/BNav_EC2/DepthDuration/v2_depth_duration_MTurk/v2_DepthDuration_HTML.html#348,348,1536,969,1920,1080,8-30-2022,8-53-58,48,depth_duration_stimuli/001016_2014-06-09_16-16-10_260595134347_rgbf000112-resize_5/001016_2014-06-09_16-16-10_260595134347_rgbf000112-resize_5-target.png,1000,1.6565,2,2038,993,feet,jsons/v1_VE1000_randls_73.json,489185,667486,30,Man
48,572500,DepthScenes,duration_manipulation_targetAtFixation,jsons/v1_VE1000_randls_73.json,http://54.235.29.9/FacialAge/BNav_EC2/DepthDuration/v2_depth_duration_MTurk/v2_DepthDuration_HTML.html#348,348,1536,969,1920,1080,8-30-2022,8-53-58,49,depth_duration_stimuli/002340_2014-06-28_20-05-46_260595134347_rgbf000113-resize_0/002340_2014-06-28_20-05-46_260595134347_rgbf000113-resize_0-target.png,1000,2.4735,4,2268,988,feet,jsons/v1_VE1000_randls_73.json,489185,667486,30,Man
49,572500,DepthScenes,duration_manipulation_targetAtFixation,jsons/v1_VE1000_randls_73.json,http://54.235.29.9/FacialAge/BNav_EC2/DepthDuration/v2_depth_duration_MTurk/v2_DepthDuration_HTML.html#348,348,1536,969,1920,1080,8-30-2022,8-53-58,50,depth_duration_stimuli/003621_2014-05-23_18-06-08_094959634447_rgbf000101-resize_1/003621_2014-05-23_18-06-08_094959634447_rgbf000101-resize_1-target.png,1000,3.9835,5,3820,991,feet,jsons/v1_VE1000_randls_73.json,489185,667486,30,Man
50,572500,DepthScenes,duration_manipulation_targetAtFixation,jsons/v1_VE1000_randls_73.json,http://54.235.29.9/FacialAge/BNav_EC2/DepthDuration/v2_depth_duration_MTurk/v2_DepthDuration_HTML.html#348,348,1536,969,1920,1080,8-30-2022,8-53-58,51,depth_duration_stimuli/001584_2014-06-20_11-07-43_260595134347_rgbf000002-resize_1/001584_2014-06-20_11-07-43_260595134347_rgbf000002-resize_1-target.png,1000,3.53,6,2603,992,feet,jsons/v1_VE1000_randls_73.json,489185,667486,30,Man
51,572500,DepthScenes,duration_manipulation_targetAtFixation,jsons/v1_VE1000_randls_73.json,http://54.235.29.9/FacialAge/BNav_EC2/DepthDuration/v2_depth_duration_MTurk/v2_DepthDuration_HTML.html#348,348,1536,969,1920,1080,8-30-2022,8-53-58,52,depth_duration_stimuli/002549_2014-06-24_13-41-39_094959634447_rgbf000022-resize_3/002549_2014-06-24_13-41-39_094959634447_rgbf000022-resize_3-target.png,1000,1.476,3,2890,1008,feet,jsons/v1_VE1000_randls_73.json,489185,667486,30,Man
52,572500,DepthScenes,duration_manipulation_targetAtFixation,jsons/v1_VE1000_randls_73.json,http://54.235.29.9/FacialAge/BNav_EC2/DepthDuration/v2_depth_duration_MTurk/v2_DepthDuration_HTML.html#348,348,1536,969,1920,1080,8-30-2022,8-53-58,53,depth_duration_stimuli/002750_2014-06-22_19-08-03_094959634447_rgbf000094-resize_4/002750_2014-06-22_19-08-03_094959634447_rgbf000094-resize_4-target.png,1000,2.354,3,2216,1001,feet,jsons/v1_VE1000_randls_73.json,489185,667486,30,Man
53,572500,DepthScenes,duration_manipulation_targetAtFixation,jsons/v1_VE1000_randls_73.json,http://54.235.29.9/FacialAge/BNav_EC2/DepthDuration/v2_depth_duration_MTurk/v2_DepthDuration_HTML.html#348,348,1536,969,1920,1080,8-30-2022,8-53-58,54,depth_duration_stimuli/002570_2014-06-24_13-59-54_094959634447_rgbf000059-resize_0/002570_2014-06-24_13-59-54_094959634447_rgbf000059-resize_0-target.png,1000,4.037,5,2382,1011,feet,jsons/v1_VE1000_randls_73.json,489185,667486,30,Man
54,572500,DepthScenes,duration_manipulation_targetAtFixation,jsons/v1_VE1000_randls_73.json,http://54.235.29.9/FacialAge/BNav_EC2/DepthDuration/v2_depth_duration_MTurk/v2_DepthDuration_HTML.html#348,348,1536,969,1920,1080,8-30-2022,8-53-58,55,depth_duration_stimuli/002467_2014-06-28_20-38-07_260595134347_rgbf000026-resize_2/002467_2014-06-28_20-38-07_260595134347_rgbf000026-resize_2-target.png,1000,4.742,6,2182,991,feet,jsons/v1_VE1000_randls_73.json,489185,667486,30,Man
55,572500,DepthScenes,duration_manipulation_targetAtFixation,jsons/v1_VE1000_randls_73.json,http://54.235.29.9/FacialAge/BNav_EC2/DepthDuration/v2_depth_duration_MTurk/v2_DepthDuration_HTML.html#348,348,1536,969,1920,1080,8-30-2022,8-53-58,56,depth_duration_stimuli/001029_2014-06-08_13-17-57_260595134347_rgbf000065-resize_1/001029_2014-06-08_13-17-57_260595134347_rgbf000065-resize_1-target.png,1000,3.0835,4,2326,1007,feet,jsons/v1_VE1000_randls_73.json,489185,667486,30,Man
56,572500,DepthScenes,duration_manipulation_targetAtFixation,jsons/v1_VE1000_randls_73.json,http://54.235.29.9/FacialAge/BNav_EC2/DepthDuration/v2_depth_duration_MTurk/v2_DepthDuration_HTML.html#348,348,1536,969,1920,1080,8-30-2022,8-53-58,57,depth_duration_stimuli/000677_2014-06-08_23-10-32_260595134347_rgbf000158-resize_6/000677_2014-06-08_23-10-32_260595134347_rgbf000158-resize_6-target.png,1000,3.556,4,2080,1006,feet,jsons/v1_VE1000_randls_73.json,489185,667486,30,Man
57,572500,DepthScenes,duration_manipulation_targetAtFixation,jsons/v1_VE1000_randls_73.json,http://54.235.29.9/FacialAge/BNav_EC2/DepthDuration/v2_depth_duration_MTurk/v2_DepthDuration_HTML.html#348,348,1536,969,1920,1080,8-30-2022,8-53-58,58,depth_duration_stimuli/001808_2014-06-26_20-50-58_260595134347_rgbf000029-resize_1/001808_2014-06-26_20-50-58_260595134347_rgbf000029-resize_1-target.png,1000,4.249,6,2321,1004,feet,jsons/v1_VE1000_randls_73.json,489185,667486,30,Man
58,572500,DepthScenes,duration_manipulation_targetAtFixation,jsons/v1_VE1000_randls_73.json,http://54.235.29.9/FacialAge/BNav_EC2/DepthDuration/v2_depth_duration_MTurk/v2_DepthDuration_HTML.html#348,348,1536,969,1920,1080,8-30-2022,8-53-58,59,depth_duration_stimuli/001815_2014-06-26_20-52-55_260595134347_rgbf000020-resize_0/001815_2014-06-26_20-52-55_260595134347_rgbf000020-resize_0-target.png,1000,3.3865,6,2573,1007,feet,jsons/v1_VE1000_randls_73.json,489185,667486,30,Man
59,572500,DepthScenes,duration_manipulation_targetAtFixation,jsons/v1_VE1000_randls_73.json,http://54.235.29.9/FacialAge/BNav_EC2/DepthDuration/v2_depth_duration_MTurk/v2_DepthDuration_HTML.html#348,348,1536,969,1920,1080,8-30-2022,8-53-58,60,depth_duration_stimuli/001806_2014-06-26_20-50-20_260595134347_rgbf000091-resize_1/001806_2014-06-26_20-50-20_260595134347_rgbf000091-resize_1-target.png,1000,2.7305,3,2088,1001,feet,jsons/v1_VE1000_randls_73.json,489185,667486,30,Man
60,572500,DepthScenes,duration_manipulation_targetAtFixation,jsons/v1_VE1000_randls_73.json,http://54.235.29.9/FacialAge/BNav_EC2/DepthDuration/v2_depth_duration_MTurk/v2_DepthDuration_HTML.html#348,348,1536,969,1920,1080,8-30-2022,8-53-58,61,depth_duration_stimuli/001617_2014-06-20_11-35-32_260595134347_rgbf000066-resize_1/001617_2014-06-20_11-35-32_260595134347_rgbf000066-resize_1-target.png,1000,3.7910000000000004,5,3286,1005,feet,jsons/v1_VE1000_randls_73.json,489185,667486,30,Man
61,572500,DepthScenes,duration_manipulation_targetAtFixation,jsons/v1_VE1000_randls_73.json,http://54.235.29.9/FacialAge/BNav_EC2/DepthDuration/v2_depth_duration_MTurk/v2_DepthDuration_HTML.html#348,348,1536,969,1920,1080,8-30-2022,8-53-58,62,depth_duration_stimuli/001158_2014-06-17_15-32-16_260595134347_rgbf000138-resize_2/001158_2014-06-17_15-32-16_260595134347_rgbf000138-resize_2-target.png,1000,4.5315,7,2579,997,feet,jsons/v1_VE1000_randls_73.json,489185,667486,30,Man
62,572500,DepthScenes,duration_manipulation_targetAtFixation,jsons/v1_VE1000_randls_73.json,http://54.235.29.9/FacialAge/BNav_EC2/DepthDuration/v2_depth_duration_MTurk/v2_DepthDuration_HTML.html#348,348,1536,969,1920,1080,8-30-2022,8-53-58,63,depth_duration_stimuli/000556_2014-06-09_22-42-56_260595134347_rgbf000214-resize_1/000556_2014-06-09_22-42-56_260595134347_rgbf000214-resize_1-target.png,1000,4.8415,5,3803,1005,feet,jsons/v1_VE1000_randls_73.json,489185,667486,30,Man
63,572500,DepthScenes,duration_manipulation_targetAtFixation,jsons/v1_VE1000_randls_73.json,http://54.235.29.9/FacialAge/BNav_EC2/DepthDuration/v2_depth_duration_MTurk/v2_DepthDuration_HTML.html#348,348,1536,969,1920,1080,8-30-2022,8-53-58,64,depth_duration_stimuli/002039_2014-06-24_20-22-38_260595134347_rgbf000084-resize_1/002039_2014-06-24_20-22-38_260595134347_rgbf000084-resize_1-target.png,1000,4.408,6,3042,1005,feet,jsons/v1_VE1000_randls_73.json,489185,667486,30,Man
64,572500,DepthScenes,duration_manipulation_targetAtFixation,jsons/v1_VE1000_randls_73.json,http://54.235.29.9/FacialAge/BNav_EC2/DepthDuration/v2_depth_duration_MTurk/v2_DepthDuration_HTML.html#348,348,1536,969,1920,1080,8-30-2022,8-53-58,65,depth_duration_stimuli/002103_2014-06-25_20-00-40_260595134347_rgbf000049-resize_0/002103_2014-06-25_20-00-40_260595134347_rgbf000049-resize_0-target.png,1000,4.105,2,2436,990,feet,jsons/v1_VE1000_randls_73.json,489185,667486,30,Man
65,572500,DepthScenes,duration_manipulation_targetAtFixation,jsons/v1_VE1000_randls_73.json,http://54.235.29.9/FacialAge/BNav_EC2/DepthDuration/v2_depth_duration_MTurk/v2_DepthDuration_HTML.html#348,348,1536,969,1920,1080,8-30-2022,8-53-58,66,depth_duration_stimuli/001222_2014-06-17_16-24-06_260595134347_rgbf000073-resize_0/001222_2014-06-17_16-24-06_260595134347_rgbf000073-resize-original.jpg,1000,1.4385,0,2781,1006,feet,jsons/v1_VE1000_randls_73.json,489185,667486,30,Man
66,572500,DepthScenes,duration_manipulation_targetAtFixation,jsons/v1_VE1000_randls_73.json,http://54.235.29.9/FacialAge/BNav_EC2/DepthDuration/v2_depth_duration_MTurk/v2_DepthDuration_HTML.html#348,348,1536,969,1920,1080,8-30-2022,8-53-58,67,depth_duration_stimuli/001449_2014-06-19_17-01-27_260595134347_rgbf000116-resize_2/001449_2014-06-19_17-01-27_260595134347_rgbf000116-resize_2-target.png,1000,3.452,4,2340,1010,feet,jsons/v1_VE1000_randls_73.json,489185,667486,30,Man
67,572500,DepthScenes,duration_manipulation_targetAtFixation,jsons/v1_VE1000_randls_73.json,http://54.235.29.9/FacialAge/BNav_EC2/DepthDuration/v2_depth_duration_MTurk/v2_DepthDuration_HTML.html#348,348,1536,969,1920,1080,8-30-2022,8-53-58,68,depth_duration_stimuli/001450_2014-06-19_17-02-03_260595134347_rgbf000203-resize_4/001450_2014-06-19_17-02-03_260595134347_rgbf000203-resize_4-target.png,1000,4.0106666666667,6,2749,995,feet,jsons/v1_VE1000_randls_73.json,489185,667486,30,Man
68,572500,DepthScenes,duration_manipulation_targetAtFixation,jsons/v1_VE1000_randls_73.json,http://54.235.29.9/FacialAge/BNav_EC2/DepthDuration/v2_depth_duration_MTurk/v2_DepthDuration_HTML.html#348,348,1536,969,1920,1080,8-30-2022,8-53-58,69,depth_duration_stimuli/001199_2014-06-17_16-03-48_260595134347_rgbf000077-resize_0/001199_2014-06-17_16-03-48_260595134347_rgbf000077-resize_0-target.png,1000,3.4375,5,2822,988,feet,jsons/v1_VE1000_randls_73.json,489185,667486,30,Man
69,572500,DepthScenes,duration_manipulation_targetAtFixation,jsons/v1_VE1000_randls_73.json,http://54.235.29.9/FacialAge/BNav_EC2/DepthDuration/v2_depth_duration_MTurk/v2_DepthDuration_HTML.html#348,348,1536,969,1920,1080,8-30-2022,8-53-58,70,depth_duration_stimuli/000502_2014-06-08_23-02-32_260595134347_rgbf000063-resize_4/000502_2014-06-08_23-02-32_260595134347_rgbf000063-resize_4-target.png,1000,2.431,2,3704,999,feet,jsons/v1_VE1000_randls_73.json,489185,667486,30,Man
70,572500,DepthScenes,duration_manipulation_targetAtFixation,jsons/v1_VE1000_randls_73.json,http://54.235.29.9/FacialAge/BNav_EC2/DepthDuration/v2_depth_duration_MTurk/v2_DepthDuration_HTML.html#348,348,1536,969,1920,1080,8-30-2022,8-53-58,71,depth_duration_stimuli/000469_2014-06-09_19-42-10_260595134347_rgbf000081-resize_1/000469_2014-06-09_19-42-10_260595134347_rgbf000081-resize_1-target.png,1000,1.652,2,2462,992,feet,jsons/v1_VE1000_randls_73.json,489185,667486,30,Man
71,572500,DepthScenes,duration_manipulation_targetAtFixation,jsons/v1_VE1000_randls_73.json,http://54.235.29.9/FacialAge/BNav_EC2/DepthDuration/v2_depth_duration_MTurk/v2_DepthDuration_HTML.html#348,348,1536,969,1920,1080,8-30-2022,8-53-58,72,depth_duration_stimuli/000483_2014-06-09_20-41-45_260595134347_rgbf000116-resize_4/000483_2014-06-09_20-41-45_260595134347_rgbf000116-resize_4-target.png,1000,1.337,2,2153,1008,feet,jsons/v1_VE1000_randls_73.json,489185,667486,30,Man
72,572500,DepthScenes,duration_manipulation_targetAtFixation,jsons/v1_VE1000_randls_73.json,http://54.235.29.9/FacialAge/BNav_EC2/DepthDuration/v2_depth_duration_MTurk/v2_DepthDuration_HTML.html#348,348,1536,969,1920,1080,8-30-2022,8-53-58,73,depth_duration_stimuli/002964_2014-06-08_17-46-11_094959634447_rgbf000091-resize_4/002964_2014-06-08_17-46-11_094959634447_rgbf000091-resize_4-target.png,1000,1.6909999999999998,1,2301,996,feet,jsons/v1_VE1000_randls_73.json,489185,667486,30,Man
73,572500,DepthScenes,duration_manipulation_targetAtFixation,jsons/v1_VE1000_randls_73.json,http://54.235.29.9/FacialAge/BNav_EC2/DepthDuration/v2_depth_duration_MTurk/v2_DepthDuration_HTML.html#348,348,1536,969,1920,1080,8-30-2022,8-53-58,74,depth_duration_stimuli/002136_2014-06-25_21-18-03_260595134347_rgbf000109-resize_3/002136_2014-06-25_21-18-03_260595134347_rgbf000109-resize_3-target.png,1000,1.9569999999999999,2,2625,1009,feet,jsons/v1_VE1000_randls_73.json,489185,667486,30,Man
74,572500,DepthScenes,duration_manipulation_targetAtFixation,jsons/v1_VE1000_randls_73.json,http://54.235.29.9/FacialAge/BNav_EC2/DepthDuration/v2_depth_duration_MTurk/v2_DepthDuration_HTML.html#348,348,1536,969,1920,1080,8-30-2022,8-53-58,75,depth_duration_stimuli/001150_2014-06-17_15-27-34_260595134347_rgbf000108-resize_2/001150_2014-06-17_15-27-34_260595134347_rgbf000108-resize_2-target.png,1000,4.0325,3,2314,990,feet,jsons/v1_VE1000_randls_73.json,489185,667486,30,Man
75,572500,DepthScenes,duration_manipulation_targetAtFixation,jsons/v1_VE1000_randls_73.json,http://54.235.29.9/FacialAge/BNav_EC2/DepthDuration/v2_depth_duration_MTurk/v2_DepthDuration_HTML.html#348,348,1536,969,1920,1080,8-30-2022,8-53-58,76,depth_duration_stimuli/000665_2014-06-09_20-42-35_260595134347_rgbf000110-resize_1/000665_2014-06-09_20-42-35_260595134347_rgbf000110-resize_1-target.png,1000,3.057,4,2248,1008,feet,jsons/v1_VE1000_randls_73.json,489185,667486,30,Man
76,572500,DepthScenes,duration_manipulation_targetAtFixation,jsons/v1_VE1000_randls_73.json,http://54.235.29.9/FacialAge/BNav_EC2/DepthDuration/v2_depth_duration_MTurk/v2_DepthDuration_HTML.html#348,348,1536,969,1920,1080,8-30-2022,8-53-58,77,depth_duration_stimuli/000414_2014-06-04_19-49-13_260595134347_rgbf000044-resize_0/000414_2014-06-04_19-49-13_260595134347_rgbf000044-resize_0-target.png,1000,4.329,5,2663,1006,feet,jsons/v1_VE1000_randls_73.json,489185,667486,30,Man
77,572500,DepthScenes,duration_manipulation_targetAtFixation,jsons/v1_VE1000_randls_73.json,http://54.235.29.9/FacialAge/BNav_EC2/DepthDuration/v2_depth_duration_MTurk/v2_DepthDuration_HTML.html#348,348,1536,969,1920,1080,8-30-2022,8-53-58,78,depth_duration_stimuli/003129_2014-05-12_10-48-10_094959634447_rgbf000100-resize_0/003129_2014-05-12_10-48-10_094959634447_rgbf000100-resize_0-target.png,1000,4.9305,5,2145,996,feet,jsons/v1_VE1000_randls_73.json,489185,667486,30,Man
78,572500,DepthScenes,duration_manipulation_targetAtFixation,jsons/v1_VE1000_randls_73.json,http://54.235.29.9/FacialAge/BNav_EC2/DepthDuration/v2_depth_duration_MTurk/v2_DepthDuration_HTML.html#348,348,1536,969,1920,1080,8-30-2022,8-53-58,79,depth_duration_stimuli/000773_2014-06-08_22-24-54_260595134347_rgbf000093-resize_1/000773_2014-06-08_22-24-54_260595134347_rgbf000093-resize_1-target.png,1000,4.973,5,2230,1005,feet,jsons/v1_VE1000_randls_73.json,489185,667486,30,Man
79,572500,DepthScenes,duration_manipulation_targetAtFixation,jsons/v1_VE1000_randls_73.json,http://54.235.29.9/FacialAge/BNav_EC2/DepthDuration/v2_depth_duration_MTurk/v2_DepthDuration_HTML.html#348,348,1536,969,1920,1080,8-30-2022,8-53-58,80,depth_duration_stimuli/002414_2014-06-28_20-24-58_260595134347_rgbf000067-resize_4/002414_2014-06-28_20-24-58_260595134347_rgbf000067-resize_4-target.png,1000,4.363,5,2288,1009,feet,jsons/v1_VE1000_randls_73.json,489185,667486,30,Man
80,572500,DepthScenes,duration_manipulation_targetAtFixation,jsons/v1_VE1000_randls_73.json,http://54.235.29.9/FacialAge/BNav_EC2/DepthDuration/v2_depth_duration_MTurk/v2_DepthDuration_HTML.html#348,348,1536,969,1920,1080,8-30-2022,8-53-58,81,depth_duration_stimuli/002057_2014-06-24_21-00-13_260595134347_rgbf000120-resize_1/002057_2014-06-24_21-00-13_260595134347_rgbf000120-resize_1-target.png,1000,2.967,5,2175,1006,feet,jsons/v1_VE1000_randls_73.json,489185,667486,30,Man
81,572500,DepthScenes,duration_manipulation_targetAtFixation,jsons/v1_VE1000_randls_73.json,http://54.235.29.9/FacialAge/BNav_EC2/DepthDuration/v2_depth_duration_MTurk/v2_DepthDuration_HTML.html#348,348,1536,969,1920,1080,8-30-2022,8-53-58,82,depth_duration_stimuli/000709_2014-06-08_13-51-55_260595134347_rgbf000068-resize_3/000709_2014-06-08_13-51-55_260595134347_rgbf000068-resize_3-target.png,1000,1.8030000000000002,3,2090,993,feet,jsons/v1_VE1000_randls_73.json,489185,667486,30,Man
82,572500,DepthScenes,duration_manipulation_targetAtFixation,jsons/v1_VE1000_randls_73.json,http://54.235.29.9/FacialAge/BNav_EC2/DepthDuration/v2_depth_duration_MTurk/v2_DepthDuration_HTML.html#348,348,1536,969,1920,1080,8-30-2022,8-53-58,83,depth_duration_stimuli/002600_2014-06-24_14-27-04_094959634447_rgbf000074-resize_2/002600_2014-06-24_14-27-04_094959634447_rgbf000074-resize_2-target.png,1000,2.7575,3,2593,992,feet,jsons/v1_VE1000_randls_73.json,489185,667486,30,Man
83,572500,DepthScenes,duration_manipulation_targetAtFixation,jsons/v1_VE1000_randls_73.json,http://54.235.29.9/FacialAge/BNav_EC2/DepthDuration/v2_depth_duration_MTurk/v2_DepthDuration_HTML.html#348,348,1536,969,1920,1080,8-30-2022,8-53-58,84,depth_duration_stimuli/003228_2014-05-14_13-42-35_094959634447_rgbf000101-resize_1/003228_2014-05-14_13-42-35_094959634447_rgbf000101-resize_1-target.png,1000,1.9680000000000002,1,2234,994,feet,jsons/v1_VE1000_randls_73.json,489185,667486,30,Man
84,572500,DepthScenes,duration_manipulation_targetAtFixation,jsons/v1_VE1000_randls_73.json,http://54.235.29.9/FacialAge/BNav_EC2/DepthDuration/v2_depth_duration_MTurk/v2_DepthDuration_HTML.html#348,348,1536,969,1920,1080,8-30-2022,8-53-58,85,depth_duration_stimuli/002213_2014-06-28_18-37-58_260595134347_rgbf000055-resize_1/002213_2014-06-28_18-37-58_260595134347_rgbf000055-resize_1-target.png,1000,3.62,5,2528,1007,feet,jsons/v1_VE1000_randls_73.json,489185,667486,30,Man
85,572500,DepthScenes,duration_manipulation_targetAtFixation,jsons/v1_VE1000_randls_73.json,http://54.235.29.9/FacialAge/BNav_EC2/DepthDuration/v2_depth_duration_MTurk/v2_DepthDuration_HTML.html#348,348,1536,969,1920,1080,8-30-2022,8-53-58,86,depth_duration_stimuli/000691_2014-06-08_13-08-50_260595134347_rgbf000132-resize_3/000691_2014-06-08_13-08-50_260595134347_rgbf000132-resize_3-target.png,1000,4.1530000000000005,5,2124,994,feet,jsons/v1_VE1000_randls_73.json,489185,667486,30,Man
86,572500,DepthScenes,duration_manipulation_targetAtFixation,jsons/v1_VE1000_randls_73.json,http://54.235.29.9/FacialAge/BNav_EC2/DepthDuration/v2_depth_duration_MTurk/v2_DepthDuration_HTML.html#348,348,1536,969,1920,1080,8-30-2022,8-53-58,87,depth_duration_stimuli/002763_2014-06-22_19-13-10_094959634447_rgbf000075-resize_4/002763_2014-06-22_19-13-10_094959634447_rgbf000075-resize_4-target.png,1000,1.68375,2,2149,993,feet,jsons/v1_VE1000_randls_73.json,489185,667486,30,Man
87,572500,DepthScenes,duration_manipulation_targetAtFixation,jsons/v1_VE1000_randls_73.json,http://54.235.29.9/FacialAge/BNav_EC2/DepthDuration/v2_depth_duration_MTurk/v2_DepthDuration_HTML.html#348,348,1536,969,1920,1080,8-30-2022,8-53-58,88,depth_duration_stimuli/002209_2014-06-28_18-36-10_260595134347_rgbf000051-resize_1/002209_2014-06-28_18-36-10_260595134347_rgbf000051-resize_1-target.png,1000,2.057,2,2205,1006,feet,jsons/v1_VE1000_randls_73.json,489185,667486,30,Man
88,572500,DepthScenes,duration_manipulation_targetAtFixation,jsons/v1_VE1000_randls_73.json,http://54.235.29.9/FacialAge/BNav_EC2/DepthDuration/v2_depth_duration_MTurk/v2_DepthDuration_HTML.html#348,348,1536,969,1920,1080,8-30-2022,8-53-58,89,depth_duration_stimuli/000486_2014-06-09_20-47-20_260595134347_rgbf000143-resize_2/000486_2014-06-09_20-47-20_260595134347_rgbf000143-resize_2-target.png,1000,4.8325,7,2614,996,feet,jsons/v1_VE1000_randls_73.json,489185,667486,30,Man
89,572500,DepthScenes,duration_manipulation_targetAtFixation,jsons/v1_VE1000_randls_73.json,http://54.235.29.9/FacialAge/BNav_EC2/DepthDuration/v2_depth_duration_MTurk/v2_DepthDuration_HTML.html#348,348,1536,969,1920,1080,8-30-2022,8-53-58,90,depth_duration_stimuli/003083_2014-06-15_15-21-03_094959634447_rgbf000063-resize_1/003083_2014-06-15_15-21-03_094959634447_rgbf000063-resize_1-target.png,1000,4.1405,6,2141,993,feet,jsons/v1_VE1000_randls_73.json,489185,667486,30,Man
90,572500,DepthScenes,duration_manipulation_targetAtFixation,jsons/v1_VE1000_randls_73.json,http://54.235.29.9/FacialAge/BNav_EC2/DepthDuration/v2_depth_duration_MTurk/v2_DepthDuration_HTML.html#348,348,1536,969,1920,1080,8-30-2022,8-53-58,91,depth_duration_stimuli/001110_2014-06-15_17-25-28_260595134347_rgbf000150-resize_1/001110_2014-06-15_17-25-28_260595134347_rgbf000150-resize_1-target.png,1000,1.7115,6,2442,997,feet,jsons/v1_VE1000_randls_73.json,489185,667486,30,Man
91,572500,DepthScenes,duration_manipulation_targetAtFixation,jsons/v1_VE1000_randls_73.json,http://54.235.29.9/FacialAge/BNav_EC2/DepthDuration/v2_depth_duration_MTurk/v2_DepthDuration_HTML.html#348,348,1536,969,1920,1080,8-30-2022,8-53-58,92,depth_duration_stimuli/000927_2014-06-09_16-32-30_260595134347_rgbf000123-resize_3/000927_2014-06-09_16-32-30_260595134347_rgbf000123-resize_3-target.png,1000,2.6785,5,2878,1007,feet,jsons/v1_VE1000_randls_73.json,489185,667486,30,Man
92,572500,DepthScenes,duration_manipulation_targetAtFixation,jsons/v1_VE1000_randls_73.json,http://54.235.29.9/FacialAge/BNav_EC2/DepthDuration/v2_depth_duration_MTurk/v2_DepthDuration_HTML.html#348,348,1536,969,1920,1080,8-30-2022,8-53-58,93,depth_duration_stimuli/003070_2014-06-15_14-58-27_094959634447_rgbf000150-resize_3/003070_2014-06-15_14-58-27_094959634447_rgbf000150-resize_3-target.png,1000,2.9415,4,2961,991,feet,jsons/v1_VE1000_randls_73.json,489185,667486,30,Man
93,572500,DepthScenes,duration_manipulation_targetAtFixation,jsons/v1_VE1000_randls_73.json,http://54.235.29.9/FacialAge/BNav_EC2/DepthDuration/v2_depth_duration_MTurk/v2_DepthDuration_HTML.html#348,348,1536,969,1920,1080,8-30-2022,8-53-58,94,depth_duration_stimuli/000943_2014-06-09_19-31-07_260595134347_rgbf000128-resize_1/000943_2014-06-09_19-31-07_260595134347_rgbf000128-resize_1-target.png,1000,1.9765,2,2233,1006,feet,jsons/v1_VE1000_randls_73.json,489185,667486,30,Man
94,572500,DepthScenes,duration_manipulation_targetAtFixation,jsons/v1_VE1000_randls_73.json,http://54.235.29.9/FacialAge/BNav_EC2/DepthDuration/v2_depth_duration_MTurk/v2_DepthDuration_HTML.html#348,348,1536,969,1920,1080,8-30-2022,8-53-58,95,depth_duration_stimuli/001059_2014-06-08_21-53-27_260595134347_rgbf000061-resize_4/001059_2014-06-08_21-53-27_260595134347_rgbf000061-resize_4-target.png,1000,2.4185,2,2219,1011,feet,jsons/v1_VE1000_randls_73.json,489185,667486,30,Man
95,572500,DepthScenes,duration_manipulation_targetAtFixation,jsons/v1_VE1000_randls_73.json,http://54.235.29.9/FacialAge/BNav_EC2/DepthDuration/v2_depth_duration_MTurk/v2_DepthDuration_HTML.html#348,348,1536,969,1920,1080,8-30-2022,8-53-58,96,depth_duration_stimuli/001032_2014-06-08_13-23-17_260595134347_rgbf000021-resize_3/001032_2014-06-08_13-23-17_260595134347_rgbf000021-resize_3-target.png,1000,3.2725,1,2667,994,feet,jsons/v1_VE1000_randls_73.json,489185,667486,30,Man
96,572500,DepthScenes,duration_manipulation_targetAtFixation,jsons/v1_VE1000_randls_73.json,http://54.235.29.9/FacialAge/BNav_EC2/DepthDuration/v2_depth_duration_MTurk/v2_DepthDuration_HTML.html#348,348,1536,969,1920,1080,8-30-2022,8-53-58,97,depth_duration_stimuli/002748_2014-06-22_19-07-22_094959634447_rgbf000078-resize_1/002748_2014-06-22_19-07-22_094959634447_rgbf000078-resize_1-target.png,1000,4.6705,4,2262,993,feet,jsons/v1_VE1000_randls_73.json,489185,667486,30,Man
97,572500,DepthScenes,duration_manipulation_targetAtFixation,jsons/v1_VE1000_randls_73.json,http://54.235.29.9/FacialAge/BNav_EC2/DepthDuration/v2_depth_duration_MTurk/v2_DepthDuration_HTML.html#348,348,1536,969,1920,1080,8-30-2022,8-53-58,98,depth_duration_stimuli/002995_2014-06-15_12-31-26_094959634447_rgbf000150-resize_1/002995_2014-06-15_12-31-26_094959634447_rgbf000150-resize_1-target.png,1000,3.8360000000000003,3,2121,1001,feet,jsons/v1_VE1000_randls_73.json,489185,667486,30,Man
98,572500,DepthScenes,duration_manipulation_targetAtFixation,jsons/v1_VE1000_randls_73.json,http://54.235.29.9/FacialAge/BNav_EC2/DepthDuration/v2_depth_duration_MTurk/v2_DepthDuration_HTML.html#348,348,1536,969,1920,1080,8-30-2022,8-53-58,99,depth_duration_stimuli/001540_2014-06-20_17-01-05_260595134347_rgbf000086-resize_2/001540_2014-06-20_17-01-05_260595134347_rgbf000086-resize-original.jpg,1000,1.459,0,2688,1003,feet,jsons/v1_VE1000_randls_73.json,489185,667486,30,Man
99,572500,DepthScenes,duration_manipulation_targetAtFixation,jsons/v1_VE1000_randls_73.json,http://54.235.29.9/FacialAge/BNav_EC2/DepthDuration/v2_depth_duration_MTurk/v2_DepthDuration_HTML.html#348,348,1536,969,1920,1080,8-30-2022,8-53-58,100,depth_duration_stimuli/002445_2014-06-28_20-32-16_260595134347_rgbf000029-resize_4/002445_2014-06-28_20-32-16_260595134347_rgbf000029-resize_4-target.png,1000,2.5315,2,2213,1006,feet,jsons/v1_VE1000_randls_73.json,489185,667486,30,Man
100,572500,DepthScenes,duration_manipulation_targetAtFixation,jsons/v1_VE1000_randls_73.json,http://54.235.29.9/FacialAge/BNav_EC2/DepthDuration/v2_depth_duration_MTurk/v2_DepthDuration_HTML.html#348,348,1536,969,1920,1080,8-30-2022,8-53-58,101,depth_duration_stimuli/000780_2014-06-08_22-28-29_260595134347_rgbf000126-resize_1/000780_2014-06-08_22-28-29_260595134347_rgbf000126-resize_1-target.png,1000,3.3825,3,2157,1000,feet,jsons/v1_VE1000_randls_73.json,489185,667486,30,Man
101,572500,DepthScenes,duration_manipulation_targetAtFixation,jsons/v1_VE1000_randls_73.json,http://54.235.29.9/FacialAge/BNav_EC2/DepthDuration/v2_depth_duration_MTurk/v2_DepthDuration_HTML.html#348,348,1536,969,1920,1080,8-30-2022,8-53-58,102,depth_duration_stimuli/000692_2014-06-08_13-09-42_260595134347_rgbf000199-resize_2/000692_2014-06-08_13-09-42_260595134347_rgbf000199-resize_2-target.png,1000,3.661,5,2632,997,feet,jsons/v1_VE1000_randls_73.json,489185,667486,30,Man
102,572500,DepthScenes,duration_manipulation_targetAtFixation,jsons/v1_VE1000_randls_73.json,http://54.235.29.9/FacialAge/BNav_EC2/DepthDuration/v2_depth_duration_MTurk/v2_DepthDuration_HTML.html#348,348,1536,969,1920,1080,8-30-2022,8-53-58,103,depth_duration_stimuli/001094_2014-06-15_17-36-00_260595134347_rgbf000205-resize_0/001094_2014-06-15_17-36-00_260595134347_rgbf000205-resize_0-target.png,1000,4.2175,6,2602,995,feet,jsons/v1_VE1000_randls_73.json,489185,667486,30,Man
103,572500,DepthScenes,duration_manipulation_targetAtFixation,jsons/v1_VE1000_randls_73.json,http://54.235.29.9/FacialAge/BNav_EC2/DepthDuration/v2_depth_duration_MTurk/v2_DepthDuration_HTML.html#348,348,1536,969,1920,1080,8-30-2022,8-53-58,104,depth_duration_stimuli/002043_2014-06-24_20-29-38_260595134347_rgbf000039-resize_4/002043_2014-06-24_20-29-38_260595134347_rgbf000039-resize_4-target.png,1000,2.8435,5,2695,994,feet,jsons/v1_VE1000_randls_73.json,489185,667486,30,Man
104,572500,DepthScenes,duration_manipulation_targetAtFixation,jsons/v1_VE1000_randls_73.json,http://54.235.29.9/FacialAge/BNav_EC2/DepthDuration/v2_depth_duration_MTurk/v2_DepthDuration_HTML.html#348,348,1536,969,1920,1080,8-30-2022,8-53-58,105,depth_duration_stimuli/003048_2014-06-15_13-49-43_094959634447_rgbf000150-resize_1/003048_2014-06-15_13-49-43_094959634447_rgbf000150-resize_1-target.png,1000,4.0035,3,2140,999,feet,jsons/v1_VE1000_randls_73.json,489185,667486,30,Man
105,572500,DepthScenes,duration_manipulation_targetAtFixation,jsons/v1_VE1000_randls_73.json,http://54.235.29.9/FacialAge/BNav_EC2/DepthDuration/v2_depth_duration_MTurk/v2_DepthDuration_HTML.html#348,348,1536,969,1920,1080,8-30-2022,8-53-58,106,depth_duration_stimuli/001244_2014-06-17_16-47-45_260595134347_rgbf000030-resize_4/001244_2014-06-17_16-47-45_260595134347_rgbf000030-resize_4-target.png,1000,2.0425,3,2595,986,feet,jsons/v1_VE1000_randls_73.json,489185,667486,30,Man
106,572500,DepthScenes,duration_manipulation_targetAtFixation,jsons/v1_VE1000_randls_73.json,http://54.235.29.9/FacialAge/BNav_EC2/DepthDuration/v2_depth_duration_MTurk/v2_DepthDuration_HTML.html#348,348,1536,969,1920,1080,8-30-2022,8-53-58,107,depth_duration_stimuli/003495_2014-05-21_16-01-51_094959634447_rgbf000100-resize_3/003495_2014-05-21_16-01-51_094959634447_rgbf000100-resize_3-target.png,1000,1.6255,1,2047,994,feet,jsons/v1_VE1000_randls_73.json,489185,667486,30,Man
107,572500,DepthScenes,duration_manipulation_targetAtFixation,jsons/v1_VE1000_randls_73.json,http://54.235.29.9/FacialAge/BNav_EC2/DepthDuration/v2_depth_duration_MTurk/v2_DepthDuration_HTML.html#348,348,1536,969,1920,1080,8-30-2022,8-53-58,108,depth_duration_stimuli/002988_2014-06-15_12-24-20_094959634447_rgbf000150-resize_1/002988_2014-06-15_12-24-20_094959634447_rgbf000150-resize_1-target.png,1000,4.7669999999999995,4,2081,1015,feet,jsons/v1_VE1000_randls_73.json,489185,667486,30,Man
108,572500,DepthScenes,duration_manipulation_targetAtFixation,jsons/v1_VE1000_randls_73.json,http://54.235.29.9/FacialAge/BNav_EC2/DepthDuration/v2_depth_duration_MTurk/v2_DepthDuration_HTML.html#348,348,1536,969,1920,1080,8-30-2022,8-53-58,109,depth_duration_stimuli/001052_2014-06-08_18-24-54_260595134347_rgbf000130-resize_1/001052_2014-06-08_18-24-54_260595134347_rgbf000130-resize_1-target.png,1000,4.1045,4,2037,1006,feet,jsons/v1_VE1000_randls_73.json,489185,667486,30,Man
109,572500,DepthScenes,duration_manipulation_targetAtFixation,jsons/v1_VE1000_randls_73.json,http://54.235.29.9/FacialAge/BNav_EC2/DepthDuration/v2_depth_duration_MTurk/v2_DepthDuration_HTML.html#348,348,1536,969,1920,1080,8-30-2022,8-53-58,110,depth_duration_stimuli/000642_2014-06-08_16-59-25_260595134347_rgbf000098-resize_2/000642_2014-06-08_16-59-25_260595134347_rgbf000098-resize_2-target.png,1000,2.8815,3,2052,987,feet,jsons/v1_VE1000_randls_73.json,489185,667486,30,Man
110,572500,DepthScenes,duration_manipulation_targetAtFixation,jsons/v1_VE1000_randls_73.json,http://54.235.29.9/FacialAge/BNav_EC2/DepthDuration/v2_depth_duration_MTurk/v2_DepthDuration_HTML.html#348,348,1536,969,1920,1080,8-30-2022,8-53-58,111,depth_duration_stimuli/002425_2014-06-28_20-27-29_260595134347_rgbf000031-resize_8/002425_2014-06-28_20-27-29_260595134347_rgbf000031-resize_8-target.png,1000,3.8960000000000004,4,1997,988,feet,jsons/v1_VE1000_randls_73.json,489185,667486,30,Man
111,572500,DepthScenes,duration_manipulation_targetAtFixation,jsons/v1_VE1000_randls_73.json,http://54.235.29.9/FacialAge/BNav_EC2/DepthDuration/v2_depth_duration_MTurk/v2_DepthDuration_HTML.html#348,348,1536,969,1920,1080,8-30-2022,8-53-58,112,depth_duration_stimuli/003534_2014-05-22_15-06-10_094959634447_rgbf000102-resize_4/003534_2014-05-22_15-06-10_094959634447_rgbf000102-resize_4-target.png,1000,1.426,1,2070,1011,feet,jsons/v1_VE1000_randls_73.json,489185,667486,30,Man
112,572500,DepthScenes,duration_manipulation_targetAtFixation,jsons/v1_VE1000_randls_73.json,http://54.235.29.9/FacialAge/BNav_EC2/DepthDuration/v2_depth_duration_MTurk/v2_DepthDuration_HTML.html#348,348,1536,969,1920,1080,8-30-2022,8-53-58,113,depth_duration_stimuli/002637_2014-06-24_14-51-13_094959634447_rgbf000066-resize_4/002637_2014-06-24_14-51-13_094959634447_rgbf000066-resize_4-target.png,1000,1.9955,1,2298,995,feet,jsons/v1_VE1000_randls_73.json,489185,667486,30,Man
113,572500,DepthScenes,duration_manipulation_targetAtFixation,jsons/v1_VE1000_randls_73.json,http://54.235.29.9/FacialAge/BNav_EC2/DepthDuration/v2_depth_duration_MTurk/v2_DepthDuration_HTML.html#348,348,1536,969,1920,1080,8-30-2022,8-53-58,114,depth_duration_stimuli/002272_2014-06-28_18-53-56_260595134347_rgbf000067-resize_2/002272_2014-06-28_18-53-56_260595134347_rgbf000067-resize_2-target.png,1000,1.138,1,2742,1000,feet,jsons/v1_VE1000_randls_73.json,489185,667486,30,Man
114,572500,DepthScenes,duration_manipulation_targetAtFixation,jsons/v1_VE1000_randls_73.json,http://54.235.29.9/FacialAge/BNav_EC2/DepthDuration/v2_depth_duration_MTurk/v2_DepthDuration_HTML.html#348,348,1536,969,1920,1080,8-30-2022,8-53-58,115,depth_duration_stimuli/001571_2014-06-20_17-21-32_260595134347_rgbf000089-resize_1/001571_2014-06-20_17-21-32_260595134347_rgbf000089-resize_1-target.png,1000,1.86,2,2107,989,feet,jsons/v1_VE1000_randls_73.json,489185,667486,30,Man
115,572500,DepthScenes,duration_manipulation_targetAtFixation,jsons/v1_VE1000_randls_73.json,http://54.235.29.9/FacialAge/BNav_EC2/DepthDuration/v2_depth_duration_MTurk/v2_DepthDuration_HTML.html#348,348,1536,969,1920,1080,8-30-2022,8-53-58,116,depth_duration_stimuli/001170_2014-06-17_15-43-44_260595134347_rgbf000096-resize_6/001170_2014-06-17_15-43-44_260595134347_rgbf000096-resize-original.jpg,1000,1.1909999999999998,2,3480,996,feet,jsons/v1_VE1000_randls_73.json,489185,667486,30,Man
116,572500,DepthScenes,duration_manipulation_targetAtFixation,jsons/v1_VE1000_randls_73.json,http://54.235.29.9/FacialAge/BNav_EC2/DepthDuration/v2_depth_duration_MTurk/v2_DepthDuration_HTML.html#348,348,1536,969,1920,1080,8-30-2022,8-53-58,117,depth_duration_stimuli/002989_2014-06-15_12-25-03_094959634447_rgbf000150-resize_3/002989_2014-06-15_12-25-03_094959634447_rgbf000150-resize_3-target.png,1000,4.1975,5,2820,1006,feet,jsons/v1_VE1000_randls_73.json,489185,667486,30,Man
117,572500,DepthScenes,duration_manipulation_targetAtFixation,jsons/v1_VE1000_randls_73.json,http://54.235.29.9/FacialAge/BNav_EC2/DepthDuration/v2_depth_duration_MTurk/v2_DepthDuration_HTML.html#348,348,1536,969,1920,1080,8-30-2022,8-53-58,118,depth_duration_stimuli/000866_2014-06-09_20-45-42_260595134347_rgbf000139-resize_1/000866_2014-06-09_20-45-42_260595134347_rgbf000139-resize_1-target.png,1000,3.2155,2,2809,997,feet,jsons/v1_VE1000_randls_73.json,489185,667486,30,Man
118,572500,DepthScenes,duration_manipulation_targetAtFixation,jsons/v1_VE1000_randls_73.json,http://54.235.29.9/FacialAge/BNav_EC2/DepthDuration/v2_depth_duration_MTurk/v2_DepthDuration_HTML.html#348,348,1536,969,1920,1080,8-30-2022,8-53-58,119,depth_duration_stimuli/001810_2014-06-26_20-51-35_260595134347_rgbf000040-resize_3/001810_2014-06-26_20-51-35_260595134347_rgbf000040-resize_3-target.png,1000,2.2525,2,2630,1015,feet,jsons/v1_VE1000_randls_73.json,489185,667486,30,Man
119,572500,DepthScenes,duration_manipulation_targetAtFixation,jsons/v1_VE1000_randls_73.json,http://54.235.29.9/FacialAge/BNav_EC2/DepthDuration/v2_depth_duration_MTurk/v2_DepthDuration_HTML.html#348,348,1536,969,1920,1080,8-30-2022,8-53-58,120,depth_duration_stimuli/003010_2014-06-15_12-54-35_094959634447_rgbf000112-resize_0/003010_2014-06-15_12-54-35_094959634447_rgbf000112-resize_0-target.png,1000,3.1185,3,2534,991,feet,jsons/v1_VE1000_randls_73.json,489185,667486,30,Man
120,572500,DepthScenes,duration_manipulation_targetAtFixation,jsons/v1_VE1000_randls_73.json,http://54.235.29.9/FacialAge/BNav_EC2/DepthDuration/v2_depth_duration_MTurk/v2_DepthDuration_HTML.html#348,348,1536,969,1920,1080,8-30-2022,8-53-58,121,depth_duration_stimuli/000739_2014-06-08_18-45-58_260595134347_rgbf000068-resize_1/000739_2014-06-08_18-45-58_260595134347_rgbf000068-resize_1-target.png,1000,3.534,4,3596,996,feet,jsons/v1_VE1000_randls_73.json,489185,667486,30,Man
121,572500,DepthScenes,duration_manipulation_targetAtFixation,jsons/v1_VE1000_randls_73.json,http://54.235.29.9/FacialAge/BNav_EC2/DepthDuration/v2_depth_duration_MTurk/v2_DepthDuration_HTML.html#348,348,1536,969,1920,1080,8-30-2022,8-53-58,122,depth_duration_stimuli/000734_2014-06-08_17-39-11_260595134347_rgbf000128-resize_2/000734_2014-06-08_17-39-11_260595134347_rgbf000128-resize_2-target.png,1000,4.098,3,2328,999,feet,jsons/v1_VE1000_randls_73.json,489185,667486,30,Man
122,572500,DepthScenes,duration_manipulation_targetAtFixation,jsons/v1_VE1000_randls_73.json,http://54.235.29.9/FacialAge/BNav_EC2/DepthDuration/v2_depth_duration_MTurk/v2_DepthDuration_HTML.html#348,348,1536,969,1920,1080,8-30-2022,8-53-58,123,depth_duration_stimuli/000470_2014-06-09_19-42-40_260595134347_rgbf000094-resize_1/000470_2014-06-09_19-42-40_260595134347_rgbf000094-resize_1-target.png,1000,1.831,2,2221,991,feet,jsons/v1_VE1000_randls_73.json,489185,667486,30,Man
123,572500,DepthScenes,duration_manipulation_targetAtFixation,jsons/v1_VE1000_randls_73.json,http://54.235.29.9/FacialAge/BNav_EC2/DepthDuration/v2_depth_duration_MTurk/v2_DepthDuration_HTML.html#348,348,1536,969,1920,1080,8-30-2022,8-53-58,124,depth_duration_stimuli/000109_2014-05-14_23-41-52_260595134347_rgbf000035-resize_9/000109_2014-05-14_23-41-52_260595134347_rgbf000035-resize_9-target.png,1000,1.3545,1,2033,1000,feet,jsons/v1_VE1000_randls_73.json,489185,667486,30,Man
124,572500,DepthScenes,duration_manipulation_targetAtFixation,jsons/v1_VE1000_randls_73.json,http://54.235.29.9/FacialAge/BNav_EC2/DepthDuration/v2_depth_duration_MTurk/v2_DepthDuration_HTML.html#348,348,1536,969,1920,1080,8-30-2022,8-53-58,125,depth_duration_stimuli/002905_2014-06-03_18-04-43_094959634447_rgbf000151-resize_2/002905_2014-06-03_18-04-43_094959634447_rgbf000151-resize_2-target.png,1000,2.0295,2,1989,999,feet,jsons/v1_VE1000_randls_73.json,489185,667486,30,Man
125,572500,DepthScenes,duration_manipulation_targetAtFixation,jsons/v1_VE1000_randls_73.json,http://54.235.29.9/FacialAge/BNav_EC2/DepthDuration/v2_depth_duration_MTurk/v2_DepthDuration_HTML.html#348,348,1536,969,1920,1080,8-30-2022,8-53-58,126,depth_duration_stimuli/003423_2014-05-21_10-23-26_094959634447_rgbf002665-resize_2/003423_2014-05-21_10-23-26_094959634447_rgbf002665-resize_2-target.png,1000,3.2575,3,2168,991,feet,jsons/v1_VE1000_randls_73.json,489185,667486,30,Man
126,572500,DepthScenes,duration_manipulation_targetAtFixation,jsons/v1_VE1000_randls_73.json,http://54.235.29.9/FacialAge/BNav_EC2/DepthDuration/v2_depth_duration_MTurk/v2_DepthDuration_HTML.html#348,348,1536,969,1920,1080,8-30-2022,8-53-58,127,depth_duration_stimuli/001570_2014-06-20_17-21-09_260595134347_rgbf000135-resize_4/001570_2014-06-20_17-21-09_260595134347_rgbf000135-resize_4-target.png,1000,4.467,4,2435,1003,feet,jsons/v1_VE1000_randls_73.json,489185,667486,30,Man
127,572500,DepthScenes,duration_manipulation_targetAtFixation,jsons/v1_VE1000_randls_73.json,http://54.235.29.9/FacialAge/BNav_EC2/DepthDuration/v2_depth_duration_MTurk/v2_DepthDuration_HTML.html#348,348,1536,969,1920,1080,8-30-2022,8-53-58,128,depth_duration_stimuli/001392_2014-06-19_16-07-59_260595134347_rgbf000046-resize_1/001392_2014-06-19_16-07-59_260595134347_rgbf000046-resize_1-target.png,1000,4.135,4,2108,994,feet,jsons/v1_VE1000_randls_73.json,489185,667486,30,Man
128,572500,DepthScenes,duration_manipulation_targetAtFixation,jsons/v1_VE1000_randls_73.json,http://54.235.29.9/FacialAge/BNav_EC2/DepthDuration/v2_depth_duration_MTurk/v2_DepthDuration_HTML.html#348,348,1536,969,1920,1080,8-30-2022,8-53-58,129,depth_duration_stimuli/002509_2014-06-24_13-19-22_094959634447_rgbf000077-resize_0/002509_2014-06-24_13-19-22_094959634447_rgbf000077-resize_0-target.png,1000,1.3065,1,2649,1004,feet,jsons/v1_VE1000_randls_73.json,489185,667486,30,Man
129,572500,DepthScenes,duration_manipulation_targetAtFixation,jsons/v1_VE1000_randls_73.json,http://54.235.29.9/FacialAge/BNav_EC2/DepthDuration/v2_depth_duration_MTurk/v2_DepthDuration_HTML.html#348,348,1536,969,1920,1080,8-30-2022,8-53-58,130,depth_duration_stimuli/003338_2014-05-20_11-01-23_094959634447_rgbf000051-resize_6/003338_2014-05-20_11-01-23_094959634447_rgbf000051-resize_6-target.png,1000,1.693,1,2449,1009,feet,jsons/v1_VE1000_randls_73.json,489185,667486,30,Man
130,572500,DepthScenes,duration_manipulation_targetAtFixation,jsons/v1_VE1000_randls_73.json,http://54.235.29.9/FacialAge/BNav_EC2/DepthDuration/v2_depth_duration_MTurk/v2_DepthDuration_HTML.html#348,348,1536,969,1920,1080,8-30-2022,8-53-58,131,depth_duration_stimuli/000506_2014-06-08_23-21-00_260595134347_rgbf000070-resize_7/000506_2014-06-08_23-21-00_260595134347_rgbf000070-resize_7-target.png,1000,4.0585,2,2710,1004,feet,jsons/v1_VE1000_randls_73.json,489185,667486,30,Man
131,572500,DepthScenes,duration_manipulation_targetAtFixation,jsons/v1_VE1000_randls_73.json,http://54.235.29.9/FacialAge/BNav_EC2/DepthDuration/v2_depth_duration_MTurk/v2_DepthDuration_HTML.html#348,348,1536,969,1920,1080,8-30-2022,8-53-58,132,depth_duration_stimuli/003079_2014-06-15_15-18-20_094959634447_rgbf000152-resize_8/003079_2014-06-15_15-18-20_094959634447_rgbf000152-resize_8-target.png,1000,2.8775,3,2710,1000,feet,jsons/v1_VE1000_randls_73.json,489185,667486,30,Man
132,572500,DepthScenes,duration_manipulation_targetAtFixation,jsons/v1_VE1000_randls_73.json,http://54.235.29.9/FacialAge/BNav_EC2/DepthDuration/v2_depth_duration_MTurk/v2_DepthDuration_HTML.html#348,348,1536,969,1920,1080,8-30-2022,8-53-58,133,depth_duration_stimuli/001164_2014-06-17_15-35-46_260595134347_rgbf000085-resize_3/001164_2014-06-17_15-35-46_260595134347_rgbf000085-resize_3-target.png,1000,2.354,2,2166,1003,feet,jsons/v1_VE1000_randls_73.json,489185,667486,30,Man
133,572500,DepthScenes,duration_manipulation_targetAtFixation,jsons/v1_VE1000_randls_73.json,http://54.235.29.9/FacialAge/BNav_EC2/DepthDuration/v2_depth_duration_MTurk/v2_DepthDuration_HTML.html#348,348,1536,969,1920,1080,8-30-2022,8-53-58,134,depth_duration_stimuli/001136_2014-06-17_15-19-41_260595134347_rgbf000076-resize_3/001136_2014-06-17_15-19-41_260595134347_rgbf000076-resize_3-target.png,1000,1.8655,2,2342,1009,feet,jsons/v1_VE1000_randls_73.json,489185,667486,30,Man
134,572500,DepthScenes,duration_manipulation_targetAtFixation,jsons/v1_VE1000_randls_73.json,http://54.235.29.9/FacialAge/BNav_EC2/DepthDuration/v2_depth_duration_MTurk/v2_DepthDuration_HTML.html#348,348,1536,969,1920,1080,8-30-2022,8-53-58,135,depth_duration_stimuli/002072_2014-06-24_21-48-06_260595134347_rgbf000115-resize_0/002072_2014-06-24_21-48-06_260595134347_rgbf000115-resize-original.jpg,1000,4.702,0,2818,1003,feet,jsons/v1_VE1000_randls_73.json,489185,667486,30,Man
135,572500,DepthScenes,duration_manipulation_targetAtFixation,jsons/v1_VE1000_randls_73.json,http://54.235.29.9/FacialAge/BNav_EC2/DepthDuration/v2_depth_duration_MTurk/v2_DepthDuration_HTML.html#348,348,1536,969,1920,1080,8-30-2022,8-53-58,136,depth_duration_stimuli/000788_2014-06-08_22-34-36_260595134347_rgbf000131-resize_1/000788_2014-06-08_22-34-36_260595134347_rgbf000131-resize_1-target.png,1000,3.359,3,2287,987,feet,jsons/v1_VE1000_randls_73.json,489185,667486,30,Man
136,572500,DepthScenes,duration_manipulation_targetAtFixation,jsons/v1_VE1000_randls_73.json,http://54.235.29.9/FacialAge/BNav_EC2/DepthDuration/v2_depth_duration_MTurk/v2_DepthDuration_HTML.html#348,348,1536,969,1920,1080,8-30-2022,8-53-58,137,depth_duration_stimuli/001235_2014-06-17_16-37-36_260595134347_rgbf000084-resize_4/001235_2014-06-17_16-37-36_260595134347_rgbf000084-resize_4-target.png,1000,3.6605,3,2519,991,feet,jsons/v1_VE1000_randls_73.json,489185,667486,30,Man
137,572500,DepthScenes,duration_manipulation_targetAtFixation,jsons/v1_VE1000_randls_73.json,http://54.235.29.9/FacialAge/BNav_EC2/DepthDuration/v2_depth_duration_MTurk/v2_DepthDuration_HTML.html#348,348,1536,969,1920,1080,8-30-2022,8-53-58,138,depth_duration_stimuli/000522_2014-06-08_13-35-06_260595134347_rgbf000244-resize_1/000522_2014-06-08_13-35-06_260595134347_rgbf000244-resize_1-target.png,1000,2.3715,1,2317,1000,feet,jsons/v1_VE1000_randls_73.json,489185,667486,30,Man
138,572500,DepthScenes,duration_manipulation_targetAtFixation,jsons/v1_VE1000_randls_73.json,http://54.235.29.9/FacialAge/BNav_EC2/DepthDuration/v2_depth_duration_MTurk/v2_DepthDuration_HTML.html#348,348,1536,969,1920,1080,8-30-2022,8-53-58,139,depth_duration_stimuli/002949_2014-06-26_15-57-42_094959634447_rgbf000079-resize_1/002949_2014-06-26_15-57-42_094959634447_rgbf000079-resize_1-target.png,1000,1.8915,2,2173,995,feet,jsons/v1_VE1000_randls_73.json,489185,667486,30,Man
139,572500,DepthScenes,duration_manipulation_targetAtFixation,jsons/v1_VE1000_randls_73.json,http://54.235.29.9/FacialAge/BNav_EC2/DepthDuration/v2_depth_duration_MTurk/v2_DepthDuration_HTML.html#348,348,1536,969,1920,1080,8-30-2022,8-53-58,140,depth_duration_stimuli/001092_2014-06-15_17-34-58_260595134347_rgbf000171-resize_3/001092_2014-06-15_17-34-58_260595134347_rgbf000171-resize_3-target.png,1000,2.6935,3,2459,994,feet,jsons/v1_VE1000_randls_73.json,489185,667486,30,Man
140,572500,DepthScenes,duration_manipulation_targetAtFixation,jsons/v1_VE1000_randls_73.json,http://54.235.29.9/FacialAge/BNav_EC2/DepthDuration/v2_depth_duration_MTurk/v2_DepthDuration_HTML.html#348,348,1536,969,1920,1080,8-30-2022,8-53-58,141,depth_duration_stimuli/002545_2014-06-24_13-38-53_094959634447_rgbf000080-resize_4/002545_2014-06-24_13-38-53_094959634447_rgbf000080-resize_4-target.png,1000,1.9205,2,2487,999,feet,jsons/v1_VE1000_randls_73.json,489185,667486,30,Man
141,572500,DepthScenes,duration_manipulation_targetAtFixation,jsons/v1_VE1000_randls_73.json,http://54.235.29.9/FacialAge/BNav_EC2/DepthDuration/v2_depth_duration_MTurk/v2_DepthDuration_HTML.html#348,348,1536,969,1920,1080,8-30-2022,8-53-58,142,depth_duration_stimuli/001167_2014-06-17_15-38-07_260595134347_rgbf000108-resize_0/001167_2014-06-17_15-38-07_260595134347_rgbf000108-resize_0-target.png,1000,1.8505,1,2051,993,feet,jsons/v1_VE1000_randls_73.json,489185,667486,30,Man
142,572500,DepthScenes,duration_manipulation_targetAtFixation,jsons/v1_VE1000_randls_73.json,http://54.235.29.9/FacialAge/BNav_EC2/DepthDuration/v2_depth_duration_MTurk/v2_DepthDuration_HTML.html#348,348,1536,969,1920,1080,8-30-2022,8-53-58,143,depth_duration_stimuli/003587_2014-05-23_16-48-02_094959634447_rgbf002384-resize_2/003587_2014-05-23_16-48-02_094959634447_rgbf002384-resize_2-target.png,1000,1.357,1,2008,993,feet,jsons/v1_VE1000_randls_73.json,489185,667486,30,Man
143,572500,DepthScenes,duration_manipulation_targetAtFixation,jsons/v1_VE1000_randls_73.json,http://54.235.29.9/FacialAge/BNav_EC2/DepthDuration/v2_depth_duration_MTurk/v2_DepthDuration_HTML.html#348,348,1536,969,1920,1080,8-30-2022,8-53-58,144,depth_duration_stimuli/001417_2014-06-19_16-25-36_260595134347_rgbf000115-resize_5/001417_2014-06-19_16-25-36_260595134347_rgbf000115-resize_5-target.png,1000,4.6255,2,2376,993,feet,jsons/v1_VE1000_randls_73.json,489185,667486,30,Man
144,572500,DepthScenes,duration_manipulation_targetAtFixation,jsons/v1_VE1000_randls_73.json,http://54.235.29.9/FacialAge/BNav_EC2/DepthDuration/v2_depth_duration_MTurk/v2_DepthDuration_HTML.html#348,348,1536,969,1920,1080,8-30-2022,8-53-58,145,depth_duration_stimuli/003081_2014-06-15_15-19-16_094959634447_rgbf000150-resize_1/003081_2014-06-15_15-19-16_094959634447_rgbf000150-resize_1-target.png,1000,3.9125,3,2097,1000,feet,jsons/v1_VE1000_randls_73.json,489185,667486,30,Man
145,572500,DepthScenes,duration_manipulation_targetAtFixation,jsons/v1_VE1000_randls_73.json,http://54.235.29.9/FacialAge/BNav_EC2/DepthDuration/v2_depth_duration_MTurk/v2_DepthDuration_HTML.html#348,348,1536,969,1920,1080,8-30-2022,8-53-58,146,depth_duration_stimuli/001498_2014-06-19_17-45-14_260595134347_rgbf000129-resize_4/001498_2014-06-19_17-45-14_260595134347_rgbf000129-resize-original.jpg,1000,1.4075,0,2561,1000,feet,jsons/v1_VE1000_randls_73.json,489185,667486,30,Man
146,572500,DepthScenes,duration_manipulation_targetAtFixation,jsons/v1_VE1000_randls_73.json,http://54.235.29.9/FacialAge/BNav_EC2/DepthDuration/v2_depth_duration_MTurk/v2_DepthDuration_HTML.html#348,348,1536,969,1920,1080,8-30-2022,8-53-58,147,depth_duration_stimuli/001056_2014-06-08_18-46-44_260595134347_rgbf000068-resize_0/001056_2014-06-08_18-46-44_260595134347_rgbf000068-resize_0-target.png,1000,2.6625,3,2149,1006,feet,jsons/v1_VE1000_randls_73.json,489185,667486,30,Man
147,572500,DepthScenes,duration_manipulation_targetAtFixation,jsons/v1_VE1000_randls_73.json,http://54.235.29.9/FacialAge/BNav_EC2/DepthDuration/v2_depth_duration_MTurk/v2_DepthDuration_HTML.html#348,348,1536,969,1920,1080,8-30-2022,8-53-58,148,depth_duration_stimuli/002199_2014-06-28_18-33-56_260595134347_rgbf000074-resize_0/002199_2014-06-28_18-33-56_260595134347_rgbf000074-resize_0-target.png,1000,1.996,1,2248,999,feet,jsons/v1_VE1000_randls_73.json,489185,667486,30,Man
148,572500,DepthScenes,duration_manipulation_targetAtFixation,jsons/v1_VE1000_randls_73.json,http://54.235.29.9/FacialAge/BNav_EC2/DepthDuration/v2_depth_duration_MTurk/v2_DepthDuration_HTML.html#348,348,1536,969,1920,1080,8-30-2022,8-53-58,149,depth_duration_stimuli/001175_2014-06-17_15-45-55_260595134347_rgbf000129-resize_4/001175_2014-06-17_15-45-55_260595134347_rgbf000129-resize_4-target.png,1000,4.255,7,2388,1009,feet,jsons/v1_VE1000_randls_73.json,489185,667486,30,Man
149,572500,DepthScenes,duration_manipulation_targetAtFixation,jsons/v1_VE1000_randls_73.json,http://54.235.29.9/FacialAge/BNav_EC2/DepthDuration/v2_depth_duration_MTurk/v2_DepthDuration_HTML.html#348,348,1536,969,1920,1080,8-30-2022,8-53-58,150,depth_duration_stimuli/003490_2014-05-21_15-50-11_094959634447_rgbf000101-resize_3/003490_2014-05-21_15-50-11_094959634447_rgbf000101-resize_3-target.png,1000,3.6445,6,2342,998,feet,jsons/v1_VE1000_randls_73.json,489185,667486,30,Man
150,572500,DepthScenes,duration_manipulation_targetAtFixation,jsons/v1_VE1000_randls_73.json,http://54.235.29.9/FacialAge/BNav_EC2/DepthDuration/v2_depth_duration_MTurk/v2_DepthDuration_HTML.html#348,348,1536,969,1920,1080,8-30-2022,8-53-58,151,depth_duration_stimuli/002375_2014-06-28_20-13-44_260595134347_rgbf000032-resize_1/002375_2014-06-28_20-13-44_260595134347_rgbf000032-resize_1-target.png,1000,4.0175,3,2176,994,feet,jsons/v1_VE1000_randls_73.json,489185,667486,30,Man
151,572500,DepthScenes,duration_manipulation_targetAtFixation,jsons/v1_VE1000_randls_73.json,http://54.235.29.9/FacialAge/BNav_EC2/DepthDuration/v2_depth_duration_MTurk/v2_DepthDuration_HTML.html#348,348,1536,969,1920,1080,8-30-2022,8-53-58,152,depth_duration_stimuli/002657_2014-06-13_15-29-54_094959634447_rgbf000150-resize_1/002657_2014-06-13_15-29-54_094959634447_rgbf000150-resize_1-target.png,1000,4.919,5,2257,1000,feet,jsons/v1_VE1000_randls_73.json,489185,667486,30,Man
152,572500,DepthScenes,duration_manipulation_targetAtFixation,jsons/v1_VE1000_randls_73.json,http://54.235.29.9/FacialAge/BNav_EC2/DepthDuration/v2_depth_duration_MTurk/v2_DepthDuration_HTML.html#348,348,1536,969,1920,1080,8-30-2022,8-53-58,153,depth_duration_stimuli/002118_2014-06-25_20-32-08_260595134347_rgbf000078-resize_1/002118_2014-06-25_20-32-08_260595134347_rgbf000078-resize_1-target.png,1000,2.6460000000000004,3,2280,992,feet,jsons/v1_VE1000_randls_73.json,489185,667486,30,Man
153,572500,DepthScenes,duration_manipulation_targetAtFixation,jsons/v1_VE1000_randls_73.json,http://54.235.29.9/FacialAge/BNav_EC2/DepthDuration/v2_depth_duration_MTurk/v2_DepthDuration_HTML.html#348,348,1536,969,1920,1080,8-30-2022,8-53-58,154,depth_duration_stimuli/001516_2014-06-20_16-25-09_260595134347_rgbf000076-resize_2/001516_2014-06-20_16-25-09_260595134347_rgbf000076-resize_2-target.png,1000,1.7445,2,2514,990,feet,jsons/v1_VE1000_randls_73.json,489185,667486,30,Man
154,572500,DepthScenes,duration_manipulation_targetAtFixation,jsons/v1_VE1000_randls_73.json,http://54.235.29.9/FacialAge/BNav_EC2/DepthDuration/v2_depth_duration_MTurk/v2_DepthDuration_HTML.html#348,348,1536,969,1920,1080,8-30-2022,8-53-58,155,depth_duration_stimuli/000929_2014-06-09_16-33-19_260595134347_rgbf000139-resize_0/000929_2014-06-09_16-33-19_260595134347_rgbf000139-resize_0-target.png,1000,2.8680000000000003,3,2174,992,feet,jsons/v1_VE1000_randls_73.json,489185,667486,30,Man
155,572500,DepthScenes,duration_manipulation_targetAtFixation,jsons/v1_VE1000_randls_73.json,http://54.235.29.9/FacialAge/BNav_EC2/DepthDuration/v2_depth_duration_MTurk/v2_DepthDuration_HTML.html#348,348,1536,969,1920,1080,8-30-2022,8-53-58,156,depth_duration_stimuli/000457_2014-06-08_16-52-43_260595134347_rgbf000199-resize_1/000457_2014-06-08_16-52-43_260595134347_rgbf000199-resize_1-target.png,1000,3.6489999999999996,5,2322,1008,feet,jsons/v1_VE1000_randls_73.json,489185,667486,30,Man
156,572500,DepthScenes,duration_manipulation_targetAtFixation,jsons/v1_VE1000_randls_73.json,http://54.235.29.9/FacialAge/BNav_EC2/DepthDuration/v2_depth_duration_MTurk/v2_DepthDuration_HTML.html#348,348,1536,969,1920,1080,8-30-2022,8-53-58,157,depth_duration_stimuli/001133_2014-06-17_14-49-16_260595134347_rgbf000100-resize_0/001133_2014-06-17_14-49-16_260595134347_rgbf000100-resize_0-target.png,1000,4.2115,5,2102,999,feet,jsons/v1_VE1000_randls_73.json,489185,667486,30,Man
157,572500,DepthScenes,duration_manipulation_targetAtFixation,jsons/v1_VE1000_randls_73.json,http://54.235.29.9/FacialAge/BNav_EC2/DepthDuration/v2_depth_duration_MTurk/v2_DepthDuration_HTML.html#348,348,1536,969,1920,1080,8-30-2022,8-53-58,158,depth_duration_stimuli/001132_2014-06-17_14-48-54_260595134347_rgbf000100-resize_2/001132_2014-06-17_14-48-54_260595134347_rgbf000100-resize_2-target.png,1000,3.753,5,2062,998,feet,jsons/v1_VE1000_randls_73.json,489185,667486,30,Man
158,572500,DepthScenes,duration_manipulation_targetAtFixation,jsons/v1_VE1000_randls_73.json,http://54.235.29.9/FacialAge/BNav_EC2/DepthDuration/v2_depth_duration_MTurk/v2_DepthDuration_HTML.html#348,348,1536,969,1920,1080,8-30-2022,8-53-58,159,depth_duration_stimuli/003492_2014-05-21_15-50-55_094959634447_rgbf000828-resize_1/003492_2014-05-21_15-50-55_094959634447_rgbf000828-resize_1-target.png,1000,4.06875,5,3313,1009,feet,jsons/v1_VE1000_randls_73.json,489185,667486,30,Man
159,572500,DepthScenes,duration_manipulation_targetAtFixation,jsons/v1_VE1000_randls_73.json,http://54.235.29.9/FacialAge/BNav_EC2/DepthDuration/v2_depth_duration_MTurk/v2_DepthDuration_HTML.html#348,348,1536,969,1920,1080,8-30-2022,8-53-58,160,depth_duration_stimuli/002568_2014-06-24_13-59-21_094959634447_rgbf000062-resize_4/002568_2014-06-24_13-59-21_094959634447_rgbf000062-resize_4-target.png,1000,3.015,0,4594,992,feet,jsons/v1_VE1000_randls_73.json,489185,667486,30,Man
160,572500,DepthScenes,duration_manipulation_targetAtFixation,jsons/v1_VE1000_randls_73.json,http://54.235.29.9/FacialAge/BNav_EC2/DepthDuration/v2_depth_duration_MTurk/v2_DepthDuration_HTML.html#348,348,1536,969,1920,1080,8-30-2022,8-53-58,161,depth_duration_stimuli/002630_2014-06-24_14-47-50_094959634447_rgbf000055-resize_1/002630_2014-06-24_14-47-50_094959634447_rgbf000055-resize_1-target.png,1000,3.0095,5,2403,999,feet,jsons/v1_VE1000_randls_73.json,489185,667486,30,Man
161,572500,DepthScenes,duration_manipulation_targetAtFixation,jsons/v1_VE1000_randls_73.json,http://54.235.29.9/FacialAge/BNav_EC2/DepthDuration/v2_depth_duration_MTurk/v2_DepthDuration_HTML.html#348,348,1536,969,1920,1080,8-30-2022,8-53-58,162,depth_duration_stimuli/002758_2014-06-22_19-11-20_094959634447_rgbf000128-resize_1/002758_2014-06-22_19-11-20_094959634447_rgbf000128-resize_1-target.png,1000,2.555,3,2135,994,feet,jsons/v1_VE1000_randls_73.json,489185,667486,30,Man
162,572500,DepthScenes,duration_manipulation_targetAtFixation,jsons/v1_VE1000_randls_73.json,http://54.235.29.9/FacialAge/BNav_EC2/DepthDuration/v2_depth_duration_MTurk/v2_DepthDuration_HTML.html#348,348,1536,969,1920,1080,8-30-2022,8-53-58,163,depth_duration_stimuli/002788_2014-06-22_19-36-03_094959634447_rgbf000088-resize_2/002788_2014-06-22_19-36-03_094959634447_rgbf000088-resize_2-target.png,1000,1.6465,3,2171,995,feet,jsons/v1_VE1000_randls_73.json,489185,667486,30,Man
163,572500,DepthScenes,duration_manipulation_targetAtFixation,jsons/v1_VE1000_randls_73.json,http://54.235.29.9/FacialAge/BNav_EC2/DepthDuration/v2_depth_duration_MTurk/v2_DepthDuration_HTML.html#348,348,1536,969,1920,1080,8-30-2022,8-53-58,164,depth_duration_stimuli/000749_2014-06-08_21-55-06_260595134347_rgbf000070-resize_2/000749_2014-06-08_21-55-06_260595134347_rgbf000070-resize_2-target.png,1000,2.331,4,3109,993,feet,jsons/v1_VE1000_randls_73.json,489185,667486,30,Man
