,subjID,experimentName,versionName,sequenceName,url,selected_row,windowWidth,windowHeight,screenWidth,screenHeight,startDate,startTime,trial,stimulus,duration,actual_depth,depth_estimate,trial_RT,log_sceneDuration,unitSelection,seq_filepath,experimentTime,totalTime,age,gender
0,574189,DepthScenes,duration_manipulation_targetAtFixation,jsons/v1_VE1000_randls_73_rotated.json,http://54.235.29.9/FacialAge/BNav_EC2/DepthDuration/v2_depth_duration_MTurk/v2_DepthDuration_HTML.html#262,262,1366,625,1366,768,8-30-2022,6-54-24,1,depth_duration_stimuli/000749_2014-06-08_21-55-06_260595134347_rgbf000070-resize_2/000749_2014-06-08_21-55-06_260595134347_rgbf000070-resize_2-target.png,1000,2.331,3,11072,997,feet,jsons/v1_VE1000_randls_73_rotated.json,862058,1201623,28,Woman
1,574189,DepthScenes,duration_manipulation_targetAtFixation,jsons/v1_VE1000_randls_73_rotated.json,http://54.235.29.9/FacialAge/BNav_EC2/DepthDuration/v2_depth_duration_MTurk/v2_DepthDuration_HTML.html#262,262,1366,625,1366,768,8-30-2022,6-54-24,2,depth_duration_stimuli/002788_2014-06-22_19-36-03_094959634447_rgbf000088-resize_2/002788_2014-06-22_19-36-03_094959634447_rgbf000088-resize_2-target.png,1000,1.6465,3,3665,999,feet,jsons/v1_VE1000_randls_73_rotated.json,862058,1201623,28,Woman
2,574189,DepthScenes,duration_manipulation_targetAtFixation,jsons/v1_VE1000_randls_73_rotated.json,http://54.235.29.9/FacialAge/BNav_EC2/DepthDuration/v2_depth_duration_MTurk/v2_DepthDuration_HTML.html#262,262,1366,625,1366,768,8-30-2022,6-54-24,3,depth_duration_stimuli/002758_2014-06-22_19-11-20_094959634447_rgbf000128-resize_1/002758_2014-06-22_19-11-20_094959634447_rgbf000128-resize_1-target.png,1000,2.555,3,4172,999,feet,jsons/v1_VE1000_randls_73_rotated.json,862058,1201623,28,Woman
3,574189,DepthScenes,duration_manipulation_targetAtFixation,jsons/v1_VE1000_randls_73_rotated.json,http://54.235.29.9/FacialAge/BNav_EC2/DepthDuration/v2_depth_duration_MTurk/v2_DepthDuration_HTML.html#262,262,1366,625,1366,768,8-30-2022,6-54-24,4,depth_duration_stimuli/002630_2014-06-24_14-47-50_094959634447_rgbf000055-resize_1/002630_2014-06-24_14-47-50_094959634447_rgbf000055-resize_1-target.png,1000,3.0095,3,6249,1000,feet,jsons/v1_VE1000_randls_73_rotated.json,862058,1201623,28,Woman
4,574189,DepthScenes,duration_manipulation_targetAtFixation,jsons/v1_VE1000_randls_73_rotated.json,http://54.235.29.9/FacialAge/BNav_EC2/DepthDuration/v2_depth_duration_MTurk/v2_DepthDuration_HTML.html#262,262,1366,625,1366,768,8-30-2022,6-54-24,5,depth_duration_stimuli/002568_2014-06-24_13-59-21_094959634447_rgbf000062-resize_4/002568_2014-06-24_13-59-21_094959634447_rgbf000062-resize_4-target.png,1000,3.015,3,5019,999,feet,jsons/v1_VE1000_randls_73_rotated.json,862058,1201623,28,Woman
5,574189,DepthScenes,duration_manipulation_targetAtFixation,jsons/v1_VE1000_randls_73_rotated.json,http://54.235.29.9/FacialAge/BNav_EC2/DepthDuration/v2_depth_duration_MTurk/v2_DepthDuration_HTML.html#262,262,1366,625,1366,768,8-30-2022,6-54-24,6,depth_duration_stimuli/003492_2014-05-21_15-50-55_094959634447_rgbf000828-resize_1/003492_2014-05-21_15-50-55_094959634447_rgbf000828-resize_1-target.png,1000,4.06875,1,3947,999,feet,jsons/v1_VE1000_randls_73_rotated.json,862058,1201623,28,Woman
6,574189,DepthScenes,duration_manipulation_targetAtFixation,jsons/v1_VE1000_randls_73_rotated.json,http://54.235.29.9/FacialAge/BNav_EC2/DepthDuration/v2_depth_duration_MTurk/v2_DepthDuration_HTML.html#262,262,1366,625,1366,768,8-30-2022,6-54-24,7,depth_duration_stimuli/001132_2014-06-17_14-48-54_260595134347_rgbf000100-resize_2/001132_2014-06-17_14-48-54_260595134347_rgbf000100-resize_2-target.png,1000,3.753,5,4241,998,feet,jsons/v1_VE1000_randls_73_rotated.json,862058,1201623,28,Woman
7,574189,DepthScenes,duration_manipulation_targetAtFixation,jsons/v1_VE1000_randls_73_rotated.json,http://54.235.29.9/FacialAge/BNav_EC2/DepthDuration/v2_depth_duration_MTurk/v2_DepthDuration_HTML.html#262,262,1366,625,1366,768,8-30-2022,6-54-24,8,depth_duration_stimuli/001133_2014-06-17_14-49-16_260595134347_rgbf000100-resize_0/001133_2014-06-17_14-49-16_260595134347_rgbf000100-resize_0-target.png,1000,4.2115,1,4906,997,feet,jsons/v1_VE1000_randls_73_rotated.json,862058,1201623,28,Woman
8,574189,DepthScenes,duration_manipulation_targetAtFixation,jsons/v1_VE1000_randls_73_rotated.json,http://54.235.29.9/FacialAge/BNav_EC2/DepthDuration/v2_depth_duration_MTurk/v2_DepthDuration_HTML.html#262,262,1366,625,1366,768,8-30-2022,6-54-24,9,depth_duration_stimuli/000457_2014-06-08_16-52-43_260595134347_rgbf000199-resize_1/000457_2014-06-08_16-52-43_260595134347_rgbf000199-resize_1-target.png,1000,3.6489999999999996,3,4737,1001,feet,jsons/v1_VE1000_randls_73_rotated.json,862058,1201623,28,Woman
9,574189,DepthScenes,duration_manipulation_targetAtFixation,jsons/v1_VE1000_randls_73_rotated.json,http://54.235.29.9/FacialAge/BNav_EC2/DepthDuration/v2_depth_duration_MTurk/v2_DepthDuration_HTML.html#262,262,1366,625,1366,768,8-30-2022,6-54-24,10,depth_duration_stimuli/000929_2014-06-09_16-33-19_260595134347_rgbf000139-resize_0/000929_2014-06-09_16-33-19_260595134347_rgbf000139-resize_0-target.png,1000,2.8680000000000003,3,3461,999,feet,jsons/v1_VE1000_randls_73_rotated.json,862058,1201623,28,Woman
10,574189,DepthScenes,duration_manipulation_targetAtFixation,jsons/v1_VE1000_randls_73_rotated.json,http://54.235.29.9/FacialAge/BNav_EC2/DepthDuration/v2_depth_duration_MTurk/v2_DepthDuration_HTML.html#262,262,1366,625,1366,768,8-30-2022,6-54-24,11,depth_duration_stimuli/001516_2014-06-20_16-25-09_260595134347_rgbf000076-resize_2/001516_2014-06-20_16-25-09_260595134347_rgbf000076-resize_2-target.png,1000,1.7445,3,4261,999,feet,jsons/v1_VE1000_randls_73_rotated.json,862058,1201623,28,Woman
11,574189,DepthScenes,duration_manipulation_targetAtFixation,jsons/v1_VE1000_randls_73_rotated.json,http://54.235.29.9/FacialAge/BNav_EC2/DepthDuration/v2_depth_duration_MTurk/v2_DepthDuration_HTML.html#262,262,1366,625,1366,768,8-30-2022,6-54-24,12,depth_duration_stimuli/002118_2014-06-25_20-32-08_260595134347_rgbf000078-resize_1/002118_2014-06-25_20-32-08_260595134347_rgbf000078-resize_1-target.png,1000,2.6460000000000004,3,4218,1000,feet,jsons/v1_VE1000_randls_73_rotated.json,862058,1201623,28,Woman
12,574189,DepthScenes,duration_manipulation_targetAtFixation,jsons/v1_VE1000_randls_73_rotated.json,http://54.235.29.9/FacialAge/BNav_EC2/DepthDuration/v2_depth_duration_MTurk/v2_DepthDuration_HTML.html#262,262,1366,625,1366,768,8-30-2022,6-54-24,13,depth_duration_stimuli/002657_2014-06-13_15-29-54_094959634447_rgbf000150-resize_1/002657_2014-06-13_15-29-54_094959634447_rgbf000150-resize_1-target.png,1000,4.919,3,3458,998,feet,jsons/v1_VE1000_randls_73_rotated.json,862058,1201623,28,Woman
13,574189,DepthScenes,duration_manipulation_targetAtFixation,jsons/v1_VE1000_randls_73_rotated.json,http://54.235.29.9/FacialAge/BNav_EC2/DepthDuration/v2_depth_duration_MTurk/v2_DepthDuration_HTML.html#262,262,1366,625,1366,768,8-30-2022,6-54-24,14,depth_duration_stimuli/002375_2014-06-28_20-13-44_260595134347_rgbf000032-resize_1/002375_2014-06-28_20-13-44_260595134347_rgbf000032-resize_1-target.png,1000,4.0175,3,3508,997,feet,jsons/v1_VE1000_randls_73_rotated.json,862058,1201623,28,Woman
14,574189,DepthScenes,duration_manipulation_targetAtFixation,jsons/v1_VE1000_randls_73_rotated.json,http://54.235.29.9/FacialAge/BNav_EC2/DepthDuration/v2_depth_duration_MTurk/v2_DepthDuration_HTML.html#262,262,1366,625,1366,768,8-30-2022,6-54-24,15,depth_duration_stimuli/003490_2014-05-21_15-50-11_094959634447_rgbf000101-resize_3/003490_2014-05-21_15-50-11_094959634447_rgbf000101-resize_3-target.png,1000,3.6445,3,3819,998,feet,jsons/v1_VE1000_randls_73_rotated.json,862058,1201623,28,Woman
15,574189,DepthScenes,duration_manipulation_targetAtFixation,jsons/v1_VE1000_randls_73_rotated.json,http://54.235.29.9/FacialAge/BNav_EC2/DepthDuration/v2_depth_duration_MTurk/v2_DepthDuration_HTML.html#262,262,1366,625,1366,768,8-30-2022,6-54-24,16,depth_duration_stimuli/001175_2014-06-17_15-45-55_260595134347_rgbf000129-resize_4/001175_2014-06-17_15-45-55_260595134347_rgbf000129-resize_4-target.png,1000,4.255,3,3860,1000,feet,jsons/v1_VE1000_randls_73_rotated.json,862058,1201623,28,Woman
16,574189,DepthScenes,duration_manipulation_targetAtFixation,jsons/v1_VE1000_randls_73_rotated.json,http://54.235.29.9/FacialAge/BNav_EC2/DepthDuration/v2_depth_duration_MTurk/v2_DepthDuration_HTML.html#262,262,1366,625,1366,768,8-30-2022,6-54-24,17,depth_duration_stimuli/002199_2014-06-28_18-33-56_260595134347_rgbf000074-resize_0/002199_2014-06-28_18-33-56_260595134347_rgbf000074-resize_0-target.png,1000,1.996,1,3809,1187,feet,jsons/v1_VE1000_randls_73_rotated.json,862058,1201623,28,Woman
17,574189,DepthScenes,duration_manipulation_targetAtFixation,jsons/v1_VE1000_randls_73_rotated.json,http://54.235.29.9/FacialAge/BNav_EC2/DepthDuration/v2_depth_duration_MTurk/v2_DepthDuration_HTML.html#262,262,1366,625,1366,768,8-30-2022,6-54-24,18,depth_duration_stimuli/001056_2014-06-08_18-46-44_260595134347_rgbf000068-resize_0/001056_2014-06-08_18-46-44_260595134347_rgbf000068-resize_0-target.png,1000,2.6625,2,3899,998,feet,jsons/v1_VE1000_randls_73_rotated.json,862058,1201623,28,Woman
18,574189,DepthScenes,duration_manipulation_targetAtFixation,jsons/v1_VE1000_randls_73_rotated.json,http://54.235.29.9/FacialAge/BNav_EC2/DepthDuration/v2_depth_duration_MTurk/v2_DepthDuration_HTML.html#262,262,1366,625,1366,768,8-30-2022,6-54-24,19,depth_duration_stimuli/001498_2014-06-19_17-45-14_260595134347_rgbf000129-resize_4/001498_2014-06-19_17-45-14_260595134347_rgbf000129-resize-original.jpg,1000,1.4075,0,6024,1001,feet,jsons/v1_VE1000_randls_73_rotated.json,862058,1201623,28,Woman
19,574189,DepthScenes,duration_manipulation_targetAtFixation,jsons/v1_VE1000_randls_73_rotated.json,http://54.235.29.9/FacialAge/BNav_EC2/DepthDuration/v2_depth_duration_MTurk/v2_DepthDuration_HTML.html#262,262,1366,625,1366,768,8-30-2022,6-54-24,20,depth_duration_stimuli/003081_2014-06-15_15-19-16_094959634447_rgbf000150-resize_1/003081_2014-06-15_15-19-16_094959634447_rgbf000150-resize_1-target.png,1000,3.9125,2,4925,1001,feet,jsons/v1_VE1000_randls_73_rotated.json,862058,1201623,28,Woman
20,574189,DepthScenes,duration_manipulation_targetAtFixation,jsons/v1_VE1000_randls_73_rotated.json,http://54.235.29.9/FacialAge/BNav_EC2/DepthDuration/v2_depth_duration_MTurk/v2_DepthDuration_HTML.html#262,262,1366,625,1366,768,8-30-2022,6-54-24,21,depth_duration_stimuli/001417_2014-06-19_16-25-36_260595134347_rgbf000115-resize_5/001417_2014-06-19_16-25-36_260595134347_rgbf000115-resize_5-target.png,1000,4.6255,5,4146,997,feet,jsons/v1_VE1000_randls_73_rotated.json,862058,1201623,28,Woman
21,574189,DepthScenes,duration_manipulation_targetAtFixation,jsons/v1_VE1000_randls_73_rotated.json,http://54.235.29.9/FacialAge/BNav_EC2/DepthDuration/v2_depth_duration_MTurk/v2_DepthDuration_HTML.html#262,262,1366,625,1366,768,8-30-2022,6-54-24,22,depth_duration_stimuli/003587_2014-05-23_16-48-02_094959634447_rgbf002384-resize_2/003587_2014-05-23_16-48-02_094959634447_rgbf002384-resize_2-target.png,1000,1.357,3,4551,922,feet,jsons/v1_VE1000_randls_73_rotated.json,862058,1201623,28,Woman
22,574189,DepthScenes,duration_manipulation_targetAtFixation,jsons/v1_VE1000_randls_73_rotated.json,http://54.235.29.9/FacialAge/BNav_EC2/DepthDuration/v2_depth_duration_MTurk/v2_DepthDuration_HTML.html#262,262,1366,625,1366,768,8-30-2022,6-54-24,23,depth_duration_stimuli/001167_2014-06-17_15-38-07_260595134347_rgbf000108-resize_0/001167_2014-06-17_15-38-07_260595134347_rgbf000108-resize_0-target.png,1000,1.8505,2,3769,998,feet,jsons/v1_VE1000_randls_73_rotated.json,862058,1201623,28,Woman
23,574189,DepthScenes,duration_manipulation_targetAtFixation,jsons/v1_VE1000_randls_73_rotated.json,http://54.235.29.9/FacialAge/BNav_EC2/DepthDuration/v2_depth_duration_MTurk/v2_DepthDuration_HTML.html#262,262,1366,625,1366,768,8-30-2022,6-54-24,24,depth_duration_stimuli/002545_2014-06-24_13-38-53_094959634447_rgbf000080-resize_4/002545_2014-06-24_13-38-53_094959634447_rgbf000080-resize_4-target.png,1000,1.9205,4,3611,999,feet,jsons/v1_VE1000_randls_73_rotated.json,862058,1201623,28,Woman
24,574189,DepthScenes,duration_manipulation_targetAtFixation,jsons/v1_VE1000_randls_73_rotated.json,http://54.235.29.9/FacialAge/BNav_EC2/DepthDuration/v2_depth_duration_MTurk/v2_DepthDuration_HTML.html#262,262,1366,625,1366,768,8-30-2022,6-54-24,25,depth_duration_stimuli/001092_2014-06-15_17-34-58_260595134347_rgbf000171-resize_3/001092_2014-06-15_17-34-58_260595134347_rgbf000171-resize_3-target.png,1000,2.6935,4,3397,1000,feet,jsons/v1_VE1000_randls_73_rotated.json,862058,1201623,28,Woman
25,574189,DepthScenes,duration_manipulation_targetAtFixation,jsons/v1_VE1000_randls_73_rotated.json,http://54.235.29.9/FacialAge/BNav_EC2/DepthDuration/v2_depth_duration_MTurk/v2_DepthDuration_HTML.html#262,262,1366,625,1366,768,8-30-2022,6-54-24,26,depth_duration_stimuli/002949_2014-06-26_15-57-42_094959634447_rgbf000079-resize_1/002949_2014-06-26_15-57-42_094959634447_rgbf000079-resize_1-target.png,1000,1.8915,4,3977,998,feet,jsons/v1_VE1000_randls_73_rotated.json,862058,1201623,28,Woman
26,574189,DepthScenes,duration_manipulation_targetAtFixation,jsons/v1_VE1000_randls_73_rotated.json,http://54.235.29.9/FacialAge/BNav_EC2/DepthDuration/v2_depth_duration_MTurk/v2_DepthDuration_HTML.html#262,262,1366,625,1366,768,8-30-2022,6-54-24,27,depth_duration_stimuli/000522_2014-06-08_13-35-06_260595134347_rgbf000244-resize_1/000522_2014-06-08_13-35-06_260595134347_rgbf000244-resize_1-target.png,1000,2.3715,4,4105,998,feet,jsons/v1_VE1000_randls_73_rotated.json,862058,1201623,28,Woman
27,574189,DepthScenes,duration_manipulation_targetAtFixation,jsons/v1_VE1000_randls_73_rotated.json,http://54.235.29.9/FacialAge/BNav_EC2/DepthDuration/v2_depth_duration_MTurk/v2_DepthDuration_HTML.html#262,262,1366,625,1366,768,8-30-2022,6-54-24,28,depth_duration_stimuli/001235_2014-06-17_16-37-36_260595134347_rgbf000084-resize_4/001235_2014-06-17_16-37-36_260595134347_rgbf000084-resize_4-target.png,1000,3.6605,5,4932,1001,feet,jsons/v1_VE1000_randls_73_rotated.json,862058,1201623,28,Woman
28,574189,DepthScenes,duration_manipulation_targetAtFixation,jsons/v1_VE1000_randls_73_rotated.json,http://54.235.29.9/FacialAge/BNav_EC2/DepthDuration/v2_depth_duration_MTurk/v2_DepthDuration_HTML.html#262,262,1366,625,1366,768,8-30-2022,6-54-24,29,depth_duration_stimuli/000788_2014-06-08_22-34-36_260595134347_rgbf000131-resize_1/000788_2014-06-08_22-34-36_260595134347_rgbf000131-resize_1-target.png,1000,3.359,5,4288,999,feet,jsons/v1_VE1000_randls_73_rotated.json,862058,1201623,28,Woman
29,574189,DepthScenes,duration_manipulation_targetAtFixation,jsons/v1_VE1000_randls_73_rotated.json,http://54.235.29.9/FacialAge/BNav_EC2/DepthDuration/v2_depth_duration_MTurk/v2_DepthDuration_HTML.html#262,262,1366,625,1366,768,8-30-2022,6-54-24,30,depth_duration_stimuli/002072_2014-06-24_21-48-06_260595134347_rgbf000115-resize_0/002072_2014-06-24_21-48-06_260595134347_rgbf000115-resize-original.jpg,1000,4.702,0,6178,999,feet,jsons/v1_VE1000_randls_73_rotated.json,862058,1201623,28,Woman
30,574189,DepthScenes,duration_manipulation_targetAtFixation,jsons/v1_VE1000_randls_73_rotated.json,http://54.235.29.9/FacialAge/BNav_EC2/DepthDuration/v2_depth_duration_MTurk/v2_DepthDuration_HTML.html#262,262,1366,625,1366,768,8-30-2022,6-54-24,31,depth_duration_stimuli/001136_2014-06-17_15-19-41_260595134347_rgbf000076-resize_3/001136_2014-06-17_15-19-41_260595134347_rgbf000076-resize_3-target.png,1000,1.8655,1,5061,998,feet,jsons/v1_VE1000_randls_73_rotated.json,862058,1201623,28,Woman
31,574189,DepthScenes,duration_manipulation_targetAtFixation,jsons/v1_VE1000_randls_73_rotated.json,http://54.235.29.9/FacialAge/BNav_EC2/DepthDuration/v2_depth_duration_MTurk/v2_DepthDuration_HTML.html#262,262,1366,625,1366,768,8-30-2022,6-54-24,32,depth_duration_stimuli/001164_2014-06-17_15-35-46_260595134347_rgbf000085-resize_3/001164_2014-06-17_15-35-46_260595134347_rgbf000085-resize_3-target.png,1000,2.354,1,4131,1001,feet,jsons/v1_VE1000_randls_73_rotated.json,862058,1201623,28,Woman
32,574189,DepthScenes,duration_manipulation_targetAtFixation,jsons/v1_VE1000_randls_73_rotated.json,http://54.235.29.9/FacialAge/BNav_EC2/DepthDuration/v2_depth_duration_MTurk/v2_DepthDuration_HTML.html#262,262,1366,625,1366,768,8-30-2022,6-54-24,33,depth_duration_stimuli/003079_2014-06-15_15-18-20_094959634447_rgbf000152-resize_8/003079_2014-06-15_15-18-20_094959634447_rgbf000152-resize_8-target.png,1000,2.8775,2,4267,999,feet,jsons/v1_VE1000_randls_73_rotated.json,862058,1201623,28,Woman
33,574189,DepthScenes,duration_manipulation_targetAtFixation,jsons/v1_VE1000_randls_73_rotated.json,http://54.235.29.9/FacialAge/BNav_EC2/DepthDuration/v2_depth_duration_MTurk/v2_DepthDuration_HTML.html#262,262,1366,625,1366,768,8-30-2022,6-54-24,34,depth_duration_stimuli/000506_2014-06-08_23-21-00_260595134347_rgbf000070-resize_7/000506_2014-06-08_23-21-00_260595134347_rgbf000070-resize_7-target.png,1000,4.0585,3,3617,997,feet,jsons/v1_VE1000_randls_73_rotated.json,862058,1201623,28,Woman
34,574189,DepthScenes,duration_manipulation_targetAtFixation,jsons/v1_VE1000_randls_73_rotated.json,http://54.235.29.9/FacialAge/BNav_EC2/DepthDuration/v2_depth_duration_MTurk/v2_DepthDuration_HTML.html#262,262,1366,625,1366,768,8-30-2022,6-54-24,35,depth_duration_stimuli/003338_2014-05-20_11-01-23_094959634447_rgbf000051-resize_6/003338_2014-05-20_11-01-23_094959634447_rgbf000051-resize_6-target.png,1000,1.693,1,4571,1000,feet,jsons/v1_VE1000_randls_73_rotated.json,862058,1201623,28,Woman
35,574189,DepthScenes,duration_manipulation_targetAtFixation,jsons/v1_VE1000_randls_73_rotated.json,http://54.235.29.9/FacialAge/BNav_EC2/DepthDuration/v2_depth_duration_MTurk/v2_DepthDuration_HTML.html#262,262,1366,625,1366,768,8-30-2022,6-54-24,36,depth_duration_stimuli/002509_2014-06-24_13-19-22_094959634447_rgbf000077-resize_0/002509_2014-06-24_13-19-22_094959634447_rgbf000077-resize_0-target.png,1000,1.3065,2,3550,839,feet,jsons/v1_VE1000_randls_73_rotated.json,862058,1201623,28,Woman
36,574189,DepthScenes,duration_manipulation_targetAtFixation,jsons/v1_VE1000_randls_73_rotated.json,http://54.235.29.9/FacialAge/BNav_EC2/DepthDuration/v2_depth_duration_MTurk/v2_DepthDuration_HTML.html#262,262,1366,625,1366,768,8-30-2022,6-54-24,37,depth_duration_stimuli/001392_2014-06-19_16-07-59_260595134347_rgbf000046-resize_1/001392_2014-06-19_16-07-59_260595134347_rgbf000046-resize_1-target.png,1000,4.135,4,5461,1001,feet,jsons/v1_VE1000_randls_73_rotated.json,862058,1201623,28,Woman
37,574189,DepthScenes,duration_manipulation_targetAtFixation,jsons/v1_VE1000_randls_73_rotated.json,http://54.235.29.9/FacialAge/BNav_EC2/DepthDuration/v2_depth_duration_MTurk/v2_DepthDuration_HTML.html#262,262,1366,625,1366,768,8-30-2022,6-54-24,38,depth_duration_stimuli/001570_2014-06-20_17-21-09_260595134347_rgbf000135-resize_4/001570_2014-06-20_17-21-09_260595134347_rgbf000135-resize_4-target.png,1000,4.467,4,4614,997,feet,jsons/v1_VE1000_randls_73_rotated.json,862058,1201623,28,Woman
38,574189,DepthScenes,duration_manipulation_targetAtFixation,jsons/v1_VE1000_randls_73_rotated.json,http://54.235.29.9/FacialAge/BNav_EC2/DepthDuration/v2_depth_duration_MTurk/v2_DepthDuration_HTML.html#262,262,1366,625,1366,768,8-30-2022,6-54-24,39,depth_duration_stimuli/003423_2014-05-21_10-23-26_094959634447_rgbf002665-resize_2/003423_2014-05-21_10-23-26_094959634447_rgbf002665-resize_2-target.png,1000,3.2575,6,3818,998,feet,jsons/v1_VE1000_randls_73_rotated.json,862058,1201623,28,Woman
39,574189,DepthScenes,duration_manipulation_targetAtFixation,jsons/v1_VE1000_randls_73_rotated.json,http://54.235.29.9/FacialAge/BNav_EC2/DepthDuration/v2_depth_duration_MTurk/v2_DepthDuration_HTML.html#262,262,1366,625,1366,768,8-30-2022,6-54-24,40,depth_duration_stimuli/002905_2014-06-03_18-04-43_094959634447_rgbf000151-resize_2/002905_2014-06-03_18-04-43_094959634447_rgbf000151-resize_2-target.png,1000,2.0295,2,3840,999,feet,jsons/v1_VE1000_randls_73_rotated.json,862058,1201623,28,Woman
40,574189,DepthScenes,duration_manipulation_targetAtFixation,jsons/v1_VE1000_randls_73_rotated.json,http://54.235.29.9/FacialAge/BNav_EC2/DepthDuration/v2_depth_duration_MTurk/v2_DepthDuration_HTML.html#262,262,1366,625,1366,768,8-30-2022,6-54-24,41,depth_duration_stimuli/000109_2014-05-14_23-41-52_260595134347_rgbf000035-resize_9/000109_2014-05-14_23-41-52_260595134347_rgbf000035-resize_9-target.png,1000,1.3545,2,3837,998,feet,jsons/v1_VE1000_randls_73_rotated.json,862058,1201623,28,Woman
41,574189,DepthScenes,duration_manipulation_targetAtFixation,jsons/v1_VE1000_randls_73_rotated.json,http://54.235.29.9/FacialAge/BNav_EC2/DepthDuration/v2_depth_duration_MTurk/v2_DepthDuration_HTML.html#262,262,1366,625,1366,768,8-30-2022,6-54-24,42,depth_duration_stimuli/000470_2014-06-09_19-42-40_260595134347_rgbf000094-resize_1/000470_2014-06-09_19-42-40_260595134347_rgbf000094-resize_1-target.png,1000,1.831,2,3468,857,feet,jsons/v1_VE1000_randls_73_rotated.json,862058,1201623,28,Woman
42,574189,DepthScenes,duration_manipulation_targetAtFixation,jsons/v1_VE1000_randls_73_rotated.json,http://54.235.29.9/FacialAge/BNav_EC2/DepthDuration/v2_depth_duration_MTurk/v2_DepthDuration_HTML.html#262,262,1366,625,1366,768,8-30-2022,6-54-24,43,depth_duration_stimuli/000734_2014-06-08_17-39-11_260595134347_rgbf000128-resize_2/000734_2014-06-08_17-39-11_260595134347_rgbf000128-resize_2-target.png,1000,4.098,3,4389,999,feet,jsons/v1_VE1000_randls_73_rotated.json,862058,1201623,28,Woman
43,574189,DepthScenes,duration_manipulation_targetAtFixation,jsons/v1_VE1000_randls_73_rotated.json,http://54.235.29.9/FacialAge/BNav_EC2/DepthDuration/v2_depth_duration_MTurk/v2_DepthDuration_HTML.html#262,262,1366,625,1366,768,8-30-2022,6-54-24,44,depth_duration_stimuli/000739_2014-06-08_18-45-58_260595134347_rgbf000068-resize_1/000739_2014-06-08_18-45-58_260595134347_rgbf000068-resize_1-target.png,1000,3.534,3,4218,998,feet,jsons/v1_VE1000_randls_73_rotated.json,862058,1201623,28,Woman
44,574189,DepthScenes,duration_manipulation_targetAtFixation,jsons/v1_VE1000_randls_73_rotated.json,http://54.235.29.9/FacialAge/BNav_EC2/DepthDuration/v2_depth_duration_MTurk/v2_DepthDuration_HTML.html#262,262,1366,625,1366,768,8-30-2022,6-54-24,45,depth_duration_stimuli/003010_2014-06-15_12-54-35_094959634447_rgbf000112-resize_0/003010_2014-06-15_12-54-35_094959634447_rgbf000112-resize_0-target.png,1000,3.1185,3,4630,1037,feet,jsons/v1_VE1000_randls_73_rotated.json,862058,1201623,28,Woman
45,574189,DepthScenes,duration_manipulation_targetAtFixation,jsons/v1_VE1000_randls_73_rotated.json,http://54.235.29.9/FacialAge/BNav_EC2/DepthDuration/v2_depth_duration_MTurk/v2_DepthDuration_HTML.html#262,262,1366,625,1366,768,8-30-2022,6-54-24,46,depth_duration_stimuli/001810_2014-06-26_20-51-35_260595134347_rgbf000040-resize_3/001810_2014-06-26_20-51-35_260595134347_rgbf000040-resize_3-target.png,1000,2.2525,2,3895,999,feet,jsons/v1_VE1000_randls_73_rotated.json,862058,1201623,28,Woman
46,574189,DepthScenes,duration_manipulation_targetAtFixation,jsons/v1_VE1000_randls_73_rotated.json,http://54.235.29.9/FacialAge/BNav_EC2/DepthDuration/v2_depth_duration_MTurk/v2_DepthDuration_HTML.html#262,262,1366,625,1366,768,8-30-2022,6-54-24,47,depth_duration_stimuli/000866_2014-06-09_20-45-42_260595134347_rgbf000139-resize_1/000866_2014-06-09_20-45-42_260595134347_rgbf000139-resize_1-target.png,1000,3.2155,4,4372,997,feet,jsons/v1_VE1000_randls_73_rotated.json,862058,1201623,28,Woman
47,574189,DepthScenes,duration_manipulation_targetAtFixation,jsons/v1_VE1000_randls_73_rotated.json,http://54.235.29.9/FacialAge/BNav_EC2/DepthDuration/v2_depth_duration_MTurk/v2_DepthDuration_HTML.html#262,262,1366,625,1366,768,8-30-2022,6-54-24,48,depth_duration_stimuli/002989_2014-06-15_12-25-03_094959634447_rgbf000150-resize_3/002989_2014-06-15_12-25-03_094959634447_rgbf000150-resize_3-target.png,1000,4.1975,4,3780,999,feet,jsons/v1_VE1000_randls_73_rotated.json,862058,1201623,28,Woman
48,574189,DepthScenes,duration_manipulation_targetAtFixation,jsons/v1_VE1000_randls_73_rotated.json,http://54.235.29.9/FacialAge/BNav_EC2/DepthDuration/v2_depth_duration_MTurk/v2_DepthDuration_HTML.html#262,262,1366,625,1366,768,8-30-2022,6-54-24,49,depth_duration_stimuli/001170_2014-06-17_15-43-44_260595134347_rgbf000096-resize_6/001170_2014-06-17_15-43-44_260595134347_rgbf000096-resize-original.jpg,1000,1.1909999999999998,4,4060,999,feet,jsons/v1_VE1000_randls_73_rotated.json,862058,1201623,28,Woman
49,574189,DepthScenes,duration_manipulation_targetAtFixation,jsons/v1_VE1000_randls_73_rotated.json,http://54.235.29.9/FacialAge/BNav_EC2/DepthDuration/v2_depth_duration_MTurk/v2_DepthDuration_HTML.html#262,262,1366,625,1366,768,8-30-2022,6-54-24,50,depth_duration_stimuli/001571_2014-06-20_17-21-32_260595134347_rgbf000089-resize_1/001571_2014-06-20_17-21-32_260595134347_rgbf000089-resize_1-target.png,1000,1.86,2,4180,1030,feet,jsons/v1_VE1000_randls_73_rotated.json,862058,1201623,28,Woman
50,574189,DepthScenes,duration_manipulation_targetAtFixation,jsons/v1_VE1000_randls_73_rotated.json,http://54.235.29.9/FacialAge/BNav_EC2/DepthDuration/v2_depth_duration_MTurk/v2_DepthDuration_HTML.html#262,262,1366,625,1366,768,8-30-2022,6-54-24,51,depth_duration_stimuli/002272_2014-06-28_18-53-56_260595134347_rgbf000067-resize_2/002272_2014-06-28_18-53-56_260595134347_rgbf000067-resize_2-target.png,1000,1.138,2,3645,1112,feet,jsons/v1_VE1000_randls_73_rotated.json,862058,1201623,28,Woman
51,574189,DepthScenes,duration_manipulation_targetAtFixation,jsons/v1_VE1000_randls_73_rotated.json,http://54.235.29.9/FacialAge/BNav_EC2/DepthDuration/v2_depth_duration_MTurk/v2_DepthDuration_HTML.html#262,262,1366,625,1366,768,8-30-2022,6-54-24,52,depth_duration_stimuli/002637_2014-06-24_14-51-13_094959634447_rgbf000066-resize_4/002637_2014-06-24_14-51-13_094959634447_rgbf000066-resize_4-target.png,1000,1.9955,4,4181,1000,feet,jsons/v1_VE1000_randls_73_rotated.json,862058,1201623,28,Woman
52,574189,DepthScenes,duration_manipulation_targetAtFixation,jsons/v1_VE1000_randls_73_rotated.json,http://54.235.29.9/FacialAge/BNav_EC2/DepthDuration/v2_depth_duration_MTurk/v2_DepthDuration_HTML.html#262,262,1366,625,1366,768,8-30-2022,6-54-24,53,depth_duration_stimuli/003534_2014-05-22_15-06-10_094959634447_rgbf000102-resize_4/003534_2014-05-22_15-06-10_094959634447_rgbf000102-resize_4-target.png,1000,1.426,2,3712,998,feet,jsons/v1_VE1000_randls_73_rotated.json,862058,1201623,28,Woman
53,574189,DepthScenes,duration_manipulation_targetAtFixation,jsons/v1_VE1000_randls_73_rotated.json,http://54.235.29.9/FacialAge/BNav_EC2/DepthDuration/v2_depth_duration_MTurk/v2_DepthDuration_HTML.html#262,262,1366,625,1366,768,8-30-2022,6-54-24,54,depth_duration_stimuli/002425_2014-06-28_20-27-29_260595134347_rgbf000031-resize_8/002425_2014-06-28_20-27-29_260595134347_rgbf000031-resize_8-target.png,1000,3.8960000000000004,2,4690,998,feet,jsons/v1_VE1000_randls_73_rotated.json,862058,1201623,28,Woman
54,574189,DepthScenes,duration_manipulation_targetAtFixation,jsons/v1_VE1000_randls_73_rotated.json,http://54.235.29.9/FacialAge/BNav_EC2/DepthDuration/v2_depth_duration_MTurk/v2_DepthDuration_HTML.html#262,262,1366,625,1366,768,8-30-2022,6-54-24,55,depth_duration_stimuli/000642_2014-06-08_16-59-25_260595134347_rgbf000098-resize_2/000642_2014-06-08_16-59-25_260595134347_rgbf000098-resize_2-target.png,1000,2.8815,4,4443,998,feet,jsons/v1_VE1000_randls_73_rotated.json,862058,1201623,28,Woman
55,574189,DepthScenes,duration_manipulation_targetAtFixation,jsons/v1_VE1000_randls_73_rotated.json,http://54.235.29.9/FacialAge/BNav_EC2/DepthDuration/v2_depth_duration_MTurk/v2_DepthDuration_HTML.html#262,262,1366,625,1366,768,8-30-2022,6-54-24,56,depth_duration_stimuli/001052_2014-06-08_18-24-54_260595134347_rgbf000130-resize_1/001052_2014-06-08_18-24-54_260595134347_rgbf000130-resize_1-target.png,1000,4.1045,4,3902,999,feet,jsons/v1_VE1000_randls_73_rotated.json,862058,1201623,28,Woman
56,574189,DepthScenes,duration_manipulation_targetAtFixation,jsons/v1_VE1000_randls_73_rotated.json,http://54.235.29.9/FacialAge/BNav_EC2/DepthDuration/v2_depth_duration_MTurk/v2_DepthDuration_HTML.html#262,262,1366,625,1366,768,8-30-2022,6-54-24,57,depth_duration_stimuli/002988_2014-06-15_12-24-20_094959634447_rgbf000150-resize_1/002988_2014-06-15_12-24-20_094959634447_rgbf000150-resize_1-target.png,1000,4.7669999999999995,2,3911,1000,feet,jsons/v1_VE1000_randls_73_rotated.json,862058,1201623,28,Woman
57,574189,DepthScenes,duration_manipulation_targetAtFixation,jsons/v1_VE1000_randls_73_rotated.json,http://54.235.29.9/FacialAge/BNav_EC2/DepthDuration/v2_depth_duration_MTurk/v2_DepthDuration_HTML.html#262,262,1366,625,1366,768,8-30-2022,6-54-24,58,depth_duration_stimuli/003495_2014-05-21_16-01-51_094959634447_rgbf000100-resize_3/003495_2014-05-21_16-01-51_094959634447_rgbf000100-resize_3-target.png,1000,1.6255,2,4691,1001,feet,jsons/v1_VE1000_randls_73_rotated.json,862058,1201623,28,Woman
58,574189,DepthScenes,duration_manipulation_targetAtFixation,jsons/v1_VE1000_randls_73_rotated.json,http://54.235.29.9/FacialAge/BNav_EC2/DepthDuration/v2_depth_duration_MTurk/v2_DepthDuration_HTML.html#262,262,1366,625,1366,768,8-30-2022,6-54-24,59,depth_duration_stimuli/001244_2014-06-17_16-47-45_260595134347_rgbf000030-resize_4/001244_2014-06-17_16-47-45_260595134347_rgbf000030-resize_4-target.png,1000,2.0425,2,4534,998,feet,jsons/v1_VE1000_randls_73_rotated.json,862058,1201623,28,Woman
59,574189,DepthScenes,duration_manipulation_targetAtFixation,jsons/v1_VE1000_randls_73_rotated.json,http://54.235.29.9/FacialAge/BNav_EC2/DepthDuration/v2_depth_duration_MTurk/v2_DepthDuration_HTML.html#262,262,1366,625,1366,768,8-30-2022,6-54-24,60,depth_duration_stimuli/003048_2014-06-15_13-49-43_094959634447_rgbf000150-resize_1/003048_2014-06-15_13-49-43_094959634447_rgbf000150-resize_1-target.png,1000,4.0035,2,3419,998,feet,jsons/v1_VE1000_randls_73_rotated.json,862058,1201623,28,Woman
60,574189,DepthScenes,duration_manipulation_targetAtFixation,jsons/v1_VE1000_randls_73_rotated.json,http://54.235.29.9/FacialAge/BNav_EC2/DepthDuration/v2_depth_duration_MTurk/v2_DepthDuration_HTML.html#262,262,1366,625,1366,768,8-30-2022,6-54-24,61,depth_duration_stimuli/002043_2014-06-24_20-29-38_260595134347_rgbf000039-resize_4/002043_2014-06-24_20-29-38_260595134347_rgbf000039-resize_4-target.png,1000,2.8435,5,3610,997,feet,jsons/v1_VE1000_randls_73_rotated.json,862058,1201623,28,Woman
61,574189,DepthScenes,duration_manipulation_targetAtFixation,jsons/v1_VE1000_randls_73_rotated.json,http://54.235.29.9/FacialAge/BNav_EC2/DepthDuration/v2_depth_duration_MTurk/v2_DepthDuration_HTML.html#262,262,1366,625,1366,768,8-30-2022,6-54-24,62,depth_duration_stimuli/001094_2014-06-15_17-36-00_260595134347_rgbf000205-resize_0/001094_2014-06-15_17-36-00_260595134347_rgbf000205-resize_0-target.png,1000,4.2175,5,7467,998,feet,jsons/v1_VE1000_randls_73_rotated.json,862058,1201623,28,Woman
62,574189,DepthScenes,duration_manipulation_targetAtFixation,jsons/v1_VE1000_randls_73_rotated.json,http://54.235.29.9/FacialAge/BNav_EC2/DepthDuration/v2_depth_duration_MTurk/v2_DepthDuration_HTML.html#262,262,1366,625,1366,768,8-30-2022,6-54-24,63,depth_duration_stimuli/000692_2014-06-08_13-09-42_260595134347_rgbf000199-resize_2/000692_2014-06-08_13-09-42_260595134347_rgbf000199-resize_2-target.png,1000,3.661,3,5029,1000,feet,jsons/v1_VE1000_randls_73_rotated.json,862058,1201623,28,Woman
63,574189,DepthScenes,duration_manipulation_targetAtFixation,jsons/v1_VE1000_randls_73_rotated.json,http://54.235.29.9/FacialAge/BNav_EC2/DepthDuration/v2_depth_duration_MTurk/v2_DepthDuration_HTML.html#262,262,1366,625,1366,768,8-30-2022,6-54-24,64,depth_duration_stimuli/000780_2014-06-08_22-28-29_260595134347_rgbf000126-resize_1/000780_2014-06-08_22-28-29_260595134347_rgbf000126-resize_1-target.png,1000,3.3825,5,5093,997,feet,jsons/v1_VE1000_randls_73_rotated.json,862058,1201623,28,Woman
64,574189,DepthScenes,duration_manipulation_targetAtFixation,jsons/v1_VE1000_randls_73_rotated.json,http://54.235.29.9/FacialAge/BNav_EC2/DepthDuration/v2_depth_duration_MTurk/v2_DepthDuration_HTML.html#262,262,1366,625,1366,768,8-30-2022,6-54-24,65,depth_duration_stimuli/002445_2014-06-28_20-32-16_260595134347_rgbf000029-resize_4/002445_2014-06-28_20-32-16_260595134347_rgbf000029-resize_4-target.png,1000,2.5315,5,4102,999,feet,jsons/v1_VE1000_randls_73_rotated.json,862058,1201623,28,Woman
65,574189,DepthScenes,duration_manipulation_targetAtFixation,jsons/v1_VE1000_randls_73_rotated.json,http://54.235.29.9/FacialAge/BNav_EC2/DepthDuration/v2_depth_duration_MTurk/v2_DepthDuration_HTML.html#262,262,1366,625,1366,768,8-30-2022,6-54-24,66,depth_duration_stimuli/001540_2014-06-20_17-01-05_260595134347_rgbf000086-resize_2/001540_2014-06-20_17-01-05_260595134347_rgbf000086-resize-original.jpg,1000,1.459,0,5537,1000,feet,jsons/v1_VE1000_randls_73_rotated.json,862058,1201623,28,Woman
66,574189,DepthScenes,duration_manipulation_targetAtFixation,jsons/v1_VE1000_randls_73_rotated.json,http://54.235.29.9/FacialAge/BNav_EC2/DepthDuration/v2_depth_duration_MTurk/v2_DepthDuration_HTML.html#262,262,1366,625,1366,768,8-30-2022,6-54-24,67,depth_duration_stimuli/002995_2014-06-15_12-31-26_094959634447_rgbf000150-resize_1/002995_2014-06-15_12-31-26_094959634447_rgbf000150-resize_1-target.png,1000,3.8360000000000003,5,4414,999,feet,jsons/v1_VE1000_randls_73_rotated.json,862058,1201623,28,Woman
67,574189,DepthScenes,duration_manipulation_targetAtFixation,jsons/v1_VE1000_randls_73_rotated.json,http://54.235.29.9/FacialAge/BNav_EC2/DepthDuration/v2_depth_duration_MTurk/v2_DepthDuration_HTML.html#262,262,1366,625,1366,768,8-30-2022,6-54-24,68,depth_duration_stimuli/002748_2014-06-22_19-07-22_094959634447_rgbf000078-resize_1/002748_2014-06-22_19-07-22_094959634447_rgbf000078-resize_1-target.png,1000,4.6705,5,4224,1000,feet,jsons/v1_VE1000_randls_73_rotated.json,862058,1201623,28,Woman
68,574189,DepthScenes,duration_manipulation_targetAtFixation,jsons/v1_VE1000_randls_73_rotated.json,http://54.235.29.9/FacialAge/BNav_EC2/DepthDuration/v2_depth_duration_MTurk/v2_DepthDuration_HTML.html#262,262,1366,625,1366,768,8-30-2022,6-54-24,69,depth_duration_stimuli/001032_2014-06-08_13-23-17_260595134347_rgbf000021-resize_3/001032_2014-06-08_13-23-17_260595134347_rgbf000021-resize_3-target.png,1000,3.2725,5,4362,1000,feet,jsons/v1_VE1000_randls_73_rotated.json,862058,1201623,28,Woman
69,574189,DepthScenes,duration_manipulation_targetAtFixation,jsons/v1_VE1000_randls_73_rotated.json,http://54.235.29.9/FacialAge/BNav_EC2/DepthDuration/v2_depth_duration_MTurk/v2_DepthDuration_HTML.html#262,262,1366,625,1366,768,8-30-2022,6-54-24,70,depth_duration_stimuli/001059_2014-06-08_21-53-27_260595134347_rgbf000061-resize_4/001059_2014-06-08_21-53-27_260595134347_rgbf000061-resize_4-target.png,1000,2.4185,5,3948,999,feet,jsons/v1_VE1000_randls_73_rotated.json,862058,1201623,28,Woman
70,574189,DepthScenes,duration_manipulation_targetAtFixation,jsons/v1_VE1000_randls_73_rotated.json,http://54.235.29.9/FacialAge/BNav_EC2/DepthDuration/v2_depth_duration_MTurk/v2_DepthDuration_HTML.html#262,262,1366,625,1366,768,8-30-2022,6-54-24,71,depth_duration_stimuli/000943_2014-06-09_19-31-07_260595134347_rgbf000128-resize_1/000943_2014-06-09_19-31-07_260595134347_rgbf000128-resize_1-target.png,1000,1.9765,5,4027,999,feet,jsons/v1_VE1000_randls_73_rotated.json,862058,1201623,28,Woman
71,574189,DepthScenes,duration_manipulation_targetAtFixation,jsons/v1_VE1000_randls_73_rotated.json,http://54.235.29.9/FacialAge/BNav_EC2/DepthDuration/v2_depth_duration_MTurk/v2_DepthDuration_HTML.html#262,262,1366,625,1366,768,8-30-2022,6-54-24,72,depth_duration_stimuli/003070_2014-06-15_14-58-27_094959634447_rgbf000150-resize_3/003070_2014-06-15_14-58-27_094959634447_rgbf000150-resize_3-target.png,1000,2.9415,5,3690,1000,feet,jsons/v1_VE1000_randls_73_rotated.json,862058,1201623,28,Woman
72,574189,DepthScenes,duration_manipulation_targetAtFixation,jsons/v1_VE1000_randls_73_rotated.json,http://54.235.29.9/FacialAge/BNav_EC2/DepthDuration/v2_depth_duration_MTurk/v2_DepthDuration_HTML.html#262,262,1366,625,1366,768,8-30-2022,6-54-24,73,depth_duration_stimuli/000927_2014-06-09_16-32-30_260595134347_rgbf000123-resize_3/000927_2014-06-09_16-32-30_260595134347_rgbf000123-resize_3-target.png,1000,2.6785,5,4539,997,feet,jsons/v1_VE1000_randls_73_rotated.json,862058,1201623,28,Woman
73,574189,DepthScenes,duration_manipulation_targetAtFixation,jsons/v1_VE1000_randls_73_rotated.json,http://54.235.29.9/FacialAge/BNav_EC2/DepthDuration/v2_depth_duration_MTurk/v2_DepthDuration_HTML.html#262,262,1366,625,1366,768,8-30-2022,6-54-24,74,depth_duration_stimuli/001110_2014-06-15_17-25-28_260595134347_rgbf000150-resize_1/001110_2014-06-15_17-25-28_260595134347_rgbf000150-resize_1-target.png,1000,1.7115,2,9470,999,feet,jsons/v1_VE1000_randls_73_rotated.json,862058,1201623,28,Woman
74,574189,DepthScenes,duration_manipulation_targetAtFixation,jsons/v1_VE1000_randls_73_rotated.json,http://54.235.29.9/FacialAge/BNav_EC2/DepthDuration/v2_depth_duration_MTurk/v2_DepthDuration_HTML.html#262,262,1366,625,1366,768,8-30-2022,6-54-24,75,depth_duration_stimuli/003083_2014-06-15_15-21-03_094959634447_rgbf000063-resize_1/003083_2014-06-15_15-21-03_094959634447_rgbf000063-resize_1-target.png,1000,4.1405,6,9319,999,feet,jsons/v1_VE1000_randls_73_rotated.json,862058,1201623,28,Woman
75,574189,DepthScenes,duration_manipulation_targetAtFixation,jsons/v1_VE1000_randls_73_rotated.json,http://54.235.29.9/FacialAge/BNav_EC2/DepthDuration/v2_depth_duration_MTurk/v2_DepthDuration_HTML.html#262,262,1366,625,1366,768,8-30-2022,6-54-24,76,depth_duration_stimuli/000486_2014-06-09_20-47-20_260595134347_rgbf000143-resize_2/000486_2014-06-09_20-47-20_260595134347_rgbf000143-resize_2-target.png,1000,4.8325,2,5235,994,feet,jsons/v1_VE1000_randls_73_rotated.json,862058,1201623,28,Woman
76,574189,DepthScenes,duration_manipulation_targetAtFixation,jsons/v1_VE1000_randls_73_rotated.json,http://54.235.29.9/FacialAge/BNav_EC2/DepthDuration/v2_depth_duration_MTurk/v2_DepthDuration_HTML.html#262,262,1366,625,1366,768,8-30-2022,6-54-24,77,depth_duration_stimuli/002209_2014-06-28_18-36-10_260595134347_rgbf000051-resize_1/002209_2014-06-28_18-36-10_260595134347_rgbf000051-resize_1-target.png,1000,2.057,3,5170,996,feet,jsons/v1_VE1000_randls_73_rotated.json,862058,1201623,28,Woman
77,574189,DepthScenes,duration_manipulation_targetAtFixation,jsons/v1_VE1000_randls_73_rotated.json,http://54.235.29.9/FacialAge/BNav_EC2/DepthDuration/v2_depth_duration_MTurk/v2_DepthDuration_HTML.html#262,262,1366,625,1366,768,8-30-2022,6-54-24,78,depth_duration_stimuli/002763_2014-06-22_19-13-10_094959634447_rgbf000075-resize_4/002763_2014-06-22_19-13-10_094959634447_rgbf000075-resize_4-target.png,1000,1.68375,3,4902,997,feet,jsons/v1_VE1000_randls_73_rotated.json,862058,1201623,28,Woman
78,574189,DepthScenes,duration_manipulation_targetAtFixation,jsons/v1_VE1000_randls_73_rotated.json,http://54.235.29.9/FacialAge/BNav_EC2/DepthDuration/v2_depth_duration_MTurk/v2_DepthDuration_HTML.html#262,262,1366,625,1366,768,8-30-2022,6-54-24,79,depth_duration_stimuli/000691_2014-06-08_13-08-50_260595134347_rgbf000132-resize_3/000691_2014-06-08_13-08-50_260595134347_rgbf000132-resize_3-target.png,1000,4.1530000000000005,4,4360,999,feet,jsons/v1_VE1000_randls_73_rotated.json,862058,1201623,28,Woman
79,574189,DepthScenes,duration_manipulation_targetAtFixation,jsons/v1_VE1000_randls_73_rotated.json,http://54.235.29.9/FacialAge/BNav_EC2/DepthDuration/v2_depth_duration_MTurk/v2_DepthDuration_HTML.html#262,262,1366,625,1366,768,8-30-2022,6-54-24,80,depth_duration_stimuli/002213_2014-06-28_18-37-58_260595134347_rgbf000055-resize_1/002213_2014-06-28_18-37-58_260595134347_rgbf000055-resize_1-target.png,1000,3.62,4,3707,1000,feet,jsons/v1_VE1000_randls_73_rotated.json,862058,1201623,28,Woman
80,574189,DepthScenes,duration_manipulation_targetAtFixation,jsons/v1_VE1000_randls_73_rotated.json,http://54.235.29.9/FacialAge/BNav_EC2/DepthDuration/v2_depth_duration_MTurk/v2_DepthDuration_HTML.html#262,262,1366,625,1366,768,8-30-2022,6-54-24,81,depth_duration_stimuli/003228_2014-05-14_13-42-35_094959634447_rgbf000101-resize_1/003228_2014-05-14_13-42-35_094959634447_rgbf000101-resize_1-target.png,1000,1.9680000000000002,4,5137,1006,feet,jsons/v1_VE1000_randls_73_rotated.json,862058,1201623,28,Woman
81,574189,DepthScenes,duration_manipulation_targetAtFixation,jsons/v1_VE1000_randls_73_rotated.json,http://54.235.29.9/FacialAge/BNav_EC2/DepthDuration/v2_depth_duration_MTurk/v2_DepthDuration_HTML.html#262,262,1366,625,1366,768,8-30-2022,6-54-24,82,depth_duration_stimuli/002600_2014-06-24_14-27-04_094959634447_rgbf000074-resize_2/002600_2014-06-24_14-27-04_094959634447_rgbf000074-resize_2-target.png,1000,2.7575,4,3615,998,feet,jsons/v1_VE1000_randls_73_rotated.json,862058,1201623,28,Woman
82,574189,DepthScenes,duration_manipulation_targetAtFixation,jsons/v1_VE1000_randls_73_rotated.json,http://54.235.29.9/FacialAge/BNav_EC2/DepthDuration/v2_depth_duration_MTurk/v2_DepthDuration_HTML.html#262,262,1366,625,1366,768,8-30-2022,6-54-24,83,depth_duration_stimuli/000709_2014-06-08_13-51-55_260595134347_rgbf000068-resize_3/000709_2014-06-08_13-51-55_260595134347_rgbf000068-resize_3-target.png,1000,1.8030000000000002,2,4820,998,feet,jsons/v1_VE1000_randls_73_rotated.json,862058,1201623,28,Woman
83,574189,DepthScenes,duration_manipulation_targetAtFixation,jsons/v1_VE1000_randls_73_rotated.json,http://54.235.29.9/FacialAge/BNav_EC2/DepthDuration/v2_depth_duration_MTurk/v2_DepthDuration_HTML.html#262,262,1366,625,1366,768,8-30-2022,6-54-24,84,depth_duration_stimuli/002057_2014-06-24_21-00-13_260595134347_rgbf000120-resize_1/002057_2014-06-24_21-00-13_260595134347_rgbf000120-resize_1-target.png,1000,2.967,5,4419,999,feet,jsons/v1_VE1000_randls_73_rotated.json,862058,1201623,28,Woman
84,574189,DepthScenes,duration_manipulation_targetAtFixation,jsons/v1_VE1000_randls_73_rotated.json,http://54.235.29.9/FacialAge/BNav_EC2/DepthDuration/v2_depth_duration_MTurk/v2_DepthDuration_HTML.html#262,262,1366,625,1366,768,8-30-2022,6-54-24,85,depth_duration_stimuli/002414_2014-06-28_20-24-58_260595134347_rgbf000067-resize_4/002414_2014-06-28_20-24-58_260595134347_rgbf000067-resize_4-target.png,1000,4.363,4,4852,998,feet,jsons/v1_VE1000_randls_73_rotated.json,862058,1201623,28,Woman
85,574189,DepthScenes,duration_manipulation_targetAtFixation,jsons/v1_VE1000_randls_73_rotated.json,http://54.235.29.9/FacialAge/BNav_EC2/DepthDuration/v2_depth_duration_MTurk/v2_DepthDuration_HTML.html#262,262,1366,625,1366,768,8-30-2022,6-54-24,86,depth_duration_stimuli/000773_2014-06-08_22-24-54_260595134347_rgbf000093-resize_1/000773_2014-06-08_22-24-54_260595134347_rgbf000093-resize_1-target.png,1000,4.973,4,4050,999,feet,jsons/v1_VE1000_randls_73_rotated.json,862058,1201623,28,Woman
86,574189,DepthScenes,duration_manipulation_targetAtFixation,jsons/v1_VE1000_randls_73_rotated.json,http://54.235.29.9/FacialAge/BNav_EC2/DepthDuration/v2_depth_duration_MTurk/v2_DepthDuration_HTML.html#262,262,1366,625,1366,768,8-30-2022,6-54-24,87,depth_duration_stimuli/003129_2014-05-12_10-48-10_094959634447_rgbf000100-resize_0/003129_2014-05-12_10-48-10_094959634447_rgbf000100-resize_0-target.png,1000,4.9305,4,5473,1000,feet,jsons/v1_VE1000_randls_73_rotated.json,862058,1201623,28,Woman
87,574189,DepthScenes,duration_manipulation_targetAtFixation,jsons/v1_VE1000_randls_73_rotated.json,http://54.235.29.9/FacialAge/BNav_EC2/DepthDuration/v2_depth_duration_MTurk/v2_DepthDuration_HTML.html#262,262,1366,625,1366,768,8-30-2022,6-54-24,88,depth_duration_stimuli/000414_2014-06-04_19-49-13_260595134347_rgbf000044-resize_0/000414_2014-06-04_19-49-13_260595134347_rgbf000044-resize_0-target.png,1000,4.329,4,3375,999,feet,jsons/v1_VE1000_randls_73_rotated.json,862058,1201623,28,Woman
88,574189,DepthScenes,duration_manipulation_targetAtFixation,jsons/v1_VE1000_randls_73_rotated.json,http://54.235.29.9/FacialAge/BNav_EC2/DepthDuration/v2_depth_duration_MTurk/v2_DepthDuration_HTML.html#262,262,1366,625,1366,768,8-30-2022,6-54-24,89,depth_duration_stimuli/000665_2014-06-09_20-42-35_260595134347_rgbf000110-resize_1/000665_2014-06-09_20-42-35_260595134347_rgbf000110-resize_1-target.png,1000,3.057,4,4011,999,feet,jsons/v1_VE1000_randls_73_rotated.json,862058,1201623,28,Woman
89,574189,DepthScenes,duration_manipulation_targetAtFixation,jsons/v1_VE1000_randls_73_rotated.json,http://54.235.29.9/FacialAge/BNav_EC2/DepthDuration/v2_depth_duration_MTurk/v2_DepthDuration_HTML.html#262,262,1366,625,1366,768,8-30-2022,6-54-24,90,depth_duration_stimuli/001150_2014-06-17_15-27-34_260595134347_rgbf000108-resize_2/001150_2014-06-17_15-27-34_260595134347_rgbf000108-resize_2-target.png,1000,4.0325,3,3545,997,feet,jsons/v1_VE1000_randls_73_rotated.json,862058,1201623,28,Woman
90,574189,DepthScenes,duration_manipulation_targetAtFixation,jsons/v1_VE1000_randls_73_rotated.json,http://54.235.29.9/FacialAge/BNav_EC2/DepthDuration/v2_depth_duration_MTurk/v2_DepthDuration_HTML.html#262,262,1366,625,1366,768,8-30-2022,6-54-24,91,depth_duration_stimuli/002136_2014-06-25_21-18-03_260595134347_rgbf000109-resize_3/002136_2014-06-25_21-18-03_260595134347_rgbf000109-resize_3-target.png,1000,1.9569999999999999,3,5019,1003,feet,jsons/v1_VE1000_randls_73_rotated.json,862058,1201623,28,Woman
91,574189,DepthScenes,duration_manipulation_targetAtFixation,jsons/v1_VE1000_randls_73_rotated.json,http://54.235.29.9/FacialAge/BNav_EC2/DepthDuration/v2_depth_duration_MTurk/v2_DepthDuration_HTML.html#262,262,1366,625,1366,768,8-30-2022,6-54-24,92,depth_duration_stimuli/002964_2014-06-08_17-46-11_094959634447_rgbf000091-resize_4/002964_2014-06-08_17-46-11_094959634447_rgbf000091-resize_4-target.png,1000,1.6909999999999998,2,4361,1010,feet,jsons/v1_VE1000_randls_73_rotated.json,862058,1201623,28,Woman
92,574189,DepthScenes,duration_manipulation_targetAtFixation,jsons/v1_VE1000_randls_73_rotated.json,http://54.235.29.9/FacialAge/BNav_EC2/DepthDuration/v2_depth_duration_MTurk/v2_DepthDuration_HTML.html#262,262,1366,625,1366,768,8-30-2022,6-54-24,93,depth_duration_stimuli/000483_2014-06-09_20-41-45_260595134347_rgbf000116-resize_4/000483_2014-06-09_20-41-45_260595134347_rgbf000116-resize_4-target.png,1000,1.337,1,4021,1001,feet,jsons/v1_VE1000_randls_73_rotated.json,862058,1201623,28,Woman
93,574189,DepthScenes,duration_manipulation_targetAtFixation,jsons/v1_VE1000_randls_73_rotated.json,http://54.235.29.9/FacialAge/BNav_EC2/DepthDuration/v2_depth_duration_MTurk/v2_DepthDuration_HTML.html#262,262,1366,625,1366,768,8-30-2022,6-54-24,94,depth_duration_stimuli/000469_2014-06-09_19-42-10_260595134347_rgbf000081-resize_1/000469_2014-06-09_19-42-10_260595134347_rgbf000081-resize_1-target.png,1000,1.652,2,6077,998,feet,jsons/v1_VE1000_randls_73_rotated.json,862058,1201623,28,Woman
94,574189,DepthScenes,duration_manipulation_targetAtFixation,jsons/v1_VE1000_randls_73_rotated.json,http://54.235.29.9/FacialAge/BNav_EC2/DepthDuration/v2_depth_duration_MTurk/v2_DepthDuration_HTML.html#262,262,1366,625,1366,768,8-30-2022,6-54-24,95,depth_duration_stimuli/000502_2014-06-08_23-02-32_260595134347_rgbf000063-resize_4/000502_2014-06-08_23-02-32_260595134347_rgbf000063-resize_4-target.png,1000,2.431,4,5281,1000,feet,jsons/v1_VE1000_randls_73_rotated.json,862058,1201623,28,Woman
95,574189,DepthScenes,duration_manipulation_targetAtFixation,jsons/v1_VE1000_randls_73_rotated.json,http://54.235.29.9/FacialAge/BNav_EC2/DepthDuration/v2_depth_duration_MTurk/v2_DepthDuration_HTML.html#262,262,1366,625,1366,768,8-30-2022,6-54-24,96,depth_duration_stimuli/001199_2014-06-17_16-03-48_260595134347_rgbf000077-resize_0/001199_2014-06-17_16-03-48_260595134347_rgbf000077-resize_0-target.png,1000,3.4375,6,4897,999,feet,jsons/v1_VE1000_randls_73_rotated.json,862058,1201623,28,Woman
96,574189,DepthScenes,duration_manipulation_targetAtFixation,jsons/v1_VE1000_randls_73_rotated.json,http://54.235.29.9/FacialAge/BNav_EC2/DepthDuration/v2_depth_duration_MTurk/v2_DepthDuration_HTML.html#262,262,1366,625,1366,768,8-30-2022,6-54-24,97,depth_duration_stimuli/001450_2014-06-19_17-02-03_260595134347_rgbf000203-resize_4/001450_2014-06-19_17-02-03_260595134347_rgbf000203-resize_4-target.png,1000,4.0106666666667,4,4306,999,feet,jsons/v1_VE1000_randls_73_rotated.json,862058,1201623,28,Woman
97,574189,DepthScenes,duration_manipulation_targetAtFixation,jsons/v1_VE1000_randls_73_rotated.json,http://54.235.29.9/FacialAge/BNav_EC2/DepthDuration/v2_depth_duration_MTurk/v2_DepthDuration_HTML.html#262,262,1366,625,1366,768,8-30-2022,6-54-24,98,depth_duration_stimuli/001449_2014-06-19_17-01-27_260595134347_rgbf000116-resize_2/001449_2014-06-19_17-01-27_260595134347_rgbf000116-resize_2-target.png,1000,3.452,5,3827,1000,feet,jsons/v1_VE1000_randls_73_rotated.json,862058,1201623,28,Woman
98,574189,DepthScenes,duration_manipulation_targetAtFixation,jsons/v1_VE1000_randls_73_rotated.json,http://54.235.29.9/FacialAge/BNav_EC2/DepthDuration/v2_depth_duration_MTurk/v2_DepthDuration_HTML.html#262,262,1366,625,1366,768,8-30-2022,6-54-24,99,depth_duration_stimuli/001222_2014-06-17_16-24-06_260595134347_rgbf000073-resize_0/001222_2014-06-17_16-24-06_260595134347_rgbf000073-resize-original.jpg,1000,1.4385,0,5024,998,feet,jsons/v1_VE1000_randls_73_rotated.json,862058,1201623,28,Woman
99,574189,DepthScenes,duration_manipulation_targetAtFixation,jsons/v1_VE1000_randls_73_rotated.json,http://54.235.29.9/FacialAge/BNav_EC2/DepthDuration/v2_depth_duration_MTurk/v2_DepthDuration_HTML.html#262,262,1366,625,1366,768,8-30-2022,6-54-24,100,depth_duration_stimuli/002103_2014-06-25_20-00-40_260595134347_rgbf000049-resize_0/002103_2014-06-25_20-00-40_260595134347_rgbf000049-resize_0-target.png,1000,4.105,4,5256,1000,feet,jsons/v1_VE1000_randls_73_rotated.json,862058,1201623,28,Woman
100,574189,DepthScenes,duration_manipulation_targetAtFixation,jsons/v1_VE1000_randls_73_rotated.json,http://54.235.29.9/FacialAge/BNav_EC2/DepthDuration/v2_depth_duration_MTurk/v2_DepthDuration_HTML.html#262,262,1366,625,1366,768,8-30-2022,6-54-24,101,depth_duration_stimuli/002039_2014-06-24_20-22-38_260595134347_rgbf000084-resize_1/002039_2014-06-24_20-22-38_260595134347_rgbf000084-resize_1-target.png,1000,4.408,5,4178,996,feet,jsons/v1_VE1000_randls_73_rotated.json,862058,1201623,28,Woman
101,574189,DepthScenes,duration_manipulation_targetAtFixation,jsons/v1_VE1000_randls_73_rotated.json,http://54.235.29.9/FacialAge/BNav_EC2/DepthDuration/v2_depth_duration_MTurk/v2_DepthDuration_HTML.html#262,262,1366,625,1366,768,8-30-2022,6-54-24,102,depth_duration_stimuli/000556_2014-06-09_22-42-56_260595134347_rgbf000214-resize_1/000556_2014-06-09_22-42-56_260595134347_rgbf000214-resize_1-target.png,1000,4.8415,4,4377,997,feet,jsons/v1_VE1000_randls_73_rotated.json,862058,1201623,28,Woman
102,574189,DepthScenes,duration_manipulation_targetAtFixation,jsons/v1_VE1000_randls_73_rotated.json,http://54.235.29.9/FacialAge/BNav_EC2/DepthDuration/v2_depth_duration_MTurk/v2_DepthDuration_HTML.html#262,262,1366,625,1366,768,8-30-2022,6-54-24,103,depth_duration_stimuli/001158_2014-06-17_15-32-16_260595134347_rgbf000138-resize_2/001158_2014-06-17_15-32-16_260595134347_rgbf000138-resize_2-target.png,1000,4.5315,6,3609,1042,feet,jsons/v1_VE1000_randls_73_rotated.json,862058,1201623,28,Woman
103,574189,DepthScenes,duration_manipulation_targetAtFixation,jsons/v1_VE1000_randls_73_rotated.json,http://54.235.29.9/FacialAge/BNav_EC2/DepthDuration/v2_depth_duration_MTurk/v2_DepthDuration_HTML.html#262,262,1366,625,1366,768,8-30-2022,6-54-24,104,depth_duration_stimuli/001617_2014-06-20_11-35-32_260595134347_rgbf000066-resize_1/001617_2014-06-20_11-35-32_260595134347_rgbf000066-resize_1-target.png,1000,3.7910000000000004,6,15150,999,feet,jsons/v1_VE1000_randls_73_rotated.json,862058,1201623,28,Woman
104,574189,DepthScenes,duration_manipulation_targetAtFixation,jsons/v1_VE1000_randls_73_rotated.json,http://54.235.29.9/FacialAge/BNav_EC2/DepthDuration/v2_depth_duration_MTurk/v2_DepthDuration_HTML.html#262,262,1366,625,1366,768,8-30-2022,6-54-24,105,depth_duration_stimuli/001806_2014-06-26_20-50-20_260595134347_rgbf000091-resize_1/001806_2014-06-26_20-50-20_260595134347_rgbf000091-resize_1-target.png,1000,2.7305,4,6207,998,feet,jsons/v1_VE1000_randls_73_rotated.json,862058,1201623,28,Woman
105,574189,DepthScenes,duration_manipulation_targetAtFixation,jsons/v1_VE1000_randls_73_rotated.json,http://54.235.29.9/FacialAge/BNav_EC2/DepthDuration/v2_depth_duration_MTurk/v2_DepthDuration_HTML.html#262,262,1366,625,1366,768,8-30-2022,6-54-24,106,depth_duration_stimuli/001815_2014-06-26_20-52-55_260595134347_rgbf000020-resize_0/001815_2014-06-26_20-52-55_260595134347_rgbf000020-resize_0-target.png,1000,3.3865,3,5375,998,feet,jsons/v1_VE1000_randls_73_rotated.json,862058,1201623,28,Woman
106,574189,DepthScenes,duration_manipulation_targetAtFixation,jsons/v1_VE1000_randls_73_rotated.json,http://54.235.29.9/FacialAge/BNav_EC2/DepthDuration/v2_depth_duration_MTurk/v2_DepthDuration_HTML.html#262,262,1366,625,1366,768,8-30-2022,6-54-24,107,depth_duration_stimuli/001808_2014-06-26_20-50-58_260595134347_rgbf000029-resize_1/001808_2014-06-26_20-50-58_260595134347_rgbf000029-resize_1-target.png,1000,4.249,4,3792,998,feet,jsons/v1_VE1000_randls_73_rotated.json,862058,1201623,28,Woman
107,574189,DepthScenes,duration_manipulation_targetAtFixation,jsons/v1_VE1000_randls_73_rotated.json,http://54.235.29.9/FacialAge/BNav_EC2/DepthDuration/v2_depth_duration_MTurk/v2_DepthDuration_HTML.html#262,262,1366,625,1366,768,8-30-2022,6-54-24,108,depth_duration_stimuli/000677_2014-06-08_23-10-32_260595134347_rgbf000158-resize_6/000677_2014-06-08_23-10-32_260595134347_rgbf000158-resize_6-target.png,1000,3.556,5,4366,1000,feet,jsons/v1_VE1000_randls_73_rotated.json,862058,1201623,28,Woman
108,574189,DepthScenes,duration_manipulation_targetAtFixation,jsons/v1_VE1000_randls_73_rotated.json,http://54.235.29.9/FacialAge/BNav_EC2/DepthDuration/v2_depth_duration_MTurk/v2_DepthDuration_HTML.html#262,262,1366,625,1366,768,8-30-2022,6-54-24,109,depth_duration_stimuli/001029_2014-06-08_13-17-57_260595134347_rgbf000065-resize_1/001029_2014-06-08_13-17-57_260595134347_rgbf000065-resize_1-target.png,1000,3.0835,5,3499,1000,feet,jsons/v1_VE1000_randls_73_rotated.json,862058,1201623,28,Woman
109,574189,DepthScenes,duration_manipulation_targetAtFixation,jsons/v1_VE1000_randls_73_rotated.json,http://54.235.29.9/FacialAge/BNav_EC2/DepthDuration/v2_depth_duration_MTurk/v2_DepthDuration_HTML.html#262,262,1366,625,1366,768,8-30-2022,6-54-24,110,depth_duration_stimuli/002467_2014-06-28_20-38-07_260595134347_rgbf000026-resize_2/002467_2014-06-28_20-38-07_260595134347_rgbf000026-resize_2-target.png,1000,4.742,5,5491,999,feet,jsons/v1_VE1000_randls_73_rotated.json,862058,1201623,28,Woman
110,574189,DepthScenes,duration_manipulation_targetAtFixation,jsons/v1_VE1000_randls_73_rotated.json,http://54.235.29.9/FacialAge/BNav_EC2/DepthDuration/v2_depth_duration_MTurk/v2_DepthDuration_HTML.html#262,262,1366,625,1366,768,8-30-2022,6-54-24,111,depth_duration_stimuli/002570_2014-06-24_13-59-54_094959634447_rgbf000059-resize_0/002570_2014-06-24_13-59-54_094959634447_rgbf000059-resize_0-target.png,1000,4.037,5,4314,999,feet,jsons/v1_VE1000_randls_73_rotated.json,862058,1201623,28,Woman
111,574189,DepthScenes,duration_manipulation_targetAtFixation,jsons/v1_VE1000_randls_73_rotated.json,http://54.235.29.9/FacialAge/BNav_EC2/DepthDuration/v2_depth_duration_MTurk/v2_DepthDuration_HTML.html#262,262,1366,625,1366,768,8-30-2022,6-54-24,112,depth_duration_stimuli/002750_2014-06-22_19-08-03_094959634447_rgbf000094-resize_4/002750_2014-06-22_19-08-03_094959634447_rgbf000094-resize_4-target.png,1000,2.354,5,6329,999,feet,jsons/v1_VE1000_randls_73_rotated.json,862058,1201623,28,Woman
112,574189,DepthScenes,duration_manipulation_targetAtFixation,jsons/v1_VE1000_randls_73_rotated.json,http://54.235.29.9/FacialAge/BNav_EC2/DepthDuration/v2_depth_duration_MTurk/v2_DepthDuration_HTML.html#262,262,1366,625,1366,768,8-30-2022,6-54-24,113,depth_duration_stimuli/002549_2014-06-24_13-41-39_094959634447_rgbf000022-resize_3/002549_2014-06-24_13-41-39_094959634447_rgbf000022-resize_3-target.png,1000,1.476,5,4590,998,feet,jsons/v1_VE1000_randls_73_rotated.json,862058,1201623,28,Woman
113,574189,DepthScenes,duration_manipulation_targetAtFixation,jsons/v1_VE1000_randls_73_rotated.json,http://54.235.29.9/FacialAge/BNav_EC2/DepthDuration/v2_depth_duration_MTurk/v2_DepthDuration_HTML.html#262,262,1366,625,1366,768,8-30-2022,6-54-24,114,depth_duration_stimuli/001584_2014-06-20_11-07-43_260595134347_rgbf000002-resize_1/001584_2014-06-20_11-07-43_260595134347_rgbf000002-resize_1-target.png,1000,3.53,3,5077,998,feet,jsons/v1_VE1000_randls_73_rotated.json,862058,1201623,28,Woman
114,574189,DepthScenes,duration_manipulation_targetAtFixation,jsons/v1_VE1000_randls_73_rotated.json,http://54.235.29.9/FacialAge/BNav_EC2/DepthDuration/v2_depth_duration_MTurk/v2_DepthDuration_HTML.html#262,262,1366,625,1366,768,8-30-2022,6-54-24,115,depth_duration_stimuli/003621_2014-05-23_18-06-08_094959634447_rgbf000101-resize_1/003621_2014-05-23_18-06-08_094959634447_rgbf000101-resize_1-target.png,1000,3.9835,4,3820,999,feet,jsons/v1_VE1000_randls_73_rotated.json,862058,1201623,28,Woman
115,574189,DepthScenes,duration_manipulation_targetAtFixation,jsons/v1_VE1000_randls_73_rotated.json,http://54.235.29.9/FacialAge/BNav_EC2/DepthDuration/v2_depth_duration_MTurk/v2_DepthDuration_HTML.html#262,262,1366,625,1366,768,8-30-2022,6-54-24,116,depth_duration_stimuli/002340_2014-06-28_20-05-46_260595134347_rgbf000113-resize_0/002340_2014-06-28_20-05-46_260595134347_rgbf000113-resize_0-target.png,1000,2.4735,4,5620,1000,feet,jsons/v1_VE1000_randls_73_rotated.json,862058,1201623,28,Woman
116,574189,DepthScenes,duration_manipulation_targetAtFixation,jsons/v1_VE1000_randls_73_rotated.json,http://54.235.29.9/FacialAge/BNav_EC2/DepthDuration/v2_depth_duration_MTurk/v2_DepthDuration_HTML.html#262,262,1366,625,1366,768,8-30-2022,6-54-24,117,depth_duration_stimuli/001016_2014-06-09_16-16-10_260595134347_rgbf000112-resize_5/001016_2014-06-09_16-16-10_260595134347_rgbf000112-resize_5-target.png,1000,1.6565,3,4394,999,feet,jsons/v1_VE1000_randls_73_rotated.json,862058,1201623,28,Woman
117,574189,DepthScenes,duration_manipulation_targetAtFixation,jsons/v1_VE1000_randls_73_rotated.json,http://54.235.29.9/FacialAge/BNav_EC2/DepthDuration/v2_depth_duration_MTurk/v2_DepthDuration_HTML.html#262,262,1366,625,1366,768,8-30-2022,6-54-24,118,depth_duration_stimuli/001100_2014-06-15_17-46-26_260595134347_rgbf000225-resize_2/001100_2014-06-15_17-46-26_260595134347_rgbf000225-resize_2-target.png,1000,2.24,1,5301,1000,feet,jsons/v1_VE1000_randls_73_rotated.json,862058,1201623,28,Woman
118,574189,DepthScenes,duration_manipulation_targetAtFixation,jsons/v1_VE1000_randls_73_rotated.json,http://54.235.29.9/FacialAge/BNav_EC2/DepthDuration/v2_depth_duration_MTurk/v2_DepthDuration_HTML.html#262,262,1366,625,1366,768,8-30-2022,6-54-24,119,depth_duration_stimuli/002784_2014-06-22_19-26-30_094959634447_rgbf000083-resize_3/002784_2014-06-22_19-26-30_094959634447_rgbf000083-resize_3-target.png,1000,1.8046666666667,2,4093,999,feet,jsons/v1_VE1000_randls_73_rotated.json,862058,1201623,28,Woman
119,574189,DepthScenes,duration_manipulation_targetAtFixation,jsons/v1_VE1000_randls_73_rotated.json,http://54.235.29.9/FacialAge/BNav_EC2/DepthDuration/v2_depth_duration_MTurk/v2_DepthDuration_HTML.html#262,262,1366,625,1366,768,8-30-2022,6-54-24,120,depth_duration_stimuli/000787_2014-06-08_22-33-53_260595134347_rgbf000175-resize_1/000787_2014-06-08_22-33-53_260595134347_rgbf000175-resize-original.jpg,1000,4.784,0,4805,998,feet,jsons/v1_VE1000_randls_73_rotated.json,862058,1201623,28,Woman
120,574189,DepthScenes,duration_manipulation_targetAtFixation,jsons/v1_VE1000_randls_73_rotated.json,http://54.235.29.9/FacialAge/BNav_EC2/DepthDuration/v2_depth_duration_MTurk/v2_DepthDuration_HTML.html#262,262,1366,625,1366,768,8-30-2022,6-54-24,121,depth_duration_stimuli/002344_2014-06-28_20-06-29_260595134347_rgbf000030-resize_1/002344_2014-06-28_20-06-29_260595134347_rgbf000030-resize_1-target.png,1000,1.5795,1,6084,1000,feet,jsons/v1_VE1000_randls_73_rotated.json,862058,1201623,28,Woman
121,574189,DepthScenes,duration_manipulation_targetAtFixation,jsons/v1_VE1000_randls_73_rotated.json,http://54.235.29.9/FacialAge/BNav_EC2/DepthDuration/v2_depth_duration_MTurk/v2_DepthDuration_HTML.html#262,262,1366,625,1366,768,8-30-2022,6-54-24,122,depth_duration_stimuli/002725_2014-06-22_11-47-51_094959634447_rgbf000070-resize_1/002725_2014-06-22_11-47-51_094959634447_rgbf000070-resize_1-target.png,1000,2.195,3,4459,999,feet,jsons/v1_VE1000_randls_73_rotated.json,862058,1201623,28,Woman
122,574189,DepthScenes,duration_manipulation_targetAtFixation,jsons/v1_VE1000_randls_73_rotated.json,http://54.235.29.9/FacialAge/BNav_EC2/DepthDuration/v2_depth_duration_MTurk/v2_DepthDuration_HTML.html#262,262,1366,625,1366,768,8-30-2022,6-54-24,123,depth_duration_stimuli/000549_2014-06-08_22-10-24_260595134347_rgbf000247-resize_3/000549_2014-06-08_22-10-24_260595134347_rgbf000247-resize_3-target.png,1000,1.841,3,4427,990,feet,jsons/v1_VE1000_randls_73_rotated.json,862058,1201623,28,Woman
123,574189,DepthScenes,duration_manipulation_targetAtFixation,jsons/v1_VE1000_randls_73_rotated.json,http://54.235.29.9/FacialAge/BNav_EC2/DepthDuration/v2_depth_duration_MTurk/v2_DepthDuration_HTML.html#262,262,1366,625,1366,768,8-30-2022,6-54-24,124,depth_duration_stimuli/001055_2014-06-08_18-45-35_260595134347_rgbf000111-resize_4/001055_2014-06-08_18-45-35_260595134347_rgbf000111-resize_4-target.png,1000,2.4290000000000003,0,4612,999,feet,jsons/v1_VE1000_randls_73_rotated.json,862058,1201623,28,Woman
124,574189,DepthScenes,duration_manipulation_targetAtFixation,jsons/v1_VE1000_randls_73_rotated.json,http://54.235.29.9/FacialAge/BNav_EC2/DepthDuration/v2_depth_duration_MTurk/v2_DepthDuration_HTML.html#262,262,1366,625,1366,768,8-30-2022,6-54-24,125,depth_duration_stimuli/002660_2014-06-13_15-44-18_094959634447_rgbf001878-resize_2/002660_2014-06-13_15-44-18_094959634447_rgbf001878-resize_2-target.png,1000,3.576,7,5081,941,feet,jsons/v1_VE1000_randls_73_rotated.json,862058,1201623,28,Woman
125,574189,DepthScenes,duration_manipulation_targetAtFixation,jsons/v1_VE1000_randls_73_rotated.json,http://54.235.29.9/FacialAge/BNav_EC2/DepthDuration/v2_depth_duration_MTurk/v2_DepthDuration_HTML.html#262,262,1366,625,1366,768,8-30-2022,6-54-24,126,depth_duration_stimuli/002153_2014-06-25_21-27-18_260595134347_rgbf000038-resize_5/002153_2014-06-25_21-27-18_260595134347_rgbf000038-resize_5-target.png,1000,2.505,4,8128,998,feet,jsons/v1_VE1000_randls_73_rotated.json,862058,1201623,28,Woman
126,574189,DepthScenes,duration_manipulation_targetAtFixation,jsons/v1_VE1000_randls_73_rotated.json,http://54.235.29.9/FacialAge/BNav_EC2/DepthDuration/v2_depth_duration_MTurk/v2_DepthDuration_HTML.html#262,262,1366,625,1366,768,8-30-2022,6-54-24,127,depth_duration_stimuli/000854_2014-06-09_19-43-13_260595134347_rgbf000066-resize_0/000854_2014-06-09_19-43-13_260595134347_rgbf000066-resize_0-target.png,1000,3.068,3,5748,998,feet,jsons/v1_VE1000_randls_73_rotated.json,862058,1201623,28,Woman
127,574189,DepthScenes,duration_manipulation_targetAtFixation,jsons/v1_VE1000_randls_73_rotated.json,http://54.235.29.9/FacialAge/BNav_EC2/DepthDuration/v2_depth_duration_MTurk/v2_DepthDuration_HTML.html#262,262,1366,625,1366,768,8-30-2022,6-54-24,128,depth_duration_stimuli/000758_2014-06-08_22-05-08_260595134347_rgbf000085-resize_0/000758_2014-06-08_22-05-08_260595134347_rgbf000085-resize_0-target.png,1000,3.3810000000000002,3,4527,997,feet,jsons/v1_VE1000_randls_73_rotated.json,862058,1201623,28,Woman
128,574189,DepthScenes,duration_manipulation_targetAtFixation,jsons/v1_VE1000_randls_73_rotated.json,http://54.235.29.9/FacialAge/BNav_EC2/DepthDuration/v2_depth_duration_MTurk/v2_DepthDuration_HTML.html#262,262,1366,625,1366,768,8-30-2022,6-54-24,129,depth_duration_stimuli/002953_2014-06-08_17-32-18_094959634447_rgbf000059-resize_5/002953_2014-06-08_17-32-18_094959634447_rgbf000059-resize_5-target.png,1000,1.551,4,6187,998,feet,jsons/v1_VE1000_randls_73_rotated.json,862058,1201623,28,Woman
129,574189,DepthScenes,duration_manipulation_targetAtFixation,jsons/v1_VE1000_randls_73_rotated.json,http://54.235.29.9/FacialAge/BNav_EC2/DepthDuration/v2_depth_duration_MTurk/v2_DepthDuration_HTML.html#262,262,1366,625,1366,768,8-30-2022,6-54-24,130,depth_duration_stimuli/000878_2014-06-08_22-52-45_260595134347_rgbf000045-resize_2/000878_2014-06-08_22-52-45_260595134347_rgbf000045-resize_2-target.png,1000,2.092,5,4366,998,feet,jsons/v1_VE1000_randls_73_rotated.json,862058,1201623,28,Woman
130,574189,DepthScenes,duration_manipulation_targetAtFixation,jsons/v1_VE1000_randls_73_rotated.json,http://54.235.29.9/FacialAge/BNav_EC2/DepthDuration/v2_depth_duration_MTurk/v2_DepthDuration_HTML.html#262,262,1366,625,1366,768,8-30-2022,6-54-24,131,depth_duration_stimuli/002323_2014-06-28_20-01-54_260595134347_rgbf000051-resize_4/002323_2014-06-28_20-01-54_260595134347_rgbf000051-resize_4-target.png,1000,3.7310000000000003,5,4471,998,feet,jsons/v1_VE1000_randls_73_rotated.json,862058,1201623,28,Woman
131,574189,DepthScenes,duration_manipulation_targetAtFixation,jsons/v1_VE1000_randls_73_rotated.json,http://54.235.29.9/FacialAge/BNav_EC2/DepthDuration/v2_depth_duration_MTurk/v2_DepthDuration_HTML.html#262,262,1366,625,1366,768,8-30-2022,6-54-24,132,depth_duration_stimuli/000917_2014-06-09_22-45-29_260595134347_rgbf000149-resize_3/000917_2014-06-09_22-45-29_260595134347_rgbf000149-resize_3-target.png,1000,4.1865,5,4466,1018,feet,jsons/v1_VE1000_randls_73_rotated.json,862058,1201623,28,Woman
132,574189,DepthScenes,duration_manipulation_targetAtFixation,jsons/v1_VE1000_randls_73_rotated.json,http://54.235.29.9/FacialAge/BNav_EC2/DepthDuration/v2_depth_duration_MTurk/v2_DepthDuration_HTML.html#262,262,1366,625,1366,768,8-30-2022,6-54-24,133,depth_duration_stimuli/000191_2014-05-12_17-07-38_260595134347_rgbf000199-resize_0/000191_2014-05-12_17-07-38_260595134347_rgbf000199-resize_0-target.png,1000,3.7995,5,5087,998,feet,jsons/v1_VE1000_randls_73_rotated.json,862058,1201623,28,Woman
133,574189,DepthScenes,duration_manipulation_targetAtFixation,jsons/v1_VE1000_randls_73_rotated.json,http://54.235.29.9/FacialAge/BNav_EC2/DepthDuration/v2_depth_duration_MTurk/v2_DepthDuration_HTML.html#262,262,1366,625,1366,768,8-30-2022,6-54-24,134,depth_duration_stimuli/000493_2014-06-09_21-01-18_260595134347_rgbf000196-resize_3/000493_2014-06-09_21-01-18_260595134347_rgbf000196-resize_3-target.png,1000,3.44,5,5016,999,feet,jsons/v1_VE1000_randls_73_rotated.json,862058,1201623,28,Woman
134,574189,DepthScenes,duration_manipulation_targetAtFixation,jsons/v1_VE1000_randls_73_rotated.json,http://54.235.29.9/FacialAge/BNav_EC2/DepthDuration/v2_depth_duration_MTurk/v2_DepthDuration_HTML.html#262,262,1366,625,1366,768,8-30-2022,6-54-24,135,depth_duration_stimuli/000375_2014-06-08_11-17-29_260595134347_rgbf000133-resize_2/000375_2014-06-08_11-17-29_260595134347_rgbf000133-resize-original.jpg,1000,4.718,0,7057,998,feet,jsons/v1_VE1000_randls_73_rotated.json,862058,1201623,28,Woman
135,574189,DepthScenes,duration_manipulation_targetAtFixation,jsons/v1_VE1000_randls_73_rotated.json,http://54.235.29.9/FacialAge/BNav_EC2/DepthDuration/v2_depth_duration_MTurk/v2_DepthDuration_HTML.html#262,262,1366,625,1366,768,8-30-2022,6-54-24,136,depth_duration_stimuli/002444_2014-06-28_20-32-08_260595134347_rgbf000027-resize_0/002444_2014-06-28_20-32-08_260595134347_rgbf000027-resize_0-target.png,1000,4.388999999999999,6,7016,1000,feet,jsons/v1_VE1000_randls_73_rotated.json,862058,1201623,28,Woman
136,574189,DepthScenes,duration_manipulation_targetAtFixation,jsons/v1_VE1000_randls_73_rotated.json,http://54.235.29.9/FacialAge/BNav_EC2/DepthDuration/v2_depth_duration_MTurk/v2_DepthDuration_HTML.html#262,262,1366,625,1366,768,8-30-2022,6-54-24,137,depth_duration_stimuli/000436_2014-06-09_22-25-11_260595134347_rgbf000137-resize_1/000436_2014-06-09_22-25-11_260595134347_rgbf000137-resize_1-target.png,1000,4.0705,6,3910,998,feet,jsons/v1_VE1000_randls_73_rotated.json,862058,1201623,28,Woman
137,574189,DepthScenes,duration_manipulation_targetAtFixation,jsons/v1_VE1000_randls_73_rotated.json,http://54.235.29.9/FacialAge/BNav_EC2/DepthDuration/v2_depth_duration_MTurk/v2_DepthDuration_HTML.html#262,262,1366,625,1366,768,8-30-2022,6-54-24,138,depth_duration_stimuli/002805_2014-06-22_19-54-03_094959634447_rgbf000079-resize_1/002805_2014-06-22_19-54-03_094959634447_rgbf000079-resize_1-target.png,1000,3.1439999999999997,6,4962,1014,feet,jsons/v1_VE1000_randls_73_rotated.json,862058,1201623,28,Woman
138,574189,DepthScenes,duration_manipulation_targetAtFixation,jsons/v1_VE1000_randls_73_rotated.json,http://54.235.29.9/FacialAge/BNav_EC2/DepthDuration/v2_depth_duration_MTurk/v2_DepthDuration_HTML.html#262,262,1366,625,1366,768,8-30-2022,6-54-24,139,depth_duration_stimuli/000906_2014-06-08_13-35-43_260595134347_rgbf000155-resize_1/000906_2014-06-08_13-35-43_260595134347_rgbf000155-resize_1-target.png,1000,2.8489999999999998,5,4896,999,feet,jsons/v1_VE1000_randls_73_rotated.json,862058,1201623,28,Woman
139,574189,DepthScenes,duration_manipulation_targetAtFixation,jsons/v1_VE1000_randls_73_rotated.json,http://54.235.29.9/FacialAge/BNav_EC2/DepthDuration/v2_depth_duration_MTurk/v2_DepthDuration_HTML.html#262,262,1366,625,1366,768,8-30-2022,6-54-24,140,depth_duration_stimuli/000635_2014-06-08_16-38-42_260595134347_rgbf000106-resize_1/000635_2014-06-08_16-38-42_260595134347_rgbf000106-resize_1-target.png,1000,2.074,5,4482,1005,feet,jsons/v1_VE1000_randls_73_rotated.json,862058,1201623,28,Woman
140,574189,DepthScenes,duration_manipulation_targetAtFixation,jsons/v1_VE1000_randls_73_rotated.json,http://54.235.29.9/FacialAge/BNav_EC2/DepthDuration/v2_depth_duration_MTurk/v2_DepthDuration_HTML.html#262,262,1366,625,1366,768,8-30-2022,6-54-24,141,depth_duration_stimuli/002279_2014-06-28_18-55-32_260595134347_rgbf000040-resize_5/002279_2014-06-28_18-55-32_260595134347_rgbf000040-resize_5-target.png,1000,1.5043333333333,2,4433,998,feet,jsons/v1_VE1000_randls_73_rotated.json,862058,1201623,28,Woman
141,574189,DepthScenes,duration_manipulation_targetAtFixation,jsons/v1_VE1000_randls_73_rotated.json,http://54.235.29.9/FacialAge/BNav_EC2/DepthDuration/v2_depth_duration_MTurk/v2_DepthDuration_HTML.html#262,262,1366,625,1366,768,8-30-2022,6-54-24,142,depth_duration_stimuli/001447_2014-06-19_17-00-32_260595134347_rgbf000082-resize_5/001447_2014-06-19_17-00-32_260595134347_rgbf000082-resize_5-target.png,1000,4.13775,3,4704,998,feet,jsons/v1_VE1000_randls_73_rotated.json,862058,1201623,28,Woman
142,574189,DepthScenes,duration_manipulation_targetAtFixation,jsons/v1_VE1000_randls_73_rotated.json,http://54.235.29.9/FacialAge/BNav_EC2/DepthDuration/v2_depth_duration_MTurk/v2_DepthDuration_HTML.html#262,262,1366,625,1366,768,8-30-2022,6-54-24,143,depth_duration_stimuli/000447_2014-06-08_16-15-46_260595134347_rgbf000130-resize_1/000447_2014-06-08_16-15-46_260595134347_rgbf000130-resize_1-target.png,1000,4.479,3,3678,1001,feet,jsons/v1_VE1000_randls_73_rotated.json,862058,1201623,28,Woman
143,574189,DepthScenes,duration_manipulation_targetAtFixation,jsons/v1_VE1000_randls_73_rotated.json,http://54.235.29.9/FacialAge/BNav_EC2/DepthDuration/v2_depth_duration_MTurk/v2_DepthDuration_HTML.html#262,262,1366,625,1366,768,8-30-2022,6-54-24,144,depth_duration_stimuli/000137_2014-05-20_17-04-49_260595134347_rgbf000120-resize_1/000137_2014-05-20_17-04-49_260595134347_rgbf000120-resize_1-target.png,1000,3.786,3,4932,1001,feet,jsons/v1_VE1000_randls_73_rotated.json,862058,1201623,28,Woman
144,574189,DepthScenes,duration_manipulation_targetAtFixation,jsons/v1_VE1000_randls_73_rotated.json,http://54.235.29.9/FacialAge/BNav_EC2/DepthDuration/v2_depth_duration_MTurk/v2_DepthDuration_HTML.html#262,262,1366,625,1366,768,8-30-2022,6-54-24,145,depth_duration_stimuli/000736_2014-06-08_18-24-15_260595134347_rgbf000206-resize_3/000736_2014-06-08_18-24-15_260595134347_rgbf000206-resize_3-target.png,1000,3.515,4,4341,999,feet,jsons/v1_VE1000_randls_73_rotated.json,862058,1201623,28,Woman
145,574189,DepthScenes,duration_manipulation_targetAtFixation,jsons/v1_VE1000_randls_73_rotated.json,http://54.235.29.9/FacialAge/BNav_EC2/DepthDuration/v2_depth_duration_MTurk/v2_DepthDuration_HTML.html#262,262,1366,625,1366,768,8-30-2022,6-54-24,146,depth_duration_stimuli/000409_2014-06-04_19-23-33_260595134347_rgbf000067-resize_0/000409_2014-06-04_19-23-33_260595134347_rgbf000067-resize_0-target.png,1000,3.7335,4,4976,1000,feet,jsons/v1_VE1000_randls_73_rotated.json,862058,1201623,28,Woman
146,574189,DepthScenes,duration_manipulation_targetAtFixation,jsons/v1_VE1000_randls_73_rotated.json,http://54.235.29.9/FacialAge/BNav_EC2/DepthDuration/v2_depth_duration_MTurk/v2_DepthDuration_HTML.html#262,262,1366,625,1366,768,8-30-2022,6-54-24,147,depth_duration_stimuli/002663_2014-06-13_15-50-26_094959634447_rgbf000075-resize_1/002663_2014-06-13_15-50-26_094959634447_rgbf000075-resize_1-target.png,1000,4.7495,4,5019,999,feet,jsons/v1_VE1000_randls_73_rotated.json,862058,1201623,28,Woman
147,574189,DepthScenes,duration_manipulation_targetAtFixation,jsons/v1_VE1000_randls_73_rotated.json,http://54.235.29.9/FacialAge/BNav_EC2/DepthDuration/v2_depth_duration_MTurk/v2_DepthDuration_HTML.html#262,262,1366,625,1366,768,8-30-2022,6-54-24,148,depth_duration_stimuli/001828_2014-06-26_21-40-03_260595134347_rgbf000024-resize_0/001828_2014-06-26_21-40-03_260595134347_rgbf000024-resize_0-target.png,1000,4.8260000000000005,4,6981,761,feet,jsons/v1_VE1000_randls_73_rotated.json,862058,1201623,28,Woman
148,574189,DepthScenes,duration_manipulation_targetAtFixation,jsons/v1_VE1000_randls_73_rotated.json,http://54.235.29.9/FacialAge/BNav_EC2/DepthDuration/v2_depth_duration_MTurk/v2_DepthDuration_HTML.html#262,262,1366,625,1366,768,8-30-2022,6-54-24,149,depth_duration_stimuli/000009_2014-05-26_14-32-05_260595134347_rgbf000034-resize_3/000009_2014-05-26_14-32-05_260595134347_rgbf000034-resize_3-target.png,1000,3.8715,4,4933,999,feet,jsons/v1_VE1000_randls_73_rotated.json,862058,1201623,28,Woman
149,574189,DepthScenes,duration_manipulation_targetAtFixation,jsons/v1_VE1000_randls_73_rotated.json,http://54.235.29.9/FacialAge/BNav_EC2/DepthDuration/v2_depth_duration_MTurk/v2_DepthDuration_HTML.html#262,262,1366,625,1366,768,8-30-2022,6-54-24,150,depth_duration_stimuli/002678_2014-06-13_16-15-32_094959634447_rgbf000151-resize_6/002678_2014-06-13_16-15-32_094959634447_rgbf000151-resize_6-target.png,1000,2.1830000000000003,4,4866,1000,feet,jsons/v1_VE1000_randls_73_rotated.json,862058,1201623,28,Woman
150,574189,DepthScenes,duration_manipulation_targetAtFixation,jsons/v1_VE1000_randls_73_rotated.json,http://54.235.29.9/FacialAge/BNav_EC2/DepthDuration/v2_depth_duration_MTurk/v2_DepthDuration_HTML.html#262,262,1366,625,1366,768,8-30-2022,6-54-24,151,depth_duration_stimuli/000368_2014-06-09_15-53-01_260595134347_rgbf000155-resize_2/000368_2014-06-09_15-53-01_260595134347_rgbf000155-resize_2-target.png,1000,2.4859999999999998,4,5418,1000,feet,jsons/v1_VE1000_randls_73_rotated.json,862058,1201623,28,Woman
151,574189,DepthScenes,duration_manipulation_targetAtFixation,jsons/v1_VE1000_randls_73_rotated.json,http://54.235.29.9/FacialAge/BNav_EC2/DepthDuration/v2_depth_duration_MTurk/v2_DepthDuration_HTML.html#262,262,1366,625,1366,768,8-30-2022,6-54-24,152,depth_duration_stimuli/000569_2014-06-09_22-51-47_260595134347_rgbf000141-resize_3/000569_2014-06-09_22-51-47_260595134347_rgbf000141-resize-original.jpg,1000,4.512,0,6057,997,feet,jsons/v1_VE1000_randls_73_rotated.json,862058,1201623,28,Woman
152,574189,DepthScenes,duration_manipulation_targetAtFixation,jsons/v1_VE1000_randls_73_rotated.json,http://54.235.29.9/FacialAge/BNav_EC2/DepthDuration/v2_depth_duration_MTurk/v2_DepthDuration_HTML.html#262,262,1366,625,1366,768,8-30-2022,6-54-24,153,depth_duration_stimuli/001650_2014-06-20_12-09-00_260595134347_rgbf000087-resize_3/001650_2014-06-20_12-09-00_260595134347_rgbf000087-resize_3-target.png,1000,1.9505,3,5341,999,feet,jsons/v1_VE1000_randls_73_rotated.json,862058,1201623,28,Woman
153,574189,DepthScenes,duration_manipulation_targetAtFixation,jsons/v1_VE1000_randls_73_rotated.json,http://54.235.29.9/FacialAge/BNav_EC2/DepthDuration/v2_depth_duration_MTurk/v2_DepthDuration_HTML.html#262,262,1366,625,1366,768,8-30-2022,6-54-24,154,depth_duration_stimuli/000682_2014-06-08_23-14-58_260595134347_rgbf000041-resize_5/000682_2014-06-08_23-14-58_260595134347_rgbf000041-resize_5-target.png,1000,2.7239999999999998,3,4048,998,feet,jsons/v1_VE1000_randls_73_rotated.json,862058,1201623,28,Woman
154,574189,DepthScenes,duration_manipulation_targetAtFixation,jsons/v1_VE1000_randls_73_rotated.json,http://54.235.29.9/FacialAge/BNav_EC2/DepthDuration/v2_depth_duration_MTurk/v2_DepthDuration_HTML.html#262,262,1366,625,1366,768,8-30-2022,6-54-24,155,depth_duration_stimuli/000103_2014-05-14_22-01-17_260595134347_rgbf000152-resize_5/000103_2014-05-14_22-01-17_260595134347_rgbf000152-resize_5-target.png,1000,1.993,3,4855,1000,feet,jsons/v1_VE1000_randls_73_rotated.json,862058,1201623,28,Woman
155,574189,DepthScenes,duration_manipulation_targetAtFixation,jsons/v1_VE1000_randls_73_rotated.json,http://54.235.29.9/FacialAge/BNav_EC2/DepthDuration/v2_depth_duration_MTurk/v2_DepthDuration_HTML.html#262,262,1366,625,1366,768,8-30-2022,6-54-24,156,depth_duration_stimuli/001555_2014-06-20_17-12-10_260595134347_rgbf000065-resize_4/001555_2014-06-20_17-12-10_260595134347_rgbf000065-resize_4-target.png,1000,1.633,4,4031,999,feet,jsons/v1_VE1000_randls_73_rotated.json,862058,1201623,28,Woman
156,574189,DepthScenes,duration_manipulation_targetAtFixation,jsons/v1_VE1000_randls_73_rotated.json,http://54.235.29.9/FacialAge/BNav_EC2/DepthDuration/v2_depth_duration_MTurk/v2_DepthDuration_HTML.html#262,262,1366,625,1366,768,8-30-2022,6-54-24,157,depth_duration_stimuli/000742_2014-06-08_18-48-09_260595134347_rgbf000164-resize_4/000742_2014-06-08_18-48-09_260595134347_rgbf000164-resize_4-target.png,1000,4.632,5,5020,1000,feet,jsons/v1_VE1000_randls_73_rotated.json,862058,1201623,28,Woman
157,574189,DepthScenes,duration_manipulation_targetAtFixation,jsons/v1_VE1000_randls_73_rotated.json,http://54.235.29.9/FacialAge/BNav_EC2/DepthDuration/v2_depth_duration_MTurk/v2_DepthDuration_HTML.html#262,262,1366,625,1366,768,8-30-2022,6-54-24,158,depth_duration_stimuli/001066_2014-06-08_22-03-20_260595134347_rgbf000066-resize_4/001066_2014-06-08_22-03-20_260595134347_rgbf000066-resize_4-target.png,1000,4.2330000000000005,6,3760,1201,feet,jsons/v1_VE1000_randls_73_rotated.json,862058,1201623,28,Woman
158,574189,DepthScenes,duration_manipulation_targetAtFixation,jsons/v1_VE1000_randls_73_rotated.json,http://54.235.29.9/FacialAge/BNav_EC2/DepthDuration/v2_depth_duration_MTurk/v2_DepthDuration_HTML.html#262,262,1366,625,1366,768,8-30-2022,6-54-24,159,depth_duration_stimuli/002639_2014-06-24_14-51-37_094959634447_rgbf000074-resize_4/002639_2014-06-24_14-51-37_094959634447_rgbf000074-resize_4-target.png,1000,4.0375,6,3798,1000,feet,jsons/v1_VE1000_randls_73_rotated.json,862058,1201623,28,Woman
159,574189,DepthScenes,duration_manipulation_targetAtFixation,jsons/v1_VE1000_randls_73_rotated.json,http://54.235.29.9/FacialAge/BNav_EC2/DepthDuration/v2_depth_duration_MTurk/v2_DepthDuration_HTML.html#262,262,1366,625,1366,768,8-30-2022,6-54-24,160,depth_duration_stimuli/003292_2014-05-14_21-53-49_094959634447_rgbf000100-resize_2/003292_2014-05-14_21-53-49_094959634447_rgbf000100-resize_2-target.png,1000,3.4815,6,3607,1000,feet,jsons/v1_VE1000_randls_73_rotated.json,862058,1201623,28,Woman
160,574189,DepthScenes,duration_manipulation_targetAtFixation,jsons/v1_VE1000_randls_73_rotated.json,http://54.235.29.9/FacialAge/BNav_EC2/DepthDuration/v2_depth_duration_MTurk/v2_DepthDuration_HTML.html#262,262,1366,625,1366,768,8-30-2022,6-54-24,161,depth_duration_stimuli/001214_2014-06-17_16-13-55_260595134347_rgbf000111-resize_0/001214_2014-06-17_16-13-55_260595134347_rgbf000111-resize_0-target.png,1000,2.6505,4,5075,997,feet,jsons/v1_VE1000_randls_73_rotated.json,862058,1201623,28,Woman
161,574189,DepthScenes,duration_manipulation_targetAtFixation,jsons/v1_VE1000_randls_73_rotated.json,http://54.235.29.9/FacialAge/BNav_EC2/DepthDuration/v2_depth_duration_MTurk/v2_DepthDuration_HTML.html#262,262,1366,625,1366,768,8-30-2022,6-54-24,162,depth_duration_stimuli/000810_2014-06-08_17-20-01_260595134347_rgbf000105-resize_0/000810_2014-06-08_17-20-01_260595134347_rgbf000105-resize_0-target.png,1000,1.4865,3,5080,999,feet,jsons/v1_VE1000_randls_73_rotated.json,862058,1201623,28,Woman
162,574189,DepthScenes,duration_manipulation_targetAtFixation,jsons/v1_VE1000_randls_73_rotated.json,http://54.235.29.9/FacialAge/BNav_EC2/DepthDuration/v2_depth_duration_MTurk/v2_DepthDuration_HTML.html#262,262,1366,625,1366,768,8-30-2022,6-54-24,163,depth_duration_stimuli/002875_2014-06-01_15-19-00_094959634447_rgbf000151-resize_1/002875_2014-06-01_15-19-00_094959634447_rgbf000151-resize_1-target.png,1000,1.9675,3,6335,998,feet,jsons/v1_VE1000_randls_73_rotated.json,862058,1201623,28,Woman
163,574189,DepthScenes,duration_manipulation_targetAtFixation,jsons/v1_VE1000_randls_73_rotated.json,http://54.235.29.9/FacialAge/BNav_EC2/DepthDuration/v2_depth_duration_MTurk/v2_DepthDuration_HTML.html#262,262,1366,625,1366,768,8-30-2022,6-54-24,164,depth_duration_stimuli/001011_2014-06-08_23-18-54_260595134347_rgbf000044-resize_4/001011_2014-06-08_23-18-54_260595134347_rgbf000044-resize_4-target.png,1000,2.4730000000000003,3,3795,999,feet,jsons/v1_VE1000_randls_73_rotated.json,862058,1201623,28,Woman
